loggingTime(txt),locationTimestamp_since1970(s),locationLatitude(WGS84),locationLongitude(WGS84),locationAltitude(m),locationSpeed(m/s),locationSpeedAccuracy(m/s),locationCourse(°),locationCourseAccuracy(°),locationVerticalAccuracy(m),locationHorizontalAccuracy(m),locationFloor(Z),accelerometerTimestamp_sinceReboot(s),accelerometerAccelerationX(G),accelerometerAccelerationY(G),accelerometerAccelerationZ(G),motionTimestamp_sinceReboot(s),motionYaw(rad),motionRoll(rad),motionPitch(rad),motionRotationRateX(rad/s),motionRotationRateY(rad/s),motionRotationRateZ(rad/s),motionUserAccelerationX(G),motionUserAccelerationY(G),motionUserAccelerationZ(G),motionAttitudeReferenceFrame(txt),motionQuaternionX(R),motionQuaternionY(R),motionQuaternionZ(R),motionQuaternionW(R),motionGravityX(G),motionGravityY(G),motionGravityZ(G),motionMagneticFieldX(µT),motionMagneticFieldY(µT),motionMagneticFieldZ(µT),motionHeading(°),motionMagneticFieldCalibrationAccuracy(Z),activityTimestamp_sinceReboot(s),activity(txt),activityActivityConfidence(Z),activityActivityStartDate(txt),pedometerStartDate(txt),pedometerNumberofSteps(N),pedometerAverageActivePace(s/m),pedometerCurrentPace(s/m),pedometerCurrentCadence(steps/s),pedometerDistance(m),pedometerFloorAscended(N),pedometerFloorDescended(N),pedometerEndDate(txt),altimeterTimestamp_sinceReboot(s),altimeterReset(bool),altimeterRelativeAltitude(m),altimeterPressure(kPa),batteryState(N),batteryLevel(R),heartRateBPMTimestamp(txt),heartRateBPM(N),heartRateBPS(R),heartRateVariabilityTimestamp(txt),heartRateVariability(ms),label
2025-04-18T10:18:13.827+03:00,1744960693.019994,40.95362655444679,29.14099305211143,92.02811,-1,-1,-1,-1,30,21.49291283600189,-9999,60703.60227804167,-0.726593017578125,0.6322479248046875,-0.2512054443359375,60703.59220204167,1.486167991612886,-1.265187530754877,-0.6899164504583744,0.08287444710731506,-0.3250196874141693,-0.1075884699821472,0.03161132335662842,0.02409547567367554,0.007652774453163147,XArbitraryZVertical,0.1756157803167869,-0.5942450894123744,0.6607277473090787,0.4236398788767903,-0.7355602979660034,0.636472761631012,-0.2320637404918671,0,0,0,-1,-1,60702.52296725001,unknown,2,2025-04-18T10:18:12.715+03:00,2025-04-17T15:44:39.500+03:00,7077,1.059162,0,0,5844.344,4,10,2025-04-18T10:17:57.239+03:00,766653492.8140407,0,105.42,100.5905,1,0.75,2025-04-18T10:17:43.542+03:00,108,1.8,2025-04-18T08:51:18.885+03:00,0.03057091307199995,1
2025-04-18T10:18:13.830+03:00,1744960693.019994,40.95362655444679,29.14099305211143,92.02811,-1,-1,-1,-1,30,21.49291283600189,-9999,60703.61235304167,-0.7516021728515625,0.6529998779296875,-0.2313232421875,60703.60227804167,1.486339651886094,-1.267684664188685,-0.6886653005709923,0.004038748797029257,-0.2215545773506165,-0.1227501183748245,0.01570552587509155,-0.00483095645904541,-0.01990234851837158,XArbitraryZVertical,0.1769256590447032,-0.5945295881223253,0.6604027325530568,0.4232023100177597,-0.7368969917297363,0.6355072259902954,-0.2304637581110001,0,0,0,-1,-1,60702.52296725001,unknown,2,2025-04-18T10:18:12.715+03:00,2025-04-17T15:44:39.500+03:00,7077,1.059162,0,0,5844.344,4,10,2025-04-18T10:17:57.239+03:00,766653492.8140407,0,105.42,100.5905,1,0.75,2025-04-18T10:17:43.542+03:00,108,1.8,2025-04-18T08:51:18.885+03:00,0.03057091307199995,1
2025-04-18T10:18:13.831+03:00,1744960693.019994,40.95362655444679,29.14099305211143,92.02811,-1,-1,-1,-1,30,21.49291283600189,-9999,60703.62242804167,-0.7701873779296875,0.5428466796875,-0.2191925048828125,60703.61235304167,1.484376420096877,-1.270730699678047,-0.6853898849226157,-0.1826208829879761,-0.1573343127965927,-0.9366560578346252,-0.009885907173156738,0.01910948753356934,-0.0059700608253479,XArbitraryZVertical,0.1784828823975612,-0.5947501984727426,0.659343256549434,0.4238898588584076,-0.7395801544189453,0.6329749226570129,-0.2288321256637573,0,0,0,-1,-1,60702.52296725001,unknown,2,2025-04-18T10:18:12.715+03:00,2025-04-17T15:44:39.500+03:00,7077,1.059162,0,0,5844.344,4,10,2025-04-18T10:17:57.239+03:00,766653492.8140407,0,105.42,100.5905,1,0.75,2025-04-18T10:17:43.542+03:00,108,1.8,2025-04-18T08:51:18.885+03:00,0.03057091307199995,1
2025-04-18T10:18:13.833+03:00,1744960693.019994,40.95362655444679,29.14099305211143,92.02811,-1,-1,-1,-1,30,21.49291283600189,-9999,60703.63250404167,-0.720062255859375,0.37921142578125,-0.1991729736328125,60703.62242804167,1.479229246542175,-1.276435687772513,-0.6779974234655745,-0.1333630532026291,-0.2982552051544189,-0.5261414647102356,-0.02194178104400635,-0.05364143848419189,0.005349040031433105,XArbitraryZVertical,0.1813916270708978,-0.5950771432936037,0.6568784306455022,0.4260176369333692,-0.7453312277793884,0.6272346377372742,-0.2259605377912521,0,0,0,-1,-1,60702.52296725001,unknown,2,2025-04-18T10:18:12.715+03:00,2025-04-17T15:44:39.500+03:00,7077,1.059162,0,0,5844.344,4,10,2025-04-18T10:17:57.239+03:00,766653492.8140407,0,105.42,100.5905,1,0.75,2025-04-18T10:17:43.542+03:00,108,1.8,2025-04-18T08:51:18.885+03:00,0.03057091307199995,1
2025-04-18T10:18:13.839+03:00,1744960693.019994,40.95362655444679,29.14099305211143,92.02811,-1,-1,-1,-1,30,21.49291283600189,-9999,60703.64258004167,-0.73638916015625,0.73297119140625,-0.20440673828125,60703.63250404167,1.475729551515028,-1.281732308509797,-0.6745437616665482,-0.1841843575239182,-0.311268150806427,-0.3117223978042603,0.01680845022201538,-0.2592609524726868,0.02023330330848694,XArbitraryZVertical,0.1832836532480636,-0.5958978028078943,0.6552402623151184,0.4265830564102521,-0.7485894560813904,0.6245410442352295,-0.2226258218288422,0,0,0,-1,-1,60702.52296725001,unknown,2,2025-04-18T10:18:12.715+03:00,2025-04-17T15:44:39.500+03:00,7077,1.059162,0,0,5844.344,4,10,2025-04-18T10:17:57.239+03:00,766653492.8140407,0,105.42,100.5905,1,0.75,2025-04-18T10:17:43.542+03:00,108,1.8,2025-04-18T08:51:18.885+03:00,0.03057091307199995,1
2025-04-18T10:18:13.851+03:00,1744960693.019994,40.95362655444679,29.14099305211143,92.02811,-1,-1,-1,-1,30,21.49291283600189,-9999,60703.65265504167,-0.7713470458984375,0.7922210693359375,-0.24688720703125,60703.64258004167,1.473409128766004,-1.285860378215147,-0.6727623344563995,-0.04744195193052292,-0.20232754945755,-0.09056258946657181,0.02539467811584473,0.06825745105743408,0.01960510015487671,XArbitraryZVertical,0.1845600911143575,-0.5966695213183368,0.6541515999972031,0.4266248744878664,-0.750568687915802,0.6231487989425659,-0.2198461145162582,0,0,0,-1,-1,60702.52296725001,unknown,2,2025-04-18T10:18:12.715+03:00,2025-04-17T15:44:39.500+03:00,7077,1.059162,0,0,5844.344,4,10,2025-04-18T10:17:57.239+03:00,766653492.8140407,0,105.42,100.5905,1,0.75,2025-04-18T10:17:43.542+03:00,108,1.8,2025-04-18T08:51:18.885+03:00,0.03057091307199995,1
2025-04-18T10:18:13.860+03:00,1744960693.019994,40.95362655444679,29.14099305211143,92.02811,-1,-1,-1,-1,30,21.49291283600189,-9999,60703.66273104167,-0.7821197509765625,0.6765594482421875,-0.24627685546875,60703.65265504167,1.473339148976712,-1.287111810765108,-0.672222955765901,0.04138978198170662,-0.05753188207745552,-0.02460294216871262,-0.02199703454971313,0.1818233728408813,-0.02452945709228516,XArbitraryZVertical,0.18513515644225,-0.5968455483692614,0.6539557531622879,0.4264298339181209,-0.7511659264564514,0.6227268576622009,-0.2190007269382477,0,0,0,-1,-1,60702.52296725001,unknown,2,2025-04-18T10:18:12.715+03:00,2025-04-17T15:44:39.500+03:00,7077,1.059162,0,0,5844.344,4,10,2025-04-18T10:17:57.239+03:00,766653492.8140407,0,105.42,100.5905,1,0.75,2025-04-18T10:17:43.542+03:00,108,1.8,2025-04-18T08:51:18.885+03:00,0.03057091307199995,1
2025-04-18T10:18:13.869+03:00,1744960693.019994,40.95362655444679,29.14099305211143,92.02811,-1,-1,-1,-1,30,21.49291283600189,-9999,60703.67280604167,-0.76312255859375,0.6014404296875,-0.22314453125,60703.66273104167,1.473741321517749,-1.28730486573084,-0.6720148656084838,0.02259212546050549,-0.03181213513016701,0.0103723518550396,-0.02784240245819092,0.06585150957107544,-0.02962791919708252,XArbitraryZVertical,0.1853903701938701,-0.5968119049831443,0.6539983842509288,0.4263005197442931,-0.7513324618339539,0.6225640177726746,-0.2188919186592102,0,0,0,-1,-1,60702.52296725001,unknown,2,2025-04-18T10:18:12.715+03:00,2025-04-17T15:44:39.500+03:00,7077,1.059162,0,0,5844.344,4,10,2025-04-18T10:17:57.239+03:00,766653492.8140407,0,105.42,100.5905,1,0.75,2025-04-18T10:17:43.542+03:00,108,1.8,2025-04-18T08:51:18.885+03:00,0.03057091307199995,1
2025-04-18T10:18:13.879+03:00,1744960693.019994,40.95362655444679,29.14099305211143,92.02811,-1,-1,-1,-1,30,21.49291283600189,-9999,60703.68288204167,-0.739013671875,0.555816650390625,-0.2218170166015625,60703.67280604167,1.473539991763503,-1.287746872908929,-0.6720669005176152,-0.05449167266488075,-0.0363176055252552,-0.009724227711558342,-0.01735508441925049,-0.01306188106536865,-0.006211161613464355,XArbitraryZVertical,0.1854567921349384,-0.5969341633813662,0.6539208054575009,0.4262194853764825,-0.7513980269432068,0.6226047277450562,-0.2185507714748383,0,0,0,-1,-1,60702.52296725001,unknown,2,2025-04-18T10:18:12.715+03:00,2025-04-17T15:44:39.500+03:00,7077,1.059162,0,0,5844.344,4,10,2025-04-18T10:17:57.239+03:00,766653492.8140407,0,105.42,100.5905,1,0.75,2025-04-18T10:17:43.542+03:00,108,1.8,2025-04-18T08:51:18.885+03:00,0.03057091307199995,1
2025-04-18T10:18:13.890+03:00,1744960693.019994,40.95362655444679,29.14099305211143,92.02811,-1,-1,-1,-1,30,21.49291283600189,-9999,60703.69295704167,-0.7574310302734375,0.5718536376953125,-0.2185516357421875,60703.68288204167,1.472394606987907,-1.288875556551127,-0.6721556018438154,-0.114994965493679,-0.03715916350483894,-0.0160196740180254,0.01344716548919678,-0.06449240446090698,-0.003946706652641296,XArbitraryZVertical,0.185453127113467,-0.5972968881542965,0.6535828109795194,0.4262311731945128,-0.7515910863876343,0.6226741671562195,-0.2176871299743652,0,0,0,-1,-1,60702.52296725001,unknown,2,2025-04-18T10:18:12.715+03:00,2025-04-17T15:44:39.500+03:00,7077,1.059162,0,0,5844.344,4,10,2025-04-18T10:17:57.239+03:00,766653492.8140407,0,105.42,100.5905,1,0.75,2025-04-18T10:17:43.542+03:00,108,1.8,2025-04-18T08:51:18.885+03:00,0.03057091307199995,1
2025-04-18T10:18:13.900+03:00,1744960693.019994,40.95362655444679,29.14099305211143,92.02811,-1,-1,-1,-1,30,21.49291283600189,-9999,60703.70303304167,-0.7620697021484375,0.6196746826171875,-0.215911865234375,60703.69295704167,1.470668677727111,-1.290191353158128,-0.6722325964723822,-0.1405423283576965,-0.01133309304714203,-0.04273806884884834,-0.003784358501434326,-0.0555042028427124,-0.002278789877891541,XArbitraryZVertical,0.1853406206544089,-0.5977511843175787,0.6531023413372464,0.4263798190877751,-0.7518308758735657,0.6227343678474426,-0.2166847586631775,0,0,0,-1,-1,60702.52296725001,unknown,2,2025-04-18T10:18:12.715+03:00,2025-04-17T15:44:39.500+03:00,7077,1.059162,0,0,5844.344,4,10,2025-04-18T10:17:57.239+03:00,766653492.8140407,0,105.42,100.5905,1,0.75,2025-04-18T10:17:43.542+03:00,108,1.8,2025-04-18T08:51:18.885+03:00,0.03057091307199995,1
2025-04-18T10:18:13.910+03:00,1744960693.019994,40.95362655444679,29.14099305211143,92.02811,-1,-1,-1,-1,30,21.49291283600189,-9999,60703.71310804167,-0.7599029541015625,0.6718292236328125,-0.2066192626953125,60703.70303304167,1.468834180853814,-1.291431165500337,-0.6720815286734306,-0.1186341047286987,-0.01588629931211472,-0.06322763115167618,-0.01013970375061035,-0.009228110313415527,-0.0003165006637573242,XArbitraryZVertical,0.1852491185913589,-0.5981584688235535,0.6525777809336519,0.4266515971195047,-0.7521894574165344,0.622616171836853,-0.2157784253358841,0,0,0,-1,-1,60702.52296725001,unknown,2,2025-04-18T10:18:12.715+03:00,2025-04-17T15:44:39.500+03:00,7077,1.059162,0,0,5844.344,4,10,2025-04-18T10:17:57.239+03:00,766653492.8140407,0,105.42,100.5905,1,0.75,2025-04-18T10:17:43.542+03:00,108,1.8,2025-04-18T08:51:18.885+03:00,0.03057091307199995,1
2025-04-18T10:18:13.920+03:00,1744960693.019994,40.95362655444679,29.14099305211143,92.02811,-1,-1,-1,-1,30,21.49291283600189,-9999,60703.72318404167,-0.7475433349609375,0.6888885498046875,-0.2063446044921875,60703.71310804167,1.467544200003461,-1.292470254879646,-0.6716299667182788,-0.04299826920032501,-0.01831490360200405,-0.06488800793886185,-0.008058786392211914,0.04387491941452026,0.007020369172096252,XArbitraryZVertical,0.1853586111842408,-0.5984189495500168,0.6521507785006208,0.4268914237156926,-0.7526833415031433,0.6222627758979797,-0.215073898434639,0,0,0,-1,-1,60702.52296725001,unknown,2,2025-04-18T10:18:12.715+03:00,2025-04-17T15:44:39.500+03:00,7077,1.059162,0,0,5844.344,4,10,2025-04-18T10:17:57.239+03:00,766653492.8140407,0,105.42,100.5905,1,0.75,2025-04-18T10:17:43.542+03:00,108,1.8,2025-04-18T08:51:18.885+03:00,0.03057091307199995,1
2025-04-18T10:18:13.930+03:00,1744960693.019994,40.95362655444679,29.14099305211143,92.02811,-1,-1,-1,-1,30,21.49291283600189,-9999,60703.73325904167,-0.7428131103515625,0.671295166015625,-0.2079010009765625,60703.72318404167,1.467344477231874,-1.292573619765641,-0.671166161350679,0.03251326829195023,0.015646792948246,-0.04542137309908867,0.003639161586761475,0.06781286001205444,0.008974984288215637,XArbitraryZVertical,0.1854931852437864,-0.5983766466378837,0.6520414693350485,0.4270592163758232,-0.752983033657074,0.6218996047973633,-0.2150753289461136,0,0,0,-1,-1,60702.52296725001,unknown,2,2025-04-18T10:18:12.715+03:00,2025-04-17T15:44:39.500+03:00,7077,1.059162,0,0,5844.344,4,10,2025-04-18T10:17:57.239+03:00,766653492.8140407,0,105.42,100.5905,1,0.75,2025-04-18T10:17:43.542+03:00,108,1.8,2025-04-18T08:51:18.885+03:00,0.03057091307199995,1
2025-04-18T10:18:13.940+03:00,1744960693.019994,40.95362655444679,29.14099305211143,92.02811,-1,-1,-1,-1,30,21.49291283600189,-9999,60703.74333504167,-0.748931884765625,0.661590576171875,-0.211761474609375,60703.73325904167,1.467751096382718,-1.292198739436343,-0.6704551794291436,0.06384142488241196,0.006379858125001192,-0.07146652042865753,0.01055991649627686,0.05173772573471069,0.007990196347236633,XArbitraryZVertical,0.1857388176580074,-0.5981316943832792,0.6520755513190252,0.4272435039744891,-0.7533272504806519,0.6213427186012268,-0.2154791355133057,0,0,0,-1,-1,60702.52296725001,unknown,2,2025-04-18T10:18:12.715+03:00,2025-04-17T15:44:39.500+03:00,7077,1.059162,0,0,5844.344,4,10,2025-04-18T10:17:57.239+03:00,766653492.8140407,0,105.42,100.5905,1,0.75,2025-04-18T10:17:43.542+03:00,108,1.8,2025-04-18T08:51:18.885+03:00,0.03057091307199995,1
2025-04-18T10:18:13.950+03:00,1744960693.019994,40.95362655444679,29.14099305211143,92.02811,-1,-1,-1,-1,30,21.49291283600189,-9999,60703.75341004167,-0.749725341796875,0.641387939453125,-0.220306396484375,60703.74333504167,1.468289402817183,-1.291925154729021,-0.6694400001197346,0.07156592607498169,-0.02384755201637745,-0.1038239300251007,0.005293428897857666,0.04266107082366943,0.004890799522399902,XArbitraryZVertical,0.1861620061278691,-0.5978413777993726,0.6520909896567522,0.4274422184048788,-0.7538744211196899,0.6205469369888306,-0.2158587872982025,0,0,0,-1,-1,60702.52296725001,unknown,2,2025-04-18T10:18:12.715+03:00,2025-04-17T15:44:39.500+03:00,7077,1.059162,0,0,5844.344,4,10,2025-04-18T10:17:57.239+03:00,766653492.8140407,0,105.42,100.5905,1,0.75,2025-04-18T10:17:43.542+03:00,108,1.8,2025-04-18T08:51:18.885+03:00,0.03057091307199995,1
2025-04-18T10:18:13.960+03:00,1744960693.019994,40.95362655444679,29.14099305211143,92.02811,-1,-1,-1,-1,30,21.49291283600189,-9999,60703.76348604167,-0.751190185546875,0.614013671875,-0.22076416015625,60703.75341004167,1.468742419942368,-1.291942685012061,-0.6681356549305403,0.06583839654922485,-0.0349554643034935,-0.1267708539962769,0.004533529281616211,0.02512979507446289,-0.002575010061264038,XArbitraryZVertical,0.186754587816838,-0.5975689297970429,0.6520254358946448,0.427664699176036,-0.7546557784080505,0.6195235848426819,-0.2160681933164597,0,0,0,-1,-1,60702.52296725001,unknown,2,2025-04-18T10:18:12.715+03:00,2025-04-17T15:44:39.500+03:00,7077,1.059162,0,0,5844.344,4,10,2025-04-18T10:17:57.239+03:00,766653492.8140407,0,105.42,100.5905,1,0.75,2025-04-18T10:17:43.542+03:00,108,1.8,2025-04-18T08:51:18.885+03:00,0.03057091307199995,1
2025-04-18T10:18:13.970+03:00,1744960693.019994,40.95362655444679,29.14099305211143,92.02811,-1,-1,-1,-1,30,21.49291283600189,-9999,60703.77356104167,-0.757354736328125,0.6071319580078125,-0.2163543701171875,60703.76348604167,1.469018409097214,-1.292185027003359,-0.6666243408689749,0.05492689460515976,-0.03945434466004372,-0.142037957906723,0.004752814769744873,-0.00162208080291748,-0.005048796534538269,XArbitraryZVertical,0.1874390590520054,-0.59732347592566,0.6518752121543675,0.4279369433147212,-0.7556073069572449,0.61833655834198,-0.2161425352096558,0,0,0,-1,-1,60702.52296725001,unknown,2,2025-04-18T10:18:12.715+03:00,2025-04-17T15:44:39.500+03:00,7077,1.059162,0,0,5844.344,4,10,2025-04-18T10:17:57.239+03:00,766653492.8140407,0,105.42,100.5905,1,0.75,2025-04-18T10:17:43.542+03:00,108,1.8,2025-04-18T08:51:18.885+03:00,0.03057091307199995,1
2025-04-18T10:18:13.980+03:00,1744960693.019994,40.95362655444679,29.14099305211143,92.02811,-1,-1,-1,-1,30,21.49291283600189,-9999,60703.78363704167,-0.7625579833984375,0.614898681640625,-0.2172698974609375,60703.77356104167,1.469103419975137,-1.292390029025918,-0.6650810002418386,0.03891770541667938,-0.01171605475246906,-0.147347703576088,-8.45789909362793e-05,-0.0110589861869812,-0.0004861354827880859,XArbitraryZVertical,0.1880651414430409,-0.5970818038820395,0.6516832311877063,0.4282918303858277,-0.7565683126449585,0.6171228885650635,-0.2162496447563171,0,0,0,-1,-1,60702.52296725001,unknown,2,2025-04-18T10:18:12.715+03:00,2025-04-17T15:44:39.500+03:00,7077,1.059162,0,0,5844.344,4,10,2025-04-18T10:17:57.239+03:00,766653492.8140407,0,105.42,100.5905,1,0.75,2025-04-18T10:17:43.542+03:00,108,1.8,2025-04-18T08:51:18.885+03:00,0.03057091307199995,1
2025-04-18T10:18:13.990+03:00,1744960693.019994,40.95362655444679,29.14099305211143,92.02811,-1,-1,-1,-1,30,21.49291283600189,-9999,60703.79371204167,-0.7551727294921875,0.6184844970703125,-0.219268798828125,60703.78363704167,1.46890760075102,-1.29256117171166,-0.663563464113734,0.01323417760431767,0.002828266238793731,-0.1451071947813034,-0.005465149879455566,-0.002067029476165771,-0.0004197210073471069,XArbitraryZVertical,0.1885873691571383,-0.596863684884109,0.6514369653050711,0.4287404656606008,-0.7575048208236694,0.615928053855896,-0.2163770943880081,0,0,0,-1,-1,60702.52296725001,unknown,2,2025-04-18T10:18:12.715+03:00,2025-04-17T15:44:39.500+03:00,7077,1.059162,0,0,5844.344,4,10,2025-04-18T10:17:57.239+03:00,766653492.8140407,0,105.42,100.5905,1,0.75,2025-04-18T10:17:43.542+03:00,108,1.8,2025-04-18T08:51:18.885+03:00,0.03057091307199995,1
2025-04-18T10:18:14.000+03:00,1744960693.019994,40.95362655444679,29.14099305211143,92.02811,-1,-1,-1,-1,30,21.49291283600189,-9999,60703.80378804167,-0.75164794921875,0.612762451171875,-0.2225799560546875,60703.79371204167,1.468479761922633,-1.292710918253632,-0.662302991009627,-0.004363591317087412,0.0209895595908165,-0.1214824840426445,0.001431941986083984,0.002527534961700439,-0.002914175391197205,XArbitraryZVertical,0.188944358755989,-0.5967090781747173,0.6511743847588934,0.4291971597635844,-0.7582831382751465,0.6149345636367798,-0.2164766043424606,0,0,0,-1,-1,60702.52296725001,unknown,2,2025-04-18T10:18:12.715+03:00,2025-04-17T15:44:39.500+03:00,7077,1.059162,0,0,5844.344,4,10,2025-04-18T10:17:57.239+03:00,766653492.8140407,0,105.42,100.5905,1,0.75,2025-04-18T10:17:43.542+03:00,108,1.8,2025-04-18T08:51:18.885+03:00,0.03057091307199995,1
2025-04-18T10:18:14.011+03:00,1744960693.019994,40.95362655444679,29.14099305211143,92.02811,-1,-1,-1,-1,30,21.49291283600189,-9999,60703.81386304167,-0.74945068359375,0.599609375,-0.22845458984375,60703.80378804167,1.468036967397989,-1.292675469372304,-0.6612950311538602,-0.005920741241425276,0.03950279206037521,-0.09642240405082703,0.007436752319335938,0.0003319978713989258,-0.00557062029838562,XArbitraryZVertical,0.1891493049758364,-0.5965616246859394,0.6509571047995946,0.4296411609686034,-0.7588710188865662,0.6141393780708313,-0.2166735380887985,0,0,0,-1,-1,60702.52296725001,unknown,2,2025-04-18T10:18:12.715+03:00,2025-04-17T15:44:39.500+03:00,7077,1.059162,0,0,5844.344,4,10,2025-04-18T10:17:57.239+03:00,766653492.8140407,0,105.42,100.5905,1,0.75,2025-04-18T10:17:43.542+03:00,108,1.8,2025-04-18T08:51:18.885+03:00,0.03057091307199995,1
2025-04-18T10:18:14.021+03:00,1744960693.019994,40.95362655444679,29.14099305211143,92.02811,-1,-1,-1,-1,30,21.49291283600189,-9999,60703.82393904167,-0.74127197265625,0.597412109375,-0.21905517578125,60703.81386304167,1.467641341876109,-1.292429440228528,-0.6607781705732793,-0.01969920471310616,0.06632741540670395,-0.03816459327936172,0.009306013584136963,-0.01297765970230103,-0.01175121963024139,XArbitraryZVertical,0.1891299257456319,-0.5964529655874778,0.6508308933232804,0.4299917562311154,-0.759122908115387,0.6137314438819885,-0.216947466135025,0,0,0,-1,-1,60702.52296725001,unknown,2,2025-04-18T10:18:12.715+03:00,2025-04-17T15:44:39.500+03:00,7077,1.059162,0,0,5844.344,4,10,2025-04-18T10:17:57.239+03:00,766653492.8140407,0,105.42,100.5905,1,0.75,2025-04-18T10:17:43.542+03:00,108,1.8,2025-04-18T08:51:18.885+03:00,0.03057091307199995,1
2025-04-18T10:18:14.031+03:00,1744960693.019994,40.95362655444679,29.14099305211143,92.02811,-1,-1,-1,-1,30,21.49291283600189,-9999,60703.83401404167,-0.7398529052734375,0.5951995849609375,-0.2132568359375,60703.82393904167,1.467287439063057,-1.291822629894279,-0.6608066245747172,-0.02500795014202595,0.1034998148679733,0.01201016269624233,0.01687836647033691,-0.0162043571472168,-0.003330320119857788,XArbitraryZVertical,0.1888170245858999,-0.5963610333960759,0.6508156760999779,0.4302798941544257,-0.7589744925498962,0.6137538552284241,-0.2174032926559448,0,0,0,-1,-1,60702.52296725001,unknown,2,2025-04-18T10:18:12.715+03:00,2025-04-17T15:44:39.500+03:00,7077,1.059162,0,0,5844.344,4,10,2025-04-18T10:17:57.239+03:00,766653492.8140407,0,105.42,100.5905,1,0.75,2025-04-18T10:17:43.542+03:00,108,1.8,2025-04-18T08:51:18.885+03:00,0.03057091307199995,1
2025-04-18T10:18:14.041+03:00,1744960693.019994,40.95362655444679,29.14099305211143,92.02811,-1,-1,-1,-1,30,21.49291283600189,-9999,60703.84409004167,-0.756500244140625,0.591827392578125,-0.2173004150390625,60703.83401404167,1.467189958317381,-1.290401441724677,-0.6613075622002227,-0.01025656703859568,0.1967606544494629,0.06799600273370743,0.0193248987197876,-0.01830881834030151,0.004819393157958984,XArbitraryZVertical,0.1881521558385113,-0.5961547344416364,0.6509910230831883,0.430591583517027,-0.7583691477775574,0.614149272441864,-0.2183966040611267,0,0,0,-1,-1,60702.52296725001,unknown,2,2025-04-18T10:18:12.715+03:00,2025-04-17T15:44:39.500+03:00,7077,1.059162,0,0,5844.344,4,10,2025-04-18T10:17:57.239+03:00,766653492.8140407,0,105.42,100.5905,1,0.75,2025-04-18T10:17:43.542+03:00,108,1.8,2025-04-18T08:51:18.885+03:00,0.03057091307199995,1
2025-04-18T10:18:14.051+03:00,1744960693.019994,40.95362655444679,29.14099305211143,92.02811,-1,-1,-1,-1,30,21.49291283600189,-9999,60703.85416504167,-0.77642822265625,0.5988922119140625,-0.223175048828125,60703.84409004167,1.467412045360419,-1.287885627317602,-0.6621000463234629,-0.01037401240319014,0.2664981782436371,0.0803043320775032,0.004404723644256592,-0.02210789918899536,0.003966167569160461,XArbitraryZVertical,0.187124944457525,-0.5957351077206376,0.65137323889098,0.4310416622654483,-0.7573496699333191,0.6147745251655579,-0.220167875289917,0,0,0,-1,-1,60702.52296725001,unknown,2,2025-04-18T10:18:12.715+03:00,2025-04-17T15:44:39.500+03:00,7077,1.059162,0,0,5844.344,4,10,2025-04-18T10:17:57.239+03:00,766653492.8140407,0,105.42,100.5905,1,0.75,2025-04-18T10:17:43.542+03:00,108,1.8,2025-04-18T08:51:18.885+03:00,0.03057091307199995,1
2025-04-18T10:18:14.061+03:00,1744960693.019994,40.95362655444679,29.14099305211143,92.02811,-1,-1,-1,-1,30,21.49291283600189,-9999,60703.86424104167,-0.7408294677734375,0.6478271484375,-0.21942138671875,60703.85416504167,1.467175376351927,-1.285775312919919,-0.6625837272760546,-0.04125303402543068,0.1707437634468079,0.01374411303550005,-0.01920479536056519,-0.01933068037033081,-0.0004553794860839844,XArbitraryZVertical,0.1861995756681033,-0.5953895559137664,0.6515789374969958,0.4316085581753192,-0.7565978765487671,0.6151559352874756,-0.2216819822788239,0,0,0,-1,-1,60702.52296725001,unknown,2,2025-04-18T10:18:12.715+03:00,2025-04-17T15:44:39.500+03:00,7077,1.059162,0,0,5844.344,4,10,2025-04-18T10:17:57.239+03:00,766653492.8140407,0,105.42,100.5905,1,0.75,2025-04-18T10:17:43.542+03:00,108,1.8,2025-04-18T08:51:18.885+03:00,0.03057091307199995,1
2025-04-18T10:18:14.071+03:00,1744960693.019994,40.95362655444679,29.14099305211143,92.02811,-1,-1,-1,-1,30,21.49291283600189,-9999,60703.87431604167,-0.680694580078125,0.673797607421875,-0.207733154296875,60703.86424104167,1.466880384633183,-1.285197580841463,-0.6627930459076909,-0.01059978175908327,-0.01236560009419918,0.01119972951710224,0.007582008838653564,0.02496838569641113,0.001425504684448242,XArbitraryZVertical,0.1858510344819013,-0.5953301626656952,0.6515948166233433,0.43181668213902,-0.7563461065292358,0.6153209209442139,-0.2220827788114548,0,0,0,-1,-1,60702.52296725001,unknown,2,2025-04-18T10:18:12.715+03:00,2025-04-17T15:44:39.500+03:00,7077,1.059162,0,0,5844.344,4,10,2025-04-18T10:17:57.239+03:00,766653492.8140407,0,105.42,100.5905,1,0.75,2025-04-18T10:17:43.542+03:00,108,1.8,2025-04-18T08:51:18.885+03:00,0.03057091307199995,1
2025-04-18T10:18:14.085+03:00,1744960693.019994,40.95362655444679,29.14099305211143,92.02811,-1,-1,-1,-1,30,21.49291283600189,-9999,60703.88439204167,-0.7141876220703125,0.634918212890625,-0.2144317626953125,60703.87431604167,1.46691479749237,-1.285770384547871,-0.6628290308447917,0.01445343904197216,-0.0816657766699791,-0.001847729086875916,0.07212573289871216,0.06040143966674805,0.01308619976043701,XArbitraryZVertical,0.1860354120037197,-0.5954571191767584,0.6515534313598716,0.4316246806329743,-0.7564520239830017,0.615349292755127,-0.2216432839632034,0,0,0,-1,-1,60702.52296725001,unknown,2,2025-04-18T10:18:12.715+03:00,2025-04-17T15:44:39.500+03:00,7077,1.059162,0,0,5844.344,4,10,2025-04-18T10:17:57.239+03:00,766653492.8140407,0,105.42,100.5905,1,0.75,2025-04-18T10:17:43.542+03:00,108,1.8,2025-04-18T08:51:18.885+03:00,0.03057091307199995,1
2025-04-18T10:18:14.106+03:00,1744960693.019994,40.95362655444679,29.14099305211143,92.02811,-1,-1,-1,-1,30,21.49291283600189,-9999,60703.89446704167,-0.770843505859375,0.618377685546875,-0.233978271484375,60703.88439204167,1.467153401925113,-1.286158530853085,-0.6628032463795137,0.02001838199794292,-0.01682792603969574,0.006136693991720676,0.05071204900741577,0.02431941032409668,0.009318068623542786,XArbitraryZVertical,0.1862418643371617,-0.595513996918964,0.6515656026563026,0.4314386838171565,-0.7565531134605408,0.6153289675712585,-0.2213540971279144,0,0,0,-1,-1,60702.52296725001,unknown,2,2025-04-18T10:18:12.715+03:00,2025-04-17T15:44:39.500+03:00,7077,1.059162,0,0,5844.344,4,10,2025-04-18T10:17:57.239+03:00,766653492.8140407,0,105.42,100.5905,1,0.75,2025-04-18T10:17:43.542+03:00,108,1.8,2025-04-18T08:51:18.885+03:00,0.03057091307199995,1
2025-04-18T10:18:14.108+03:00,1744960693.019994,40.95362655444679,29.14099305211143,92.02811,-1,-1,-1,-1,30,21.49291283600189,-9999,60703.90454304167,-0.7803802490234375,0.6274871826171875,-0.2388458251953125,60703.89446704167,1.46754959131647,-1.285696563474283,-0.6627539260993602,0.03577051311731339,0.04492791369557381,0.01354524120688438,-0.009267151355743408,0.003347039222717285,-0.01035875082015991,XArbitraryZVertical,0.1862263620473798,-0.5953685242218351,0.6516880073562621,0.4314613359294667,-0.7564799785614014,0.615290105342865,-0.221712127327919,0,0,0,-1,-1,60702.52296725001,unknown,2,2025-04-18T10:18:12.715+03:00,2025-04-17T15:44:39.500+03:00,7077,1.059162,0,0,5844.344,4,10,2025-04-18T10:17:57.239+03:00,766653492.8140407,0,105.42,100.5905,1,0.75,2025-04-18T10:17:43.542+03:00,108,1.8,2025-04-18T08:51:18.885+03:00,0.03057091307199995,1
2025-04-18T10:18:14.113+03:00,1744960693.019994,40.95362655444679,29.14099305211143,92.02811,-1,-1,-1,-1,30,21.49291283600189,-9999,60703.91461804167,-0.7480010986328125,0.6407318115234375,-0.2326812744140625,60703.90454304167,1.46806814885334,-1.284963047069435,-0.6627057233972315,0.04300498962402344,0.02598165720701218,0.006391991395503283,-0.02585053443908691,0.01044988632202148,-0.01661619544029236,XArbitraryZVertical,0.186158303559937,-0.5951532666993957,0.651862241533035,0.4315246120232276,-0.7563456892967224,0.6152520775794983,-0.2222753465175629,0,0,0,-1,-1,60702.52296725001,unknown,2,2025-04-18T10:18:12.715+03:00,2025-04-17T15:44:39.500+03:00,7077,1.059162,0,0,5844.344,4,10,2025-04-18T10:17:57.239+03:00,766653492.8140407,0,105.42,100.5905,1,0.75,2025-04-18T10:17:43.542+03:00,108,1.8,2025-04-18T08:51:18.885+03:00,0.03057091307199995,1
2025-04-18T10:18:14.121+03:00,1744960693.019994,40.95362655444679,29.14099305211143,92.02811,-1,-1,-1,-1,30,21.49291283600189,-9999,60703.92469404167,-0.72637939453125,0.6338043212890625,-0.2223358154296875,60703.91461804167,1.468614695159796,-1.284645791880777,-0.6626147959808077,0.04331877455115318,-0.02496588043868542,0.004677747841924429,0.00362783670425415,0.02465111017227173,-0.01121829450130463,XArbitraryZVertical,0.1862490709623974,-0.5950174500717776,0.6519984943273841,0.4314666916619221,-0.7563286423683167,0.6151804327964783,-0.2225310355424881,0,0,0,-1,-1,60702.52296725001,unknown,2,2025-04-18T10:18:12.715+03:00,2025-04-17T15:44:39.500+03:00,7077,1.059162,0,0,5844.344,4,10,2025-04-18T10:17:57.239+03:00,766653492.8140407,0,105.42,100.5905,1,0.75,2025-04-18T10:17:43.542+03:00,108,1.8,2025-04-18T08:51:18.885+03:00,0.03057091307199995,1
2025-04-18T10:18:14.131+03:00,1744960693.019994,40.95362655444679,29.14099305211143,92.02811,-1,-1,-1,-1,30,21.49291283600189,-9999,60703.93476904167,-0.7406768798828125,0.61175537109375,-0.2185821533203125,60703.92469404167,1.469061339827052,-1.284748775842146,-0.6624867529299692,0.02643300406634808,-0.04055043309926987,0.006585636641830206,0.0292389988899231,0.02099841833114624,-0.00140148401260376,XArbitraryZVertical,0.1864598504909555,-0.5949748202403227,0.6520694949117053,0.4313271487347266,-0.7564271688461304,0.6150794625282288,-0.2224753797054291,0,0,0,-1,-1,60702.52296725001,unknown,2,2025-04-18T10:18:12.715+03:00,2025-04-17T15:44:39.500+03:00,7077,1.059162,0,0,5844.344,4,10,2025-04-18T10:17:57.239+03:00,766653492.8140407,0,105.42,100.5905,1,0.75,2025-04-18T10:17:43.542+03:00,108,1.8,2025-04-18T08:51:18.885+03:00,0.03057091307199995,1
2025-04-18T10:18:14.141+03:00,1744960693.019994,40.95362655444679,29.14099305211143,92.02811,-1,-1,-1,-1,30,21.49291283600189,-9999,60703.94484504167,-0.7576751708984375,0.5985870361328125,-0.2183990478515625,60703.93476904167,1.469279239414821,-1.284931461565727,-0.6624012640356501,0.007949667051434517,-0.01743040047585964,0.01243011001497507,0.01924407482147217,-0.001089930534362793,0.003678381443023682,XArbitraryZVertical,0.1866137996136216,-0.5949783802776438,0.6520889374394737,0.4312263548421241,-0.7565183043479919,0.6150120496749878,-0.2223520278930664,0,0,0,-1,-1,60702.52296725001,unknown,2,2025-04-18T10:18:12.715+03:00,2025-04-17T15:44:39.500+03:00,7077,1.059162,0,0,5844.344,4,10,2025-04-18T10:17:57.239+03:00,766653492.8140407,0,105.42,100.5905,1,0.75,2025-04-18T10:17:43.542+03:00,108,1.8,2025-04-18T08:51:18.885+03:00,0.03057091307199995,1
2025-04-18T10:18:14.151+03:00,1744960693.019994,40.95362655444679,29.14099305211143,92.02811,-1,-1,-1,-1,30,21.49291283600189,-9999,60703.95492004167,-0.7610626220703125,0.6044921875,-0.2199249267578125,60703.94484504167,1.469322701037791,-1.284966074837586,-0.6626751811868111,-0.006452708039432764,0.004552396945655346,0.01758998446166515,0.000550687313079834,-0.01595431566238403,0.003711521625518799,XArbitraryZVertical,0.1865431852383407,-0.595031487787655,0.6521287560002464,0.4311233876575703,-0.7563643455505371,0.6152280569076538,-0.2222783416509628,0,0,0,-1,-1,60702.52296725001,unknown,2,2025-04-18T10:18:12.715+03:00,2025-04-17T15:44:39.500+03:00,7077,1.059162,0,0,5844.344,4,10,2025-04-18T10:17:57.239+03:00,766653492.8140407,0,105.42,100.5905,1,0.75,2025-04-18T10:17:43.542+03:00,108,1.8,2025-04-18T08:51:18.885+03:00,0.03057091307199995,1
2025-04-18T10:18:14.162+03:00,1744960693.019994,40.95362655444679,29.14099305211143,92.02811,-1,-1,-1,-1,30,21.49291283600189,-9999,60703.96499604167,-0.7540130615234375,0.61376953125,-0.2201690673828125,60703.95492004167,1.46926768843486,-1.284935148037562,-0.6633613576797045,-0.0107602383941412,0.003907512407749891,0.01804704964160919,-0.005278229713439941,-0.01261937618255615,0.002074658870697021,XArbitraryZVertical,0.1862791351071074,-0.5951544014184046,0.6522040987019792,0.4309539287048021,-0.7559522986412048,0.6157688498497009,-0.2221826463937759,0,0,0,-1,-1,60702.52296725001,unknown,2,2025-04-18T10:18:12.715+03:00,2025-04-17T15:44:39.500+03:00,7077,1.059162,0,0,5844.344,4,10,2025-04-18T10:17:57.239+03:00,766653492.8140407,0,105.42,100.5905,1,0.75,2025-04-18T10:17:43.542+03:00,108,1.8,2025-04-18T08:51:18.885+03:00,0.03057091307199995,1
2025-04-18T10:18:14.172+03:00,1744960693.019994,40.95362655444679,29.14099305211143,92.02811,-1,-1,-1,-1,30,21.49291283600189,-9999,60703.97507104167,-0.7476654052734375,0.6206817626953125,-0.22235107421875,60703.96499604167,1.469208218734514,-1.284952506650197,-0.6638243502738334,-0.01200180407613516,-0.006180275231599808,0.0148837473243475,0.001379489898681641,-0.003340601921081543,0.002087906002998352,XArbitraryZVertical,0.1861068221070883,-0.5952476052022749,0.6522465121059501,0.4308353096521037,-0.7556824088096619,0.6161335706710815,-0.2220890820026398,0,0,0,-1,-1,60702.52296725001,unknown,2,2025-04-18T10:18:12.715+03:00,2025-04-17T15:44:39.500+03:00,7077,1.059162,0,0,5844.344,4,10,2025-04-18T10:17:57.239+03:00,766653492.8140407,0,105.42,100.5905,1,0.75,2025-04-18T10:17:43.542+03:00,108,1.8,2025-04-18T08:51:18.885+03:00,0.03057091307199995,1
2025-04-18T10:18:14.182+03:00,1744960693.019994,40.95362655444679,29.14099305211143,92.02811,-1,-1,-1,-1,30,21.49291283600189,-9999,60703.98514704167,-0.7444000244140625,0.6208343505859375,-0.2239532470703125,60703.97507104167,1.469082072446612,-1.285140725505394,-0.6639819154888703,-0.01612923666834831,-0.02160963043570518,0.01328102312982082,0.007950365543365479,0.003630638122558594,-0.0003857910633087158,XArbitraryZVertical,0.186076128698006,-0.5953284348954926,0.65222116488207,0.4307751521522607,-0.7556309700012207,0.6162576675415039,-0.2219194620847702,0,0,0,-1,-1,60702.52296725001,unknown,2,2025-04-18T10:18:12.715+03:00,2025-04-17T15:44:39.500+03:00,7077,1.059162,0,0,5844.344,4,10,2025-04-18T10:17:57.239+03:00,766653492.8140407,0,105.42,100.5905,1,0.75,2025-04-18T10:17:43.542+03:00,108,1.8,2025-04-18T08:51:18.885+03:00,0.03057091307199995,1
2025-04-18T10:18:14.192+03:00,1744960693.019994,40.95362655444679,29.14099305211143,92.02811,-1,-1,-1,-1,30,21.49291283600189,-9999,60703.99522204167,-0.747650146484375,0.6251373291015625,-0.221343994140625,60703.98514704167,1.469064169153218,-1.285385319388562,-0.6640281561057563,0.002674810588359833,-0.03146173059940338,0.006100874394178391,0.01150214672088623,0.005333781242370605,-0.002043426036834717,XArbitraryZVertical,0.1861344758185831,-0.5953911564175522,0.6522002402709083,0.4306951430165516,-0.7556580305099487,0.6162940859794617,-0.221726655960083,0,0,0,-1,-1,60702.52296725001,unknown,2,2025-04-18T10:18:12.715+03:00,2025-04-17T15:44:39.500+03:00,7077,1.059162,0,0,5844.344,4,10,2025-04-18T10:17:57.239+03:00,766653492.8140407,0,105.42,100.5905,1,0.75,2025-04-18T10:17:43.542+03:00,108,1.8,2025-04-18T08:51:18.885+03:00,0.03057091307199995,1
2025-04-18T10:18:14.202+03:00,1744960693.019994,40.95362655444679,29.14099305211143,92.02811,-1,-1,-1,-1,30,21.49291283600189,-9999,60704.00529804167,-0.751068115234375,0.6349334716796875,-0.2191162109375,60703.99522204167,1.469239221421322,-1.285559168013984,-0.6641589491269254,0.01029684487730265,-0.03167764842510223,0.009255422279238701,0.008731961250305176,0.007122814655303955,-4.601478576660156e-05,XArbitraryZVertical,0.1861979913657382,-0.5954359814220139,0.6522378117643551,0.4305488057293789,-0.7556192278862,0.6163970828056335,-0.2215725928544998,0,0,0,-1,-1,60702.52296725001,unknown,2,2025-04-18T10:18:12.715+03:00,2025-04-17T15:44:39.500+03:00,7077,1.059162,0,0,5844.344,4,10,2025-04-18T10:17:57.239+03:00,766653492.8140407,0,105.42,100.5905,1,0.75,2025-04-18T10:17:43.542+03:00,108,1.8,2025-04-18T08:51:18.885+03:00,0.03057091307199995,1
2025-04-18T10:18:14.212+03:00,1744960693.019994,40.95362655444679,29.14099305211143,92.02811,-1,-1,-1,-1,30,21.49291283600189,-9999,60704.01537304167,-0.752471923828125,0.627593994140625,-0.2205657958984375,60704.00529804167,1.469507741065499,-1.285659964461761,-0.6643701366123616,0.02186428382992744,-0.02785627543926239,0.0104325395077467,0.004799425601959229,0.01750046014785767,0.001626521348953247,XArbitraryZVertical,0.1862376442464642,-0.5954709220063185,0.6523121560001895,0.4303707832560222,-0.7555167078971863,0.6165633797645569,-0.221459835767746,0,0,0,-1,-1,60702.52296725001,unknown,2,2025-04-18T10:18:12.715+03:00,2025-04-17T15:44:39.500+03:00,7077,1.059162,0,0,5844.344,4,10,2025-04-18T10:17:57.239+03:00,766653492.8140407,0,105.42,100.5905,1,0.75,2025-04-18T10:17:43.542+03:00,108,1.8,2025-04-18T08:51:18.885+03:00,0.03057091307199995,1
2025-04-18T10:18:14.222+03:00,1744960693.019994,40.95362655444679,29.14099305211143,92.02811,-1,-1,-1,-1,30,21.49291283600189,-9999,60704.02544904167,-0.75311279296875,0.6154632568359375,-0.2209625244140625,60704.01537304167,1.469822276480388,-1.285678606162345,-0.6644783523903145,0.01899992115795612,-0.01755716651678085,0.01286567002534866,0.00333559513092041,0.01282227039337158,0.001395300030708313,XArbitraryZVertical,0.1863000116816837,-0.5954652358788066,0.6523913535633933,0.430231285258638,-0.7554565668106079,0.6166485548019409,-0.2214269191026688,0,0,0,-1,-1,60702.52296725001,unknown,2,2025-04-18T10:18:12.715+03:00,2025-04-17T15:44:39.500+03:00,7077,1.059162,0,0,5844.344,4,10,2025-04-18T10:17:57.239+03:00,766653492.8140407,0,105.42,100.5905,1,0.75,2025-04-18T10:17:43.542+03:00,108,1.8,2025-04-18T08:51:18.885+03:00,0.03057091307199995,1
2025-04-18T10:18:14.232+03:00,1744960693.019994,40.95362655444679,29.14099305211143,92.02811,-1,-1,-1,-1,30,21.49291283600189,-9999,60704.03552404167,-0.7550048828125,0.611541748046875,-0.22113037109375,60704.02544904167,1.47006537462204,-1.28572454695523,-0.6644853904224465,0.01311966218054295,-0.0193508043885231,0.01610993407666683,0.0031280517578125,-4.64320182800293e-05,0.0009473562240600586,XArbitraryZVertical,0.186384889270224,-0.5954537439798943,0.6524402337350461,0.4301364351564146,-0.7554627060890198,0.616654098033905,-0.2213910222053528,0,0,0,-1,-1,60702.52296725001,unknown,2,2025-04-18T10:18:12.715+03:00,2025-04-17T15:44:39.500+03:00,7077,1.059162,0,0,5844.344,4,10,2025-04-18T10:17:57.239+03:00,766653492.8140407,0,105.42,100.5905,1,0.75,2025-04-18T10:17:43.542+03:00,108,1.8,2025-04-18T08:51:18.885+03:00,0.03057091307199995,1
2025-04-18T10:18:14.243+03:00,1744960693.019994,40.95362655444679,29.14099305211143,92.02811,-1,-1,-1,-1,30,21.49291283600189,-9999,60704.04560004167,-0.755035400390625,0.6103973388671875,-0.2252960205078125,60704.03552404167,1.470226590884214,-1.285822339604907,-0.6645280381171186,0.007253383751958609,-0.01618577167391777,0.01816103234887123,0.0008661746978759766,-0.00549691915512085,0.0008355528116226196,XArbitraryZVertical,0.1864500432410158,-0.5954674733251508,0.6524710153192216,0.4300424439237734,-0.7554590702056885,0.6166876554489136,-0.2213097363710403,0,0,0,-1,-1,60702.52296725001,unknown,2,2025-04-18T10:18:12.715+03:00,2025-04-17T15:44:39.500+03:00,7077,1.059162,0,0,5844.344,4,10,2025-04-18T10:17:57.239+03:00,766653492.8140407,0,105.42,100.5905,1,0.75,2025-04-18T10:17:43.542+03:00,108,1.8,2025-04-18T08:51:18.885+03:00,0.03057091307199995,1
2025-04-18T10:18:14.253+03:00,1744960693.019994,40.95362655444679,29.14099305211143,92.02811,-1,-1,-1,-1,30,21.49291283600189,-9999,60704.05567604167,-0.7519378662109375,0.6164093017578125,-0.2287139892578125,60704.04560004167,1.470306967113193,-1.285928873828677,-0.6646923736375756,-0.004300740547478199,-0.01376628968864679,0.02102579548954964,0.0001820921897888184,-0.006907939910888672,-0.003591656684875488,XArbitraryZVertical,0.1864518370892305,-0.595512656962344,0.6524985185883835,0.4299373721751305,-0.7553853988647461,0.6168169975280762,-0.2212007790803909,0,0,0,-1,-1,60702.52296725001,unknown,2,2025-04-18T10:18:12.715+03:00,2025-04-17T15:44:39.500+03:00,7077,1.059162,0,0,5844.344,4,10,2025-04-18T10:17:57.239+03:00,766653492.8140407,0,105.42,100.5905,1,0.75,2025-04-18T10:17:43.542+03:00,108,1.8,2025-04-18T08:51:18.885+03:00,0.03057091307199995,1
2025-04-18T10:18:14.263+03:00,1744960693.019994,40.95362655444679,29.14099305211143,92.02811,-1,-1,-1,-1,30,21.49291283600189,-9999,60704.06575104167,-0.74517822265625,0.6207427978515625,-0.228546142578125,60704.05567604167,1.470366548245374,-1.286064446067828,-0.6649477978371866,0.0007919557974673808,-0.02523951977491379,0.01895954832434654,0.002578556537628174,-0.001234352588653564,-0.006988406181335449,XArbitraryZVertical,0.1864253836268728,-0.595582507592977,0.6525300063260288,0.4298042966245789,-0.7552641630172729,0.6170180439949036,-0.2210541069507599,0,0,0,-1,-1,60702.52296725001,unknown,2,2025-04-18T10:18:12.715+03:00,2025-04-17T15:44:39.500+03:00,7077,1.059162,0,0,5844.344,4,10,2025-04-18T10:17:57.239+03:00,766653492.8140407,0,105.42,100.5905,1,0.75,2025-04-18T10:17:43.542+03:00,108,1.8,2025-04-18T08:51:18.885+03:00,0.03057091307199995,1
2025-04-18T10:18:14.273+03:00,1744960693.019994,40.95362655444679,29.14099305211143,92.02811,-1,-1,-1,-1,30,21.49291283600189,-9999,60704.07582704167,-0.7404937744140625,0.6255035400390625,-0.22845458984375,60704.06575104167,1.470451563610903,-1.28631960936554,-0.6651721229404207,-0.0004570667515508831,-0.03621973469853401,0.01670172065496445,0.009032785892486572,0.003197371959686279,-0.007830351591110229,XArbitraryZVertical,0.1864562642699495,-0.5956700286804275,0.6525519946616879,0.4296363046872118,-0.7551877498626709,0.6171945929527283,-0.2208225578069687,0,0,0,-1,-1,60702.52296725001,unknown,2,2025-04-18T10:18:12.715+03:00,2025-04-17T15:44:39.500+03:00,7077,1.059162,0,0,5844.344,4,10,2025-04-18T10:17:57.239+03:00,766653492.8140407,0,105.42,100.5905,1,0.75,2025-04-18T10:17:43.542+03:00,108,1.8,2025-04-18T08:51:18.885+03:00,0.03057091307199995,1
2025-04-18T10:18:14.283+03:00,1744960693.019994,40.95362655444679,29.14099305211143,92.02811,-1,-1,-1,-1,30,21.49291283600189,-9999,60704.08590204167,-0.73553466796875,0.6074066162109375,-0.2221527099609375,60704.07582704167,1.470684346142258,-1.286599313967904,-0.6654620704431445,0.01379796862602234,-0.053606778383255,0.03773932904005051,0.0140802264213562,0.007653713226318359,-0.007206767797470093,XArbitraryZVertical,0.1865164965366466,-0.5957608815297705,0.652611448436285,0.4293938305164037,-0.7550777196884155,0.6174226999282837,-0.2205611318349838,0,0,0,-1,-1,60702.52296725001,unknown,2,2025-04-18T10:18:12.715+03:00,2025-04-17T15:44:39.500+03:00,7077,1.059162,0,0,5844.344,4,10,2025-04-18T10:17:57.239+03:00,766653492.8140407,0,105.42,100.5905,1,0.75,2025-04-18T10:17:43.542+03:00,108,1.8,2025-04-18T08:51:18.885+03:00,0.03057091307199995,1
2025-04-18T10:18:14.310+03:00,1744960693.019994,40.95362655444679,29.14099305211143,92.02811,-1,-1,-1,-1,30,21.49291283600189,-9999,60704.09597775,-0.7574005126953125,0.5900726318359375,-0.2194061279296875,60704.08590204167,1.470859237102577,-1.286859427604979,-0.6658410961658081,-0.006872155703604221,-0.01309184357523918,0.02299686707556248,0.01940596103668213,-0.005889058113098145,-0.00362357497215271,XArbitraryZVertical,0.186522307803432,-0.5958689955686102,0.6526711714386191,0.4291503936845913,-0.7549102902412415,0.6177207827568054,-0.2202991396188736,0,0,0,-1,-1,60702.52296725001,unknown,2,2025-04-18T10:18:12.715+03:00,2025-04-17T15:44:39.500+03:00,7077,1.059162,0,0,5844.344,4,10,2025-04-18T10:17:57.239+03:00,766653492.8140407,0,105.42,100.5905,1,0.75,2025-04-18T10:17:43.542+03:00,108,1.8,2025-04-18T08:51:18.885+03:00,0.03057091307199995,1
2025-04-18T10:18:14.313+03:00,1744960693.019994,40.95362655444679,29.14099305211143,92.02811,-1,-1,-1,-1,30,21.49291283600189,-9999,60704.10605275,-0.7759552001953125,0.61700439453125,-0.2188568115234375,60704.09597775,1.470777861257327,-1.286667156815958,-0.6662188921275626,-0.02370366640388966,0.04297668486833572,0.03497999534010887,0.001363098621368408,-0.02881497144699097,0.001644149422645569,XArbitraryZVertical,0.1863045911137668,-0.5959036762090899,0.6527178961304728,0.4291256214460927,-0.7546437382698059,0.618017852306366,-0.2203788161277771,0,0,0,-1,-1,60702.52296725001,unknown,2,2025-04-18T10:18:12.715+03:00,2025-04-17T15:44:39.500+03:00,7077,1.059162,0,0,5844.344,4,10,2025-04-18T10:17:57.239+03:00,766653492.8140407,0,105.42,100.5905,1,0.75,2025-04-18T10:17:43.542+03:00,108,1.8,2025-04-18T08:51:18.885+03:00,0.03057091307199995,1
2025-04-18T10:18:14.315+03:00,1744960693.019994,40.95362655444679,29.14099305211143,92.02811,-1,-1,-1,-1,30,21.49291283600189,-9999,60704.11612875001,-0.75732421875,0.626068115234375,-0.2115936279296875,60704.10605275,1.470580546813582,-1.286295284964378,-0.6666370969288781,-0.03283165022730827,0.05047614872455597,0.04009699076414108,-0.02225184440612793,-0.004470169544219971,0.0007383227348327637,XArbitraryZVertical,0.185979605784976,-0.5959178923739914,0.6527613588800681,0.4291808809386012,-0.7543137073516846,0.6183465719223022,-0.2205869108438492,0,0,0,-1,-1,60702.52296725001,unknown,2,2025-04-18T10:18:12.715+03:00,2025-04-17T15:44:39.500+03:00,7077,1.059162,0,0,5844.344,4,10,2025-04-18T10:17:57.239+03:00,766653492.8140407,0,105.42,100.5905,1,0.75,2025-04-18T10:17:43.542+03:00,108,1.8,2025-04-18T08:51:18.885+03:00,0.03057091307199995,1
2025-04-18T10:18:14.323+03:00,1744960693.019994,40.95362655444679,29.14099305211143,92.02811,-1,-1,-1,-1,30,21.49291283600189,-9999,60704.12620375001,-0.739105224609375,0.617401123046875,-0.2180633544921875,60704.11612875001,1.470360404428413,-1.285950818039138,-0.6670895007947331,-0.0307256244122982,0.04219398275017738,0.0352802649140358,-0.006986796855926514,0.006740570068359375,0.009372860193252563,XArbitraryZVertical,0.1856449246477219,-0.5959462311809959,0.6528014425194384,0.4292254994975724,-0.7539691925048828,0.6187020540237427,-0.2207681089639664,0,0,0,-1,-1,60702.52296725001,unknown,2,2025-04-18T10:18:12.715+03:00,2025-04-17T15:44:39.500+03:00,7077,1.059162,0,0,5844.344,4,10,2025-04-18T10:17:57.239+03:00,766653492.8140407,0,105.42,100.5905,1,0.75,2025-04-18T10:17:43.542+03:00,108,1.8,2025-04-18T08:51:18.885+03:00,0.03057091307199995,1
2025-04-18T10:18:14.334+03:00,1744960693.019994,40.95362655444679,29.14099305211143,92.02811,-1,-1,-1,-1,30,21.49291283600189,-9999,60704.13627975,-0.7317352294921875,0.612548828125,-0.2203369140625,60704.12620375001,1.470044670357984,-1.285939526970781,-0.6673812832133654,-0.03754038363695145,-0.01430231705307961,0.01343222428113222,0.01270437240600586,0.0002703666687011719,0.002921953797340393,XArbitraryZVertical,0.1854461762974365,-0.5960258389574301,0.6527703805078507,0.4292479289337878,-0.7537932395935059,0.6189312338829041,-0.2207258343696594,0,0,0,-1,-1,60702.52296725001,unknown,2,2025-04-18T10:18:12.715+03:00,2025-04-17T15:44:39.500+03:00,7077,1.059162,0,0,5844.344,4,10,2025-04-18T10:17:57.239+03:00,766653492.8140407,0,105.42,100.5905,1,0.75,2025-04-18T10:17:43.542+03:00,108,1.8,2025-04-18T08:51:18.885+03:00,0.03057091307199995,1
2025-04-18T10:18:14.343+03:00,1744960693.019994,40.95362655444679,29.14099305211143,92.02811,-1,-1,-1,-1,30,21.49291283600189,-9999,60704.14635475,-0.73681640625,0.634246826171875,-0.219329833984375,60704.13627975,1.469624968541953,-1.286703029926764,-0.667387054001524,-0.02811512723565102,-0.08971018344163895,-0.02206395193934441,0.02135318517684937,-0.006875216960906982,-0.0002028346061706543,XArbitraryZVertical,0.1855682032289276,-0.5962296596747882,0.6526102076888122,0.4291557914924158,-0.7539582252502441,0.618935763835907,-0.2201492637395859,0,0,0,-1,-1,60702.52296725001,unknown,2,2025-04-18T10:18:12.715+03:00,2025-04-17T15:44:39.500+03:00,7077,1.059162,0,0,5844.344,4,10,2025-04-18T10:17:57.239+03:00,766653492.8140407,0,105.42,100.5905,1,0.75,2025-04-18T10:17:43.542+03:00,108,1.8,2025-04-18T08:51:18.885+03:00,0.03057091307199995,1
2025-04-18T10:18:14.353+03:00,1744960693.019994,40.95362655444679,29.14099305211143,92.02811,-1,-1,-1,-1,30,21.49291283600189,-9999,60704.15643075,-0.749481201171875,0.64678955078125,-0.205078125,60704.14635475,1.469430653590293,-1.287637250541245,-0.6672664662866233,-0.006049239076673985,-0.0728989839553833,-0.01575039513409138,0.01859360933303833,0.01227778196334839,-0.0005050003528594971,XArbitraryZVertical,0.1858568166584244,-0.5964263644097102,0.6524670001678147,0.4289753203356164,-0.7542352676391602,0.6188410520553589,-0.2194656729698181,0,0,0,-1,-1,60702.52296725001,unknown,2,2025-04-18T10:18:12.715+03:00,2025-04-17T15:44:39.500+03:00,7077,1.059162,0,0,5844.344,4,10,2025-04-18T10:17:57.239+03:00,766653492.8140407,0,105.42,100.5905,1,0.75,2025-04-18T10:17:43.542+03:00,108,1.8,2025-04-18T08:51:18.885+03:00,0.03057091307199995,1
2025-04-18T10:18:14.364+03:00,1744960693.019994,40.95362655444679,29.14099305211143,92.02811,-1,-1,-1,-1,30,21.49291283600189,-9999,60704.16650575001,-0.760772705078125,0.6148529052734375,-0.1966094970703125,60704.15643075,1.469374500076702,-1.288196952760882,-0.667249492856039,-0.006366954185068607,-0.03690130263566971,-0.01044284831732512,0.006672024726867676,0.0287553071975708,0.009863734245300293,XArbitraryZVertical,0.186028558241304,-0.5965485525492469,0.6524008345294326,0.4288315053717788,-0.754368007183075,0.618827760219574,-0.2190463989973068,0,0,0,-1,-1,60702.52296725001,unknown,2,2025-04-18T10:18:12.715+03:00,2025-04-17T15:44:39.500+03:00,7077,1.059162,0,0,5844.344,4,10,2025-04-18T10:17:57.239+03:00,766653492.8140407,0,105.42,100.5905,1,0.75,2025-04-18T10:17:43.542+03:00,108,1.8,2025-04-18T08:51:18.885+03:00,0.03057091307199995,1
2025-04-18T10:18:14.374+03:00,1744960693.019994,40.95362655444679,29.14099305211143,92.02811,-1,-1,-1,-1,30,21.49291283600189,-9999,60704.17658175001,-0.776885986328125,0.6030120849609375,-0.23748779296875,60704.16650575001,1.469141156727394,-1.288190738192247,-0.6671901371673813,-0.03143475577235222,0.05995014309883118,-0.01613402366638184,-0.005958855152130127,0.001046180725097656,0.02542740106582642,XArbitraryZVertical,0.1859774631846302,-0.5965582215900631,0.6523440913612424,0.4289265810947347,-0.7544019818305969,0.6187810897827148,-0.2190613448619843,0,0,0,-1,-1,60702.52296725001,unknown,2,2025-04-18T10:18:12.715+03:00,2025-04-17T15:44:39.500+03:00,7077,1.059162,0,0,5844.344,4,10,2025-04-18T10:17:57.239+03:00,766653492.8140407,0,105.42,100.5905,1,0.75,2025-04-18T10:17:43.542+03:00,108,1.8,2025-04-18T08:51:18.885+03:00,0.03057091307199995,1
2025-04-18T10:18:14.384+03:00,1744960693.019994,40.95362655444679,29.14099305211143,92.02811,-1,-1,-1,-1,30,21.49291283600189,-9999,60704.18665675,-0.7942352294921875,0.62890625,-0.2380218505859375,60704.17658175001,1.468679389575287,-1.287214211852103,-0.6671572892262027,-0.03898708149790764,0.1891050636768341,0.01343738380819559,-0.0195508599281311,-0.01780319213867188,-0.01386943459510803,XArbitraryZVertical,0.1855326814645045,-0.5963856460977598,0.6523316607872397,0.4293776548422259,-0.7542070150375366,0.6187552809715271,-0.2198035717010498,0,0,0,-1,-1,60702.52296725001,unknown,2,2025-04-18T10:18:12.715+03:00,2025-04-17T15:44:39.500+03:00,7077,1.059162,0,0,5844.344,4,10,2025-04-18T10:17:57.239+03:00,766653492.8140407,0,105.42,100.5905,1,0.75,2025-04-18T10:17:43.542+03:00,108,1.8,2025-04-18T08:51:18.885+03:00,0.03057091307199995,1
2025-04-18T10:18:14.394+03:00,1744960693.019994,40.95362655444679,29.14099305211143,92.02811,-1,-1,-1,-1,30,21.49291283600189,-9999,60704.19673275,-0.7745361328125,0.634307861328125,-0.2243194580078125,60704.18665675,1.468172225102508,-1.285479253211748,-0.6672592221598256,-0.03915033489465714,0.2030046284198761,0.006032730918377638,-0.03897583484649658,0.007141172885894775,-0.01927761733531952,XArbitraryZVertical,0.1847802514586264,-0.5960782272360534,0.6523958095085609,0.4300310710355574,-0.7537640333175659,0.6188353896141052,-0.221094012260437,0,0,0,-1,-1,60702.52296725001,unknown,2,2025-04-18T10:18:12.715+03:00,2025-04-17T15:44:39.500+03:00,7077,1.059162,0,0,5844.344,4,10,2025-04-18T10:17:57.239+03:00,766653492.8140407,0,105.42,100.5905,1,0.75,2025-04-18T10:17:43.542+03:00,108,1.8,2025-04-18T08:51:18.885+03:00,0.03057091307199995,1
2025-04-18T10:18:14.404+03:00,1744960693.019994,40.95362655444679,29.14099305211143,92.02811,-1,-1,-1,-1,30,21.49291283600189,-9999,60704.20680775,-0.7274627685546875,0.6424713134765625,-0.2051544189453125,60704.19673275,1.467706017798943,-1.284354229464246,-0.6673511337183651,-0.02855667844414711,0.07930839061737061,-0.005019986536353827,-0.02647751569747925,0.014759361743927,-0.004133075475692749,XArbitraryZVertical,0.1842425227490078,-0.5958957995455625,0.652410544420181,0.4304919177156298,-0.753460168838501,0.6189075708389282,-0.2219257801771164,0,0,0,-1,-1,60702.52296725001,unknown,2,2025-04-18T10:18:12.715+03:00,2025-04-17T15:44:39.500+03:00,7077,1.059162,0,0,5844.344,4,10,2025-04-18T10:17:57.239+03:00,766653492.8140407,0,105.42,100.5905,1,0.75,2025-04-18T10:17:43.542+03:00,108,1.8,2025-04-18T08:51:18.885+03:00,0.03057091307199995,1
2025-04-18T10:18:14.414+03:00,1744960693.019994,40.95362655444679,29.14099305211143,92.02811,-1,-1,-1,-1,30,21.49291283600189,-9999,60704.21688375001,-0.699859619140625,0.62591552734375,-0.2076263427734375,60704.20680775,1.467364483553534,-1.284502181579994,-0.6673523124146905,-0.02045401185750961,-0.06167243421077728,-0.02113131247460842,0.02065849304199219,0.02322709560394287,0.01455403864383698,XArbitraryZVertical,0.1841885832772713,-0.5959593194211401,0.6523235458242655,0.4305589740312677,-0.7534923553466797,0.6189085245132446,-0.2218141108751297,0,0,0,-1,-1,60702.52296725001,unknown,2,2025-04-18T10:18:12.715+03:00,2025-04-17T15:44:39.500+03:00,7077,1.059162,0,0,5844.344,4,10,2025-04-18T10:17:57.239+03:00,766653492.8140407,0,105.42,100.5905,1,0.75,2025-04-18T10:17:43.542+03:00,108,1.8,2025-04-18T08:51:18.885+03:00,0.03057091307199995,1
2025-04-18T10:18:14.424+03:00,1744960693.019994,40.95362655444679,29.14099305211143,92.02811,-1,-1,-1,-1,30,21.49291283600189,-9999,60704.22695875,-0.71923828125,0.6095733642578125,-0.2272491455078125,60704.21688375001,1.467047506710032,-1.285547525119661,-0.6671886703427247,-0.02158179320394993,-0.09681703895330429,-0.02850983291864395,0.05243551731109619,0.01096552610397339,0.01498493552207947,XArbitraryZVertical,0.1844917555146283,-0.596184018640416,0.652138922363624,0.4303976934066402,-0.7538209557533264,0.6187799572944641,-0.2210548222064972,0,0,0,-1,-1,60702.52296725001,unknown,2,2025-04-18T10:18:12.715+03:00,2025-04-17T15:44:39.500+03:00,7077,1.059162,0,0,5844.344,4,10,2025-04-18T10:17:57.239+03:00,766653492.8140407,0,105.42,100.5905,1,0.75,2025-04-18T10:17:43.542+03:00,108,1.8,2025-04-18T08:51:18.885+03:00,0.03057091307199995,1
2025-04-18T10:18:14.434+03:00,1744960693.019994,40.95362655444679,29.14099305211143,92.02811,-1,-1,-1,-1,30,21.49291283600189,-9999,60704.23703475,-0.7474822998046875,0.6159515380859375,-0.2352447509765625,60704.22695875,1.466767928851492,-1.286427125918734,-0.6672041291899383,-0.01780143566429615,-0.04022938758134842,0.001780694932676852,0.03833824396133423,-0.008928775787353516,-0.004616975784301758,XArbitraryZVertical,0.1846897743774152,-0.5964018595517073,0.6519994919662666,0.4302223031026111,-0.754006028175354,0.6187921166419983,-0.2203890234231949,0,0,0,-1,-1,60702.52296725001,unknown,2,2025-04-18T10:18:12.715+03:00,2025-04-17T15:44:39.500+03:00,7077,1.059162,0,0,5844.344,4,10,2025-04-18T10:17:57.239+03:00,766653492.8140407,0,105.42,100.5905,1,0.75,2025-04-18T10:17:43.542+03:00,108,1.8,2025-04-18T08:51:18.885+03:00,0.03057091307199995,1
2025-04-18T10:18:14.444+03:00,1744960693.019994,40.95362655444679,29.14099305211143,92.02811,-1,-1,-1,-1,30,21.49291283600189,-9999,60704.24710975,-0.7595062255859375,0.6106414794921875,-0.2256317138671875,60704.23703475,1.466547549403729,-1.286700517064258,-0.6674971295574423,-0.02616642415523529,0.01780355349183083,0.01677988469600677,0.009095430374145508,-0.003391087055206299,-0.01538723707199097,XArbitraryZVertical,0.1846115985192987,-0.5965337603557964,0.6519628426784646,0.4301285878521314,-0.7538922429084778,0.6190222501754761,-0.2201320677995682,0,0,0,-1,-1,60702.52296725001,unknown,2,2025-04-18T10:18:12.715+03:00,2025-04-17T15:44:39.500+03:00,7077,1.059162,0,0,5844.344,4,10,2025-04-18T10:17:57.239+03:00,766653492.8140407,0,105.42,100.5905,1,0.75,2025-04-18T10:17:43.542+03:00,108,1.8,2025-04-18T08:51:18.885+03:00,0.03057091307199995,1
2025-04-18T10:18:14.454+03:00,1744960693.019994,40.95362655444679,29.14099305211143,92.02811,-1,-1,-1,-1,30,21.49291283600189,-9999,60704.25718575,-0.759552001953125,0.615966796875,-0.22222900390625,60704.24710975,1.466048869225285,-1.286634528354781,-0.667914091129685,-0.05489261448383331,0.0757046639919281,0.04424532875418663,-0.004991352558135986,-0.00762474536895752,-0.006987035274505615,XArbitraryZVertical,0.1842967876653984,-0.596640573421643,0.6519128944730077,0.4301911923429898,-0.7536299228668213,0.6193496584892273,-0.2201094478368759,0,0,0,-1,-1,60702.52296725001,unknown,2,2025-04-18T10:18:12.715+03:00,2025-04-17T15:44:39.500+03:00,7077,1.059162,0,0,5844.344,4,10,2025-04-18T10:17:57.239+03:00,766653492.8140407,0,105.42,100.5905,1,0.75,2025-04-18T10:17:43.542+03:00,108,1.8,2025-04-18T08:51:18.885+03:00,0.03057091307199995,1
2025-04-18T10:18:14.464+03:00,1744960693.019994,40.95362655444679,29.14099305211143,92.02811,-1,-1,-1,-1,30,21.49291283600189,-9999,60704.26726175001,-0.756195068359375,0.6280364990234375,-0.2235565185546875,60704.25718575,1.465530030537734,-1.286064826949805,-0.6683957477115821,-0.06214899197220802,0.09124734252691269,0.0503280870616436,-0.006089985370635986,-0.005546212196350098,-0.001423120498657227,XArbitraryZVertical,0.1837893593131159,-0.5966523476185513,0.6519128247485867,0.4303918748799962,-0.7532179355621338,0.6197277307510376,-0.2204549014568329,0,0,0,-1,-1,60702.52296725001,unknown,2,2025-04-18T10:18:12.715+03:00,2025-04-17T15:44:39.500+03:00,7077,1.059162,0,0,5844.344,4,10,2025-04-18T10:17:57.239+03:00,766653492.8140407,0,105.42,100.5905,1,0.75,2025-04-18T10:17:43.542+03:00,108,1.8,2025-04-18T08:51:18.885+03:00,0.03057091307199995,1
2025-04-18T10:18:14.474+03:00,1744960693.019994,40.95362655444679,29.14099305211143,92.02811,-1,-1,-1,-1,30,21.49291283600189,-9999,60704.27733675,-0.7497711181640625,0.6287841796875,-0.225341796875,60704.26726175001,1.465019434981564,-1.285419242389184,-0.6689504101212523,-0.0556119978427887,0.0956447571516037,0.04867906123399734,-0.003205478191375732,0.007217466831207275,-0.002605319023132324,XArbitraryZVertical,0.1832342376506556,-0.5966599202057979,0.6519301952584483,0.4305916971066698,-0.752745509147644,0.6201629638671875,-0.2208443135023117,0,0,0,-1,-1,60702.52296725001,unknown,2,2025-04-18T10:18:12.715+03:00,2025-04-17T15:44:39.500+03:00,7077,1.059162,0,0,5844.344,4,10,2025-04-18T10:17:57.239+03:00,766653492.8140407,0,105.42,100.5905,1,0.75,2025-04-18T10:17:43.542+03:00,108,1.8,2025-04-18T08:51:18.885+03:00,0.03057091307199995,1
2025-04-18T10:18:14.484+03:00,1744960693.019994,40.95362655444679,29.14099305211143,92.02811,-1,-1,-1,-1,30,21.49291283600189,-9999,60704.28741275,-0.747406005859375,0.639251708984375,-0.2216644287109375,60704.27733675,1.464620389981523,-1.284724982339181,-0.6694772656491118,-0.03021655976772308,0.09046151489019394,0.0401601754128933,0.001286566257476807,0.007475554943084717,-0.004387542605400085,XArbitraryZVertical,0.182706132970363,-0.5966415738480256,0.6519723277749835,0.4307776023607163,-0.7522783279418945,0.6205761432647705,-0.2212745994329453,0,0,0,-1,-1,60702.52296725001,unknown,2,2025-04-18T10:18:12.715+03:00,2025-04-17T15:44:39.500+03:00,7077,1.059162,0,0,5844.344,4,10,2025-04-18T10:17:57.239+03:00,766653492.8140407,0,105.42,100.5905,1,0.75,2025-04-18T10:17:43.542+03:00,108,1.8,2025-04-18T08:51:18.885+03:00,0.03057091307199995,1
2025-04-18T10:18:14.495+03:00,1744960693.019994,40.95362655444679,29.14099305211143,92.02811,-1,-1,-1,-1,30,21.49291283600189,-9999,60704.29748775,-0.76263427734375,0.65570068359375,-0.22052001953125,60704.28741275,1.464409217453153,-1.284065256947894,-0.6699564698848087,-0.007540009915828705,0.07035703957080841,0.006869063246995211,0.005356490612030029,0.01613312959671021,-0.0009999871253967285,XArbitraryZVertical,0.1822617109291115,-0.5966047999960726,0.6520456829138727,0.4309059239176642,-0.7518470287322998,0.6209518909454346,-0.2216867655515671,0,0,0,-1,-1,60702.52296725001,unknown,2,2025-04-18T10:18:12.715+03:00,2025-04-17T15:44:39.500+03:00,7077,1.059162,0,0,5844.344,4,10,2025-04-18T10:17:57.239+03:00,766653492.8140407,0,105.42,100.5905,1,0.75,2025-04-18T10:17:43.542+03:00,108,1.8,2025-04-18T08:51:18.885+03:00,0.03057091307199995,1
2025-04-18T10:18:14.505+03:00,1744960693.019994,40.95362655444679,29.14099305211143,92.02811,-1,-1,-1,-1,30,21.49291283600189,-9999,60704.30756375,-0.77850341796875,0.65570068359375,-0.2281036376953125,60704.29748775,1.464440704999304,-1.283243912062139,-0.6700899436676593,0.01822454296052456,0.09328799694776535,-0.01538227964192629,-0.008348345756530762,0.03374403715133667,0.002233773469924927,XArbitraryZVertical,0.1819569350621711,-0.5964489130486376,0.652143574351704,0.4311024687622135,-0.7515853047370911,0.6210564970970154,-0.222280740737915,0,0,0,-1,-1,60702.52296725001,unknown,2,2025-04-18T10:18:12.715+03:00,2025-04-17T15:44:39.500+03:00,7077,1.059162,0,0,5844.344,4,10,2025-04-18T10:17:57.239+03:00,766653492.8140407,0,105.42,100.5905,1,0.75,2025-04-18T10:17:43.542+03:00,108,1.8,2025-04-18T08:51:18.885+03:00,0.03057091307199995,1
2025-04-18T10:18:14.514+03:00,1744960693.019994,40.95362655444679,29.14099305211143,92.02811,-1,-1,-1,-1,30,21.49291283600189,-9999,60704.31763875001,-0.759429931640625,0.6418914794921875,-0.2274322509765625,60704.30756375,1.464762188909782,-1.282053434508269,-0.6698904087492915,0.03472388908267021,0.08299647271633148,-0.02636675350368023,-0.02709519863128662,0.03603655099868774,-0.003504440188407898,XArbitraryZVertical,0.1817338929118332,-0.5961270955204582,0.6522967792785973,0.4314095820930108,-0.7514387369155884,0.6209000945091248,-0.2232105582952499,0,0,0,-1,-1,60702.52296725001,unknown,2,2025-04-18T10:18:12.715+03:00,2025-04-17T15:44:39.500+03:00,7077,1.059162,0,0,5844.344,4,10,2025-04-18T10:17:57.239+03:00,766653492.8140407,0,105.42,100.5905,1,0.75,2025-04-18T10:17:43.542+03:00,108,1.8,2025-04-18T08:51:18.885+03:00,0.03057091307199995,1
2025-04-18T10:18:14.525+03:00,1744960693.019994,40.95362655444679,29.14099305211143,92.02811,-1,-1,-1,-1,30,21.49291283600189,-9999,60704.32771475,-0.7485198974609375,0.6319732666015625,-0.225128173828125,60704.31763875001,1.465137469697316,-1.281006006046701,-0.6695225198158478,0.03107802383601665,0.077774278819561,-0.02437563985586166,-0.0111345648765564,0.02308040857315063,-0.004162847995758057,XArbitraryZVertical,0.1816317473644894,-0.595800731826262,0.652428098159651,0.431704869940555,-0.7514234781265259,0.6206116676330566,-0.2240627855062485,0,0,0,-1,-1,60702.52296725001,unknown,2,2025-04-18T10:18:12.715+03:00,2025-04-17T15:44:39.500+03:00,7077,1.059162,0,0,5844.344,4,10,2025-04-18T10:17:57.239+03:00,766653492.8140407,0,105.42,100.5905,1,0.75,2025-04-18T10:17:43.542+03:00,108,1.8,2025-04-18T08:51:18.885+03:00,0.03057091307199995,1
2025-04-18T10:18:14.534+03:00,1744960693.019994,40.95362655444679,29.14099305211143,92.02811,-1,-1,-1,-1,30,21.49291283600189,-9999,60704.33778975,-0.75762939453125,0.6190185546875,-0.2274627685546875,60704.32771475,1.465465092477782,-1.279858112320247,-0.6692167897633013,0.02997574023902416,0.1118523553013802,-0.009040893986821175,0.00354468822479248,0.01187604665756226,0.000568687915802002,XArbitraryZVertical,0.1814609659647846,-0.5954679769646868,0.6525658544964902,0.4320274558996638,-0.7513474822044373,0.6203718781471252,-0.2249796092510223,0,0,0,-1,-1,60702.52296725001,unknown,2,2025-04-18T10:18:12.715+03:00,2025-04-17T15:44:39.500+03:00,7077,1.059162,0,0,5844.344,4,10,2025-04-18T10:17:57.239+03:00,766653492.8140407,0,105.42,100.5905,1,0.75,2025-04-18T10:17:43.542+03:00,108,1.8,2025-04-18T08:51:18.885+03:00,0.03057091307199995,1
2025-04-18T10:18:14.545+03:00,1744960693.019994,40.95362655444679,29.14099305211143,92.02811,-1,-1,-1,-1,30,21.49291283600189,-9999,60704.34786575,-0.755523681640625,0.6022491455078125,-0.2214202880859375,60704.33778975,1.465675027182273,-1.278513584914085,-0.66902103917134,0.01309762336313725,0.1285284757614136,-0.01013149134814739,-0.004653096199035645,0.0007686018943786621,-0.001087188720703125,XArbitraryZVertical,0.1811526943906701,-0.595123018049979,0.6527093394923139,0.4324151669311964,-0.7511605620384216,0.6202183365821838,-0.2260245829820633,0,0,0,-1,-1,60702.52296725001,unknown,2,2025-04-18T10:18:12.715+03:00,2025-04-17T15:44:39.500+03:00,7077,1.059162,0,0,5844.344,4,10,2025-04-18T10:17:57.239+03:00,766653492.8140407,0,105.42,100.5905,1,0.75,2025-04-18T10:17:43.542+03:00,108,1.8,2025-04-18T08:51:18.885+03:00,0.03057091307199995,1
2025-04-18T10:18:14.555+03:00,1744960693.019994,40.95362655444679,29.14099305211143,92.02811,-1,-1,-1,-1,30,21.49291283600189,-9999,60704.35794075,-0.7465362548828125,0.60723876953125,-0.2189483642578125,60704.34786575,1.465651024558928,-1.277309303418422,-0.6688856702112314,-0.004625978879630566,0.1157932355999947,-0.02011754550039768,-0.006096720695495605,-0.01618456840515137,0.004480212926864624,XArbitraryZVertical,0.1807995603295064,-0.5948402093208263,0.6527967055250338,0.4328198912498159,-0.7509680390357971,0.6201121807098389,-0.2269532829523087,0,0,0,-1,-1,60702.52296725001,unknown,2,2025-04-18T10:18:12.715+03:00,2025-04-17T15:44:39.500+03:00,7077,1.059162,0,0,5844.344,4,10,2025-04-18T10:17:57.239+03:00,766653492.8140407,0,105.42,100.5905,1,0.75,2025-04-18T10:17:43.542+03:00,108,1.8,2025-04-18T08:51:18.885+03:00,0.03057091307199995,1
2025-04-18T10:18:14.565+03:00,1744960693.019994,40.95362655444679,29.14099305211143,92.02811,-1,-1,-1,-1,30,21.49291283600189,-9999,60704.36801675001,-0.7330780029296875,0.62554931640625,-0.219329833984375,60704.35794075,1.465347494123892,-1.276813633605908,-0.6686730121135882,-0.02136640995740891,0.002789916703477502,-0.04810287430882454,0.003453671932220459,-0.014171302318573,0.008125513792037964,XArbitraryZVertical,0.1806212821300999,-0.5947218423341214,0.652750041488484,0.4331275194433586,-0.750981867313385,0.6199453473091125,-0.2273637652397156,0,0,0,-1,-1,60702.52296725001,unknown,2,2025-04-18T10:18:12.715+03:00,2025-04-17T15:44:39.500+03:00,7077,1.059162,0,0,5844.344,4,10,2025-04-18T10:17:57.239+03:00,766653492.8140407,0,105.42,100.5905,1,0.75,2025-04-18T10:17:43.542+03:00,108,1.8,2025-04-18T08:51:18.885+03:00,0.03057091307199995,1
2025-04-18T10:18:14.575+03:00,1744960693.019994,40.95362655444679,29.14099305211143,92.02811,-1,-1,-1,-1,30,21.49291283600189,-9999,60704.37809175,-0.691375732421875,0.6414031982421875,-0.225860595703125,60704.36801675001,1.464675704615642,-1.279022419072559,-0.6679063911296526,-0.01818632893264294,-0.3186538815498352,-0.1350809186697006,0.01647871732711792,0.004573047161102295,0.007335305213928223,XArbitraryZVertical,0.1814083812594039,-0.5951222233617321,0.6523116011969622,0.432909021282386,-0.7519371509552002,0.619343638420105,-0.2258410751819611,0,0,0,-1,-1,60702.52296725001,unknown,2,2025-04-18T10:18:12.715+03:00,2025-04-17T15:44:39.500+03:00,7077,1.059162,0,0,5844.344,4,10,2025-04-18T10:17:57.239+03:00,766653492.8140407,0,105.42,100.5905,1,0.75,2025-04-18T10:17:43.542+03:00,108,1.8,2025-04-18T08:51:18.885+03:00,0.03057091307199995,1
2025-04-18T10:18:14.585+03:00,1744960693.019994,40.95362655444679,29.14099305211143,92.02811,-1,-1,-1,-1,30,21.49291283600189,-9999,60704.38816775,-0.68695068359375,0.62255859375,-0.2285003662109375,60704.37809175,1.464238662187003,-1.282308997697053,-0.6672242106776558,0.01826815120875835,-0.2782869637012482,-0.07030734419822693,0.05418181419372559,0.02099317312240601,-0.0003576874732971191,XArbitraryZVertical,0.1825866471248846,-0.595749750598301,0.6518347106340329,0.4322683542249664,-0.7530801296234131,0.618807852268219,-0.2234887033700943,0,0,0,-1,-1,60702.52296725001,unknown,2,2025-04-18T10:18:12.715+03:00,2025-04-17T15:44:39.500+03:00,7077,1.059162,0,0,5844.344,4,10,2025-04-18T10:17:57.239+03:00,766653492.8140407,0,105.42,100.5905,1,0.75,2025-04-18T10:17:43.542+03:00,108,1.8,2025-04-18T08:51:18.885+03:00,0.03057091307199995,1
2025-04-18T10:18:14.595+03:00,1744960693.019994,40.95362655444679,29.14099305211143,92.02811,-1,-1,-1,-1,30,21.49291283600189,-9999,60704.39824275,-0.8194580078125,0.5979156494140625,-0.2346954345703125,60704.38816775,1.464286379213372,-1.284213804578947,-0.6663674476166895,0.03390756621956825,-0.07571787387132645,-0.09388883411884308,0.07684296369552612,0.01026809215545654,-0.006861209869384766,XArbitraryZVertical,0.1835187971608475,-0.5960025483559923,0.6515655693244236,0.4319308402672137,-0.7540128231048584,0.618134617805481,-0.2222036272287369,0,0,0,-1,-1,60702.52296725001,unknown,2,2025-04-18T10:18:12.715+03:00,2025-04-17T15:44:39.500+03:00,7077,1.059162,0,0,5844.344,4,10,2025-04-18T10:17:57.239+03:00,766653492.8140407,0,105.42,100.5905,1,0.75,2025-04-18T10:17:43.542+03:00,108,1.8,2025-04-18T08:51:18.885+03:00,0.03057091307199995,1
2025-04-18T10:18:14.605+03:00,1744960693.019994,40.95362655444679,29.14099305211143,92.02811,-1,-1,-1,-1,30,21.49291283600189,-9999,60704.40831875001,-0.82440185546875,0.63836669921875,-0.2370758056640625,60704.39824275,1.464400493081507,-1.283818225478853,-0.6656192466354335,0.03429165855050087,0.1067047342658043,-0.04972853511571884,-0.051402747631073,-0.0220872163772583,-0.01024690270423889,XArbitraryZVertical,0.1836834463033099,-0.5957717852647716,0.6515345578720269,0.4322259480863678,-0.7543683052062988,0.6175463199615479,-0.2226327359676361,0,0,0,-1,-1,60702.52296725001,unknown,2,2025-04-18T10:18:12.715+03:00,2025-04-17T15:44:39.500+03:00,7077,1.059162,0,0,5844.344,4,10,2025-04-18T10:17:57.239+03:00,766653492.8140407,0,105.42,100.5905,1,0.75,2025-04-18T10:17:43.542+03:00,108,1.8,2025-04-18T08:51:18.885+03:00,0.03057091307199995,1
2025-04-18T10:18:14.615+03:00,1744960693.019994,40.95362655444679,29.14099305211143,92.02811,-1,-1,-1,-1,30,21.49291283600189,-9999,60704.41839375001,-0.7387542724609375,0.6171875,-0.2252655029296875,60704.40831875001,1.464743628757868,-1.282624573708678,-0.665013985677441,0.04461353644728661,0.05913082137703896,-0.06284886598587036,-0.07863932847976685,0.01832109689712524,-0.01383328437805176,XArbitraryZVertical,0.1836067696908484,-0.5953729650388651,0.6516439686518307,0.4326427221809522,-0.7544600367546082,0.6170701384544373,-0.2236391752958298,0,0,0,-1,-1,60702.52296725001,unknown,2,2025-04-18T10:18:12.715+03:00,2025-04-17T15:44:39.500+03:00,7077,1.059162,0,0,5844.344,4,10,2025-04-18T10:17:57.239+03:00,766653492.8140407,0,105.42,100.5905,1,0.75,2025-04-18T10:17:43.542+03:00,108,1.8,2025-04-18T08:51:18.885+03:00,0.03057091307199995,1
2025-04-18T10:18:14.625+03:00,1744960693.019994,40.95362655444679,29.14099305211143,92.02811,-1,-1,-1,-1,30,21.49291283600189,-9999,60704.42846975,-0.6973876953125,0.6039276123046875,-0.2142333984375,60704.41839375001,1.465039151238722,-1.282498057029402,-0.6643036585211238,0.03772793710231781,-0.06247017532587051,-0.05925985425710678,0.005904674530029297,0.006123840808868408,-0.002169176936149597,XArbitraryZVertical,0.183899885075357,-0.5951900818434225,0.6516322870197774,0.4327874594644022,-0.7548518180847168,0.6165110468864441,-0.2238591909408569,0,0,0,-1,-1,60702.52296725001,unknown,2,2025-04-18T10:18:12.715+03:00,2025-04-17T15:44:39.500+03:00,7077,1.059162,0,0,5844.344,4,10,2025-04-18T10:17:57.239+03:00,766653492.8140407,0,105.42,100.5905,1,0.75,2025-04-18T10:17:43.542+03:00,108,1.8,2025-04-18T08:51:18.885+03:00,0.03057091307199995,1
2025-04-18T10:18:14.635+03:00,1744960693.019994,40.95362655444679,29.14099305211143,92.02811,-1,-1,-1,-1,30,21.49291283600189,-9999,60704.43854575,-0.732452392578125,0.6098785400390625,-0.2203521728515625,60704.42846975,1.465241239681923,-1.283115502856539,-0.663614445165336,0.03439126163721085,-0.0720282644033432,-0.05837675184011459,0.05677348375320435,-0.01287984848022461,0.008318901062011719,XArbitraryZVertical,0.1844001841723492,-0.5951804573273192,0.6515344304754888,0.4327351864873987,-0.7553972005844116,0.6159682273864746,-0.223513588309288,0,0,0,-1,-1,60702.52296725001,unknown,2,2025-04-18T10:18:12.715+03:00,2025-04-17T15:44:39.500+03:00,7077,1.059162,0,0,5844.344,4,10,2025-04-18T10:17:57.239+03:00,766653492.8140407,0,105.42,100.5905,1,0.75,2025-04-18T10:17:43.542+03:00,108,1.8,2025-04-18T08:51:18.885+03:00,0.03057091307199995,1
2025-04-18T10:18:14.646+03:00,1744960693.019994,40.95362655444679,29.14099305211143,92.02811,-1,-1,-1,-1,30,21.49291283600189,-9999,60704.44862075,-0.771392822265625,0.6090240478515625,-0.2289886474609375,60704.43854575,1.465337389381498,-1.283428569567112,-0.6630260305335223,0.01446928549557924,-0.0002738502807915211,-0.05127779766917229,0.03051853179931641,-0.005442976951599121,0.004690840840339661,XArbitraryZVertical,0.1847348143048093,-0.5951328979082408,0.6514539016330226,0.4327790499005675,-0.7558145523071289,0.6155045628547668,-0.2233797609806061,0,0,0,-1,-1,60702.52296725001,unknown,2,2025-04-18T10:18:12.715+03:00,2025-04-17T15:44:39.500+03:00,7077,1.059162,0,0,5844.344,4,10,2025-04-18T10:17:57.239+03:00,766653492.8140407,0,105.42,100.5905,1,0.75,2025-04-18T10:17:43.542+03:00,108,1.8,2025-04-18T08:51:18.885+03:00,0.03057091307199995,1
2025-04-18T10:18:14.656+03:00,1744960693.019994,40.95362655444679,29.14099305211143,92.02811,-1,-1,-1,-1,30,21.49291283600189,-9999,60704.45869675001,-0.75927734375,0.6072540283203125,-0.2266998291015625,60704.44862075,1.465256548094089,-1.283376146542896,-0.6626014473314036,-0.001413008430972695,0.01158254221081734,-0.04284116998314857,-0.0128827691078186,-0.005672872066497803,-0.004747435450553894,XArbitraryZVertical,0.1848408770889889,-0.5950522021995269,0.6513889358020837,0.4329425011372646,-0.7560533881187439,0.615169882774353,-0.2234934568405151,0,0,0,-1,-1,60702.52296725001,unknown,2,2025-04-18T10:18:12.715+03:00,2025-04-17T15:44:39.500+03:00,7077,1.059162,0,0,5844.344,4,10,2025-04-18T10:17:57.239+03:00,766653492.8140407,0,105.42,100.5905,1,0.75,2025-04-18T10:17:43.542+03:00,108,1.8,2025-04-18T08:51:18.885+03:00,0.03057091307199995,1
2025-04-18T10:18:14.666+03:00,1744960693.019994,40.95362655444679,29.14099305211143,92.02811,-1,-1,-1,-1,30,21.49291283600189,-9999,60704.46877175001,-0.7389678955078125,0.6063385009765625,-0.2212677001953125,60704.45869675001,1.464963220126074,-1.283581077300464,-0.6623422950119854,-0.02417378127574921,-0.02428311295807362,-0.03500125557184219,-0.005924522876739502,-0.007452130317687988,-0.004704654216766357,XArbitraryZVertical,0.1849101827151265,-0.5950767940697189,0.6512745323057874,0.4330512140434825,-0.7562520503997803,0.614965558052063,-0.2233836650848389,0,0,0,-1,-1,60702.52296725001,unknown,2,2025-04-18T10:18:12.715+03:00,2025-04-17T15:44:39.500+03:00,7077,1.059162,0,0,5844.344,4,10,2025-04-18T10:17:57.239+03:00,766653492.8140407,0,105.42,100.5905,1,0.75,2025-04-18T10:17:43.542+03:00,108,1.8,2025-04-18T08:51:18.885+03:00,0.03057091307199995,1
2025-04-18T10:18:14.676+03:00,1744960693.019994,40.95362655444679,29.14099305211143,92.02811,-1,-1,-1,-1,30,21.49291283600189,-9999,60704.47884775,-0.74298095703125,0.607269287109375,-0.2222442626953125,60704.46877175001,1.46464808218027,-1.284074978320108,-0.6621976573993046,-0.0180053673684597,-0.03629663214087486,-0.03362679854035378,0.01549601554870605,-0.008360445499420166,0.001553967595100403,XArbitraryZVertical,0.1850273939030792,-0.5951867209994116,0.6511427597746687,0.4330481625998701,-0.7564475536346436,0.6148514747619629,-0.2230352610349655,0,0,0,-1,-1,60702.52296725001,unknown,2,2025-04-18T10:18:12.715+03:00,2025-04-17T15:44:39.500+03:00,7077,1.059162,0,0,5844.344,4,10,2025-04-18T10:17:57.239+03:00,766653492.8140407,0,105.42,100.5905,1,0.75,2025-04-18T10:17:43.542+03:00,108,1.8,2025-04-18T08:51:18.885+03:00,0.03057091307199995,1
2025-04-18T10:18:14.686+03:00,1744960693.019994,40.95362655444679,29.14099305211143,92.02811,-1,-1,-1,-1,30,21.49291283600189,-9999,60704.48892275,-0.7587738037109375,0.6194305419921875,-0.227203369140625,60704.47884775,1.464373955154812,-1.284518715711254,-0.6619000550440702,-0.009664813056588173,-0.01826084032654762,-0.02272711135447025,0.01561784744262695,-0.007347464561462402,0.000766456127166748,XArbitraryZVertical,0.1851933930770765,-0.5952543784480238,0.6510055533231568,0.4330906094949754,-0.7567220330238342,0.6146167516708374,-0.222751259803772,0,0,0,-1,-1,60702.52296725001,unknown,2,2025-04-18T10:18:12.715+03:00,2025-04-17T15:44:39.500+03:00,7077,1.059162,0,0,5844.344,4,10,2025-04-18T10:17:57.239+03:00,766653492.8140407,0,105.42,100.5905,1,0.75,2025-04-18T10:17:43.542+03:00,108,1.8,2025-04-18T08:51:18.885+03:00,0.03057091307199995,1
2025-04-18T10:18:14.696+03:00,1744960693.019994,40.95362655444679,29.14099305211143,92.02811,-1,-1,-1,-1,30,21.49291283600189,-9999,60704.49899875,-0.7549591064453125,0.62884521484375,-0.231536865234375,60704.48892275,1.464229501715216,-1.284721922250985,-0.6616747533116819,-0.003543537342920899,-0.005829203873872757,-0.01831851340830326,-0.0006377100944519043,0.002824783325195312,-0.003361225128173828,XArbitraryZVertical,0.1852945950744416,-0.5952710454397265,0.6509275799274948,0.4331417447095397,-0.7569001913070679,0.6144390106201172,-0.2226365953683853,0,0,0,-1,-1,60702.52296725001,unknown,2,2025-04-18T10:18:12.715+03:00,2025-04-17T15:44:39.500+03:00,7077,1.059162,0,0,5844.344,4,10,2025-04-18T10:17:57.239+03:00,766653492.8140407,0,105.42,100.5905,1,0.75,2025-04-18T10:17:43.542+03:00,108,1.8,2025-04-18T08:51:18.885+03:00,0.03057091307199995,1
2025-04-18T10:18:14.706+03:00,1744960693.019994,40.95362655444679,29.14099305211143,92.02811,-1,-1,-1,-1,30,21.49291283600189,-9999,60704.50907375001,-0.744293212890625,0.6234588623046875,-0.227752685546875,60704.49899875,1.464154659048341,-1.284842412805875,-0.6615161489919775,0.002956040436401963,-0.01260654907673597,-0.01905973814427853,0.0003980398178100586,0.01451611518859863,-0.008613049983978271,XArbitraryZVertical,0.1853665622179605,-0.5952754121690345,0.650880560421808,0.4331754688719595,-0.7570204138755798,0.6143139004707336,-0.222572848200798,0,0,0,-1,-1,60702.52296725001,unknown,2,2025-04-18T10:18:12.715+03:00,2025-04-17T15:44:39.500+03:00,7077,1.059162,0,0,5844.344,4,10,2025-04-18T10:17:57.239+03:00,766653492.8140407,0,105.42,100.5905,1,0.75,2025-04-18T10:17:43.542+03:00,108,1.8,2025-04-18T08:51:18.885+03:00,0.03057091307199995,1
2025-04-18T10:18:14.716+03:00,1744960693.019994,40.95362655444679,29.14099305211143,92.02811,-1,-1,-1,-1,30,21.49291283600189,-9999,60704.51914975001,-0.7424774169921875,0.616790771484375,-0.221160888671875,60704.50907375001,1.464108270478865,-1.285035847407351,-0.6613853941344302,-0.003180415136739612,-0.01984608545899391,-0.01739606261253357,0.01147395372390747,0.009873747825622559,-0.006035968661308289,XArbitraryZVertical,0.1854610490138763,-0.5952979788739017,0.650836380830944,0.4331703373361437,-0.7571404576301575,0.6142107248306274,-0.2224490344524384,0,0,0,-1,-1,60702.52296725001,unknown,2,2025-04-18T10:18:12.715+03:00,2025-04-17T15:44:39.500+03:00,7077,1.059162,0,0,5844.344,4,10,2025-04-18T10:17:57.239+03:00,766653492.8140407,0,105.42,100.5905,1,0.75,2025-04-18T10:17:43.542+03:00,108,1.8,2025-04-18T08:51:18.885+03:00,0.03057091307199995,1
2025-04-18T10:18:14.726+03:00,1744960693.019994,40.95362655444679,29.14099305211143,92.02811,-1,-1,-1,-1,30,21.49291283600189,-9999,60704.52922475,-0.7460174560546875,0.6092987060546875,-0.2181854248046875,60704.51914975001,1.463971150860847,-1.285324237809273,-0.661266656388164,-0.01247364934533834,-0.02013623714447021,-0.01598704978823662,0.0153769850730896,0.002780556678771973,0.0004648119211196899,XArbitraryZVertical,0.1855552234036609,-0.5953517048497956,0.6507652186066434,0.4331631122950392,-0.7572745680809021,0.6141170263290405,-0.2222512066364288,0,0,0,-1,-1,60702.52296725001,unknown,2,2025-04-18T10:18:12.715+03:00,2025-04-17T15:44:39.500+03:00,7077,1.059162,0,0,5844.344,4,10,2025-04-18T10:17:57.239+03:00,766653492.8140407,0,105.42,100.5905,1,0.75,2025-04-18T10:17:43.542+03:00,108,1.8,2025-04-18T08:51:18.885+03:00,0.03057091307199995,1
2025-04-18T10:18:14.736+03:00,1744960693.019994,40.95362655444679,29.14099305211143,92.02811,-1,-1,-1,-1,30,21.49291283600189,-9999,60704.53930075,-0.7530059814453125,0.601959228515625,-0.219390869140625,60704.52922475,1.463680806567072,-1.285618428971693,-0.6611828475159277,-0.02928325533866882,-0.004368459805846214,-0.01037710160017014,0.01231789588928223,-0.004050195217132568,0.003811776638031006,XArbitraryZVertical,0.1855935368278762,-0.5954272272042901,0.6506646436235001,0.4331940345117806,-0.7573893666267395,0.6140508651733398,-0.2220429182052612,0,0,0,-1,-1,60702.52296725001,unknown,2,2025-04-18T10:18:12.715+03:00,2025-04-17T15:44:39.500+03:00,7077,1.059162,0,0,5844.344,4,10,2025-04-18T10:17:57.239+03:00,766653492.8140407,0,105.42,100.5905,1,0.75,2025-04-18T10:17:43.542+03:00,108,1.8,2025-04-18T08:51:18.885+03:00,0.03057091307199995,1
2025-04-18T10:18:14.747+03:00,1744960693.019994,40.95362655444679,29.14099305211143,92.02811,-1,-1,-1,-1,30,21.49291283600189,-9999,60704.54937575,-0.75445556640625,0.6012725830078125,-0.220794677734375,60704.53930075,1.463202121016733,-1.285918818643901,-0.6611888798729602,-0.0446491651237011,0.002212210791185498,-0.009526222012937069,0.00488889217376709,-0.01076889038085938,0.002072587609291077,XArbitraryZVertical,0.185546664759441,-0.5955377986113054,0.6505338268112341,0.4332585071674844,-0.7574524283409119,0.6140556335449219,-0.2218143343925476,0,0,0,-1,-1,60702.52296725001,unknown,2,2025-04-18T10:18:12.715+03:00,2025-04-17T15:44:39.500+03:00,7077,1.059162,0,0,5844.344,4,10,2025-04-18T10:17:57.239+03:00,766653492.8140407,0,105.42,100.5905,1,0.75,2025-04-18T10:17:43.542+03:00,108,1.8,2025-04-18T08:51:18.885+03:00,0.03057091307199995,1
2025-04-18T10:18:14.757+03:00,1744960693.019994,40.95362655444679,29.14099305211143,92.02811,-1,-1,-1,-1,30,21.49291283600189,-9999,60704.55945175001,-0.7516326904296875,0.6127777099609375,-0.2227630615234375,60704.54937575,1.462587613970371,-1.286276723996362,-0.6612547536346199,-0.04730486869812012,0.001135761151090264,-0.007585043087601662,0.002854228019714355,-0.01324707269668579,0.001195028424263,XArbitraryZVertical,0.1854572299856679,-0.5956842152662949,0.650375685338725,0.433332916763138,-0.7574928998947144,0.614107608795166,-0.221531867980957,0,0,0,-1,-1,60702.52296725001,unknown,2,2025-04-18T10:18:12.715+03:00,2025-04-17T15:44:39.500+03:00,7077,1.059162,0,0,5844.344,4,10,2025-04-18T10:17:57.239+03:00,766653492.8140407,0,105.42,100.5905,1,0.75,2025-04-18T10:17:43.542+03:00,108,1.8,2025-04-18T08:51:18.885+03:00,0.03057091307199995,1
2025-04-18T10:18:14.766+03:00,1744960693.019994,40.95362655444679,29.14099305211143,92.02811,-1,-1,-1,-1,30,21.49291283600189,-9999,60704.56952675001,-0.7488250732421875,0.6305999755859375,-0.223114013671875,60704.55945175001,1.462135202851304,-1.286568571725653,-0.6612642664393693,-0.02299839444458485,-0.007421175483614206,-0.01514093112200499,0.005034208297729492,-0.003595650196075439,-0.00159117579460144,XArbitraryZVertical,0.1854140071511539,-0.5957911156918728,0.6502517908441962,0.433390551192245,-0.7575520873069763,0.6141151189804077,-0.2213091850280762,0,0,0,-1,-1,60702.52296725001,unknown,2,2025-04-18T10:18:12.715+03:00,2025-04-17T15:44:39.500+03:00,7077,1.059162,0,0,5844.344,4,10,2025-04-18T10:17:57.239+03:00,766653492.8140407,0,105.42,100.5905,1,0.75,2025-04-18T10:17:43.542+03:00,108,1.8,2025-04-18T08:51:18.885+03:00,0.03057091307199995,1
2025-04-18T10:18:14.777+03:00,1744960693.019994,40.95362655444679,29.14099305211143,92.02811,-1,-1,-1,-1,30,21.49291283600189,-9999,60704.57960275,-0.74658203125,0.6426544189453125,-0.223297119140625,60704.56952675001,1.461920730349622,-1.286810919240349,-0.6611528781056436,-0.004494751803576946,-0.0192746389657259,-0.01567010022699833,0.007930576801300049,0.01475697755813599,-0.002259135246276855,XArbitraryZVertical,0.1854675594025466,-0.5958434535542095,0.6501689680919562,0.4334198340065242,-0.7576712369918823,0.614027202129364,-0.2211447209119797,0,0,0,-1,-1,60702.52296725001,unknown,2,2025-04-18T10:18:12.715+03:00,2025-04-17T15:44:39.500+03:00,7077,1.059162,0,0,5844.344,4,10,2025-04-18T10:17:57.239+03:00,766653492.8140407,0,105.42,100.5905,1,0.75,2025-04-18T10:17:43.542+03:00,108,1.8,2025-04-18T08:51:18.885+03:00,0.03057091307199995,1
2025-04-18T10:18:14.799+03:00,1744960693.019994,40.95362655444679,29.14099305211143,92.02811,-1,-1,-1,-1,30,21.49291283600189,-9999,60704.58967875,-0.746307373046875,0.628875732421875,-0.22491455078125,60704.57960275,1.46194631333702,-1.28696922352357,-0.6610222544673358,0.00933550950139761,-0.02503379061818123,-0.02245892956852913,0.01095700263977051,0.02836406230926514,-0.001624256372451782,XArbitraryZVertical,0.1855719700877244,-0.595851858992917,0.650143547960163,0.4334016033962776,-0.7577831149101257,0.6139240860939026,-0.2210472077131271,0,0,0,-1,-1,60702.52296725001,unknown,2,2025-04-18T10:18:12.715+03:00,2025-04-17T15:44:39.500+03:00,7077,1.059162,0,0,5844.344,4,10,2025-04-18T10:17:57.239+03:00,766653492.8140407,0,105.42,100.5905,1,0.75,2025-04-18T10:17:43.542+03:00,108,1.8,2025-04-18T08:51:18.885+03:00,0.03057091307199995,1
2025-04-18T10:18:14.802+03:00,1744960693.019994,40.95362655444679,29.14099305211143,92.02811,-1,-1,-1,-1,30,21.49291283600189,-9999,60704.59975375,-0.75048828125,0.6140289306640625,-0.2233734130859375,60704.58967875,1.46206206732646,-1.287103123435684,-0.6608543098417675,0.01299602445214987,-0.0253248754888773,-0.02419051714241505,0.01172643899917603,0.01775443553924561,-0.003298982977867126,XArbitraryZVertical,0.1857081951460696,-0.5958398805177223,0.6501352750434434,0.4333721589089445,-0.757911741733551,0.6137915253639221,-0.2209746092557907,0,0,0,-1,-1,60702.52296725001,unknown,2,2025-04-18T10:18:12.715+03:00,2025-04-17T15:44:39.500+03:00,7077,1.059162,0,0,5844.344,4,10,2025-04-18T10:17:57.239+03:00,766653492.8140407,0,105.42,100.5905,1,0.75,2025-04-18T10:17:43.542+03:00,108,1.8,2025-04-18T08:51:18.885+03:00,0.03057091307199995,1
2025-04-18T10:18:14.807+03:00,1744960693.019994,40.95362655444679,29.14099305211143,92.02811,-1,-1,-1,-1,30,21.49291283600189,-9999,60704.60982975001,-0.7564697265625,0.6124420166015625,-0.222381591796875,60704.59975375,1.462163269526238,-1.287243058329473,-0.6606540082320477,0.01197776477783918,-0.01790597289800644,-0.02227031253278255,0.009052515029907227,0.001570463180541992,-0.002760320901870728,XArbitraryZVertical,0.1858532920541221,-0.5958247173753998,0.6501192318807606,0.4333548014538506,-0.7580605745315552,0.613633394241333,-0.2209029197692871,0,0,0,-1,-1,60702.52296725001,unknown,2,2025-04-18T10:18:12.715+03:00,2025-04-17T15:44:39.500+03:00,7077,1.059162,0,0,5844.344,4,10,2025-04-18T10:17:57.239+03:00,766653492.8140407,0,105.42,100.5905,1,0.75,2025-04-18T10:17:43.542+03:00,108,1.8,2025-04-18T08:51:18.885+03:00,0.03057091307199995,1
2025-04-18T10:18:14.817+03:00,1744960693.019994,40.95362655444679,29.14099305211143,92.02811,-1,-1,-1,-1,30,21.49291283600189,-9999,60704.61990475,-0.7595367431640625,0.611785888671875,-0.2233428955078125,60704.60982975001,1.462166796104262,-1.287347203360427,-0.6604843198983824,0.0008425558335147798,-0.005111082457005978,-0.01546673476696014,0.002476811408996582,-0.00180506706237793,-0.001848846673965454,XArbitraryZVertical,0.1859470195101366,-0.59581638418622,0.65008915451322,0.4333711567370772,-0.7581835389137268,0.6134994029998779,-0.2208530902862549,0,0,0,-1,-1,60702.52296725001,unknown,2,2025-04-18T10:18:12.715+03:00,2025-04-17T15:44:39.500+03:00,7077,1.059162,0,0,5844.344,4,10,2025-04-18T10:17:57.239+03:00,766653492.8140407,0,105.42,100.5905,1,0.75,2025-04-18T10:17:43.542+03:00,108,1.8,2025-04-18T08:51:18.885+03:00,0.03057091307199995,1
2025-04-18T10:18:14.827+03:00,1744960693.019994,40.95362655444679,29.14099305211143,92.02811,-1,-1,-1,-1,30,21.49291283600189,-9999,60704.62998075,-0.753204345703125,0.6051025390625,-0.2247772216796875,60704.61990475,1.462064615655142,-1.287432065238582,-0.6603024293147268,-0.00957153644412756,-0.003069569822400808,-0.01732099428772926,-0.002005398273468018,-0.001081526279449463,-0.002828061580657959,XArbitraryZVertical,0.1860071416378994,-0.5958115066428157,0.650036440622074,0.4334313187106926,-0.7583096027374268,0.6133557558059692,-0.2208199799060822,0,0,0,-1,-1,60702.52296725001,unknown,2,2025-04-18T10:18:12.715+03:00,2025-04-17T15:44:39.500+03:00,7077,1.059162,0,0,5844.344,4,10,2025-04-18T10:17:57.239+03:00,766653492.8140407,0,105.42,100.5905,1,0.75,2025-04-18T10:17:43.542+03:00,108,1.8,2025-04-18T08:51:18.885+03:00,0.03057091307199995,1
2025-04-18T10:18:14.837+03:00,1744960693.019994,40.95362655444679,29.14099305211143,92.02811,-1,-1,-1,-1,30,21.49291283600189,-9999,60704.64005575,-0.745361328125,0.6080474853515625,-0.223663330078125,60704.62998075,1.461836450589326,-1.287636062893243,-0.6601280456362406,-0.01603396236896515,-0.0136489775031805,-0.01728291064500809,0.0043221116065979,-0.00816112756729126,-0.003914147615432739,XArbitraryZVertical,0.1860658713266489,-0.5958455297881314,0.6499462527355977,0.4334946958168261,-0.758457362651825,0.6132180094718933,-0.2206951975822449,0,0,0,-1,-1,60702.52296725001,unknown,2,2025-04-18T10:18:12.715+03:00,2025-04-17T15:44:39.500+03:00,7077,1.059162,0,0,5844.344,4,10,2025-04-18T10:17:57.239+03:00,766653492.8140407,0,105.42,100.5905,1,0.75,2025-04-18T10:17:43.542+03:00,108,1.8,2025-04-18T08:51:18.885+03:00,0.03057091307199995,1
2025-04-18T10:18:14.847+03:00,1744960693.019994,40.95362655444679,29.14099305211143,92.02811,-1,-1,-1,-1,30,21.49291283600189,-9999,60704.65013175,-0.7430572509765625,0.616546630859375,-0.2288055419921875,60704.64005575,1.461627659735292,-1.28792527023268,-0.6600092885543367,-0.008327174000442028,-0.02255338989198208,-0.01920098625123501,0.0119936466217041,-0.00582432746887207,-0.003045111894607544,XArbitraryZVertical,0.1861388010919281,-0.5959062569020065,0.6498592506363859,0.4335103598504623,-0.7585911154747009,0.6131241917610168,-0.2204961627721786,0,0,0,-1,-1,60702.52296725001,unknown,2,2025-04-18T10:18:12.715+03:00,2025-04-17T15:44:39.500+03:00,7077,1.059162,0,0,5844.344,4,10,2025-04-18T10:17:57.239+03:00,766653492.8140407,0,105.42,100.5905,1,0.75,2025-04-18T10:17:43.542+03:00,108,1.8,2025-04-18T08:51:18.885+03:00,0.03057091307199995,1
2025-04-18T10:18:14.857+03:00,1744960693.019994,40.95362655444679,29.14099305211143,92.02811,-1,-1,-1,-1,30,21.49291283600189,-9999,60704.66020675001,-0.74609375,0.6302947998046875,-0.22332763671875,60704.65013175,1.46156287978687,-1.288190655135087,-0.6599166838528436,0.006069875322282314,-0.02636650577187538,-0.01862760819494724,0.01634860038757324,0.002381742000579834,-0.007686138153076172,XArbitraryZVertical,0.1862378633916097,-0.5959531348010928,0.6498089205984844,0.4334787052103237,-0.7587040066719055,0.6130510568618774,-0.2203106433153152,0,0,0,-1,-1,60702.52296725001,unknown,2,2025-04-18T10:18:12.715+03:00,2025-04-17T15:44:39.500+03:00,7077,1.059162,0,0,5844.344,4,10,2025-04-18T10:17:57.239+03:00,766653492.8140407,0,105.42,100.5905,1,0.75,2025-04-18T10:17:43.542+03:00,108,1.8,2025-04-18T08:51:18.885+03:00,0.03057091307199995,1
2025-04-18T10:18:14.867+03:00,1744960693.019994,40.95362655444679,29.14099305211143,92.02811,-1,-1,-1,-1,30,21.49291283600189,-9999,60704.67028275,-0.7495269775390625,0.6314849853515625,-0.2202301025390625,60704.66020675001,1.461630149915913,-1.28840514555146,-0.6598960615115801,0.0134947681799531,-0.02884111180901527,-0.01782786101102829,0.01347827911376953,0.01553577184677124,-0.003878101706504822,XArbitraryZVertical,0.1863348087451043,-0.5959896389522874,0.649800931187303,0.4333986434492312,-0.7587632536888123,0.613034725189209,-0.2201513797044754,0,0,0,-1,-1,60702.52296725001,unknown,2,2025-04-18T10:18:12.715+03:00,2025-04-17T15:44:39.500+03:00,7077,1.059162,0,0,5844.344,4,10,2025-04-18T10:17:57.239+03:00,766653492.8140407,0,105.42,100.5905,1,0.75,2025-04-18T10:17:43.542+03:00,108,1.8,2025-04-18T08:51:18.885+03:00,0.03057091307199995,1
2025-04-18T10:18:14.877+03:00,1744960693.019994,40.95362655444679,29.14099305211143,92.02811,-1,-1,-1,-1,30,21.49291283600189,-9999,60704.68035775,-0.7543792724609375,0.6139678955078125,-0.2201995849609375,60704.67028275,1.461783888136442,-1.288563035583015,-0.6597981701637488,0.01627031527459621,-0.02778756618499756,-0.0215618796646595,0.009542346000671387,0.0202212929725647,0.0005201846361160278,XArbitraryZVertical,0.1864658167192165,-0.5959919008525187,0.6498072878745883,0.433329735003617,-0.7588557004928589,0.6129574179649353,-0.2200483083724976,0,0,0,-1,-1,60702.52296725001,unknown,2,2025-04-18T10:18:12.715+03:00,2025-04-17T15:44:39.500+03:00,7077,1.059162,0,0,5844.344,4,10,2025-04-18T10:17:57.239+03:00,766653492.8140407,0,105.42,100.5905,1,0.75,2025-04-18T10:17:43.542+03:00,108,1.8,2025-04-18T08:51:18.885+03:00,0.03057091307199995,1
2025-04-18T10:18:14.887+03:00,1744960693.019994,40.95362655444679,29.14099305211143,92.02811,-1,-1,-1,-1,30,21.49291283600189,-9999,60704.69043375,-0.7569580078125,0.6188507080078125,-0.219818115234375,60704.68035775,1.462050008424578,-1.288592309265686,-0.6595621852556969,0.03191159293055534,-0.01759991049766541,-0.02175748720765114,0.005384683609008789,0.002783775329589844,-0.0007130056619644165,XArbitraryZVertical,0.1866364456431955,-0.5959309258652273,0.6498326846822571,0.4333019291783493,-0.7590009570121765,0.6127709150314331,-0.2200663387775421,0,0,0,-1,-1,60702.52296725001,unknown,2,2025-04-18T10:18:12.715+03:00,2025-04-17T15:44:39.500+03:00,7077,1.059162,0,0,5844.344,4,10,2025-04-18T10:17:57.239+03:00,766653492.8140407,0,105.42,100.5905,1,0.75,2025-04-18T10:17:43.542+03:00,108,1.8,2025-04-18T08:51:18.885+03:00,0.03057091307199995,1
2025-04-18T10:18:14.898+03:00,1744960693.019994,40.95362655444679,29.14099305211143,92.02811,-1,-1,-1,-1,30,21.49291283600189,-9999,60704.70050975,-0.756011962890625,0.6382598876953125,-0.2261810302734375,60704.69043375,1.462453712437333,-1.288445902433357,-0.6592844575092428,0.04281430691480637,-0.009601105004549026,-0.01437840051949024,0.002632021903991699,0.003812134265899658,0.0001627206802368164,XArbitraryZVertical,0.1868053057622589,-0.5958114800990413,0.6498990880156951,0.4332940447710982,-0.7591323256492615,0.6125514507293701,-0.220224916934967,0,0,0,-1,-1,60702.52296725001,unknown,2,2025-04-18T10:18:12.715+03:00,2025-04-17T15:44:39.500+03:00,7077,1.059162,0,0,5844.344,4,10,2025-04-18T10:17:57.239+03:00,766653492.8140407,0,105.42,100.5905,1,0.75,2025-04-18T10:17:43.542+03:00,108,1.8,2025-04-18T08:51:18.885+03:00,0.03057091307199995,1
2025-04-18T10:18:14.908+03:00,1744960693.019994,40.95362655444679,29.14099305211143,92.02811,-1,-1,-1,-1,30,21.49291283600189,-9999,60704.71058475001,-0.7530059814453125,0.6234893798828125,-0.2345428466796875,60704.70050975,1.463019715277559,-1.288132710543693,-0.6590115463566415,0.05500472709536552,-0.001091440673917532,-0.01334998849779367,0.002509891986846924,0.02505451440811157,-0.004222124814987183,XArbitraryZVertical,0.1869666271174085,-0.5956415267474089,0.650016861283246,0.4332815752988476,-0.7592239379882812,0.6123356819152832,-0.2205093055963516,0,0,0,-1,-1,60702.52296725001,unknown,2,2025-04-18T10:18:12.715+03:00,2025-04-17T15:44:39.500+03:00,7077,1.059162,0,0,5844.344,4,10,2025-04-18T10:17:57.239+03:00,766653492.8140407,0,105.42,100.5905,1,0.75,2025-04-18T10:17:43.542+03:00,108,1.8,2025-04-18T08:51:18.885+03:00,0.03057091307199995,1
2025-04-18T10:18:14.918+03:00,1744960693.019994,40.95362655444679,29.14099305211143,92.02811,-1,-1,-1,-1,30,21.49291283600189,-9999,60704.72066075,-0.7495574951171875,0.606658935546875,-0.236968994140625,60704.71058475001,1.463705509941918,-1.287699098831178,-0.6586844315301269,0.05710862204432487,-0.004290696233510971,-0.01433988567441702,0.005795598030090332,0.01440310478210449,-0.012809157371521,XArbitraryZVertical,0.1871432519851088,-0.5954243900651857,0.6501651164316743,0.4332811929647121,-0.7593204379081726,0.6120770573616028,-0.2208943963050842,0,0,0,-1,-1,60702.52296725001,unknown,2,2025-04-18T10:18:12.715+03:00,2025-04-17T15:44:39.500+03:00,7077,1.059162,0,0,5844.344,4,10,2025-04-18T10:17:57.239+03:00,766653492.8140407,0,105.42,100.5905,1,0.75,2025-04-18T10:17:43.542+03:00,108,1.8,2025-04-18T08:51:18.885+03:00,0.03057091307199995,1
2025-04-18T10:18:14.928+03:00,1744960693.019994,40.95362655444679,29.14099305211143,92.02811,-1,-1,-1,-1,30,21.49291283600189,-9999,60704.73073575,-0.7493133544921875,0.6146697998046875,-0.2398681640625,60704.72066075,1.464359211062949,-1.287392202746312,-0.6584074194109902,0.05259782820940018,-0.01732919923961163,-0.01316153630614281,0.009720504283905029,-0.005198955535888672,-0.01564145088195801,XArbitraryZVertical,0.1873339736157788,-0.5952466385807351,0.6503008915653884,0.4332393311360716,-0.7594153881072998,0.6118579506874084,-0.2211748361587524,0,0,0,-1,-1,60702.52296725001,unknown,2,2025-04-18T10:18:12.715+03:00,2025-04-17T15:44:39.500+03:00,7077,1.059162,0,0,5844.344,4,10,2025-04-18T10:17:57.239+03:00,766653492.8140407,0,105.42,100.5905,1,0.75,2025-04-18T10:17:43.542+03:00,108,1.8,2025-04-18T08:51:18.885+03:00,0.03057091307199995,1
2025-04-18T10:18:14.938+03:00,1744960693.019994,40.95362655444679,29.14099305211143,92.02811,-1,-1,-1,-1,30,21.49291283600189,-9999,60704.74081175,-0.753082275390625,0.6205291748046875,-0.2249603271484375,60704.73073575,1.46504846048976,-1.287108014909171,-0.6581590913444297,0.05814839154481888,-0.01745330169796944,-0.01806441508233547,0.0104137659072876,0.001787662506103516,-0.01816031336784363,XArbitraryZVertical,0.1875326497298861,-0.5950755541817444,0.6504458529998233,0.4331708178905802,-0.7594984173774719,0.6116614937782288,-0.2214331775903702,0,0,0,-1,-1,60702.52296725001,unknown,2,2025-04-18T10:18:12.715+03:00,2025-04-17T15:44:39.500+03:00,7077,1.059162,0,0,5844.344,4,10,2025-04-18T10:17:57.239+03:00,766653492.8140407,0,105.42,100.5905,1,0.75,2025-04-18T10:17:43.542+03:00,108,1.8,2025-04-18T08:51:18.885+03:00,0.03057091307199995,1
2025-04-18T10:18:14.948+03:00,1744960693.019994,40.95362655444679,29.14099305211143,92.02811,-1,-1,-1,-1,30,21.49291283600189,-9999,60704.75088675,-0.7523040771484375,0.6149444580078125,-0.2078094482421875,60704.74081175,1.465543294502936,-1.286932645539703,-0.6580219389591662,0.02929010987281799,-0.01418373920023441,-0.01299535483121872,0.006991744041442871,0.008823633193969727,-0.006330609321594238,XArbitraryZVertical,0.1876703585703176,-0.594966317588463,0.6505523705676596,0.4331011492980383,-0.7595399618148804,0.6115530133247375,-0.2215898334980011,0,0,0,-1,-1,60702.52296725001,unknown,2,2025-04-18T10:18:12.715+03:00,2025-04-17T15:44:39.500+03:00,7077,1.059162,0,0,5844.344,4,10,2025-04-18T10:17:57.239+03:00,766653492.8140407,0,105.42,100.5905,1,0.75,2025-04-18T10:17:43.542+03:00,108,1.8,2025-04-18T08:51:18.885+03:00,0.03057091307199995,1
2025-04-18T10:18:14.958+03:00,1744960693.019994,40.95362655444679,29.14099305211143,92.02811,-1,-1,-1,-1,30,21.49291283600189,-9999,60704.76096275001,-0.74676513671875,0.5990753173828125,-0.2395782470703125,60704.75088675,1.465660942013176,-1.286960737865394,-0.6579258570929084,0.00175941560883075,-0.006621161941438913,-0.02442990243434906,0.006428778171539307,0.00535959005355835,0.01496577262878418,XArbitraryZVertical,0.1877477333910282,-0.5949439504286792,0.6505632455232444,0.4330820780728037,-0.7596026659011841,0.6114769577980042,-0.2215849757194519,0,0,0,-1,-1,60702.52296725001,unknown,2,2025-04-18T10:18:12.715+03:00,2025-04-17T15:44:39.500+03:00,7077,1.059162,0,0,5844.344,4,10,2025-04-18T10:17:57.239+03:00,766653492.8140407,0,105.42,100.5905,1,0.75,2025-04-18T10:17:43.542+03:00,108,1.8,2025-04-18T08:51:18.885+03:00,0.03057091307199995,1
2025-04-18T10:18:14.968+03:00,1744960693.019994,40.95362655444679,29.14099305211143,92.02811,-1,-1,-1,-1,30,21.49291283600189,-9999,60704.77103775,-0.74298095703125,0.6098175048828125,-0.23590087890625,60704.76096275001,1.465451536663807,-1.28715465712844,-0.6577503724565947,-0.0201187189668417,-0.009007086977362633,-0.02634192071855068,0.01220518350601196,-0.01250690221786499,-0.01394486427307129,XArbitraryZVertical,0.1878093052901812,-0.5949738084073943,0.6504778154394166,0.4331425758427364,-0.7597485780715942,0.6113381385803223,-0.2214676588773727,0,0,0,-1,-1,60702.52296725001,unknown,2,2025-04-18T10:18:12.715+03:00,2025-04-17T15:44:39.500+03:00,7077,1.059162,0,0,5844.344,4,10,2025-04-18T10:17:57.239+03:00,766653492.8140407,0,105.42,100.5905,1,0.75,2025-04-18T10:17:43.542+03:00,108,1.8,2025-04-18T08:51:18.885+03:00,0.03057091307199995,1
2025-04-18T10:18:14.978+03:00,1744960693.019994,40.95362655444679,29.14099305211143,92.02811,-1,-1,-1,-1,30,21.49291283600189,-9999,60704.78111375,-0.741180419921875,0.6100616455078125,-0.2137298583984375,60704.77103775,1.465011978360137,-1.287580862792392,-0.6576104940909752,-0.03642312437295914,-0.02193833142518997,-0.02805433236062527,0.01610475778579712,-0.00380551815032959,-0.01744914054870605,XArbitraryZVertical,0.1878655371679758,-0.5950820679112557,0.6503251398538682,0.4331987873735282,-0.7599250078201294,0.6112273931503296,-0.2211677432060242,0,0,0,-1,-1,60702.52296725001,unknown,2,2025-04-18T10:18:12.715+03:00,2025-04-17T15:44:39.500+03:00,7077,1.059162,0,0,5844.344,4,10,2025-04-18T10:17:57.239+03:00,766653492.8140407,0,105.42,100.5905,1,0.75,2025-04-18T10:17:43.542+03:00,108,1.8,2025-04-18T08:51:18.885+03:00,0.03057091307199995,1
2025-04-18T10:18:14.988+03:00,1744960693.019994,40.95362655444679,29.14099305211143,92.02811,-1,-1,-1,-1,30,21.49291283600189,-9999,60704.79118875,-0.7403106689453125,0.603424072265625,-0.2103729248046875,60704.78111375,1.464446651987661,-1.288155189802535,-0.6576008446312144,-0.04532686993479729,-0.02878239005804062,-0.02323374524712563,0.01844978332519531,0.0005813241004943848,0.005477204918861389,XArbitraryZVertical,0.1878874231529484,-0.5952578268376679,0.6501475223954807,0.4332142745989603,-0.7600574493408203,0.6112197637557983,-0.2207328677177429,0,0,0,-1,-1,60702.52296725001,unknown,2,2025-04-18T10:18:12.715+03:00,2025-04-17T15:44:39.500+03:00,7077,1.059162,0,0,5844.344,4,10,2025-04-18T10:17:57.239+03:00,766653492.8140407,0,105.42,100.5905,1,0.75,2025-04-18T10:17:43.542+03:00,108,1.8,2025-04-18T08:51:18.885+03:00,0.03057091307199995,1
2025-04-18T10:18:14.998+03:00,1744960693.019994,40.95362655444679,29.14099305211143,92.02811,-1,-1,-1,-1,30,21.49291283600189,-9999,60704.80126475001,-0.73748779296875,0.6003265380859375,-0.2173614501953125,60704.79118875,1.463816914051502,-1.288827917730945,-0.6576142918509641,-0.05489214509725571,-0.04266331717371941,-0.02417570538818836,0.01979571580886841,-0.007485866546630859,0.009800612926483154,XArbitraryZVertical,0.1879138984602042,-0.5954651416071538,0.649949606386649,0.4332150311777223,-0.7601980566978455,0.6112304329872131,-0.2202192693948746,0,0,0,-1,-1,60702.52296725001,unknown,2,2025-04-18T10:18:12.715+03:00,2025-04-17T15:44:39.500+03:00,7077,1.059162,0,0,5844.344,4,10,2025-04-18T10:17:57.239+03:00,766653492.8140407,0,105.42,100.5905,1,0.75,2025-04-18T10:17:43.542+03:00,108,1.8,2025-04-18T08:51:18.885+03:00,0.03057091307199995,1
2025-04-18T10:18:15.008+03:00,1744960693.019994,40.95362655444679,29.14099305211143,92.02811,-1,-1,-1,-1,30,21.49291283600189,-9999,60704.81133975001,-0.7378997802734375,0.6092529296875,-0.2377777099609375,60704.80126475001,1.463135500985035,-1.289606822094003,-0.6575076437017096,-0.05192152038216591,-0.05083669349551201,-0.02880807407200336,0.02273046970367432,-0.01048380136489868,0.004236891865730286,XArbitraryZVertical,0.1880010221010502,-0.5956786425319561,0.6497154308579201,0.433234889744981,-0.7604318857192993,0.6111460328102112,-0.2196451425552368,0,0,0,-1,-1,60702.52296725001,unknown,2,2025-04-18T10:18:12.715+03:00,2025-04-17T15:44:39.500+03:00,7077,1.059162,0,0,5844.344,4,10,2025-04-18T10:17:57.239+03:00,766653492.8140407,0,105.42,100.5905,1,0.75,2025-04-18T10:17:43.542+03:00,108,1.8,2025-04-18T08:51:18.885+03:00,0.03057091307199995,1
2025-04-18T10:18:15.018+03:00,1744960693.019994,40.95362655444679,29.14099305211143,92.02811,-1,-1,-1,-1,30,21.49291283600189,-9999,60704.82141575,-0.742462158203125,0.6257171630859375,-0.2415924072265625,60704.81133975001,1.462546281729395,-1.290396723310943,-0.6573553645436419,-0.04016898944973946,-0.05627540126442909,-0.03727585822343826,0.02329826354980469,-0.004351258277893066,-0.01620501279830933,XArbitraryZVertical,0.1881347925277737,-0.5958776902430742,0.6494943939143429,0.433234511032317,-0.7606945633888245,0.6110254526138306,-0.2190701514482498,0,0,0,-1,-1,60702.52296725001,unknown,2,2025-04-18T10:18:12.715+03:00,2025-04-17T15:44:39.500+03:00,7077,1.059162,0,0,5844.344,4,10,2025-04-18T10:17:57.239+03:00,766653492.8140407,0,105.42,100.5905,1,0.75,2025-04-18T10:17:43.542+03:00,108,1.8,2025-04-18T08:51:18.885+03:00,0.03057091307199995,1
2025-04-18T10:18:15.028+03:00,1744960693.019994,40.95362655444679,29.14099305211143,92.02811,-1,-1,-1,-1,30,21.49291283600189,-9999,60704.83149175,-0.744842529296875,0.631622314453125,-0.226318359375,60704.82141575,1.462090914455904,-1.291234628224594,-0.6571347818225639,-0.02238739840686321,-0.06561809778213501,-0.04022441059350967,0.01933860778808594,0.01234865188598633,-0.02417534589767456,XArbitraryZVertical,0.1883475339242157,-0.5960623015479728,0.649289138933603,0.4331957933272597,-0.7610073685646057,0.6108508110046387,-0.2184698730707169,0,0,0,-1,-1,60702.52296725001,unknown,2,2025-04-18T10:18:12.715+03:00,2025-04-17T15:44:39.500+03:00,7077,1.059162,0,0,5844.344,4,10,2025-04-18T10:17:57.239+03:00,766653492.8140407,0,105.42,100.5905,1,0.75,2025-04-18T10:17:43.542+03:00,108,1.8,2025-04-18T08:51:18.885+03:00,0.03057091307199995,1
2025-04-18T10:18:15.038+03:00,1744960693.019994,40.95362655444679,29.14099305211143,92.02811,-1,-1,-1,-1,30,21.49291283600189,-9999,60704.84156675,-0.7436676025390625,0.619598388671875,-0.2193603515625,60704.83149175,1.46156270235047,-1.292335049068468,-0.6568602614793281,-0.03463288024067879,-0.0822167843580246,-0.04568575695157051,0.01650500297546387,0.02158397436141968,-0.0103488564491272,XArbitraryZVertical,0.1886422639279233,-0.5963010006875789,0.6490364143850139,0.4331178453534701,-0.7614086270332336,0.6106334924697876,-0.217678427696228,0,0,0,-1,-1,60702.52296725001,unknown,2,2025-04-18T10:18:12.715+03:00,2025-04-17T15:44:39.500+03:00,7077,1.059162,0,0,5844.344,4,10,2025-04-18T10:17:57.239+03:00,766653492.8140407,0,105.42,100.5905,1,0.75,2025-04-18T10:17:43.542+03:00,108,1.8,2025-04-18T08:51:18.885+03:00,0.03057091307199995,1
2025-04-18T10:18:15.049+03:00,1744960693.019994,40.95362655444679,29.14099305211143,92.02811,-1,-1,-1,-1,30,21.49291283600189,-9999,60704.85164275001,-0.7504425048828125,0.601898193359375,-0.225921630859375,60704.84156675,1.460979548664179,-1.293428061084095,-0.6565080923114154,-0.05319724231958389,-0.08247005194425583,-0.04762919619679451,0.01806306838989258,0.01144117116928101,-0.002592682838439941,XArbitraryZVertical,0.1889449248023154,-0.5965294236263405,0.6487624281651345,0.4330817967669012,-0.7618528008460999,0.6103545427322388,-0.2169049233198166,0,0,0,-1,-1,60702.52296725001,unknown,2,2025-04-18T10:18:12.715+03:00,2025-04-17T15:44:39.500+03:00,7077,1.059162,0,0,5844.344,4,10,2025-04-18T10:17:57.239+03:00,766653492.8140407,0,105.42,100.5905,1,0.75,2025-04-18T10:17:43.542+03:00,108,1.8,2025-04-18T08:51:18.885+03:00,0.03057091307199995,1
2025-04-18T10:18:15.059+03:00,1744960693.019994,40.95362655444679,29.14099305211143,92.02811,-1,-1,-1,-1,30,21.49291283600189,-9999,60704.86171775001,-0.7556610107421875,0.599761962890625,-0.232666015625,60704.85164275001,1.460136681066267,-1.294635433776332,-0.6562748082528626,-0.07463116198778152,-0.0769682303071022,-0.043659757822752,0.01235783100128174,-0.006623625755310059,-0.008402511477470398,XArbitraryZVertical,0.189165805252875,-0.5968286512863927,0.6484362055840844,0.4330615665792031,-0.7622510194778442,0.6101697087287903,-0.216023713350296,0,0,0,-1,-1,60702.52296725001,unknown,2,2025-04-18T10:18:12.715+03:00,2025-04-17T15:44:39.500+03:00,7077,1.059162,0,0,5844.344,4,10,2025-04-18T10:17:57.239+03:00,766653492.8140407,0,105.42,100.5905,1,0.75,2025-04-18T10:17:43.542+03:00,108,1.8,2025-04-18T08:51:18.885+03:00,0.03057091307199995,1
2025-04-18T10:18:15.069+03:00,1744960693.019994,40.95362655444679,29.14099305211143,92.02811,-1,-1,-1,-1,30,21.49291283600189,-9999,60704.87179375,-0.759368896484375,0.607940673828125,-0.2352447509765625,60704.86171775001,1.459001895725083,-1.296042199416271,-0.6562092265238556,-0.09687700867652893,-0.0696207657456398,-0.03212624043226242,0.006534993648529053,-0.01136291027069092,-0.01742921769618988,XArbitraryZVertical,0.1893056864241451,-0.5972288672422651,0.6480490596116821,0.4330283002995622,-0.7625927329063416,0.6101177930831909,-0.2149620801210403,0,0,0,-1,-1,60702.52296725001,unknown,2,2025-04-18T10:18:12.715+03:00,2025-04-17T15:44:39.500+03:00,7077,1.059162,0,0,5844.344,4,10,2025-04-18T10:17:57.239+03:00,766653492.8140407,0,105.42,100.5905,1,0.75,2025-04-18T10:17:43.542+03:00,108,1.8,2025-04-18T08:51:18.885+03:00,0.03057091307199995,1
2025-04-18T10:18:15.079+03:00,1744960693.019994,40.95362655444679,29.14099305211143,92.02811,-1,-1,-1,-1,30,21.49291283600189,-9999,60704.88186875,-0.763824462890625,0.6034698486328125,-0.230682373046875,60704.87179375,1.457579349308921,-1.297593361578803,-0.6563266671016587,-0.1193817853927612,-0.06662337481975555,-0.01655340567231178,0.003838300704956055,-0.002605855464935303,-0.02104263007640839,XArbitraryZVertical,0.1893425305980425,-0.5977203570071641,0.6476092166640861,0.4329920127036033,-0.7628562450408936,0.6102108359336853,-0.2137595564126968,0,0,0,-1,-1,60702.52296725001,unknown,2,2025-04-18T10:18:12.715+03:00,2025-04-17T15:44:39.500+03:00,7077,1.059162,0,0,5844.344,4,10,2025-04-18T10:17:57.239+03:00,766653492.8140407,0,105.42,100.5905,1,0.75,2025-04-18T10:17:43.542+03:00,108,1.8,2025-04-18T08:51:18.885+03:00,0.03057091307199995,1
2025-04-18T10:18:15.089+03:00,1744960693.019994,40.95362655444679,29.14099305211143,92.02811,-1,-1,-1,-1,30,21.49291283600189,-9999,60704.89194475,-0.7645721435546875,0.586395263671875,-0.23626708984375,60704.88186875,1.455941292080912,-1.299149554871121,-0.6566095335287979,-0.149490162730217,-0.05340158194303513,-0.007947133854031563,-3.981590270996094e-05,-0.005027174949645996,-0.01837009191513062,XArbitraryZVertical,0.1892584886978847,-0.5982627274916952,0.6471435290335704,0.4329761261403576,-0.7630217671394348,0.610434889793396,-0.2125258594751358,0,0,0,-1,-1,60702.52296725001,unknown,2,2025-04-18T10:18:12.715+03:00,2025-04-17T15:44:39.500+03:00,7077,1.059162,0,0,5844.344,4,10,2025-04-18T10:17:57.239+03:00,766653492.8140407,0,105.42,100.5905,1,0.75,2025-04-18T10:17:43.542+03:00,108,1.8,2025-04-18T08:51:18.885+03:00,0.03057091307199995,1
2025-04-18T10:18:15.099+03:00,1744960693.019994,40.95362655444679,29.14099305211143,92.02811,-1,-1,-1,-1,30,21.49291283600189,-9999,60704.90201975001,-0.75567626953125,0.586517333984375,-0.23828125,60704.89194475,1.453893436270832,-1.3007714511055,-0.6570720501408349,-0.1994478702545166,-0.05270542949438095,-0.004302863962948322,-0.001768887042999268,-0.0231698751449585,-0.02404728531837463,XArbitraryZVertical,0.1890099841176812,-0.5988896942071802,0.6466062450275126,0.4330206785968947,-0.7630932927131653,0.6108011603355408,-0.2112127244472504,0,0,0,-1,-1,60702.52296725001,unknown,2,2025-04-18T10:18:12.715+03:00,2025-04-17T15:44:39.500+03:00,7077,1.059162,0,0,5844.344,4,10,2025-04-18T10:17:57.239+03:00,766653492.8140407,0,105.42,100.5905,1,0.75,2025-04-18T10:17:43.542+03:00,108,1.8,2025-04-18T08:51:18.885+03:00,0.03057091307199995,1
2025-04-18T10:18:15.109+03:00,1744960693.019994,40.95362655444679,29.14099305211143,92.02811,-1,-1,-1,-1,30,21.49291283600189,-9999,60704.91209575001,-0.74554443359375,0.5879058837890625,-0.2353363037109375,60704.90201975001,1.451325383960455,-1.302800765936163,-0.6577107350645147,-0.2427041828632355,-0.07622907310724258,-0.00655386783182621,0.005377113819122314,-0.02480465173721313,-0.02948373556137085,XArbitraryZVertical,0.1886750291656269,-0.5996845468013023,0.6459410422588721,0.4330593657508687,-0.7631438970565796,0.6113067269325256,-0.2095603495836258,0,0,0,-1,-1,60702.52296725001,unknown,2,2025-04-18T10:18:12.715+03:00,2025-04-17T15:44:39.500+03:00,7077,1.059162,0,0,5844.344,4,10,2025-04-18T10:17:57.239+03:00,766653492.8140407,0,105.42,100.5905,1,0.75,2025-04-18T10:17:43.542+03:00,108,1.8,2025-04-18T08:51:18.885+03:00,0.03057091307199995,1
2025-04-18T10:18:15.119+03:00,1744960693.019994,40.95362655444679,29.14099305211143,92.02811,-1,-1,-1,-1,30,21.49291283600189,-9999,60704.92217175,-0.7479248046875,0.600433349609375,-0.23480224609375,60704.91209575001,1.448230954534646,-1.305470622050152,-0.6584047065042482,-0.2632627189159393,-0.09742463380098343,-0.01565868221223354,0.0169990062713623,-0.02430087327957153,-0.02827638387680054,XArbitraryZVertical,0.1883676391034883,-0.6006764594118703,0.6451094247089657,0.4330581628858653,-0.7632911801338196,0.6118558049201965,-0.2074108421802521,0,0,0,-1,-1,60702.52296725001,unknown,2,2025-04-18T10:18:12.715+03:00,2025-04-17T15:44:39.500+03:00,7077,1.059162,0,0,5844.344,4,10,2025-04-18T10:17:57.239+03:00,766653492.8140407,0,105.42,100.5905,1,0.75,2025-04-18T10:17:43.542+03:00,108,1.8,2025-04-18T08:51:18.885+03:00,0.03057091307199995,1
2025-04-18T10:18:15.129+03:00,1744960693.019994,40.95362655444679,29.14099305211143,92.02811,-1,-1,-1,-1,30,21.49291283600189,-9999,60704.93224675,-0.7542266845703125,0.6286773681640625,-0.242431640625,60704.92217175,1.44529524852609,-1.308295427485087,-0.6589700205420176,-0.2046485543251038,-0.121694415807724,-0.0212311465293169,0.01642364263534546,-0.01408201456069946,-0.02956181764602661,XArbitraryZVertical,0.188199836989675,-0.6016633514271555,0.644281702472088,0.4329932698666012,-0.7635397911071777,0.612302839756012,-0.2051640599966049,0,0,0,-1,-1,60702.52296725001,unknown,2,2025-04-18T10:18:12.715+03:00,2025-04-17T15:44:39.500+03:00,7077,1.059162,0,0,5844.344,4,10,2025-04-18T10:17:57.239+03:00,766653492.8140407,0,105.42,100.5905,1,0.75,2025-04-18T10:17:43.542+03:00,108,1.8,2025-04-18T08:51:18.885+03:00,0.03057091307199995,1
2025-04-18T10:18:15.140+03:00,1744960693.019994,40.95362655444679,29.14099305211143,92.02811,-1,-1,-1,-1,30,21.49291283600189,-9999,60704.94232275,-0.7686920166015625,0.668304443359375,-0.2557373046875,60704.93224675,1.44343283874573,-1.310500864623334,-0.6590761396162419,-0.1066359654068947,-0.1091059297323227,-0.03648520261049271,0.01031124591827393,0.01256746053695679,-0.03725968301296234,XArbitraryZVertical,0.1883125990304586,-0.6023345538828299,0.643684882855134,0.4328986654445416,-0.7639275789260864,0.6123867630958557,-0.2034628987312317,0,0,0,-1,-1,60702.52296725001,unknown,2,2025-04-18T10:18:12.715+03:00,2025-04-17T15:44:39.500+03:00,7077,1.059162,0,0,5844.344,4,10,2025-04-18T10:17:57.239+03:00,766653492.8140407,0,105.42,100.5905,1,0.75,2025-04-18T10:17:43.542+03:00,108,1.8,2025-04-18T08:51:18.885+03:00,0.03057091307199995,1
2025-04-18T10:18:15.149+03:00,1744960693.019994,40.95362655444679,29.14099305211143,92.02811,-1,-1,-1,-1,30,21.49291283600189,-9999,60704.95239775001,-0.7849578857421875,0.7027740478515625,-0.24859619140625,60704.94232275,1.442522489466784,-1.311889939115522,-0.6588048015464425,-0.03331894427537918,-0.0863596647977829,-0.04206801950931549,-0.002139925956726074,0.05080687999725342,-0.0529421865940094,XArbitraryZVertical,0.1885794038400743,-0.6026738556569456,0.6433211836242267,0.4328508209552093,-0.7643700242042542,0.6121722459793091,-0.2024440616369247,0,0,0,-1,-1,60702.52296725001,unknown,2,2025-04-18T10:18:12.715+03:00,2025-04-17T15:44:39.500+03:00,7077,1.059162,0,0,5844.344,4,10,2025-04-18T10:17:57.239+03:00,766653492.8140407,0,105.42,100.5905,1,0.75,2025-04-18T10:17:43.542+03:00,108,1.8,2025-04-18T08:51:18.885+03:00,0.03057091307199995,1
2025-04-18T10:18:15.159+03:00,1744960693.019994,40.95362655444679,29.14099305211143,92.02811,-1,-1,-1,-1,30,21.49291283600189,-9999,60704.96247375001,-0.790191650390625,0.6837615966796875,-0.2627105712890625,60704.95239775001,1.442599050253214,-1.312433199101771,-0.6583222639157353,0.04965077340602875,-0.04055329784750938,-0.04700179398059845,-0.01921582221984863,0.08854210376739502,-0.04635453224182129,XArbitraryZVertical,0.1889444055287376,-0.602700480445388,0.6432227278354364,0.4328011261295341,-0.7647655606269836,0.6117905974388123,-0.2021042853593826,0,0,0,-1,-1,60702.52296725001,unknown,2,2025-04-18T10:18:12.715+03:00,2025-04-17T15:44:39.500+03:00,7077,1.059162,0,0,5844.344,4,10,2025-04-18T10:17:57.239+03:00,766653492.8140407,0,105.42,100.5905,1,0.75,2025-04-18T10:17:43.542+03:00,108,1.8,2025-04-18T08:51:18.885+03:00,0.03057091307199995,1
2025-04-18T10:18:15.169+03:00,1744960693.019994,40.95362655444679,29.14099305211143,92.02811,-1,-1,-1,-1,30,21.49291283600189,-9999,60704.97254875,-0.7859344482421875,0.63751220703125,-0.2476043701171875,60704.96247375001,1.442454253293661,-1.312583474086527,-0.657753975252467,-0.09592120349407196,0.01991390809416771,-0.0668482705950737,-0.02480036020278931,0.07739508152008057,-0.05973216891288757,XArbitraryZVertical,0.1891460528669526,-0.6026480807362371,0.6431020075322907,0.432965461717799,-0.7651320099830627,0.6113409399986267,-0.2020781189203262,0,0,0,-1,-1,60702.52296725001,unknown,2,2025-04-18T10:18:12.715+03:00,2025-04-17T15:44:39.500+03:00,7077,1.059162,0,0,5844.344,4,10,2025-04-18T10:17:57.239+03:00,766653492.8140407,0,105.42,100.5905,1,0.75,2025-04-18T10:17:43.542+03:00,108,1.8,2025-04-18T08:51:18.885+03:00,0.03057091307199995,1
2025-04-18T10:18:15.180+03:00,1744960693.019994,40.95362655444679,29.14099305211143,92.02811,-1,-1,-1,-1,30,21.49291283600189,-9999,60704.98262475,-0.78155517578125,0.57110595703125,-0.2218170166015625,60704.97254875,1.43881202130796,-1.314325453932475,-0.6576834078981657,-0.4631799161434174,0.06410028040409088,-0.09115494042634964,-0.02187484502792358,0.03287988901138306,-0.05200587213039398,XArbitraryZVertical,0.1886321559098015,-0.6033572493150641,0.6421390217238747,0.4336305975786527,-0.7655244469642639,0.6112850904464722,-0.2007558792829514,0,0,0,-1,-1,60702.52296725001,unknown,2,2025-04-18T10:18:12.715+03:00,2025-04-17T15:44:39.500+03:00,7077,1.059162,0,0,5844.344,4,10,2025-04-18T10:17:57.239+03:00,766653492.8140407,0,105.42,100.5905,1,0.75,2025-04-18T10:17:43.542+03:00,108,1.8,2025-04-18T08:51:18.885+03:00,0.03057091307199995,1
