loggingTime(txt),locationTimestamp_since1970(s),locationLatitude(WGS84),locationLongitude(WGS84),locationAltitude(m),locationSpeed(m/s),locationSpeedAccuracy(m/s),locationCourse(°),locationCourseAccuracy(°),locationVerticalAccuracy(m),locationHorizontalAccuracy(m),locationFloor(Z),accelerometerTimestamp_sinceReboot(s),accelerometerAccelerationX(G),accelerometerAccelerationY(G),accelerometerAccelerationZ(G),motionTimestamp_sinceReboot(s),motionYaw(rad),motionRoll(rad),motionPitch(rad),motionRotationRateX(rad/s),motionRotationRateY(rad/s),motionRotationRateZ(rad/s),motionUserAccelerationX(G),motionUserAccelerationY(G),motionUserAccelerationZ(G),motionAttitudeReferenceFrame(txt),motionQuaternionX(R),motionQuaternionY(R),motionQuaternionZ(R),motionQuaternionW(R),motionGravityX(G),motionGravityY(G),motionGravityZ(G),motionMagneticFieldX(µT),motionMagneticFieldY(µT),motionMagneticFieldZ(µT),motionHeading(°),motionMagneticFieldCalibrationAccuracy(Z),activityTimestamp_sinceReboot(s),activity(txt),activityActivityConfidence(Z),activityActivityStartDate(txt),pedometerStartDate(txt),pedometerNumberofSteps(N),pedometerAverageActivePace(s/m),pedometerCurrentPace(s/m),pedometerCurrentCadence(steps/s),pedometerDistance(m),pedometerFloorAscended(N),pedometerFloorDescended(N),pedometerEndDate(txt),altimeterTimestamp_sinceReboot(s),altimeterReset(bool),altimeterRelativeAltitude(m),altimeterPressure(kPa),batteryState(N),batteryLevel(R),heartRateBPMTimestamp(txt),heartRateBPM(N),heartRateBPS(R),heartRateVariabilityTimestamp(txt),heartRateVariability(ms),label
2025-04-18T11:02:54.290+03:00,1744963372.750369,40.95361464921299,29.14100394799852,93.71502,-1,-1,-1,-1,30,27.41004683147841,-9999,62860.093878375,-0.7548828125,0.5052642822265625,-0.4074859619140625,62860.083803375,1.833049464411727,-1.058619334566317,-0.5744464851164894,0.04695749655365944,-0.1372346729040146,-0.02629518136382103,0.006396889686584473,-0.005833566188812256,0.004265308380126953,XArbitraryZVertical,-0.2354375346308757,0.4887344835617493,-0.743902924084489,-0.390277236730745,-0.7317692041397095,0.5433701872825623,-0.4114155471324921,0,0,0,-1,-1,62853.41249675,unknown,2,2025-04-18T11:02:47.583+03:00,2025-04-17T15:44:39.500+03:00,7191,1.094987,0,0,5932.107,4,10,2025-04-18T11:02:11.472+03:00,766656172.849466,0,107.08,100.5709,1,0.65,2025-04-18T11:02:44.169+03:00,93,1.55,2025-04-18T08:51:18.885+03:00,0.03057091307199995,1
2025-04-18T11:02:54.291+03:00,1744963372.750369,40.95361464921299,29.14100394799852,93.71502,-1,-1,-1,-1,30,27.41004683147841,-9999,62860.103954375,-0.6923370361328125,0.50811767578125,-0.4056396484375,62860.093878375,1.833291981604797,-1.060780124107886,-0.5741382668182378,0.01242268923670053,-0.3078333139419556,-0.02119043283164501,-0.02684098482131958,-0.03474956750869751,0.00183415412902832,XArbitraryZVertical,-0.2363955201843564,0.4890394627148602,-0.7436797603871336,-0.3897410402718802,-0.7328026294708252,0.5431114435195923,-0.4099151194095612,0,0,0,-1,-1,62853.41249675,unknown,2,2025-04-18T11:02:47.583+03:00,2025-04-17T15:44:39.500+03:00,7191,1.094987,0,0,5932.107,4,10,2025-04-18T11:02:11.472+03:00,766656172.849466,0,107.08,100.5709,1,0.65,2025-04-18T11:02:44.169+03:00,93,1.55,2025-04-18T08:51:18.885+03:00,0.03057091307199995,1
2025-04-18T11:02:54.292+03:00,1744963372.750369,40.95361464921299,29.14100394799852,93.71502,-1,-1,-1,-1,30,27.41004683147841,-9999,62860.11403037501,-0.70184326171875,0.506561279296875,-0.398773193359375,62860.103954375,1.833108743995551,-1.06435620205352,-0.5740154558584352,-0.02114985138177872,-0.369797021150589,-0.02274169214069843,0.03624778985977173,-0.03650802373886108,0.001516878604888916,XArbitraryZVertical,-0.2377178609135045,0.4897224292505034,-0.7432139734786188,-0.3889669859131742,-0.734322190284729,0.5430083274841309,-0.4073243141174316,0,0,0,-1,-1,62853.41249675,unknown,2,2025-04-18T11:02:47.583+03:00,2025-04-17T15:44:39.500+03:00,7191,1.094987,0,0,5932.107,4,10,2025-04-18T11:02:11.472+03:00,766656172.849466,0,107.08,100.5709,1,0.65,2025-04-18T11:02:44.169+03:00,93,1.55,2025-04-18T08:51:18.885+03:00,0.03057091307199995,1
2025-04-18T11:02:54.300+03:00,1744963372.750369,40.95361464921299,29.14100394799852,93.71502,-1,-1,-1,-1,30,27.41004683147841,-9999,62860.12410537501,-0.7491302490234375,0.5030975341796875,-0.3988800048828125,62860.11403037501,1.832358510985864,-1.068502538736325,-0.5737957442458282,-0.06234895437955856,-0.3854601383209229,-0.09110237658023834,0.03928607702255249,-0.03408056497573853,0.005468815565109253,XArbitraryZVertical,-0.2391419674939645,0.4905551896147216,-0.7425624889358787,-0.3882881215746907,-0.73610919713974,0.5428237915039062,-0.4043334424495697,0,0,0,-1,-1,62853.41249675,unknown,2,2025-04-18T11:02:47.583+03:00,2025-04-17T15:44:39.500+03:00,7191,1.094987,0,0,5932.107,4,10,2025-04-18T11:02:11.472+03:00,766656172.849466,0,107.08,100.5709,1,0.65,2025-04-18T11:02:44.169+03:00,93,1.55,2025-04-18T08:51:18.885+03:00,0.03057091307199995,1
2025-04-18T11:02:54.309+03:00,1744963372.750369,40.95361464921299,29.14100394799852,93.71502,-1,-1,-1,-1,30,27.41004683147841,-9999,62860.134181375,-0.7664794921875,0.5458831787109375,-0.4138031005859375,62860.12410537501,1.831490250761441,-1.070612127649801,-0.5732650745110589,0.02660255692899227,0.2440659254789352,-0.06858064979314804,-0.007934451103210449,-0.0412183403968811,0.004434585571289062,XArbitraryZVertical,-0.2398755906059674,0.4909183252266003,-0.7421135492926388,-0.3882350934217636,-0.7372133135795593,0.5423780083656311,-0.4029178023338318,0,0,0,-1,-1,62853.41249675,unknown,2,2025-04-18T11:02:47.583+03:00,2025-04-17T15:44:39.500+03:00,7191,1.094987,0,0,5932.107,4,10,2025-04-18T11:02:11.472+03:00,766656172.849466,0,107.08,100.5709,1,0.65,2025-04-18T11:02:44.169+03:00,93,1.55,2025-04-18T08:51:18.885+03:00,0.03057091307199995,1
2025-04-18T11:02:54.319+03:00,1744963372.750369,40.95361464921299,29.14100394799852,93.71502,-1,-1,-1,-1,30,27.41004683147841,-9999,62860.144257375,-0.808624267578125,0.5821685791015625,-0.41204833984375,62860.134181375,1.83181276000966,-1.068383942493361,-0.5734936358481413,0.02938183210790157,0.2760300040245056,0.05708326771855354,-0.02592575550079346,-0.005048632621765137,-0.00750279426574707,XArbitraryZVertical,-0.2390572371754335,0.4905117414521554,-0.7424549481275562,-0.3886008563527706,-0.7362050414085388,0.5425700545310974,-0.404499739408493,0,0,0,-1,-1,62853.41249675,unknown,2,2025-04-18T11:02:47.583+03:00,2025-04-17T15:44:39.500+03:00,7191,1.094987,0,0,5932.107,4,10,2025-04-18T11:02:11.472+03:00,766656172.849466,0,107.08,100.5709,1,0.65,2025-04-18T11:02:44.169+03:00,93,1.55,2025-04-18T08:51:18.885+03:00,0.03057091307199995,1
2025-04-18T11:02:54.329+03:00,1744963372.750369,40.95361464921299,29.14100394799852,93.71502,-1,-1,-1,-1,30,27.41004683147841,-9999,62860.154332375,-0.7133636474609375,0.530548095703125,-0.4124603271484375,62860.144257375,1.832227789746277,-1.065930905801825,-0.5735769915447938,0.03537607565522194,0.1422519534826279,0.002056365832686424,-0.07507079839706421,0.040901780128479,-0.006025105714797974,XArbitraryZVertical,-0.2382224276418818,0.4900089827244775,-0.7428326351043827,-0.3890256405198917,-0.7351709008216858,0.5426400899887085,-0.4062825441360474,0,0,0,-1,-1,62853.41249675,unknown,2,2025-04-18T11:02:47.583+03:00,2025-04-17T15:44:39.500+03:00,7191,1.094987,0,0,5932.107,4,10,2025-04-18T11:02:11.472+03:00,766656172.849466,0,107.08,100.5709,1,0.65,2025-04-18T11:02:44.169+03:00,93,1.55,2025-04-18T08:51:18.885+03:00,0.03057091307199995,1
2025-04-18T11:02:54.340+03:00,1744963372.750369,40.95361464921299,29.14100394799852,93.71502,-1,-1,-1,-1,30,27.41004683147841,-9999,62860.16440837501,-0.6540069580078125,0.5311279296875,-0.3922271728515625,62860.154332375,1.832584427868335,-1.065473534557841,-0.5734918592687971,0.02822122536599636,-0.08622995764017105,-0.01328530628234148,0.006738722324371338,-0.006618857383728027,-0.006704121828079224,XArbitraryZVertical,-0.238166160486739,0.4898533686990636,-0.7429520811719901,-0.3890279931277551,-0.7350254058837891,0.542568564414978,-0.4066411256790161,0,0,0,-1,-1,62853.41249675,unknown,2,2025-04-18T11:02:47.583+03:00,2025-04-17T15:44:39.500+03:00,7191,1.094987,0,0,5932.107,4,10,2025-04-18T11:02:11.472+03:00,766656172.849466,0,107.08,100.5709,1,0.65,2025-04-18T11:02:44.169+03:00,93,1.55,2025-04-18T08:51:18.885+03:00,0.03057091307199995,1
2025-04-18T11:02:54.350+03:00,1744963372.750369,40.95361464921299,29.14100394799852,93.71502,-1,-1,-1,-1,30,27.41004683147841,-9999,62860.17448437501,-0.7112579345703125,0.5411834716796875,-0.40032958984375,62860.16440837501,1.832721221825282,-1.066539624721275,-0.5732368652615615,0.01358768995851278,-0.1096386089920998,-0.009760346263647079,0.08175575733184814,-0.0139119029045105,0.01156079769134521,XArbitraryZVertical,-0.2386743058063681,0.4899719519906653,-0.7428384088205722,-0.3887842737920267,-0.7355796694755554,0.5423543453216553,-0.4059241116046906,0,0,0,-1,-1,62853.41249675,unknown,2,2025-04-18T11:02:47.583+03:00,2025-04-17T15:44:39.500+03:00,7191,1.094987,0,0,5932.107,4,10,2025-04-18T11:02:11.472+03:00,766656172.849466,0,107.08,100.5709,1,0.65,2025-04-18T11:02:44.169+03:00,93,1.55,2025-04-18T08:51:18.885+03:00,0.03057091307199995,1
2025-04-18T11:02:54.360+03:00,1744963372.750369,40.95361464921299,29.14100394799852,93.71502,-1,-1,-1,-1,30,27.41004683147841,-9999,62860.184559375,-0.773590087890625,0.5308380126953125,-0.4171142578125,62860.17448437501,1.832774006883576,-1.066998574022592,-0.5730699752316758,0.002962742000818253,0.0246126726269722,0.009244237095117569,0.03465795516967773,-0.0002830028533935547,0.008352398872375488,XArbitraryZVertical,-0.2389091911244183,0.4900074724654275,-0.7427851952225502,-0.3886967982437853,-0.7358450889587402,0.5422140955924988,-0.4056301414966583,0,0,0,-1,-1,62853.41249675,unknown,2,2025-04-18T11:02:47.583+03:00,2025-04-17T15:44:39.500+03:00,7191,1.094987,0,0,5932.107,4,10,2025-04-18T11:02:11.472+03:00,766656172.849466,0,107.08,100.5709,1,0.65,2025-04-18T11:02:44.169+03:00,93,1.55,2025-04-18T08:51:18.885+03:00,0.03057091307199995,1
2025-04-18T11:02:54.370+03:00,1744963372.750369,40.95361464921299,29.14100394799852,93.71502,-1,-1,-1,-1,30,27.41004683147841,-9999,62860.194635375,-0.7662200927734375,0.5155181884765625,-0.41326904296875,62860.184559375,1.832813716467888,-1.06622837458986,-0.5731814565898664,-0.01518676802515984,0.1018541380763054,0.01741837710142136,-0.03331923484802246,-0.009501397609710693,-0.009909003973007202,XArbitraryZVertical,-0.2385984459393457,0.4898846723970632,-0.742890656381874,-0.3888409798539051,-0.7354795932769775,0.5423077940940857,-0.4061675667762756,0,0,0,-1,-1,62853.41249675,unknown,2,2025-04-18T11:02:47.583+03:00,2025-04-17T15:44:39.500+03:00,7191,1.094987,0,0,5932.107,4,10,2025-04-18T11:02:11.472+03:00,766656172.849466,0,107.08,100.5709,1,0.65,2025-04-18T11:02:44.169+03:00,93,1.55,2025-04-18T08:51:18.885+03:00,0.03057091307199995,1
2025-04-18T11:02:54.380+03:00,1744963372.750369,40.95361464921299,29.14100394799852,93.71502,-1,-1,-1,-1,30,27.41004683147841,-9999,62860.204711375,-0.723114013671875,0.512481689453125,-0.401824951171875,62860.194635375,1.832619642187882,-1.065460998470277,-0.5734457267600477,-0.04360562562942505,0.0510663166642189,0.01622714474797249,-0.03470265865325928,-0.02534842491149902,-0.007033735513687134,XArbitraryZVertical,-0.2381843705547418,0.4898336335923431,-0.7429580337436169,-0.3890302834258067,-0.7350422143936157,0.542529821395874,-0.4066624343395233,0,0,0,-1,-1,62853.41249675,unknown,2,2025-04-18T11:02:47.583+03:00,2025-04-17T15:44:39.500+03:00,7191,1.094987,0,0,5932.107,4,10,2025-04-18T11:02:11.472+03:00,766656172.849466,0,107.08,100.5709,1,0.65,2025-04-18T11:02:44.169+03:00,93,1.55,2025-04-18T08:51:18.885+03:00,0.03057091307199995,1
2025-04-18T11:02:54.390+03:00,1744963372.750369,40.95361464921299,29.14100394799852,93.71502,-1,-1,-1,-1,30,27.41004683147841,-9999,62860.21478637501,-0.7035369873046875,0.518341064453125,-0.397247314453125,62860.204711375,1.832139359109357,-1.065620478655223,-0.5737105022258913,-0.05782670527696609,-0.01993015967309475,0.00782364048063755,0.007182896137237549,-0.03030103445053101,0.00326228141784668,XArbitraryZVertical,-0.2380442227035787,0.4899970281518725,-0.742859329554707,-0.3890989734961178,-0.7349814176559448,0.542752206325531,-0.4064757227897644,0,0,0,-1,-1,62853.41249675,unknown,2,2025-04-18T11:02:47.583+03:00,2025-04-17T15:44:39.500+03:00,7191,1.094987,0,0,5932.107,4,10,2025-04-18T11:02:11.472+03:00,766656172.849466,0,107.08,100.5709,1,0.65,2025-04-18T11:02:44.169+03:00,93,1.55,2025-04-18T08:51:18.885+03:00,0.03057091307199995,1
2025-04-18T11:02:54.400+03:00,1744963372.750369,40.95361464921299,29.14100394799852,93.71502,-1,-1,-1,-1,30,27.41004683147841,-9999,62860.22486237501,-0.7213897705078125,0.53240966796875,-0.402069091796875,62860.21478637501,1.831496065473437,-1.066233635844208,-0.5740119404635105,-0.06593070924282074,-0.0215229969471693,0.002260297304019332,0.03177911043167114,-0.02550351619720459,0.008896946907043457,XArbitraryZVertical,-0.2380212818382036,0.4902784306877151,-0.7426767854960061,-0.3891069381971702,-0.7350872159004211,0.5430053472518921,-0.4059458673000336,0,0,0,-1,-1,62853.41249675,unknown,2,2025-04-18T11:02:47.583+03:00,2025-04-17T15:44:39.500+03:00,7191,1.094987,0,0,5932.107,4,10,2025-04-18T11:02:11.472+03:00,766656172.849466,0,107.08,100.5709,1,0.65,2025-04-18T11:02:44.169+03:00,93,1.55,2025-04-18T08:51:18.885+03:00,0.03057091307199995,1
2025-04-18T11:02:54.410+03:00,1744963372.750369,40.95361464921299,29.14100394799852,93.71502,-1,-1,-1,-1,30,27.41004683147841,-9999,62860.234938375,-0.738983154296875,0.5412750244140625,-0.4053955078125,62860.22486237501,1.83083342110034,-1.066714022630679,-0.5743381035328596,-0.05797404423356056,0.01035710610449314,0.002718327799811959,0.01701784133911133,-0.01230388879776001,0.003712743520736694,XArbitraryZVertical,-0.2379365214757886,0.4905432416628537,-0.7425075821135771,-0.389147782473237,-0.7351269721984863,0.543279230594635,-0.4055070877075195,0,0,0,-1,-1,62853.41249675,unknown,2,2025-04-18T11:02:47.583+03:00,2025-04-17T15:44:39.500+03:00,7191,1.094987,0,0,5932.107,4,10,2025-04-18T11:02:11.472+03:00,766656172.849466,0,107.08,100.5709,1,0.65,2025-04-18T11:02:44.169+03:00,93,1.55,2025-04-18T08:51:18.885+03:00,0.03057091307199995,1
2025-04-18T11:02:54.420+03:00,1744963372.750369,40.95361464921299,29.14100394799852,93.71502,-1,-1,-1,-1,30,27.41004683147841,-9999,62860.245013375,-0.735748291015625,0.5445556640625,-0.4039306640625,62860.234938375,1.830291543714656,-1.066819973661626,-0.5746119321801866,-0.0527486577630043,0.0195735078305006,0.0006205558311194181,-0.002615988254547119,-0.002676606178283691,0.0005264580249786377,XArbitraryZVertical,-0.2377583686208882,0.4907059108462108,-0.7424037515516049,-0.3892496678464312,-0.7350396513938904,0.5435090661048889,-0.4053573310375214,0,0,0,-1,-1,62853.41249675,unknown,2,2025-04-18T11:02:47.583+03:00,2025-04-17T15:44:39.500+03:00,7191,1.094987,0,0,5932.107,4,10,2025-04-18T11:02:11.472+03:00,766656172.849466,0,107.08,100.5709,1,0.65,2025-04-18T11:02:44.169+03:00,93,1.55,2025-04-18T08:51:18.885+03:00,0.03057091307199995,1
2025-04-18T11:02:54.430+03:00,1744963372.750369,40.95361464921299,29.14100394799852,93.71502,-1,-1,-1,-1,30,27.41004683147841,-9999,62860.255089375,-0.7263946533203125,0.5444488525390625,-0.4033203125,62860.245013375,1.829825548337858,-1.066888683605403,-0.5749450139874477,-0.05005853250622749,0.002602579770609736,-0.003617032896727324,-0.001861691474914551,8.034706115722656e-05,0.001288861036300659,XArbitraryZVertical,-0.2375666159656074,0.4908690197379706,-0.7423222033514413,-0.3893166929258798,-0.7349089384078979,0.5437886714935303,-0.4052194058895111,0,0,0,-1,-1,62853.41249675,unknown,2,2025-04-18T11:02:47.583+03:00,2025-04-17T15:44:39.500+03:00,7191,1.094987,0,0,5932.107,4,10,2025-04-18T11:02:11.472+03:00,766656172.849466,0,107.08,100.5709,1,0.65,2025-04-18T11:02:44.169+03:00,93,1.55,2025-04-18T08:51:18.885+03:00,0.03057091307199995,1
2025-04-18T11:02:54.440+03:00,1744963372.750369,40.95361464921299,29.14100394799852,93.71502,-1,-1,-1,-1,30,27.41004683147841,-9999,62860.26516537501,-0.729522705078125,0.5353851318359375,-0.4048309326171875,62860.255089375,1.829238950034326,-1.067209640332389,-0.5752154852849271,-0.06046456471085548,-0.006409024819731712,-0.004891887772828341,0.007844090461730957,0.0007231235504150391,0.002263695001602173,XArbitraryZVertical,-0.2374581642362857,0.4910777483949242,-0.7421839539952956,-0.3893831972297248,-0.7349101305007935,0.5440155863761902,-0.404912531375885,0,0,0,-1,-1,62853.41249675,unknown,2,2025-04-18T11:02:47.583+03:00,2025-04-17T15:44:39.500+03:00,7191,1.094987,0,0,5932.107,4,10,2025-04-18T11:02:11.472+03:00,766656172.849466,0,107.08,100.5709,1,0.65,2025-04-18T11:02:44.169+03:00,93,1.55,2025-04-18T08:51:18.885+03:00,0.03057091307199995,1
2025-04-18T11:02:54.450+03:00,1744963372.750369,40.95361464921299,29.14100394799852,93.71502,-1,-1,-1,-1,30,27.41004683147841,-9999,62860.27524037501,-0.7364501953125,0.5243072509765625,-0.40386962890625,62860.26516537501,1.828438611010926,-1.067718071920513,-0.575412637277419,-0.08494434505701065,-0.001938109751790762,-0.009179577231407166,0.006140053272247314,-0.007559895515441895,-0.0002064108848571777,XArbitraryZVertical,-0.237389288563504,0.4913275463864056,-0.7419780452850367,-0.3895025753742336,-0.7350219488143921,0.5441810488700867,-0.404487133026123,0,0,0,-1,-1,62853.41249675,unknown,2,2025-04-18T11:02:47.583+03:00,2025-04-17T15:44:39.500+03:00,7191,1.094987,0,0,5932.107,4,10,2025-04-18T11:02:11.472+03:00,766656172.849466,0,107.08,100.5709,1,0.65,2025-04-18T11:02:44.169+03:00,93,1.55,2025-04-18T08:51:18.885+03:00,0.03057091307199995,1
2025-04-18T11:02:54.460+03:00,1744963372.750369,40.95361464921299,29.14100394799852,93.71502,-1,-1,-1,-1,30,27.41004683147841,-9999,62860.285316375,-0.7391815185546875,0.5159912109375,-0.403656005859375,62860.27524037501,1.827293287010228,-1.06831650678227,-0.5757337573005918,-0.1255415678024292,0.00852864608168602,-0.003696128726005554,-0.0005766153335571289,-0.01957863569259644,-0.0002117455005645752,XArbitraryZVertical,-0.2372305368929949,0.4916708014997055,-0.741700695060414,-0.3896942298015617,-0.7351106405258179,0.5444504022598267,-0.4039629995822906,0,0,0,-1,-1,62853.41249675,unknown,2,2025-04-18T11:02:47.583+03:00,2025-04-17T15:44:39.500+03:00,7191,1.094987,0,0,5932.107,4,10,2025-04-18T11:02:11.472+03:00,766656172.849466,0,107.08,100.5709,1,0.65,2025-04-18T11:02:44.169+03:00,93,1.55,2025-04-18T08:51:18.885+03:00,0.03057091307199995,1
2025-04-18T11:02:54.471+03:00,1744963372.750369,40.95361464921299,29.14100394799852,93.71502,-1,-1,-1,-1,30,27.41004683147841,-9999,62860.295392375,-0.7404022216796875,0.50762939453125,-0.4027862548828125,62860.285316375,1.825722012947764,-1.069100809954878,-0.5763660594423421,-0.1703630387783051,0.006789934821426868,0.0007581746322102845,-0.004163086414337158,-0.02811968326568604,9.876489639282227e-05,XArbitraryZVertical,-0.2369392032716364,0.4921884520367221,-0.7413346604562989,-0.3899144715716356,-0.7351253032684326,0.5449806451797485,-0.4032206833362579,0,0,0,-1,-1,62853.41249675,unknown,2,2025-04-18T11:02:47.583+03:00,2025-04-17T15:44:39.500+03:00,7191,1.094987,0,0,5932.107,4,10,2025-04-18T11:02:11.472+03:00,766656172.849466,0,107.08,100.5709,1,0.65,2025-04-18T11:02:44.169+03:00,93,1.55,2025-04-18T08:51:18.885+03:00,0.03057091307199995,1
2025-04-18T11:02:54.481+03:00,1744963372.750369,40.95361464921299,29.14100394799852,93.71502,-1,-1,-1,-1,30,27.41004683147841,-9999,62860.305467375,-0.741485595703125,0.5137176513671875,-0.4046478271484375,62860.295392375,1.823693627012366,-1.070071035708825,-0.5772905639171594,-0.2165899276733398,0.01566625013947487,0.002500680973753333,-0.004565417766571045,-0.03756159543991089,-0.0008108615875244141,XArbitraryZVertical,-0.2365128559964919,0.4928783260331577,-0.7408729934489905,-0.3901794152045771,-0.7350739240646362,0.5457555651664734,-0.4022652506828308,0,0,0,-1,-1,62853.41249675,unknown,2,2025-04-18T11:02:47.583+03:00,2025-04-17T15:44:39.500+03:00,7191,1.094987,0,0,5932.107,4,10,2025-04-18T11:02:11.472+03:00,766656172.849466,0,107.08,100.5709,1,0.65,2025-04-18T11:02:44.169+03:00,93,1.55,2025-04-18T08:51:18.885+03:00,0.03057091307199995,1
2025-04-18T11:02:54.491+03:00,1744963372.750369,40.95361464921299,29.14100394799852,93.71502,-1,-1,-1,-1,30,27.41004683147841,-9999,62860.31554337501,-0.7418365478515625,0.5227508544921875,-0.404327392578125,62860.305467375,1.821255811635287,-1.071179901952871,-0.5784831786690928,-0.2476005107164383,0.02386858686804771,0.008985644206404686,-0.006827890872955322,-0.03489840030670166,-0.003250598907470703,XArbitraryZVertical,-0.2359524073832518,0.4937180899356782,-0.7403294311560009,-0.3904887535037772,-0.7349477410316467,0.5467545390129089,-0.4011378288269043,0,0,0,-1,-1,62853.41249675,unknown,2,2025-04-18T11:02:47.583+03:00,2025-04-17T15:44:39.500+03:00,7191,1.094987,0,0,5932.107,4,10,2025-04-18T11:02:11.472+03:00,766656172.849466,0,107.08,100.5709,1,0.65,2025-04-18T11:02:44.169+03:00,93,1.55,2025-04-18T08:51:18.885+03:00,0.03057091307199995,1
2025-04-18T11:02:54.501+03:00,1744963372.750369,40.95361464921299,29.14100394799852,93.71502,-1,-1,-1,-1,30,27.41004683147841,-9999,62860.32561937501,-0.746246337890625,0.532684326171875,-0.3906097412109375,62860.31554337501,1.818825768676774,-1.072178659139966,-0.5796249952733293,-0.2250214219093323,0.04035115614533424,0.007588283624500036,-0.00657963752746582,-0.02563071250915527,-0.005901098251342773,XArbitraryZVertical,-0.2353672105605712,0.4945198713092217,-0.7397978607574155,-0.3908345273266574,-0.7347992062568665,0.5477102398872375,-0.4001047313213348,0,0,0,-1,-1,62853.41249675,unknown,2,2025-04-18T11:02:47.583+03:00,2025-04-17T15:44:39.500+03:00,7191,1.094987,0,0,5932.107,4,10,2025-04-18T11:02:11.472+03:00,766656172.849466,0,107.08,100.5709,1,0.65,2025-04-18T11:02:44.169+03:00,93,1.55,2025-04-18T08:51:18.885+03:00,0.03057091307199995,1
2025-04-18T11:02:54.511+03:00,1744963372.750369,40.95361464921299,29.14100394799852,93.71502,-1,-1,-1,-1,30,27.41004683147841,-9999,62860.335694375,-0.740478515625,0.556793212890625,-0.3935546875,62860.32561937501,1.816556465315653,-1.072911048714427,-0.5807399652812932,-0.2170559167861938,0.05611227452754974,0.01540865655988455,-0.0111878514289856,-0.01864391565322876,0.007581472396850586,XArbitraryZVertical,-0.2347300271080412,0.4952418939256754,-0.7393277410335916,-0.3911928176480105,-0.7345550060272217,0.5486427545547485,-0.3992745578289032,0,0,0,-1,-1,62853.41249675,unknown,2,2025-04-18T11:02:47.583+03:00,2025-04-17T15:44:39.500+03:00,7191,1.094987,0,0,5932.107,4,10,2025-04-18T11:02:11.472+03:00,766656172.849466,0,107.08,100.5709,1,0.65,2025-04-18T11:02:44.169+03:00,93,1.55,2025-04-18T08:51:18.885+03:00,0.03057091307199995,1
2025-04-18T11:02:54.521+03:00,1744963372.750369,40.95361464921299,29.14100394799852,93.71502,-1,-1,-1,-1,30,27.41004683147841,-9999,62860.345770375,-0.7351837158203125,0.5604705810546875,-0.4022216796875,62860.335694375,1.814448321848768,-1.073389731692501,-0.5818491639277081,-0.2009730786085129,0.07029867172241211,0.008131035603582859,-0.007030665874481201,0.00429379940032959,0.006038963794708252,XArbitraryZVertical,-0.2340394194638583,0.4958925243983229,-0.7389186559453708,-0.3915552349090494,-0.7342107892036438,0.5495697259902954,-0.3986323177814484,0,0,0,-1,-1,62853.41249675,unknown,2,2025-04-18T11:02:47.583+03:00,2025-04-17T15:44:39.500+03:00,7191,1.094987,0,0,5932.107,4,10,2025-04-18T11:02:11.472+03:00,766656172.849466,0,107.08,100.5709,1,0.65,2025-04-18T11:02:44.169+03:00,93,1.55,2025-04-18T08:51:18.885+03:00,0.03057091307199995,1
2025-04-18T11:02:54.531+03:00,1744963372.750369,40.95361464921299,29.14100394799852,93.71502,-1,-1,-1,-1,30,27.41004683147841,-9999,62860.355846375,-0.7321929931640625,0.5511322021484375,-0.4056549072265625,62860.345770375,1.812406611716374,-1.073694469951912,-0.5827936316971115,-0.2028551399707794,0.07720185071229935,0.006954318843781948,-0.001918375492095947,0.01035618782043457,-0.003923475742340088,XArbitraryZVertical,-0.2333512595883052,0.4964541876775082,-0.7385339503747405,-0.3919798446788714,-0.7338757514953613,0.5503585934638977,-0.398160845041275,0,0,0,-1,-1,62853.41249675,unknown,2,2025-04-18T11:02:47.583+03:00,2025-04-17T15:44:39.500+03:00,7191,1.094987,0,0,5932.107,4,10,2025-04-18T11:02:11.472+03:00,766656172.849466,0,107.08,100.5709,1,0.65,2025-04-18T11:02:44.169+03:00,93,1.55,2025-04-18T08:51:18.885+03:00,0.03057091307199995,1
2025-04-18T11:02:54.541+03:00,1744963372.750369,40.95361464921299,29.14100394799852,93.71502,-1,-1,-1,-1,30,27.41004683147841,-9999,62860.36592137501,-0.7286529541015625,0.53973388671875,-0.411224365234375,62860.355846375,1.810211875079923,-1.07410402044053,-0.5836349771639476,-0.2211252152919769,0.07417649775743484,0.001492707757279277,0.001621484756469727,0.001658320426940918,-0.00722193717956543,XArbitraryZVertical,-0.2326949841971195,0.4970244470196329,-0.738101258320918,-0.3924620634999197,-0.7336313724517822,0.5510608553886414,-0.3976394832134247,0,0,0,-1,-1,62853.41249675,unknown,2,2025-04-18T11:02:47.583+03:00,2025-04-17T15:44:39.500+03:00,7191,1.094987,0,0,5932.107,4,10,2025-04-18T11:02:11.472+03:00,766656172.849466,0,107.08,100.5709,1,0.65,2025-04-18T11:02:44.169+03:00,93,1.55,2025-04-18T08:51:18.885+03:00,0.03057091307199995,1
2025-04-18T11:02:54.551+03:00,1744963372.750369,40.95361464921299,29.14100394799852,93.71502,-1,-1,-1,-1,30,27.41004683147841,-9999,62860.37599737501,-0.72802734375,0.5260772705078125,-0.4152374267578125,62860.36592137501,1.807799206275037,-1.074685874470765,-0.584435445303364,-0.2381051927804947,0.06809896975755692,-0.004391246940940619,0.004684031009674072,-0.01008743047714233,-0.01347425580024719,XArbitraryZVertical,-0.2320598870144707,0.4976414555617371,-0.737603255117779,-0.3929918674698497,-0.7334743738174438,0.5517286062240601,-0.3970023691654205,0,0,0,-1,-1,62853.41249675,unknown,2,2025-04-18T11:02:47.583+03:00,2025-04-17T15:44:39.500+03:00,7191,1.094987,0,0,5932.107,4,10,2025-04-18T11:02:11.472+03:00,766656172.849466,0,107.08,100.5709,1,0.65,2025-04-18T11:02:44.169+03:00,93,1.55,2025-04-18T08:51:18.885+03:00,0.03057091307199995,1
2025-04-18T11:02:54.563+03:00,1744963372.750369,40.95361464921299,29.14100394799852,93.71502,-1,-1,-1,-1,30,27.41004683147841,-9999,62860.386073375,-0.7264404296875,0.52105712890625,-0.409027099609375,62860.37599737501,1.804971631999694,-1.075553857986352,-0.5853881483646097,-0.3058211505413055,0.0668715164065361,0.01336564496159554,0.005984663963317871,-0.02458405494689941,-0.01933532953262329,XArbitraryZVertical,-0.2313779359168148,0.4984038771755246,-0.7369986694610953,-0.3935618217781431,-0.7333559393882751,0.5525229573249817,-0.3961156606674194,0,0,0,-1,-1,62853.41249675,unknown,2,2025-04-18T11:02:47.583+03:00,2025-04-17T15:44:39.500+03:00,7191,1.094987,0,0,5932.107,4,10,2025-04-18T11:02:11.472+03:00,766656172.849466,0,107.08,100.5709,1,0.65,2025-04-18T11:02:44.169+03:00,93,1.55,2025-04-18T08:51:18.885+03:00,0.03057091307199995,1
2025-04-18T11:02:54.580+03:00,1744963372.750369,40.95361464921299,29.14100394799852,93.71502,-1,-1,-1,-1,30,27.41004683147841,-9999,62860.396148375,-0.726287841796875,0.5079498291015625,-0.402313232421875,62860.386073375,1.801461016240324,-1.076817587410311,-0.5867897864425576,-0.3713242411613464,0.06181097775697708,0.01024881470948458,0.006564974784851074,-0.03289294242858887,-0.01528942584991455,XArbitraryZVertical,-0.230528876482922,0.499445650751997,-0.736238330046726,-0.39416190025283,-0.7331733107566833,0.5536906719207764,-0.3948209583759308,0,0,0,-1,-1,62853.41249675,unknown,2,2025-04-18T11:02:47.583+03:00,2025-04-17T15:44:39.500+03:00,7191,1.094987,0,0,5932.107,4,10,2025-04-18T11:02:11.472+03:00,766656172.849466,0,107.08,100.5709,1,0.65,2025-04-18T11:02:44.169+03:00,93,1.55,2025-04-18T08:51:18.885+03:00,0.03057091307199995,1
2025-04-18T11:02:54.590+03:00,1744963372.750369,40.95361464921299,29.14100394799852,93.71502,-1,-1,-1,-1,30,27.41004683147841,-9999,62860.406224375,-0.730865478515625,0.4945220947265625,-0.4188385009765625,62860.396148375,1.797217714750947,-1.078499291997216,-0.5884500677047554,-0.4437792599201202,0.06295773386955261,0.002132299123331904,0.008064746856689453,-0.04448288679122925,-0.008809834718704224,XArbitraryZVertical,-0.2295658593098201,0.5007228178558341,-0.7352998208103083,-0.3948547568675733,-0.7330250144004822,0.5550724267959595,-0.3931523561477661,0,0,0,-1,-1,62853.41249675,unknown,2,2025-04-18T11:02:47.583+03:00,2025-04-17T15:44:39.500+03:00,7191,1.094987,0,0,5932.107,4,10,2025-04-18T11:02:11.472+03:00,766656172.849466,0,107.08,100.5709,1,0.65,2025-04-18T11:02:44.169+03:00,93,1.55,2025-04-18T08:51:18.885+03:00,0.03057091307199995,1
2025-04-18T11:02:54.592+03:00,1744963372.750369,40.95361464921299,29.14100394799852,93.71502,-1,-1,-1,-1,30,27.41004683147841,-9999,62860.41630037501,-0.73382568359375,0.502166748046875,-0.424713134765625,62860.406224375,1.792008099008588,-1.080705591562862,-0.590549635294944,-0.5314903259277344,0.08733324706554413,0.006267056334763765,0.001980185508728027,-0.06200557947158813,-0.02541226148605347,XArbitraryZVertical,-0.2284099338205526,0.5023310801333746,-0.7341352440318333,-0.395648831897979,-0.7328609824180603,0.5568176507949829,-0.3909847736358643,0,0,0,-1,-1,62853.41249675,unknown,2,2025-04-18T11:02:47.583+03:00,2025-04-17T15:44:39.500+03:00,7191,1.094987,0,0,5932.107,4,10,2025-04-18T11:02:11.472+03:00,766656172.849466,0,107.08,100.5709,1,0.65,2025-04-18T11:02:44.169+03:00,93,1.55,2025-04-18T08:51:18.885+03:00,0.03057091307199995,1
2025-04-18T11:02:54.601+03:00,1744963372.750369,40.95361464921299,29.14100394799852,93.71502,-1,-1,-1,-1,30,27.41004683147841,-9999,62860.42637537501,-0.7392425537109375,0.5106048583984375,-0.4221038818359375,62860.41630037501,1.785831406645045,-1.083093967827854,-0.5933609341577697,-0.6327458620071411,0.123661957681179,0.0195264033973217,-0.0008847713470458984,-0.0582350492477417,-0.03684043884277344,XArbitraryZVertical,-0.226845402704772,0.5042737886583223,-0.7327993885223734,-0.3965529685238164,-0.7324068546295166,0.5591506361961365,-0.3884982168674469,0,0,0,-1,-1,62853.41249675,unknown,2,2025-04-18T11:02:47.583+03:00,2025-04-17T15:44:39.500+03:00,7191,1.094987,0,0,5932.107,4,10,2025-04-18T11:02:11.472+03:00,766656172.849466,0,107.08,100.5709,1,0.65,2025-04-18T11:02:44.169+03:00,93,1.55,2025-04-18T08:51:18.885+03:00,0.03057091307199995,1
2025-04-18T11:02:54.611+03:00,1744963372.750369,40.95361464921299,29.14100394799852,93.71502,-1,-1,-1,-1,30,27.41004683147841,-9999,62860.4364495,-0.7425994873046875,0.517242431640625,-0.4226837158203125,62860.42637537501,1.778446951844671,-1.085801879085223,-0.5968086422815437,-0.7542205452919006,0.15699203312397,0.01950433291494846,-0.007130026817321777,-0.05182802677154541,-0.03623199462890625,XArbitraryZVertical,-0.2248801525167412,0.5065793941390633,-0.7312253330591025,-0.3976378286180285,-0.7317463755607605,0.5620056390762329,-0.3856124579906464,0,0,0,-1,-1,62853.41249675,unknown,2,2025-04-18T11:02:47.583+03:00,2025-04-17T15:44:39.500+03:00,7191,1.094987,0,0,5932.107,4,10,2025-04-18T11:02:11.472+03:00,766656172.849466,0,107.08,100.5709,1,0.65,2025-04-18T11:02:44.169+03:00,93,1.55,2025-04-18T08:51:18.885+03:00,0.03057091307199995,1
2025-04-18T11:02:54.622+03:00,1744963372.750369,40.95361464921299,29.14100394799852,93.71502,-1,-1,-1,-1,30,27.41004683147841,-9999,62860.4465255,-0.744140625,0.5273590087890625,-0.43670654296875,62860.4364495,1.77011324308669,-1.088825081887994,-0.6007270461764572,-0.8089775443077087,0.1749377399682999,0.03520872443914413,-0.01152557134628296,-0.04885441064834595,-0.03989690542221069,XArbitraryZVertical,-0.2226242275746153,0.5091670328549104,-0.7294559252472391,-0.3988502034044002,-0.7309518456459045,0.5652424097061157,-0.3823747634887695,0,0,0,-1,-1,62853.41249675,unknown,2,2025-04-18T11:02:47.583+03:00,2025-04-17T15:44:39.500+03:00,7191,1.094987,0,0,5932.107,4,10,2025-04-18T11:02:11.472+03:00,766656172.849466,0,107.08,100.5709,1,0.65,2025-04-18T11:02:44.169+03:00,93,1.55,2025-04-18T08:51:18.885+03:00,0.03057091307199995,1
2025-04-18T11:02:54.632+03:00,1744963372.750369,40.95361464921299,29.14100394799852,93.71502,-1,-1,-1,-1,30,27.41004683147841,-9999,62860.4566005,-0.742279052734375,0.5388946533203125,-0.4552154541015625,62860.4465255,1.76143503726078,-1.091852324032097,-0.6048867883333177,-0.8446735739707947,0.1996816247701645,0.03923898562788963,-0.01336467266082764,-0.04279005527496338,-0.05459657311439514,XArbitraryZVertical,-0.2201862640234097,0.5118411032083682,-0.7276334612672222,-0.4001077726016682,-0.7300130128860474,0.5686689615249634,-0.3790733814239502,0,0,0,-1,-1,62853.41249675,unknown,2,2025-04-18T11:02:47.583+03:00,2025-04-17T15:44:39.500+03:00,7191,1.094987,0,0,5932.107,4,10,2025-04-18T11:02:11.472+03:00,766656172.849466,0,107.08,100.5709,1,0.65,2025-04-18T11:02:44.169+03:00,93,1.55,2025-04-18T08:51:18.885+03:00,0.03057091307199995,1
2025-04-18T11:02:54.642+03:00,1744963372.750369,40.95361464921299,29.14100394799852,93.71502,-1,-1,-1,-1,30,27.41004683147841,-9999,62860.4666765,-0.735504150390625,0.547393798828125,-0.45458984375,62860.4566005,1.75236522460033,-1.095037003824212,-0.6092046294606704,-0.8509365320205688,0.1887378990650177,0.04067389667034149,-0.01348096132278442,-0.03460246324539185,-0.07894077897071838,XArbitraryZVertical,-0.2176342941467138,0.5146125495763212,-0.7257269006031004,-0.4014095913395906,-0.7290269732475281,0.5722153782844543,-0.3756184875965118,0,0,0,-1,-1,62853.41249675,unknown,2,2025-04-18T11:02:47.583+03:00,2025-04-17T15:44:39.500+03:00,7191,1.094987,0,0,5932.107,4,10,2025-04-18T11:02:11.472+03:00,766656172.849466,0,107.08,100.5709,1,0.65,2025-04-18T11:02:44.169+03:00,93,1.55,2025-04-18T08:51:18.885+03:00,0.03057091307199995,1
2025-04-18T11:02:54.652+03:00,1744963372.750369,40.95361464921299,29.14100394799852,93.71502,-1,-1,-1,-1,30,27.41004683147841,-9999,62860.47675250001,-0.7278289794921875,0.5570220947265625,-0.457916259765625,62860.4666765,1.743647641342264,-1.098333176070789,-0.6134283477981178,-0.7850726246833801,0.1430243998765945,0.05887870118021965,-0.007752597332000732,-0.02872276306152344,-0.08289149403572083,XArbitraryZVertical,-0.215222699218085,0.5173239152720073,-0.7238758856786026,-0.4025655492478468,-0.7281026244163513,0.5756741166114807,-0.3721103072166443,0,0,0,-1,-1,62853.41249675,unknown,2,2025-04-18T11:02:47.583+03:00,2025-04-17T15:44:39.500+03:00,7191,1.094987,0,0,5932.107,4,10,2025-04-18T11:02:11.472+03:00,766656172.849466,0,107.08,100.5709,1,0.65,2025-04-18T11:02:44.169+03:00,93,1.55,2025-04-18T08:51:18.885+03:00,0.03057091307199995,1
2025-04-18T11:02:54.662+03:00,1744963372.750369,40.95361464921299,29.14100394799852,93.71502,-1,-1,-1,-1,30,27.41004683147841,-9999,62860.4868275,-0.7268524169921875,0.571868896484375,-0.45465087890625,62860.47675250001,1.735616995972335,-1.101790543525462,-0.6174105700447158,-0.7458541393280029,0.08656512200832367,0.05261414870619774,-0.0005559921264648438,-0.0243602991104126,-0.08927303552627563,XArbitraryZVertical,-0.2131058612517504,0.5199135205882656,-0.722134227948345,-0.4034824825910944,-0.7273340821266174,0.5789257287979126,-0.368551641702652,0,0,0,-1,-1,62853.41249675,unknown,2,2025-04-18T11:02:47.583+03:00,2025-04-17T15:44:39.500+03:00,7191,1.094987,0,0,5932.107,4,10,2025-04-18T11:02:11.472+03:00,766656172.849466,0,107.08,100.5709,1,0.65,2025-04-18T11:02:44.169+03:00,93,1.55,2025-04-18T08:51:18.885+03:00,0.03057091307199995,1
2025-04-18T11:02:54.672+03:00,1744963372.750369,40.95361464921299,29.14100394799852,93.71502,-1,-1,-1,-1,30,27.41004683147841,-9999,62860.4969035,-0.7317352294921875,0.562652587890625,-0.436614990234375,62860.4868275,1.727402740503327,-1.105910398653009,-0.6215109749354366,-0.8300318717956543,0.03491091728210449,0.07694182544946671,0.0002472400665283203,-0.01190590858459473,-0.09143263101577759,XArbitraryZVertical,-0.2111234146301303,0.5226705941050932,-0.7202968099150262,-0.4042462004661804,-0.7267182469367981,0.582264244556427,-0.3644846975803375,0,0,0,-1,-1,62853.41249675,unknown,2,2025-04-18T11:02:47.583+03:00,2025-04-17T15:44:39.500+03:00,7191,1.094987,0,0,5932.107,4,10,2025-04-18T11:02:11.472+03:00,766656172.849466,0,107.08,100.5709,1,0.65,2025-04-18T11:02:44.169+03:00,93,1.55,2025-04-18T08:51:18.885+03:00,0.03057091307199995,1
2025-04-18T11:02:54.682+03:00,1744963372.750369,40.95361464921299,29.14100394799852,93.71502,-1,-1,-1,-1,30,27.41004683147841,-9999,62860.5069795,-0.735107421875,0.5286407470703125,-0.419464111328125,62860.4969035,1.717405861782006,-1.111570522350503,-0.6262091887142983,-1.03231143951416,0.01207271404564381,0.04115293547511101,-0.004693508148193359,-0.02054095268249512,-0.08067026734352112,XArbitraryZVertical,-0.2090112701244706,0.5260606388844588,-0.717981402921728,-0.4050644220008088,-0.7263092994689941,0.5860774517059326,-0.3591489791870117,0,0,0,-1,-1,62853.41249675,unknown,2,2025-04-18T11:02:47.583+03:00,2025-04-17T15:44:39.500+03:00,7191,1.094987,0,0,5932.107,4,10,2025-04-18T11:02:11.472+03:00,766656172.849466,0,107.08,100.5709,1,0.65,2025-04-18T11:02:44.169+03:00,93,1.55,2025-04-18T08:51:18.885+03:00,0.03057091307199995,1
2025-04-18T11:02:54.693+03:00,1744963372.750369,40.95361464921299,29.14100394799852,93.71502,-1,-1,-1,-1,30,27.41004683147841,-9999,62860.51705450001,-0.7300872802734375,0.5135650634765625,-0.4170684814453125,62860.5069795,1.704875293329155,-1.118997861490387,-0.6313784221128911,-1.224796175956726,-0.02592173777520657,-0.001682246336713433,-0.00803142786026001,-0.05668866634368896,-0.06767243146896362,XArbitraryZVertical,-0.2066762485546651,0.5301662985955976,-0.7150092296623641,-0.4061656668442863,-0.7262215614318848,0.590258002281189,-0.3524172604084015,0,0,0,-1,-1,62853.41249675,unknown,2,2025-04-18T11:02:47.583+03:00,2025-04-17T15:44:39.500+03:00,7191,1.094987,0,0,5932.107,4,10,2025-04-18T11:02:11.472+03:00,766656172.849466,0,107.08,100.5709,1,0.65,2025-04-18T11:02:44.169+03:00,93,1.55,2025-04-18T08:51:18.885+03:00,0.03057091307199995,1
2025-04-18T11:02:54.712+03:00,1744963372.750369,40.95361464921299,29.14100394799852,93.71502,-1,-1,-1,-1,30,27.41004683147841,-9999,62860.52713050001,-0.721588134765625,0.548004150390625,-0.4093780517578125,62860.51705450001,1.690404671287608,-1.128145019578458,-0.6369328830964907,-1.313794493675232,-0.08733076602220535,-0.007993938401341438,-0.005157053470611572,-0.08280009031295776,-0.07309985160827637,XArbitraryZVertical,-0.2042633545899572,0.5348845233617661,-0.711505391600349,-0.4073514068414865,-0.7264409065246582,0.5947325229644775,-0.3443500697612762,0,0,0,-1,-1,62853.41249675,unknown,2,2025-04-18T11:02:47.583+03:00,2025-04-17T15:44:39.500+03:00,7191,1.094987,0,0,5932.107,4,10,2025-04-18T11:02:11.472+03:00,766656172.849466,0,107.08,100.5709,1,0.65,2025-04-18T11:02:44.169+03:00,93,1.55,2025-04-18T08:51:18.885+03:00,0.03057091307199995,1
2025-04-18T11:02:54.714+03:00,1744963372.750369,40.95361464921299,29.14100394799852,93.71502,-1,-1,-1,-1,30,27.41004683147841,-9999,62860.5372065,-0.72381591796875,0.58941650390625,-0.4121551513671875,62860.52713050001,1.675406947561911,-1.138219895622705,-0.6424686052745768,-1.290451049804688,-0.134938970208168,-0.008387653157114983,0.003987908363342285,-0.05618965625762939,-0.07468020915985107,XArbitraryZVertical,-0.2019831290911889,0.5398041475909434,-0.7078157343685842,-0.4084253509542506,-0.7268730998039246,0.5991736650466919,-0.3356285989284515,0,0,0,-1,-1,62853.41249675,unknown,2,2025-04-18T11:02:47.583+03:00,2025-04-17T15:44:39.500+03:00,7191,1.094987,0,0,5932.107,4,10,2025-04-18T11:02:11.472+03:00,766656172.849466,0,107.08,100.5709,1,0.65,2025-04-18T11:02:44.169+03:00,93,1.55,2025-04-18T08:51:18.885+03:00,0.03057091307199995,1
2025-04-18T11:02:54.723+03:00,1744963372.750369,40.95361464921299,29.14100394799852,93.71502,-1,-1,-1,-1,30,27.41004683147841,-9999,62860.5472815,-0.730560302734375,0.616455078125,-0.4165191650390625,62860.5372065,1.661212239987796,-1.148205886829677,-0.6475459816398389,-1.187556385993958,-0.1487695574760437,-0.01284178998321295,0.004061460494995117,-0.01788854598999023,-0.08473312854766846,XArbitraryZVertical,-0.1999777729558985,0.5444796862888941,-0.7042841354322104,-0.4093100614525946,-0.7274043560028076,0.6032309532165527,-0.3271015286445618,0,0,0,-1,-1,62853.41249675,unknown,2,2025-04-18T11:02:47.583+03:00,2025-04-17T15:44:39.500+03:00,7191,1.094987,0,0,5932.107,4,10,2025-04-18T11:02:11.472+03:00,766656172.849466,0,107.08,100.5709,1,0.65,2025-04-18T11:02:44.169+03:00,93,1.55,2025-04-18T08:51:18.885+03:00,0.03057091307199995,1
2025-04-18T11:02:54.733+03:00,1744963372.750369,40.95361464921299,29.14100394799852,93.71502,-1,-1,-1,-1,30,27.41004683147841,-9999,62860.5573575,-0.74053955078125,0.626190185546875,-0.4219818115234375,62860.5472815,1.647807490005801,-1.157909007060061,-0.6520027171647367,-1.101439118385315,-0.1605667024850845,-0.03546927124261856,-0.001967310905456543,0.006593286991119385,-0.09781700372695923,XArbitraryZVertical,-0.1982387087660165,0.548842696128379,-0.7009123442740323,-0.4101159679646678,-0.7280742526054382,0.6067795157432556,-0.3189462125301361,0,0,0,-1,-1,62853.41249675,unknown,2,2025-04-18T11:02:47.583+03:00,2025-04-17T15:44:39.500+03:00,7191,1.094987,0,0,5932.107,4,10,2025-04-18T11:02:11.472+03:00,766656172.849466,0,107.08,100.5709,1,0.65,2025-04-18T11:02:44.169+03:00,93,1.55,2025-04-18T08:51:18.885+03:00,0.03057091307199995,1
2025-04-18T11:02:54.743+03:00,1744963372.750369,40.95361464921299,29.14100394799852,93.71502,-1,-1,-1,-1,30,27.41004683147841,-9999,62860.5674335,-0.741058349609375,0.6138916015625,-0.438079833984375,62860.5573575,1.635158602936083,-1.16696908847291,-0.6561021620428081,-1.047233104705811,-0.1232962906360626,-0.01229124888777733,-0.01054108142852783,0.01634037494659424,-0.1090075373649597,XArbitraryZVertical,-0.1965523417351807,0.5528913064075788,-0.6977457582132184,-0.4108884831549239,-0.7286404371261597,0.6100329160690308,-0.3113567531108856,0,0,0,-1,-1,62853.41249675,unknown,2,2025-04-18T11:02:47.583+03:00,2025-04-17T15:44:39.500+03:00,7191,1.094987,0,0,5932.107,4,10,2025-04-18T11:02:11.472+03:00,766656172.849466,0,107.08,100.5709,1,0.65,2025-04-18T11:02:44.169+03:00,93,1.55,2025-04-18T08:51:18.885+03:00,0.03057091307199995,1
2025-04-18T11:02:54.753+03:00,1744963372.750369,40.95361464921299,29.14100394799852,93.71502,-1,-1,-1,-1,30,27.41004683147841,-9999,62860.57750850001,-0.7257843017578125,0.6190185546875,-0.452850341796875,62860.5674335,1.623534009299348,-1.175352393505882,-0.6598843462969362,-0.9221340417861938,-0.1211765483021736,0.002425846178084612,-0.01219671964645386,0.002056360244750977,-0.1320548057556152,XArbitraryZVertical,-0.1949776073272836,0.5566062219489647,-0.6948432409674582,-0.4115412591655854,-0.7290905714035034,0.6130254864692688,-0.30434650182724,0,0,0,-1,-1,62853.41249675,unknown,2,2025-04-18T11:02:47.583+03:00,2025-04-17T15:44:39.500+03:00,7191,1.094987,0,0,5932.107,4,10,2025-04-18T11:02:11.472+03:00,766656172.849466,0,107.08,100.5709,1,0.65,2025-04-18T11:02:44.169+03:00,93,1.55,2025-04-18T08:51:18.885+03:00,0.03057091307199995,1
2025-04-18T11:02:54.763+03:00,1744963372.750369,40.95361464921299,29.14100394799852,93.71502,-1,-1,-1,-1,30,27.41004683147841,-9999,62860.5875845,-0.6817779541015625,0.658447265625,-0.498443603515625,62860.57750850001,1.616110754700684,-1.181232290218592,-0.6634759685879575,-0.5041402578353882,-0.2092467546463013,0.1704611778259277,-0.000361025333404541,-0.0002738237380981445,-0.1504450738430023,XArbitraryZVertical,-0.1937383282299641,0.5593365673754962,-0.6930439964177172,-0.4114585140926377,-0.7288259267807007,0.6158591508865356,-0.2992161214351654,0,0,0,-1,-1,62853.41249675,unknown,2,2025-04-18T11:02:47.583+03:00,2025-04-17T15:44:39.500+03:00,7191,1.094987,0,0,5932.107,4,10,2025-04-18T11:02:11.472+03:00,766656172.849466,0,107.08,100.5709,1,0.65,2025-04-18T11:02:44.169+03:00,93,1.55,2025-04-18T08:51:18.885+03:00,0.03057091307199995,1
2025-04-18T11:02:54.773+03:00,1744963372.750369,40.95361464921299,29.14100394799852,93.71502,-1,-1,-1,-1,30,27.41004683147841,-9999,62860.5976605,-0.72222900390625,0.644866943359375,-0.451416015625,62860.5875845,1.611470898851745,-1.187477947809612,-0.6660691160918016,-0.3396062552928925,-0.433753490447998,0.02993450127542019,0.04282605648040771,0.03554230928421021,-0.2005840539932251,XArbitraryZVertical,-0.1937262267164379,0.5616405657303278,-0.6917051876257885,-0.4105776052530763,-0.7291969656944275,0.6179000735282898,-0.2940600514411926,0,0,0,-1,-1,62853.41249675,unknown,2,2025-04-18T11:02:47.583+03:00,2025-04-17T15:44:39.500+03:00,7191,1.094987,0,0,5932.107,4,10,2025-04-18T11:02:11.472+03:00,766656172.849466,0,107.08,100.5709,1,0.65,2025-04-18T11:02:44.169+03:00,93,1.55,2025-04-18T08:51:18.885+03:00,0.03057091307199995,1
2025-04-18T11:02:54.783+03:00,1744963372.750369,40.95361464921299,29.14100394799852,93.71502,-1,-1,-1,-1,30,27.41004683147841,-9999,62860.6077355,-0.7706298828125,0.59136962890625,-0.408203125,62860.5976605,1.607880830103744,-1.194011748700565,-0.6674465872465423,-0.3088552951812744,-0.4087464213371277,0.04921099543571472,0.01757258176803589,0.03316283226013184,-0.1729837954044342,XArbitraryZVertical,-0.1945093042774053,0.5636294427059563,-0.6904534503372678,-0.4095877131995532,-0.7303106188774109,0.6189825534820557,-0.2889759540557861,0,0,0,-1,-1,62853.41249675,unknown,2,2025-04-18T11:02:47.583+03:00,2025-04-17T15:44:39.500+03:00,7191,1.094987,0,0,5932.107,4,10,2025-04-18T11:02:11.472+03:00,766656172.849466,0,107.08,100.5709,1,0.65,2025-04-18T11:02:44.169+03:00,93,1.55,2025-04-18T08:51:18.885+03:00,0.03057091307199995,1
2025-04-18T11:02:54.793+03:00,1744963372.750369,40.95361464921299,29.14100394799852,93.71502,-1,-1,-1,-1,30,27.41004683147841,-9999,62860.6178115,-0.7724609375,0.5825042724609375,-0.375946044921875,62860.6077355,1.604347662000699,-1.200233425540994,-0.6695201987966806,-0.352638840675354,-0.397068589925766,0.1213544979691505,-0.03735309839248657,-0.02629518508911133,-0.1276139914989471,XArbitraryZVertical,-0.1949579646594821,0.565694932242534,-0.6893062151649396,-0.408457865899912,-0.7308965921401978,0.6206098198890686,-0.2839612662792206,0,0,0,-1,-1,62853.41249675,unknown,2,2025-04-18T11:02:47.583+03:00,2025-04-17T15:44:39.500+03:00,7191,1.094987,0,0,5932.107,4,10,2025-04-18T11:02:11.472+03:00,766656172.849466,0,107.08,100.5709,1,0.65,2025-04-18T11:02:44.169+03:00,93,1.55,2025-04-18T08:51:18.885+03:00,0.03057091307199995,1
2025-04-18T11:02:54.803+03:00,1744963372.750369,40.95361464921299,29.14100394799852,93.71502,-1,-1,-1,-1,30,27.41004683147841,-9999,62860.62788750001,-0.7723388671875,0.5571746826171875,-0.359893798828125,62860.6178115,1.600142064099531,-1.206874631309562,-0.6719526419886379,-0.4381148517131805,-0.4021959602832794,0.0930701270699501,-0.04025328159332275,-0.03836309909820557,-0.1011368632316589,XArbitraryZVertical,-0.1952313102743881,0.5679818109664446,-0.688016124301457,-0.4073269881159424,-0.731353223323822,0.6225153207778931,-0.2785627841949463,0,0,0,-1,-1,62853.41249675,unknown,2,2025-04-18T11:02:47.583+03:00,2025-04-17T15:44:39.500+03:00,7191,1.094987,0,0,5932.107,4,10,2025-04-18T11:02:11.472+03:00,766656172.849466,0,107.08,100.5709,1,0.65,2025-04-18T11:02:44.169+03:00,93,1.55,2025-04-18T08:51:18.885+03:00,0.03057091307199995,1
2025-04-18T11:02:54.813+03:00,1744963372.750369,40.95361464921299,29.14100394799852,93.71502,-1,-1,-1,-1,30,27.41004683147841,-9999,62860.6379625,-0.736602783203125,0.5542144775390625,-0.363677978515625,62860.62788750001,1.594716354892858,-1.214469531819079,-0.6745484553135874,-0.5331577062606812,-0.4360989928245544,0.1024355664849281,-0.04159820079803467,-0.06434881687164307,-0.08761069178581238,XArbitraryZVertical,-0.1954189807674543,0.5706080939508694,-0.6864045252113358,-0.4062840416992607,-0.7319308519363403,0.6245447397232056,-0.2724356353282928,0,0,0,-1,-1,62853.41249675,unknown,2,2025-04-18T11:02:47.583+03:00,2025-04-17T15:44:39.500+03:00,7191,1.094987,0,0,5932.107,4,10,2025-04-18T11:02:11.472+03:00,766656172.849466,0,107.08,100.5709,1,0.65,2025-04-18T11:02:44.169+03:00,93,1.55,2025-04-18T08:51:18.885+03:00,0.03057091307199995,1
2025-04-18T11:02:54.824+03:00,1744963372.750369,40.95361464921299,29.14100394799852,93.71502,-1,-1,-1,-1,30,27.41004683147841,-9999,62860.6480385,-0.6933746337890625,0.58465576171875,-0.3592987060546875,62860.6379625,1.588035693515627,-1.223277083920186,-0.6777305216865287,-0.6603657007217407,-0.4873768389225006,0.1332294195890427,-0.009941041469573975,-0.07461285591125488,-0.09749245643615723,XArbitraryZVertical,-0.1954493342593551,0.5737153895252004,-0.6844807796546037,-0.4051372010086814,-0.7324295043945312,0.6270267367362976,-0.2653004229068756,0,0,0,-1,-1,62853.41249675,unknown,2,2025-04-18T11:02:47.583+03:00,2025-04-17T15:44:39.500+03:00,7191,1.094987,0,0,5932.107,4,10,2025-04-18T11:02:11.472+03:00,766656172.849466,0,107.08,100.5709,1,0.65,2025-04-18T11:02:44.169+03:00,93,1.55,2025-04-18T08:51:18.885+03:00,0.03057091307199995,1
2025-04-18T11:02:54.834+03:00,1744963372.750369,40.95361464921299,29.14100394799852,93.71502,-1,-1,-1,-1,30,27.41004683147841,-9999,62860.6581145,-0.6753082275390625,0.6122283935546875,-0.3393402099609375,62860.6480385,1.579372751350499,-1.233962622237407,-0.6815908360179251,-0.8726344704627991,-0.5519083738327026,0.135560542345047,0.03505676984786987,-0.05083608627319336,-0.1036638021469116,XArbitraryZVertical,-0.1952978548590585,0.5775206911715397,-0.6820475136895677,-0.4039058304735665,-0.7329328060150146,0.6300292015075684,-0.256657212972641,0,0,0,-1,-1,62853.41249675,unknown,2,2025-04-18T11:02:47.583+03:00,2025-04-17T15:44:39.500+03:00,7191,1.094987,0,0,5932.107,4,10,2025-04-18T11:02:11.472+03:00,766656172.849466,0,107.08,100.5709,1,0.65,2025-04-18T11:02:44.169+03:00,93,1.55,2025-04-18T08:51:18.885+03:00,0.03057091307199995,1
2025-04-18T11:02:54.844+03:00,1744963372.750369,40.95361464921299,29.14100394799852,93.71502,-1,-1,-1,-1,30,27.41004683147841,-9999,62860.6681905,-0.673858642578125,0.609161376953125,-0.3026123046875,62860.6581145,1.567575205157454,-1.247298619438148,-0.6860291070113113,-1.128672957420349,-0.6210898160934448,0.1109236255288124,0.05743855237960815,-0.02320957183837891,-0.09703332185745239,XArbitraryZVertical,-0.1949067093832397,0.5822601588121307,-0.6787968597693311,-0.4027647350126733,-0.7336318492889404,0.6334696412086487,-0.2459689676761627,0,0,0,-1,-1,62853.41249675,unknown,2,2025-04-18T11:02:47.583+03:00,2025-04-17T15:44:39.500+03:00,7191,1.094987,0,0,5932.107,4,10,2025-04-18T11:02:11.472+03:00,766656172.849466,0,107.08,100.5709,1,0.65,2025-04-18T11:02:44.169+03:00,93,1.55,2025-04-18T08:51:18.885+03:00,0.03057091307199995,1
2025-04-18T11:02:54.854+03:00,1744963372.750369,40.95361464921299,29.14100394799852,93.71502,-1,-1,-1,-1,30,27.41004683147841,-9999,62860.67826550001,-0.692779541015625,0.6055450439453125,-0.2620697021484375,62860.6681905,1.552491175315309,-1.263661461967722,-0.6907964291344491,-1.351621270179749,-0.7290166020393372,0.06564442813396454,0.06088882684707642,-0.02647918462753296,-0.07457005977630615,XArbitraryZVertical,-0.1944070343021044,0.587960550073237,-0.6746495773814152,-0.4016918696711173,-0.7346711754798889,0.6371512413024902,-0.2330165952444077,0,0,0,-1,-1,62853.41249675,unknown,2,2025-04-18T11:02:47.583+03:00,2025-04-17T15:44:39.500+03:00,7191,1.094987,0,0,5932.107,4,10,2025-04-18T11:02:11.472+03:00,766656172.849466,0,107.08,100.5709,1,0.65,2025-04-18T11:02:44.169+03:00,93,1.55,2025-04-18T08:51:18.885+03:00,0.03057091307199995,1
2025-04-18T11:02:54.864+03:00,1744963372.750369,40.95361464921299,29.14100394799852,93.71502,-1,-1,-1,-1,30,27.41004683147841,-9999,62860.6883415,-0.7332916259765625,0.6353302001953125,-0.24676513671875,62860.67826550001,1.534796820470585,-1.282658961772459,-0.6954121130697726,-1.482505559921265,-0.7825061678886414,0.02157151140272617,0.04662328958511353,-0.03625547885894775,-0.04805487394332886,XArbitraryZVertical,-0.1939859997169412,0.5943729654269869,-0.6697405393174203,-0.4006717777520081,-0.7361375093460083,0.6407018899917603,-0.2181804180145264,0,0,0,-1,-1,62853.41249675,unknown,2,2025-04-18T11:02:47.583+03:00,2025-04-17T15:44:39.500+03:00,7191,1.094987,0,0,5932.107,4,10,2025-04-18T11:02:11.472+03:00,766656172.849466,0,107.08,100.5709,1,0.65,2025-04-18T11:02:44.169+03:00,93,1.55,2025-04-18T08:51:18.885+03:00,0.03057091307199995,1
2025-04-18T11:02:54.874+03:00,1744963372.750369,40.95361464921299,29.14100394799852,93.71502,-1,-1,-1,-1,30,27.41004683147841,-9999,62860.6984175,-0.76873779296875,0.6730804443359375,-0.2603912353515625,62860.6883415,1.516132522319116,-1.302371457257393,-0.6996147674748028,-1.466750860214233,-0.7440719604492188,-0.0002791931619867682,0.009252965450286865,-0.01365870237350464,-0.04327327013015747,XArbitraryZVertical,-0.1935457332705496,0.6009027163354542,-0.6645593169143483,-0.3997711482171867,-0.7376923561096191,0.6439229846000671,-0.2029119431972504,0,0,0,-1,-1,62853.41249675,unknown,2,2025-04-18T11:02:47.583+03:00,2025-04-17T15:44:39.500+03:00,7191,1.094987,0,0,5932.107,4,10,2025-04-18T11:02:11.472+03:00,766656172.849466,0,107.08,100.5709,1,0.65,2025-04-18T11:02:44.169+03:00,93,1.55,2025-04-18T08:51:18.885+03:00,0.03057091307199995,1
2025-04-18T11:02:54.884+03:00,1744963372.750369,40.95361464921299,29.14100394799852,93.71502,-1,-1,-1,-1,30,27.41004683147841,-9999,62860.7084925,-0.792083740234375,0.6801300048828125,-0.2576751708984375,62860.6984175,1.497855459300996,-1.321350745487038,-0.7031278598820734,-1.38488233089447,-0.6809601187705994,-0.03358016163110733,-0.02592307329177856,0.02243000268936157,-0.07115994393825531,XArbitraryZVertical,-0.1931032131003732,0.6070858929691606,-0.6594810913054858,-0.3990520943946887,-0.7392136454582214,0.6466068625450134,-0.1883157342672348,0,0,0,-1,-1,62853.41249675,unknown,2,2025-04-18T11:02:47.583+03:00,2025-04-17T15:44:39.500+03:00,7191,1.094987,0,0,5932.107,4,10,2025-04-18T11:02:11.472+03:00,766656172.849466,0,107.08,100.5709,1,0.65,2025-04-18T11:02:44.169+03:00,93,1.55,2025-04-18T08:51:18.885+03:00,0.03057091307199995,1
2025-04-18T11:02:54.894+03:00,1744963372.750369,40.95361464921299,29.14100394799852,93.71502,-1,-1,-1,-1,30,27.41004683147841,-9999,62860.7185685,-0.7924652099609375,0.6612396240234375,-0.2498321533203125,62860.7084925,1.480675824054802,-1.338960489765872,-0.7059500036053514,-1.272732377052307,-0.6047278046607971,-0.04390067234635353,-0.05022692680358887,0.03256309032440186,-0.08366446197032928,XArbitraryZVertical,-0.1926797995794025,0.6127393894999765,-0.654698586990821,-0.3984905387444638,-0.7406361103057861,0.6487571001052856,-0.1748498678207397,0,0,0,-1,-1,62853.41249675,unknown,2,2025-04-18T11:02:47.583+03:00,2025-04-17T15:44:39.500+03:00,7191,1.094987,0,0,5932.107,4,10,2025-04-18T11:02:11.472+03:00,766656172.849466,0,107.08,100.5709,1,0.65,2025-04-18T11:02:44.169+03:00,93,1.55,2025-04-18T08:51:18.885+03:00,0.03057091307199995,1
2025-04-18T11:02:54.904+03:00,1744963372.750369,40.95361464921299,29.14100394799852,93.71502,-1,-1,-1,-1,30,27.41004683147841,-9999,62860.72864450001,-0.7825775146484375,0.6370849609375,-0.2418975830078125,62860.7185685,1.464705633411541,-1.355196864929522,-0.7082121380465107,-1.17698872089386,-0.5608216524124146,-0.05192824080586433,-0.05215609073638916,0.01392132043838501,-0.08777159452438354,XArbitraryZVertical,-0.1922847293036614,0.6178856763746997,-0.6502405624551898,-0.3980341455356105,-0.7419418692588806,0.65047687292099,-0.1624877452850342,0,0,0,-1,-1,62853.41249675,unknown,2,2025-04-18T11:02:47.583+03:00,2025-04-17T15:44:39.500+03:00,7191,1.094987,0,0,5932.107,4,10,2025-04-18T11:02:11.472+03:00,766656172.849466,0,107.08,100.5709,1,0.65,2025-04-18T11:02:44.169+03:00,93,1.55,2025-04-18T08:51:18.885+03:00,0.03057091307199995,1
2025-04-18T11:02:54.914+03:00,1744963372.750369,40.95361464921299,29.14100394799852,93.71502,-1,-1,-1,-1,30,27.41004683147841,-9999,62860.7387195,-0.773406982421875,0.6082916259765625,-0.2391510009765625,62860.72864450001,1.449716788875871,-1.370421735840466,-0.710121468547723,-1.118467450141907,-0.5236330628395081,-0.04161078855395317,-0.04135853052139282,-0.01056843996047974,-0.09214657545089722,XArbitraryZVertical,-0.1919122738680014,0.6226610059895027,-0.6460460509121897,-0.3976022000806617,-0.7431111335754395,0.6519258618354797,-0.1509259045124054,0,0,0,-1,-1,62853.41249675,unknown,2,2025-04-18T11:02:47.583+03:00,2025-04-17T15:44:39.500+03:00,7191,1.094987,0,0,5932.107,4,10,2025-04-18T11:02:11.472+03:00,766656172.849466,0,107.08,100.5709,1,0.65,2025-04-18T11:02:44.169+03:00,93,1.55,2025-04-18T08:51:18.885+03:00,0.03057091307199995,1
2025-04-18T11:02:54.924+03:00,1744963372.750369,40.95361464921299,29.14100394799852,93.71502,-1,-1,-1,-1,30,27.41004683147841,-9999,62860.7487955,-0.7608184814453125,0.5978546142578125,-0.2371673583984375,62860.7387195,1.435329112716648,-1.385006487429356,-0.7119551551717465,-1.070525288581848,-0.51042640209198,-0.01273865904659033,-0.0306011438369751,-0.04148358106613159,-0.0991625040769577,XArbitraryZVertical,-0.1914809024655078,0.6272236654193046,-0.6420370688323231,-0.3971321577685663,-0.7440570592880249,0.6533152461051941,-0.1398510783910751,0,0,0,-1,-1,62853.41249675,unknown,2,2025-04-18T11:02:47.583+03:00,2025-04-17T15:44:39.500+03:00,7191,1.094987,0,0,5932.107,4,10,2025-04-18T11:02:11.472+03:00,766656172.849466,0,107.08,100.5709,1,0.65,2025-04-18T11:02:44.169+03:00,93,1.55,2025-04-18T08:51:18.885+03:00,0.03057091307199995,1
2025-04-18T11:02:54.934+03:00,1744963372.750369,40.95361464921299,29.14100394799852,93.71502,-1,-1,-1,-1,30,27.41004683147841,-9999,62860.7588715,-0.7429351806640625,0.6186981201171875,-0.240692138671875,62860.7487955,1.421835745841159,-1.398999975991918,-0.7139289862658256,-0.9973124861717224,-0.5171578526496887,0.03527467325329781,-0.01877385377883911,-0.05725890398025513,-0.1073670834302902,XArbitraryZVertical,-0.1910326662136311,0.6315884653157292,-0.6382966710226917,-0.3964591688343412,-0.7446690797805786,0.6548083424568176,-0.1292050629854202,0,0,0,-1,-1,62853.41249675,unknown,2,2025-04-18T11:02:47.583+03:00,2025-04-17T15:44:39.500+03:00,7191,1.094987,0,0,5932.107,4,10,2025-04-18T11:02:11.472+03:00,766656172.849466,0,107.08,100.5709,1,0.65,2025-04-18T11:02:44.169+03:00,93,1.55,2025-04-18T08:51:18.885+03:00,0.03057091307199995,1
2025-04-18T11:02:54.945+03:00,1744963372.750369,40.95361464921299,29.14100394799852,93.71502,-1,-1,-1,-1,30,27.41004683147841,-9999,62860.7689465,-0.73236083984375,0.6472320556640625,-0.205841064453125,62860.7588715,1.40903678275359,-1.412758636341686,-0.7160341136791821,-0.9709059000015259,-0.5501362681388855,0.05663615465164185,0.0007050037384033203,-0.04166704416275024,-0.1224957704544067,XArbitraryZVertical,-0.1906295899498053,0.6358421153451133,-0.6347512855304611,-0.3955453138389149,-0.7450134754180908,0.6563979387283325,-0.118730328977108,0,0,0,-1,-1,62853.41249675,unknown,2,2025-04-18T11:02:47.583+03:00,2025-04-17T15:44:39.500+03:00,7191,1.094987,0,0,5932.107,4,10,2025-04-18T11:02:11.472+03:00,766656172.849466,0,107.08,100.5709,1,0.65,2025-04-18T11:02:44.169+03:00,93,1.55,2025-04-18T08:51:18.885+03:00,0.03057091307199995,1
2025-04-18T11:02:54.955+03:00,1744963372.750369,40.95361464921299,29.14100394799852,93.71502,-1,-1,-1,-1,30,27.41004683147841,-9999,62860.77902250001,-0.7259368896484375,0.65618896484375,-0.15264892578125,62860.7689465,1.396395383101662,-1.426861203094235,-0.7181678383585972,-0.9587173461914062,-0.6042564511299133,0.07682334631681442,0.01182746887207031,-0.01385629177093506,-0.1045742183923721,XArbitraryZVertical,-0.1903241182931839,0.6401337077517633,-0.6312258078141912,-0.3944105941713549,-0.7452260255813599,0.6580061316490173,-0.1080111339688301,0,0,0,-1,-1,62853.41249675,unknown,2,2025-04-18T11:02:47.583+03:00,2025-04-17T15:44:39.500+03:00,7191,1.094987,0,0,5932.107,4,10,2025-04-18T11:02:11.472+03:00,766656172.849466,0,107.08,100.5709,1,0.65,2025-04-18T11:02:44.169+03:00,93,1.55,2025-04-18T08:51:18.885+03:00,0.03057091307199995,1
2025-04-18T11:02:54.964+03:00,1744963372.750369,40.95361464921299,29.14100394799852,93.71502,-1,-1,-1,-1,30,27.41004683147841,-9999,62860.7890985,-0.7261505126953125,0.6531219482421875,-0.1189422607421875,62860.77902250001,1.38395937377184,-1.441449719896989,-0.7203537119424677,-0.9450398683547974,-0.6670178174972534,0.09631342440843582,0.01931142807006836,-0.003553152084350586,-0.06132160872220993,XArbitraryZVertical,-0.1901677481729458,0.6444881515769332,-0.6277206776713681,-0.3929859993922863,-0.7452940940856934,0.6596505641937256,-0.09694249927997589,0,0,0,-1,-1,62853.41249675,unknown,2,2025-04-18T11:02:47.583+03:00,2025-04-17T15:44:39.500+03:00,7191,1.094987,0,0,5932.107,4,10,2025-04-18T11:02:11.472+03:00,766656172.849466,0,107.08,100.5709,1,0.65,2025-04-18T11:02:44.169+03:00,93,1.55,2025-04-18T08:51:18.885+03:00,0.03057091307199995,1
2025-04-18T11:02:54.975+03:00,1744963372.750369,40.95361464921299,29.14100394799852,93.71502,-1,-1,-1,-1,30,27.41004683147841,-9999,62860.7991735,-0.7398223876953125,0.6396331787109375,-0.0927734375,62860.7890985,1.371318221808547,-1.45690037340687,-0.7225214483253827,-0.9740003347396851,-0.7363470196723938,0.1030664667487144,0.01984721422195435,-0.007057607173919678,-0.03696942329406738,XArbitraryZVertical,-0.1901678887431689,0.6490065261474706,-0.6241097979955897,-0.3912975310181102,-0.7452805638313293,0.6612781882286072,-0.08525340259075165,0,0,0,-1,-1,62853.41249675,unknown,2,2025-04-18T11:02:47.583+03:00,2025-04-17T15:44:39.500+03:00,7191,1.094987,0,0,5932.107,4,10,2025-04-18T11:02:11.472+03:00,766656172.849466,0,107.08,100.5709,1,0.65,2025-04-18T11:02:44.169+03:00,93,1.55,2025-04-18T08:51:18.885+03:00,0.03057091307199995,1
2025-04-18T11:02:54.985+03:00,1744963372.750369,40.95361464921299,29.14100394799852,93.71502,-1,-1,-1,-1,30,27.41004683147841,-9999,62860.8092495,-0.761322021484375,0.6173553466796875,-0.074981689453125,62860.7991735,1.358387657544545,-1.472883487012741,-0.7245907315390798,-0.9856867790222168,-0.7335983514785767,0.09792736172676086,0.007238805294036865,-0.02015942335128784,-0.02238380163908005,XArbitraryZVertical,-0.1902169849999187,0.6536198516985302,-0.6203961925828294,-0.3894959350056166,-0.7451843619346619,0.6628290414810181,-0.07319717854261398,0,0,0,-1,-1,62853.41249675,unknown,2,2025-04-18T11:02:47.583+03:00,2025-04-17T15:44:39.500+03:00,7191,1.094987,0,0,5932.107,4,10,2025-04-18T11:02:11.472+03:00,766656172.849466,0,107.08,100.5709,1,0.65,2025-04-18T11:02:44.169+03:00,93,1.55,2025-04-18T08:51:18.885+03:00,0.03057091307199995,1
2025-04-18T11:02:54.995+03:00,1744963372.750369,40.95361464921299,29.14100394799852,93.71502,-1,-1,-1,-1,30,27.41004683147841,-9999,62860.8193255,-0.77923583984375,0.6232147216796875,-0.05853271484375,62860.8092495,1.345292609253061,-1.488831443890962,-0.7264177452979752,-0.9801722168922424,-0.7044300436973572,0.09298387914896011,-0.01302307844161987,-0.0455741286277771,-0.01569926366209984,XArbitraryZVertical,-0.1902257637109748,0.6581881777371291,-0.6166344970150517,-0.3877684903718522,-0.7450488209724426,0.6641959547996521,-0.06120496243238449,0,0,0,-1,-1,62853.41249675,unknown,2,2025-04-18T11:02:47.583+03:00,2025-04-17T15:44:39.500+03:00,7191,1.094987,0,0,5932.107,4,10,2025-04-18T11:02:11.472+03:00,766656172.849466,0,107.08,100.5709,1,0.65,2025-04-18T11:02:44.169+03:00,93,1.55,2025-04-18T08:51:18.885+03:00,0.03057091307199995,1
2025-04-18T11:02:55.005+03:00,1744963372.750369,40.95361464921299,29.14100394799852,93.71502,-1,-1,-1,-1,30,27.41004683147841,-9999,62860.82940050001,-0.7734375,0.65435791015625,-0.04559326171875,62860.8193255,1.332740435254582,-1.504120999104431,-0.7281686482697299,-0.8857682347297668,-0.6713141798973083,0.1187739297747612,-0.0336148738861084,-0.0453561544418335,-0.0109090730547905,XArbitraryZVertical,-0.1901798838274438,0.6625458463117508,-0.613046950548327,-0.3860544484487399,-0.7447359561920166,0.6655038595199585,-0.04972922801971436,0,0,0,-1,-1,62853.41249675,unknown,2,2025-04-18T11:02:47.583+03:00,2025-04-17T15:44:39.500+03:00,7191,1.094987,0,0,5932.107,4,10,2025-04-18T11:02:11.472+03:00,766656172.849466,0,107.08,100.5709,1,0.65,2025-04-18T11:02:44.169+03:00,93,1.55,2025-04-18T08:51:18.885+03:00,0.03057091307199995,1
2025-04-18T11:02:55.015+03:00,1744963372.750369,40.95361464921299,29.14100394799852,93.71502,-1,-1,-1,-1,30,27.41004683147841,-9999,62860.8394765,-0.7548828125,0.67962646484375,-0.0143890380859375,62860.82940050001,1.32160261499345,-1.518209276151178,-0.7299669979792532,-0.7890300750732422,-0.6595191955566406,0.134355753660202,-0.03146851062774658,-0.01656121015548706,-0.008636116981506348,XArbitraryZVertical,-0.190169220657935,0.666521459265292,-0.6098725322519056,-0.3842399349370184,-0.7441663146018982,0.6668450236320496,-0.03916962444782257,0,0,0,-1,-1,62853.41249675,unknown,2,2025-04-18T11:02:47.583+03:00,2025-04-17T15:44:39.500+03:00,7191,1.094987,0,0,5932.107,4,10,2025-04-18T11:02:11.472+03:00,766656172.849466,0,107.08,100.5709,1,0.65,2025-04-18T11:02:44.169+03:00,93,1.55,2025-04-18T08:51:18.885+03:00,0.03057091307199995,1
2025-04-18T11:02:55.025+03:00,1744963372.750369,40.95361464921299,29.14100394799852,93.71502,-1,-1,-1,-1,30,27.41004683147841,-9999,62860.8495525,-0.7433319091796875,0.686248779296875,0.023193359375,62860.8394765,1.311595465591393,-1.531634560047364,-0.7317621086092989,-0.7087405920028687,-0.6787751913070679,0.1543608754873276,-0.01334714889526367,0.009659469127655029,0.009445073083043098,XArbitraryZVertical,-0.1902940529826641,0.6702415650316383,-0.6069940378002009,-0.382259950349575,-0.7434277534484863,0.6681816577911377,-0.02912883646786213,0,0,0,-1,-1,62853.41249675,unknown,2,2025-04-18T11:02:47.583+03:00,2025-04-17T15:44:39.500+03:00,7191,1.094987,0,0,5932.107,4,10,2025-04-18T11:02:11.472+03:00,766656172.849466,0,107.08,100.5709,1,0.65,2025-04-18T11:02:44.169+03:00,93,1.55,2025-04-18T08:51:18.885+03:00,0.03057091307199995,1
2025-04-18T11:02:55.035+03:00,1744963372.750369,40.95361464921299,29.14100394799852,93.71502,-1,-1,-1,-1,30,27.41004683147841,-9999,62860.8596275,-0.7415924072265625,0.6712188720703125,0.046722412109375,62860.8495525,1.302260730812156,-1.544745715760642,-0.7336283306631074,-0.6813470125198364,-0.6773468852043152,0.1669817417860031,-0.00200885534286499,0.01684772968292236,0.03851199150085449,XArbitraryZVertical,-0.1904893638953116,0.6738251621868633,-0.6043017878247493,-0.3801223302127105,-0.7424980998039246,0.6695689558982849,-0.01934690587222576,0,0,0,-1,-1,62853.41249675,unknown,2,2025-04-18T11:02:47.583+03:00,2025-04-17T15:44:39.500+03:00,7191,1.094987,0,0,5932.107,4,10,2025-04-18T11:02:11.472+03:00,766656172.849466,0,107.08,100.5709,1,0.65,2025-04-18T11:02:44.169+03:00,93,1.55,2025-04-18T08:51:18.885+03:00,0.03057091307199995,1
2025-04-18T11:02:55.045+03:00,1744963372.750369,40.95361464921299,29.14100394799852,93.71502,-1,-1,-1,-1,30,27.41004683147841,-9999,62860.8697035,-0.746124267578125,0.659088134765625,0.082916259765625,62860.8596275,1.292984090539573,-1.557569067613775,-0.7354671313392392,-0.6979755163192749,-0.6348615288734436,0.166809156537056,0.000317990779876709,0.002803027629852295,0.0528988242149353,XArbitraryZVertical,-0.1905940982241248,0.6773255568587278,-0.6016580372403768,-0.3780366672257338,-0.7414527535438538,0.6709336042404175,-0.009807959198951721,0,0,0,-1,-1,62853.41249675,unknown,2,2025-04-18T11:02:47.583+03:00,2025-04-17T15:44:39.500+03:00,7191,1.094987,0,0,5932.107,4,10,2025-04-18T11:02:11.472+03:00,766656172.849466,0,107.08,100.5709,1,0.65,2025-04-18T11:02:44.169+03:00,93,1.55,2025-04-18T08:51:18.885+03:00,0.03057091307199995,1
2025-04-18T11:02:55.055+03:00,1744963372.750369,40.95361464921299,29.14100394799852,93.71502,-1,-1,-1,-1,30,27.41004683147841,-9999,62860.87977950001,-0.742401123046875,0.6675262451171875,0.1483001708984375,62860.8697035,1.283173145682058,-1.570316542182119,-0.7371543896309561,-0.7540260553359985,-0.5861691236495972,0.1564840525388718,-0.005572021007537842,-0.01198172569274902,0.0771070122718811,XArbitraryZVertical,-0.1905138702488725,0.6808280639737614,-0.5989078442218494,-0.3761477978424133,-0.7403844594955444,0.6721838116645813,-0.0003552250855136663,0,0,0,-1,-1,62853.41249675,unknown,2,2025-04-18T11:02:47.583+03:00,2025-04-17T15:44:39.500+03:00,7191,1.094987,0,0,5932.107,4,10,2025-04-18T11:02:11.472+03:00,766656172.849466,0,107.08,100.5709,1,0.65,2025-04-18T11:02:44.169+03:00,93,1.55,2025-04-18T08:51:18.885+03:00,0.03057091307199995,1
2025-04-18T11:02:55.065+03:00,1744963372.750369,40.95361464921299,29.14100394799852,93.71502,-1,-1,-1,-1,30,27.41004683147841,-9999,62860.88985550001,-0.727783203125,0.70074462890625,0.2429656982421875,62860.87977950001,1.272546543629852,-1.582979112294188,-0.7385852636136445,-0.788438081741333,-0.5084367990493774,0.1342314779758453,-0.004346370697021484,-0.007989764213562012,0.1291451454162598,XArbitraryZVertical,-0.190182896189469,0.6843496648643806,-0.5959796596284515,-0.3745722267093675,-0.7393670082092285,0.6732425093650818,0.009007995948195457,0,0,0,-1,-1,62853.41249675,unknown,2,2025-04-18T11:02:47.583+03:00,2025-04-17T15:44:39.500+03:00,7191,1.094987,0,0,5932.107,4,10,2025-04-18T11:02:11.472+03:00,766656172.849466,0,107.08,100.5709,1,0.65,2025-04-18T11:02:44.169+03:00,93,1.55,2025-04-18T08:51:18.885+03:00,0.03057091307199995,1
2025-04-18T11:02:55.075+03:00,1744963372.750369,40.95361464921299,29.14100394799852,93.71502,-1,-1,-1,-1,30,27.41004683147841,-9999,62860.8999305,-0.7129974365234375,0.75445556640625,0.3430938720703125,62860.88985550001,1.262399061183641,-1.594588921675826,-0.7395614289514049,-0.6776687502861023,-0.4476049244403839,0.08091602474451065,0.008727192878723145,0.02133321762084961,0.2125118970870972,XArbitraryZVertical,-0.1898225386841279,0.6875719109763792,-0.5931678980808651,-0.3733149802665955,-0.7385550737380981,0.6739639639854431,0.0175754576921463,0,0,0,-1,-1,62853.41249675,unknown,2,2025-04-18T11:02:47.583+03:00,2025-04-17T15:44:39.500+03:00,7191,1.094987,0,0,5932.107,4,10,2025-04-18T11:02:11.472+03:00,766656172.849466,0,107.08,100.5709,1,0.65,2025-04-18T11:02:44.169+03:00,93,1.55,2025-04-18T08:51:18.885+03:00,0.03057091307199995,1
2025-04-18T11:02:55.086+03:00,1744963372.750369,40.95361464921299,29.14100394799852,93.71502,-1,-1,-1,-1,30,27.41004683147841,-9999,62860.9100065,-0.716339111328125,0.819671630859375,0.3977203369140625,62860.8999305,1.254501081671775,-1.604165043875938,-0.73985103346681,-0.4746024906635284,-0.3874377310276031,0.007858062162995338,0.02375668287277222,0.07304507493972778,0.3080164194107056,XArbitraryZVertical,-0.1898385766353355,0.6901315683674168,-0.5908436228162712,-0.37226831766061,-0.7381580471992493,0.674177885055542,0.0246405340731144,0,0,0,-1,-1,62853.41249675,unknown,2,2025-04-18T11:02:47.583+03:00,2025-04-17T15:44:39.500+03:00,7191,1.094987,0,0,5932.107,4,10,2025-04-18T11:02:11.472+03:00,766656172.849466,0,107.08,100.5709,1,0.65,2025-04-18T11:02:44.169+03:00,93,1.55,2025-04-18T08:51:18.885+03:00,0.03057091307199995,1
2025-04-18T11:02:55.096+03:00,1744963372.750369,40.95361464921299,29.14100394799852,93.71502,-1,-1,-1,-1,30,27.41004683147841,-9999,62860.9200825,-0.7449188232421875,0.8570709228515625,0.3892364501953125,62860.9100065,1.249628977728483,-1.610604604276081,-0.7394612274735388,-0.2420086562633514,-0.229158878326416,-0.05950326845049858,0.02415043115615845,0.1372520327568054,0.3657835721969604,XArbitraryZVertical,-0.1901871690255107,0.691759184238408,-0.5892484024503672,-0.3715972057904423,-0.7382465600967407,0.6738899350166321,0.02940385602414608,0,0,0,-1,-1,62853.41249675,unknown,2,2025-04-18T11:02:47.583+03:00,2025-04-17T15:44:39.500+03:00,7191,1.094987,0,0,5932.107,4,10,2025-04-18T11:02:11.472+03:00,766656172.849466,0,107.08,100.5709,1,0.65,2025-04-18T11:02:44.169+03:00,93,1.55,2025-04-18T08:51:18.885+03:00,0.03057091307199995,1
2025-04-18T11:02:55.106+03:00,1744963372.750369,40.95361464921299,29.14100394799852,93.71502,-1,-1,-1,-1,30,27.41004683147841,-9999,62860.93015750001,-0.7812652587890625,0.8411102294921875,0.380401611328125,62860.9200825,1.247600503577562,-1.613266884577346,-0.738370185183386,-0.08106611669063568,-0.02795652858912945,-0.1477878540754318,-0.001548230648040771,0.1822022199630737,0.3598045110702515,XArbitraryZVertical,-0.1906379365107679,0.6923563830357115,-0.5883999780322501,-0.3715984187677485,-0.7388997673988342,0.6730834245681763,0.03140036761760712,0,0,0,-1,-1,62853.41249675,unknown,2,2025-04-18T11:02:47.583+03:00,2025-04-17T15:44:39.500+03:00,7191,1.094987,0,0,5932.107,4,10,2025-04-18T11:02:11.472+03:00,766656172.849466,0,107.08,100.5709,1,0.65,2025-04-18T11:02:44.169+03:00,93,1.55,2025-04-18T08:51:18.885+03:00,0.03057091307199995,1
2025-04-18T11:02:55.116+03:00,1744963372.750369,40.95361464921299,29.14100394799852,93.71502,-1,-1,-1,-1,30,27.41004683147841,-9999,62860.9402335,-0.793701171875,0.7999114990234375,0.3876495361328125,62860.93015750001,1.247175327692055,-1.61277185892901,-0.7364095923810682,-0.01171933114528656,0.1841729730367661,-0.2347186654806137,-0.03674513101577759,0.1732165813446045,0.3490524291992188,XArbitraryZVertical,-0.1910077350262931,0.6921423283407749,-0.5879750912179335,-0.3724789710908009,-0.740232527256012,0.6716321706771851,0.03108991496264935,0,0,0,-1,-1,62853.41249675,unknown,2,2025-04-18T11:02:47.583+03:00,2025-04-17T15:44:39.500+03:00,7191,1.094987,0,0,5932.107,4,10,2025-04-18T11:02:11.472+03:00,766656172.849466,0,107.08,100.5709,1,0.65,2025-04-18T11:02:44.169+03:00,93,1.55,2025-04-18T08:51:18.885+03:00,0.03057091307199995,1
2025-04-18T11:02:55.126+03:00,1744963372.750369,40.95361464921299,29.14100394799852,93.71502,-1,-1,-1,-1,30,27.41004683147841,-9999,62860.9503095,-0.7751312255859375,0.769134521484375,0.4019775390625,62860.9402335,1.247118111575254,-1.609905292896816,-0.7337552654137942,-0.01916233450174332,0.3904646337032318,-0.2911784648895264,-0.05169576406478882,0.1357260942459106,0.3572388887405396,XArbitraryZVertical,-0.1910427756171573,0.6913909046914822,-0.5877058645656942,-0.3742767145694861,-0.7420969605445862,0.6696632504463196,0.02903744950890541,0,0,0,-1,-1,62853.41249675,unknown,2,2025-04-18T11:02:47.583+03:00,2025-04-17T15:44:39.500+03:00,7191,1.094987,0,0,5932.107,4,10,2025-04-18T11:02:11.472+03:00,766656172.849466,0,107.08,100.5709,1,0.65,2025-04-18T11:02:44.169+03:00,93,1.55,2025-04-18T08:51:18.885+03:00,0.03057091307199995,1
2025-04-18T11:02:55.136+03:00,1744963372.750369,40.95361464921299,29.14100394799852,93.71502,-1,-1,-1,-1,30,27.41004683147841,-9999,62860.9603845,-0.743408203125,0.756134033203125,0.408233642578125,62860.9503095,1.246960843417649,-1.605180250347209,-0.730540880148016,-0.02914206311106682,0.5628408789634705,-0.3461942374706268,-0.0343284010887146,0.1048526763916016,0.3745419979095459,XArbitraryZVertical,-0.1906875692470582,0.6902467210831167,-0.5874832191210029,-0.3769101060665628,-0.7443734407424927,0.6672725677490234,0.02560457028448582,0,0,0,-1,-1,62853.41249675,unknown,2,2025-04-18T11:02:47.583+03:00,2025-04-17T15:44:39.500+03:00,7191,1.094987,0,0,5932.107,4,10,2025-04-18T11:02:11.472+03:00,766656172.849466,0,107.08,100.5709,1,0.65,2025-04-18T11:02:44.169+03:00,93,1.55,2025-04-18T08:51:18.885+03:00,0.03057091307199995,1
2025-04-18T11:02:55.146+03:00,1744963372.750369,40.95361464921299,29.14100394799852,93.71502,-1,-1,-1,-1,30,27.41004683147841,-9999,62860.9704605,-0.7149658203125,0.7432403564453125,0.3956756591796875,62860.9603845,1.246854885992823,-1.598794507865954,-0.7268503043573065,0.00155752501450479,0.7183801531791687,-0.3846137821674347,-0.0004735589027404785,0.09292697906494141,0.3870395421981812,XArbitraryZVertical,-0.1900254653675274,0.6887307683827258,-0.5873330288351101,-0.3802369270914459,-0.746978223323822,0.6645192503929138,0.02091949805617332,0,0,0,-1,-1,62853.41249675,unknown,2,2025-04-18T11:02:47.583+03:00,2025-04-17T15:44:39.500+03:00,7191,1.094987,0,0,5932.107,4,10,2025-04-18T11:02:11.472+03:00,766656172.849466,0,107.08,100.5709,1,0.65,2025-04-18T11:02:44.169+03:00,93,1.55,2025-04-18T08:51:18.885+03:00,0.03057091307199995,1
2025-04-18T11:02:55.156+03:00,1744963372.750369,40.95361464921299,29.14100394799852,93.71502,-1,-1,-1,-1,30,27.41004683147841,-9999,62860.98053650001,-0.7000274658203125,0.71649169921875,0.3780975341796875,62860.9704605,1.247624616075373,-1.590297233915339,-0.7228522887735099,0.1047885715961456,0.8657107353210449,-0.4140451848506927,0.03113609552383423,0.08435368537902832,0.3838601112365723,XArbitraryZVertical,-0.1891506785959603,0.6866830671965451,-0.5874891990017543,-0.3841155036595005,-0.7497791647911072,0.6615263819694519,0.01462322752922773,0,0,0,-1,-1,62853.41249675,unknown,2,2025-04-18T11:02:47.583+03:00,2025-04-17T15:44:39.500+03:00,7191,1.094987,0,0,5932.107,4,10,2025-04-18T11:02:11.472+03:00,766656172.849466,0,107.08,100.5709,1,0.65,2025-04-18T11:02:44.169+03:00,93,1.55,2025-04-18T08:51:18.885+03:00,0.03057091307199995,1
2025-04-18T11:02:55.166+03:00,1744963372.750369,40.95361464921299,29.14100394799852,93.71502,-1,-1,-1,-1,30,27.41004683147841,-9999,62860.9906115,-0.6973419189453125,0.68194580078125,0.3621368408203125,62860.98053650001,1.250105955425284,-1.579160494793593,-0.7186345363216042,0.2591679990291595,1.020050168037415,-0.4250698685646057,0.05130898952484131,0.06243723630905151,0.3730684518814087,XArbitraryZVertical,-0.1881612311770756,0.6839175334613706,-0.588184276897056,-0.3884476750925692,-0.7526792883872986,0.6583575010299683,0.006295682862401009,0,0,0,-1,-1,62853.41249675,unknown,2,2025-04-18T11:02:47.583+03:00,2025-04-17T15:44:39.500+03:00,7191,1.094987,0,0,5932.107,4,10,2025-04-18T11:02:11.472+03:00,766656172.849466,0,107.08,100.5709,1,0.65,2025-04-18T11:02:44.169+03:00,93,1.55,2025-04-18T08:51:18.885+03:00,0.03057091307199995,1
2025-04-18T11:02:55.176+03:00,1744963372.750369,40.95361464921299,29.14100394799852,93.71502,-1,-1,-1,-1,30,27.41004683147841,-9999,62861.0006875,-0.688323974609375,0.634674072265625,0.3524169921875,62860.9906115,1.254160976174207,-1.565414163071096,-0.7142316759080182,0.3241280019283295,1.179538249969482,-0.4591169655323029,0.05770993232727051,0.03170007467269897,0.3680194020271301,XArbitraryZVertical,-0.1869979732561629,0.6804398536049182,-0.5894033337625333,-0.3932394742191668,-0.7555860877037048,0.6550370454788208,-0.004066727124154568,0,0,0,-1,-1,62853.41249675,unknown,2,2025-04-18T11:02:47.583+03:00,2025-04-17T15:44:39.500+03:00,7191,1.094987,0,0,5932.107,4,10,2025-04-18T11:02:11.472+03:00,766656172.849466,0,107.08,100.5709,1,0.65,2025-04-18T11:02:44.169+03:00,93,1.55,2025-04-18T08:51:18.885+03:00,0.03057091307199995,1
2025-04-18T11:02:55.186+03:00,1744963372.750369,40.95361464921299,29.14100394799852,93.71502,-1,-1,-1,-1,30,27.41004683147841,-9999,62861.0107635,-0.668914794921875,0.578460693359375,0.35980224609375,62861.0006875,1.258183441528759,-1.550268732946852,-0.709309202109876,0.2962417602539062,1.297632932662964,-0.506503164768219,0.06886333227157593,-0.0101965069770813,0.3679315447807312,XArbitraryZVertical,-0.1855770601856631,0.6765895424719059,-0.5906575817585071,-0.3986369465597021,-0.7586521506309509,0.6513097286224365,-0.01557549182325602,0,0,0,-1,-1,62853.41249675,unknown,2,2025-04-18T11:02:47.583+03:00,2025-04-17T15:44:39.500+03:00,7191,1.094987,0,0,5932.107,4,10,2025-04-18T11:02:11.472+03:00,766656172.849466,0,107.08,100.5709,1,0.65,2025-04-18T11:02:44.169+03:00,93,1.55,2025-04-18T08:51:18.885+03:00,0.03057091307199995,1
2025-04-18T11:02:55.196+03:00,1744963372.750369,40.95361464921299,29.14100394799852,93.71502,-1,-1,-1,-1,30,27.41004683147841,-9999,62861.0208395,-0.653289794921875,0.523956298828125,0.37445068359375,62861.0107635,1.261711674375499,-1.534473538291019,-0.7041585697972075,0.2589347064495087,1.382016181945801,-0.4979687035083771,0.09089285135269165,-0.06171464920043945,0.3870373368263245,XArbitraryZVertical,-0.1838635975746336,0.6725737076187988,-0.5918405003299568,-0.4044301426989476,-0.7616540193557739,0.647392749786377,-0.02767757140100002,0,0,0,-1,-1,62853.41249675,unknown,2,2025-04-18T11:02:47.583+03:00,2025-04-17T15:44:39.500+03:00,7191,1.094987,0,0,5932.107,4,10,2025-04-18T11:02:11.472+03:00,766656172.849466,0,107.08,100.5709,1,0.65,2025-04-18T11:02:44.169+03:00,93,1.55,2025-04-18T08:51:18.885+03:00,0.03057091307199995,1
2025-04-18T11:02:55.214+03:00,1744963372.750369,40.95361464921299,29.14100394799852,93.71502,-1,-1,-1,-1,30,27.41004683147841,-9999,62861.03091450001,-0.6587677001953125,0.4922332763671875,0.3833160400390625,62861.0208395,1.264448336443015,-1.518381211362335,-0.6991311224411604,0.2063069492578506,1.465092658996582,-0.4821647107601166,0.1098552346229553,-0.114698588848114,0.4113924503326416,XArbitraryZVertical,-0.1817441915079974,0.6685199527862836,-0.5929204432976611,-0.4104819041189035,-0.7643503546714783,0.6435528993606567,-0.04010024294257164,0,0,0,-1,-1,62853.41249675,unknown,2,2025-04-18T11:02:47.583+03:00,2025-04-17T15:44:39.500+03:00,7191,1.094987,0,0,5932.107,4,10,2025-04-18T11:02:11.472+03:00,766656172.849466,0,107.08,100.5709,1,0.65,2025-04-18T11:02:44.169+03:00,93,1.55,2025-04-18T08:51:18.885+03:00,0.03057091307199995,1
2025-04-18T11:02:55.218+03:00,1744963372.750369,40.95361464921299,29.14100394799852,93.71502,-1,-1,-1,-1,30,27.41004683147841,-9999,62861.04099050001,-0.6680755615234375,0.488525390625,0.3399658203125,62861.03091450001,1.26598840421402,-1.502020635736093,-0.694297009902619,0.06532219052314758,1.593812108039856,-0.4607874751091003,0.1094908714294434,-0.1450484991073608,0.4389364719390869,XArbitraryZVertical,-0.1790719548011385,0.664474881809347,-0.5938142785786772,-0.4168826942359539,-0.7666871547698975,0.6398453712463379,-0.05281273275613785,0,0,0,-1,-1,62853.41249675,unknown,2,2025-04-18T11:02:47.583+03:00,2025-04-17T15:44:39.500+03:00,7191,1.094987,0,0,5932.107,4,10,2025-04-18T11:02:11.472+03:00,766656172.849466,0,107.08,100.5709,1,0.65,2025-04-18T11:02:44.169+03:00,93,1.55,2025-04-18T08:51:18.885+03:00,0.03057091307199995,1
2025-04-18T11:02:55.226+03:00,1744963372.750369,40.95361464921299,29.14100394799852,93.71502,-1,-1,-1,-1,30,27.41004683147841,-9999,62861.0510665,-0.656341552734375,0.4989166259765625,0.29083251953125,62861.04099050001,1.265150590598653,-1.485716818714913,-0.689890213161927,-0.1148731485009193,1.740845799446106,-0.4184908866882324,0.1014118194580078,-0.1496666073799133,0.4121780395507812,XArbitraryZVertical,-0.1754785859105406,0.6606324552418382,-0.5942720598988087,-0.4238075931850185,-0.7685261368751526,0.6364524960517883,-0.06554404646158218,0,0,0,-1,-1,62853.41249675,unknown,2,2025-04-18T11:02:47.583+03:00,2025-04-17T15:44:39.500+03:00,7191,1.094987,0,0,5932.107,4,10,2025-04-18T11:02:11.472+03:00,766656172.849466,0,107.08,100.5709,1,0.65,2025-04-18T11:02:44.169+03:00,93,1.55,2025-04-18T08:51:18.885+03:00,0.03057091307199995,1
2025-04-18T11:02:55.236+03:00,1744963372.750369,40.95361464921299,29.14100394799852,93.71502,-1,-1,-1,-1,30,27.41004683147841,-9999,62861.0611415,-0.6169281005859375,0.4994049072265625,0.2138519287109375,62861.0510665,1.26219599389378,-1.46955956013072,-0.686163484290192,-0.2526690363883972,1.832594633102417,-0.3565978109836578,0.1101447939872742,-0.1351299285888672,0.3759667277336121,XArbitraryZVertical,-0.1710003816108324,0.6570107791078255,-0.5943612869035398,-0.431080724750877,-0.7697213888168335,0.633573591709137,-0.07819141447544098,0,0,0,-1,-1,62853.41249675,unknown,2,2025-04-18T11:02:47.583+03:00,2025-04-17T15:44:39.500+03:00,7191,1.094987,0,0,5932.107,4,10,2025-04-18T11:02:11.472+03:00,766656172.849466,0,107.08,100.5709,1,0.65,2025-04-18T11:02:44.169+03:00,93,1.55,2025-04-18T08:51:18.885+03:00,0.03057091307199995,1
2025-04-18T11:02:55.247+03:00,1744963372.750369,40.95361464921299,29.14100394799852,93.71502,-1,-1,-1,-1,30,27.41004683147841,-9999,62861.0712175,-0.578125,0.5070037841796875,0.137237548828125,62861.0611415,1.258118009375223,-1.453514335455868,-0.6832131135515647,-0.3059192001819611,1.856452584266663,-0.2933370769023895,0.1474178433418274,-0.1324631571769714,0.3152673840522766,XArbitraryZVertical,-0.1659271206213141,0.6535238762124705,-0.5942942775647899,-0.4383936632050214,-0.7702205181121826,0.6312882304191589,-0.09074946492910385,0,0,0,-1,-1,62853.41249675,unknown,2,2025-04-18T11:02:47.583+03:00,2025-04-17T15:44:39.500+03:00,7191,1.094987,0,0,5932.107,4,10,2025-04-18T11:02:11.472+03:00,766656172.849466,0,107.08,100.5709,1,0.65,2025-04-18T11:02:44.169+03:00,93,1.55,2025-04-18T08:51:18.885+03:00,0.03057091307199995,1
2025-04-18T11:02:55.257+03:00,1744963372.750369,40.95361464921299,29.14100394799852,93.71502,-1,-1,-1,-1,30,27.41004683147841,-9999,62861.08129350001,-0.5608978271484375,0.5012664794921875,0.118194580078125,62861.0712175,1.253654713708882,-1.437715971834072,-0.6808519803407465,-0.296588271856308,1.840703725814819,-0.2605230808258057,0.1881958246231079,-0.1231075525283813,0.246871754527092,XArbitraryZVertical,-0.1606070395988059,0.6501182107763095,-0.5941760093572237,-0.4455409181922814,-0.7701662182807922,0.6294552683830261,-0.1031033843755722,0,0,0,-1,-1,62853.41249675,unknown,2,2025-04-18T11:02:47.583+03:00,2025-04-17T15:44:39.500+03:00,7191,1.094987,0,0,5932.107,4,10,2025-04-18T11:02:11.472+03:00,766656172.849466,0,107.08,100.5709,1,0.65,2025-04-18T11:02:44.169+03:00,93,1.55,2025-04-18T08:51:18.885+03:00,0.03057091307199995,1
2025-04-18T11:02:55.267+03:00,1744963372.750369,40.95361464921299,29.14100394799852,93.71502,-1,-1,-1,-1,30,27.41004683147841,-9999,62861.09136850001,-0.568511962890625,0.48321533203125,0.14422607421875,62861.08129350001,1.25020691865524,-1.421262819519362,-0.6789651630534425,-0.1789511293172836,1.866294264793396,-0.1822136044502258,0.2077404260635376,-0.1243106722831726,0.2338876873254776,XArbitraryZVertical,-0.1552658413249335,0.6464703507625764,-0.5943680522630562,-0.452432482113994,-0.7695384621620178,0.6279880404472351,-0.1159372106194496,0,0,0,-1,-1,62853.41249675,unknown,2,2025-04-18T11:02:47.583+03:00,2025-04-17T15:44:39.500+03:00,7191,1.094987,0,0,5932.107,4,10,2025-04-18T11:02:11.472+03:00,766656172.849466,0,107.08,100.5709,1,0.65,2025-04-18T11:02:44.169+03:00,93,1.55,2025-04-18T08:51:18.885+03:00,0.03057091307199995,1
2025-04-18T11:02:55.277+03:00,1744963372.750369,40.95361464921299,29.14100394799852,93.71502,-1,-1,-1,-1,30,27.41004683147841,-9999,62861.1014445,-0.5987701416015625,0.486785888671875,0.228240966796875,62861.09136850001,1.247880512466063,-1.40358972403253,-0.677684468984269,-0.136216789484024,1.930754423141479,-0.1305714845657349,0.2024271488189697,-0.1430278420448303,0.2673171758651733,XArbitraryZVertical,-0.1497148373286806,0.6424634740378479,-0.594962196867876,-0.4591799854606339,-0.7681620717048645,0.6269908547401428,-0.1296523064374924,0,0,0,-1,-1,62853.41249675,unknown,2,2025-04-18T11:02:47.583+03:00,2025-04-17T15:44:39.500+03:00,7191,1.094987,0,0,5932.107,4,10,2025-04-18T11:02:11.472+03:00,766656172.849466,0,107.08,100.5709,1,0.65,2025-04-18T11:02:44.169+03:00,93,1.55,2025-04-18T08:51:18.885+03:00,0.03057091307199995,1
2025-04-18T11:02:55.287+03:00,1744963372.750369,40.95361464921299,29.14100394799852,93.71502,-1,-1,-1,-1,30,27.41004683147841,-9999,62861.1115205,-0.6271514892578125,0.4465179443359375,0.2699432373046875,62861.1014445,1.245793167441202,-1.385147168556731,-0.6768420574950542,-0.1814417839050293,1.99468207359314,-0.08881152421236038,0.1717835664749146,-0.1394110321998596,0.3609806299209595,XArbitraryZVertical,-0.1438565160563433,0.6382463580198917,-0.5956885117848238,-0.4659423402731,-0.7661593556404114,0.6263343691825867,-0.1438937783241272,0,0,0,-1,-1,62853.41249675,unknown,2,2025-04-18T11:02:47.583+03:00,2025-04-17T15:44:39.500+03:00,7191,1.094987,0,0,5932.107,4,10,2025-04-18T11:02:11.472+03:00,766656172.849466,0,107.08,100.5709,1,0.65,2025-04-18T11:02:44.169+03:00,93,1.55,2025-04-18T08:51:18.885+03:00,0.03057091307199995,1
2025-04-18T11:02:55.297+03:00,1744963372.750369,40.95361464921299,29.14100394799852,93.71502,-1,-1,-1,-1,30,27.41004683147841,-9999,62861.1215965,-0.6146087646484375,0.3551788330078125,0.234375,62861.1115205,1.24120531667823,-1.367408190431929,-0.6770261984087141,-0.5643765926361084,2.093540906906128,-0.01072241272777319,0.1386021375656128,-0.1711099147796631,0.4265267848968506,XArbitraryZVertical,-0.1370466234419355,0.6344282744018834,-0.5958885010942507,-0.4729015704247734,-0.7633732557296753,0.6264778971672058,-0.1574379801750183,0,0,0,-1,-1,62853.41249675,unknown,2,2025-04-18T11:02:47.583+03:00,2025-04-17T15:44:39.500+03:00,7191,1.094987,0,0,5932.107,4,10,2025-04-18T11:02:11.472+03:00,766656172.849466,0,107.08,100.5709,1,0.65,2025-04-18T11:02:44.169+03:00,93,1.55,2025-04-18T08:51:18.885+03:00,0.03057091307199995,1
2025-04-18T11:02:55.307+03:00,1744963372.750369,40.95361464921299,29.14100394799852,93.71502,-1,-1,-1,-1,30,27.41004683147841,-9999,62861.13167150001,-0.554534912109375,0.255218505859375,0.1228179931640625,62861.1215965,1.231035653510364,-1.352587641674583,-0.6791067386302615,-1.067867755889893,2.104419708251953,0.08761534094810486,0.1404346227645874,-0.2603307962417603,0.4106084108352661,XArbitraryZVertical,-0.1286676608302342,0.6318377483676711,-0.5947970738411839,-0.4800440505750423,-0.7596821784973145,0.62809818983078,-0.1684513837099075,0,0,0,-1,-1,62853.41249675,unknown,2,2025-04-18T11:02:47.583+03:00,2025-04-17T15:44:39.500+03:00,7191,1.094987,0,0,5932.107,4,10,2025-04-18T11:02:11.472+03:00,766656172.849466,0,107.08,100.5709,1,0.65,2025-04-18T11:02:44.169+03:00,93,1.55,2025-04-18T08:51:18.885+03:00,0.03057091307199995,1
2025-04-18T11:02:55.317+03:00,1744963372.750369,40.95361464921299,29.14100394799852,93.71502,-1,-1,-1,-1,30,27.41004683147841,-9999,62861.14174750001,-0.4791259765625,0.24713134765625,-0.02130126953125,62861.13167150001,1.21443172999644,-1.342130703309942,-0.6835656794838787,-1.615437984466553,2.046399116516113,0.2113012671470642,0.1914079189300537,-0.3653872609138489,0.3154894113540649,XArbitraryZVertical,-0.1187113911484174,0.6308984978797544,-0.5921687387413465,-0.4870431490572514,-0.755143940448761,0.6315615773200989,-0.1757493764162064,0,0,0,-1,-1,62853.41249675,unknown,2,2025-04-18T11:02:47.583+03:00,2025-04-17T15:44:39.500+03:00,7191,1.094987,0,0,5932.107,4,10,2025-04-18T11:02:11.472+03:00,766656172.849466,0,107.08,100.5709,1,0.65,2025-04-18T11:02:44.169+03:00,93,1.55,2025-04-18T08:51:18.885+03:00,0.03057091307199995,1
2025-04-18T11:02:55.327+03:00,1744963372.750369,40.95361464921299,29.14100394799852,93.71502,-1,-1,-1,-1,30,27.41004683147841,-9999,62861.1518235,-0.44598388671875,0.4423675537109375,-0.1713409423828125,62861.14174750001,1.192197193234288,-1.336134057493898,-0.6904548475349933,-1.979976773262024,1.915243864059448,0.327797532081604,0.2619879245758057,-0.3999647498130798,0.176985040307045,XArbitraryZVertical,-0.1074203145841833,0.6315311580059214,-0.5882012869921331,-0.4936075849650403,-0.7498266696929932,0.6368879079818726,-0.1792585402727127,0,0,0,-1,-1,62853.41249675,unknown,2,2025-04-18T11:02:47.583+03:00,2025-04-17T15:44:39.500+03:00,7191,1.094987,0,0,5932.107,4,10,2025-04-18T11:02:11.472+03:00,766656172.849466,0,107.08,100.5709,1,0.65,2025-04-18T11:02:44.169+03:00,93,1.55,2025-04-18T08:51:18.885+03:00,0.03057091307199995,1
2025-04-18T11:02:55.337+03:00,1744963372.750369,40.95361464921299,29.14100394799852,93.71502,-1,-1,-1,-1,30,27.41004683147841,-9999,62861.1618985,-0.5255584716796875,0.6424713134765625,-0.1793975830078125,62861.1518235,1.169224708709887,-1.332593956390891,-0.698640933723138,-1.695758461952209,1.717015862464905,0.4422107040882111,0.298539400100708,-0.2330976724624634,0.0240442305803299,XArbitraryZVertical,-0.09613001012361302,0.6327884354747531,-0.5840486858898416,-0.4992243674375333,-0.744096040725708,0.6431776285171509,-0.1806756407022476,0,0,0,-1,-1,62853.41249675,unknown,2,2025-04-18T11:02:47.583+03:00,2025-04-17T15:44:39.500+03:00,7191,1.094987,0,0,5932.107,4,10,2025-04-18T11:02:11.472+03:00,766656172.849466,0,107.08,100.5709,1,0.65,2025-04-18T11:02:44.169+03:00,93,1.55,2025-04-18T08:51:18.885+03:00,0.03057091307199995,1
2025-04-18T11:02:55.347+03:00,1744963372.750369,40.95361464921299,29.14100394799852,93.71502,-1,-1,-1,-1,30,27.41004683147841,-9999,62861.1719745,-0.7154388427734375,0.591583251953125,0.0063934326171875,62861.1618985,1.154059754410871,-1.325273307953771,-0.7067954219771498,-0.9396750926971436,1.726830363273621,0.566655695438385,0.2286081314086914,-0.01977682113647461,-0.005806192755699158,XArbitraryZVertical,-0.08620436096306466,0.6325743371980804,-0.5819471938253967,-0.5037420463923388,-0.7376413345336914,0.6494001746177673,-0.1848370283842087,0,0,0,-1,-1,62853.41249675,unknown,2,2025-04-18T11:02:47.583+03:00,2025-04-17T15:44:39.500+03:00,7191,1.094987,0,0,5932.107,4,10,2025-04-18T11:02:11.472+03:00,766656172.849466,0,107.08,100.5709,1,0.65,2025-04-18T11:02:44.169+03:00,93,1.55,2025-04-18T08:51:18.885+03:00,0.03057091307199995,1
2025-04-18T11:02:55.357+03:00,1744963372.750369,40.95361464921299,29.14100394799852,93.71502,-1,-1,-1,-1,30,27.41004683147841,-9999,62861.18205050001,-0.9245147705078125,0.35736083984375,0.2617034912109375,62861.1719745,1.146114087054527,-1.31151887346309,-0.7143099275241798,-0.6475828289985657,2.069850921630859,0.5831326842308044,0.04241031408309937,-0.04393589496612549,0.1704235672950745,XArbitraryZVertical,-0.07692219590798255,0.6302608580975493,-0.5817463176972109,-0.5083557110997753,-0.7302918434143066,0.655096173286438,-0.1937084496021271,0,0,0,-1,-1,62853.41249675,unknown,2,2025-04-18T11:02:47.583+03:00,2025-04-17T15:44:39.500+03:00,7191,1.094987,0,0,5932.107,4,10,2025-04-18T11:02:11.472+03:00,766656172.849466,0,107.08,100.5709,1,0.65,2025-04-18T11:02:44.169+03:00,93,1.55,2025-04-18T08:51:18.885+03:00,0.03057091307199995,1
2025-04-18T11:02:55.367+03:00,1744963372.750369,40.95361464921299,29.14100394799852,93.71502,-1,-1,-1,-1,30,27.41004683147841,-9999,62861.19212550001,-0.891876220703125,0.15936279296875,-0.2653045654296875,62861.18205050001,1.154415387259826,-1.278984596599589,-0.7213888127887703,1.862549066543579,3.516057252883911,1.240451693534851,-0.185823380947113,-0.2681093811988831,0.4534485340118408,XArbitraryZVertical,-0.06739665878896862,0.622452266943931,-0.5861807463911582,-0.5142014231062705,-0.7191449403762817,0.6604281663894653,-0.2160217314958572,0,0,0,-1,-1,62853.41249675,unknown,2,2025-04-18T11:02:47.583+03:00,2025-04-17T15:44:39.500+03:00,7191,1.094987,0,0,5932.107,4,10,2025-04-18T11:02:11.472+03:00,766656172.849466,0,107.08,100.5709,1,0.65,2025-04-18T11:02:44.169+03:00,93,1.55,2025-04-18T08:51:18.885+03:00,0.03057091307199995,1
2025-04-18T11:02:55.377+03:00,1744963372.750369,40.95361464921299,29.14100394799852,93.71502,-1,-1,-1,-1,30,27.41004683147841,-9999,62861.2022015,-0.75537109375,0.9442138671875,-3.234176635742188,62861.19212550001,1.216848331424472,-1.205014304747392,-0.7165564824816519,6.817591190338135,3.450613021850586,0.8397938013076782,-0.2081066966056824,-0.4943925738334656,0.1859150528907776,XArbitraryZVertical,-0.06627854897036638,0.6006238718004221,-0.6040902729970566,-0.5195509480507403,-0.7041858434677124,0.6567919254302979,-0.2697162330150604,0,0,0,-1,-1,62853.41249675,unknown,2,2025-04-18T11:02:47.583+03:00,2025-04-17T15:44:39.500+03:00,7191,1.094987,0,0,5932.107,4,10,2025-04-18T11:02:11.472+03:00,766656172.849466,0,107.08,100.5709,1,0.65,2025-04-18T11:02:44.169+03:00,93,1.55,2025-04-18T08:51:18.885+03:00,0.03057091307199995,1
2025-04-18T11:02:55.387+03:00,1744963372.750369,40.95361464921299,29.14100394799852,93.71502,-1,-1,-1,-1,30,27.41004683147841,-9999,62861.2122775,-0.43109130859375,3.528030395507812,-3.571136474609375,62861.2022015,1.310221279087116,-1.121446481777517,-0.6953754538920769,7.430218696594238,0.7231118679046631,0.6782216429710388,-0.08576679229736328,0.08988654613494873,-2.461460113525391,XArbitraryZVertical,-0.07579538575146645,0.5722706334360075,-0.6287660859225772,-0.5209747837887962,-0.691592276096344,0.6406737565994263,-0.333522766828537,0,0,0,-1,-1,62853.41249675,unknown,2,2025-04-18T11:02:47.583+03:00,2025-04-17T15:44:39.500+03:00,7191,1.094987,0,0,5932.107,4,10,2025-04-18T11:02:11.472+03:00,766656172.849466,0,107.08,100.5709,1,0.65,2025-04-18T11:02:44.169+03:00,93,1.55,2025-04-18T08:51:18.885+03:00,0.03057091307199995,1
2025-04-18T11:02:55.397+03:00,1744963372.750369,40.95361464921299,29.14100394799852,93.71502,-1,-1,-1,-1,30,27.41004683147841,-9999,62861.2223535,-0.37335205078125,3.595306396484375,-0.006317138671875,62861.2122775,1.383996292082017,-1.070133420428811,-0.6663613638250648,4.378879547119141,0.1388260573148727,-0.8237417936325073,0.2195954322814941,2.601642608642578,-3.561413764953613,XArbitraryZVertical,-0.09083799944437605,0.5505337234577075,-0.6471129593287849,-0.5195247249545594,-0.6895966529846191,0.6181298494338989,-0.3773221671581268,0,0,0,-1,-1,62853.41249675,unknown,2,2025-04-18T11:02:47.583+03:00,2025-04-17T15:44:39.500+03:00,7191,1.094987,0,0,5932.107,4,10,2025-04-18T11:02:11.472+03:00,766656172.849466,0,107.08,100.5709,1,0.65,2025-04-18T11:02:44.169+03:00,93,1.55,2025-04-18T08:51:18.885+03:00,0.03057091307199995,1
2025-04-18T11:02:55.407+03:00,1744963372.750369,40.95361464921299,29.14100394799852,93.71502,-1,-1,-1,-1,30,27.41004683147841,-9999,62861.23242850001,-0.07177734375,0.4856719970703125,-0.5738525390625,62861.2223535,1.402734280614831,-1.065100281455037,-0.6430119481741152,0.8371044397354126,-1.67941153049469,-1.458897233009338,0.3288803696632385,3.250061988830566,0.1307021379470825,XArbitraryZVertical,-0.1028565081271473,0.5436753354485038,-0.6499901451288017,-0.5209131760186806,-0.7001267075538635,0.5996086001396179,-0.3876753449440002,0,0,0,-1,-1,62853.41249675,unknown,2,2025-04-18T11:02:47.583+03:00,2025-04-17T15:44:39.500+03:00,7191,1.094987,0,0,5932.107,4,10,2025-04-18T11:02:11.472+03:00,766656172.849466,0,107.08,100.5709,1,0.65,2025-04-18T11:02:44.169+03:00,93,1.55,2025-04-18T08:51:18.885+03:00,0.03057091307199995,1
2025-04-18T11:02:55.418+03:00,1744963372.750369,40.95361464921299,29.14100394799852,93.71502,-1,-1,-1,-1,30,27.41004683147841,-9999,62861.24250450001,-0.0607757568359375,-1.481460571289062,-0.8460540771484375,62861.23242850001,1.405750358500418,-1.086439109807568,-0.6301783665946395,1.258826017379761,-2.667496919631958,-0.6346471309661865,0.5809879899024963,0.2814844846725464,-0.03336042165756226,XArbitraryZVertical,-0.1152652087278807,0.5464554651043261,-0.6483394449278672,-0.5174518550687341,-0.7149907350540161,0.5892888903617859,-0.3762007057666779,0,0,0,-1,-1,62853.41249675,unknown,2,2025-04-18T11:02:47.583+03:00,2025-04-17T15:44:39.500+03:00,7191,1.094987,0,0,5932.107,4,10,2025-04-18T11:02:11.472+03:00,766656175.408429,0,107.1,100.5702,1,0.65,2025-04-18T11:02:44.169+03:00,93,1.55,2025-04-18T08:51:18.885+03:00,0.03057091307199995,1
2025-04-18T11:02:55.428+03:00,1744963372.750369,40.95361464921299,29.14100394799852,93.71502,-1,-1,-1,-1,30,27.41004683147841,-9999,62861.2525805,-1.14337158203125,-1.015151977539062,-0.3626556396484375,62861.24250450001,1.422987346694469,-1.095517230058723,-0.6189869313944857,1.978806018829346,-0.8142354488372803,0.000995329231955111,0.7400339245796204,-1.935587525367737,-0.5241919755935669,XArbitraryZVertical,-0.1269599115823107,0.5454691880207302,-0.6510816896409775,-0.5122863262165461,-0.7241953611373901,0.5802103281021118,-0.3726890981197357,0,0,0,-1,-1,62853.41249675,unknown,2,2025-04-18T11:02:47.583+03:00,2025-04-17T15:44:39.500+03:00,7191,1.094987,0,0,5932.107,4,10,2025-04-18T11:02:11.472+03:00,766656175.408429,0,107.1,100.5702,1,0.65,2025-04-18T11:02:44.169+03:00,93,1.55,2025-04-18T08:51:18.885+03:00,0.03057091307199995,1
2025-04-18T11:02:55.438+03:00,1744963375.401118,40.95363089398558,29.14099834300546,93.83311,-1,-1,-1,-1,30,31.18740463441822,-9999,62861.2626555,-1.617034912109375,0.8529815673828125,-0.0438690185546875,62861.2525805,1.439475258037513,-1.08275380967372,-0.6139687812504208,0.7940505146980286,1.289211392402649,0.2198654264211655,-0.2833830714225769,-1.788777589797974,-0.03414201736450195,XArbitraryZVertical,-0.1290672290899696,0.5401023932666885,-0.6556118879162877,-0.5116680539160193,-0.7219423055648804,0.5761159658432007,-0.3832620978355408,0,0,0,-1,-1,62853.41249675,unknown,2,2025-04-18T11:02:47.583+03:00,2025-04-17T15:44:39.500+03:00,7191,1.094987,0,0,5932.107,4,10,2025-04-18T11:02:11.472+03:00,766656175.408429,0,107.1,100.5702,1,0.65,2025-04-18T11:02:44.169+03:00,93,1.55,2025-04-18T08:51:18.885+03:00,0.03057091307199995,1
2025-04-18T11:02:55.448+03:00,1744963375.401118,40.95363089398558,29.14099834300546,93.83311,-1,-1,-1,-1,30,31.18740463441822,-9999,62861.2727315,-0.937408447265625,0.990997314453125,-0.1600494384765625,62861.2626555,1.446285563245401,-1.065333274763441,-0.613838307434917,0.2867165207862854,1.084828972816467,0.3303746283054352,-0.914019763469696,0.09510272741317749,0.3338198959827423,XArbitraryZVertical,-0.1252218273061363,0.5351741184261212,-0.6584532224983517,-0.5141473933656266,-0.715222179889679,0.5760092735290527,-0.3958163261413574,0,0,0,-1,-1,62853.41249675,unknown,2,2025-04-18T11:02:47.583+03:00,2025-04-17T15:44:39.500+03:00,7191,1.094987,0,0,5932.107,4,10,2025-04-18T11:02:11.472+03:00,766656175.408429,0,107.1,100.5702,1,0.65,2025-04-18T11:02:44.169+03:00,93,1.55,2025-04-18T08:51:18.885+03:00,0.03057091307199995,1
2025-04-18T11:02:55.458+03:00,1744963375.401118,40.95363089398558,29.14099834300546,93.83311,-1,-1,-1,-1,30,31.18740463441822,-9999,62861.28280750001,-0.310516357421875,0.1138916015625,-0.4376068115234375,62861.2727315,1.449955778045078,-1.058428175564749,-0.6162131927824278,0.03989366441965103,-0.05615054816007614,0.3647127449512482,-0.3450730443000793,0.5083547234535217,0.271228551864624,XArbitraryZVertical,-0.1230748065532175,0.5336812839883637,-0.6600493588001561,-0.5141709381722243,-0.7112777233123779,0.5779489874839783,-0.400073766708374,0,0,0,-1,-1,62853.41249675,unknown,2,2025-04-18T11:02:47.583+03:00,2025-04-17T15:44:39.500+03:00,7191,1.094987,0,0,5932.107,4,10,2025-04-18T11:02:11.472+03:00,766656175.408429,0,107.1,100.5702,1,0.65,2025-04-18T11:02:44.169+03:00,93,1.55,2025-04-18T08:51:18.885+03:00,0.03057091307199995,1
2025-04-18T11:02:55.468+03:00,1744963375.401118,40.95363089398558,29.14099834300546,93.83311,-1,-1,-1,-1,30,31.18740463441822,-9999,62861.29288250001,-0.696502685546875,0.3527984619140625,-0.6359100341796875,62861.28280750001,1.452432468255834,-1.057557790226549,-0.6194384314795772,0.04892630502581596,0.1408488005399704,0.3771425187587738,0.3779569864273071,-0.3987085223197937,-0.002064764499664307,XArbitraryZVertical,-0.1222920332854017,0.5340009128751433,-0.6610377397048088,-0.5127541390152186,-0.7093016505241394,0.5805780291557312,-0.399775356054306,0,0,0,-1,-1,62853.41249675,unknown,2,2025-04-18T11:02:47.583+03:00,2025-04-17T15:44:39.500+03:00,7191,1.094987,0,0,5932.107,4,10,2025-04-18T11:02:11.472+03:00,766656175.408429,0,107.1,100.5702,1,0.65,2025-04-18T11:02:44.169+03:00,93,1.55,2025-04-18T08:51:18.885+03:00,0.03057091307199995,1
2025-04-18T11:02:55.478+03:00,1744963375.401118,40.95363089398558,29.14099834300546,93.83311,-1,-1,-1,-1,30,31.18740463441822,-9999,62861.3029585,-1.025726318359375,0.9595184326171875,-0.57275390625,62861.29288250001,1.455698073309476,-1.05117451408748,-0.621484897092812,0.1752042025327682,0.6550770998001099,0.2379058748483658,0.08741641044616699,-0.3179761171340942,-0.2228218019008636,XArbitraryZVertical,-0.1203171539862867,0.5326084539979302,-0.6624490391483704,-0.5128482008511318,-0.705702543258667,0.582243025302887,-0.403704047203064,0,0,0,-1,-1,62853.41249675,unknown,2,2025-04-18T11:02:47.583+03:00,2025-04-17T15:44:39.500+03:00,7191,1.094987,0,0,5932.107,4,10,2025-04-18T11:02:11.472+03:00,766656175.408429,0,107.1,100.5702,1,0.65,2025-04-18T11:02:44.169+03:00,93,1.55,2025-04-18T08:51:18.885+03:00,0.03057091307199995,1
2025-04-18T11:02:55.488+03:00,1744963375.401118,40.95363089398558,29.14099834300546,93.83311,-1,-1,-1,-1,30,31.18740463441822,-9999,62861.3130345,-0.669952392578125,0.7804107666015625,-0.463287353515625,62861.3029585,1.458727828513644,-1.044015846738165,-0.6227184150486579,0.1081149280071259,0.3614518642425537,0.2273823916912079,-0.3300076723098755,0.339773952960968,-0.1790791749954224,XArbitraryZVertical,-0.118306950363499,0.5308590980443326,-0.6637637265143175,-0.5134294966342062,-0.7021731734275818,0.5832454562187195,-0.4083841741085052,0,0,0,-1,-1,62853.41249675,unknown,2,2025-04-18T11:02:47.583+03:00,2025-04-17T15:44:39.500+03:00,7191,1.094987,0,0,5932.107,4,10,2025-04-18T11:02:11.472+03:00,766656175.408429,0,107.1,100.5702,1,0.65,2025-04-18T11:02:44.169+03:00,93,1.55,2025-04-18T08:51:18.885+03:00,0.03057091307199995,1
2025-04-18T11:02:55.499+03:00,1744963375.401118,40.95363089398558,29.14099834300546,93.83311,-1,-1,-1,-1,30,31.18740463441822,-9999,62861.3231105,-0.6080780029296875,0.4014892578125,-0.399017333984375,62861.3130345,1.460730147578372,-1.040401826442177,-0.6244090001326282,0.001085879164747894,0.190433457493782,0.2335125654935837,-0.01793235540390015,0.2495648860931396,-0.06376230716705322,XArbitraryZVertical,-0.1170317703096593,0.5301826780285129,-0.6646388693349705,-0.5132885682373501,-0.6998411417007446,0.5846179127693176,-0.4104197919368744,0,0,0,-1,-1,62853.41249675,unknown,2,2025-04-18T11:02:47.583+03:00,2025-04-17T15:44:39.500+03:00,7191,1.094987,0,0,5932.107,4,10,2025-04-18T11:02:11.472+03:00,766656175.408429,0,107.1,100.5702,1,0.65,2025-04-18T11:02:44.169+03:00,93,1.55,2025-04-18T08:51:18.885+03:00,0.03057091307199995,1
2025-04-18T11:02:55.509+03:00,1744963375.401118,40.95363089398558,29.14099834300546,93.83311,-1,-1,-1,-1,30,31.18740463441822,-9999,62861.33318550001,-0.7624969482421875,0.419921875,-0.381683349609375,62861.3231105,1.461505211232655,-1.037436892099622,-0.6268698718076732,-0.1350229531526566,0.3083009719848633,0.24630506336689,0.1087418794631958,-0.1565284729003906,0.008180588483810425,XArbitraryZVertical,-0.1153691161132294,0.5299149559272517,-0.6652235327724588,-0.5131839257887186,-0.6973801851272583,0.5866126418113708,-0.4117602109909058,0,0,0,-1,-1,62853.41249675,unknown,2,2025-04-18T11:02:47.583+03:00,2025-04-17T15:44:39.500+03:00,7191,1.094987,0,0,5932.107,4,10,2025-04-18T11:02:11.472+03:00,766656175.408429,0,107.1,100.5702,1,0.65,2025-04-18T11:02:44.169+03:00,93,1.55,2025-04-18T08:51:18.885+03:00,0.03057091307199995,1
2025-04-18T11:02:55.519+03:00,1744963375.401118,40.95363089398558,29.14099834300546,93.83311,-1,-1,-1,-1,30,31.18740463441822,-9999,62861.34326150001,-0.694976806640625,0.551666259765625,-0.3885955810546875,62861.33318550001,1.461117488091705,-1.034639166630628,-0.6299446492871908,-0.22565858066082,0.2727003693580627,0.2471900284290314,-0.06094366312026978,-0.1882363557815552,0.03067582845687866,XArbitraryZVertical,-0.1132325144562014,0.5298916983429849,-0.6655476201770124,-0.5132637298766436,-0.694671630859375,0.5891000032424927,-0.4127863645553589,0,0,0,-1,-1,62853.41249675,unknown,2,2025-04-18T11:02:47.583+03:00,2025-04-17T15:44:39.500+03:00,7191,1.094987,0,0,5932.107,4,10,2025-04-18T11:02:11.472+03:00,766656175.408429,0,107.1,100.5702,1,0.65,2025-04-18T11:02:44.169+03:00,93,1.55,2025-04-18T08:51:18.885+03:00,0.03057091307199995,1
2025-04-18T11:02:55.529+03:00,1744963375.401118,40.95363089398558,29.14099834300546,93.83311,-1,-1,-1,-1,30,31.18740463441822,-9999,62861.3533375,-0.634796142578125,0.534637451171875,-0.4150390625,62861.34326150001,1.459969827767289,-1.03307847196209,-0.6333411373973796,-0.2806501984596252,0.1787315309047699,0.2396394312381744,-0.01617687940597534,-0.04748386144638062,0.02700918912887573,XArbitraryZVertical,-0.1111895864717946,0.5302975178349243,-0.6656291362996398,-0.5131854776128197,-0.6923040151596069,0.5918412208557129,-0.4128428399562836,0,0,0,-1,-1,62853.41249675,unknown,2,2025-04-18T11:02:47.583+03:00,2025-04-17T15:44:39.500+03:00,7191,1.094987,0,0,5932.107,4,10,2025-04-18T11:02:11.472+03:00,766656175.408429,0,107.1,100.5702,1,0.65,2025-04-18T11:02:44.169+03:00,93,1.55,2025-04-18T08:51:18.885+03:00,0.03057091307199995,1
2025-04-18T11:02:55.539+03:00,1744963375.401118,40.95363089398558,29.14099834300546,93.83311,-1,-1,-1,-1,30,31.18740463441822,-9999,62861.3634125,-0.664093017578125,0.5076904296875,-0.42840576171875,62861.3533375,1.45806562805628,-1.032588764445364,-0.6369884472563633,-0.356304794549942,0.1511126309633255,0.2321223616600037,0.05506598949432373,-0.05362427234649658,-0.000174105167388916,XArbitraryZVertical,-0.109210868246764,0.531071304874747,-0.6654752635809895,-0.5130096105092962,-0.6902436017990112,0.5947771668434143,-0.4120725095272064,0,0,0,-1,-1,62853.41249675,unknown,2,2025-04-18T11:02:47.583+03:00,2025-04-17T15:44:39.500+03:00,7191,1.094987,0,0,5932.107,4,10,2025-04-18T11:02:11.472+03:00,766656175.408429,0,107.1,100.5702,1,0.65,2025-04-18T11:02:44.169+03:00,93,1.55,2025-04-18T08:51:18.885+03:00,0.03057091307199995,1
2025-04-18T11:02:55.549+03:00,1744963375.401118,40.95363089398558,29.14099834300546,93.83311,-1,-1,-1,-1,30,31.18740463441822,-9999,62861.3734885,-0.682373046875,0.509246826171875,-0.4300689697265625,62861.3634125,1.455306011994683,-1.032833654211821,-0.6410697034009677,-0.4364358484745026,0.1243422627449036,0.2360867410898209,0.02896773815155029,-0.08978283405303955,-0.01637613773345947,XArbitraryZVertical,-0.1070908165314778,0.5321685980467662,-0.6650970891747179,-0.5128099238370775,-0.6882542371749878,0.5980530977249146,-0.4106562733650208,0,0,0,-1,-1,62853.41249675,unknown,2,2025-04-18T11:02:47.583+03:00,2025-04-17T15:44:39.500+03:00,7191,1.094987,0,0,5932.107,4,10,2025-04-18T11:02:11.472+03:00,766656175.408429,0,107.1,100.5702,1,0.65,2025-04-18T11:02:44.169+03:00,93,1.55,2025-04-18T08:51:18.885+03:00,0.03057091307199995,1
2025-04-18T11:02:55.559+03:00,1744963375.401118,40.95363089398558,29.14099834300546,93.83311,-1,-1,-1,-1,30,31.18740463441822,-9999,62861.38356450001,-0.69134521484375,0.5076446533203125,-0.412750244140625,62861.3734885,1.45179060127392,-1.033889713694154,-0.6456061587923385,-0.5018519163131714,0.09029288589954376,0.2525361180305481,0.004494965076446533,-0.09260368347167969,-0.02188247442245483,XArbitraryZVertical,-0.1048715138599461,0.5336040313395908,-0.664520145511165,-0.512525011608325,-0.6863492727279663,0.601682722568512,-0.4085374176502228,0,0,0,-1,-1,62853.41249675,unknown,2,2025-04-18T11:02:47.583+03:00,2025-04-17T15:44:39.500+03:00,7191,1.094987,0,0,5932.107,4,10,2025-04-18T11:02:11.472+03:00,766656175.408429,0,107.1,100.5702,1,0.65,2025-04-18T11:02:44.169+03:00,93,1.55,2025-04-18T08:51:18.885+03:00,0.03057091307199995,1
2025-04-18T11:02:55.569+03:00,1744963375.401118,40.95363089398558,29.14099834300546,93.83311,-1,-1,-1,-1,30,31.18740463441822,-9999,62861.39364050001,-0.706787109375,0.5242919921875,-0.4081878662109375,62861.38356450001,1.447643301646448,-1.035486875378442,-0.6505520512276467,-0.5644317269325256,0.08964201062917709,0.2545156478881836,-0.004684567451477051,-0.09776747226715088,-0.009670674800872803,XArbitraryZVertical,-0.1025102332532391,0.535287603733723,-0.6637890658332303,-0.5121943488123415,-0.6844329237937927,0.6056258082389832,-0.4059176743030548,0,0,0,-1,-1,62853.41249675,unknown,2,2025-04-18T11:02:47.583+03:00,2025-04-17T15:44:39.500+03:00,7191,1.094987,0,0,5932.107,4,10,2025-04-18T11:02:11.472+03:00,766656175.408429,0,107.1,100.5702,1,0.65,2025-04-18T11:02:44.169+03:00,93,1.55,2025-04-18T08:51:18.885+03:00,0.03057091307199995,1
2025-04-18T11:02:55.579+03:00,1744963375.401118,40.95363089398558,29.14099834300546,93.83311,-1,-1,-1,-1,30,31.18740463441822,-9999,62861.4037155,-0.70782470703125,0.5767822265625,-0.4161224365234375,62861.39364050001,1.442967098345487,-1.037445099447366,-0.6557060877233297,-0.5847060680389404,0.09078636765480042,0.2539939284324646,-0.02331167459487915,-0.09003525972366333,-0.004791617393493652,XArbitraryZVertical,-0.1000449119821515,0.5371209618633812,-0.6629245995856998,-0.5118818252608854,-0.6825293898582458,0.6097190380096436,-0.4029841721057892,0,0,0,-1,-1,62853.41249675,unknown,2,2025-04-18T11:02:47.583+03:00,2025-04-17T15:44:39.500+03:00,7191,1.094987,0,0,5932.107,4,10,2025-04-18T11:02:11.472+03:00,766656175.408429,0,107.1,100.5702,1,0.65,2025-04-18T11:02:44.169+03:00,93,1.55,2025-04-18T08:51:18.885+03:00,0.03057091307199995,1
2025-04-18T11:02:55.589+03:00,1744963375.401118,40.95363089398558,29.14099834300546,93.83311,-1,-1,-1,-1,30,31.18740463441822,-9999,62861.4137915,-0.7043914794921875,0.6189727783203125,-0.4048004150390625,62861.4037155,1.438196426637001,-1.039433695229237,-0.66078420782744,-0.565534770488739,0.08563794940710068,0.2337283343076706,-0.02802783250808716,-0.04391199350357056,-0.01634493470191956,XArbitraryZVertical,-0.09758365507461382,0.5389354227297146,-0.6620318235606347,-0.5116052469667699,-0.6806513667106628,0.6137361526489258,-0.4000520706176758,0,0,0,-1,-1,62853.41249675,unknown,2,2025-04-18T11:02:47.583+03:00,2025-04-17T15:44:39.500+03:00,7191,1.094987,0,0,5932.107,4,10,2025-04-18T11:02:11.472+03:00,766656175.408429,0,107.1,100.5702,1,0.65,2025-04-18T11:02:44.169+03:00,93,1.55,2025-04-18T08:51:18.885+03:00,0.03057091307199995,1
2025-04-18T11:02:55.599+03:00,1744963375.401118,40.95363089398558,29.14099834300546,93.83311,-1,-1,-1,-1,30,31.18740463441822,-9999,62861.4238675,-0.68994140625,0.625,-0.3843231201171875,62861.4137915,1.433575051964775,-1.04156398841441,-0.6656347806224485,-0.5524197220802307,0.0574369989335537,0.2326865494251251,-0.0260012149810791,-0.002400398254394531,-0.01065176725387573,XArbitraryZVertical,-0.09528412779881573,0.5407163350321365,-0.6611551577148651,-0.5112932336419512,-0.6789243817329407,0.6175585389137268,-0.3970935642719269,0,0,0,-1,-1,62853.41249675,unknown,2,2025-04-18T11:02:47.583+03:00,2025-04-17T15:44:39.500+03:00,7191,1.094987,0,0,5932.107,4,10,2025-04-18T11:02:11.472+03:00,766656175.408429,0,107.1,100.5702,1,0.65,2025-04-18T11:02:44.169+03:00,93,1.55,2025-04-18T08:51:18.885+03:00,0.03057091307199995,1
2025-04-18T11:02:55.609+03:00,1744963375.401118,40.95363089398558,29.14099834300546,93.83311,-1,-1,-1,-1,30,31.18740463441822,-9999,62861.433944125,-0.6729736328125,0.6057586669921875,-0.385650634765625,62861.4238675,1.429013560494157,-1.043861748234066,-0.6704951527786895,-0.5479746460914612,0.04072752967476845,0.2420459538698196,-0.01513504981994629,0.004465222358703613,0.008138895034790039,XArbitraryZVertical,-0.09304515299421764,0.5425250349261336,-0.6602909247463014,-0.5109062030004736,-0.677232563495636,0.6213740110397339,-0.3940183818340302,0,0,0,-1,-1,62853.41249675,unknown,2,2025-04-18T11:02:47.583+03:00,2025-04-17T15:44:39.500+03:00,7191,1.094987,0,0,5932.107,4,10,2025-04-18T11:02:11.472+03:00,766656175.408429,0,107.1,100.5702,1,0.65,2025-04-18T11:02:44.169+03:00,93,1.55,2025-04-18T08:51:18.885+03:00,0.03057091307199995,1
2025-04-18T11:02:55.619+03:00,1744963375.401118,40.95363089398558,29.14099834300546,93.83311,-1,-1,-1,-1,30,31.18740463441822,-9999,62861.444020125,-0.6685943603515625,0.5999908447265625,-0.3803558349609375,62861.433944125,1.424538465154483,-1.046357877041403,-0.6754486352146573,-0.5443427562713623,0.02197101712226868,0.2639711797237396,0.001270711421966553,-0.0173984169960022,0.004855424165725708,XArbitraryZVertical,-0.09085379360718525,0.5443852205511268,-0.6594521104181903,-0.5104049869833156,-0.6755413413047791,0.6252474784851074,-0.3907806277275085,0,0,0,-1,-1,62853.41249675,unknown,2,2025-04-18T11:02:47.583+03:00,2025-04-17T15:44:39.500+03:00,7191,1.094987,0,0,5932.107,4,10,2025-04-18T11:02:11.472+03:00,766656175.408429,0,107.1,100.5702,1,0.65,2025-04-18T11:02:44.169+03:00,93,1.55,2025-04-18T08:51:18.885+03:00,0.03057091307199995,1
2025-04-18T11:02:55.629+03:00,1744963375.401118,40.95363089398558,29.14099834300546,93.83311,-1,-1,-1,-1,30,31.18740463441822,-9999,62861.454096125,-0.6762847900390625,0.6024932861328125,-0.3685150146484375,62861.444020125,1.420287730776274,-1.048751022709577,-0.6806277315192417,-0.5360453724861145,0.03680349141359329,0.3023161590099335,0.004804849624633789,-0.02953433990478516,0.005768030881881714,XArbitraryZVertical,-0.0886002102836287,0.5462403902811136,-0.6586991671790915,-0.509790964506742,-0.6736586093902588,0.6292809844017029,-0.3875428736209869,0,0,0,-1,-1,62853.41249675,unknown,2,2025-04-18T11:02:47.583+03:00,2025-04-17T15:44:39.500+03:00,7191,1.094987,0,0,5932.107,4,10,2025-04-18T11:02:11.472+03:00,766656175.408429,0,107.1,100.5702,1,0.65,2025-04-18T11:02:44.169+03:00,93,1.55,2025-04-18T08:51:18.885+03:00,0.03057091307199995,1
2025-04-18T11:02:55.640+03:00,1744963375.401118,40.95363089398558,29.14099834300546,93.83311,-1,-1,-1,-1,30,31.18740463441822,-9999,62861.464172125,-0.689697265625,0.60626220703125,-0.3456878662109375,62861.454096125,1.416261720927175,-1.050687748409159,-0.6861630105226409,-0.5518181920051575,0.08910831063985825,0.3442874550819397,-0.003643393516540527,-0.03217858076095581,0.01420027017593384,XArbitraryZVertical,-0.08612113217295764,0.5480263732943946,-0.6580580686509834,-0.5091265663130433,-0.6713749766349792,0.6335732340812683,-0.3845005035400391,0,0,0,-1,-1,62853.41249675,unknown,2,2025-04-18T11:02:47.583+03:00,2025-04-17T15:44:39.500+03:00,7191,1.094987,0,0,5932.107,4,10,2025-04-18T11:02:11.472+03:00,766656175.408429,0,107.1,100.5702,1,0.65,2025-04-18T11:02:44.169+03:00,93,1.55,2025-04-18T08:51:18.885+03:00,0.03057091307199995,1
2025-04-18T11:02:55.650+03:00,1744963375.401118,40.95363089398558,29.14099834300546,93.83311,-1,-1,-1,-1,30,31.18740463441822,-9999,62861.47424712501,-0.7113189697265625,0.581329345703125,-0.3280487060546875,62861.464172125,1.412228022062447,-1.051790504536783,-0.6923098360088997,-0.5889666080474854,0.2135165333747864,0.4120750427246094,-0.01911097764968872,-0.03187161684036255,0.03306609392166138,XArbitraryZVertical,-0.08313607854850318,0.5497071148809251,-0.6575051091136036,-0.5085249400319842,-0.6684043407440186,0.6383169293403625,-0.381820946931839,0,0,0,-1,-1,62853.41249675,unknown,2,2025-04-18T11:02:47.583+03:00,2025-04-17T15:44:39.500+03:00,7191,1.094987,0,0,5932.107,4,10,2025-04-18T11:02:11.472+03:00,766656175.408429,0,107.1,100.5702,1,0.65,2025-04-18T11:02:44.169+03:00,93,1.55,2025-04-18T08:51:18.885+03:00,0.03057091307199995,1
2025-04-18T11:02:55.660+03:00,1744963375.401118,40.95363089398558,29.14099834300546,93.83311,-1,-1,-1,-1,30,31.18740463441822,-9999,62861.48432312501,-0.7209320068359375,0.5541229248046875,-0.352325439453125,62861.47424712501,1.408222332409404,-1.051402819138272,-0.6993028019087622,-0.6321001052856445,0.3700501024723053,0.4878951907157898,-0.04396343231201172,-0.05699914693832397,0.05189803242683411,XArbitraryZVertical,-0.0793534511312131,0.5511583054378349,-0.6570909221012761,-0.5080935544883872,-0.6643648147583008,0.6436842679977417,-0.3798550963401794,0,0,0,-1,-1,62853.41249675,unknown,2,2025-04-18T11:02:47.583+03:00,2025-04-17T15:44:39.500+03:00,7191,1.094987,0,0,5932.107,4,10,2025-04-18T11:02:11.472+03:00,766656175.408429,0,107.1,100.5702,1,0.65,2025-04-18T11:02:44.169+03:00,93,1.55,2025-04-18T08:51:18.885+03:00,0.03057091307199995,1
2025-04-18T11:02:55.670+03:00,1744963375.401118,40.95363089398558,29.14099834300546,93.83311,-1,-1,-1,-1,30,31.18740463441822,-9999,62861.494399125,-0.6943511962890625,0.567779541015625,-0.3799896240234375,62861.48432312501,1.404018314597599,-1.049884301550319,-0.7071627770078078,-0.6953542232513428,0.4594188630580902,0.5442042946815491,-0.06237751245498657,-0.09502255916595459,0.03041830658912659,XArbitraryZVertical,-0.07482076828602613,0.5524806884936571,-0.6567361089978537,-0.5078037052689407,-0.6593784689903259,0.6496794819831848,-0.3783338963985443,0,0,0,-1,-1,62853.41249675,unknown,2,2025-04-18T11:02:47.583+03:00,2025-04-17T15:44:39.500+03:00,7191,1.094987,0,0,5932.107,4,10,2025-04-18T11:02:11.472+03:00,766656175.408429,0,107.1,100.5702,1,0.65,2025-04-18T11:02:44.169+03:00,93,1.55,2025-04-18T08:51:18.885+03:00,0.03057091307199995,1
