loggingTime(txt),locationTimestamp_since1970(s),locationLatitude(WGS84),locationLongitude(WGS84),locationAltitude(m),locationSpeed(m/s),locationSpeedAccuracy(m/s),locationCourse(°),locationCourseAccuracy(°),locationVerticalAccuracy(m),locationHorizontalAccuracy(m),locationFloor(Z),accelerometerTimestamp_sinceReboot(s),accelerometerAccelerationX(G),accelerometerAccelerationY(G),accelerometerAccelerationZ(G),motionTimestamp_sinceReboot(s),motionYaw(rad),motionRoll(rad),motionPitch(rad),motionRotationRateX(rad/s),motionRotationRateY(rad/s),motionRotationRateZ(rad/s),motionUserAccelerationX(G),motionUserAccelerationY(G),motionUserAccelerationZ(G),motionAttitudeReferenceFrame(txt),motionQuaternionX(R),motionQuaternionY(R),motionQuaternionZ(R),motionQuaternionW(R),motionGravityX(G),motionGravityY(G),motionGravityZ(G),motionMagneticFieldX(µT),motionMagneticFieldY(µT),motionMagneticFieldZ(µT),motionHeading(°),motionMagneticFieldCalibrationAccuracy(Z),activityTimestamp_sinceReboot(s),activity(txt),activityActivityConfidence(Z),activityActivityStartDate(txt),pedometerStartDate(txt),pedometerNumberofSteps(N),pedometerAverageActivePace(s/m),pedometerCurrentPace(s/m),pedometerCurrentCadence(steps/s),pedometerDistance(m),pedometerFloorAscended(N),pedometerFloorDescended(N),pedometerEndDate(txt),altimeterTimestamp_sinceReboot(s),altimeterReset(bool),altimeterRelativeAltitude(m),altimeterPressure(kPa),batteryState(N),batteryLevel(R),heartRateBPMTimestamp(txt),heartRateBPM(N),heartRateBPS(R),heartRateVariabilityTimestamp(txt),heartRateVariability(ms),label
2025-04-18T11:35:55.706+03:00,1744965352.97818,40.95357940565665,29.14101123988411,93.69504,-1,-1,-1,-1,30,22.06683002708428,-9999,64391.32256529167,-0.731842041015625,0.6365966796875,-0.19622802734375,64391.31249029167,1.075361031726619,-1.333738582017779,-0.6884819541695693,-0.003646899480372667,-0.05756069347262383,-0.02914827689528465,-0.03846269845962524,0.01685595512390137,-0.01904462277889252,XArbitraryZVertical,0.07042852010824124,-0.6358972704301661,0.5581034952898792,0.5283890389441012,-0.750615119934082,0.6353656649589539,-0.1813489645719528,0,0,0,-1,-1,64378.94930104167,unknown,2,2025-04-18T11:35:43.308+03:00,2025-04-17T15:44:39.500+03:00,7490,1.122643,0,0,6178.962,4,10,2025-04-18T11:35:40.728+03:00,766658153.7219963,0,107.81,100.5609,1,0.55,2025-04-18T11:25:57.919+03:00,77.00000000000001,1.283333333333333,2025-04-18T08:51:18.885+03:00,0.03057091307199995,1
2025-04-18T11:35:55.708+03:00,1744965352.97818,40.95357940565665,29.14101123988411,93.69504,-1,-1,-1,-1,30,22.06683002708428,-9999,64391.33264029167,-0.7502899169921875,0.6363677978515625,-0.196533203125,64391.32256529167,1.075082154157806,-1.334383520916911,-0.6882499195761761,-0.03754321485757828,-0.03840417787432671,-0.02224636077880859,0.01682066917419434,0.002920806407928467,-0.01653401553630829,XArbitraryZVertical,0.07060587308463837,-0.6360543421590833,0.5579647917648245,0.528322845658428,-0.7508752346038818,0.635186493396759,-0.180899366736412,0,0,0,-1,-1,64378.94930104167,unknown,2,2025-04-18T11:35:43.308+03:00,2025-04-17T15:44:39.500+03:00,7490,1.122643,0,0,6178.962,4,10,2025-04-18T11:35:40.728+03:00,766658153.7219963,0,107.81,100.5609,1,0.55,2025-04-18T11:25:57.919+03:00,77.00000000000001,1.283333333333333,2025-04-18T08:51:18.885+03:00,0.03057091307199995,1
2025-04-18T11:35:55.709+03:00,1744965352.97818,40.95357940565665,29.14101123988411,93.69504,-1,-1,-1,-1,30,22.06683002708428,-9999,64391.34271529167,-0.756927490234375,0.6358184814453125,-0.1982574462890625,64391.33264029167,1.074408210044348,-1.335090572906598,-0.6881560820599755,-0.06384965032339096,-0.02299512550234795,-0.01657409407198429,0.003487050533294678,0.0009486675262451172,-0.01508265733718872,XArbitraryZVertical,0.07062354675900773,-0.6362555694466115,0.557744682038177,0.5283105807867832,-0.7510609030723572,0.6351140141487122,-0.1803823262453079,0,0,0,-1,-1,64378.94930104167,unknown,2,2025-04-18T11:35:43.308+03:00,2025-04-17T15:44:39.500+03:00,7490,1.122643,0,0,6178.962,4,10,2025-04-18T11:35:40.728+03:00,766658153.7219963,0,107.81,100.5609,1,0.55,2025-04-18T11:25:57.919+03:00,77.00000000000001,1.283333333333333,2025-04-18T08:51:18.885+03:00,0.03057091307199995,1
2025-04-18T11:35:55.716+03:00,1744965352.97818,40.95357940565665,29.14101123988411,93.69504,-1,-1,-1,-1,30,22.06683002708428,-9999,64391.35279029167,-0.7422027587890625,0.6353607177734375,-0.1882476806640625,64391.34271529167,1.073492510378459,-1.335871283491352,-0.6881849457551993,-0.08091026544570923,-0.02901027351617813,-0.01138832233846188,-0.006521999835968018,0.0001482367515563965,-0.01831312477588654,XArbitraryZVertical,0.07053908048378714,-0.6364969716376241,0.557480496045648,0.5283100752268414,-0.7511838674545288,0.6351363062858582,-0.1797916889190674,0,0,0,-1,-1,64378.94930104167,unknown,2,2025-04-18T11:35:43.308+03:00,2025-04-17T15:44:39.500+03:00,7490,1.122643,0,0,6178.962,4,10,2025-04-18T11:35:40.728+03:00,766658153.7219963,0,107.81,100.5609,1,0.55,2025-04-18T11:25:57.919+03:00,77.00000000000001,1.283333333333333,2025-04-18T08:51:18.885+03:00,0.03057091307199995,1
2025-04-18T11:35:55.730+03:00,1744965352.97818,40.95357940565665,29.14101123988411,93.69504,-1,-1,-1,-1,30,22.06683002708428,-9999,64391.36286429167,-0.72491455078125,0.630767822265625,-0.1796722412109375,64391.35279029167,1.072412074463638,-1.336946643544395,-0.6882660390103705,-0.08421125262975693,-0.0512724369764328,-0.01575457490980625,0.006987512111663818,0.0006195902824401855,-0.00991666316986084,XArbitraryZVertical,0.0704647566049303,-0.6368271365433543,0.5571720529523967,0.5282474118850307,-0.7513265609741211,0.6351988911628723,-0.1789718270301819,0,0,0,-1,-1,64378.94930104167,unknown,2,2025-04-18T11:35:43.308+03:00,2025-04-17T15:44:39.500+03:00,7490,1.122643,0,0,6178.962,4,10,2025-04-18T11:35:40.728+03:00,766658153.7219963,0,107.81,100.5609,1,0.55,2025-04-18T11:25:57.919+03:00,77.00000000000001,1.283333333333333,2025-04-18T08:51:18.885+03:00,0.03057091307199995,1
2025-04-18T11:35:55.736+03:00,1744965352.97818,40.95357940565665,29.14101123988411,93.69504,-1,-1,-1,-1,30,22.06683002708428,-9999,64391.37293929167,-0.7338714599609375,0.6261444091796875,-0.1755828857421875,64391.36286429167,1.071359514666778,-1.338202084417069,-0.6884209554891697,-0.0773920938372612,-0.06180324032902718,-0.003741254564374685,0.02579259872436523,-0.003741979598999023,-0.001895308494567871,XArbitraryZVertical,0.07042172056334227,-0.6372110381413248,0.5568782740456051,0.5280999120313763,-0.7514548301696777,0.6353185772895813,-0.1780057549476624,0,0,0,-1,-1,64378.94930104167,unknown,2,2025-04-18T11:35:43.308+03:00,2025-04-17T15:44:39.500+03:00,7490,1.122643,0,0,6178.962,4,10,2025-04-18T11:35:40.728+03:00,766658153.7219963,0,107.81,100.5609,1,0.55,2025-04-18T11:25:57.919+03:00,77.00000000000001,1.283333333333333,2025-04-18T08:51:18.885+03:00,0.03057091307199995,1
2025-04-18T11:35:55.746+03:00,1744965352.97818,40.95357940565665,29.14101123988411,93.69504,-1,-1,-1,-1,30,22.06683002708428,-9999,64391.38301429167,-0.743804931640625,0.6288604736328125,-0.176116943359375,64391.37293929167,1.070377502548679,-1.339398027292948,-0.6886866770031709,-0.07748663425445557,-0.05977417901158333,-0.008109371177852154,0.01959973573684692,-0.008845269680023193,0.0008444786071777344,XArbitraryZVertical,0.07034310653204526,-0.6375874364478552,0.5566257243807663,0.5279223691489008,-0.7515029311180115,0.6355237364768982,-0.177068218588829,0,0,0,-1,-1,64378.94930104167,unknown,2,2025-04-18T11:35:43.308+03:00,2025-04-17T15:44:39.500+03:00,7490,1.122643,0,0,6178.962,4,10,2025-04-18T11:35:40.728+03:00,766658153.7219963,0,107.81,100.5609,1,0.55,2025-04-18T11:25:57.919+03:00,77.00000000000001,1.283333333333333,2025-04-18T08:51:18.885+03:00,0.03057091307199995,1
2025-04-18T11:35:55.758+03:00,1744965352.97818,40.95357940565665,29.14101123988411,93.69504,-1,-1,-1,-1,30,22.06683002708428,-9999,64391.39308929167,-0.741607666015625,0.6353912353515625,-0.1858062744140625,64391.38301429167,1.069487161893577,-1.340604036858158,-0.688763577543546,-0.05963832885026932,-0.07268937677145004,-0.01203150767832994,0.007542848587036133,-0.007683873176574707,0.0007051080465316772,XArbitraryZVertical,0.07036622645356119,-0.6379445739194647,0.5563624611051928,0.5277653791451549,-0.751668393611908,0.6355831027030945,-0.1761506348848343,0,0,0,-1,-1,64378.94930104167,unknown,2,2025-04-18T11:35:43.308+03:00,2025-04-17T15:44:39.500+03:00,7490,1.122643,0,0,6178.962,4,10,2025-04-18T11:35:40.728+03:00,766658153.7219963,0,107.81,100.5609,1,0.55,2025-04-18T11:25:57.919+03:00,77.00000000000001,1.283333333333333,2025-04-18T08:51:18.885+03:00,0.03057091307199995,1
2025-04-18T11:35:55.767+03:00,1744965352.97818,40.95357940565665,29.14101123988411,93.69504,-1,-1,-1,-1,30,22.06683002708428,-9999,64391.40316429167,-0.7443389892578125,0.6429595947265625,-0.1851959228515625,64391.39308929167,1.068771590795792,-1.341916848161221,-0.6887721784921932,-0.05356525629758835,-0.1052379980683327,-0.005543781910091639,0.009782373905181885,-0.0009766817092895508,-0.01004868745803833,XArbitraryZVertical,0.07049986827476357,-0.6383169714509583,0.556129034062545,0.5275431935354835,-0.7518935799598694,0.6355897784233093,-0.1751624196767807,0,0,0,-1,-1,64378.94930104167,unknown,2,2025-04-18T11:35:43.308+03:00,2025-04-17T15:44:39.500+03:00,7490,1.122643,0,0,6178.962,4,10,2025-04-18T11:35:40.728+03:00,766658153.7219963,0,107.81,100.5609,1,0.55,2025-04-18T11:25:57.919+03:00,77.00000000000001,1.283333333333333,2025-04-18T08:51:18.885+03:00,0.03057091307199995,1
2025-04-18T11:35:55.776+03:00,1744965352.97818,40.95357940565665,29.14101123988411,93.69504,-1,-1,-1,-1,30,22.06683002708428,-9999,64391.41323929167,-0.7518463134765625,0.643402099609375,-0.1825408935546875,64391.40316429167,1.068165380627604,-1.343290903376354,-0.6889558235535833,-0.05841900035738945,-0.09186879545450211,0.01603081822395325,0.008703112602233887,0.006861865520477295,-0.01193231344223022,XArbitraryZVertical,0.07062028717694424,-0.638718547853406,0.5559546138175113,0.5272247661485703,-0.7520198225975037,0.6357315182685852,-0.174102783203125,0,0,0,-1,-1,64378.94930104167,unknown,2,2025-04-18T11:35:43.308+03:00,2025-04-17T15:44:39.500+03:00,7490,1.122643,0,0,6178.962,4,10,2025-04-18T11:35:40.728+03:00,766658153.7219963,0,107.81,100.5609,1,0.55,2025-04-18T11:25:57.919+03:00,77.00000000000001,1.283333333333333,2025-04-18T08:51:18.885+03:00,0.03057091307199995,1
2025-04-18T11:35:55.787+03:00,1744965352.97818,40.95357940565665,29.14101123988411,93.69504,-1,-1,-1,-1,30,22.06683002708428,-9999,64391.42331429167,-0.75836181640625,0.6479034423828125,-0.186187744140625,64391.41323929167,1.067507560434273,-1.344503696805267,-0.6893093675161632,-0.05652948841452599,-0.08042705804109573,0.02494069002568722,0.001935005187988281,0.007290899753570557,-0.009293898940086365,XArbitraryZVertical,0.07061625471837107,-0.6390956652766808,0.555803819212237,0.5269271260178829,-0.752011239528656,0.6360043883323669,-0.1731401532888412,0,0,0,-1,-1,64378.94930104167,unknown,2,2025-04-18T11:35:43.308+03:00,2025-04-17T15:44:39.500+03:00,7490,1.122643,0,0,6178.962,4,10,2025-04-18T11:35:40.728+03:00,766658153.7219963,0,107.81,100.5609,1,0.55,2025-04-18T11:25:57.919+03:00,77.00000000000001,1.283333333333333,2025-04-18T08:51:18.885+03:00,0.03057091307199995,1
2025-04-18T11:35:55.797+03:00,1744965352.97818,40.95357940565665,29.14101123988411,93.69504,-1,-1,-1,-1,30,22.06683002708428,-9999,64391.43338929167,-0.7409515380859375,0.645294189453125,-0.18896484375,64391.42331429167,1.067058179254604,-1.345531567308793,-0.6895495108703532,-0.03103571571409702,-0.07697600126266479,0.006525530945509672,-0.006642282009124756,0.01121020317077637,-0.0129239410161972,XArbitraryZVertical,0.07066928236131374,-0.6394054827574821,0.5556936160616779,0.526660293560425,-0.752039909362793,0.6361896991729736,-0.1723329573869705,0,0,0,-1,-1,64378.94930104167,unknown,2,2025-04-18T11:35:43.308+03:00,2025-04-17T15:44:39.500+03:00,7490,1.122643,0,0,6178.962,4,10,2025-04-18T11:35:40.728+03:00,766658153.7219963,0,107.81,100.5609,1,0.55,2025-04-18T11:25:57.919+03:00,77.00000000000001,1.283333333333333,2025-04-18T08:51:18.885+03:00,0.03057091307199995,1
2025-04-18T11:35:55.807+03:00,1744965352.97818,40.95357940565665,29.14101123988411,93.69504,-1,-1,-1,-1,30,22.06683002708428,-9999,64391.44346429167,-0.7419586181640625,0.642364501953125,-0.185943603515625,64391.43338929167,1.066829965052088,-1.346318412505803,-0.6895939272987212,-0.009922971948981285,-0.05664356797933578,-0.009383927099406719,0.009380459785461426,0.009863734245300293,-0.01695519685745239,XArbitraryZVertical,0.07079840894104868,-0.6396249900612585,0.5556139172780602,0.5264605939013389,-0.7521478533744812,0.6362239718437195,-0.1717349141836166,0,0,0,-1,-1,64378.94930104167,unknown,2,2025-04-18T11:35:43.308+03:00,2025-04-17T15:44:39.500+03:00,7490,1.122643,0,0,6178.962,4,10,2025-04-18T11:35:40.728+03:00,766658153.7219963,0,107.81,100.5609,1,0.55,2025-04-18T11:25:57.919+03:00,77.00000000000001,1.283333333333333,2025-04-18T08:51:18.885+03:00,0.03057091307199995,1
2025-04-18T11:35:55.817+03:00,1744965352.97818,40.95357940565665,29.14101123988411,93.69504,-1,-1,-1,-1,30,22.06683002708428,-9999,64391.45353929167,-0.7537689208984375,0.6410064697265625,-0.1727142333984375,64391.44346429167,1.066675473504672,-1.346904137245098,-0.6894893232442311,-0.01619931124150753,-0.04684426635503769,-0.02734817937016487,0.01162099838256836,0.006511151790618896,-0.01602302491664886,XArbitraryZVertical,0.07095048018817038,-0.6397745594562744,0.5555331066531514,0.5263435506141758,-0.7523131370544434,0.6361432671546936,-0.1713090837001801,0,0,0,-1,-1,64378.94930104167,unknown,2,2025-04-18T11:35:43.308+03:00,2025-04-17T15:44:39.500+03:00,7490,1.122643,0,0,6178.962,4,10,2025-04-18T11:35:40.728+03:00,766658153.7219963,0,107.81,100.5609,1,0.55,2025-04-18T11:25:57.919+03:00,77.00000000000001,1.283333333333333,2025-04-18T08:51:18.885+03:00,0.03057091307199995,1
2025-04-18T11:35:55.827+03:00,1744965352.97818,40.95357940565665,29.14101123988411,93.69504,-1,-1,-1,-1,30,22.06683002708428,-9999,64391.46361429167,-0.760345458984375,0.6463775634765625,-0.170623779296875,64391.45353929167,1.066300844657724,-1.347486358246755,-0.6891500144879957,-0.02648071013391018,-0.03142616152763367,-0.04887238144874573,0.000502169132232666,0.004926681518554688,-0.002680346369743347,XArbitraryZVertical,0.07111798969404574,-0.6399084457403422,0.5553508373490098,0.5263504933036079,-0.7526231408119202,0.6358814239501953,-0.1709188222885132,0,0,0,-1,-1,64378.94930104167,unknown,2,2025-04-18T11:35:43.308+03:00,2025-04-17T15:44:39.500+03:00,7490,1.122643,0,0,6178.962,4,10,2025-04-18T11:35:40.728+03:00,766658153.7219963,0,107.81,100.5609,1,0.55,2025-04-18T11:25:57.919+03:00,77.00000000000001,1.283333333333333,2025-04-18T08:51:18.885+03:00,0.03057091307199995,1
2025-04-18T11:35:55.837+03:00,1744965352.97818,40.95357940565665,29.14101123988411,93.69504,-1,-1,-1,-1,30,22.06683002708428,-9999,64391.47368929167,-0.761871337890625,0.6443939208984375,-0.1697235107421875,64391.46361429167,1.065852148840299,-1.348040206490988,-0.6887072401765144,-0.02141717448830605,-0.02743588015437126,-0.04868192970752716,-0.00597989559173584,0.009998738765716553,-0.0001358389854431152,XArbitraryZVertical,0.07129207720115052,-0.640027619748292,0.5551307012202124,0.5264143710695538,-0.7529923319816589,0.6355395913124084,-0.1705641746520996,0,0,0,-1,-1,64378.94930104167,unknown,2,2025-04-18T11:35:43.308+03:00,2025-04-17T15:44:39.500+03:00,7490,1.122643,0,0,6178.962,4,10,2025-04-18T11:35:40.728+03:00,766658153.7219963,0,107.81,100.5609,1,0.55,2025-04-18T11:25:57.919+03:00,77.00000000000001,1.283333333333333,2025-04-18T08:51:18.885+03:00,0.03057091307199995,1
2025-04-18T11:35:55.847+03:00,1744965352.97818,40.95357940565665,29.14101123988411,93.69504,-1,-1,-1,-1,30,22.06683002708428,-9999,64391.48376429167,-0.7620391845703125,0.640625,-0.16796875,64391.47368929167,1.065518896153284,-1.348473448779856,-0.6883144352223283,-0.01494462788105011,-0.02502252534031868,-0.04382991790771484,-0.008699178695678711,0.009813845157623291,-0.0003307610750198364,XArbitraryZVertical,0.07145106065557036,-0.640115815237856,0.554954411776817,0.526471526528052,-0.7533096671104431,0.6352363228797913,-0.1702929735183716,0,0,0,-1,-1,64378.94930104167,unknown,2,2025-04-18T11:35:43.308+03:00,2025-04-17T15:44:39.500+03:00,7490,1.122643,0,0,6178.962,4,10,2025-04-18T11:35:40.728+03:00,766658153.7219963,0,107.81,100.5609,1,0.55,2025-04-18T11:25:57.919+03:00,77.00000000000001,1.283333333333333,2025-04-18T08:51:18.885+03:00,0.03057091307199995,1
2025-04-18T11:35:55.857+03:00,1744965352.97818,40.95357940565665,29.14101123988411,93.69504,-1,-1,-1,-1,30,22.06683002708428,-9999,64391.49383929167,-0.7582550048828125,0.6327056884765625,-0.170562744140625,64391.48376429167,1.065241335633363,-1.348764348008813,-0.68798379616851,-0.01475847326219082,-0.01183854509145021,-0.04030189663171768,-0.008093774318695068,0.005873024463653564,0.002059817314147949,XArbitraryZVertical,0.07156534233205186,-0.6401705754688067,0.5548093618017531,0.5265422763694801,-0.7535640001296997,0.6349809169769287,-0.1701200753450394,0,0,0,-1,-1,64378.94930104167,unknown,2,2025-04-18T11:35:43.308+03:00,2025-04-17T15:44:39.500+03:00,7490,1.122643,0,0,6178.962,4,10,2025-04-18T11:35:40.728+03:00,766658153.7219963,0,107.81,100.5609,1,0.55,2025-04-18T11:25:57.919+03:00,77.00000000000001,1.283333333333333,2025-04-18T08:51:18.885+03:00,0.03057091307199995,1
2025-04-18T11:35:55.867+03:00,1744965352.97818,40.95357940565665,29.14101123988411,93.69504,-1,-1,-1,-1,30,22.06683002708428,-9999,64391.50391429167,-0.74676513671875,0.6297607421875,-0.16900634765625,64391.49383929167,1.064849632698442,-1.349097349639735,-0.6876458603251103,-0.03064928762614727,-0.01262364443391562,-0.05135667696595192,-0.005829036235809326,-0.001129090785980225,-0.0001276135444641113,XArbitraryZVertical,0.0716574401520665,-0.6402398519163853,0.5546313205267149,0.5266330311520697,-0.7538298368453979,0.6347197890281677,-0.1699162870645523,0,0,0,-1,-1,64378.94930104167,unknown,2,2025-04-18T11:35:43.308+03:00,2025-04-17T15:44:39.500+03:00,7490,1.122643,0,0,6178.962,4,10,2025-04-18T11:35:40.728+03:00,766658153.7219963,0,107.81,100.5609,1,0.55,2025-04-18T11:25:57.919+03:00,77.00000000000001,1.283333333333333,2025-04-18T08:51:18.885+03:00,0.03057091307199995,1
2025-04-18T11:35:55.877+03:00,1744965352.97818,40.95357940565665,29.14101123988411,93.69504,-1,-1,-1,-1,30,22.06683002708428,-9999,64391.51398929167,-0.737640380859375,0.62298583984375,-0.17059326171875,64391.50391429167,1.064274811423547,-1.349578198094272,-0.6871431720883783,-0.03702622652053833,-0.01998941600322723,-0.06724895536899567,0.005916297435760498,-0.003990709781646729,0.001029446721076965,XArbitraryZVertical,0.07179282987588012,-0.6403389004511696,0.5543689021676245,0.5267704038636283,-0.754222571849823,0.6343312859535217,-0.1696237623691559,0,0,0,-1,-1,64378.94930104167,unknown,2,2025-04-18T11:35:43.308+03:00,2025-04-17T15:44:39.500+03:00,7490,1.122643,0,0,6178.962,4,10,2025-04-18T11:35:40.728+03:00,766658153.7219963,0,107.81,100.5609,1,0.55,2025-04-18T11:25:57.919+03:00,77.00000000000001,1.283333333333333,2025-04-18T08:51:18.885+03:00,0.03057091307199995,1
2025-04-18T11:35:55.887+03:00,1744965352.97818,40.95357940565665,29.14101123988411,93.69504,-1,-1,-1,-1,30,22.06683002708428,-9999,64391.52406429167,-0.7371368408203125,0.6138458251953125,-0.1763763427734375,64391.51398929167,1.063668940681499,-1.350161942161018,-0.686600620602104,-0.03758842125535011,-0.02884948626160622,-0.07099149376153946,0.01648271083831787,-0.009857773780822754,-0.0007545948028564453,XArbitraryZVertical,0.07196140481763569,-0.6404624698694369,0.5540869498131075,0.5268938354713267,-0.7546572089195251,0.6339117288589478,-0.1692587584257126,0,0,0,-1,-1,64378.94930104167,unknown,2,2025-04-18T11:35:43.308+03:00,2025-04-17T15:44:39.500+03:00,7490,1.122643,0,0,6178.962,4,10,2025-04-18T11:35:40.728+03:00,766658153.7219963,0,107.81,100.5609,1,0.55,2025-04-18T11:25:57.919+03:00,77.00000000000001,1.283333333333333,2025-04-18T08:51:18.885+03:00,0.03057091307199995,1
2025-04-18T11:35:55.898+03:00,1744965352.97818,40.95357940565665,29.14101123988411,93.69504,-1,-1,-1,-1,30,22.06683002708428,-9999,64391.53413929167,-0.7425079345703125,0.611907958984375,-0.1765289306640625,64391.52406429167,1.062947459756344,-1.350897526915623,-0.6859232985353639,-0.05280372872948647,-0.04070068523287773,-0.09453577548265457,0.01936048269271851,-0.01967924833297729,-0.006495654582977295,XArbitraryZVertical,0.07218472989367258,-0.6406174769566967,0.5537435866812789,0.5270358229320238,-0.7552003860473633,0.6333877444267273,-0.1687972247600555,0,0,0,-1,-1,64378.94930104167,unknown,2,2025-04-18T11:35:43.308+03:00,2025-04-17T15:44:39.500+03:00,7490,1.122643,0,0,6178.962,4,10,2025-04-18T11:35:40.728+03:00,766658153.7219963,0,107.81,100.5609,1,0.55,2025-04-18T11:25:57.919+03:00,77.00000000000001,1.283333333333333,2025-04-18T08:51:18.885+03:00,0.03057091307199995,1
2025-04-18T11:35:55.908+03:00,1744965352.97818,40.95357940565665,29.14101123988411,93.69504,-1,-1,-1,-1,30,22.06683002708428,-9999,64391.54421429167,-0.7453460693359375,0.6082763671875,-0.17333984375,64391.53413929167,1.061840502261543,-1.352072587565726,-0.685170299432924,-0.08106891810894012,-0.05624369159340858,-0.08822621405124664,0.0137370228767395,-0.02079015970230103,-0.00853101909160614,XArbitraryZVertical,0.07243395983339805,-0.6408952797110476,0.5532681608823136,0.5271630886774094,-0.7558634877204895,0.6328048706054688,-0.1680131256580353,0,0,0,-1,-1,64378.94930104167,unknown,2,2025-04-18T11:35:43.308+03:00,2025-04-17T15:44:39.500+03:00,7490,1.122643,0,0,6178.962,4,10,2025-04-18T11:35:40.728+03:00,766658153.7219963,0,107.81,100.5609,1,0.55,2025-04-18T11:25:57.919+03:00,77.00000000000001,1.283333333333333,2025-04-18T08:51:18.885+03:00,0.03057091307199995,1
2025-04-18T11:35:55.918+03:00,1744965352.97818,40.95357940565665,29.14101123988411,93.69504,-1,-1,-1,-1,30,22.06683002708428,-9999,64391.55428929167,-0.748992919921875,0.62603759765625,-0.1761322021484375,64391.54421429167,1.060563266772827,-1.353592992756643,-0.684599911816628,-0.08372236043214798,-0.08516708761453629,-0.07326529920101166,0.0119636058807373,-0.02397990226745605,-0.006947576999664307,XArbitraryZVertical,0.07265593194697567,-0.6412880543816654,0.5527690847817662,0.5271785439432431,-0.7564705014228821,0.6323631405830383,-0.1669414937496185,0,0,0,-1,-1,64378.94930104167,unknown,2,2025-04-18T11:35:43.308+03:00,2025-04-17T15:44:39.500+03:00,7490,1.122643,0,0,6178.962,4,10,2025-04-18T11:35:40.728+03:00,766658153.7219963,0,107.81,100.5609,1,0.55,2025-04-18T11:25:57.919+03:00,77.00000000000001,1.283333333333333,2025-04-18T08:51:18.885+03:00,0.03057091307199995,1
2025-04-18T11:35:55.928+03:00,1744965352.97818,40.95357940565665,29.14101123988411,93.69504,-1,-1,-1,-1,30,22.06683002708428,-9999,64391.56436429167,-0.744842529296875,0.6429290771484375,-0.175567626953125,64391.55428929167,1.059315616631296,-1.355443868720035,-0.684110583776566,-0.08727049082517624,-0.1239690706133842,-0.0680023655295372,0.008209526538848877,-0.009318530559539795,-0.01011300086975098,XArbitraryZVertical,0.07294803030943804,-0.6417748779740013,0.5522806005489577,0.5270577507150979,-0.7570804357528687,0.6319839954376221,-0.1656071841716766,0,0,0,-1,-1,64378.94930104167,unknown,2,2025-04-18T11:35:43.308+03:00,2025-04-17T15:44:39.500+03:00,7490,1.122643,0,0,6178.962,4,10,2025-04-18T11:35:40.728+03:00,766658153.7219963,0,107.81,100.5609,1,0.55,2025-04-18T11:25:57.919+03:00,77.00000000000001,1.283333333333333,2025-04-18T08:51:18.885+03:00,0.03057091307199995,1
2025-04-18T11:35:55.938+03:00,1744965352.97818,40.95357940565665,29.14101123988411,93.69504,-1,-1,-1,-1,30,22.06683002708428,-9999,64391.57443929167,-0.74969482421875,0.6480255126953125,-0.167633056640625,64391.56436429167,1.057925147065607,-1.357645368483479,-0.6836198422227281,-0.09251665323972702,-0.1401152908802032,-0.07694192975759506,0.01267462968826294,0.009555459022521973,-0.01156197488307953,XArbitraryZVertical,0.07329075517165122,-0.6423594420782113,0.5517409234352952,0.5268631391658102,-0.7577460408210754,0.6316035985946655,-0.1640056222677231,0,0,0,-1,-1,64378.94930104167,unknown,2,2025-04-18T11:35:43.308+03:00,2025-04-17T15:44:39.500+03:00,7490,1.122643,0,0,6178.962,4,10,2025-04-18T11:35:40.728+03:00,766658153.7219963,0,107.81,100.5609,1,0.55,2025-04-18T11:25:57.919+03:00,77.00000000000001,1.283333333333333,2025-04-18T08:51:18.885+03:00,0.03057091307199995,1
2025-04-18T11:35:55.948+03:00,1744965352.97818,40.95357940565665,29.14101123988411,93.69504,-1,-1,-1,-1,30,22.06683002708428,-9999,64391.58451429167,-0.757904052734375,0.6472930908203125,-0.1658477783203125,64391.57443929167,1.056773502894207,-1.359732571549239,-0.6831278141970681,-0.06562218815088272,-0.1295188367366791,-0.0556238628923893,0.009244918823242188,0.01607096195220947,-0.006136029958724976,XArbitraryZVertical,0.07367814021795188,-0.6429052433959596,0.5512675329933235,0.5266387526043611,-0.7583903670310974,0.6312220692634583,-0.1624887585639954,0,0,0,-1,-1,64378.94930104167,unknown,2,2025-04-18T11:35:43.308+03:00,2025-04-17T15:44:39.500+03:00,7490,1.122643,0,0,6178.962,4,10,2025-04-18T11:35:40.728+03:00,766658153.7219963,0,107.81,100.5609,1,0.55,2025-04-18T11:25:57.919+03:00,77.00000000000001,1.283333333333333,2025-04-18T08:51:18.885+03:00,0.03057091307199995,1
2025-04-18T11:35:55.960+03:00,1744965352.97818,40.95357940565665,29.14101123988411,93.69504,-1,-1,-1,-1,30,22.06683002708428,-9999,64391.59458929167,-0.779754638671875,0.6387481689453125,-0.1619720458984375,64391.58451429167,1.055901655286977,-1.361368136642086,-0.6829012884103505,-0.06069513782858849,-0.08981463313102722,-0.02127737179398537,0.00226438045501709,0.0172995924949646,-0.003989920020103455,XArbitraryZVertical,0.07393208693194915,-0.6433467902602684,0.5509345086330815,0.5264125606865854,-0.7587951421737671,0.6310463547706604,-0.1612779051065445,0,0,0,-1,-1,64378.94930104167,unknown,2,2025-04-18T11:35:43.308+03:00,2025-04-17T15:44:39.500+03:00,7490,1.122643,0,0,6178.962,4,10,2025-04-18T11:35:40.728+03:00,766658153.7219963,0,107.81,100.5609,1,0.55,2025-04-18T11:25:57.919+03:00,77.00000000000001,1.283333333333333,2025-04-18T08:51:18.885+03:00,0.03057091307199995,1
2025-04-18T11:35:55.968+03:00,1744965352.97818,40.95357940565665,29.14101123988411,93.69504,-1,-1,-1,-1,30,22.06683002708428,-9999,64391.60466429167,-0.7811279296875,0.6331329345703125,-0.16424560546875,64391.59458929167,1.055270230697037,-1.362344397299783,-0.6829872835291646,-0.0319947823882103,-0.03515458479523659,0.01347821205854416,-0.01882606744766235,0.008581161499023438,-0.001766622066497803,XArbitraryZVertical,0.07396603295522169,-0.6436350762916514,0.550748636223379,0.526249906653566,-0.7588991522789001,0.6311130523681641,-0.1605258285999298,0,0,0,-1,-1,64378.94930104167,unknown,2,2025-04-18T11:35:43.308+03:00,2025-04-17T15:44:39.500+03:00,7490,1.122643,0,0,6178.962,4,10,2025-04-18T11:35:40.728+03:00,766658153.7219963,0,107.81,100.5609,1,0.55,2025-04-18T11:25:57.919+03:00,77.00000000000001,1.283333333333333,2025-04-18T08:51:18.885+03:00,0.03057091307199995,1
2025-04-18T11:35:55.980+03:00,1744965352.97818,40.95357940565665,29.14101123988411,93.69504,-1,-1,-1,-1,30,22.06683002708428,-9999,64391.61473929167,-0.78094482421875,0.632476806640625,-0.1931304931640625,64391.60466429167,1.055426565737815,-1.362221373183753,-0.6833687225220144,0.02426502481102943,0.03043694049119949,0.06319063901901245,-0.0230945348739624,0.002044439315795898,-0.002608105540275574,XArbitraryZVertical,0.07384162683352265,-0.6436324713381947,0.5508670970038018,0.5261464802750382,-0.7586437463760376,0.6314088702201843,-0.1605693101882935,0,0,0,-1,-1,64378.94930104167,unknown,2,2025-04-18T11:35:43.308+03:00,2025-04-17T15:44:39.500+03:00,7490,1.122643,0,0,6178.962,4,10,2025-04-18T11:35:40.728+03:00,766658153.7219963,0,107.81,100.5609,1,0.55,2025-04-18T11:25:57.919+03:00,77.00000000000001,1.283333333333333,2025-04-18T08:51:18.885+03:00,0.03057091307199995,1
2025-04-18T11:35:55.992+03:00,1744965352.97818,40.95357940565665,29.14101123988411,93.69504,-1,-1,-1,-1,30,22.06683002708428,-9999,64391.62481429167,-0.78753662109375,0.6342926025390625,-0.21978759765625,64391.61473929167,1.05618927653643,-1.361020624784248,-0.6840371709175546,0.05314541235566139,0.09780612587928772,0.09079377353191376,-0.02234280109405518,0.001160085201263428,-0.02767932415008545,XArbitraryZVertical,0.07350926219386102,-0.6433508183877428,0.5512393274183808,0.526147708065136,-0.7580375075340271,0.6319270730018616,-0.1613922268152237,0,0,0,-1,-1,64378.94930104167,unknown,2,2025-04-18T11:35:43.308+03:00,2025-04-17T15:44:39.500+03:00,7490,1.122643,0,0,6178.962,4,10,2025-04-18T11:35:40.728+03:00,766658153.7219963,0,107.81,100.5609,1,0.55,2025-04-18T11:25:57.919+03:00,77.00000000000001,1.283333333333333,2025-04-18T08:51:18.885+03:00,0.03057091307199995,1
2025-04-18T11:35:55.998+03:00,1744965352.97818,40.95357940565665,29.14101123988411,93.69504,-1,-1,-1,-1,30,22.06683002708428,-9999,64391.63488829167,-0.78045654296875,0.6543426513671875,-0.224456787109375,64391.62481429167,1.057197921583291,-1.359104710040351,-0.6848466990039506,0.05588207393884659,0.1360184997320175,0.1015364304184914,-0.02997446060180664,2.932548522949219e-05,-0.05500619113445282,XArbitraryZVertical,0.07300624307260209,-0.6428854800152425,0.5517287290232044,0.5262734355804416,-0.7572264075279236,0.632554292678833,-0.1627366989850998,0,0,0,-1,-1,64378.94930104167,unknown,2,2025-04-18T11:35:43.308+03:00,2025-04-17T15:44:39.500+03:00,7490,1.122643,0,0,6178.962,4,10,2025-04-18T11:35:40.728+03:00,766658153.7219963,0,107.81,100.5609,1,0.55,2025-04-18T11:25:57.919+03:00,77.00000000000001,1.283333333333333,2025-04-18T08:51:18.885+03:00,0.03057091307199995,1
2025-04-18T11:35:56.008+03:00,1744965352.97818,40.95357940565665,29.14101123988411,93.69504,-1,-1,-1,-1,30,22.06683002708428,-9999,64391.64496329167,-0.7592315673828125,0.6700439453125,-0.22808837890625,64391.63488829167,1.058178253187578,-1.357142692317817,-0.6857695171114369,0.04302353411912918,0.1234787330031395,0.1107610911130905,-0.02644103765487671,0.01864767074584961,-0.06057211756706238,XArbitraryZVertical,0.07243867013151485,-0.6424200569696931,0.5522328635622169,0.5263913760212531,-0.7563347816467285,0.6332687735557556,-0.1640982180833817,0,0,0,-1,-1,64378.94930104167,unknown,2,2025-04-18T11:35:43.308+03:00,2025-04-17T15:44:39.500+03:00,7490,1.122643,0,0,6178.962,4,10,2025-04-18T11:35:40.728+03:00,766658153.7219963,0,107.81,100.5609,1,0.55,2025-04-18T11:25:57.919+03:00,77.00000000000001,1.283333333333333,2025-04-18T08:51:18.885+03:00,0.03057091307199995,1
2025-04-18T11:35:56.018+03:00,1744965352.97818,40.95357940565665,29.14101123988411,93.69504,-1,-1,-1,-1,30,22.06683002708428,-9999,64391.65503829167,-0.746124267578125,0.6769561767578125,-0.232666015625,64391.64496329167,1.058832209526739,-1.355481350369906,-0.6866707522383607,0.008544120006263256,0.1161214858293533,0.06709856539964676,-0.005437135696411133,0.03511667251586914,-0.06161981821060181,XArbitraryZVertical,0.07185643949205719,-0.6420439008641518,0.5526351011138109,0.526508149004131,-0.7555034756660461,0.6339659690856934,-0.1652325689792633,0,0,0,-1,-1,64378.94930104167,unknown,2,2025-04-18T11:35:43.308+03:00,2025-04-17T15:44:39.500+03:00,7490,1.122643,0,0,6178.962,4,10,2025-04-18T11:35:40.728+03:00,766658153.7219963,0,107.81,100.5609,1,0.55,2025-04-18T11:25:57.919+03:00,77.00000000000001,1.283333333333333,2025-04-18T08:51:18.885+03:00,0.03057091307199995,1
2025-04-18T11:35:56.028+03:00,1744965352.97818,40.95357940565665,29.14101123988411,93.69504,-1,-1,-1,-1,30,22.06683002708428,-9999,64391.66511329167,-0.734405517578125,0.6893310546875,-0.236968994140625,64391.65503829167,1.058483473368353,-1.354567647331855,-0.6870715327712063,-0.08920407295227051,0.09981275349855423,-0.0004409653483889997,0.007407963275909424,0.04115444421768188,-0.06710284948348999,XArbitraryZVertical,0.07134378622828694,-0.6418535117760253,0.552651530739754,0.5267926489147295,-0.7551039457321167,0.6342759132385254,-0.165868267416954,0,0,0,-1,-1,64378.94930104167,unknown,2,2025-04-18T11:35:43.308+03:00,2025-04-17T15:44:39.500+03:00,7490,1.122643,0,0,6178.962,4,10,2025-04-18T11:35:40.728+03:00,766658153.7219963,0,107.81,100.5609,1,0.55,2025-04-18T11:25:57.919+03:00,77.00000000000001,1.283333333333333,2025-04-18T08:51:18.885+03:00,0.03057091307199995,1
2025-04-18T11:35:56.038+03:00,1744965352.97818,40.95357940565665,29.14101123988411,93.69504,-1,-1,-1,-1,30,22.06683002708428,-9999,64391.67518829167,-0.7255706787109375,0.682952880859375,-0.2509765625,64391.66511329167,1.056920789584913,-1.354561651894158,-0.6872464175134116,-0.1346222907304764,0.1138858273625374,-0.01753653027117252,0.01862061023712158,0.0544164776802063,-0.07105892896652222,XArbitraryZVertical,0.07077588742996148,-0.6419238876007084,0.5522729525300537,0.5271803852504308,-0.7549945712089539,0.634411096572876,-0.1658489853143692,0,0,0,-1,-1,64378.94930104167,unknown,2,2025-04-18T11:35:43.308+03:00,2025-04-17T15:44:39.500+03:00,7490,1.122643,0,0,6178.962,4,10,2025-04-18T11:35:40.728+03:00,766658153.7219963,0,107.81,100.5609,1,0.55,2025-04-18T11:25:57.919+03:00,77.00000000000001,1.283333333333333,2025-04-18T08:51:18.885+03:00,0.03057091307199995,1
2025-04-18T11:35:56.048+03:00,1744965352.97818,40.95357940565665,29.14101123988411,93.69504,-1,-1,-1,-1,30,22.06683002708428,-9999,64391.68526329167,-0.7167205810546875,0.6829681396484375,-0.321258544921875,64391.67518829167,1.055472967217348,-1.353650853051383,-0.6876752825713143,-0.06796896457672119,0.210348442196846,0.01741000264883041,0.0285947322845459,0.04932421445846558,-0.0801803320646286,XArbitraryZVertical,0.06990108282438688,-0.6417747837587225,0.5520040185640805,0.5277599541545671,-0.7545773983001709,0.6347425580024719,-0.1664779335260391,0,0,0,-1,-1,64378.94930104167,unknown,2,2025-04-18T11:35:43.308+03:00,2025-04-17T15:44:39.500+03:00,7490,1.122643,0,0,6178.962,4,10,2025-04-18T11:35:40.728+03:00,766658153.7219963,0,107.81,100.5609,1,0.55,2025-04-18T11:25:57.919+03:00,77.00000000000001,1.283333333333333,2025-04-18T08:51:18.885+03:00,0.03057091307199995,1
2025-04-18T11:35:56.059+03:00,1744965352.97818,40.95357940565665,29.14101123988411,93.69504,-1,-1,-1,-1,30,22.06683002708428,-9999,64391.69533829167,-0.723388671875,0.688995361328125,-0.394866943359375,64391.68526329167,1.054314723137349,-1.351298587053092,-0.6871807612744739,-0.1081088557839394,0.3795508444309235,-0.1066462695598602,0.03717434406280518,0.04786014556884766,-0.1410663723945618,XArbitraryZVertical,0.06906365803696825,-0.6411472675008253,0.5516865513412331,0.5289635899456966,-0.754490077495575,0.6343603134155273,-0.1683207899332047,0,0,0,-1,-1,64378.94930104167,unknown,2,2025-04-18T11:35:43.308+03:00,2025-04-17T15:44:39.500+03:00,7490,1.122643,0,0,6178.962,4,10,2025-04-18T11:35:40.728+03:00,766658153.7219963,0,107.81,100.5609,1,0.55,2025-04-18T11:25:57.919+03:00,77.00000000000001,1.283333333333333,2025-04-18T08:51:18.885+03:00,0.03057091307199995,1
2025-04-18T11:35:56.069+03:00,1744965352.97818,40.95357940565665,29.14101123988411,93.69504,-1,-1,-1,-1,30,22.06683002708428,-9999,64391.70541329167,-0.72332763671875,0.673828125,-0.38226318359375,64391.69533829167,1.051975647725677,-1.349343871807142,-0.6865233822015613,-0.2033624202013016,0.3627332448959351,-0.07372879981994629,0.03204727172851562,0.05444145202636719,-0.2206313610076904,XArbitraryZVertical,0.06801890313892367,-0.6406481260561052,0.5510102468392066,0.5304066052787537,-0.7545661926269531,0.6338520050048828,-0.1698868125677109,0,0,0,-1,-1,64378.94930104167,unknown,2,2025-04-18T11:35:43.308+03:00,2025-04-17T15:44:39.500+03:00,7490,1.122643,0,0,6178.962,4,10,2025-04-18T11:35:40.728+03:00,766658153.7219963,0,107.81,100.5609,1,0.55,2025-04-18T11:25:57.919+03:00,77.00000000000001,1.283333333333333,2025-04-18T08:51:18.885+03:00,0.03057091307199995,1
2025-04-18T11:35:56.079+03:00,1744965352.97818,40.95357940565665,29.14101123988411,93.69504,-1,-1,-1,-1,30,22.06683002708428,-9999,64391.71548829167,-0.761505126953125,0.657073974609375,-0.378997802734375,64391.70541329167,1.048514775198098,-1.347670056683271,-0.6861083184449271,-0.3053248524665833,0.3875609636306763,-0.1302229017019272,0.03182005882263184,0.04444760084152222,-0.2130389809608459,XArbitraryZVertical,0.06660378283310124,-0.640281214336104,0.5500691236394402,0.5320037707647659,-0.7545374035835266,0.6335309147834778,-0.1712078005075455,0,0,0,-1,-1,64378.94930104167,unknown,2,2025-04-18T11:35:43.308+03:00,2025-04-17T15:44:39.500+03:00,7490,1.122643,0,0,6178.962,4,10,2025-04-18T11:35:40.728+03:00,766658153.7219963,0,107.81,100.5609,1,0.55,2025-04-18T11:25:57.919+03:00,77.00000000000001,1.283333333333333,2025-04-18T08:51:18.885+03:00,0.03057091307199995,1
2025-04-18T11:35:56.089+03:00,1744965352.97818,40.95357940565665,29.14101123988411,93.69504,-1,-1,-1,-1,30,22.06683002708428,-9999,64391.72556329167,-0.80706787109375,0.6530609130859375,-0.3567047119140625,64391.71548829167,1.044124021406048,-1.346783376125656,-0.6857233981778383,-0.3349605202674866,0.3408256769180298,-0.08607780933380127,0.0003809332847595215,0.02400875091552734,-0.207600936293602,XArbitraryZVertical,0.06509760409879986,-0.640153773990329,0.5488559713911348,0.5335940134314021,-0.7546228766441345,0.6332330703735352,-0.1719308942556381,0,0,0,-1,-1,64378.94930104167,unknown,2,2025-04-18T11:35:43.308+03:00,2025-04-17T15:44:39.500+03:00,7490,1.122643,0,0,6178.962,4,10,2025-04-18T11:35:40.728+03:00,766658153.7219963,0,107.81,100.5609,1,0.55,2025-04-18T11:25:57.919+03:00,77.00000000000001,1.283333333333333,2025-04-18T08:51:18.885+03:00,0.03057091307199995,1
2025-04-18T11:35:56.099+03:00,1744965352.97818,40.95357940565665,29.14101123988411,93.69504,-1,-1,-1,-1,30,22.06683002708428,-9999,64391.73563829167,-0.8202362060546875,0.6370697021484375,-0.3413238525390625,64391.72556329167,1.03918747782426,-1.346822044890718,-0.6862228364244694,-0.4544265270233154,0.2739752233028412,0.01393837388604879,-0.04919147491455078,0.02081465721130371,-0.1876197308301926,XArbitraryZVertical,0.06334231563579519,-0.6403686577000833,0.5476307224812147,0.5348050082262943,-0.7543210983276367,0.6336195468902588,-0.1718314737081528,0,0,0,-1,-1,64378.94930104167,unknown,2,2025-04-18T11:35:43.308+03:00,2025-04-17T15:44:39.500+03:00,7490,1.122643,0,0,6178.962,4,10,2025-04-18T11:35:40.728+03:00,766658153.7219963,0,107.81,100.5609,1,0.55,2025-04-18T11:25:57.919+03:00,77.00000000000001,1.283333333333333,2025-04-18T08:51:18.885+03:00,0.03057091307199995,1
2025-04-18T11:35:56.109+03:00,1744965352.97818,40.95357940565665,29.14101123988411,93.69504,-1,-1,-1,-1,30,22.06683002708428,-9999,64391.74571329167,-0.81158447265625,0.62841796875,-0.315399169921875,64391.73563829167,1.032612460400963,-1.348897095017722,-0.6881962193924526,-0.6079867482185364,0.1407388746738434,0.152277871966362,-0.06672030687332153,0.004381418228149414,-0.1739427447319031,XArbitraryZVertical,0.06106956585479129,-0.6413075233097048,0.5461821051415462,0.5354254323639245,-0.7534549236297607,0.6351450085639954,-0.1699903309345245,0,0,0,-1,-1,64378.94930104167,unknown,2,2025-04-18T11:35:43.308+03:00,2025-04-17T15:44:39.500+03:00,7490,1.122643,0,0,6178.962,4,10,2025-04-18T11:35:40.728+03:00,766658153.7219963,0,107.81,100.5609,1,0.55,2025-04-18T11:25:57.919+03:00,77.00000000000001,1.283333333333333,2025-04-18T08:51:18.885+03:00,0.03057091307199995,1
2025-04-18T11:35:56.142+03:00,1744965352.97818,40.95357940565665,29.14101123988411,93.69504,-1,-1,-1,-1,30,22.06683002708428,-9999,64391.75578829167,-0.7718963623046875,0.6243743896484375,-0.2857818603515625,64391.74571329167,1.025037094498712,-1.352683632132584,-0.6918032712366295,-0.6603289246559143,0.06337398290634155,0.2505900263786316,-0.06298315525054932,-0.009783625602722168,-0.1519794315099716,XArbitraryZVertical,0.05832943596853316,-0.6428670422889596,0.5447308124380255,0.5353391401134516,-0.7518514394760132,0.6379269361495972,-0.1666392832994461,0,0,0,-1,-1,64378.94930104167,unknown,2,2025-04-18T11:35:43.308+03:00,2025-04-17T15:44:39.500+03:00,7490,1.122643,0,0,6178.962,4,10,2025-04-18T11:35:40.728+03:00,766658153.7219963,0,107.81,100.5609,1,0.55,2025-04-18T11:25:57.919+03:00,77.00000000000001,1.283333333333333,2025-04-18T08:51:18.885+03:00,0.03057091307199995,1
2025-04-18T11:35:56.146+03:00,1744965352.97818,40.95357940565665,29.14101123988411,93.69504,-1,-1,-1,-1,30,22.06683002708428,-9999,64391.76586329167,-0.7490386962890625,0.55743408203125,-0.257171630859375,64391.75578829167,1.017294400988902,-1.357222329337623,-0.6949385353838646,-0.6203471422195435,0.007686486467719078,0.1315238326787949,-0.02633577585220337,-0.0133393406867981,-0.1271470040082932,XArbitraryZVertical,0.05590630464121963,-0.6445729308309336,0.5431325117014012,0.535170406829117,-0.7506417632102966,0.6403382420539856,-0.1628004461526871,0,0,0,-1,-1,64378.94930104167,unknown,2,2025-04-18T11:35:43.308+03:00,2025-04-17T15:44:39.500+03:00,7490,1.122643,0,0,6178.962,4,10,2025-04-18T11:35:40.728+03:00,766658153.7219963,0,107.81,100.5609,1,0.55,2025-04-18T11:25:57.919+03:00,77.00000000000001,1.283333333333333,2025-04-18T08:51:18.885+03:00,0.03057091307199995,1
2025-04-18T11:35:56.148+03:00,1744965352.97818,40.95357940565665,29.14101123988411,93.69504,-1,-1,-1,-1,30,22.06683002708428,-9999,64391.77593829167,-0.7069854736328125,0.586669921875,-0.2339019775390625,64391.76586329167,1.010155535513999,-1.362231887068971,-0.6978219135351983,-0.5482114553451538,-0.1225605234503746,0.1987724602222443,-0.001170337200164795,-0.07579308748245239,-0.102056547999382,XArbitraryZVertical,0.05388948632457564,-0.6463500573132694,0.5416446963600466,0.534741532778832,-0.7496383786201477,0.6425502896308899,-0.158655047416687,0,0,0,-1,-1,64378.94930104167,unknown,2,2025-04-18T11:35:43.308+03:00,2025-04-17T15:44:39.500+03:00,7490,1.122643,0,0,6178.962,4,10,2025-04-18T11:35:40.728+03:00,766658153.7219963,0,107.81,100.5609,1,0.55,2025-04-18T11:25:57.919+03:00,77.00000000000001,1.283333333333333,2025-04-18T08:51:18.885+03:00,0.03057091307199995,1
2025-04-18T11:35:56.151+03:00,1744965352.97818,40.95357940565665,29.14101123988411,93.69504,-1,-1,-1,-1,30,22.06683002708428,-9999,64391.78601329167,-0.661712646484375,0.6597900390625,-0.222625732421875,64391.77593829167,1.003629601203974,-1.368750806127286,-0.7010604249357028,-0.621126115322113,-0.3250265419483185,0.2099819779396057,0.03511321544647217,-0.07103854417800903,-0.08374451100826263,XArbitraryZVertical,0.05233759151494188,-0.6485271967277098,0.5403616881880233,0.5335564505490891,-0.7486141920089722,0.6450284123420715,-0.1533465087413788,0,0,0,-1,-1,64378.94930104167,unknown,2,2025-04-18T11:35:43.308+03:00,2025-04-17T15:44:39.500+03:00,7490,1.122643,0,0,6178.962,4,10,2025-04-18T11:35:40.728+03:00,766658153.7219963,0,107.81,100.5609,1,0.55,2025-04-18T11:25:57.919+03:00,77.00000000000001,1.283333333333333,2025-04-18T08:51:18.885+03:00,0.03057091307199995,1
2025-04-18T11:35:56.159+03:00,1744965352.97818,40.95357940565665,29.14101123988411,93.69504,-1,-1,-1,-1,30,22.06683002708428,-9999,64391.79608829167,-0.6484222412109375,0.627593994140625,-0.237548828125,64391.78601329167,0.9942657606468921,-1.378796280678873,-0.7046089380315239,-0.9018552303314209,-0.456392228603363,0.2054505199193954,0.08212435245513916,0.009780585765838623,-0.07796180248260498,XArbitraryZVertical,0.05068644130741658,-0.6517210771262474,0.538309851651908,0.5318957952350266,-0.7478654384613037,0.6477359533309937,-0.1453810483217239,0,0,0,-1,-1,64378.94930104167,unknown,2,2025-04-18T11:35:43.308+03:00,2025-04-17T15:44:39.500+03:00,7490,1.122643,0,0,6178.962,4,10,2025-04-18T11:35:40.728+03:00,766658153.7219963,0,107.81,100.5609,1,0.55,2025-04-18T11:25:57.919+03:00,77.00000000000001,1.283333333333333,2025-04-18T08:51:18.885+03:00,0.03057091307199995,1
2025-04-18T11:35:56.170+03:00,1744965352.97818,40.95357940565665,29.14101123988411,93.69504,-1,-1,-1,-1,30,22.06683002708428,-9999,64391.80616329167,-0.6342620849609375,0.6183624267578125,-0.2885284423828125,64391.79608829167,0.9814370994387651,-1.39291444912134,-0.7077565198544049,-1.071249008178711,-0.6873295903205872,0.01082776766270399,0.09750330448150635,-0.01737934350967407,-0.09881405532360077,XArbitraryZVertical,0.04911608183632826,-0.6560214362538702,0.5351842367332308,0.5299068971564629,-0.7478328943252563,0.6501307487487793,-0.1344469785690308,0,0,0,-1,-1,64378.94930104167,unknown,2,2025-04-18T11:35:43.308+03:00,2025-04-17T15:44:39.500+03:00,7490,1.122643,0,0,6178.962,4,10,2025-04-18T11:35:40.728+03:00,766658153.7219963,0,107.81,100.5609,1,0.55,2025-04-18T11:25:57.919+03:00,77.00000000000001,1.283333333333333,2025-04-18T08:51:18.885+03:00,0.03057091307199995,1
2025-04-18T11:35:56.180+03:00,1744965352.97818,40.95357940565665,29.14101123988411,93.69504,-1,-1,-1,-1,30,22.06683002708428,-9999,64391.81623829167,-0.5683746337890625,0.723541259765625,-0.34515380859375,64391.80616329167,0.9689351331610426,-1.408533011491258,-0.7119561470104583,-0.8723734617233276,-0.6844800114631653,0.646302342414856,0.1096587181091309,-0.03823423385620117,-0.1601160168647766,XArbitraryZVertical,0.04761852998560194,-0.6607405487308001,0.532362745004392,0.5270145284138726,-0.7471404075622559,0.6533159613609314,-0.1223088055849075,0,0,0,-1,-1,64378.94930104167,unknown,2,2025-04-18T11:35:43.308+03:00,2025-04-17T15:44:39.500+03:00,7490,1.122643,0,0,6178.962,4,10,2025-04-18T11:35:40.728+03:00,766658153.7219963,0,107.81,100.5609,1,0.55,2025-04-18T11:25:57.919+03:00,77.00000000000001,1.283333333333333,2025-04-18T08:51:18.885+03:00,0.03057091307199995,1
2025-04-18T11:35:56.190+03:00,1744965352.97818,40.95357940565665,29.14101123988411,93.69504,-1,-1,-1,-1,30,22.06683002708428,-9999,64391.82631329167,-0.5149993896484375,0.865814208984375,-0.41900634765625,64391.81623829167,0.9653605864668618,-1.41887082476225,-0.7226756469118063,0.0284242182970047,-1.077993750572205,0.9639047980308533,0.1577202677726746,0.03953385353088379,-0.2221964001655579,XArbitraryZVertical,0.04524211818166576,-0.6642266685732366,0.5334060031486376,0.5217605947730215,-0.7413994669914246,0.6613938808441162,-0.1135121658444405,0,0,0,-1,-1,64378.94930104167,unknown,2,2025-04-18T11:35:43.308+03:00,2025-04-17T15:44:39.500+03:00,7490,1.122643,0,0,6178.962,4,10,2025-04-18T11:35:40.728+03:00,766658153.7219963,0,107.81,100.5609,1,0.55,2025-04-18T11:25:57.919+03:00,77.00000000000001,1.283333333333333,2025-04-18T08:51:18.885+03:00,0.03057091307199995,1
2025-04-18T11:35:56.200+03:00,1744965352.97818,40.95357940565665,29.14101123988411,93.69504,-1,-1,-1,-1,30,22.06683002708428,-9999,64391.83638829167,-0.930572509765625,0.635467529296875,-0.325164794921875,64391.82631329167,0.9716277272623713,-1.424632453819216,-0.7282068895482803,0.603041410446167,-0.8468138575553894,0.4801013469696045,0.2465587258338928,0.2034708857536316,-0.307418167591095,XArbitraryZVertical,0.04683441698223224,-0.6659237611828585,0.5360474441881231,0.516725518272582,-0.7384105324745178,0.6655324101448059,-0.1087041646242142,0,0,0,-1,-1,64378.94930104167,unknown,2,2025-04-18T11:35:43.308+03:00,2025-04-17T15:44:39.500+03:00,7490,1.122643,0,0,6178.962,4,10,2025-04-18T11:35:40.728+03:00,766658153.7219963,0,107.81,100.5609,1,0.55,2025-04-18T11:25:57.919+03:00,77.00000000000001,1.283333333333333,2025-04-18T08:51:18.885+03:00,0.03057091307199995,1
2025-04-18T11:35:56.210+03:00,1744965352.97818,40.95357940565665,29.14101123988411,93.69504,-1,-1,-1,-1,30,22.06683002708428,-9999,64391.84646329167,-0.8175811767578125,0.6122894287109375,-0.045928955078125,64391.83638829167,0.9799223178783528,-1.428257434789029,-0.7331959825138181,0.4168925285339355,-1.087370753288269,0.6481949687004089,-0.1558689475059509,-0.005521059036254883,-0.2434147298336029,XArbitraryZVertical,0.0487430167160076,-0.6669687123962253,0.5391246083937569,0.5119779777538974,-0.7355037331581116,0.6692478060722351,-0.1055537089705467,0,0,0,-1,-1,64378.94930104167,unknown,2,2025-04-18T11:35:43.308+03:00,2025-04-17T15:44:39.500+03:00,7490,1.122643,0,0,6178.962,4,10,2025-04-18T11:35:40.728+03:00,766658153.7219963,0,107.81,100.5609,1,0.55,2025-04-18T11:25:57.919+03:00,77.00000000000001,1.283333333333333,2025-04-18T08:51:18.885+03:00,0.03057091307199995,1
2025-04-18T11:35:56.220+03:00,1744965352.97818,40.95357940565665,29.14101123988411,93.69504,-1,-1,-1,-1,30,22.06683002708428,-9999,64391.85653829167,-0.5904541015625,0.65252685546875,0.2108612060546875,64391.84646329167,0.9761658872245692,-1.453210097408479,-0.736555521144749,-1.118013381958008,-3.193374872207642,-0.03731435909867287,-0.1215062737464905,-0.06625622510910034,0.002005875110626221,XArbitraryZVertical,0.05297769591799517,-0.6736026211269204,0.538235993944814,0.5037410025446867,-0.7356715202331543,0.6717402935028076,-0.08690574765205383,0,0,0,-1,-1,64378.94930104167,unknown,2,2025-04-18T11:35:43.308+03:00,2025-04-17T15:44:39.500+03:00,7490,1.122643,0,0,6178.962,4,10,2025-04-18T11:35:40.728+03:00,766658153.7219963,0,107.81,100.5609,1,0.55,2025-04-18T11:25:57.919+03:00,77.00000000000001,1.283333333333333,2025-04-18T08:51:18.885+03:00,0.03057091307199995,1
2025-04-18T11:35:56.230+03:00,1744965352.97818,40.95357940565665,29.14101123988411,93.69504,-1,-1,-1,-1,30,22.06683002708428,-9999,64391.86661329167,-0.479766845703125,0.5107879638671875,0.0089263916015625,64391.85653829167,0.968052993598981,-1.48446429569401,-0.7375732953197779,-0.6408804059028625,-2.527612209320068,-0.1697493642568588,0.1223407983779907,-0.02393436431884766,0.257830798625946,XArbitraryZVertical,0.05825014854916843,-0.6816885709179924,0.5355587256537497,0.4950600404365889,-0.7373462915420532,0.6724938750267029,-0.06381522864103317,0,0,0,-1,-1,64378.94930104167,unknown,2,2025-04-18T11:35:43.308+03:00,2025-04-17T15:44:39.500+03:00,7490,1.122643,0,0,6178.962,4,10,2025-04-18T11:35:40.728+03:00,766658153.7219963,0,107.81,100.5609,1,0.55,2025-04-18T11:25:57.919+03:00,77.00000000000001,1.283333333333333,2025-04-18T08:51:18.885+03:00,0.03057091307199995,1
2025-04-18T11:35:56.240+03:00,1744965352.97818,40.95357940565665,29.14101123988411,93.69504,-1,-1,-1,-1,30,22.06683002708428,-9999,64391.87668829167,-0.896148681640625,0.409515380859375,0.023162841796875,64391.86661329167,0.9502013186678654,-1.522137461884529,-0.7345828082589886,-1.639072895050049,-2.190940380096436,-0.3425088822841644,0.279714822769165,-0.1245316863059998,0.08080428838729858,XArbitraryZVertical,0.06322585217581653,-0.6913425231758739,0.529364403877848,0.4876694545412146,-0.7412322759628296,0.6702775955200195,-0.03609601408243179,0,0,0,-1,-1,64378.94930104167,unknown,2,2025-04-18T11:35:43.308+03:00,2025-04-17T15:44:39.500+03:00,7490,1.122643,0,0,6178.962,4,10,2025-04-18T11:35:40.728+03:00,766658153.7219963,0,107.81,100.5609,1,0.55,2025-04-18T11:25:57.919+03:00,77.00000000000001,1.283333333333333,2025-04-18T08:51:18.885+03:00,0.03057091307199995,1
2025-04-18T11:35:56.250+03:00,1744965352.97818,40.95357940565665,29.14101123988411,93.69504,-1,-1,-1,-1,30,22.06683002708428,-9999,64391.88676329167,-1.053878784179688,0.412139892578125,-0.06085205078125,64391.87668829167,0.92306287842084,-1.554836581966138,-0.7323122417755553,-2.327305555343628,-0.8790649771690369,-0.3004650473594666,-0.1058903932571411,-0.2662928700447083,0.02225899696350098,XArbitraryZVertical,0.06318114027169411,-0.7000530823134847,0.5212121118313544,0.4840164045360725,-0.7435358762741089,0.6685909032821655,-0.0118676507845521,0,0,0,-1,-1,64378.94930104167,unknown,2,2025-04-18T11:35:43.308+03:00,2025-04-17T15:44:39.500+03:00,7490,1.122643,0,0,6178.962,4,10,2025-04-18T11:35:40.728+03:00,766658153.7219963,0,107.81,100.5609,1,0.55,2025-04-18T11:25:57.919+03:00,77.00000000000001,1.283333333333333,2025-04-18T08:51:18.885+03:00,0.03057091307199995,1
2025-04-18T11:35:56.260+03:00,1744965352.97818,40.95357940565665,29.14101123988411,93.69504,-1,-1,-1,-1,30,22.06683002708428,-9999,64391.89683829167,-1.001373291015625,0.5028076171875,-0.06011962890625,64391.88676329167,0.8883746023131387,-1.584750362130793,-0.7298598167749208,-2.660137414932251,-0.6351562142372131,-0.14113849401474,-0.2992383241653442,-0.2466602325439453,-0.05402398109436035,XArbitraryZVertical,0.05955366102237204,-0.7082746216941883,0.5113147134774801,0.4830710826293397,-0.7451953291893005,0.6667651534080505,0.0103991562500596,0,0,0,-1,-1,64378.94930104167,unknown,2,2025-04-18T11:35:43.308+03:00,2025-04-17T15:44:39.500+03:00,7490,1.122643,0,0,6178.962,4,10,2025-04-18T11:35:40.728+03:00,766658153.7219963,0,107.81,100.5609,1,0.55,2025-04-18T11:25:57.919+03:00,77.00000000000001,1.283333333333333,2025-04-18T08:51:18.885+03:00,0.03057091307199995,1
2025-04-18T11:35:56.270+03:00,1744965352.97818,40.95357940565665,29.14101123988411,93.69504,-1,-1,-1,-1,30,22.06683002708428,-9999,64391.90691329167,-0.740447998046875,0.89483642578125,-0.0521240234375,64391.89683829167,0.8535616682371298,-1.61613599895405,-0.72816818402173,-2.533820152282715,-0.9835860729217529,-0.1220588088035583,-0.2811819314956665,-0.1985540390014648,-0.1013803482055664,XArbitraryZVertical,0.05568857311761828,-0.7168079486815216,0.501592420266194,0.4811343706344418,-0.7456278204917908,0.6655035018920898,0.0338297039270401,0,0,0,-1,-1,64378.94930104167,unknown,2,2025-04-18T11:35:43.308+03:00,2025-04-17T15:44:39.500+03:00,7490,1.122643,0,0,6178.962,4,10,2025-04-18T11:35:40.728+03:00,766658153.7219963,0,107.81,100.5609,1,0.55,2025-04-18T11:25:57.919+03:00,77.00000000000001,1.283333333333333,2025-04-18T08:51:18.885+03:00,0.03057091307199995,1
2025-04-18T11:35:56.280+03:00,1744965352.97818,40.95357940565665,29.14101123988411,93.69504,-1,-1,-1,-1,30,22.06683002708428,-9999,64391.91698829167,-0.640106201171875,0.9604644775390625,-0.104827880859375,64391.90691329167,0.820611694100577,-1.648945417975511,-0.7244557216863613,-2.354650497436523,-1.184531331062317,-0.2585431635379791,-0.0205303430557251,0.1894449591636658,-0.1062688753008842,XArbitraryZVertical,0.0532365981408821,-0.7255325434736879,0.4918222919895881,0.4784134055359982,-0.746574878692627,0.662727952003479,0.05846321582794189,0,0,0,-1,-1,64378.94930104167,unknown,2,2025-04-18T11:35:43.308+03:00,2025-04-17T15:44:39.500+03:00,7490,1.122643,0,0,6178.962,4,10,2025-04-18T11:35:40.728+03:00,766658153.7219963,0,107.81,100.5609,1,0.55,2025-04-18T11:25:57.919+03:00,77.00000000000001,1.283333333333333,2025-04-18T08:51:18.885+03:00,0.03057091307199995,1
2025-04-18T11:35:56.290+03:00,1744965352.97818,40.95357940565665,29.14101123988411,93.69504,-1,-1,-1,-1,30,22.06683002708428,-9999,64391.92706229167,-0.5543670654296875,0.613311767578125,-0.0425872802734375,64391.91698829167,0.7899998192725634,-1.682885942144061,-0.7201350343765139,-2.255231618881226,-1.539511322975159,-0.2513971030712128,0.09811925888061523,0.3221421837806702,-0.1826854944229126,XArbitraryZVertical,0.05180263756137428,-0.7344100592460416,0.48246276043282,0.4745397694407708,-0.7469992637634277,0.6594861745834351,0.08408329635858536,0,0,0,-1,-1,64378.94930104167,unknown,2,2025-04-18T11:35:43.308+03:00,2025-04-17T15:44:39.500+03:00,7490,1.122643,0,0,6178.962,4,10,2025-04-18T11:35:40.728+03:00,766658153.7219963,0,107.81,100.5609,1,0.55,2025-04-18T11:25:57.919+03:00,77.00000000000001,1.283333333333333,2025-04-18T08:51:18.885+03:00,0.03057091307199995,1
2025-04-18T11:35:56.301+03:00,1744965352.97818,40.95357940565665,29.14101123988411,93.69504,-1,-1,-1,-1,30,22.06683002708428,-9999,64391.93713729167,-0.642333984375,0.4579925537109375,0.1657562255859375,64391.92706229167,0.76355353327876,-1.717078533388479,-0.7122850953370613,-1.871555924415588,-1.773364067077637,-0.7839970588684082,0.1887435913085938,0.007155835628509521,-0.1743937730789185,XArbitraryZVertical,0.05283830614722604,-0.7432154734090918,0.4731097258182789,0.4701129203985237,-0.7487870454788208,0.653564989566803,0.1103222519159317,0,0,0,-1,-1,64378.94930104167,unknown,2,2025-04-18T11:35:43.308+03:00,2025-04-17T15:44:39.500+03:00,7490,1.122643,0,0,6178.962,4,10,2025-04-18T11:35:40.728+03:00,766658153.7219963,0,107.81,100.5609,1,0.55,2025-04-18T11:25:57.919+03:00,77.00000000000001,1.283333333333333,2025-04-18T08:51:18.885+03:00,0.03057091307199995,1
2025-04-18T11:35:56.311+03:00,1744965352.97818,40.95357940565665,29.14101123988411,93.69504,-1,-1,-1,-1,30,22.06683002708428,-9999,64391.94721229167,-0.76263427734375,0.6759185791015625,0.25531005859375,64391.93713729167,0.7428225922433662,-1.748882209712185,-0.701235031574739,-1.57524561882019,-1.842161774635315,-0.8150250315666199,0.1302124261856079,-0.1956378817558289,0.008466362953186035,XArbitraryZVertical,0.05620182223164859,-0.7513422864549213,0.4641740798417162,0.4656915639851461,-0.7519623637199402,0.6451618075370789,0.1353477537631989,0,0,0,-1,-1,64378.94930104167,unknown,2,2025-04-18T11:35:43.308+03:00,2025-04-17T15:44:39.500+03:00,7490,1.122643,0,0,6178.962,4,10,2025-04-18T11:35:40.728+03:00,766658156.3024517,0,107.78,100.5619,1,0.55,2025-04-18T11:25:57.919+03:00,77.00000000000001,1.283333333333333,2025-04-18T08:51:18.885+03:00,0.03057091307199995,1
2025-04-18T11:35:56.321+03:00,1744965352.97818,40.95357940565665,29.14101123988411,93.69504,-1,-1,-1,-1,30,22.06683002708428,-9999,64391.95728729167,-0.794586181640625,0.758514404296875,0.231292724609375,64391.94721229167,0.7261198969282731,-1.777631660753861,-0.6907035979913191,-1.325893640518188,-1.733648657798767,-0.7740106582641602,0.0003558993339538574,0.009786128997802734,0.09365926682949066,XArbitraryZVertical,0.05994797383469828,-0.7586522275594543,0.4563131932303061,0.4611195818316451,-0.7543689012527466,0.637079656124115,0.1582939177751541,0,0,0,-1,-1,64378.94930104167,unknown,2,2025-04-18T11:35:43.308+03:00,2025-04-17T15:44:39.500+03:00,7490,1.122643,0,0,6178.962,4,10,2025-04-18T11:35:40.728+03:00,766658156.3024517,0,107.78,100.5619,1,0.55,2025-04-18T11:25:57.919+03:00,77.00000000000001,1.283333333333333,2025-04-18T08:51:18.885+03:00,0.03057091307199995,1
2025-04-18T11:35:56.331+03:00,1744965352.97818,40.95357940565665,29.14101123988411,93.69504,-1,-1,-1,-1,30,22.06683002708428,-9999,64391.96736229167,-0.7574462890625,0.648193359375,0.2262115478515625,64391.95728729167,0.712580309155504,-1.803316702457647,-0.6804573354219455,-1.177124381065369,-1.675902485847473,-0.750346839427948,-0.03719645738601685,0.1346758604049683,0.05677519738674164,XArbitraryZVertical,0.06390216850276603,-0.7651612452108375,0.4492654827753336,0.4567333475000945,-0.7563673853874207,0.629148542881012,0.1791104376316071,0,0,0,-1,-1,64378.94930104167,unknown,2,2025-04-18T11:35:43.308+03:00,2025-04-17T15:44:39.500+03:00,7490,1.122643,0,0,6178.962,4,10,2025-04-18T11:35:40.728+03:00,766658156.3024517,0,107.78,100.5619,1,0.55,2025-04-18T11:25:57.919+03:00,77.00000000000001,1.283333333333333,2025-04-18T08:51:18.885+03:00,0.03057091307199995,1
2025-04-18T11:35:56.341+03:00,1744965352.97818,40.95357940565665,29.14101123988411,93.69504,-1,-1,-1,-1,30,22.06683002708428,-9999,64391.97743729167,-0.6764678955078125,0.57647705078125,0.2257843017578125,64391.96736229167,0.7001080490357074,-1.827610414020662,-0.6704914258859249,-1.179507613182068,-1.578529477119446,-0.7158347368240356,-0.008903324604034424,0.04173016548156738,0.02510765194892883,XArbitraryZVertical,0.06769283451898431,-0.7713134601456515,0.4425061859807214,0.4524175492929406,-0.7578204870223999,0.6213710904121399,0.1990135461091995,0,0,0,-1,-1,64378.94930104167,unknown,2,2025-04-18T11:35:43.308+03:00,2025-04-17T15:44:39.500+03:00,7490,1.122643,0,0,6178.962,4,10,2025-04-18T11:35:40.728+03:00,766658156.3024517,0,107.78,100.5619,1,0.55,2025-04-18T11:25:57.919+03:00,77.00000000000001,1.283333333333333,2025-04-18T08:51:18.885+03:00,0.03057091307199995,1
2025-04-18T11:35:56.351+03:00,1744965352.97818,40.95357940565665,29.14101123988411,93.69504,-1,-1,-1,-1,30,22.06683002708428,-9999,64391.98751229167,-0.6346893310546875,0.5949859619140625,0.2601318359375,64391.97743729167,0.6880405636357156,-1.850071597230132,-0.6602459022271373,-1.170178294181824,-1.39913022518158,-0.7449644207954407,0.07419610023498535,-0.03279048204421997,0.01002572476863861,XArbitraryZVertical,0.07116631683709615,-0.7770449384454267,0.4357319589442326,0.4486359206669722,-0.7592394351959229,0.6133111119270325,0.2177269607782364,0,0,0,-1,-1,64378.94930104167,unknown,2,2025-04-18T11:35:43.308+03:00,2025-04-17T15:44:39.500+03:00,7490,1.122643,0,0,6178.962,4,10,2025-04-18T11:35:40.728+03:00,766658156.3024517,0,107.78,100.5619,1,0.55,2025-04-18T11:25:57.919+03:00,77.00000000000001,1.283333333333333,2025-04-18T08:51:18.885+03:00,0.03057091307199995,1
2025-04-18T11:35:56.361+03:00,1744965352.97818,40.95357940565665,29.14101123988411,93.69504,-1,-1,-1,-1,30,22.06683002708428,-9999,64391.99758729167,-0.6132659912109375,0.6773681640625,0.395355224609375,64391.98751229167,0.677177119743988,-1.87005132922526,-0.6499153848185319,-1.04249906539917,-1.257764220237732,-0.7314576506614685,0.1226903200149536,-0.01670974493026733,0.01457555592060089,XArbitraryZVertical,0.07445299444947948,-0.7821830849482991,0.4292143954739215,0.4454450597180078,-0.7607517838478088,0.6051190495491028,0.2347072511911392,0,0,0,-1,-1,64378.94930104167,unknown,2,2025-04-18T11:35:43.308+03:00,2025-04-17T15:44:39.500+03:00,7490,1.122643,0,0,6178.962,4,10,2025-04-18T11:35:40.728+03:00,766658156.3024517,0,107.78,100.5619,1,0.55,2025-04-18T11:25:57.919+03:00,77.00000000000001,1.283333333333333,2025-04-18T08:51:18.885+03:00,0.03057091307199995,1
2025-04-18T11:35:56.371+03:00,1744965352.97818,40.95357940565665,29.14101123988411,93.69504,-1,-1,-1,-1,30,22.06683002708428,-9999,64392.00766229167,-0.62774658203125,0.701751708984375,0.5098724365234375,64391.99758729167,0.6681080525577359,-1.887467308803954,-0.6399351568867407,-0.9365164637565613,-1.110405921936035,-0.7186358571052551,0.1478398442268372,0.07035225629806519,0.1284922212362289,XArbitraryZVertical,0.0776660763465323,-0.7866779802200516,0.4232400601077921,0.442689039935194,-0.7622502446174622,0.5971434116363525,0.2497885227203369,0,0,0,-1,-1,64378.94930104167,unknown,2,2025-04-18T11:35:43.308+03:00,2025-04-17T15:44:39.500+03:00,7490,1.122643,0,0,6178.962,4,10,2025-04-18T11:35:40.728+03:00,766658156.3024517,0,107.78,100.5619,1,0.55,2025-04-18T11:25:57.919+03:00,77.00000000000001,1.283333333333333,2025-04-18T08:51:18.885+03:00,0.03057091307199995,1
2025-04-18T11:35:56.381+03:00,1744965352.97818,40.95357940565665,29.14101123988411,93.69504,-1,-1,-1,-1,30,22.06683002708428,-9999,64392.01773729167,-0.6694183349609375,0.626495361328125,0.585113525390625,64392.00766229167,0.6607083938613069,-1.902170111922789,-0.6303832569623927,-0.779751718044281,-0.9381394386291504,-0.7028253674507141,0.140242874622345,0.1155931949615479,0.2356773316860199,XArbitraryZVertical,0.08073875431850247,-0.7904981413034632,0.4178256124658433,0.4404721366603707,-0.7638542652130127,0.5894544124603271,0.2628121078014374,0,0,0,-1,-1,64378.94930104167,unknown,2,2025-04-18T11:35:43.308+03:00,2025-04-17T15:44:39.500+03:00,7490,1.122643,0,0,6178.962,4,10,2025-04-18T11:35:40.728+03:00,766658156.3024517,0,107.78,100.5619,1,0.55,2025-04-18T11:25:57.919+03:00,77.00000000000001,1.283333333333333,2025-04-18T08:51:18.885+03:00,0.03057091307199995,1
2025-04-18T11:35:56.391+03:00,1744965352.97818,40.95357940565665,29.14101123988411,93.69504,-1,-1,-1,-1,30,22.06683002708428,-9999,64392.02781229167,-0.7188568115234375,0.5500030517578125,0.6533966064453125,64392.01773729167,0.6560248092264629,-1.913633387044776,-0.6216053988600768,-0.4955620467662811,-0.7957162857055664,-0.7015388011932373,0.1016642451286316,0.05631560087203979,0.3024497032165527,XArbitraryZVertical,0.08390822673627946,-0.7934729580299754,0.4133537045056883,0.43874698195412,-0.7656353116035461,0.5823410153388977,0.2732798457145691,0,0,0,-1,-1,64378.94930104167,unknown,2,2025-04-18T11:35:43.308+03:00,2025-04-17T15:44:39.500+03:00,7490,1.122643,0,0,6178.962,4,10,2025-04-18T11:35:40.728+03:00,766658156.3024517,0,107.78,100.5619,1,0.55,2025-04-18T11:25:57.919+03:00,77.00000000000001,1.283333333333333,2025-04-18T08:51:18.885+03:00,0.03057091307199995,1
2025-04-18T11:35:56.401+03:00,1744965352.97818,40.95357940565665,29.14101123988411,93.69504,-1,-1,-1,-1,30,22.06683002708428,-9999,64392.03788729167,-0.7653656005859375,0.548309326171875,0.676300048828125,64392.02781229167,0.6545160009746605,-1.921801322177617,-0.613637838999029,-0.2828507721424103,-0.6498686671257019,-0.6924951672554016,0.05567401647567749,-0.01932680606842041,0.3645803034305573,XArbitraryZVertical,0.08737322298357092,-0.7955635273567544,0.4099558956160856,0.4374710221181783,-0.7677103281021118,0.5758454203605652,0.2811108231544495,0,0,0,-1,-1,64378.94930104167,unknown,2,2025-04-18T11:35:43.308+03:00,2025-04-17T15:44:39.500+03:00,7490,1.122643,0,0,6178.962,4,10,2025-04-18T11:35:40.728+03:00,766658156.3024517,0,107.78,100.5619,1,0.55,2025-04-18T11:25:57.919+03:00,77.00000000000001,1.283333333333333,2025-04-18T08:51:18.885+03:00,0.03057091307199995,1
2025-04-18T11:35:56.412+03:00,1744965352.97818,40.95357940565665,29.14101123988411,93.69504,-1,-1,-1,-1,30,22.06683002708428,-9999,64392.04796229167,-0.7830352783203125,0.57318115234375,0.6182861328125,64392.03788729167,0.6551473775111742,-1.927270557579771,-0.6066948365575275,-0.1135120838880539,-0.5061184763908386,-0.6372974514961243,0.009132027626037598,-0.02495867013931274,0.391391783952713,XArbitraryZVertical,0.09080973324035316,-0.7969318969295311,0.4074694576748679,0.4366027050334046,-0.7698896527290344,0.5701552629470825,0.2866937220096588,0,0,0,-1,-1,64378.94930104167,unknown,2,2025-04-18T11:35:43.308+03:00,2025-04-17T15:44:39.500+03:00,7490,1.122643,0,0,6178.962,4,10,2025-04-18T11:35:40.728+03:00,766658156.3024517,0,107.78,100.5619,1,0.55,2025-04-18T11:25:57.919+03:00,77.00000000000001,1.283333333333333,2025-04-18T08:51:18.885+03:00,0.03057091307199995,1
2025-04-18T11:35:56.422+03:00,1744965352.97818,40.95357940565665,29.14101123988411,93.69504,-1,-1,-1,-1,30,22.06683002708428,-9999,64392.05803729167,-0.7786102294921875,0.5489654541015625,0.5470733642578125,64392.04796229167,0.6568653278194377,-1.930599980254663,-0.6007961450144909,-0.02545472607016563,-0.3523044288158417,-0.5563280582427979,-0.01028364896774292,0.008080065250396729,0.3377546668052673,XArbitraryZVertical,0.09392278076663349,-0.7977441348426487,0.405660882031727,0.436144441587017,-0.7720649242401123,0.565299391746521,0.2904343903064728,0,0,0,-1,-1,64378.94930104167,unknown,2,2025-04-18T11:35:43.308+03:00,2025-04-17T15:44:39.500+03:00,7490,1.122643,0,0,6178.962,4,10,2025-04-18T11:35:40.728+03:00,766658156.3024517,0,107.78,100.5619,1,0.55,2025-04-18T11:25:57.919+03:00,77.00000000000001,1.283333333333333,2025-04-18T08:51:18.885+03:00,0.03057091307199995,1
2025-04-18T11:35:56.432+03:00,1744965352.97818,40.95357940565665,29.14101123988411,93.69504,-1,-1,-1,-1,30,22.06683002708428,-9999,64392.06811229167,-0.7682037353515625,0.50848388671875,0.49090576171875,64392.05803729167,0.659424579906166,-1.932087637932298,-0.5956382477853165,0.03756844624876976,-0.2366702556610107,-0.5629838705062866,-0.006671786308288574,-0.007555246353149414,0.2619865536689758,XArbitraryZVertical,0.09677377157107434,-0.7980849176756106,0.404369660839519,0.4360967302880367,-0.7743492126464844,0.5610371828079224,0.2926093935966492,0,0,0,-1,-1,64378.94930104167,unknown,2,2025-04-18T11:35:43.308+03:00,2025-04-17T15:44:39.500+03:00,7490,1.122643,0,0,6178.962,4,10,2025-04-18T11:35:40.728+03:00,766658156.3024517,0,107.78,100.5619,1,0.55,2025-04-18T11:25:57.919+03:00,77.00000000000001,1.283333333333333,2025-04-18T08:51:18.885+03:00,0.03057091307199995,1
2025-04-18T11:35:56.442+03:00,1744965352.97818,40.95357940565665,29.14101123988411,93.69504,-1,-1,-1,-1,30,22.06683002708428,-9999,64392.07818729167,-0.7679901123046875,0.469451904296875,0.4523162841796875,64392.06811229167,0.6619624901344101,-1.932573328479479,-0.59029744351275,-0.03682875633239746,-0.1414661705493927,-0.5724994540214539,0.008352339267730713,-0.04188334941864014,0.2033641636371613,XArbitraryZVertical,0.09946603368670327,-0.7982026585296558,0.4030557846513447,0.4364919272350283,-0.77699875831604,0.5566081404685974,0.2940419614315033,0,0,0,-1,-1,64378.94930104167,unknown,2,2025-04-18T11:35:43.308+03:00,2025-04-17T15:44:39.500+03:00,7490,1.122643,0,0,6178.962,4,10,2025-04-18T11:35:40.728+03:00,766658156.3024517,0,107.78,100.5619,1,0.55,2025-04-18T11:25:57.919+03:00,77.00000000000001,1.283333333333333,2025-04-18T08:51:18.885+03:00,0.03057091307199995,1
2025-04-18T11:35:56.452+03:00,1744965352.97818,40.95357940565665,29.14101123988411,93.69504,-1,-1,-1,-1,30,22.06683002708428,-9999,64392.08826229167,-0.7692108154296875,0.4598541259765625,0.432830810546875,64392.07818729167,0.6633563186727298,-1.933008985807422,-0.5845792791971661,-0.1453200876712799,-0.1008801385760307,-0.5724965333938599,0.01175236701965332,-0.07865828275680542,0.1596358716487885,XArbitraryZVertical,0.1018021334343192,-0.7983658340543106,0.4013619935815786,0.4372149633444564,-0.779833972454071,0.5518485903739929,0.2955033481121063,0,0,0,-1,-1,64378.94930104167,unknown,2,2025-04-18T11:35:43.308+03:00,2025-04-17T15:44:39.500+03:00,7490,1.122643,0,0,6178.962,4,10,2025-04-18T11:35:40.728+03:00,766658156.3024517,0,107.78,100.5619,1,0.55,2025-04-18T11:25:57.919+03:00,77.00000000000001,1.283333333333333,2025-04-18T08:51:18.885+03:00,0.03057091307199995,1
2025-04-18T11:35:56.462+03:00,1744965352.97818,40.95357940565665,29.14101123988411,93.69504,-1,-1,-1,-1,30,22.06683002708428,-9999,64392.09833729167,-0.794219970703125,0.4579315185546875,0.4176483154296875,64392.08826229167,0.6639522167930901,-1.933483776834974,-0.5785337037474743,-0.1804648190736771,-0.05999721586704254,-0.5867944955825806,0.0150524377822876,-0.08727854490280151,0.138128936290741,XArbitraryZVertical,0.1039228284232992,-0.7985774344203594,0.399375152253273,0.4381478268391184,-0.7827983498573303,0.5467968583106995,0.2970517575740814,0,0,0,-1,-1,64378.94930104167,unknown,2,2025-04-18T11:35:43.308+03:00,2025-04-17T15:44:39.500+03:00,7490,1.122643,0,0,6178.962,4,10,2025-04-18T11:35:40.728+03:00,766658156.3024517,0,107.78,100.5619,1,0.55,2025-04-18T11:25:57.919+03:00,77.00000000000001,1.283333333333333,2025-04-18T08:51:18.885+03:00,0.03057091307199995,1
2025-04-18T11:35:56.472+03:00,1744965352.97818,40.95357940565665,29.14101123988411,93.69504,-1,-1,-1,-1,30,22.06683002708428,-9999,64392.10841229167,-0.833221435546875,0.4354705810546875,0.3950347900390625,64392.09833729167,0.6643738731461371,-1.933685175643066,-0.5722434643672316,-0.1906870901584625,-0.02413535863161087,-0.598335862159729,-0.003673136234283447,-0.08168059587478638,0.1204445362091064,XArbitraryZVertical,0.1059899778292583,-0.7987355002924462,0.3972756450081484,0.439271995698973,-0.7859387397766113,0.5415194630622864,0.2984245419502258,0,0,0,-1,-1,64378.94930104167,unknown,2,2025-04-18T11:35:43.308+03:00,2025-04-17T15:44:39.500+03:00,7490,1.122643,0,0,6178.962,4,10,2025-04-18T11:35:40.728+03:00,766658156.3024517,0,107.78,100.5619,1,0.55,2025-04-18T11:25:57.919+03:00,77.00000000000001,1.283333333333333,2025-04-18T08:51:18.885+03:00,0.03057091307199995,1
2025-04-18T11:35:56.482+03:00,1744965352.97818,40.95357940565665,29.14101123988411,93.69504,-1,-1,-1,-1,30,22.06683002708428,-9999,64392.11848729167,-0.8496856689453125,0.4384307861328125,0.342529296875,64392.10841229167,0.6652692483411586,-1.933196550735718,-0.5662611794834098,-0.08903216570615768,0.0281717199832201,-0.5617854595184326,-0.03974270820617676,-0.09797346591949463,0.1003831624984741,XArbitraryZVertical,0.1080176539029069,-0.7987014433818289,0.3954209958435661,0.4405116620961206,-0.7890995144844055,0.5364805459976196,0.2991836071014404,0,0,0,-1,-1,64378.94930104167,unknown,2,2025-04-18T11:35:43.308+03:00,2025-04-17T15:44:39.500+03:00,7490,1.122643,0,0,6178.962,4,10,2025-04-18T11:35:40.728+03:00,766658156.3024517,0,107.78,100.5619,1,0.55,2025-04-18T11:25:57.919+03:00,77.00000000000001,1.283333333333333,2025-04-18T08:51:18.885+03:00,0.03057091307199995,1
2025-04-18T11:35:56.492+03:00,1744965352.97818,40.95357940565665,29.14101123988411,93.69504,-1,-1,-1,-1,30,22.06683002708428,-9999,64392.12856229167,-0.8495635986328125,0.47003173828125,0.316925048828125,64392.11848729167,0.667088935684487,-1.931693941547411,-0.5610878434520272,0.02574208006262779,0.07507238537073135,-0.5107872486114502,-0.05617821216583252,-0.09649962186813354,0.05026960372924805,XArbitraryZVertical,0.1099757872815192,-0.7983684226992912,0.3941061250141516,0.4418072779898865,-0.7921342253684998,0.5321075916290283,0.2989736199378967,0,0,0,-1,-1,64378.94930104167,unknown,2,2025-04-18T11:35:43.308+03:00,2025-04-17T15:44:39.500+03:00,7490,1.122643,0,0,6178.962,4,10,2025-04-18T11:35:40.728+03:00,766658156.3024517,0,107.78,100.5619,1,0.55,2025-04-18T11:25:57.919+03:00,77.00000000000001,1.283333333333333,2025-04-18T08:51:18.885+03:00,0.03057091307199995,1
2025-04-18T11:35:56.502+03:00,1744965352.97818,40.95357940565665,29.14101123988411,93.69504,-1,-1,-1,-1,30,22.06683002708428,-9999,64392.13863729167,-0.8400421142578125,0.498931884765625,0.2958221435546875,64392.12856229167,0.6702266053969828,-1.929214450126946,-0.5567331311878246,0.1565070152282715,0.07936007529497147,-0.4951986968517303,-0.05458921194076538,-0.0629308819770813,0.02141058444976807,XArbitraryZVertical,0.1120270278563004,-0.797721293298108,0.3934245811199545,0.4430664465879582,-0.7950354218482971,0.5284155011177063,0.2978186309337616,0,0,0,-1,-1,64378.94930104167,unknown,2,2025-04-18T11:35:43.308+03:00,2025-04-17T15:44:39.500+03:00,7490,1.122643,0,0,6178.962,4,10,2025-04-18T11:35:40.728+03:00,766658156.3024517,0,107.78,100.5619,1,0.55,2025-04-18T11:25:57.919+03:00,77.00000000000001,1.283333333333333,2025-04-18T08:51:18.885+03:00,0.03057091307199995,1
2025-04-18T11:35:56.512+03:00,1744965352.97818,40.95357940565665,29.14101123988411,93.69504,-1,-1,-1,-1,30,22.06683002708428,-9999,64392.14871229167,-0.82940673828125,0.521331787109375,0.2589874267578125,64392.13863729167,0.6746196525840478,-1.926186932365133,-0.5526095213126879,0.2378349006175995,0.06234167888760567,-0.5283659696578979,-0.04426997900009155,-0.03011327981948853,0.002296000719070435,XArbitraryZVertical,0.114403645518273,-0.7968656106833947,0.393139043052275,0.4442508764442893,-0.7979695796966553,0.5249101519584656,0.2961660027503967,0,0,0,-1,-1,64378.94930104167,unknown,2,2025-04-18T11:35:43.308+03:00,2025-04-17T15:44:39.500+03:00,7490,1.122643,0,0,6178.962,4,10,2025-04-18T11:35:40.728+03:00,766658156.3024517,0,107.78,100.5619,1,0.55,2025-04-18T11:25:57.919+03:00,77.00000000000001,1.283333333333333,2025-04-18T08:51:18.885+03:00,0.03057091307199995,1
2025-04-18T11:35:56.522+03:00,1744965352.97818,40.95357940565665,29.14101123988411,93.69504,-1,-1,-1,-1,30,22.06683002708428,-9999,64392.15878729167,-0.822113037109375,0.5336456298828125,0.2183380126953125,64392.14871229167,0.6793606733393935,-1.923119942321712,-0.5483770605333096,0.2176883518695831,0.05415218695998192,-0.5410169363021851,-0.02979743480682373,-0.001985251903533936,-0.02917656302452087,XArbitraryZVertical,0.1169436398334854,-0.7959678528085494,0.3929038345184049,0.4454055718997446,-0.8009522557258606,0.5213029384613037,0.2944812774658203,0,0,0,-1,-1,64378.94930104167,unknown,2,2025-04-18T11:35:43.308+03:00,2025-04-17T15:44:39.500+03:00,7490,1.122643,0,0,6178.962,4,10,2025-04-18T11:35:40.728+03:00,766658156.3024517,0,107.78,100.5619,1,0.55,2025-04-18T11:25:57.919+03:00,77.00000000000001,1.283333333333333,2025-04-18T08:51:18.885+03:00,0.03057091307199995,1
2025-04-18T11:35:56.532+03:00,1744965352.97818,40.95357940565665,29.14101123988411,93.69504,-1,-1,-1,-1,30,22.06683002708428,-9999,64392.16886229167,-0.82476806640625,0.518890380859375,0.206939697265625,64392.15878729167,0.683603060845394,-1.920406338355857,-0.5436436467992579,0.1191098466515541,0.04099324345588684,-0.592355489730835,-0.01933735609054565,0.01583856344223022,-0.07105684280395508,XArbitraryZVertical,0.1195036857865203,-0.7951686400147425,0.3923717554189253,0.4466208310387016,-0.8040574789047241,0.5172577500343323,0.2931486070156097,0,0,0,-1,-1,64378.94930104167,unknown,2,2025-04-18T11:35:43.308+03:00,2025-04-17T15:44:39.500+03:00,7490,1.122643,0,0,6178.962,4,10,2025-04-18T11:35:40.728+03:00,766658156.3024517,0,107.78,100.5619,1,0.55,2025-04-18T11:25:57.919+03:00,77.00000000000001,1.283333333333333,2025-04-18T08:51:18.885+03:00,0.03057091307199995,1
2025-04-18T11:35:56.543+03:00,1744965352.97818,40.95357940565665,29.14101123988411,93.69504,-1,-1,-1,-1,30,22.06683002708428,-9999,64392.17893729167,-0.8396759033203125,0.4639892578125,0.211334228515625,64392.16886229167,0.6862216505638198,-1.918655454914846,-0.5379636512716333,-0.09078852832317352,0.04587029293179512,-0.6122409105300903,-0.01599997282028198,0.01178151369094849,-0.08596518635749817,XArbitraryZVertical,0.1218891739290192,-0.7946770290232346,0.3910977848039626,0.4479664393524529,-0.8073184490203857,0.5123883485794067,0.2927370965480804,0,0,0,-1,-1,64378.94930104167,unknown,2,2025-04-18T11:35:43.308+03:00,2025-04-17T15:44:39.500+03:00,7490,1.122643,0,0,6178.962,4,10,2025-04-18T11:35:40.728+03:00,766658156.3024517,0,107.78,100.5619,1,0.55,2025-04-18T11:25:57.919+03:00,77.00000000000001,1.283333333333333,2025-04-18T08:51:18.885+03:00,0.03057091307199995,1
2025-04-18T11:35:56.553+03:00,1744965352.97818,40.95357940565665,29.14101123988411,93.69504,-1,-1,-1,-1,30,22.06683002708428,-9999,64392.189013,-0.846343994140625,0.4551239013671875,0.22650146484375,64392.178938,0.6867568071278121,-1.917721919099298,-0.5316494652687271,-0.2268369048833847,0.08451142907142639,-0.600980281829834,-0.02693694829940796,-0.03655779361724854,-0.08204850554466248,XArbitraryZVertical,0.1237960433265435,-0.7944893699292365,0.3890890362833844,0.4495231851956505,-0.8106181621551514,0.5069558024406433,0.2930776476860046,0,0,0,-1,-1,64378.94930104167,unknown,2,2025-04-18T11:35:43.308+03:00,2025-04-17T15:44:39.500+03:00,7490,1.122643,0,0,6178.962,4,10,2025-04-18T11:35:40.728+03:00,766658156.3024517,0,107.78,100.5619,1,0.55,2025-04-18T11:25:57.919+03:00,77.00000000000001,1.283333333333333,2025-04-18T08:51:18.885+03:00,0.03057091307199995,1
2025-04-18T11:35:56.563+03:00,1744965352.97818,40.95357940565665,29.14101123988411,93.69504,-1,-1,-1,-1,30,22.06683002708428,-9999,64392.199088,-0.8455047607421875,0.520965576171875,0.25115966796875,64392.189013,0.6869670312771187,-1.916836651191531,-0.5253433463623014,-0.163787305355072,0.06000295281410217,-0.5941083431243896,-0.03200262784957886,-0.0502009391784668,-0.06959179043769836,XArbitraryZVertical,0.1255815998506693,-0.7943226205629836,0.3870054561979616,0.4511182189948917,-0.8138683438301086,0.5015100836753845,0.2934383153915405,0,0,0,-1,-1,64378.94930104167,unknown,2,2025-04-18T11:35:43.308+03:00,2025-04-17T15:44:39.500+03:00,7490,1.122643,0,0,6178.962,4,10,2025-04-18T11:35:40.728+03:00,766658156.3024517,0,107.78,100.5619,1,0.55,2025-04-18T11:25:57.919+03:00,77.00000000000001,1.283333333333333,2025-04-18T08:51:18.885+03:00,0.03057091307199995,1
2025-04-18T11:35:56.573+03:00,1744965352.97818,40.95357940565665,29.14101123988411,93.69504,-1,-1,-1,-1,30,22.06683002708428,-9999,64392.20916300001,-0.838836669921875,0.5592803955078125,0.243896484375,64392.199088,0.6876699908975679,-1.916093577079627,-0.5191917879176305,-0.1320725083351135,0.02180896326899529,-0.5963440537452698,-0.02924823760986328,0.01624202728271484,-0.04449775815010071,XArbitraryZVertical,0.1275448647167135,-0.7941463188241388,0.38507607030608,0.4525266225615034,-0.8169736266136169,0.4961785972118378,0.2938721477985382,0,0,0,-1,-1,64378.94930104167,unknown,2,2025-04-18T11:35:43.308+03:00,2025-04-17T15:44:39.500+03:00,7490,1.122643,0,0,6178.962,4,10,2025-04-18T11:35:40.728+03:00,766658156.3024517,0,107.78,100.5619,1,0.55,2025-04-18T11:25:57.919+03:00,77.00000000000001,1.283333333333333,2025-04-18T08:51:18.885+03:00,0.03057091307199995,1
2025-04-18T11:35:56.582+03:00,1744965352.97818,40.95357940565665,29.14101123988411,93.69504,-1,-1,-1,-1,30,22.06683002708428,-9999,64392.21923800001,-0.82147216796875,0.5576324462890625,0.224639892578125,64392.20916300001,0.688791399455346,-1.91548615125654,-0.513226138562965,-0.07336832582950592,-0.006966358982026577,-0.5822200775146484,-0.01931005716323853,0.06761863827705383,-0.04664438962936401,XArbitraryZVertical,0.1296452851069088,-0.7939631537041216,0.3832961924105423,0.4537604707931562,-0.8199232816696167,0.4909903109073639,0.2943707704544067,0,0,0,-1,-1,64378.94930104167,unknown,2,2025-04-18T11:35:43.308+03:00,2025-04-17T15:44:39.500+03:00,7490,1.122643,0,0,6178.962,4,10,2025-04-18T11:35:40.728+03:00,766658156.3024517,0,107.78,100.5619,1,0.55,2025-04-18T11:25:57.919+03:00,77.00000000000001,1.283333333333333,2025-04-18T08:51:18.885+03:00,0.03057091307199995,1
2025-04-18T11:35:56.593+03:00,1744965352.97818,40.95357940565665,29.14101123988411,93.69504,-1,-1,-1,-1,30,22.06683002708428,-9999,64392.229313,-0.80584716796875,0.57403564453125,0.2569122314453125,64392.21923800001,0.6908645153815026,-1.914722384258391,-0.5076912081251708,0.03995983302593231,-0.05399804934859276,-0.5773150324821472,-0.001845359802246094,0.0707542896270752,-0.07070305943489075,XArbitraryZVertical,0.1319655767040716,-0.7936707403101473,0.3818920797736292,0.4547859381840543,-0.8226938247680664,0.4861609637737274,0.2946563065052032,0,0,0,-1,-1,64378.94930104167,unknown,2,2025-04-18T11:35:43.308+03:00,2025-04-17T15:44:39.500+03:00,7490,1.122643,0,0,6178.962,4,10,2025-04-18T11:35:40.728+03:00,766658156.3024517,0,107.78,100.5619,1,0.55,2025-04-18T11:25:57.919+03:00,77.00000000000001,1.283333333333333,2025-04-18T08:51:18.885+03:00,0.03057091307199995,1
2025-04-18T11:35:56.603+03:00,1744965352.97818,40.95357940565665,29.14101123988411,93.69504,-1,-1,-1,-1,30,22.06683002708428,-9999,64392.239388,-0.8079833984375,0.5695343017578125,0.2848663330078125,64392.229313,0.6939320448367223,-1.913963781431673,-0.5025971965125792,0.1173685342073441,-0.08842986077070236,-0.5527427792549133,0.01885741949081421,0.09025734663009644,-0.04321357607841492,XArbitraryZVertical,0.1345503237308472,-0.7933013655675192,0.3808684255382153,0.455531087985188,-0.825238823890686,0.4817031621932983,0.2948617041110992,0,0,0,-1,-1,64378.94930104167,unknown,2,2025-04-18T11:35:43.308+03:00,2025-04-17T15:44:39.500+03:00,7490,1.122643,0,0,6178.962,4,10,2025-04-18T11:35:40.728+03:00,766658156.3024517,0,107.78,100.5619,1,0.55,2025-04-18T11:25:57.919+03:00,77.00000000000001,1.283333333333333,2025-04-18T08:51:18.885+03:00,0.03057091307199995,1
2025-04-18T11:35:56.628+03:00,1744965352.97818,40.95357940565665,29.14101123988411,93.69504,-1,-1,-1,-1,30,22.06683002708428,-9999,64392.24946200001,-0.80029296875,0.543060302734375,0.2812042236328125,64392.239388,0.6974492792352878,-1.913283251334591,-0.4979204655468559,0.1447069495916367,-0.1077601537108421,-0.5254017114639282,0.01953816413879395,0.09486451745033264,-0.01181957125663757,XArbitraryZVertical,0.1372039800308054,-0.7929071592311757,0.380089010678045,0.4560766213833138,-0.8275522589683533,0.4775995314121246,0.2950533926486969,0,0,0,-1,-1,64378.94930104167,unknown,2,2025-04-18T11:35:43.308+03:00,2025-04-17T15:44:39.500+03:00,7490,1.122643,0,0,6178.962,4,10,2025-04-18T11:35:40.728+03:00,766658156.3024517,0,107.78,100.5619,1,0.55,2025-04-18T11:25:57.919+03:00,77.00000000000001,1.283333333333333,2025-04-18T08:51:18.885+03:00,0.03057091307199995,1
2025-04-18T11:35:56.630+03:00,1744965352.97818,40.95357940565665,29.14101123988411,93.69504,-1,-1,-1,-1,30,22.06683002708428,-9999,64392.25953700001,-0.7912750244140625,0.5230255126953125,0.2755889892578125,64392.24946200001,0.7009424229430451,-1.912687637055847,-0.493568375077639,0.1338023692369461,-0.09942552447319031,-0.4988411664962769,0.02819490432739258,0.07241705060005188,-0.01295146346092224,XArbitraryZVertical,0.1397672256898707,-0.7925227921869272,0.3794130349747091,0.4565289728894879,-0.8296782374382019,0.4737713932991028,0.2952544987201691,0,0,0,-1,-1,64378.94930104167,unknown,2,2025-04-18T11:35:43.308+03:00,2025-04-17T15:44:39.500+03:00,7490,1.122643,0,0,6178.962,4,10,2025-04-18T11:35:40.728+03:00,766658156.3024517,0,107.78,100.5619,1,0.55,2025-04-18T11:25:57.919+03:00,77.00000000000001,1.283333333333333,2025-04-18T08:51:18.885+03:00,0.03057091307199995,1
2025-04-18T11:35:56.633+03:00,1744965352.97818,40.95357940565665,29.14101123988411,93.69504,-1,-1,-1,-1,30,22.06683002708428,-9999,64392.269612,-0.78564453125,0.4814910888671875,0.2853851318359375,64392.25953700001,0.7037965154846183,-1.912282634819137,-0.4891851017394528,0.03878610953688622,-0.08713982999324799,-0.4859051406383514,0.03940314054489136,0.05581960082054138,-0.02005243301391602,XArbitraryZVertical,0.1421220117466079,-0.792216410284828,0.3785683171032538,0.457034573224711,-0.8317463397979736,0.4699067175388336,0.2956110239028931,0,0,0,-1,-1,64378.94930104167,unknown,2,2025-04-18T11:35:43.308+03:00,2025-04-17T15:44:39.500+03:00,7490,1.122643,0,0,6178.962,4,10,2025-04-18T11:35:40.728+03:00,766658156.3024517,0,107.78,100.5619,1,0.55,2025-04-18T11:25:57.919+03:00,77.00000000000001,1.283333333333333,2025-04-18T08:51:18.885+03:00,0.03057091307199995,1
2025-04-18T11:35:56.643+03:00,1744965352.97818,40.95357940565665,29.14101123988411,93.69504,-1,-1,-1,-1,30,22.06683002708428,-9999,64392.279687,-0.7760009765625,0.4395904541015625,0.3008575439453125,64392.269612,0.7054914786232938,-1.91216527852153,-0.4847517137571657,-0.05161302536725998,-0.04896261170506477,-0.4408682882785797,0.0478929877281189,0.02284196019172668,-0.01231810450553894,XArbitraryZVertical,0.1440862452806741,-0.7920499563426647,0.3774210860717698,0.4576565125049105,-0.8337360024452209,0.4659886956214905,0.2962079644203186,0,0,0,-1,-1,64378.94930104167,unknown,2,2025-04-18T11:35:43.308+03:00,2025-04-17T15:44:39.500+03:00,7490,1.122643,0,0,6178.962,4,10,2025-04-18T11:35:40.728+03:00,766658156.3024517,0,107.78,100.5619,1,0.55,2025-04-18T11:25:57.919+03:00,77.00000000000001,1.283333333333333,2025-04-18T08:51:18.885+03:00,0.03057091307199995,1
2025-04-18T11:35:56.653+03:00,1744965352.97818,40.95357940565665,29.14101123988411,93.69504,-1,-1,-1,-1,30,22.06683002708428,-9999,64392.289762,-0.767181396484375,0.459014892578125,0.32855224609375,64392.279687,0.7062152715479366,-1.912245042580627,-0.4804697218074212,-0.1031345427036285,-0.0348995253443718,-0.4054000377655029,0.05865299701690674,-0.02124729752540588,0.001766294240951538,XArbitraryZVertical,0.1456574688695046,-0.7919935695970697,0.3760893291010182,0.458352380002143,-0.8355847001075745,0.4621957540512085,0.2969398200511932,0,0,0,-1,-1,64378.94930104167,unknown,2,2025-04-18T11:35:43.308+03:00,2025-04-17T15:44:39.500+03:00,7490,1.122643,0,0,6178.962,4,10,2025-04-18T11:35:40.728+03:00,766658156.3024517,0,107.78,100.5619,1,0.55,2025-04-18T11:25:57.919+03:00,77.00000000000001,1.283333333333333,2025-04-18T08:51:18.885+03:00,0.03057091307199995,1
2025-04-18T11:35:56.663+03:00,1744965352.97818,40.95357940565665,29.14101123988411,93.69504,-1,-1,-1,-1,30,22.06683002708428,-9999,64392.29983700001,-0.7697296142578125,0.4517822265625,0.3435821533203125,64392.289762,0.706792147577075,-1.912308262232628,-0.4764683058047157,-0.07452153414487839,-0.02954896539449692,-0.3824650347232819,0.06879311800003052,-0.002039700746536255,0.02717375755310059,XArbitraryZVertical,0.147083423689494,-0.7919414948790293,0.3748216616107533,0.4590250323553371,-0.837302029132843,0.4586437046527863,0.2976097166538239,0,0,0,-1,-1,64378.94930104167,unknown,2,2025-04-18T11:35:43.308+03:00,2025-04-17T15:44:39.500+03:00,7490,1.122643,0,0,6178.962,4,10,2025-04-18T11:35:40.728+03:00,766658156.3024517,0,107.78,100.5619,1,0.55,2025-04-18T11:25:57.919+03:00,77.00000000000001,1.283333333333333,2025-04-18T08:51:18.885+03:00,0.03057091307199995,1
2025-04-18T11:35:56.673+03:00,1744965352.97818,40.95357940565665,29.14101123988411,93.69504,-1,-1,-1,-1,30,22.06683002708428,-9999,64392.309912,-0.780364990234375,0.4176025390625,0.350250244140625,64392.29983700001,0.7072826154267196,-1.912340625349933,-0.4726336912947319,-0.09657197445631027,-0.02306097187101841,-0.3585932552814484,0.06948834657669067,0.0007150471210479736,0.04453456401824951,XArbitraryZVertical,0.1484193583109925,-0.7918860661969012,0.3735935255887738,0.4596913387940644,-0.8389433622360229,0.4552328288555145,0.2982237040996552,0,0,0,-1,-1,64378.94930104167,unknown,2,2025-04-18T11:35:43.308+03:00,2025-04-17T15:44:39.500+03:00,7490,1.122643,0,0,6178.962,4,10,2025-04-18T11:35:40.728+03:00,766658156.3024517,0,107.78,100.5619,1,0.55,2025-04-18T11:25:57.919+03:00,77.00000000000001,1.283333333333333,2025-04-18T08:51:18.885+03:00,0.03057091307199995,1
2025-04-18T11:35:56.683+03:00,1744965352.97818,40.95357940565665,29.14101123988411,93.69504,-1,-1,-1,-1,30,22.06683002708428,-9999,64392.319987,-0.798095703125,0.400726318359375,0.362213134765625,64392.309912,0.707649235651308,-1.912324027291828,-0.4692484543379348,-0.06378727406263351,-0.0172980260103941,-0.2993579506874084,0.06140375137329102,-0.03163817524909973,0.04942041635513306,XArbitraryZVertical,0.1495635776993036,-0.7918287688483402,0.3724965472146993,0.460308798497937,-0.8403953313827515,0.4522160887718201,0.2987241148948669,0,0,0,-1,-1,64378.94930104167,unknown,2,2025-04-18T11:35:43.308+03:00,2025-04-17T15:44:39.500+03:00,7490,1.122643,0,0,6178.962,4,10,2025-04-18T11:35:40.728+03:00,766658156.3024517,0,107.78,100.5619,1,0.55,2025-04-18T11:25:57.919+03:00,77.00000000000001,1.283333333333333,2025-04-18T08:51:18.885+03:00,0.03057091307199995,1
2025-04-18T11:35:56.694+03:00,1744965352.97818,40.95357940565665,29.14101123988411,93.69504,-1,-1,-1,-1,30,22.06683002708428,-9999,64392.330062,-0.8256072998046875,0.36907958984375,0.368011474609375,64392.319987,0.7081166341050187,-1.912249037269793,-0.466418921850676,-0.05520522966980934,-0.005134569946676493,-0.2535931468009949,0.04645407199859619,-0.04690435528755188,0.06185799837112427,XArbitraryZVertical,0.1505719699728874,-0.7917526578460912,0.3716206965669164,0.4608186234906695,-0.8416200876235962,0.4496906101703644,0.2990883886814117,0,0,0,-1,-1,64378.94930104167,unknown,2,2025-04-18T11:35:43.308+03:00,2025-04-17T15:44:39.500+03:00,7490,1.122643,0,0,6178.962,4,10,2025-04-18T11:35:40.728+03:00,766658156.3024517,0,107.78,100.5619,1,0.55,2025-04-18T11:25:57.919+03:00,77.00000000000001,1.283333333333333,2025-04-18T08:51:18.885+03:00,0.03057091307199995,1
2025-04-18T11:35:56.704+03:00,1744965352.97818,40.95357940565665,29.14101123988411,93.69504,-1,-1,-1,-1,30,22.06683002708428,-9999,64392.34013700001,-0.8426055908203125,0.3122100830078125,0.3676910400390625,64392.330062,0.70829551459634,-1.912013565737126,-0.464197930187412,-0.06073202192783356,0.0384015217423439,-0.1701213866472244,0.02030301094055176,-0.07294991612434387,0.06929132342338562,XArbitraryZVertical,0.151256132212298,-0.7916649727415264,0.3709029167765895,0.4613232632954988,-0.842629611492157,0.4477057456970215,0.2992236912250519,0,0,0,-1,-1,64378.94930104167,unknown,2,2025-04-18T11:35:43.308+03:00,2025-04-17T15:44:39.500+03:00,7490,1.122643,0,0,6178.962,4,10,2025-04-18T11:35:40.728+03:00,766658156.3024517,0,107.78,100.5619,1,0.55,2025-04-18T11:25:57.919+03:00,77.00000000000001,1.283333333333333,2025-04-18T08:51:18.885+03:00,0.03057091307199995,1
2025-04-18T11:35:56.714+03:00,1744965352.97818,40.95357940565665,29.14101123988411,93.69504,-1,-1,-1,-1,30,22.06683002708428,-9999,64392.350212,-0.8450469970703125,0.28076171875,0.3768157958984375,64392.34013700001,0.7082301502583078,-1.911475358609781,-0.4628176521171479,-0.03867945075035095,0.07327641546726227,-0.08350419253110886,0.001758456230163574,-0.1280354559421539,0.06828746199607849,XArbitraryZVertical,0.1515388551862705,-0.7915327831662846,0.3704456810104356,0.4618244478547139,-0.8433722257614136,0.446471095085144,0.298976331949234,0,0,0,-1,-1,64378.94930104167,unknown,2,2025-04-18T11:35:43.308+03:00,2025-04-17T15:44:39.500+03:00,7490,1.122643,0,0,6178.962,4,10,2025-04-18T11:35:40.728+03:00,766658156.3024517,0,107.78,100.5619,1,0.55,2025-04-18T11:25:57.919+03:00,77.00000000000001,1.283333333333333,2025-04-18T08:51:18.885+03:00,0.03057091307199995,1
2025-04-18T11:35:56.724+03:00,1744965352.97818,40.95357940565665,29.14101123988411,93.69504,-1,-1,-1,-1,30,22.06683002708428,-9999,64392.360287,-0.853485107421875,0.277069091796875,0.3742523193359375,64392.350212,0.7082321725249442,-1.910513306402632,-0.4623629372345768,0.01238932460546494,0.1179085969924927,-0.006482645869255066,-0.0009825229644775391,-0.1630136966705322,0.07724067568778992,XArbitraryZVertical,0.1514960553570539,-0.7913059895517408,0.3703599615487213,0.4622956352786587,-0.8438507318496704,0.4460641741752625,0.2982324361801147,0,0,0,-1,-1,64378.94930104167,unknown,2,2025-04-18T11:35:43.308+03:00,2025-04-17T15:44:39.500+03:00,7490,1.122643,0,0,6178.962,4,10,2025-04-18T11:35:40.728+03:00,766658156.3024517,0,107.78,100.5619,1,0.55,2025-04-18T11:25:57.919+03:00,77.00000000000001,1.283333333333333,2025-04-18T08:51:18.885+03:00,0.03057091307199995,1
2025-04-18T11:35:56.734+03:00,1744965352.97818,40.95357940565665,29.14101123988411,93.69504,-1,-1,-1,-1,30,22.06683002708428,-9999,64392.370362,-0.86785888671875,0.320220947265625,0.36016845703125,64392.360287,0.7091618677429943,-1.908575117132284,-0.4628328306918051,0.2036213427782059,0.177173525094986,0.03138643875718117,-0.007714629173278809,-0.1699802875518799,0.07829001545906067,XArbitraryZVertical,0.1513654569294855,-0.7907919414299402,0.3708859939213539,0.4627958912970198,-0.8442291617393494,0.4464846849441528,0.2965267896652222,0,0,0,-1,-1,64378.94930104167,unknown,2,2025-04-18T11:35:43.308+03:00,2025-04-17T15:44:39.500+03:00,7490,1.122643,0,0,6178.962,4,10,2025-04-18T11:35:40.728+03:00,766658156.3024517,0,107.78,100.5619,1,0.55,2025-04-18T11:25:57.919+03:00,77.00000000000001,1.283333333333333,2025-04-18T08:51:18.885+03:00,0.03057091307199995,1
2025-04-18T11:35:56.744+03:00,1744965352.97818,40.95357940565665,29.14101123988411,93.69504,-1,-1,-1,-1,30,22.06683002708428,-9999,64392.38043700001,-0.8951263427734375,0.46136474609375,0.3259124755859375,64392.370362,0.7129910845308777,-1.905127352251466,-0.4640272284141614,0.507658064365387,0.1560638397932053,-0.05255673080682755,-0.02140742540359497,-0.1379217505455017,0.06955218315124512,XArbitraryZVertical,0.1518833371009418,-0.7897158274673038,0.3724504890296019,0.463207451725107,-0.8447425365447998,0.4475530982017517,0.2934392690658569,0,0,0,-1,-1,64378.94930104167,unknown,2,2025-04-18T11:35:43.308+03:00,2025-04-17T15:44:39.500+03:00,7490,1.122643,0,0,6178.962,4,10,2025-04-18T11:35:40.728+03:00,766658156.3024517,0,107.78,100.5619,1,0.55,2025-04-18T11:25:57.919+03:00,77.00000000000001,1.283333333333333,2025-04-18T08:51:18.885+03:00,0.03057091307199995,1
2025-04-18T11:35:56.754+03:00,1744965352.97818,40.95357940565665,29.14101123988411,93.69504,-1,-1,-1,-1,30,22.06683002708428,-9999,64392.39051200001,-0.9416046142578125,0.55267333984375,0.28131103515625,64392.38043700001,0.7197447795465718,-1.900631020210545,-0.464911912343569,0.6581293344497681,0.1464900374412537,-0.1637721955776215,-0.04477882385253906,-0.006937742233276367,0.04175868630409241,XArbitraryZVertical,0.153444556606593,-0.7881685316212738,0.3746659958900995,0.4635414697830044,-0.8456785082817078,0.4483440518379211,0.2895097434520721,0,0,0,-1,-1,64378.94930104167,unknown,2,2025-04-18T11:35:43.308+03:00,2025-04-17T15:44:39.500+03:00,7490,1.122643,0,0,6178.962,4,10,2025-04-18T11:35:40.728+03:00,766658156.3024517,0,107.78,100.5619,1,0.55,2025-04-18T11:25:57.919+03:00,77.00000000000001,1.283333333333333,2025-04-18T08:51:18.885+03:00,0.03057091307199995,1
2025-04-18T11:35:56.766+03:00,1744965352.97818,40.95357940565665,29.14101123988411,93.69504,-1,-1,-1,-1,30,22.06683002708428,-9999,64392.400587,-0.9754638671875,0.5265045166015625,0.275299072265625,64392.39051200001,0.7274229158358769,-1.895432589578815,-0.4651322419667933,0.623124897480011,0.2014146745204926,-0.2351971864700317,-0.08938407897949219,0.1010806560516357,0.0006428062915802002,XArbitraryZVertical,0.15542445848213,-0.7863728822455028,0.3769243106927556,0.4641004264660742,-0.8470785021781921,0.448540985584259,0.2850781381130219,0,0,0,-1,-1,64378.94930104167,unknown,2,2025-04-18T11:35:43.308+03:00,2025-04-17T15:44:39.500+03:00,7490,1.122643,0,0,6178.962,4,10,2025-04-18T11:35:40.728+03:00,766658156.3024517,0,107.78,100.5619,1,0.55,2025-04-18T11:25:57.919+03:00,77.00000000000001,1.283333333333333,2025-04-18T08:51:18.885+03:00,0.03057091307199995,1
2025-04-18T11:35:56.774+03:00,1744965352.97818,40.95357940565665,29.14101123988411,93.69504,-1,-1,-1,-1,30,22.06683002708428,-9999,64392.410662,-0.9960784912109375,0.500762939453125,0.3219146728515625,64392.400587,0.7344439465686786,-1.890102116644865,-0.4641168587960817,0.4755031764507294,0.2292007803916931,-0.356820285320282,-0.1231654286384583,0.08427295088768005,-0.008393138647079468,XArbitraryZVertical,0.1574786851961838,-0.7845707445724994,0.378622307435005,0.4650747341011874,-0.8490179181098938,0.4476332664489746,0.2807015776634216,0,0,0,-1,-1,64378.94930104167,unknown,2,2025-04-18T11:35:43.308+03:00,2025-04-17T15:44:39.500+03:00,7490,1.122643,0,0,6178.962,4,10,2025-04-18T11:35:40.728+03:00,766658156.3024517,0,107.78,100.5619,1,0.55,2025-04-18T11:25:57.919+03:00,77.00000000000001,1.283333333333333,2025-04-18T08:51:18.885+03:00,0.03057091307199995,1
2025-04-18T11:35:56.784+03:00,1744965352.97818,40.95357940565665,29.14101123988411,93.69504,-1,-1,-1,-1,30,22.06683002708428,-9999,64392.420737,-0.9872283935546875,0.4883575439453125,0.3335113525390625,64392.410662,0.7394582368541017,-1.885380102703031,-0.4611925061360402,0.1929313391447067,0.2672655284404755,-0.4630060195922852,-0.1425656676292419,0.05797439813613892,0.03931319713592529,XArbitraryZVertical,0.1594259289995884,-0.7830261704603063,0.3791599323589639,0.4665739175447027,-0.8515750169754028,0.4450163245201111,0.277093231678009,0,0,0,-1,-1,64378.94930104167,unknown,2,2025-04-18T11:35:43.308+03:00,2025-04-17T15:44:39.500+03:00,7490,1.122643,0,0,6178.962,4,10,2025-04-18T11:35:40.728+03:00,766658156.3024517,0,107.78,100.5619,1,0.55,2025-04-18T11:25:57.919+03:00,77.00000000000001,1.283333333333333,2025-04-18T08:51:18.885+03:00,0.03057091307199995,1
2025-04-18T11:35:56.794+03:00,1744965352.97818,40.95357940565665,29.14101123988411,93.69504,-1,-1,-1,-1,30,22.06683002708428,-9999,64392.43081200001,-0.9462127685546875,0.498992919921875,0.302825927734375,64392.420737,0.7418858688579431,-1.881468296515391,-0.4566362912108259,-0.05766093358397484,0.2902043759822845,-0.5259929299354553,-0.1361181139945984,0.0478074848651886,0.06192684173583984,XArbitraryZVertical,0.1610031818844384,-0.7818352923156395,0.3784790755704801,0.4685778695346549,-0.8545740842819214,0.4409315288066864,0.2743768990039825,0,0,0,-1,-1,64378.94930104167,unknown,2,2025-04-18T11:35:43.308+03:00,2025-04-17T15:44:39.500+03:00,7490,1.122643,0,0,6178.962,4,10,2025-04-18T11:35:40.728+03:00,766658156.3024517,0,107.78,100.5619,1,0.55,2025-04-18T11:25:57.919+03:00,77.00000000000001,1.283333333333333,2025-04-18T08:51:18.885+03:00,0.03057091307199995,1
2025-04-18T11:35:56.804+03:00,1744965352.97818,40.95357940565665,29.14101123988411,93.69504,-1,-1,-1,-1,30,22.06683002708428,-9999,64392.440887,-0.910888671875,0.5011749267578125,0.3149871826171875,64392.43081200001,0.742505843258391,-1.878243141536898,-0.4510825266096128,-0.1602692008018494,0.2986744344234467,-0.5533319711685181,-0.09391534328460693,0.06053513288497925,0.0325755774974823,XArbitraryZVertical,0.1623065600934514,-0.7809191221928471,0.3769828474074993,0.4708564812812231,-0.8577752113342285,0.4359400272369385,0.2723561823368073,0,0,0,-1,-1,64378.94930104167,unknown,2,2025-04-18T11:35:43.308+03:00,2025-04-17T15:44:39.500+03:00,7490,1.122643,0,0,6178.962,4,10,2025-04-18T11:35:40.728+03:00,766658156.3024517,0,107.78,100.5619,1,0.55,2025-04-18T11:25:57.919+03:00,77.00000000000001,1.283333333333333,2025-04-18T08:51:18.885+03:00,0.03057091307199995,1
2025-04-18T11:35:56.815+03:00,1744965352.97818,40.95357940565665,29.14101123988411,93.69504,-1,-1,-1,-1,30,22.06683002708428,-9999,64392.450962,-0.893585205078125,0.486175537109375,0.3299102783203125,64392.440887,0.7427571427475993,-1.874880851162083,-0.4453532487529232,-0.1025377288460732,0.3463769853115082,-0.5420039892196655,-0.05348044633865356,0.07143589854240417,0.04129424691200256,XArbitraryZVertical,0.1634971314476185,-0.7799844262532512,0.3753534173776946,0.4732894665853211,-0.8610552549362183,0.4307766854763031,0.2702140212059021,0,0,0,-1,-1,64378.94930104167,unknown,2,2025-04-18T11:35:43.308+03:00,2025-04-17T15:44:39.500+03:00,7490,1.122643,0,0,6178.962,4,10,2025-04-18T11:35:40.728+03:00,766658156.3024517,0,107.78,100.5619,1,0.55,2025-04-18T11:25:57.919+03:00,77.00000000000001,1.283333333333333,2025-04-18T08:51:18.885+03:00,0.03057091307199995,1
2025-04-18T11:35:56.825+03:00,1744965352.97818,40.95357940565665,29.14101123988411,93.69504,-1,-1,-1,-1,30,22.06683002708428,-9999,64392.461037,-0.88140869140625,0.4868316650390625,0.34747314453125,64392.450962,0.7450248658387391,-1.870222765860235,-0.4405820784669794,0.2295840978622437,0.3787022531032562,-0.4729549288749695,-0.03008967638015747,0.06100651621818542,0.06184041500091553,XArbitraryZVertical,0.1649460379303187,-0.778584948563191,0.3746406352745532,0.4756497704302297,-0.8642584681510925,0.4264660179615021,0.2668034434318542,0,0,0,-1,-1,64378.94930104167,unknown,2,2025-04-18T11:35:43.308+03:00,2025-04-17T15:44:39.500+03:00,7490,1.122643,0,0,6178.962,4,10,2025-04-18T11:35:40.728+03:00,766658156.3024517,0,107.78,100.5619,1,0.55,2025-04-18T11:25:57.919+03:00,77.00000000000001,1.283333333333333,2025-04-18T08:51:18.885+03:00,0.03057091307199995,1
2025-04-18T11:35:56.835+03:00,1744965352.97818,40.95357940565665,29.14101123988411,93.69504,-1,-1,-1,-1,30,22.06683002708428,-9999,64392.47111200001,-0.8629150390625,0.46917724609375,0.4268951416015625,64392.461037,0.7513315589473568,-1.863476986777967,-0.4379456763710496,0.7427720427513123,0.4391306936740875,-0.3474414944648743,-0.01585298776626587,0.06308743357658386,0.07991096377372742,XArbitraryZVertical,0.1669291418108634,-0.7763891172201545,0.3758033534644912,0.4776258689481099,-0.8671121001243591,0.4240799248218536,0.2612907886505127,0,0,0,-1,-1,64378.94930104167,unknown,2,2025-04-18T11:35:43.308+03:00,2025-04-17T15:44:39.500+03:00,7490,1.122643,0,0,6178.962,4,10,2025-04-18T11:35:40.728+03:00,766658156.3024517,0,107.78,100.5619,1,0.55,2025-04-18T11:25:57.919+03:00,77.00000000000001,1.283333333333333,2025-04-18T08:51:18.885+03:00,0.03057091307199995,1
2025-04-18T11:35:56.845+03:00,1744965352.97818,40.95357940565665,29.14101123988411,93.69504,-1,-1,-1,-1,30,22.06683002708428,-9999,64392.481187,-0.8432159423828125,0.42620849609375,0.484375,64392.47111200001,0.7634694265112137,-1.853248208680512,-0.438536697335366,1.38368833065033,0.5688434243202209,-0.1599335223436356,0.004081070423126221,0.04979586601257324,0.1635710895061493,XArbitraryZVertical,0.1695189833612857,-0.7729374179686405,0.3797676301321937,0.4791738827921114,-0.8694984912872314,0.4246150851249695,0.2523378729820251,0,0,0,-1,-1,64378.94930104167,unknown,2,2025-04-18T11:35:43.308+03:00,2025-04-17T15:44:39.500+03:00,7490,1.122643,0,0,6178.962,4,10,2025-04-18T11:35:40.728+03:00,766658156.3024517,0,107.78,100.5619,1,0.55,2025-04-18T11:25:57.919+03:00,77.00000000000001,1.283333333333333,2025-04-18T08:51:18.885+03:00,0.03057091307199995,1
2025-04-18T11:35:56.855+03:00,1744965352.97818,40.95357940565665,29.14101123988411,93.69504,-1,-1,-1,-1,30,22.06683002708428,-9999,64392.491262,-0.827606201171875,0.3420562744140625,0.535064697265625,64392.481187,0.7819261057926754,-1.839050177684959,-0.4420776029519748,1.929344296455383,0.6880444288253784,-0.07134000211954117,0.02678120136260986,0.002998381853103638,0.239054799079895,XArbitraryZVertical,0.1728274067672641,-0.7680589419010713,0.3865987647003983,0.4803723560035102,-0.8715382814407349,0.4278182685375214,0.2395676970481873,0,0,0,-1,-1,64378.94930104167,unknown,2,2025-04-18T11:35:43.308+03:00,2025-04-17T15:44:39.500+03:00,7490,1.122643,0,0,6178.962,4,10,2025-04-18T11:35:40.728+03:00,766658156.3024517,0,107.78,100.5619,1,0.55,2025-04-18T11:25:57.919+03:00,77.00000000000001,1.283333333333333,2025-04-18T08:51:18.885+03:00,0.03057091307199995,1
2025-04-18T11:35:56.865+03:00,1744965352.97818,40.95357940565665,29.14101123988411,93.69504,-1,-1,-1,-1,30,22.06683002708428,-9999,64392.501337,-0.7844085693359375,0.0704193115234375,0.5658721923828125,64392.491262,0.8028856849851282,-1.821640530672613,-0.4477471560477726,1.940525054931641,1.02778434753418,0.2355632036924362,0.04420304298400879,-0.07174506783485413,0.3056504726409912,XArbitraryZVertical,0.1756976849274669,-0.7622381378350098,0.3950320231434359,0.4817396491443635,-0.8732131123542786,0.4329358637332916,0.2237533032894135,0,0,0,-1,-1,64378.94930104167,unknown,2,2025-04-18T11:35:43.308+03:00,2025-04-17T15:44:39.500+03:00,7490,1.122643,0,0,6178.962,4,10,2025-04-18T11:35:40.728+03:00,766658156.3024517,0,107.78,100.5619,1,0.55,2025-04-18T11:25:57.919+03:00,77.00000000000001,1.283333333333333,2025-04-18T08:51:18.885+03:00,0.03057091307199995,1
2025-04-18T11:35:56.875+03:00,1744965352.97818,40.95357940565665,29.14101123988411,93.69504,-1,-1,-1,-1,30,22.06683002708428,-9999,64392.51141200001,-0.6946258544921875,-0.1736907958984375,0.6780548095703125,64392.501337,0.8213081425210431,-1.800934177296621,-0.4560794259905925,1.589281797409058,1.45050311088562,0.5592899322509766,0.08097946643829346,-0.3284931778907776,0.3565295934677124,XArbitraryZVertical,0.1759612740362455,-0.7559334804611402,0.4040084711092298,0.4841275344255347,-0.8741161227226257,0.4404316544532776,0.2047955989837646,0,0,0,-1,-1,64378.94930104167,unknown,2,2025-04-18T11:35:43.308+03:00,2025-04-17T15:44:39.500+03:00,7490,1.122643,0,0,6178.962,4,10,2025-04-18T11:35:40.728+03:00,766658156.3024517,0,107.78,100.5619,1,0.55,2025-04-18T11:25:57.919+03:00,77.00000000000001,1.283333333333333,2025-04-18T08:51:18.885+03:00,0.03057091307199995,1
2025-04-18T11:35:56.885+03:00,1744965352.97818,40.95357940565665,29.14101123988411,93.69504,-1,-1,-1,-1,30,22.06683002708428,-9999,64392.52148700001,-0.6284027099609375,-0.1813201904296875,0.9116668701171875,64392.51141200001,0.8346429794464072,-1.779654330984325,-0.4652567870237599,1.156290769577026,1.562945604324341,0.6723384857177734,0.168062150478363,-0.6051158905029297,0.4694815874099731,XArbitraryZVertical,0.1737534082605857,-0.7499743861610564,0.4120359306986213,0.4874162805245715,-0.8742847442626953,0.4486522972583771,0.185303658246994,0,0,0,-1,-1,64378.94930104167,unknown,2,2025-04-18T11:35:43.308+03:00,2025-04-17T15:44:39.500+03:00,7490,1.122643,0,0,6178.962,4,10,2025-04-18T11:35:40.728+03:00,766658156.3024517,0,107.78,100.5619,1,0.55,2025-04-18T11:25:57.919+03:00,77.00000000000001,1.283333333333333,2025-04-18T08:51:18.885+03:00,0.03057091307199995,1
2025-04-18T11:35:56.895+03:00,1744965352.97818,40.95357940565665,29.14101123988411,93.69504,-1,-1,-1,-1,30,22.06683002708428,-9999,64392.531562,-0.631591796875,-0.1136016845703125,1.049468994140625,64392.52148700001,0.844279455423654,-1.758746678057568,-0.4742471433186103,0.8879274129867554,1.737274765968323,0.7435463070869446,0.2402721047401428,-0.6446723341941833,0.7164198160171509,XArbitraryZVertical,0.1701504381340141,-0.7444200756983667,0.4190098921578645,0.4912415902171003,-0.8739696145057678,0.4566687941551208,0.1662248373031616,0,0,0,-1,-1,64378.94930104167,unknown,2,2025-04-18T11:35:43.308+03:00,2025-04-17T15:44:39.500+03:00,7490,1.122643,0,0,6178.962,4,10,2025-04-18T11:35:40.728+03:00,766658156.3024517,0,107.78,100.5619,1,0.55,2025-04-18T11:25:57.919+03:00,77.00000000000001,1.283333333333333,2025-04-18T08:51:18.885+03:00,0.03057091307199995,1
2025-04-18T11:35:56.905+03:00,1744965352.97818,40.95357940565665,29.14101123988411,93.69504,-1,-1,-1,-1,30,22.06683002708428,-9999,64392.541637,-0.670654296875,-0.05621337890625,1.068862915039062,64392.531562,0.8526180329850405,-1.736815101373288,-0.4836928911674229,0.9352015256881714,1.836082696914673,0.8634258508682251,0.245517373085022,-0.588037371635437,0.8957691192626953,XArbitraryZVertical,0.1655727006360656,-0.7387390802824991,0.4258182290431954,0.4955090364524509,-0.8731115460395813,0.4650515913963318,0.1462994962930679,0,0,0,-1,-1,64378.94930104167,unknown,2,2025-04-18T11:35:43.308+03:00,2025-04-17T15:44:39.500+03:00,7490,1.122643,0,0,6178.962,4,10,2025-04-18T11:35:40.728+03:00,766658156.3024517,0,107.78,100.5619,1,0.55,2025-04-18T11:25:57.919+03:00,77.00000000000001,1.283333333333333,2025-04-18T08:51:18.885+03:00,0.03057091307199995,1
2025-04-18T11:35:56.915+03:00,1744965352.97818,40.95357940565665,29.14101123988411,93.69504,-1,-1,-1,-1,30,22.06683002708428,-9999,64392.551712,-0.6834259033203125,-0.132568359375,1.152755737304688,64392.541637,0.8643320137823287,-1.711417968430785,-0.4962049587237706,1.503490567207336,2.172234058380127,1.332193374633789,0.2050811052322388,-0.5351278781890869,0.9420223236083984,XArbitraryZVertical,0.160345609675063,-0.73206334500274,0.4345804260476521,0.4995121753637691,-0.8707152605056763,0.4760916233062744,0.1232549101114273,0,0,0,-1,-1,64378.94930104167,unknown,2,2025-04-18T11:35:43.308+03:00,2025-04-17T15:44:39.500+03:00,7490,1.122643,0,0,6178.962,4,10,2025-04-18T11:35:40.728+03:00,766658156.3024517,0,107.78,100.5619,1,0.55,2025-04-18T11:25:57.919+03:00,77.00000000000001,1.283333333333333,2025-04-18T08:51:18.885+03:00,0.03057091307199995,1
2025-04-18T11:35:56.925+03:00,1744965352.97818,40.95357940565665,29.14101123988411,93.69504,-1,-1,-1,-1,30,22.06683002708428,-9999,64392.56178700001,-0.6308135986328125,-0.3213958740234375,1.244857788085938,64392.551712,0.8808823901101346,-1.677586334673729,-0.5157653564059511,1.763537287712097,2.982855796813965,2.197948217391968,0.1807711720466614,-0.6059784293174744,1.04555332660675,XArbitraryZVertical,0.1524526097110744,-0.7232697426574778,0.447124437824223,0.503705268240673,-0.8649601340293884,0.4932007789611816,0.09272183477878571,0,0,0,-1,-1,64378.94930104167,unknown,2,2025-04-18T11:35:43.308+03:00,2025-04-17T15:44:39.500+03:00,7490,1.122643,0,0,6178.962,4,10,2025-04-18T11:35:40.728+03:00,766658156.3024517,0,107.78,100.5619,1,0.55,2025-04-18T11:25:57.919+03:00,77.00000000000001,1.283333333333333,2025-04-18T08:51:18.885+03:00,0.03057091307199995,1
2025-04-18T11:35:56.935+03:00,1744965352.97818,40.95357940565665,29.14101123988411,93.69504,-1,-1,-1,-1,30,22.06683002708428,-9999,64392.571862,-0.4706268310546875,-0.5665435791015625,1.359603881835938,64392.56178700001,0.8972900283077669,-1.634748383332849,-0.5437317166483582,1.461366295814514,3.91908073425293,3.081311941146851,0.2108156681060791,-0.8132926225662231,1.180827617645264,XArbitraryZVertical,0.1392032632725466,-0.7127190036335321,0.4623128183581036,0.5088427133958016,-0.8540346622467041,0.5173331499099731,0.0546918548643589,0,0,0,-1,-1,64378.94930104167,unknown,2,2025-04-18T11:35:43.308+03:00,2025-04-17T15:44:39.500+03:00,7490,1.122643,0,0,6178.962,4,10,2025-04-18T11:35:40.728+03:00,766658156.3024517,0,107.78,100.5619,1,0.55,2025-04-18T11:25:57.919+03:00,77.00000000000001,1.283333333333333,2025-04-18T08:51:18.885+03:00,0.03057091307199995,1
2025-04-18T11:35:56.945+03:00,1744965352.97818,40.95357940565665,29.14101123988411,93.69504,-1,-1,-1,-1,30,22.06683002708428,-9999,64392.581937,-0.3016204833984375,-0.8746490478515625,1.3739013671875,64392.571862,0.9100803331809973,-1.581925869646645,-0.5792631471993487,1.084790229797363,5.309291362762451,3.830517530441284,0.3427653908729553,-1.076277017593384,1.332239031791687,XArbitraryZVertical,0.1190938552086048,-0.7003381524091928,0.4785724831720755,0.5160539092292135,-0.8368145823478699,0.5474074482917786,0.009313748218119144,0,0,0,-1,-1,64378.94930104167,unknown,2,2025-04-18T11:35:43.308+03:00,2025-04-17T15:44:39.500+03:00,7490,1.122643,0,0,6178.962,4,10,2025-04-18T11:35:40.728+03:00,766658156.3024517,0,107.78,100.5619,1,0.55,2025-04-18T11:25:57.919+03:00,77.00000000000001,1.283333333333333,2025-04-18T08:51:18.885+03:00,0.03057091307199995,1
2025-04-18T11:35:56.955+03:00,1744965352.97818,40.95357940565665,29.14101123988411,93.69504,-1,-1,-1,-1,30,22.06683002708428,-9999,64392.592012,-0.46044921875,0.268341064453125,0.362396240234375,64392.581937,0.9703874921976419,-1.495966435376041,-0.6113465300174373,8.510567665100098,4.910194873809814,2.682718276977539,0.5012614727020264,-1.425792455673218,1.467270970344543,XArbitraryZVertical,0.1073658884769237,-0.6766557082670586,0.5070979663286125,0.5229353924473752,-0.8165844678878784,0.5739706158638,-0.0612192377448082,0,0,0,-1,-1,64378.94930104167,unknown,2,2025-04-18T11:35:43.308+03:00,2025-04-17T15:44:39.500+03:00,7490,1.122643,0,0,6178.962,4,10,2025-04-18T11:35:40.728+03:00,766658156.3024517,0,107.78,100.5619,1,0.55,2025-04-18T11:25:57.919+03:00,77.00000000000001,1.283333333333333,2025-04-18T08:51:18.885+03:00,0.03057091307199995,1
2025-04-18T11:35:56.966+03:00,1744965352.97818,40.95357940565665,29.14101123988411,93.69504,-1,-1,-1,-1,30,22.06683002708428,-9999,64392.60208700001,-0.30859375,4.160018920898438,-0.8754119873046875,64392.592012,1.083046081122941,-1.374211325291973,-0.6253752866636548,10.13319301605225,6.300694465637207,3.371032238006592,0.3756181001663208,-0.6565226912498474,0.6709440350532532,XArbitraryZVertical,0.1073034457679687,-0.6397720210881963,0.5463631265117167,0.5297784577420402,-0.7951281666755676,0.5854015946388245,-0.1583554595708847,0,0,0,-1,-1,64378.94930104167,unknown,2,2025-04-18T11:35:43.308+03:00,2025-04-17T15:44:39.500+03:00,7490,1.122643,0,0,6178.962,4,10,2025-04-18T11:35:40.728+03:00,766658156.3024517,0,107.78,100.5619,1,0.55,2025-04-18T11:25:57.919+03:00,77.00000000000001,1.283333333333333,2025-04-18T08:51:18.885+03:00,0.03057091307199995,1
2025-04-18T11:35:56.975+03:00,1744965352.97818,40.95357940565665,29.14101123988411,93.69504,-1,-1,-1,-1,30,22.06683002708428,-9999,64392.612162,-0.095306396484375,4.842422485351562,-5.462600708007812,64392.60208700001,1.282164991878131,-1.210067355028438,-0.6281824632010482,17.79685020446777,7.439249992370605,3.950214385986328,0.3639873862266541,3.140596389770508,-0.2733533978462219,XArbitraryZVertical,0.1198756928932708,-0.585526979791523,0.608669823738179,0.5218324008382815,-0.7570233345031738,0.587675154209137,-0.2855759561061859,0,0,0,-1,-1,64378.94930104167,unknown,2,2025-04-18T11:35:43.308+03:00,2025-04-17T15:44:39.500+03:00,7490,1.122643,0,0,6178.962,4,10,2025-04-18T11:35:40.728+03:00,766658156.3024517,0,107.78,100.5619,1,0.55,2025-04-18T11:25:57.919+03:00,77.00000000000001,1.283333333333333,2025-04-18T08:51:18.885+03:00,0.03057091307199995,1
2025-04-18T11:35:56.985+03:00,1744965352.97818,40.95357940565665,29.14101123988411,93.69504,-1,-1,-1,-1,30,22.06683002708428,-9999,64392.622237,-0.813934326171875,4.715682983398438,-3.150482177734375,64392.612162,1.442852706074782,-1.07816849201709,-0.5763072294121018,10.78584098815918,2.198276042938232,-2.464518785476685,0.7142739295959473,4.393209457397461,-4.608893871307373,XArbitraryZVertical,0.1419462832684466,-0.5306359512772145,0.652961212949417,0.5214579867350327,-0.7387795448303223,0.5449313521385193,-0.3965534865856171,0,0,0,-1,-1,64378.94930104167,unknown,2,2025-04-18T11:35:43.308+03:00,2025-04-17T15:44:39.500+03:00,7490,1.122643,0,0,6178.962,4,10,2025-04-18T11:35:40.728+03:00,766658156.3024517,0,107.78,100.5619,1,0.55,2025-04-18T11:35:55.669+03:00,96,1.6,2025-04-18T08:51:18.885+03:00,0.03057091307199995,1
2025-04-18T11:35:56.995+03:00,1744965352.97818,40.95357940565665,29.14101123988411,93.69504,-1,-1,-1,-1,30,22.06683002708428,-9999,64392.632311,-0.26959228515625,0.48260498046875,1.005020141601562,64392.622237,1.462651549307124,-1.063723248733113,-0.5054713093675794,-1.889261245727539,0.1605057269334793,-7.02740478515625,-0.02167803049087524,4.247148990631104,-3.434635400772095,XArbitraryZVertical,0.1675328077360168,-0.5093983970053888,0.651701222652324,0.5364061350664676,-0.7648515105247498,0.484219878911972,-0.4248920679092407,0,0,0,-1,-1,64378.94930104167,unknown,2,2025-04-18T11:35:43.308+03:00,2025-04-17T15:44:39.500+03:00,7490,1.122643,0,0,6178.962,4,10,2025-04-18T11:35:40.728+03:00,766658156.3024517,0,107.78,100.5619,1,0.55,2025-04-18T11:35:55.669+03:00,96,1.6,2025-04-18T08:51:18.885+03:00,0.03057091307199995,1
2025-04-18T11:35:57.006+03:00,1744965352.97818,40.95357940565665,29.14101123988411,93.69504,-1,-1,-1,-1,30,22.06683002708428,-9999,64392.64238600001,0.6310577392578125,-9.208099365234375,-0.7176513671875,64392.632311,1.438290020358939,-1.080508946875455,-0.4859203851999009,-3.098466634750366,-0.7511600852012634,0.8634469509124756,0.3943217396736145,1.075061321258545,1.226019620895386,XArbitraryZVertical,0.1736513367557526,-0.5115258481833937,0.6414299970850391,0.5447514731358488,-0.7800792455673218,0.4670223891735077,-0.4163730442523956,0,0,0,-1,-1,64378.94930104167,unknown,2,2025-04-18T11:35:43.308+03:00,2025-04-17T15:44:39.500+03:00,7490,1.122643,0,0,6178.962,4,10,2025-04-18T11:35:40.728+03:00,766658156.3024517,0,107.78,100.5619,1,0.55,2025-04-18T11:35:55.669+03:00,96,1.6,2025-04-18T08:51:18.885+03:00,0.03057091307199995,1
2025-04-18T11:35:57.016+03:00,1744965352.97818,40.95357940565665,29.14101123988411,93.69504,-1,-1,-1,-1,30,22.06683002708428,-9999,64392.65246100001,-0.04266357421875,-3.049057006835938,-1.153884887695312,64392.64238600001,1.431853415151317,-1.094685911467595,-0.5145022427053575,-0.8981251120567322,-0.4554895460605621,3.525208473205566,1.352119922637939,-9.004095077514648,-0.003720134496688843,XArbitraryZVertical,0.166405506945184,-0.5223163029838496,0.641892580256635,0.5361611182627177,-0.7737203240394592,0.4921015799045563,-0.3989897668361664,0,0,0,-1,-1,64378.94930104167,unknown,2,2025-04-18T11:35:43.308+03:00,2025-04-17T15:44:39.500+03:00,7490,1.122643,0,0,6178.962,4,10,2025-04-18T11:35:40.728+03:00,766658156.3024517,0,107.78,100.5619,1,0.55,2025-04-18T11:35:55.669+03:00,96,1.6,2025-04-18T08:51:18.885+03:00,0.03057091307199995,1
2025-04-18T11:35:57.026+03:00,1744965352.97818,40.95357940565665,29.14101123988411,93.69504,-1,-1,-1,-1,30,22.06683002708428,-9999,64392.662536,-1.038375854492188,3.063522338867188,-0.5655975341796875,64392.65246100001,1.425791500854325,-1.09538991435086,-0.5511642119022179,-2.526196718215942,-0.08502347767353058,1.510410308837891,0.8555883169174194,-5.006543636322021,-0.8661513328552246,XArbitraryZVertical,0.1519826807135259,-0.5309806855872763,0.6444777451659326,0.5287808963286059,-0.7574437856674194,0.5236793756484985,-0.3899215459823608,0,0,0,-1,-1,64378.94930104167,unknown,2,2025-04-18T11:35:43.308+03:00,2025-04-17T15:44:39.500+03:00,7490,1.122643,0,0,6178.962,4,10,2025-04-18T11:35:40.728+03:00,766658156.3024517,0,107.78,100.5619,1,0.55,2025-04-18T11:35:55.669+03:00,96,1.6,2025-04-18T08:51:18.885+03:00,0.03057091307199995,1
2025-04-18T11:35:57.036+03:00,1744965352.97818,40.95357940565665,29.14101123988411,93.69504,-1,-1,-1,-1,30,22.06683002708428,-9999,64392.672611,-1.45806884765625,2.266250610351562,-0.9600372314453125,64392.662536,1.418718479727136,-1.103385578574438,-0.5611939174141694,0.3421139717102051,-0.46696737408638,0.4008857905864716,-0.1659123301506042,2.4015793800354,-0.1781032085418701,XArbitraryZVertical,0.1490855899711393,-0.5357610970142036,0.6431525776579627,0.5263918847297128,-0.7558101415634155,0.5321973562240601,-0.3814670741558075,0,0,0,-1,-1,64378.94930104167,unknown,2,2025-04-18T11:35:43.308+03:00,2025-04-17T15:44:39.500+03:00,7490,1.122643,0,0,6178.962,4,10,2025-04-18T11:35:40.728+03:00,766658156.3024517,0,107.78,100.5619,1,0.55,2025-04-18T11:35:55.669+03:00,96,1.6,2025-04-18T08:51:18.885+03:00,0.03057091307199995,1
