loggingTime(txt),locationTimestamp_since1970(s),locationLatitude(WGS84),locationLongitude(WGS84),locationAltitude(m),locationSpeed(m/s),locationSpeedAccuracy(m/s),locationCourse(°),locationCourseAccuracy(°),locationVerticalAccuracy(m),locationHorizontalAccuracy(m),locationFloor(Z),accelerometerTimestamp_sinceReboot(s),accelerometerAccelerationX(G),accelerometerAccelerationY(G),accelerometerAccelerationZ(G),motionTimestamp_sinceReboot(s),motionYaw(rad),motionRoll(rad),motionPitch(rad),motionRotationRateX(rad/s),motionRotationRateY(rad/s),motionRotationRateZ(rad/s),motionUserAccelerationX(G),motionUserAccelerationY(G),motionUserAccelerationZ(G),motionAttitudeReferenceFrame(txt),motionQuaternionX(R),motionQuaternionY(R),motionQuaternionZ(R),motionQuaternionW(R),motionGravityX(G),motionGravityY(G),motionGravityZ(G),motionMagneticFieldX(µT),motionMagneticFieldY(µT),motionMagneticFieldZ(µT),motionHeading(°),motionMagneticFieldCalibrationAccuracy(Z),activityTimestamp_sinceReboot(s),activity(txt),activityActivityConfidence(Z),activityActivityStartDate(txt),pedometerStartDate(txt),pedometerNumberofSteps(N),pedometerAverageActivePace(s/m),pedometerCurrentPace(s/m),pedometerCurrentCadence(steps/s),pedometerDistance(m),pedometerFloorAscended(N),pedometerFloorDescended(N),pedometerEndDate(txt),altimeterTimestamp_sinceReboot(s),altimeterReset(bool),altimeterRelativeAltitude(m),altimeterPressure(kPa),batteryState(N),batteryLevel(R),heartRateBPMTimestamp(txt),heartRateBPM(N),heartRateBPS(R),heartRateVariabilityTimestamp(txt),heartRateVariability(ms),label
2025-04-18T11:53:51.581+03:00,1744966428.250393,40.95359290647468,29.1410029911603,94.2901,-1,-1,-1,-1,30,24.60438744106876,-9999,65074.49950016667,-0.7833099365234375,0.5497894287109375,-0.345794677734375,65074.48942516667,1.435500581176381,-1.144204765714349,-0.5542678582239536,0.02866501361131668,0.001040534116327763,0.0007552494644187391,0.005316257476806641,0.006973743438720703,-0.003859251737594604,XArbitraryZVertical,0.1692071277696449,-0.5435599451670389,0.643447142215669,0.5117493499005265,-0.7740845680236816,0.5263209342956543,-0.3518230617046356,0,0,0,-1,-1,65066.95715912501,unknown,2,2025-04-18T11:53:44.011+03:00,2025-04-17T15:44:39.500+03:00,7529,1.126433,0,0,6207.333,4,10,2025-04-18T11:44:42.378+03:00,766659229.2648934,0,107.68,100.5637,1,0.5,2025-04-18T11:46:49.169+03:00,74,1.233333333333333,2025-04-18T08:51:18.885+03:00,0.03057091307199995,1
2025-04-18T11:53:51.583+03:00,1744966428.250393,40.95359290647468,29.1410029911603,94.2901,-1,-1,-1,-1,30,24.60438744106876,-9999,65074.50957516667,-0.76300048828125,0.5279998779296875,-0.35479736328125,65074.49950016667,1.435782798588477,-1.144120404859038,-0.5541741790788269,0.01607012562453747,-0.01982027292251587,-0.001273546600714326,-0.004067957401275635,0.0257912278175354,0.00661766529083252,XArbitraryZVertical,0.1692897740860851,-0.5434947882876936,0.6435152051146231,0.5117056426666244,-0.7740997672080994,0.5262412428855896,-0.3519087731838226,0,0,0,-1,-1,65066.95715912501,unknown,2,2025-04-18T11:53:44.011+03:00,2025-04-17T15:44:39.500+03:00,7529,1.126433,0,0,6207.333,4,10,2025-04-18T11:44:42.378+03:00,766659229.2648934,0,107.68,100.5637,1,0.5,2025-04-18T11:46:49.169+03:00,74,1.233333333333333,2025-04-18T08:51:18.885+03:00,0.03057091307199995,1
2025-04-18T11:53:51.583+03:00,1744966428.250393,40.95359290647468,29.1410029911603,94.2901,-1,-1,-1,-1,30,24.60438744106876,-9999,65074.51965016667,-0.7530975341796875,0.5171356201171875,-0.3472442626953125,65074.50957516667,1.435875075021904,-1.144302258347455,-0.5541491489990124,-0.001192350406199694,-0.0201913844794035,0.0007798170554451644,-0.005823016166687012,0.01543653011322021,0.002072572708129883,XArbitraryZVertical,0.1693821702535824,-0.5435282348823139,0.6435204041559167,0.5116330945375068,-0.7741758227348328,0.5262199640274048,-0.3517734706401825,0,0,0,-1,-1,65066.95715912501,unknown,2,2025-04-18T11:53:44.011+03:00,2025-04-17T15:44:39.500+03:00,7529,1.126433,0,0,6207.333,4,10,2025-04-18T11:44:42.378+03:00,766659229.2648934,0,107.68,100.5637,1,0.5,2025-04-18T11:46:49.169+03:00,74,1.233333333333333,2025-04-18T08:51:18.885+03:00,0.03057091307199995,1
2025-04-18T11:53:51.590+03:00,1744966428.250393,40.95359290647468,29.1410029911603,94.2901,-1,-1,-1,-1,30,24.60438744106876,-9999,65074.52972516667,-0.764129638671875,0.5170745849609375,-0.3432464599609375,65074.51965016667,1.435823389683875,-1.144465294617673,-0.5541956746944214,-0.01167242228984833,-0.009075083769857883,0.007888327352702618,0.01960259675979614,-0.00451582670211792,-0.001695364713668823,XArbitraryZVertical,0.1694042054053513,-0.5435841031162939,0.6434989734205856,0.5115932359408401,-0.7742107510566711,0.5262595415115356,-0.351637065410614,0,0,0,-1,-1,65066.95715912501,unknown,2,2025-04-18T11:53:44.011+03:00,2025-04-17T15:44:39.500+03:00,7529,1.126433,0,0,6207.333,4,10,2025-04-18T11:44:42.378+03:00,766659229.2648934,0,107.68,100.5637,1,0.5,2025-04-18T11:46:49.169+03:00,74,1.233333333333333,2025-04-18T08:51:18.885+03:00,0.03057091307199995,1
2025-04-18T11:53:51.602+03:00,1744966428.250393,40.95359290647468,29.1410029911603,94.2901,-1,-1,-1,-1,30,24.60438744106876,-9999,65074.53980016667,-0.7678375244140625,0.5174102783203125,-0.352630615234375,65074.52972516667,1.435698266513408,-1.144651029567623,-0.5543006977923178,-0.0151373939588666,-0.0149187920615077,0.01055511645972729,0.01737451553344727,-0.00976252555847168,0.007110118865966797,XArbitraryZVertical,0.1693928486003249,-0.5436642790142073,0.6434638950710767,0.5115559377190284,-0.7742257714271545,0.5263488292694092,-0.3514704406261444,0,0,0,-1,-1,65066.95715912501,unknown,2,2025-04-18T11:53:44.011+03:00,2025-04-17T15:44:39.500+03:00,7529,1.126433,0,0,6207.333,4,10,2025-04-18T11:44:42.378+03:00,766659229.2648934,0,107.68,100.5637,1,0.5,2025-04-18T11:46:49.169+03:00,74,1.233333333333333,2025-04-18T08:51:18.885+03:00,0.03057091307199995,1
2025-04-18T11:53:51.608+03:00,1744966428.250393,40.95359290647468,29.1410029911603,94.2901,-1,-1,-1,-1,30,24.60438744106876,-9999,65074.54987516667,-0.76776123046875,0.5231475830078125,-0.35955810546875,65074.53980016667,1.43559190776142,-1.144874817525461,-0.5544200398294751,-0.01452113874256611,-0.0166221484541893,0.01282705925405025,0.007920205593109131,-0.009284138679504395,0.006468415260314941,XArbitraryZVertical,0.1693937738117939,-0.5437555956144445,0.6434321255398653,0.5114985344926319,-0.7742471694946289,0.5264502763748169,-0.3512712121009827,0,0,0,-1,-1,65066.95715912501,unknown,2,2025-04-18T11:53:44.011+03:00,2025-04-17T15:44:39.500+03:00,7529,1.126433,0,0,6207.333,4,10,2025-04-18T11:44:42.378+03:00,766659229.2648934,0,107.68,100.5637,1,0.5,2025-04-18T11:46:49.169+03:00,74,1.233333333333333,2025-04-18T08:51:18.885+03:00,0.03057091307199995,1
2025-04-18T11:53:51.618+03:00,1744966428.250393,40.95359290647468,29.1410029911603,94.2901,-1,-1,-1,-1,30,24.60438744106876,-9999,65074.55995016667,-0.7653656005859375,0.5233001708984375,-0.354736328125,65074.54987516667,1.435514771638677,-1.145153236497149,-0.5545741102677534,-0.01092267502099276,-0.02679622359573841,0.01515918876975775,0.006280899047851562,-0.007416248321533203,-0.004751741886138916,XArbitraryZVertical,0.1694079316300838,-0.5438656841080269,0.6434073980935286,0.5114079347615538,-0.7742710709571838,0.5265812873840332,-0.3510221540927887,0,0,0,-1,-1,65066.95715912501,unknown,2,2025-04-18T11:53:44.011+03:00,2025-04-17T15:44:39.500+03:00,7529,1.126433,0,0,6207.333,4,10,2025-04-18T11:44:42.378+03:00,766659229.2648934,0,107.68,100.5637,1,0.5,2025-04-18T11:46:49.169+03:00,74,1.233333333333333,2025-04-18T08:51:18.885+03:00,0.03057091307199995,1
2025-04-18T11:53:51.628+03:00,1744966428.250393,40.95359290647468,29.1410029911603,94.2901,-1,-1,-1,-1,30,24.60438744106876,-9999,65074.57002516667,-0.768890380859375,0.5332794189453125,-0.353515625,65074.55995016667,1.435441896349662,-1.145391149597151,-0.5547360521185243,-0.01321885269135237,-0.01164603233337402,0.0101788118481636,0.006866574287414551,-0.003739237785339355,-0.008022934198379517,XArbitraryZVertical,0.1694074757447374,-0.5439666895545456,0.6433881424306432,0.5113247885966202,-0.7742768526077271,0.5267189741134644,-0.3508026897907257,0,0,0,-1,-1,65066.95715912501,unknown,2,2025-04-18T11:53:44.011+03:00,2025-04-17T15:44:39.500+03:00,7529,1.126433,0,0,6207.333,4,10,2025-04-18T11:44:42.378+03:00,766659229.2648934,0,107.68,100.5637,1,0.5,2025-04-18T11:46:49.169+03:00,74,1.233333333333333,2025-04-18T08:51:18.885+03:00,0.03057091307199995,1
2025-04-18T11:53:51.639+03:00,1744966428.250393,40.95359290647468,29.1410029911603,94.2901,-1,-1,-1,-1,30,24.60438744106876,-9999,65074.58010016667,-0.7627105712890625,0.525787353515625,-0.3585968017578125,65074.57002516667,1.43536880695015,-1.145548369664909,-0.5548926032444452,-0.007516758516430855,-0.02026535384356976,0.009619680233299732,0.00889122486114502,-0.0004238486289978027,-0.002426117658615112,XArbitraryZVertical,0.1693828863991363,-0.5440459325902408,0.6433750250798297,0.5112650814875519,-0.7742568254470825,0.526852011680603,-0.3506469130516052,0,0,0,-1,-1,65066.95715912501,unknown,2,2025-04-18T11:53:44.011+03:00,2025-04-17T15:44:39.500+03:00,7529,1.126433,0,0,6207.333,4,10,2025-04-18T11:44:42.378+03:00,766659229.2648934,0,107.68,100.5637,1,0.5,2025-04-18T11:46:49.169+03:00,74,1.233333333333333,2025-04-18T08:51:18.885+03:00,0.03057091307199995,1
2025-04-18T11:53:51.648+03:00,1744966428.250393,40.95359290647468,29.1410029911603,94.2901,-1,-1,-1,-1,30,24.60438744106876,-9999,65074.59017516667,-0.755828857421875,0.5303955078125,-0.3551483154296875,65074.58010016667,1.435323817188531,-1.145841506330365,-0.5550369616687164,-0.007287194021046162,-0.02674002945423126,0.008750957436859608,0.005750894546508789,0.006243705749511719,-0.005308926105499268,XArbitraryZVertical,0.1694138899511407,-0.5441549557588378,0.6433561217728649,0.5111627223395554,-0.7742903828620911,0.5269747376441956,-0.3503886461257935,0,0,0,-1,-1,65066.95715912501,unknown,2,2025-04-18T11:53:44.011+03:00,2025-04-17T15:44:39.500+03:00,7529,1.126433,0,0,6207.333,4,10,2025-04-18T11:44:42.378+03:00,766659229.2648934,0,107.68,100.5637,1,0.5,2025-04-18T11:46:49.169+03:00,74,1.233333333333333,2025-04-18T08:51:18.885+03:00,0.03057091307199995,1
2025-04-18T11:53:51.659+03:00,1744966428.250393,40.95359290647468,29.1410029911603,94.2901,-1,-1,-1,-1,30,24.60438744106876,-9999,65074.60025016667,-0.7648773193359375,0.5312347412109375,-0.3460235595703125,65074.59017516667,1.435248273078353,-1.146198020533507,-0.5551589627453906,-0.01072034146636724,-0.03382597118616104,0.003950044047087431,0.0163152813911438,-0.003396749496459961,-0.00899893045425415,XArbitraryZVertical,0.1694648939919573,-0.5442780532632367,0.6433213408585589,0.5110585854031903,-0.7743567228317261,0.52707839012146,-0.3500860929489136,0,0,0,-1,-1,65066.95715912501,unknown,2,2025-04-18T11:53:44.011+03:00,2025-04-17T15:44:39.500+03:00,7529,1.126433,0,0,6207.333,4,10,2025-04-18T11:44:42.378+03:00,766659229.2648934,0,107.68,100.5637,1,0.5,2025-04-18T11:46:49.169+03:00,74,1.233333333333333,2025-04-18T08:51:18.885+03:00,0.03057091307199995,1
2025-04-18T11:53:51.669+03:00,1744966428.250393,40.95359290647468,29.1410029911603,94.2901,-1,-1,-1,-1,30,24.60438744106876,-9999,65074.61032516667,-0.77197265625,0.527618408203125,-0.345794677734375,65074.60025016667,1.435132729507922,-1.146558818032709,-0.5552833609978781,-0.01577475480735302,-0.02817687205970287,0.00910219457000494,0.01555776596069336,0.006217420101165771,-0.001996397972106934,XArbitraryZVertical,0.1695055733615935,-0.5444061157520216,0.64327626404812,0.5109653724494728,-0.7744231820106506,0.5271841287612915,-0.3497796952724457,0,0,0,-1,-1,65066.95715912501,unknown,2,2025-04-18T11:53:44.011+03:00,2025-04-17T15:44:39.500+03:00,7529,1.126433,0,0,6207.333,4,10,2025-04-18T11:44:42.378+03:00,766659229.2648934,0,107.68,100.5637,1,0.5,2025-04-18T11:46:49.169+03:00,74,1.233333333333333,2025-04-18T08:51:18.885+03:00,0.03057091307199995,1
2025-04-18T11:53:51.679+03:00,1744966428.250393,40.95359290647468,29.1410029911603,94.2901,-1,-1,-1,-1,30,24.60438744106876,-9999,65074.62040016667,-0.7791748046875,0.527740478515625,-0.3542022705078125,65074.61032516667,1.434995265747088,-1.146873969520502,-0.5554699848710217,-0.02137977816164494,-0.02470051497220993,0.014814343303442,0.007018029689788818,0.000687718391418457,0.005562067031860352,XArbitraryZVertical,0.169503615769027,-0.5445373915129728,0.6432369809880063,0.5108755125304109,-0.7744436264038086,0.527342677116394,-0.3494951128959656,0,0,0,-1,-1,65066.95715912501,unknown,2,2025-04-18T11:53:44.011+03:00,2025-04-17T15:44:39.500+03:00,7529,1.126433,0,0,6207.333,4,10,2025-04-18T11:44:42.378+03:00,766659229.2648934,0,107.68,100.5637,1,0.5,2025-04-18T11:46:49.169+03:00,74,1.233333333333333,2025-04-18T08:51:18.885+03:00,0.03057091307199995,1
2025-04-18T11:53:51.689+03:00,1744966428.250393,40.95359290647468,29.1410029911603,94.2901,-1,-1,-1,-1,30,24.60438744106876,-9999,65074.63047516667,-0.7782135009765625,0.51910400390625,-0.3515167236328125,65074.62040016667,1.434797835817755,-1.14722402392087,-0.5557212684826788,-0.03123267367482185,-0.02104772254824638,0.02057662606239319,-0.001479625701904297,0.0009320378303527832,0.0002773404121398926,XArbitraryZVertical,0.1694736555870573,-0.5446961705922773,0.6431872601427728,0.5107788141512378,-0.774445116519928,0.5275561809539795,-0.34916952252388,0,0,0,-1,-1,65066.95715912501,unknown,2,2025-04-18T11:53:44.011+03:00,2025-04-17T15:44:39.500+03:00,7529,1.126433,0,0,6207.333,4,10,2025-04-18T11:44:42.378+03:00,766659229.2648934,0,107.68,100.5637,1,0.5,2025-04-18T11:46:49.169+03:00,74,1.233333333333333,2025-04-18T08:51:18.885+03:00,0.03057091307199995,1
2025-04-18T11:53:51.705+03:00,1744966428.250393,40.95359290647468,29.1410029911603,94.2901,-1,-1,-1,-1,30,24.60438744106876,-9999,65074.64055016667,-0.773040771484375,0.52734375,-0.3531646728515625,65074.63047516667,1.434604932329528,-1.147518827374793,-0.5560442573753416,-0.02691788785159588,-0.02212424017488956,0.02543672733008862,-0.005468845367431641,-0.00404202938079834,-0.005117416381835938,XArbitraryZVertical,0.169401807799221,-0.5448554191842839,0.6431520718433896,0.5106771235752336,-0.7743926644325256,0.5278305411338806,-0.3488712012767792,0,0,0,-1,-1,65066.95715912501,unknown,2,2025-04-18T11:53:44.011+03:00,2025-04-17T15:44:39.500+03:00,7529,1.126433,0,0,6207.333,4,10,2025-04-18T11:44:42.378+03:00,766659229.2648934,0,107.68,100.5637,1,0.5,2025-04-18T11:46:49.169+03:00,74,1.233333333333333,2025-04-18T08:51:18.885+03:00,0.03057091307199995,1
2025-04-18T11:53:51.709+03:00,1744966428.250393,40.95359290647468,29.1410029911603,94.2901,-1,-1,-1,-1,30,24.60438744106876,-9999,65074.65062516667,-0.768524169921875,0.5364532470703125,-0.352752685546875,65074.64055016667,1.434458162117992,-1.147774293540188,-0.5563570679282106,-0.02471864968538284,-0.01717262342572212,0.02088165655732155,-0.003165304660797119,-0.00803077220916748,-0.002041369676589966,XArbitraryZVertical,0.169333438225131,-0.5449985294703644,0.6431307905353851,0.5105739443708137,-0.7743312120437622,0.5280961990356445,-0.3486055731773376,0,0,0,-1,-1,65066.95715912501,unknown,2,2025-04-18T11:53:44.011+03:00,2025-04-17T15:44:39.500+03:00,7529,1.126433,0,0,6207.333,4,10,2025-04-18T11:44:42.378+03:00,766659229.2648934,0,107.68,100.5637,1,0.5,2025-04-18T11:46:49.169+03:00,74,1.233333333333333,2025-04-18T08:51:18.885+03:00,0.03057091307199995,1
2025-04-18T11:53:51.719+03:00,1744966428.250393,40.95359290647468,29.1410029911603,94.2901,-1,-1,-1,-1,30,24.60438744106876,-9999,65074.66070016667,-0.7666015625,0.53619384765625,-0.348846435546875,65074.65062516667,1.43424639324596,-1.148049873498951,-0.5566042420384839,-0.02358380891382694,-0.01447344478219748,0.007807965390384197,0.00341874361038208,0.003813683986663818,-0.005817890167236328,XArbitraryZVertical,0.1692770635341162,-0.5451385064467008,0.6430832908011188,0.5105028943767953,-0.7743080854415894,0.5283060669898987,-0.3483385741710663,0,0,0,-1,-1,65066.95715912501,unknown,2,2025-04-18T11:53:44.011+03:00,2025-04-17T15:44:39.500+03:00,7529,1.126433,0,0,6207.333,4,10,2025-04-18T11:44:42.378+03:00,766659229.2648934,0,107.68,100.5637,1,0.5,2025-04-18T11:46:49.169+03:00,74,1.233333333333333,2025-04-18T08:51:18.885+03:00,0.03057091307199995,1
2025-04-18T11:53:51.729+03:00,1744966428.250393,40.95359290647468,29.1410029911603,94.2901,-1,-1,-1,-1,30,24.60438744106876,-9999,65074.67077516667,-0.7661590576171875,0.5444488525390625,-0.3521881103515625,65074.66070016667,1.434092125805416,-1.148255873527523,-0.556754953799149,-0.01288163010030985,-0.01426784787327051,0.005485422909259796,0.005660951137542725,0.00786668062210083,-0.002851426601409912,XArbitraryZVertical,0.1692479641148712,-0.5452356474418766,0.6430447171693996,0.5104574885601088,-0.7743072509765625,0.5284340381622314,-0.3481464385986328,0,0,0,-1,-1,65066.95715912501,unknown,2,2025-04-18T11:53:44.011+03:00,2025-04-17T15:44:39.500+03:00,7529,1.126433,0,0,6207.333,4,10,2025-04-18T11:44:42.378+03:00,766659229.2648934,0,107.68,100.5637,1,0.5,2025-04-18T11:46:49.169+03:00,74,1.233333333333333,2025-04-18T08:51:18.885+03:00,0.03057091307199995,1
2025-04-18T11:53:51.739+03:00,1744966428.250393,40.95359290647468,29.1410029911603,94.2901,-1,-1,-1,-1,30,24.60438744106876,-9999,65074.68085016667,-0.766387939453125,0.53961181640625,-0.3499755859375,65074.67077516667,1.434029144591963,-1.148414103223285,-0.5568491860876418,-0.004919377621263266,-0.01581813953816891,0.005863824859261513,0.008096694946289062,0.009541511535644531,-0.0009649693965911865,XArbitraryZVertical,0.1692483389672775,-0.545301052195143,0.6430266589300617,0.5104103414632286,-0.7743169665336609,0.52851402759552,-0.3480035364627838,0,0,0,-1,-1,65066.95715912501,unknown,2,2025-04-18T11:53:44.011+03:00,2025-04-17T15:44:39.500+03:00,7529,1.126433,0,0,6207.333,4,10,2025-04-18T11:44:42.378+03:00,766659229.2648934,0,107.68,100.5637,1,0.5,2025-04-18T11:46:49.169+03:00,74,1.233333333333333,2025-04-18T08:51:18.885+03:00,0.03057091307199995,1
2025-04-18T11:53:51.749+03:00,1744966428.250393,40.95359290647468,29.1410029911603,94.2901,-1,-1,-1,-1,30,24.60438744106876,-9999,65074.69092516667,-0.7720947265625,0.5320892333984375,-0.34820556640625,65074.68085016667,1.434018781535272,-1.148533515370995,-0.5569458655844353,-0.005054399836808443,-0.01200129836797714,0.005878205876797438,0.008305251598358154,0.01718038320541382,-0.004908353090286255,XArbitraryZVertical,0.169249764056242,-0.545352606781414,0.6430256067458434,0.5103560679262769,-0.774311900138855,0.5285961031913757,-0.3478901088237762,0,0,0,-1,-1,65066.95715912501,unknown,2,2025-04-18T11:53:44.011+03:00,2025-04-17T15:44:39.500+03:00,7529,1.126433,0,0,6207.333,4,10,2025-04-18T11:44:42.378+03:00,766659229.2648934,0,107.68,100.5637,1,0.5,2025-04-18T11:46:49.169+03:00,74,1.233333333333333,2025-04-18T08:51:18.885+03:00,0.03057091307199995,1
2025-04-18T11:53:51.759+03:00,1744966428.250393,40.95359290647468,29.1410029911603,94.2901,-1,-1,-1,-1,30,24.60438744106876,-9999,65074.70100016667,-0.77435302734375,0.5237274169921875,-0.3479461669921875,65074.69092516667,1.433975677987653,-1.148686709846991,-0.5570472081456112,-0.009404140524566174,-0.01733800582587719,0.009024064987897873,0.006493926048278809,0.006504595279693604,4.753470420837402e-05,XArbitraryZVertical,0.1692515195877797,-0.5454165238120648,0.6430139022135334,0.5103017602742411,-0.7743161916732788,0.5286821126937866,-0.3477494716644287,0,0,0,-1,-1,65066.95715912501,unknown,2,2025-04-18T11:53:44.011+03:00,2025-04-17T15:44:39.500+03:00,7529,1.126433,0,0,6207.333,4,10,2025-04-18T11:44:42.378+03:00,766659229.2648934,0,107.68,100.5637,1,0.5,2025-04-18T11:46:49.169+03:00,74,1.233333333333333,2025-04-18T08:51:18.885+03:00,0.03057091307199995,1
2025-04-18T11:53:51.769+03:00,1744966428.250393,40.95359290647468,29.1410029911603,94.2901,-1,-1,-1,-1,30,24.60438744106876,-9999,65074.71107516667,-0.7758026123046875,0.5183258056640625,-0.3473663330078125,65074.70100016667,1.433867347847714,-1.148889285949906,-0.5572118149766627,-0.01983814127743244,-0.01140288636088371,0.01202784385532141,0.0005644559860229492,0.001482188701629639,-0.0006943047046661377,XArbitraryZVertical,0.1692289134771067,-0.5455117552201714,0.6429890493541273,0.510238865201984,-0.7743072509765625,0.5288218259811401,-0.347557008266449,0,0,0,-1,-1,65066.95715912501,unknown,2,2025-04-18T11:53:44.011+03:00,2025-04-17T15:44:39.500+03:00,7529,1.126433,0,0,6207.333,4,10,2025-04-18T11:44:42.378+03:00,766659229.2648934,0,107.68,100.5637,1,0.5,2025-04-18T11:46:49.169+03:00,74,1.233333333333333,2025-04-18T08:51:18.885+03:00,0.03057091307199995,1
2025-04-18T11:53:51.780+03:00,1744966428.250393,40.95359290647468,29.1410029911603,94.2901,-1,-1,-1,-1,30,24.60438744106876,-9999,65074.72115016667,-0.7713470458984375,0.5198516845703125,-0.34613037109375,65074.71107516667,1.433710249552422,-1.149097480551367,-0.5574474033851496,-0.02536126971244812,-0.01710391417145729,0.0208293255418539,0.0001874566078186035,-0.009612560272216797,0.000222623348236084,XArbitraryZVertical,0.1691697806615184,-0.5456273507814664,0.6429598782723315,0.5101715572426579,-0.7742658853530884,0.5290217399597168,-0.3473447561264038,0,0,0,-1,-1,65066.95715912501,unknown,2,2025-04-18T11:53:44.011+03:00,2025-04-17T15:44:39.500+03:00,7529,1.126433,0,0,6207.333,4,10,2025-04-18T11:44:42.378+03:00,766659229.2648934,0,107.68,100.5637,1,0.5,2025-04-18T11:46:49.169+03:00,74,1.233333333333333,2025-04-18T08:51:18.885+03:00,0.03057091307199995,1
2025-04-18T11:53:51.790+03:00,1744966428.250393,40.95359290647468,29.1410029911603,94.2901,-1,-1,-1,-1,30,24.60438744106876,-9999,65074.73122516667,-0.7682952880859375,0.52764892578125,-0.34393310546875,65074.72115016667,1.433599330586968,-1.149292480950927,-0.5577260980491273,-0.01707164943218231,-0.00928087905049324,0.02438970655202866,-0.002214014530181885,-0.01001691818237305,0.0006369352340698242,XArbitraryZVertical,0.169103755680697,-0.5457446392024263,0.6429488367654312,0.5100818428001861,-0.7741990089416504,0.5292582511901855,-0.3471334278583527,0,0,0,-1,-1,65066.95715912501,unknown,2,2025-04-18T11:53:44.011+03:00,2025-04-17T15:44:39.500+03:00,7529,1.126433,0,0,6207.333,4,10,2025-04-18T11:44:42.378+03:00,766659229.2648934,0,107.68,100.5637,1,0.5,2025-04-18T11:46:49.169+03:00,74,1.233333333333333,2025-04-18T08:51:18.885+03:00,0.03057091307199995,1
2025-04-18T11:53:51.800+03:00,1744966428.250393,40.95359290647468,29.1410029911603,94.2901,-1,-1,-1,-1,30,24.60438744106876,-9999,65074.74130016667,-0.7791595458984375,0.5348663330078125,-0.341156005859375,65074.73122516667,1.433534065872822,-1.149307428570919,-0.5580043876031081,-0.01302896905690432,0.006860007531940937,0.0209030956029892,0.005865991115570068,-0.008132040500640869,0.0009770393371582031,XArbitraryZVertical,0.1689924066040353,-0.5458120320917295,0.6429646202839048,0.5100267723863339,-0.7740697860717773,0.5294943451881409,-0.3470615744590759,0,0,0,-1,-1,65066.95715912501,unknown,2,2025-04-18T11:53:44.011+03:00,2025-04-17T15:44:39.500+03:00,7529,1.126433,0,0,6207.333,4,10,2025-04-18T11:44:42.378+03:00,766659229.2648934,0,107.68,100.5637,1,0.5,2025-04-18T11:46:49.169+03:00,74,1.233333333333333,2025-04-18T08:51:18.885+03:00,0.03057091307199995,1
2025-04-18T11:53:51.810+03:00,1744966428.250393,40.95359290647468,29.1410029911603,94.2901,-1,-1,-1,-1,30,24.60438744106876,-9999,65074.75137516667,-0.778106689453125,0.54241943359375,-0.33551025390625,65074.74130016667,1.433468024983748,-1.149182216529019,-0.5582449541925394,-0.01427559554576874,0.02002481184899807,0.01621247082948685,0.001189708709716797,0.001749932765960693,0.004500836133956909,XArbitraryZVertical,0.1688491214318915,-0.5458358644124464,0.6429874673023152,0.5100199204595851,-0.7739100456237793,0.5296984314918518,-0.3471063673496246,0,0,0,-1,-1,65066.95715912501,unknown,2,2025-04-18T11:53:44.011+03:00,2025-04-17T15:44:39.500+03:00,7529,1.126433,0,0,6207.333,4,10,2025-04-18T11:44:42.378+03:00,766659229.2648934,0,107.68,100.5637,1,0.5,2025-04-18T11:46:49.169+03:00,74,1.233333333333333,2025-04-18T08:51:18.885+03:00,0.03057091307199995,1
2025-04-18T11:53:51.820+03:00,1744966428.250393,40.95359290647468,29.1410029911603,94.2901,-1,-1,-1,-1,30,24.60438744106876,-9999,65074.76145016667,-0.7760162353515625,0.5330352783203125,-0.3430023193359375,65074.75137516667,1.433423317690323,-1.148963569668293,-0.5584588954115306,-0.005376109853386879,0.03204019367694855,0.01985673978924751,-0.006313860416412354,0.005947768688201904,0.007858544588088989,XArbitraryZVertical,0.1686910362149718,-0.5458285070726779,0.643020392901885,0.5100385506447213,-0.7737306952476501,0.5298798680305481,-0.3472291529178619,0,0,0,-1,-1,65066.95715912501,unknown,2,2025-04-18T11:53:44.011+03:00,2025-04-17T15:44:39.500+03:00,7529,1.126433,0,0,6207.333,4,10,2025-04-18T11:44:42.378+03:00,766659229.2648934,0,107.68,100.5637,1,0.5,2025-04-18T11:46:49.169+03:00,74,1.233333333333333,2025-04-18T08:51:18.885+03:00,0.03057091307199995,1
2025-04-18T11:53:51.830+03:00,1744966428.250393,40.95359290647468,29.1410029911603,94.2901,-1,-1,-1,-1,30,24.60438744106876,-9999,65074.77152516667,-0.774169921875,0.5180511474609375,-0.358184814453125,65074.76145016667,1.4335470422814,-1.148506162280491,-0.5586798873473158,0.00125063385348767,0.03472226485610008,0.02106368355453014,-0.00366520881652832,0.01342034339904785,0.01248261332511902,XArbitraryZVertical,0.168499579188734,-0.5457475242264345,0.6431172179367078,0.5100665431183793,-0.773465096950531,0.5300672650337219,-0.3475350737571716,0,0,0,-1,-1,65066.95715912501,unknown,2,2025-04-18T11:53:44.011+03:00,2025-04-17T15:44:39.500+03:00,7529,1.126433,0,0,6207.333,4,10,2025-04-18T11:44:42.378+03:00,766659229.2648934,0,107.68,100.5637,1,0.5,2025-04-18T11:46:49.169+03:00,74,1.233333333333333,2025-04-18T08:51:18.885+03:00,0.03057091307199995,1
2025-04-18T11:53:51.857+03:00,1744966428.250393,40.95359290647468,29.1410029911603,94.2901,-1,-1,-1,-1,30,24.60438744106876,-9999,65074.78160016667,-0.758880615234375,0.512908935546875,-0.349761962890625,65074.77152516667,1.433571591274868,-1.148281220443169,-0.5589301293797242,-0.01595205627381802,0.006197679322212934,0.02421793155372143,-0.003498077392578125,-0.005667030811309814,-0.003907829523086548,XArbitraryZVertical,0.1683455368974354,-0.5457403039022539,0.6431726338577375,0.5100551513053165,-0.7732657790184021,0.5302794575691223,-0.3476546108722687,0,0,0,-1,-1,65066.95715912501,unknown,2,2025-04-18T11:53:44.011+03:00,2025-04-17T15:44:39.500+03:00,7529,1.126433,0,0,6207.333,4,10,2025-04-18T11:44:42.378+03:00,766659229.2648934,0,107.68,100.5637,1,0.5,2025-04-18T11:46:49.169+03:00,74,1.233333333333333,2025-04-18T08:51:18.885+03:00,0.03057091307199995,1
2025-04-18T11:53:51.859+03:00,1744966428.250393,40.95359290647468,29.1410029911603,94.2901,-1,-1,-1,-1,30,24.60438744106876,-9999,65074.79167516667,-0.7608795166015625,0.5225830078125,-0.3431549072265625,65074.78160016667,1.433396034974879,-1.148285742513508,-0.5592612117872019,-0.03804224357008934,0.0126397991552949,0.02218603901565075,0.004033744335174561,-0.01369917392730713,-0.008698314428329468,XArbitraryZVertical,0.1681820406627609,-0.5458252894391841,0.6431674443888771,0.5100247368299636,-0.7731072306632996,0.5305601358413696,-0.3475791215896606,0,0,0,-1,-1,65066.95715912501,unknown,2,2025-04-18T11:53:44.011+03:00,2025-04-17T15:44:39.500+03:00,7529,1.126433,0,0,6207.333,4,10,2025-04-18T11:44:42.378+03:00,766659229.2648934,0,107.68,100.5637,1,0.5,2025-04-18T11:46:49.169+03:00,74,1.233333333333333,2025-04-18T08:51:18.885+03:00,0.03057091307199995,1
2025-04-18T11:53:51.860+03:00,1744966428.250393,40.95359290647468,29.1410029911603,94.2901,-1,-1,-1,-1,30,24.60438744106876,-9999,65074.80175016667,-0.7629852294921875,0.5362701416015625,-0.345733642578125,65074.79167516667,1.433078706830197,-1.148415809215521,-0.559600104216802,-0.03514578938484192,-0.005396725609898567,0.02135899476706982,0.01604562997817993,-0.01850295066833496,0.001518666744232178,XArbitraryZVertical,0.1680174343145448,-0.5459557868288548,0.643116492283342,0.5100036199294669,-0.7729884386062622,0.5308473706245422,-0.3474048376083374,0,0,0,-1,-1,65066.95715912501,unknown,2,2025-04-18T11:53:44.011+03:00,2025-04-17T15:44:39.500+03:00,7529,1.126433,0,0,6207.333,4,10,2025-04-18T11:44:42.378+03:00,766659229.2648934,0,107.68,100.5637,1,0.5,2025-04-18T11:46:49.169+03:00,74,1.233333333333333,2025-04-18T08:51:18.885+03:00,0.03057091307199995,1
2025-04-18T11:53:51.871+03:00,1744966428.250393,40.95359290647468,29.1410029911603,94.2901,-1,-1,-1,-1,30,24.60438744106876,-9999,65074.81182516667,-0.7720184326171875,0.5512847900390625,-0.3442535400390625,65074.80175016667,1.432946827450721,-1.148520950224188,-0.5598684298766088,-0.01012432668358088,0.001837751595303416,0.02262666076421738,0.01062691211700439,-0.001197993755340576,0.004079818725585938,XArbitraryZVertical,0.1679203722941224,-0.5460495924730693,0.6431064178957538,0.5099478777164272,-0.7728949785232544,0.5310747027397156,-0.3472651839256287,0,0,0,-1,-1,65066.95715912501,unknown,2,2025-04-18T11:53:44.011+03:00,2025-04-17T15:44:39.500+03:00,7529,1.126433,0,0,6207.333,4,10,2025-04-18T11:44:42.378+03:00,766659231.8361058,0,107.7,100.5632,1,0.5,2025-04-18T11:46:49.169+03:00,74,1.233333333333333,2025-04-18T08:51:18.885+03:00,0.03057091307199995,1
2025-04-18T11:53:51.880+03:00,1744966428.250393,40.95359290647468,29.1410029911603,94.2901,-1,-1,-1,-1,30,24.60438744106876,-9999,65074.82190016667,-0.7729949951171875,0.5525970458984375,-0.3393707275390625,65074.81182516667,1.432994341620088,-1.148482313262311,-0.5600411171190797,-0.002485048957169056,-0.002375103067606688,0.01188226882368326,0.007569551467895508,0.008055150508880615,0.001035600900650024,XArbitraryZVertical,0.1678598251864787,-0.546071730705407,0.6431426167349009,0.5098985694472908,-0.7727980017662048,0.5312210321426392,-0.3472574949264526,0,0,0,-1,-1,65066.95715912501,unknown,2,2025-04-18T11:53:44.011+03:00,2025-04-17T15:44:39.500+03:00,7529,1.126433,0,0,6207.333,4,10,2025-04-18T11:44:42.378+03:00,766659231.8361058,0,107.7,100.5632,1,0.5,2025-04-18T11:46:49.169+03:00,74,1.233333333333333,2025-04-18T08:51:18.885+03:00,0.03057091307199995,1
2025-04-18T11:53:51.890+03:00,1744966428.250393,40.95359290647468,29.1410029911603,94.2901,-1,-1,-1,-1,30,24.60438744106876,-9999,65074.83197516667,-0.766815185546875,0.5306549072265625,-0.3452606201171875,65074.82190016667,1.432996065829918,-1.148490057515676,-0.5601473187019191,-0.003872555680572987,0.001187673769891262,0.007924545556306839,-0.001741290092468262,0.0257568359375,0.005889266729354858,XArbitraryZVertical,0.1678253277244973,-0.5460956959783427,0.6431552083304368,0.5098681345407082,-0.7727490663528442,0.53131103515625,-0.3472282886505127,0,0,0,-1,-1,65066.95715912501,unknown,2,2025-04-18T11:53:44.011+03:00,2025-04-17T15:44:39.500+03:00,7529,1.126433,0,0,6207.333,4,10,2025-04-18T11:44:42.378+03:00,766659231.8361058,0,107.7,100.5632,1,0.5,2025-04-18T11:46:49.169+03:00,74,1.233333333333333,2025-04-18T08:51:18.885+03:00,0.03057091307199995,1
2025-04-18T11:53:51.900+03:00,1744966428.250393,40.95359290647468,29.1410029911603,94.2901,-1,-1,-1,-1,30,24.60438744106876,-9999,65074.84205016667,-0.770050048828125,0.5235137939453125,-0.35125732421875,65074.83197516667,1.432946520126471,-1.148485628129672,-0.5602471074179953,-0.01262942887842655,0.007632124237716198,0.005243075080215931,0.003000080585479736,0.01207679510116577,0.007106900215148926,XArbitraryZVertical,0.167775055673976,-0.5461195093430667,0.6431549896770951,0.5098595538436324,-0.772699236869812,0.5313955545425415,-0.347210019826889,0,0,0,-1,-1,65066.95715912501,unknown,2,2025-04-18T11:53:44.011+03:00,2025-04-17T15:44:39.500+03:00,7529,1.126433,0,0,6207.333,4,10,2025-04-18T11:44:42.378+03:00,766659231.8361058,0,107.7,100.5632,1,0.5,2025-04-18T11:46:49.169+03:00,74,1.233333333333333,2025-04-18T08:51:18.885+03:00,0.03057091307199995,1
2025-04-18T11:53:51.911+03:00,1744966428.250393,40.95359290647468,29.1410029911603,94.2901,-1,-1,-1,-1,30,24.60438744106876,-9999,65074.85212516667,-0.7723846435546875,0.51812744140625,-0.3563995361328125,65074.84205016667,1.432821931678453,-1.148460434245859,-0.560347913280588,-0.01119052339345217,0.01601815223693848,0.002439299132674932,0.005170226097106934,-0.004900157451629639,-0.001165837049484253,XArbitraryZVertical,0.167697328310867,-0.5461445374875044,0.6431374951482576,0.5098802834487565,-0.7726415395736694,0.5314809083938599,-0.3472074866294861,0,0,0,-1,-1,65066.95715912501,unknown,2,2025-04-18T11:53:44.011+03:00,2025-04-17T15:44:39.500+03:00,7529,1.126433,0,0,6207.333,4,10,2025-04-18T11:44:42.378+03:00,766659231.8361058,0,107.7,100.5632,1,0.5,2025-04-18T11:46:49.169+03:00,74,1.233333333333333,2025-04-18T08:51:18.885+03:00,0.03057091307199995,1
2025-04-18T11:53:51.921+03:00,1744966428.250393,40.95359290647468,29.1410029911603,94.2901,-1,-1,-1,-1,30,24.60438744106876,-9999,65074.86219916667,-0.7744140625,0.5196533203125,-0.3575286865234375,65074.85212516667,1.43260807956363,-1.148386280085122,-0.5604294329218074,-0.02859860844910145,0.01991109363734722,-0.0005325553938746452,0.001793801784515381,-0.009958863258361816,-0.005719214677810669,XArbitraryZVertical,0.1675862455609343,-0.546160533289393,0.6430990213933848,0.5099482365730063,-0.7725763320922852,0.5315499901771545,-0.3472470343112946,0,0,0,-1,-1,65066.95715912501,unknown,2,2025-04-18T11:53:44.011+03:00,2025-04-17T15:44:39.500+03:00,7529,1.126433,0,0,6207.333,4,10,2025-04-18T11:44:42.378+03:00,766659231.8361058,0,107.7,100.5632,1,0.5,2025-04-18T11:46:49.169+03:00,74,1.233333333333333,2025-04-18T08:51:18.885+03:00,0.03057091307199995,1
2025-04-18T11:53:51.931+03:00,1744966428.250393,40.95359290647468,29.1410029911603,94.2901,-1,-1,-1,-1,30,24.60438744106876,-9999,65074.87227516667,-0.76763916015625,0.5271759033203125,-0.348052978515625,65074.86219916667,1.432303082731835,-1.148338714782892,-0.5605497101052304,-0.03162289038300514,0.02112416550517082,0.005216676741838455,-0.001149654388427734,-0.01329559087753296,-0.01112553477287292,XArbitraryZVertical,0.1674451300770677,-0.5461989945060627,0.6430397400756674,0.5100281402585606,-0.7725014686584473,0.5316518545150757,-0.3472575843334198,0,0,0,-1,-1,65066.95715912501,unknown,2,2025-04-18T11:53:44.011+03:00,2025-04-17T15:44:39.500+03:00,7529,1.126433,0,0,6207.333,4,10,2025-04-18T11:44:42.378+03:00,766659231.8361058,0,107.7,100.5632,1,0.5,2025-04-18T11:46:49.169+03:00,74,1.233333333333333,2025-04-18T08:51:18.885+03:00,0.03057091307199995,1
2025-04-18T11:53:51.941+03:00,1744966428.250393,40.95359290647468,29.1410029911603,94.2901,-1,-1,-1,-1,30,24.60438744106876,-9999,65074.8823495,-0.7659149169921875,0.5448150634765625,-0.3434600830078125,65074.87227516667,1.432036056190224,-1.148243241545174,-0.5606831129689238,-0.02265256829559803,0.02320968545973301,0.005380194634199142,0.0002020597457885742,-0.01116549968719482,-0.007006794214248657,XArbitraryZVertical,0.1672943316297371,-0.5462247611618377,0.6429957198182344,0.5101055140839945,-0.7724035978317261,0.5317648649215698,-0.3473022282123566,0,0,0,-1,-1,65066.95715912501,unknown,2,2025-04-18T11:53:44.011+03:00,2025-04-17T15:44:39.500+03:00,7529,1.126433,0,0,6207.333,4,10,2025-04-18T11:44:42.378+03:00,766659231.8361058,0,107.7,100.5632,1,0.5,2025-04-18T11:46:49.169+03:00,74,1.233333333333333,2025-04-18T08:51:18.885+03:00,0.03057091307199995,1
2025-04-18T11:53:51.951+03:00,1744966428.250393,40.95359290647468,29.1410029911603,94.2901,-1,-1,-1,-1,30,24.60438744106876,-9999,65074.8924245,-0.7704315185546875,0.548675537109375,-0.3463592529296875,65074.8823495,1.431896168079234,-1.148032927777751,-0.5607983744624289,-0.005774518940597773,0.03305033221840858,0.00423556799069047,0.006451308727264404,0.002256214618682861,0.00132453441619873,XArbitraryZVertical,0.1671477099253287,-0.5462067980827043,0.6429915269282478,0.5101781858347084,-0.7722747325897217,0.5318624377250671,-0.3474395573139191,0,0,0,-1,-1,65066.95715912501,unknown,2,2025-04-18T11:53:44.011+03:00,2025-04-17T15:44:39.500+03:00,7529,1.126433,0,0,6207.333,4,10,2025-04-18T11:44:42.378+03:00,766659231.8361058,0,107.7,100.5632,1,0.5,2025-04-18T11:46:49.169+03:00,74,1.233333333333333,2025-04-18T08:51:18.885+03:00,0.03057091307199995,1
2025-04-18T11:53:51.961+03:00,1744966428.250393,40.95359290647468,29.1410029911603,94.2901,-1,-1,-1,-1,30,24.60438744106876,-9999,65074.90249950001,-0.76947021484375,0.5493316650390625,-0.355682373046875,65074.8924245,1.43197306081405,-1.147653157337059,-0.5608295263803383,0.01511365175247192,0.03258661180734634,0.002705149352550507,0.004961371421813965,0.01533716917037964,0.00530359148979187,XArbitraryZVertical,0.1670355493812205,-0.5461099724401972,0.6430466301623627,0.5102492254957222,-0.7721276879310608,0.5318888425827026,-0.347726047039032,0,0,0,-1,-1,65066.95715912501,unknown,2,2025-04-18T11:53:44.011+03:00,2025-04-17T15:44:39.500+03:00,7529,1.126433,0,0,6207.333,4,10,2025-04-18T11:44:42.378+03:00,766659231.8361058,0,107.7,100.5632,1,0.5,2025-04-18T11:46:49.169+03:00,74,1.233333333333333,2025-04-18T08:51:18.885+03:00,0.03057091307199995,1
2025-04-18T11:53:51.971+03:00,1744966428.250393,40.95359290647468,29.1410029911603,94.2901,-1,-1,-1,-1,30,24.60438744106876,-9999,65074.91257450001,-0.7695465087890625,0.5337982177734375,-0.357574462890625,65074.90249950001,1.432133097949825,-1.147262713814786,-0.5608325049586727,0.01549741346389055,0.03375999629497528,0.002271586796268821,0.001284122467041016,0.01786750555038452,-0.002314954996109009,XArbitraryZVertical,0.1669526859718987,-0.5459976167983908,0.643120417287675,0.5103034775018414,-0.7719902992248535,0.5318913459777832,-0.3480268120765686,0,0,0,-1,-1,65066.95715912501,unknown,2,2025-04-18T11:53:44.011+03:00,2025-04-17T15:44:39.500+03:00,7529,1.126433,0,0,6207.333,4,10,2025-04-18T11:44:42.378+03:00,766659231.8361058,0,107.7,100.5632,1,0.5,2025-04-18T11:46:49.169+03:00,74,1.233333333333333,2025-04-18T08:51:18.885+03:00,0.03057091307199995,1
2025-04-18T11:53:51.981+03:00,1744966428.250393,40.95359290647468,29.1410029911603,94.2901,-1,-1,-1,-1,30,24.60438744106876,-9999,65074.9226495,-0.768951416015625,0.520294189453125,-0.35296630859375,65074.91257450001,1.432207571816086,-1.146916293790309,-0.5608225321642598,0.002316497499123216,0.0272044949233532,-0.003871060907840729,0.002984106540679932,0.01349669694900513,-0.009934097528457642,XArbitraryZVertical,0.1668651757116542,-0.5459009314673019,0.643167127359349,0.5103765790848869,-0.7718744874000549,0.5318829417228699,-0.3482963740825653,0,0,0,-1,-1,65066.95715912501,unknown,2,2025-04-18T11:53:44.011+03:00,2025-04-17T15:44:39.500+03:00,7529,1.126433,0,0,6207.333,4,10,2025-04-18T11:44:42.378+03:00,766659231.8361058,0,107.7,100.5632,1,0.5,2025-04-18T11:46:49.169+03:00,74,1.233333333333333,2025-04-18T08:51:18.885+03:00,0.03057091307199995,1
2025-04-18T11:53:51.991+03:00,1744966428.250393,40.95359290647468,29.1410029911603,94.2901,-1,-1,-1,-1,30,24.60438744106876,-9999,65074.9327245,-0.7660064697265625,0.5202789306640625,-0.3549041748046875,65074.9226495,1.432197415662089,-1.146674154059723,-0.5608249389225498,-0.005903082899749279,0.01944271102547646,0.00371788302436471,0.002181410789489746,-0.004358053207397461,-0.007321596145629883,XArbitraryZVertical,0.1667836597229521,-0.5458404823537493,0.6431850248629759,0.510445381439583,-0.771789014339447,0.5318849682807922,-0.348482757806778,0,0,0,-1,-1,65066.95715912501,unknown,2,2025-04-18T11:53:44.011+03:00,2025-04-17T15:44:39.500+03:00,7529,1.126433,0,0,6207.333,4,10,2025-04-18T11:44:42.378+03:00,766659231.8361058,0,107.7,100.5632,1,0.5,2025-04-18T11:46:49.169+03:00,74,1.233333333333333,2025-04-18T08:51:18.885+03:00,0.03057091307199995,1
2025-04-18T11:53:52.001+03:00,1744966428.250393,40.95359290647468,29.1410029911603,94.2901,-1,-1,-1,-1,30,24.60438744106876,-9999,65074.9427995,-0.7689361572265625,0.526519775390625,-0.352325439453125,65074.9327245,1.432172143333512,-1.146549956939652,-0.5609223081517151,-0.006585318129509687,0.003538113553076982,0.01473594643175602,0.003525197505950928,-0.0133364200592041,-0.004805684089660645,XArbitraryZVertical,0.1667023798226744,-0.5458311777977469,0.6432006402159524,0.5104621902264325,-0.771698534488678,0.5319674015045166,-0.3485572934150696,0,0,0,-1,-1,65066.95715912501,unknown,2,2025-04-18T11:53:44.011+03:00,2025-04-17T15:44:39.500+03:00,7529,1.126433,0,0,6207.333,4,10,2025-04-18T11:44:42.378+03:00,766659231.8361058,0,107.7,100.5632,1,0.5,2025-04-18T11:46:49.169+03:00,74,1.233333333333333,2025-04-18T08:51:18.885+03:00,0.03057091307199995,1
2025-04-18T11:53:52.011+03:00,1744966428.250393,40.95359290647468,29.1410029911603,94.2901,-1,-1,-1,-1,30,24.60438744106876,-9999,65074.95287450001,-0.7720947265625,0.5336761474609375,-0.345458984375,65074.9427995,1.432136383624406,-1.146569434709994,-0.5610847566116479,-0.01379662565886974,-0.005847132299095392,0.01658125035464764,0.004750251770019531,-0.01026958227157593,-0.006305873394012451,XArbitraryZVertical,0.1666414092377296,-0.5458729713587612,0.6432094257346926,0.5104263425284485,-0.7716265320777893,0.5321049690246582,-0.3485066890716553,0,0,0,-1,-1,65066.95715912501,unknown,2,2025-04-18T11:53:44.011+03:00,2025-04-17T15:44:39.500+03:00,7529,1.126433,0,0,6207.333,4,10,2025-04-18T11:44:42.378+03:00,766659231.8361058,0,107.7,100.5632,1,0.5,2025-04-18T11:46:49.169+03:00,74,1.233333333333333,2025-04-18T08:51:18.885+03:00,0.03057091307199995,1
2025-04-18T11:53:52.021+03:00,1744966428.250393,40.95359290647468,29.1410029911603,94.2901,-1,-1,-1,-1,30,24.60438744106876,-9999,65074.9629495,-0.7729949951171875,0.542236328125,-0.3467864990234375,65074.95287450001,1.432047714154937,-1.146774367056622,-0.5612589241543113,-0.01546935737133026,-0.02658836543560028,0.007017971947789192,0.001716017723083496,-0.002772390842437744,-0.0009021759033203125,XArbitraryZVertical,0.1666214740832602,-0.5459689303784784,0.6431906700879444,0.5103538984483591,-0.7716134786605835,0.5322524309158325,-0.3483104109764099,0,0,0,-1,-1,65066.95715912501,unknown,2,2025-04-18T11:53:44.011+03:00,2025-04-17T15:44:39.500+03:00,7529,1.126433,0,0,6207.333,4,10,2025-04-18T11:44:42.378+03:00,766659231.8361058,0,107.7,100.5632,1,0.5,2025-04-18T11:46:49.169+03:00,74,1.233333333333333,2025-04-18T08:51:18.885+03:00,0.03057091307199995,1
2025-04-18T11:53:52.032+03:00,1744966428.250393,40.95359290647468,29.1410029911603,94.2901,-1,-1,-1,-1,30,24.60438744106876,-9999,65074.9730245,-0.7680816650390625,0.5465087890625,-0.349884033203125,65074.9629495,1.431887745608951,-1.147292789195511,-0.5614540897789394,-0.02424154244363308,-0.04804119095206261,0.01395976822823286,-0.001723051071166992,0.003837287425994873,0.003324210643768311,XArbitraryZVertical,0.1666754738343898,-0.5461551624576342,0.6431301367348264,0.5102132418974263,-0.7716992497444153,0.5324175953865051,-0.3478676378726959,0,0,0,-1,-1,65066.95715912501,unknown,2,2025-04-18T11:53:44.011+03:00,2025-04-17T15:44:39.500+03:00,7529,1.126433,0,0,6207.333,4,10,2025-04-18T11:44:42.378+03:00,766659231.8361058,0,107.7,100.5632,1,0.5,2025-04-18T11:46:49.169+03:00,74,1.233333333333333,2025-04-18T08:51:18.885+03:00,0.03057091307199995,1
2025-04-18T11:53:52.042+03:00,1744966428.250393,40.95359290647468,29.1410029911603,94.2901,-1,-1,-1,-1,30,24.60438744106876,-9999,65074.9830995,-0.767669677734375,0.52301025390625,-0.3494720458984375,65074.9730245,1.431666327601605,-1.147843440981094,-0.5617339869189325,-0.02698333375155926,-0.04161984473466873,0.013292346149683,0.0005297660827636719,0.0144951343536377,-0.0006867051124572754,XArbitraryZVertical,0.166693012839868,-0.5463723006315948,0.6430614653864007,0.5100616210049629,-0.7717548012733459,0.5326545238494873,-0.3473815023899078,0,0,0,-1,-1,65066.95715912501,unknown,2,2025-04-18T11:53:44.011+03:00,2025-04-17T15:44:39.500+03:00,7529,1.126433,0,0,6207.333,4,10,2025-04-18T11:44:42.378+03:00,766659231.8361058,0,107.7,100.5632,1,0.5,2025-04-18T11:46:49.169+03:00,74,1.233333333333333,2025-04-18T08:51:18.885+03:00,0.03057091307199995,1
2025-04-18T11:53:52.052+03:00,1744966428.250393,40.95359290647468,29.1410029911603,94.2901,-1,-1,-1,-1,30,24.60438744106876,-9999,65074.99317450001,-0.742950439453125,0.526214599609375,-0.349761962890625,65074.9830995,1.431400035959842,-1.148485548023528,-0.5618870670914705,-0.01462040841579437,-0.04338738322257996,-0.01042256969958544,0.00313490629196167,0.006156384944915771,-0.003413021564483643,XArbitraryZVertical,0.1667725560482588,-0.5465900642780792,0.6429584734176154,0.5099320662517107,-0.7719032764434814,0.532784104347229,-0.3468524217605591,0,0,0,-1,-1,65066.95715912501,unknown,2,2025-04-18T11:53:44.011+03:00,2025-04-17T15:44:39.500+03:00,7529,1.126433,0,0,6207.333,4,10,2025-04-18T11:44:42.378+03:00,766659231.8361058,0,107.7,100.5632,1,0.5,2025-04-18T11:46:49.169+03:00,74,1.233333333333333,2025-04-18T08:51:18.885+03:00,0.03057091307199995,1
2025-04-18T11:53:52.062+03:00,1744966428.250393,40.95359290647468,29.1410029911603,94.2901,-1,-1,-1,-1,30,24.60438744106876,-9999,65075.00324950001,-0.785400390625,0.523956298828125,-0.353729248046875,65074.99317450001,1.431207752758856,-1.148635327550329,-0.5620187149689699,-0.0143708698451519,0.03975943475961685,0.008135268464684486,0.01198816299438477,-0.01095330715179443,-0.002550303936004639,XArbitraryZVertical,0.1667215747271975,-0.5466716387705596,0.6429128329523349,0.5099188369727975,-0.7718912363052368,0.5328955054283142,-0.3467080593109131,0,0,0,-1,-1,65066.95715912501,unknown,2,2025-04-18T11:53:44.011+03:00,2025-04-17T15:44:39.500+03:00,7529,1.126433,0,0,6207.333,4,10,2025-04-18T11:44:42.378+03:00,766659231.8361058,0,107.7,100.5632,1,0.5,2025-04-18T11:46:49.169+03:00,74,1.233333333333333,2025-04-18T08:51:18.885+03:00,0.03057091307199995,1
2025-04-18T11:53:52.072+03:00,1744966428.250393,40.95359290647468,29.1410029911603,94.2901,-1,-1,-1,-1,30,24.60438744106876,-9999,65075.0133245,-0.7802734375,0.52447509765625,-0.3574371337890625,65075.00324950001,1.431163013213827,-1.148386243777501,-0.5621505432207825,-0.008746540173888206,-0.005057837814092636,0.01068018469959497,0.02355647087097168,-0.007723152637481689,-0.00263097882270813,XArbitraryZVertical,0.1665825975439366,-0.5466392423148978,0.6429380763733455,0.5099672517587914,-0.7717407941818237,0.533007025718689,-0.346871554851532,0,0,0,-1,-1,65066.95715912501,unknown,2,2025-04-18T11:53:44.011+03:00,2025-04-17T15:44:39.500+03:00,7529,1.126433,0,0,6207.333,4,10,2025-04-18T11:44:42.378+03:00,766659231.8361058,0,107.7,100.5632,1,0.5,2025-04-18T11:46:49.169+03:00,74,1.233333333333333,2025-04-18T08:51:18.885+03:00,0.03057091307199995,1
2025-04-18T11:53:52.082+03:00,1744966428.250393,40.95359290647468,29.1410029911603,94.2901,-1,-1,-1,-1,30,24.60438744106876,-9999,65075.0233995,-0.7531890869140625,0.5233306884765625,-0.346588134765625,65075.0133245,1.430975052797091,-1.148664335836715,-0.5622567854579666,-0.03030868992209435,-0.01884622126817703,-0.0007534979376941919,-0.028797447681427,-0.007248520851135254,-0.01029986143112183,XArbitraryZVertical,0.1665830774122384,-0.5467478775703007,0.6428797905883729,0.5099239613294598,-0.7717854976654053,0.5330969095230103,-0.3466336727142334,0,0,0,-1,-1,65066.95715912501,unknown,2,2025-04-18T11:53:44.011+03:00,2025-04-17T15:44:39.500+03:00,7529,1.126433,0,0,6207.333,4,10,2025-04-18T11:44:42.378+03:00,766659231.8361058,0,107.7,100.5632,1,0.5,2025-04-18T11:46:49.169+03:00,74,1.233333333333333,2025-04-18T08:51:18.885+03:00,0.03057091307199995,1
2025-04-18T11:53:52.092+03:00,1744966428.250393,40.95359290647468,29.1410029911603,94.2901,-1,-1,-1,-1,30,24.60438744106876,-9999,65075.03347450001,-0.7786712646484375,0.52752685546875,-0.3471832275390625,65075.0233995,1.430680336787516,-1.148904358583537,-0.5623633763060679,-0.02361749671399593,-0.008826876990497112,0.002745895646512508,0.01331764459609985,-0.01043623685836792,-0.006220638751983643,XArbitraryZVertical,0.1665419192600736,-0.5468557484660558,0.6427975169741237,0.5099254891484486,-0.7718168497085571,0.5331870913505554,-0.3464251458644867,0,0,0,-1,-1,65066.95715912501,unknown,2,2025-04-18T11:53:44.011+03:00,2025-04-17T15:44:39.500+03:00,7529,1.126433,0,0,6207.333,4,10,2025-04-18T11:44:42.378+03:00,766659231.8361058,0,107.7,100.5632,1,0.5,2025-04-18T11:46:49.169+03:00,74,1.233333333333333,2025-04-18T08:51:18.885+03:00,0.03057091307199995,1
2025-04-18T11:53:52.102+03:00,1744966428.250393,40.95359290647468,29.1410029911603,94.2901,-1,-1,-1,-1,30,24.60438744106876,-9999,65075.04354950001,-0.7598876953125,0.555389404296875,-0.342864990234375,65075.03347450001,1.43058768320612,-1.149144339589597,-0.5624093246979149,0.004928991664201021,-0.02402041107416153,0.001535788644105196,0.006008446216583252,-0.008613526821136475,-0.0001446008682250977,XArbitraryZVertical,0.1665774323408738,-0.5469341827741377,0.6427594556076026,0.509877796394332,-0.771877646446228,0.533225953578949,-0.3462299108505249,0,0,0,-1,-1,65066.95715912501,unknown,2,2025-04-18T11:53:44.011+03:00,2025-04-17T15:44:39.500+03:00,7529,1.126433,0,0,6207.333,4,10,2025-04-18T11:44:42.378+03:00,766659231.8361058,0,107.7,100.5632,1,0.5,2025-04-18T11:46:49.169+03:00,74,1.233333333333333,2025-04-18T08:51:18.885+03:00,0.03057091307199995,1
2025-04-18T11:53:52.112+03:00,1744966428.250393,40.95359290647468,29.1410029911603,94.2901,-1,-1,-1,-1,30,24.60438744106876,-9999,65075.0536245,-0.7692108154296875,0.5604400634765625,-0.34320068359375,65075.04354950001,1.430785726625138,-1.14923655457515,-0.5623486590255661,0.03258299082517624,-0.01008835062384605,0.0021557726431638,-0.001513838768005371,0.0007914900779724121,-0.0004619061946868896,XArbitraryZVertical,0.1666826817603167,-0.5469285986269621,0.6427949375774403,0.5098046858904093,-0.7719390988349915,0.5331746339797974,-0.3461719751358032,0,0,0,-1,-1,65066.95715912501,unknown,2,2025-04-18T11:53:44.011+03:00,2025-04-17T15:44:39.500+03:00,7529,1.126433,0,0,6207.333,4,10,2025-04-18T11:44:42.378+03:00,766659231.8361058,0,107.7,100.5632,1,0.5,2025-04-18T11:46:49.169+03:00,74,1.233333333333333,2025-04-18T08:51:18.885+03:00,0.03057091307199995,1
2025-04-18T11:53:52.122+03:00,1744966428.250393,40.95359290647468,29.1410029911603,94.2901,-1,-1,-1,-1,30,24.60438744106876,-9999,65075.0636995,-0.766876220703125,0.5409088134765625,-0.3455352783203125,65075.0536245,1.431140873245907,-1.14916678293996,-0.5621960795153172,0.03182991594076157,-0.02003199234604836,-0.007294287905097008,0.01205557584762573,0.03101080656051636,0.004462271928787231,XArbitraryZVertical,0.1668114151424849,-0.5468495350393684,0.6428728589515955,0.5097489663484636,-0.7719890475273132,0.5330455303192139,-0.3462590873241425,0,0,0,-1,-1,65066.95715912501,unknown,2,2025-04-18T11:53:44.011+03:00,2025-04-17T15:44:39.500+03:00,7529,1.126433,0,0,6207.333,4,10,2025-04-18T11:44:42.378+03:00,766659231.8361058,0,107.7,100.5632,1,0.5,2025-04-18T11:46:49.169+03:00,74,1.233333333333333,2025-04-18T08:51:18.885+03:00,0.03057091307199995,1
2025-04-18T11:53:52.132+03:00,1744966428.250393,40.95359290647468,29.1410029911603,94.2901,-1,-1,-1,-1,30,24.60438744106876,-9999,65075.0737745,-0.762237548828125,0.5248870849609375,-0.344085693359375,65075.0636995,1.431404514703678,-1.149220105370995,-0.5620232419744093,0.02180311270058155,-0.01858749613165855,-0.006552597507834435,0.0003935694694519043,0.02029281854629517,0.001269727945327759,XArbitraryZVertical,0.166961769855503,-0.5468052295522977,0.6429147488200782,0.5096944711405055,-0.7720915675163269,0.5328993201255798,-0.3462556302547455,0,0,0,-1,-1,65066.95715912501,unknown,2,2025-04-18T11:53:44.011+03:00,2025-04-17T15:44:39.500+03:00,7529,1.126433,0,0,6207.333,4,10,2025-04-18T11:44:42.378+03:00,766659231.8361058,0,107.7,100.5632,1,0.5,2025-04-18T11:46:49.169+03:00,74,1.233333333333333,2025-04-18T08:51:18.885+03:00,0.03057091307199995,1
2025-04-18T11:53:52.142+03:00,1744966428.250393,40.95359290647468,29.1410029911603,94.2901,-1,-1,-1,-1,30,24.60438744106876,-9999,65075.08384950001,-0.771484375,0.5141754150390625,-0.3418731689453125,65075.0737745,1.431533391403876,-1.149258503108959,-0.5618957208309145,0.002972301095724106,-0.005060368217527866,-0.006851204670965672,0.008998572826385498,0.002364873886108398,0.001542568206787109,XArbitraryZVertical,0.1670544059756985,-0.5467777584672465,0.6429290038431094,0.5096757445882418,-0.7721669673919678,0.5327913761138916,-0.3462538123130798,0,0,0,-1,-1,65066.95715912501,unknown,2,2025-04-18T11:53:44.011+03:00,2025-04-17T15:44:39.500+03:00,7529,1.126433,0,0,6207.333,4,10,2025-04-18T11:44:42.378+03:00,766659231.8361058,0,107.7,100.5632,1,0.5,2025-04-18T11:46:49.169+03:00,74,1.233333333333333,2025-04-18T08:51:18.885+03:00,0.03057091307199995,1
2025-04-18T11:53:52.152+03:00,1744966428.250393,40.95359290647468,29.1410029911603,94.2901,-1,-1,-1,-1,30,24.60438744106876,-9999,65075.0939245,-0.763916015625,0.507415771484375,-0.3416900634765625,65075.08384950001,1.431441889151234,-1.149345978360152,-0.5619324759544955,-0.02168990112841129,-0.008355763740837574,0.001938824774697423,0.005303025245666504,-0.01374900341033936,0.002733469009399414,XArbitraryZVertical,0.1670445468489461,-0.54681533200072,0.6429028108723993,0.5096715994954282,-0.7721793055534363,0.5328224897384644,-0.3461782336235046,0,0,0,-1,-1,65066.95715912501,unknown,2,2025-04-18T11:53:44.011+03:00,2025-04-17T15:44:39.500+03:00,7529,1.126433,0,0,6207.333,4,10,2025-04-18T11:44:42.378+03:00,766659231.8361058,0,107.7,100.5632,1,0.5,2025-04-18T11:46:49.169+03:00,74,1.233333333333333,2025-04-18T08:51:18.885+03:00,0.03057091307199995,1
2025-04-18T11:53:52.163+03:00,1744966428.250393,40.95359290647468,29.1410029911603,94.2901,-1,-1,-1,-1,30,24.60438744106876,-9999,65075.1039995,-0.760711669921875,0.5224761962890625,-0.3515167236328125,65075.0939245,1.43119105999681,-1.149569724686761,-0.5620568202002851,-0.02297387830913067,-0.008378732949495316,0.009078726172447205,0.00188678503036499,-0.02108687162399292,0.004807114601135254,XArbitraryZVertical,0.1670038887073056,-0.546919118943782,0.6428352169688555,0.509658840202297,-0.7721962928771973,0.5329277515411377,-0.3459783494472504,0,0,0,-1,-1,65066.95715912501,unknown,2,2025-04-18T11:53:44.011+03:00,2025-04-17T15:44:39.500+03:00,7529,1.126433,0,0,6207.333,4,10,2025-04-18T11:44:42.378+03:00,766659231.8361058,0,107.7,100.5632,1,0.5,2025-04-18T11:46:49.169+03:00,74,1.233333333333333,2025-04-18T08:51:18.885+03:00,0.03057091307199995,1
2025-04-18T11:53:52.173+03:00,1744966428.250393,40.95359290647468,29.1410029911603,94.2901,-1,-1,-1,-1,30,24.60438744106876,-9999,65075.1140745,-0.766021728515625,0.547271728515625,-0.3629913330078125,65075.1039995,1.43114850511331,-1.149718143966609,-0.5621785073455841,0.006780820898711681,-0.02123541012406349,0.01009445637464523,0.01179713010787964,-0.02472996711730957,0.002133041620254517,XArbitraryZVertical,0.1669969649693591,-0.5469857596740021,0.6428266679653953,0.5096002169714835,-0.7721883058547974,0.5330306887626648,-0.3458371758460999,0,0,0,-1,-1,65066.95715912501,unknown,2,2025-04-18T11:53:44.011+03:00,2025-04-17T15:44:39.500+03:00,7529,1.126433,0,0,6207.333,4,10,2025-04-18T11:44:42.378+03:00,766659231.8361058,0,107.7,100.5632,1,0.5,2025-04-18T11:46:49.169+03:00,74,1.233333333333333,2025-04-18T08:51:18.885+03:00,0.03057091307199995,1
2025-04-18T11:53:52.183+03:00,1744966428.250393,40.95359290647468,29.1410029911603,94.2901,-1,-1,-1,-1,30,24.60438744106876,-9999,65075.12414950001,-0.7684478759765625,0.5518646240234375,-0.350799560546875,65075.1140745,1.431441335599523,-1.149808335073306,-0.5621818440791317,0.04054031893610954,-0.0282537043094635,0.01234812289476395,0.008591830730438232,0.001924276351928711,-0.01063263416290283,XArbitraryZVertical,0.167104865643733,-0.5469849719541712,0.6428941416817273,0.5094805492269726,-0.772217869758606,0.5330334901809692,-0.3457668125629425,0,0,0,-1,-1,65066.95715912501,unknown,2,2025-04-18T11:53:44.011+03:00,2025-04-17T15:44:39.500+03:00,7529,1.126433,0,0,6207.333,4,10,2025-04-18T11:44:42.378+03:00,766659231.8361058,0,107.7,100.5632,1,0.5,2025-04-18T11:46:49.169+03:00,74,1.233333333333333,2025-04-18T08:51:18.885+03:00,0.03057091307199995,1
2025-04-18T11:53:52.193+03:00,1744966428.250393,40.95359290647468,29.1410029911603,94.2901,-1,-1,-1,-1,30,24.60438744106876,-9999,65075.13422450001,-0.7722930908203125,0.558135986328125,-0.32879638671875,65075.12414950001,1.432034383439401,-1.149776544338417,-0.5620310534387917,0.06128714233636856,-0.02424245327711105,0.001814787974581122,0.005877137184143066,0.01602905988693237,-0.01654142141342163,XArbitraryZVertical,0.1673100710778472,-0.5468959684064572,0.6430296598036163,0.5093379448131685,-0.7722803950309753,0.5329059362411499,-0.345824271440506,0,0,0,-1,-1,65066.95715912501,unknown,2,2025-04-18T11:53:44.011+03:00,2025-04-17T15:44:39.500+03:00,7529,1.126433,0,0,6207.333,4,10,2025-04-18T11:44:42.378+03:00,766659231.8361058,0,107.7,100.5632,1,0.5,2025-04-18T11:46:49.169+03:00,74,1.233333333333333,2025-04-18T08:51:18.885+03:00,0.03057091307199995,1
2025-04-18T11:53:52.211+03:00,1744966428.250393,40.95359290647468,29.1410029911603,94.2901,-1,-1,-1,-1,30,24.60438744106876,-9999,65075.1442995,-0.7734832763671875,0.537353515625,-0.3327178955078125,65075.13422450001,1.432724027040583,-1.149578173144962,-0.5618138045518375,0.05656169354915619,-0.009993940591812134,-0.007203307934105396,0.002587735652923584,0.0220721960067749,0.005143493413925171,XArbitraryZVertical,0.1675116939897561,-0.5467425783918987,0.6431956663010781,0.5092266440042554,-0.7723173499107361,0.5327220559120178,-0.3460247814655304,0,0,0,-1,-1,65066.95715912501,unknown,2,2025-04-18T11:53:44.011+03:00,2025-04-17T15:44:39.500+03:00,7529,1.126433,0,0,6207.333,4,10,2025-04-18T11:44:42.378+03:00,766659231.8361058,0,107.7,100.5632,1,0.5,2025-04-18T11:46:49.169+03:00,74,1.233333333333333,2025-04-18T08:51:18.885+03:00,0.03057091307199995,1
2025-04-18T11:53:52.214+03:00,1744966428.250393,40.95359290647468,29.1410029911603,94.2901,-1,-1,-1,-1,30,24.60438744106876,-9999,65075.1543745,-0.7645721435546875,0.5113983154296875,-0.336456298828125,65075.1442995,1.433121887023169,-1.149464776201464,-0.5616226212276576,0.01933309808373451,-0.008194176480174065,-0.006708226166665554,-0.001127541065216064,0.02159315347671509,0.01764759421348572,XArbitraryZVertical,0.1676515845892527,-0.5466406087320962,0.6432834125196017,0.5091792024098085,-0.7723710536956787,0.5325602889060974,-0.3461539745330811,0,0,0,-1,-1,65066.95715912501,unknown,2,2025-04-18T11:53:44.011+03:00,2025-04-17T15:44:39.500+03:00,7529,1.126433,0,0,6207.333,4,10,2025-04-18T11:44:42.378+03:00,766659231.8361058,0,107.7,100.5632,1,0.5,2025-04-18T11:46:49.169+03:00,74,1.233333333333333,2025-04-18T08:51:18.885+03:00,0.03057091307199995,1
2025-04-18T11:53:52.223+03:00,1744966428.250393,40.95359290647468,29.1410029911603,94.2901,-1,-1,-1,-1,30,24.60438744106876,-9999,65075.16444950001,-0.7578887939453125,0.5068206787109375,-0.3477783203125,65075.1543745,1.433123557510151,-1.149556519112699,-0.56157238253063,-0.01183094643056393,-0.01073696278035641,-0.006250828038901091,0.001583695411682129,-0.006150543689727783,0.01197242736816406,XArbitraryZVertical,0.1676992888349824,-0.5466533716973838,0.643270092033981,0.5091666779643831,-0.7724272608757019,0.5325177311897278,-0.3460940718650818,0,0,0,-1,-1,65066.95715912501,unknown,2,2025-04-18T11:53:44.011+03:00,2025-04-17T15:44:39.500+03:00,7529,1.126433,0,0,6207.333,4,10,2025-04-18T11:44:42.378+03:00,766659231.8361058,0,107.7,100.5632,1,0.5,2025-04-18T11:46:49.169+03:00,74,1.233333333333333,2025-04-18T08:51:18.885+03:00,0.03057091307199995,1
2025-04-18T11:53:52.233+03:00,1744966428.250393,40.95359290647468,29.1410029911603,94.2901,-1,-1,-1,-1,30,24.60438744106876,-9999,65075.17452450001,-0.7600860595703125,0.5081634521484375,-0.364349365234375,65075.16444950001,1.432889163972101,-1.149776295487468,-0.5615990441509758,-0.02665889449417591,-0.007349422201514244,-0.0033517109695822,0.01119875907897949,-0.02533811330795288,0.007570147514343262,XArbitraryZVertical,0.1676964912236329,-0.5467345241890268,0.6431952045932751,0.50917502946761,-0.7724903225898743,0.5325403213500977,-0.3459185063838959,0,0,0,-1,-1,65066.95715912501,unknown,2,2025-04-18T11:53:44.011+03:00,2025-04-17T15:44:39.500+03:00,7529,1.126433,0,0,6207.333,4,10,2025-04-18T11:44:42.378+03:00,766659231.8361058,0,107.7,100.5632,1,0.5,2025-04-18T11:46:49.169+03:00,74,1.233333333333333,2025-04-18T08:51:18.885+03:00,0.03057091307199995,1
2025-04-18T11:53:52.243+03:00,1744966428.250393,40.95359290647468,29.1410029911603,94.2901,-1,-1,-1,-1,30,24.60438744106876,-9999,65075.1845995,-0.772216796875,0.5098114013671875,-0.359405517578125,65075.17452450001,1.43250269927928,-1.150051880071673,-0.5616552651564248,-0.0393928661942482,-0.001038596034049988,-0.005470422562211752,0.01482200622558594,-0.02433294057846069,-0.009439617395401001,XArbitraryZVertical,0.1676596024588268,-0.5468487788868972,0.6430804891924282,0.5092093042461866,-0.7725582122802734,0.5325878858566284,-0.3456933498382568,0,0,0,-1,-1,65066.95715912501,unknown,2,2025-04-18T11:53:44.011+03:00,2025-04-17T15:44:39.500+03:00,7529,1.126433,0,0,6207.333,4,10,2025-04-18T11:44:42.378+03:00,766659231.8361058,0,107.7,100.5632,1,0.5,2025-04-18T11:46:49.169+03:00,74,1.233333333333333,2025-04-18T08:51:18.885+03:00,0.03057091307199995,1
2025-04-18T11:53:52.253+03:00,1744966428.250393,40.95359290647468,29.1410029911603,94.2901,-1,-1,-1,-1,30,24.60438744106876,-9999,65075.1946745,-0.7801361083984375,0.514892578125,-0.3610687255859375,65075.1845995,1.432045785114974,-1.1502720842913,-0.5617444114236178,-0.04023442417383194,0.00211458676494658,-0.005541794933378696,0.008964896202087402,-0.02547651529312134,-0.01864710450172424,XArbitraryZVertical,0.1675739335615463,-0.5469616640354894,0.642956460266372,0.5092728824763786,-0.7725909948348999,0.5326633453369141,-0.3455038368701935,0,0,0,-1,-1,65066.95715912501,unknown,2,2025-04-18T11:53:44.011+03:00,2025-04-17T15:44:39.500+03:00,7529,1.126433,0,0,6207.333,4,10,2025-04-18T11:44:42.378+03:00,766659231.8361058,0,107.7,100.5632,1,0.5,2025-04-18T11:46:49.169+03:00,74,1.233333333333333,2025-04-18T08:51:18.885+03:00,0.03057091307199995,1
2025-04-18T11:53:52.263+03:00,1744966428.250393,40.95359290647468,29.1410029911603,94.2901,-1,-1,-1,-1,30,24.60438744106876,-9999,65075.2047495,-0.787628173828125,0.5079803466796875,-0.369110107421875,65075.1946745,1.431607092821861,-1.150423698832461,-0.5618639373694151,-0.03954659774899483,0.009364178404211998,-0.00712214782834053,-0.003308892250061035,-0.0209541916847229,-0.01351064443588257,XArbitraryZVertical,0.1674603555272294,-0.5470618336057855,0.6428464964351176,0.5093416315378548,-0.7725853323936462,0.5327644944190979,-0.3453607559204102,0,0,0,-1,-1,65066.95715912501,unknown,2,2025-04-18T11:53:44.011+03:00,2025-04-17T15:44:39.500+03:00,7529,1.126433,0,0,6207.333,4,10,2025-04-18T11:44:42.378+03:00,766659231.8361058,0,107.7,100.5632,1,0.5,2025-04-18T11:46:49.169+03:00,74,1.233333333333333,2025-04-18T08:51:18.885+03:00,0.03057091307199995,1
2025-04-18T11:53:52.273+03:00,1744966428.250393,40.95359290647468,29.1410029911603,94.2901,-1,-1,-1,-1,30,24.60438744106876,-9999,65075.21482450001,-0.8028717041015625,0.497344970703125,-0.385009765625,65075.2047495,1.430925846889312,-1.150568552014948,-0.5620013195513045,-0.08579238504171371,0.03244100138545036,-0.02346543408930302,-0.00903242826461792,-0.01859849691390991,-0.01781809329986572,XArbitraryZVertical,0.1672719432793178,-0.5471842477340393,0.6426774698142697,0.5094853659768536,-0.7725685238838196,0.5328807830810547,-0.3452189862728119,0,0,0,-1,-1,65066.95715912501,unknown,2,2025-04-18T11:53:44.011+03:00,2025-04-17T15:44:39.500+03:00,7529,1.126433,0,0,6207.333,4,10,2025-04-18T11:44:42.378+03:00,766659231.8361058,0,107.7,100.5632,1,0.5,2025-04-18T11:46:49.169+03:00,74,1.233333333333333,2025-04-18T08:51:18.885+03:00,0.03057091307199995,1
2025-04-18T11:53:52.283+03:00,1744966428.250393,40.95359290647468,29.1410029911603,94.2901,-1,-1,-1,-1,30,24.60438744106876,-9999,65075.2248995,-0.8230133056640625,0.471527099609375,-0.4232330322265625,65075.21482450001,1.429172305165357,-1.151018609039785,-0.5623736741076,-0.2146363854408264,0.06057436764240265,-0.03365202620625496,-0.02007538080215454,-0.03012871742248535,-0.02894309163093567,XArbitraryZVertical,0.166804881171785,-0.5475225593022658,0.6422381146472383,0.5098289214250318,-0.7725425958633423,0.5331957936286926,-0.3447903692722321,0,0,0,-1,-1,65066.95715912501,unknown,2,2025-04-18T11:53:44.011+03:00,2025-04-17T15:44:39.500+03:00,7529,1.126433,0,0,6207.333,4,10,2025-04-18T11:44:42.378+03:00,766659231.8361058,0,107.7,100.5632,1,0.5,2025-04-18T11:46:49.169+03:00,74,1.233333333333333,2025-04-18T08:51:18.885+03:00,0.03057091307199995,1
2025-04-18T11:53:52.293+03:00,1744966428.250393,40.95359290647468,29.1410029911603,94.2901,-1,-1,-1,-1,30,24.60438744106876,-9999,65075.2349745,-0.8247528076171875,0.4136810302734375,-0.4902801513671875,65075.2248995,1.425584506809138,-1.152523201678407,-0.5635058621298,-0.4426122903823853,0.01297915261238813,-0.009640965610742569,-0.03784030675888062,-0.041401207447052,-0.05200356245040894,XArbitraryZVertical,0.1659038711301934,-0.5484385432138539,0.6413355231785342,0.5102742687950089,-0.7725082635879517,0.5341532826423645,-0.3433821499347687,0,0,0,-1,-1,65066.95715912501,unknown,2,2025-04-18T11:53:44.011+03:00,2025-04-17T15:44:39.500+03:00,7529,1.126433,0,0,6207.333,4,10,2025-04-18T11:44:42.378+03:00,766659231.8361058,0,107.7,100.5632,1,0.5,2025-04-18T11:46:49.169+03:00,74,1.233333333333333,2025-04-18T08:51:18.885+03:00,0.03057091307199995,1
2025-04-18T11:53:52.304+03:00,1744966428.250393,40.95359290647468,29.1410029911603,94.2901,-1,-1,-1,-1,30,24.60438744106876,-9999,65075.2450495,-0.812042236328125,0.4019775390625,-0.5359039306640625,65075.2349745,1.419380340465314,-1.156123985490881,-0.5659061806554827,-0.7186502814292908,-0.0678911954164505,0.02579851821064949,-0.05417251586914062,-0.08653491735458374,-0.1068186163902283,XArbitraryZVertical,0.1645019643700127,-0.5503623630072347,0.6397481251101129,0.5106493239987692,-0.7725639939308167,0.5361809730529785,-0.340080738067627,0,0,0,-1,-1,65066.95715912501,unknown,2,2025-04-18T11:53:44.011+03:00,2025-04-17T15:44:39.500+03:00,7529,1.126433,0,0,6207.333,4,10,2025-04-18T11:44:42.378+03:00,766659231.8361058,0,107.7,100.5632,1,0.5,2025-04-18T11:46:49.169+03:00,74,1.233333333333333,2025-04-18T08:51:18.885+03:00,0.03057091307199995,1
2025-04-18T11:53:52.315+03:00,1744966428.250393,40.95359290647468,29.1410029911603,94.2901,-1,-1,-1,-1,30,24.60438744106876,-9999,65075.25512450001,-0.7937164306640625,0.407806396484375,-0.5450286865234375,65075.2450495,1.410127977908044,-1.162331425770375,-0.570004635539558,-1.028770327568054,-0.1847006231546402,0.1108281910419464,-0.04669904708862305,-0.136712372303009,-0.1770868897438049,XArbitraryZVertical,0.1624751427816309,-0.5535344317381552,0.6373846669846679,0.5108251165090343,-0.772636890411377,0.539635956287384,-0.3344029188156128,0,0,0,-1,-1,65066.95715912501,unknown,2,2025-04-18T11:53:44.011+03:00,2025-04-17T15:44:39.500+03:00,7529,1.126433,0,0,6207.333,4,10,2025-04-18T11:44:42.378+03:00,766659231.8361058,0,107.7,100.5632,1,0.5,2025-04-18T11:46:49.169+03:00,74,1.233333333333333,2025-04-18T08:51:18.885+03:00,0.03057091307199995,1
2025-04-18T11:53:52.324+03:00,1744966428.250393,40.95359290647468,29.1410029911603,94.2901,-1,-1,-1,-1,30,24.60438744106876,-9999,65075.26519950001,-0.7456817626953125,0.4032135009765625,-0.544403076171875,65075.25512450001,1.398050124404763,-1.171372079719348,-0.5761587166873847,-1.311070561408997,-0.2996891140937805,0.220322385430336,-0.03549015522003174,-0.138694167137146,-0.2166485488414764,XArbitraryZVertical,0.1598028772463149,-0.5580410152577119,0.6343449881006378,0.5105484759427033,-0.7725542783737183,0.5448068380355835,-0.3261065185070038,0,0,0,-1,-1,65066.95715912501,unknown,2,2025-04-18T11:53:44.011+03:00,2025-04-17T15:44:39.500+03:00,7529,1.126433,0,0,6207.333,4,10,2025-04-18T11:44:42.378+03:00,766659231.8361058,0,107.7,100.5632,1,0.5,2025-04-18T11:46:49.169+03:00,74,1.233333333333333,2025-04-18T08:51:18.885+03:00,0.03057091307199995,1
2025-04-18T11:53:52.334+03:00,1744966428.250393,40.95359290647468,29.1410029911603,94.2901,-1,-1,-1,-1,30,24.60438744106876,-9999,65075.2752745,-0.722808837890625,0.4290771484375,-0.5596771240234375,65075.26519950001,1.383402793180071,-1.182423836607745,-0.5842627326047546,-1.551908493041992,-0.2885174453258514,0.326998770236969,-0.0049172043800354,-0.1463263630867004,-0.2281246781349182,XArbitraryZVertical,0.1562990548572707,-0.5635933068542935,0.6307717171429325,0.5099610885194646,-0.7719993591308594,0.5515845417976379,-0.3158663809299469,0,0,0,-1,-1,65066.95715912501,unknown,2,2025-04-18T11:53:44.011+03:00,2025-04-17T15:44:39.500+03:00,7529,1.126433,0,0,6207.333,4,10,2025-04-18T11:44:42.378+03:00,766659231.8361058,0,107.7,100.5632,1,0.5,2025-04-18T11:46:49.169+03:00,74,1.233333333333333,2025-04-18T08:51:18.885+03:00,0.03057091307199995,1
2025-04-18T11:53:52.344+03:00,1744966428.250393,40.95359290647468,29.1410029911603,94.2901,-1,-1,-1,-1,30,24.60438744106876,-9999,65075.2853495,-0.7158966064453125,0.4909820556640625,-0.5980987548828125,65075.2752745,1.366513190502124,-1.193947928604375,-0.5940849424142696,-1.747559547424316,-0.1172988936305046,0.4635830819606781,0.03912883996963501,-0.1529056429862976,-0.2433382570743561,XArbitraryZVertical,0.1516209496999109,-0.5696848628823176,0.626863484594102,0.5094235343682868,-0.7705129981040955,0.5597507357597351,-0.3049404919147491,0,0,0,-1,-1,65066.95715912501,unknown,2,2025-04-18T11:53:44.011+03:00,2025-04-17T15:44:39.500+03:00,7529,1.126433,0,0,6207.333,4,10,2025-04-18T11:44:42.378+03:00,766659231.8361058,0,107.7,100.5632,1,0.5,2025-04-18T11:46:49.169+03:00,74,1.233333333333333,2025-04-18T08:51:18.885+03:00,0.03057091307199995,1
2025-04-18T11:53:52.354+03:00,1744966428.250393,40.95359290647468,29.1410029911603,94.2901,-1,-1,-1,-1,30,24.60438744106876,-9999,65075.29542450001,-0.6613311767578125,0.5658416748046875,-0.6925201416015625,65075.2853495,1.348670003267783,-1.204385116827483,-0.6055758489305509,-1.797093510627747,0.03829070180654526,0.5718525648117065,0.0443158745765686,-0.119284451007843,-0.2755101919174194,XArbitraryZVertical,0.1456442456780618,-0.5757679190020722,0.6230758494252163,0.508974971283872,-0.7675977349281311,0.569235622882843,-0.2945581078529358,0,0,0,-1,-1,65066.95715912501,unknown,2,2025-04-18T11:53:44.011+03:00,2025-04-17T15:44:39.500+03:00,7529,1.126433,0,0,6207.333,4,10,2025-04-18T11:44:42.378+03:00,766659231.8361058,0,107.7,100.5632,1,0.5,2025-04-18T11:46:49.169+03:00,74,1.233333333333333,2025-04-18T08:51:18.885+03:00,0.03057091307199995,1
2025-04-18T11:53:52.364+03:00,1744966428.250393,40.95359290647468,29.1410029911603,94.2901,-1,-1,-1,-1,30,24.60438744106876,-9999,65075.30549950001,-0.582916259765625,0.65350341796875,-0.81414794921875,65075.29542450001,1.331259144268393,-1.213326612628335,-0.6171443308698396,-1.654825448989868,0.1071610450744629,0.5744460821151733,0.06315964460372925,-0.06091684103012085,-0.3411051630973816,XArbitraryZVertical,0.1392134701768128,-0.5813259022836919,0.619576942126863,0.5087281520424275,-0.7639806270599365,0.5787086486816406,-0.2853596210479736,0,0,0,-1,-1,65066.95715912501,unknown,2,2025-04-18T11:53:44.011+03:00,2025-04-17T15:44:39.500+03:00,7529,1.126433,0,0,6207.333,4,10,2025-04-18T11:44:42.378+03:00,766659231.8361058,0,107.7,100.5632,1,0.5,2025-04-18T11:46:49.169+03:00,74,1.233333333333333,2025-04-18T08:51:18.885+03:00,0.03057091307199995,1
2025-04-18T11:53:52.374+03:00,1744966428.250393,40.95359290647468,29.1410029911603,94.2901,-1,-1,-1,-1,30,24.60438744106876,-9999,65075.3155745,-0.49200439453125,0.7027587890625,-0.8578338623046875,65075.30549950001,1.315073154805986,-1.221778352189914,-0.6286894625128788,-1.539168119430542,0.02864998951554298,0.6594951748847961,0.1258650422096252,0.01030337810516357,-0.4618141055107117,XArbitraryZVertical,0.1329211879291258,-0.5865470050744211,0.6164747222359249,0.5081864832585452,-0.7600356340408325,0.5880852937698364,-0.2765891253948212,0,0,0,-1,-1,65066.95715912501,unknown,2,2025-04-18T11:53:44.011+03:00,2025-04-17T15:44:39.500+03:00,7529,1.126433,0,0,6207.333,4,10,2025-04-18T11:44:42.378+03:00,766659231.8361058,0,107.7,100.5632,1,0.5,2025-04-18T11:46:49.169+03:00,74,1.233333333333333,2025-04-18T08:51:18.885+03:00,0.03057091307199995,1
2025-04-18T11:53:52.384+03:00,1744966428.250393,40.95359290647468,29.1410029911603,94.2901,-1,-1,-1,-1,30,24.60438744106876,-9999,65075.3256495,-0.4803009033203125,0.646942138671875,-0.80224609375,65075.3155745,1.30005651721342,-1.232800779314245,-0.6399727288601584,-1.506911516189575,-0.3781962692737579,0.6591228842735291,0.2098545432090759,0.08577936887741089,-0.5788097977638245,XArbitraryZVertical,0.1277904995718359,-0.5921830074953022,0.6135221274856579,0.5065368341064649,-0.7567296028137207,0.5971735715866089,-0.2659777402877808,0,0,0,-1,-1,65066.95715912501,unknown,2,2025-04-18T11:53:44.011+03:00,2025-04-17T15:44:39.500+03:00,7529,1.126433,0,0,6207.333,4,10,2025-04-18T11:44:42.378+03:00,766659231.8361058,0,107.7,100.5632,1,0.5,2025-04-18T11:46:49.169+03:00,74,1.233333333333333,2025-04-18T08:51:18.885+03:00,0.03057091307199995,1
2025-04-18T11:53:52.394+03:00,1744966428.250393,40.95359290647468,29.1410029911603,94.2901,-1,-1,-1,-1,30,24.60438744106876,-9999,65075.3357235,-0.5066986083984375,0.5814666748046875,-0.6945648193359375,65075.3256495,1.283817390514324,-1.24906328383145,-0.6522283696749179,-1.741960525512695,-0.9796189665794373,0.821189284324646,0.2797266840934753,0.08490514755249023,-0.5940943360328674,XArbitraryZVertical,0.1234723493375757,-0.5992518736229183,0.6101455209445277,0.5033629925508646,-0.7539546489715576,0.6069588661193848,-0.2513035535812378,0,0,0,-1,-1,65066.95715912501,unknown,2,2025-04-18T11:53:44.011+03:00,2025-04-17T15:44:39.500+03:00,7529,1.126433,0,0,6207.333,4,10,2025-04-18T11:44:42.378+03:00,766659231.8361058,0,107.7,100.5632,1,0.5,2025-04-18T11:46:49.169+03:00,74,1.233333333333333,2025-04-18T08:51:18.885+03:00,0.03057091307199995,1
2025-04-18T11:53:52.404+03:00,1744966428.250393,40.95359290647468,29.1410029911603,94.2901,-1,-1,-1,-1,30,24.60438744106876,-9999,65075.34579850001,-0.6456298828125,0.62176513671875,-0.659576416015625,65075.3357235,1.265063537502235,-1.274963210255971,-0.6641674845336328,-1.690849661827087,-1.930077195167542,0.4339787662029266,0.2617231011390686,0.0003869533538818359,-0.5364567041397095,XArbitraryZVertical,0.1213374757806019,-0.6086828014202028,0.6056171258662246,0.49800631738051,-0.7532238960266113,0.6164038181304932,-0.2295649349689484,0,0,0,-1,-1,65066.95715912501,unknown,2,2025-04-18T11:53:44.011+03:00,2025-04-17T15:44:39.500+03:00,7529,1.126433,0,0,6207.333,4,10,2025-04-18T11:44:42.378+03:00,766659231.8361058,0,107.7,100.5632,1,0.5,2025-04-18T11:46:49.169+03:00,74,1.233333333333333,2025-04-18T08:51:18.885+03:00,0.03057091307199995,1
2025-04-18T11:53:52.414+03:00,1744966428.250393,40.95359290647468,29.1410029911603,94.2901,-1,-1,-1,-1,30,24.60438744106876,-9999,65075.3558745,-0.8741912841796875,0.7569732666015625,-0.751220703125,65075.34579850001,1.246634281367838,-1.306928386444172,-0.6714034014040857,-1.533217072486877,-2.039011001586914,0.298527717590332,0.2255158424377441,-0.04093915224075317,-0.4569876194000244,XArbitraryZVertical,0.1226895965573677,-0.6187440258533866,0.600214003624059,0.4917787235545469,-0.7558503150939941,0.6220853924751282,-0.204206183552742,0,0,0,-1,-1,65066.95715912501,unknown,2,2025-04-18T11:53:44.011+03:00,2025-04-17T15:44:39.500+03:00,7529,1.126433,0,0,6207.333,4,10,2025-04-18T11:44:42.378+03:00,766659231.8361058,0,107.7,100.5632,1,0.5,2025-04-18T11:46:49.169+03:00,74,1.233333333333333,2025-04-18T08:51:18.885+03:00,0.03057091307199995,1
2025-04-18T11:53:52.424+03:00,1744966428.250393,40.95359290647468,29.1410029911603,94.2901,-1,-1,-1,-1,30,24.60438744106876,-9999,65075.3659485,-0.82208251953125,0.8145904541015625,-0.59466552734375,65075.3558745,1.226172046668188,-1.341101470065212,-0.6792405992364771,-1.931231379508972,-2.294045448303223,0.3488350510597229,0.007554292678833008,0.03888142108917236,-0.5186081528663635,XArbitraryZVertical,0.1236710351639195,-0.6293902504532283,0.5943702967850073,0.4850747238517887,-0.7576153874397278,0.6282023787498474,-0.177146777510643,0,0,0,-1,-1,65066.95715912501,unknown,2,2025-04-18T11:53:44.011+03:00,2025-04-17T15:44:39.500+03:00,7529,1.126433,0,0,6207.333,4,10,2025-04-18T11:44:42.378+03:00,766659231.8361058,0,107.7,100.5632,1,0.5,2025-04-18T11:46:49.169+03:00,74,1.233333333333333,2025-04-18T08:51:18.885+03:00,0.03057091307199995,1
2025-04-18T11:53:52.434+03:00,1744966428.250393,40.95359290647468,29.1410029911603,94.2901,-1,-1,-1,-1,30,24.60438744106876,-9999,65075.3760235,-0.790191650390625,0.6604461669921875,-0.4582977294921875,65075.3659485,1.200342172737846,-1.382688454474821,-0.6845410820818771,-2.149794101715088,-2.70517110824585,-0.1580129563808441,-0.117405116558075,0.1688756942749023,-0.5846058130264282,XArbitraryZVertical,0.1258272886907523,-0.6416634445161807,0.5864555018675153,0.4780225573064937,-0.7610434293746948,0.6323175430297852,-0.1448710411787033,0,0,0,-1,-1,65066.95715912501,unknown,2,2025-04-18T11:53:44.011+03:00,2025-04-17T15:44:39.500+03:00,7529,1.126433,0,0,6207.333,4,10,2025-04-18T11:44:42.378+03:00,766659231.8361058,0,107.7,100.5632,1,0.5,2025-04-18T11:46:49.169+03:00,74,1.233333333333333,2025-04-18T08:51:18.885+03:00,0.03057091307199995,1
2025-04-18T11:53:52.445+03:00,1744966428.250393,40.95359290647468,29.1410029911603,94.2901,-1,-1,-1,-1,30,24.60438744106876,-9999,65075.38609850001,-0.716400146484375,0.6864013671875,-0.3905029296875,65075.3760235,1.173406964845537,-1.428846666322995,-0.685148725089609,-1.807665348052979,-3.057267189025879,-0.3339776992797852,-0.03090274333953857,0.1397032737731934,-0.4047510027885437,XArbitraryZVertical,0.1303101140288247,-0.6544051235763404,0.5772196841517623,0.4707342109603353,-0.7665368914604187,0.6327881813049316,-0.1095464155077934,0,0,0,-1,-1,65066.95715912501,unknown,2,2025-04-18T11:53:44.011+03:00,2025-04-17T15:44:39.500+03:00,7529,1.126433,0,0,6207.333,4,10,2025-04-18T11:44:42.378+03:00,766659231.8361058,0,107.7,100.5632,1,0.5,2025-04-18T11:46:49.169+03:00,74,1.233333333333333,2025-04-18T08:51:18.885+03:00,0.03057091307199995,1
2025-04-18T11:53:52.455+03:00,1744966428.250393,40.95359290647468,29.1410029911603,94.2901,-1,-1,-1,-1,30,24.60438744106876,-9999,65075.3961735,-0.7450714111328125,1.104034423828125,-0.251922607421875,65075.38609850001,1.156593548348051,-1.47054764139763,-0.6832717883469727,-0.6953884959220886,-3.040284156799316,-0.4294317960739136,-0.004551112651824951,-0.009492337703704834,-0.364005982875824,XArbitraryZVertical,0.1373930636565538,-0.6650685882395065,0.5701463901008075,0.462320290316028,-0.7716177105903625,0.6313337087631226,-0.07761383801698685,0,0,0,-1,-1,65066.95715912501,unknown,2,2025-04-18T11:53:44.011+03:00,2025-04-17T15:44:39.500+03:00,7529,1.126433,0,0,6207.333,4,10,2025-04-18T11:44:42.378+03:00,766659231.8361058,0,107.7,100.5632,1,0.5,2025-04-18T11:46:49.169+03:00,74,1.233333333333333,2025-04-18T08:51:18.885+03:00,0.03057091307199995,1
2025-04-18T11:53:52.465+03:00,1744966428.250393,40.95359290647468,29.1410029911603,94.2901,-1,-1,-1,-1,30,24.60438744106876,-9999,65075.4062485,-1.057693481445312,1.467788696289062,0.0735015869140625,65075.3961735,1.154763604234987,-1.499461016621094,-0.6763832214285523,0.5268743634223938,-2.392848253250122,-0.9500595331192017,0.08732199668884277,0.1846923828125,-0.2948043942451477,XArbitraryZVertical,0.1474246302188619,-0.6711739199192375,0.5662908836101932,0.4550892716366043,-0.777858555316925,0.6259766221046448,-0.05558309704065323,0,0,0,-1,-1,65066.95715912501,unknown,2,2025-04-18T11:53:44.011+03:00,2025-04-17T15:44:39.500+03:00,7529,1.126433,0,0,6207.333,4,10,2025-04-18T11:44:42.378+03:00,766659231.8361058,0,107.7,100.5632,1,0.5,2025-04-18T11:46:49.169+03:00,74,1.233333333333333,2025-04-18T08:51:18.885+03:00,0.03057091307199995,1
2025-04-18T11:53:52.475+03:00,1744966428.250393,40.95359290647468,29.1410029911603,94.2901,-1,-1,-1,-1,30,24.60438744106876,-9999,65075.4163235,-1.208251953125,1.364898681640625,0.44256591796875,65075.4062485,1.166960950538271,-1.511203887093127,-0.6652057026750645,1.414695024490356,-1.451202273368835,-1.096399426460266,-0.06134748458862305,0.6624115705490112,-0.106095016002655,XArbitraryZVertical,0.1587542826794326,-0.6718389593065123,0.5658739212772692,0.4507950896308939,-0.785393238067627,0.6172209978103638,-0.04685898125171661,0,0,0,-1,-1,65066.95715912501,unknown,2,2025-04-18T11:53:44.011+03:00,2025-04-17T15:44:39.500+03:00,7529,1.126433,0,0,6207.333,4,10,2025-04-18T11:44:42.378+03:00,766659231.8361058,0,107.7,100.5632,1,0.5,2025-04-18T11:46:49.169+03:00,74,1.233333333333333,2025-04-18T08:51:18.885+03:00,0.03057091307199995,1
2025-04-18T11:53:52.485+03:00,1744966428.250393,40.95359290647468,29.1410029911603,94.2901,-1,-1,-1,-1,30,24.60438744106876,-9999,65075.42639850001,-1.104217529296875,0.9699249267578125,0.7500762939453125,65075.4163235,1.185339523172334,-1.510684640698047,-0.6528834486838092,1.551638960838318,-0.7257291674613953,-1.20274817943573,-0.3613349795341492,0.8786656856536865,0.267446756362915,XArbitraryZVertical,0.1690569668309851,-0.6689990215900338,0.5675311614991051,0.4491865460557928,-0.7929009199142456,0.6074793338775635,-0.04772010073065758,0,0,0,-1,-1,65066.95715912501,unknown,2,2025-04-18T11:53:44.011+03:00,2025-04-17T15:44:39.500+03:00,7529,1.126433,0,0,6207.333,4,10,2025-04-18T11:44:42.378+03:00,766659231.8361058,0,107.7,100.5632,1,0.5,2025-04-18T11:46:49.169+03:00,74,1.233333333333333,2025-04-18T08:51:18.885+03:00,0.03057091307199995,1
2025-04-18T11:53:52.495+03:00,1744966428.250393,40.95359290647468,29.1410029911603,94.2901,-1,-1,-1,-1,30,24.60438744106876,-9999,65075.43647350001,-0.9560394287109375,0.6348876953125,0.9990234375,65075.42639850001,1.20339094922679,-1.50527481407316,-0.6386870773735239,1.451657295227051,-0.4129630327224731,-1.431839227676392,-0.384375274181366,0.6342811584472656,0.6161974668502808,XArbitraryZVertical,0.1784633193925824,-0.6647305696476655,0.5691710453364012,0.4498093772153028,-0.8011564016342163,0.5961418151855469,-0.0525682270526886,0,0,0,-1,-1,65066.95715912501,unknown,2,2025-04-18T11:53:44.011+03:00,2025-04-17T15:44:39.500+03:00,7529,1.126433,0,0,6207.333,4,10,2025-04-18T11:44:42.378+03:00,766659231.8361058,0,107.7,100.5632,1,0.5,2025-04-18T11:46:49.169+03:00,74,1.233333333333333,2025-04-18T08:51:18.885+03:00,0.03057091307199995,1
2025-04-18T11:53:52.505+03:00,1744966428.250393,40.95359290647468,29.1410029911603,94.2901,-1,-1,-1,-1,30,24.60438744106876,-9999,65075.4465485,-0.86590576171875,0.4579010009765625,1.1751708984375,65075.43647350001,1.218266017812611,-1.500696150495698,-0.622493131877773,1.132197022438049,-0.4410272836685181,-1.596331119537354,-0.2358478903770447,0.2409273982048035,0.9075212478637695,XArbitraryZVertical,0.187688645988256,-0.660545710360825,0.5696649028431199,0.451590867286107,-0.8104320764541626,0.583062469959259,-0.05690467357635498,0,0,0,-1,-1,65066.95715912501,unknown,2,2025-04-18T11:53:44.011+03:00,2025-04-17T15:44:39.500+03:00,7529,1.126433,0,0,6207.333,4,10,2025-04-18T11:44:42.378+03:00,766659231.8361058,0,107.7,100.5632,1,0.5,2025-04-18T11:46:49.169+03:00,74,1.233333333333333,2025-04-18T08:51:18.885+03:00,0.03057091307199995,1
2025-04-18T11:53:52.515+03:00,1744966428.250393,40.95359290647468,29.1410029911603,94.2901,-1,-1,-1,-1,30,24.60438744106876,-9999,65075.4566235,-0.8111114501953125,0.323822021484375,1.119964599609375,65075.4465485,1.227939218537716,-1.500031366401911,-0.605721058269835,0.6528789401054382,-0.5273041129112244,-1.597365736961365,-0.09315848350524902,-0.01320266723632812,1.137213110923767,XArbitraryZVertical,0.1964672562330289,-0.6575235678945394,0.5685204549827594,0.4537045996636193,-0.8200342655181885,0.5693550109863281,-0.05812675133347511,0,0,0,-1,-1,65066.95715912501,unknown,2,2025-04-18T11:53:44.011+03:00,2025-04-17T15:44:39.500+03:00,7529,1.126433,0,0,6207.333,4,10,2025-04-18T11:44:42.378+03:00,766659231.8361058,0,107.7,100.5632,1,0.5,2025-04-18T11:46:49.169+03:00,74,1.233333333333333,2025-04-18T08:51:18.885+03:00,0.03057091307199995,1
2025-04-18T11:53:52.525+03:00,1744966428.250393,40.95359290647468,29.1410029911603,94.2901,-1,-1,-1,-1,30,24.60438744106876,-9999,65075.4666985,-0.794403076171875,0.2197418212890625,0.8910980224609375,65075.4566235,1.232352265359496,-1.502640738937321,-0.5896564179743278,0.3358846306800842,-0.448914110660553,-1.536656379699707,-0.01595163345336914,-0.1506341695785522,1.243370056152344,XArbitraryZVertical,0.2041714515330671,-0.6557536130503281,0.5659840075254068,0.4560300192090755,-0.8292022347450256,0.5560755133628845,-0.05660243332386017,0,0,0,-1,-1,65066.95715912501,unknown,2,2025-04-18T11:53:44.011+03:00,2025-04-17T15:44:39.500+03:00,7529,1.126433,0,0,6207.333,4,10,2025-04-18T11:44:42.378+03:00,766659231.8361058,0,107.7,100.5632,1,0.5,2025-04-18T11:46:49.169+03:00,74,1.233333333333333,2025-04-18T08:51:18.885+03:00,0.03057091307199995,1
2025-04-18T11:53:52.535+03:00,1744966428.250393,40.95359290647468,29.1410029911603,94.2901,-1,-1,-1,-1,30,24.60438744106876,-9999,65075.47677350001,-0.8551177978515625,0.1797027587890625,0.6492462158203125,65075.4666985,1.234926485162213,-1.50406251656402,-0.5743682380358169,0.3296344578266144,-0.083561971783638,-1.446442127227783,0.04303508996963501,-0.2636108994483948,1.099440932273865,XArbitraryZVertical,0.2106457536696286,-0.6539391733154337,0.5632733297759517,0.4590372116849482,-0.8376671075820923,0.5433045029640198,-0.05598384886980057,0,0,0,-1,-1,65066.95715912501,unknown,2,2025-04-18T11:53:44.011+03:00,2025-04-17T15:44:39.500+03:00,7529,1.126433,0,0,6207.333,4,10,2025-04-18T11:44:42.378+03:00,766659231.8361058,0,107.7,100.5632,1,0.5,2025-04-18T11:46:49.169+03:00,74,1.233333333333333,2025-04-18T08:51:18.885+03:00,0.03057091307199995,1
2025-04-18T11:53:52.545+03:00,1744966428.250393,40.95359290647468,29.1410029911603,94.2901,-1,-1,-1,-1,30,24.60438744106876,-9999,65075.4868485,-0.8664703369140625,0.17919921875,0.4551849365234375,65075.47677350001,1.238595236878812,-1.50039121222518,-0.560555218438835,0.4727327227592468,0.4142731130123138,-1.232686877250671,0.03204137086868286,-0.3362525105476379,0.8566087484359741,XArbitraryZVertical,0.2155239324561409,-0.6509676636607115,0.5616424042319456,0.4629777246406184,-0.8448618054389954,0.5316565036773682,-0.05958107113838196,0,0,0,-1,-1,65066.95715912501,unknown,2,2025-04-18T11:53:44.011+03:00,2025-04-17T15:44:39.500+03:00,7529,1.126433,0,0,6207.333,4,10,2025-04-18T11:44:42.378+03:00,766659231.8361058,0,107.7,100.5632,1,0.5,2025-04-18T11:46:49.169+03:00,74,1.233333333333333,2025-04-18T08:51:18.885+03:00,0.03057091307199995,1
2025-04-18T11:53:52.555+03:00,1744966428.250393,40.95359290647468,29.1410029911603,94.2901,-1,-1,-1,-1,30,24.60438744106876,-9999,65075.4969235,-0.7867584228515625,0.1323089599609375,0.3799285888671875,65075.4868485,1.243765090236788,-1.491522700400389,-0.5494163437153899,0.5491313934326172,0.7875929474830627,-0.9057942032814026,-0.0214461088180542,-0.3413424491882324,0.6354224681854248,XArbitraryZVertical,0.218509154810525,-0.6469047096460431,0.5614937763958171,0.4674320815437176,-0.8501510620117188,0.5221895575523376,-0.06753609329462051,0,0,0,-1,-1,65066.95715912501,unknown,2,2025-04-18T11:53:44.011+03:00,2025-04-17T15:44:39.500+03:00,7529,1.126433,0,0,6207.333,4,10,2025-04-18T11:44:42.378+03:00,766659231.8361058,0,107.7,100.5632,1,0.5,2025-04-18T11:46:49.169+03:00,74,1.233333333333333,2025-04-18T08:51:18.885+03:00,0.03057091307199995,1
2025-04-18T11:53:52.565+03:00,1744966428.250393,40.95359290647468,29.1410029911603,94.2901,-1,-1,-1,-1,30,24.60438744106876,-9999,65075.5069985,-0.70465087890625,0.052337646484375,0.3747711181640625,65075.4969235,1.249321458941451,-1.479361645020513,-0.5412467204755255,0.5072537064552307,1.043862819671631,-0.6465087532997131,0.01017940044403076,-0.346137523651123,0.4882144331932068,XArbitraryZVertical,0.219670157834932,-0.6423525233102394,0.5624436798664255,0.4720015709476205,-0.853486955165863,0.515204906463623,-0.0782565176486969,0,0,0,-1,-1,65066.95715912501,unknown,2,2025-04-18T11:53:44.011+03:00,2025-04-17T15:44:39.500+03:00,7529,1.126433,0,0,6207.333,4,10,2025-04-18T11:44:42.378+03:00,766659231.8361058,0,107.7,100.5632,1,0.5,2025-04-18T11:46:49.169+03:00,74,1.233333333333333,2025-04-18T08:51:18.885+03:00,0.03057091307199995,1
2025-04-18T11:53:52.576+03:00,1744966428.250393,40.95359290647468,29.1410029911603,94.2901,-1,-1,-1,-1,30,24.60438744106876,-9999,65075.51707350001,-0.643402099609375,0.01861572265625,0.28619384765625,65075.5069985,1.253012572934746,-1.466399982426305,-0.5353043564038373,0.2031907439231873,1.1146080493927,-0.4758294224739075,0.1032181978225708,-0.4064803719520569,0.4700161218643188,XArbitraryZVertical,0.2192339575032063,-0.638060830166246,0.5635246694558187,0.4767126295757219,-0.8554307818412781,0.5101028680801392,-0.08962969481945038,0,0,0,-1,-1,65066.95715912501,unknown,2,2025-04-18T11:53:44.011+03:00,2025-04-17T15:44:39.500+03:00,7529,1.126433,0,0,6207.333,4,10,2025-04-18T11:44:42.378+03:00,766659231.8361058,0,107.7,100.5632,1,0.5,2025-04-18T11:46:49.169+03:00,74,1.233333333333333,2025-04-18T08:51:18.885+03:00,0.03057091307199995,1
2025-04-18T11:53:52.586+03:00,1744966428.250393,40.95359290647468,29.1410029911603,94.2901,-1,-1,-1,-1,30,24.60438744106876,-9999,65075.5271485,-0.579315185546875,0.0455780029296875,0.2325286865234375,65075.51707350001,1.252629282890103,-1.45610850930641,-0.5312409438954977,-0.1823758482933044,0.965262234210968,-0.3397395014762878,0.1746608018875122,-0.4753536581993103,0.4494034051895142,XArbitraryZVertical,0.2176036576452016,-0.6350718383499832,0.5637309378917802,0.481185935793277,-0.856515109539032,0.5066036581993103,-0.09866482019424438,0,0,0,-1,-1,65066.95715912501,unknown,2,2025-04-18T11:53:44.011+03:00,2025-04-17T15:44:39.500+03:00,7529,1.126433,0,0,6207.333,4,10,2025-04-18T11:44:42.378+03:00,766659231.8361058,0,107.7,100.5632,1,0.5,2025-04-18T11:46:49.169+03:00,74,1.233333333333333,2025-04-18T08:51:18.885+03:00,0.03057091307199995,1
2025-04-18T11:53:52.596+03:00,1744966428.250393,40.95359290647468,29.1410029911603,94.2901,-1,-1,-1,-1,30,24.60438744106876,-9999,65075.5372235,-0.552398681640625,0.1643829345703125,0.2600555419921875,65075.5271485,1.248252868526263,-1.449549840190006,-0.5286850769729619,-0.4804333746433258,0.7604110836982727,-0.2679473161697388,0.2386018037796021,-0.4818763136863708,0.3569542765617371,XArbitraryZVertical,0.2152459782989168,-0.6336015311685467,0.5628655825548737,0.4851812143964261,-0.8571322560310364,0.5043984055519104,-0.1044365391135216,0,0,0,-1,-1,65066.95715912501,unknown,2,2025-04-18T11:53:44.011+03:00,2025-04-17T15:44:39.500+03:00,7529,1.126433,0,0,6207.333,4,10,2025-04-18T11:44:42.378+03:00,766659231.8361058,0,107.7,100.5632,1,0.5,2025-04-18T11:46:49.169+03:00,74,1.233333333333333,2025-04-18T08:51:18.885+03:00,0.03057091307199995,1
2025-04-18T11:53:52.606+03:00,1744966428.250393,40.95359290647468,29.1410029911603,94.2901,-1,-1,-1,-1,30,24.60438744106876,-9999,65075.5472985,-0.5683746337890625,0.3427581787109375,0.236724853515625,65075.5372235,1.241031475194313,-1.447006658881082,-0.5266428550030193,-0.6946406960487366,0.4590963125228882,-0.2904426157474518,0.2947737574577332,-0.4271486401557922,0.3491136431694031,XArbitraryZVertical,0.2129467577200115,-0.6334683686240778,0.5609655215125648,0.4885585024644837,-0.8578842878341675,0.5026339292526245,-0.1067430078983307,0,0,0,-1,-1,65066.95715912501,unknown,2,2025-04-18T11:53:44.011+03:00,2025-04-17T15:44:39.500+03:00,7529,1.126433,0,0,6207.333,4,10,2025-04-18T11:44:42.378+03:00,766659231.8361058,0,107.7,100.5632,1,0.5,2025-04-18T11:46:49.169+03:00,74,1.233333333333333,2025-04-18T08:51:18.885+03:00,0.03057091307199995,1
2025-04-18T11:53:52.616+03:00,1744966428.250393,40.95359290647468,29.1410029911603,94.2901,-1,-1,-1,-1,30,24.60438744106876,-9999,65075.55737350001,-0.569488525390625,0.398223876953125,0.25079345703125,65075.5472985,1.231492048825576,-1.448336927034823,-0.5248795518873369,-0.897538959980011,0.2409293651580811,-0.2455094903707504,0.3022783398628235,-0.2658182382583618,0.361279308795929,XArbitraryZVertical,0.210902690556689,-0.6345590287071303,0.5581277840052034,0.4912722404724537,-0.8589037656784058,0.5011087656021118,-0.1057097911834717,0,0,0,-1,-1,65066.95715912501,unknown,2,2025-04-18T11:53:44.011+03:00,2025-04-17T15:44:39.500+03:00,7529,1.126433,0,0,6207.333,4,10,2025-04-18T11:44:42.378+03:00,766659231.8361058,0,107.7,100.5632,1,0.5,2025-04-18T11:46:49.169+03:00,74,1.233333333333333,2025-04-18T08:51:18.885+03:00,0.03057091307199995,1
2025-04-18T11:53:52.626+03:00,1744966428.250393,40.95359290647468,29.1410029911603,94.2901,-1,-1,-1,-1,30,24.60438744106876,-9999,65075.56744850001,-0.5328826904296875,0.3998870849609375,0.4310760498046875,65075.55737350001,1.220531783999994,-1.45194401337159,-0.5245360818172567,-0.8839995265007019,0.166741818189621,-0.02685723640024662,0.2864063382148743,-0.1197079420089722,0.3360298871994019,XArbitraryZVertical,0.208542054671135,-0.6365489176463552,0.554981039234225,0.4932665710037766,-0.8594503998756409,0.5008115172386169,-0.1026313751935959,0,0,0,-1,-1,65066.95715912501,unknown,2,2025-04-18T11:53:44.011+03:00,2025-04-17T15:44:39.500+03:00,7529,1.126433,0,0,6207.333,4,10,2025-04-18T11:44:42.378+03:00,766659231.8361058,0,107.7,100.5632,1,0.5,2025-04-18T11:46:49.169+03:00,74,1.233333333333333,2025-04-18T08:51:18.885+03:00,0.03057091307199995,1
2025-04-18T11:53:52.636+03:00,1744966428.250393,40.95359290647468,29.1410029911603,94.2901,-1,-1,-1,-1,30,24.60438744106876,-9999,65075.5775235,-0.5181121826171875,0.465057373046875,0.858673095703125,65075.56744850001,1.213194591548787,-1.452196926217018,-0.5262278929194166,-0.3606825470924377,0.5892677903175354,0.2158214449882507,0.3000246286392212,-0.1067978143692017,0.390964150428772,XArbitraryZVertical,0.2056903798972385,-0.637600712253359,0.5534936055691521,0.4947744339714725,-0.8586336970329285,0.5022751688957214,-0.1023136004805565,0,0,0,-1,-1,65066.95715912501,unknown,2,2025-04-18T11:53:44.011+03:00,2025-04-17T15:44:39.500+03:00,7529,1.126433,0,0,6207.333,4,10,2025-04-18T11:44:42.378+03:00,766659231.8361058,0,107.7,100.5632,1,0.5,2025-04-18T11:46:49.169+03:00,74,1.233333333333333,2025-04-18T08:51:18.885+03:00,0.03057091307199995,1
2025-04-18T11:53:52.646+03:00,1744966428.250393,40.95359290647468,29.1410029911603,94.2901,-1,-1,-1,-1,30,24.60438744106876,-9999,65075.5875985,-0.521087646484375,0.56878662109375,1.479827880859375,65075.5775235,1.213236549803438,-1.441797746983734,-0.5300514457762517,0.2496294230222702,1.541113615036011,0.563932478427887,0.3350435495376587,-0.09204936027526855,0.6778531670570374,XArbitraryZVertical,0.2014962508188526,-0.6355349752291255,0.5553531771278128,0.4970688194179622,-0.8556123971939087,0.5055777430534363,-0.1109891086816788,0,0,0,-1,-1,65066.95715912501,unknown,2,2025-04-18T11:53:44.011+03:00,2025-04-17T15:44:39.500+03:00,7529,1.126433,0,0,6207.333,4,10,2025-04-18T11:44:42.378+03:00,766659231.8361058,0,107.7,100.5632,1,0.5,2025-04-18T11:46:49.169+03:00,74,1.233333333333333,2025-04-18T08:51:18.885+03:00,0.03057091307199995,1
2025-04-18T11:53:52.656+03:00,1744966428.250393,40.95359290647468,29.1410029911603,94.2901,-1,-1,-1,-1,30,24.60438744106876,-9999,65075.5976735,-0.445343017578125,0.404754638671875,2.235275268554688,65075.5875985,1.220260014925799,-1.41549854030992,-0.5373273940270902,0.6700165867805481,3.024057865142822,1.038387417793274,0.3249374032020569,-0.002350926399230957,1.20029091835022,XArbitraryZVertical,0.1938412298272086,-0.6292748243872931,0.5611781685923392,0.5015154575421596,-0.8487410545349121,0.5118418335914612,-0.1328775435686111,0,0,0,-1,-1,65066.95715912501,unknown,2,2025-04-18T11:53:44.011+03:00,2025-04-17T15:44:39.500+03:00,7529,1.126433,0,0,6207.333,4,10,2025-04-18T11:44:42.378+03:00,766659231.8361058,0,107.7,100.5632,1,0.5,2025-04-18T11:46:49.169+03:00,74,1.233333333333333,2025-04-18T08:51:18.885+03:00,0.03057091307199995,1
2025-04-18T11:53:52.666+03:00,1744966428.250393,40.95359290647468,29.1410029911603,94.2901,-1,-1,-1,-1,30,24.60438744106876,-9999,65075.60774850001,-0.363922119140625,-0.0722503662109375,2.480499267578125,65075.5976735,1.230620662342954,-1.370698871228124,-0.5496715307986585,0.6836538314819336,4.830721378326416,1.749752163887024,0.3330885171890259,0.03612548112869263,1.933646202087402,XArbitraryZVertical,0.1800576528504607,-0.6187376139968825,0.5703744901258544,0.5093288916542971,-0.8356824517250061,0.5224071741104126,-0.16948601603508,0,0,0,-1,-1,65066.95715912501,unknown,2,2025-04-18T11:53:44.011+03:00,2025-04-17T15:44:39.500+03:00,7529,1.126433,0,0,6207.333,4,10,2025-04-18T11:44:42.378+03:00,766659231.8361058,0,107.7,100.5632,1,0.5,2025-04-18T11:46:49.169+03:00,74,1.233333333333333,2025-04-18T08:51:18.885+03:00,0.03057091307199995,1
2025-04-18T11:53:52.676+03:00,1744966428.250393,40.95359290647468,29.1410029911603,94.2901,-1,-1,-1,-1,30,24.60438744106876,-9999,65075.6178235,-0.832122802734375,0.16009521484375,-0.5525970458984375,65075.60774850001,1.277461503200996,-1.300004919332525,-0.5568181936159521,10.3466968536377,3.403389692306519,1.208614826202393,0.4104275703430176,-0.2921138405799866,2.676275014877319,XArbitraryZVertical,0.1712546210410178,-0.5976023059942061,0.5898625542239297,0.5153692561982424,-0.8180050849914551,0.5284876823425293,-0.227086678147316,0,0,0,-1,-1,65066.95715912501,unknown,2,2025-04-18T11:53:44.011+03:00,2025-04-17T15:44:39.500+03:00,7529,1.126433,0,0,6207.333,4,10,2025-04-18T11:44:42.378+03:00,766659231.8361058,0,107.7,100.5632,1,0.5,2025-04-18T11:46:49.169+03:00,74,1.233333333333333,2025-04-18T08:51:18.885+03:00,0.03057091307199995,1
2025-04-18T11:53:52.686+03:00,1744966428.250393,40.95359290647468,29.1410029911603,94.2901,-1,-1,-1,-1,30,24.60438744106876,-9999,65075.6278985,-1.166061401367188,2.997711181640625,-6.551498413085938,65075.6178235,1.359623314071385,-1.1759806169537,-0.5635656932424304,3.626967906951904,7.011103630065918,2.346111059188843,0.3730785250663757,-0.717492401599884,2.393012046813965,XArbitraryZVertical,0.155017840394238,-0.5598137712318342,0.6223931431744525,0.5245997440476796,-0.780320405960083,0.5342038869857788,-0.325156033039093,0,0,0,-1,-1,65066.95715912501,unknown,2,2025-04-18T11:53:44.011+03:00,2025-04-17T15:44:39.500+03:00,7529,1.126433,0,0,6207.333,4,10,2025-04-18T11:44:42.378+03:00,766659231.8361058,0,107.7,100.5632,1,0.5,2025-04-18T11:46:49.169+03:00,74,1.233333333333333,2025-04-18T08:51:18.885+03:00,0.03057091307199995,1
2025-04-18T11:53:52.712+03:00,1744966428.250393,40.95359290647468,29.1410029911603,94.2901,-1,-1,-1,-1,30,24.60438744106876,-9999,65075.6379735,0.5336456298828125,5.590850830078125,-4.347381591796875,65075.6278985,1.444802331026084,-1.089072317253795,-0.5261074826460723,9.540027618408203,1.620712161064148,-1.406530857086182,-0.4061298370361328,0.4453539848327637,-2.948253631591797,XArbitraryZVertical,0.1638620758716556,-0.5223239447257068,0.6471595056938608,0.5305766526006231,-0.766355574131012,0.5021710395812988,-0.4006538391113281,0,0,0,-1,-1,65066.95715912501,unknown,2,2025-04-18T11:53:44.011+03:00,2025-04-17T15:44:39.500+03:00,7529,1.126433,0,0,6207.333,4,10,2025-04-18T11:44:42.378+03:00,766659231.8361058,0,107.7,100.5632,1,0.5,2025-04-18T11:46:49.169+03:00,74,1.233333333333333,2025-04-18T08:51:18.885+03:00,0.03057091307199995,1
2025-04-18T11:53:52.715+03:00,1744966428.250393,40.95359290647468,29.1410029911603,94.2901,-1,-1,-1,-1,30,24.60438744106876,-9999,65075.64804850001,2.357589721679688,2.421798706054688,-0.8492279052734375,65075.6379735,1.529541624129681,-1.056288778449122,-0.4926270648569502,6.347460746765137,-3.725012540817261,1.919554114341736,0.04934096336364746,3.730610132217407,-5.931215286254883,XArbitraryZVertical,0.1864154871294159,-0.4984510906775695,0.668640260158218,0.519341846886001,-0.7670228481292725,0.4729422032833099,-0.4335915446281433,0,0,0,-1,-1,65066.95715912501,unknown,2,2025-04-18T11:53:44.011+03:00,2025-04-17T15:44:39.500+03:00,7529,1.126433,0,0,6207.333,4,10,2025-04-18T11:44:42.378+03:00,766659231.8361058,0,107.7,100.5632,1,0.5,2025-04-18T11:46:49.169+03:00,74,1.233333333333333,2025-04-18T08:51:18.885+03:00,0.03057091307199995,1
2025-04-18T11:53:52.718+03:00,1744966428.250393,40.95359290647468,29.1410029911603,94.2901,-1,-1,-1,-1,30,24.60438744106876,-9999,65075.6581235,-0.1114959716796875,-6.7440185546875,1.441421508789062,65075.64804850001,1.564712379870494,-1.087462495338859,-0.4811238712737788,0.4794562757015228,-4.184427738189697,-0.5480507612228394,2.21979022026062,5.094719409942627,-2.651608467102051,XArbitraryZVertical,0.2095839329706763,-0.5000870654961862,0.6733334662908337,0.5026028467868974,-0.7849301099777222,0.4627757370471954,-0.4119749963283539,0,0,0,-1,-1,65066.95715912501,unknown,2,2025-04-18T11:53:44.011+03:00,2025-04-17T15:44:39.500+03:00,7529,1.126433,0,0,6207.333,4,10,2025-04-18T11:44:42.378+03:00,766659231.8361058,0,107.7,100.5632,1,0.5,2025-04-18T11:46:49.169+03:00,74,1.233333333333333,2025-04-18T08:51:18.885+03:00,0.03057091307199995,1
2025-04-18T11:53:52.727+03:00,1744966428.250393,40.95359290647468,29.1410029911603,94.2901,-1,-1,-1,-1,30,24.60438744106876,-9999,65075.6681985,-3.6395263671875,-3.928436279296875,-0.0711517333984375,65075.6581235,1.566332697565535,-1.095349352983934,-0.4903319631091037,-1.130777835845947,2.383869409561157,2.18888258934021,2.807999134063721,-1.68065083026886,0.823161244392395,XArbitraryZVertical,0.2095336600306802,-0.5041762607835175,0.6738893063725012,0.4977701843078849,-0.784332811832428,0.4709187746047974,-0.4038038849830627,0,0,0,-1,-1,65066.95715912501,unknown,2,2025-04-18T11:53:44.011+03:00,2025-04-17T15:44:39.500+03:00,7529,1.126433,0,0,6207.333,4,10,2025-04-18T11:44:42.378+03:00,766659231.8361058,0,107.7,100.5632,1,0.5,2025-04-18T11:46:49.169+03:00,74,1.233333333333333,2025-04-18T08:51:18.885+03:00,0.03057091307199995,1
2025-04-18T11:53:52.737+03:00,1744966428.250393,40.95359290647468,29.1410029911603,94.2901,-1,-1,-1,-1,30,24.60438744106876,-9999,65075.6782735,-2.816696166992188,3.310272216796875,-0.8901519775390625,65075.6681985,1.554808217350481,-1.064449976252827,-0.5076401126304031,-1.588835954666138,3.697592973709106,0.04392392560839653,-0.9912837743759155,-8.058595657348633,1.561093926429749,XArbitraryZVertical,0.1903229449338962,-0.5018608054719487,0.6758635337377004,0.5050954949749773,-0.7642399668693542,0.4861163198947906,-0.4238258302211761,0,0,0,-1,-1,65066.95715912501,unknown,2,2025-04-18T11:53:44.011+03:00,2025-04-17T15:44:39.500+03:00,7529,1.126433,0,0,6207.333,4,10,2025-04-18T11:44:42.378+03:00,766659231.8361058,0,107.7,100.5632,1,0.5,2025-04-18T11:46:49.169+03:00,74,1.233333333333333,2025-04-18T08:51:18.885+03:00,0.03057091307199995,1
2025-04-18T11:53:52.747+03:00,1744966428.250393,40.95359290647468,29.1410029911603,94.2901,-1,-1,-1,-1,30,24.60438744106876,-9999,65075.68834850001,0.24658203125,2.677505493164062,-0.8814697265625,65075.6782735,1.551791153961334,-1.050347012779548,-0.512847337533199,0.6187440752983093,-0.7619507908821106,0.3375362157821655,-3.115189552307129,-0.9862504601478577,-0.1624063849449158,XArbitraryZVertical,0.1830138599613518,-0.4998575432207596,0.6769241736760073,0.5083523347014617,-0.7559804916381836,0.4906602501869202,-0.4332967400550842,0,0,0,-1,-1,65066.95715912501,unknown,2,2025-04-18T11:53:44.011+03:00,2025-04-17T15:44:39.500+03:00,7529,1.126433,0,0,6207.333,4,10,2025-04-18T11:44:42.378+03:00,766659231.8361058,0,107.7,100.5632,1,0.5,2025-04-18T11:46:49.169+03:00,74,1.233333333333333,2025-04-18T08:51:18.885+03:00,0.03057091307199995,1
2025-04-18T11:53:52.757+03:00,1744966428.250393,40.95359290647468,29.1410029911603,94.2901,-1,-1,-1,-1,30,24.60438744106876,-9999,65075.69842350001,-0.260955810546875,0.559112548828125,-0.6002655029296875,65075.68834850001,1.565040309705082,-1.058311732017674,-0.5056220120158951,1.722232341766357,-1.364538908004761,-0.2841827273368835,-0.8393597602844238,3.311638355255127,-0.4961970448493958,XArbitraryZVertical,0.1914928566667661,-0.4988345955306077,0.6788317954371477,0.5036685332352293,-0.7624774575233459,0.4843517243862152,-0.428989052772522,0,0,0,-1,-1,65066.95715912501,unknown,2,2025-04-18T11:53:44.011+03:00,2025-04-17T15:44:39.500+03:00,7529,1.126433,0,0,6207.333,4,10,2025-04-18T11:44:42.378+03:00,766659231.8361058,0,107.7,100.5632,1,0.5,2025-04-18T11:46:49.169+03:00,74,1.233333333333333,2025-04-18T08:51:18.885+03:00,0.03057091307199995,1
2025-04-18T11:53:52.767+03:00,1744966428.250393,40.95359290647468,29.1410029911603,94.2901,-1,-1,-1,-1,30,24.60438744106876,-9999,65075.7084985,-2.003509521484375,0.310211181640625,-0.5156707763671875,65075.69842350001,1.577362642752224,-1.054446135357088,-0.4959201932490732,1.051271438598633,0.8483327031135559,-0.3345869183540344,1.367082595825195,1.202701926231384,-0.3420579433441162,XArbitraryZVertical,0.1965356881952097,-0.4942239082501566,0.6813672597694443,0.502847067278108,-0.7648640275001526,0.4758411943912506,-0.4342328906059265,0,0,0,-1,-1,65066.95715912501,unknown,2,2025-04-18T11:53:44.011+03:00,2025-04-17T15:44:39.500+03:00,7529,1.126433,0,0,6207.333,4,10,2025-04-18T11:44:42.378+03:00,766659231.8361058,0,107.7,100.5632,1,0.5,2025-04-18T11:46:49.169+03:00,74,1.233333333333333,2025-04-18T08:51:18.885+03:00,0.03057091307199995,1
2025-04-18T11:53:52.777+03:00,1744966428.250393,40.95359290647468,29.1410029911603,94.2901,-1,-1,-1,-1,30,24.60438744106876,-9999,65075.7185735,-1.077178955078125,-0.0113983154296875,-0.363006591796875,65075.7084985,1.58291595961059,-1.042888327639384,-0.48948361417321,0.473529577255249,0.5915755033493042,-0.29777592420578,-0.3729974031448364,-0.1265880167484283,-0.1070734858512878,XArbitraryZVertical,0.1961384615229624,-0.4891226421274308,0.6832845825851278,0.5053820599924657,-0.7624244093894958,0.4701701998710632,-0.4445774853229523,0,0,0,-1,-1,65066.95715912501,unknown,2,2025-04-18T11:53:44.011+03:00,2025-04-17T15:44:39.500+03:00,7529,1.126433,0,0,6207.333,4,10,2025-04-18T11:44:42.378+03:00,766659231.8361058,0,107.7,100.5632,1,0.5,2025-04-18T11:46:49.169+03:00,74,1.233333333333333,2025-04-18T08:51:18.885+03:00,0.03057091307199995,1
2025-04-18T11:53:52.787+03:00,1744966428.250393,40.95359290647468,29.1410029911603,94.2901,-1,-1,-1,-1,30,24.60438744106876,-9999,65075.7286485,-0.2896575927734375,0.1138763427734375,-0.2808837890625,65075.7185735,1.584590205745713,-1.041293897107,-0.4848975164031961,0.2977339625358582,-0.2475720047950745,-0.3135854303836823,-1.148053646087646,-0.2329176068305969,-0.02805280685424805,XArbitraryZVertical,0.1975542315553687,-0.4873744328179171,0.6834281319438031,0.5063245227677969,-0.7635675072669983,0.4661176800727844,-0.4468769729137421,0,0,0,-1,-1,65066.95715912501,unknown,2,2025-04-18T11:53:44.011+03:00,2025-04-17T15:44:39.500+03:00,7529,1.126433,0,0,6207.333,4,10,2025-04-18T11:44:42.378+03:00,766659231.8361058,0,107.7,100.5632,1,0.5,2025-04-18T11:46:49.169+03:00,74,1.233333333333333,2025-04-18T08:51:18.885+03:00,0.03057091307199995,1
2025-04-18T11:53:52.798+03:00,1744966428.250393,40.95359290647468,29.1410029911603,94.2901,-1,-1,-1,-1,30,24.60438744106876,-9999,65075.73872350001,-0.8636016845703125,0.4250640869140625,-0.436859130859375,65075.7286485,1.585850135937582,-1.041177326362527,-0.4811306375237559,0.2518855035305023,0.2150672823190689,-0.2233417928218842,0.1938429474830627,-0.5348795056343079,0.1475569605827332,XArbitraryZVertical,0.1990943229346117,-0.4862473797639071,0.6833985598234134,0.506844608141243,-0.76502525806427,0.4627817571163177,-0.4478498697280884,0,0,0,-1,-1,65066.95715912501,unknown,2,2025-04-18T11:53:44.011+03:00,2025-04-17T15:44:39.500+03:00,7529,1.126433,0,0,6207.333,4,10,2025-04-18T11:44:42.378+03:00,766659231.8361058,0,107.7,100.5632,1,0.5,2025-04-18T11:46:49.169+03:00,74,1.233333333333333,2025-04-18T08:51:18.885+03:00,0.03057091307199995,1
2025-04-18T11:53:52.807+03:00,1744966428.250393,40.95359290647468,29.1410029911603,94.2901,-1,-1,-1,-1,30,24.60438744106876,-9999,65075.7487985,-0.858551025390625,0.232940673828125,-0.4339599609375,65075.73872350001,1.586215528884275,-1.037950619087914,-0.4785761613553086,0.04300273954868317,0.3027969896793365,-0.1925414800643921,0.3090713024139404,-0.1667077541351318,0.1207454800605774,XArbitraryZVertical,0.1989433328535261,-0.4847308610987349,0.6835676402019615,0.5081268333435018,-0.7645919919013977,0.4605157673358917,-0.4509150981903076,0,0,0,-1,-1,65066.95715912501,unknown,2,2025-04-18T11:53:44.011+03:00,2025-04-17T15:44:39.500+03:00,7529,1.126433,0,0,6207.333,4,10,2025-04-18T11:44:42.378+03:00,766659231.8361058,0,107.7,100.5632,1,0.5,2025-04-18T11:46:49.169+03:00,74,1.233333333333333,2025-04-18T08:51:18.885+03:00,0.03057091307199995,1
2025-04-18T11:53:52.818+03:00,1744966428.250393,40.95359290647468,29.1410029911603,94.2901,-1,-1,-1,-1,30,24.60438744106876,-9999,65075.7588735,-0.5893402099609375,0.3166351318359375,-0.4033355712890625,65075.7487985,1.584614137389593,-1.036464521512807,-0.4773618509367488,-0.1292134970426559,0.1600800454616547,-0.1451436132192612,-0.2111079692840576,-0.08864894509315491,-0.01285934448242188,XArbitraryZVertical,0.1984579897173697,-0.4841970397329929,0.6831916209840637,0.5093298957373644,-0.7644017338752747,0.4594375491142273,-0.4523352980613708,0,0,0,-1,-1,65066.95715912501,unknown,2,2025-04-18T11:53:44.011+03:00,2025-04-17T15:44:39.500+03:00,7529,1.126433,0,0,6207.333,4,10,2025-04-18T11:44:42.378+03:00,766659231.8361058,0,107.7,100.5632,1,0.5,2025-04-18T11:46:49.169+03:00,74,1.233333333333333,2025-04-18T08:51:18.885+03:00,0.03057091307199995,1
2025-04-18T11:53:52.827+03:00,1744966428.250393,40.95359290647468,29.1410029911603,94.2901,-1,-1,-1,-1,30,24.60438744106876,-9999,65075.7689485,-0.6968841552734375,0.4300079345703125,-0.472625732421875,65075.7588735,1.582807239534777,-1.035290714364502,-0.4771029659131086,-0.1152940839529037,0.2493554800748825,-0.06578332930803299,0.04719084501266479,-0.239831954240799,0.04809582233428955,XArbitraryZVertical,0.1977073124420027,-0.4840096587280844,0.6828224600835533,0.510294086905781,-0.7639725208282471,0.4592075943946838,-0.4532929360866547,0,0,0,-1,-1,65066.95715912501,unknown,2,2025-04-18T11:53:44.011+03:00,2025-04-17T15:44:39.500+03:00,7529,1.126433,0,0,6207.333,4,10,2025-04-18T11:44:42.378+03:00,766659231.8361058,0,107.7,100.5632,1,0.5,2025-04-18T11:46:49.169+03:00,74,1.233333333333333,2025-04-18T08:51:18.885+03:00,0.03057091307199995,1
2025-04-18T11:53:52.838+03:00,1744966428.250393,40.95359290647468,29.1410029911603,94.2901,-1,-1,-1,-1,30,24.60438744106876,-9999,65075.77902350001,-0.7484130859375,0.3988494873046875,-0.4499053955078125,65075.7689485,1.581214182963597,-1.033424005507654,-0.4773103307860123,-0.161434680223465,0.247529074549675,-0.05272265523672104,0.1576812267303467,-0.07473295927047729,0.02421915531158447,XArbitraryZVertical,0.1966144726101649,-0.4837437238120584,0.6826195220832556,0.5112391557369097,-0.763043224811554,0.4593917727470398,-0.4546695053577423,0,0,0,-1,-1,65066.95715912501,unknown,2,2025-04-18T11:53:44.011+03:00,2025-04-17T15:44:39.500+03:00,7529,1.126433,0,0,6207.333,4,10,2025-04-18T11:44:42.378+03:00,766659231.8361058,0,107.7,100.5632,1,0.5,2025-04-18T11:46:49.169+03:00,74,1.233333333333333,2025-04-18T08:51:18.885+03:00,0.03057091307199995,1
2025-04-18T11:53:52.848+03:00,1744966428.250393,40.95359290647468,29.1410029911603,94.2901,-1,-1,-1,-1,30,24.60438744106876,-9999,65075.7890985,-0.7673797607421875,0.36907958984375,-0.4233551025390625,65075.77902350001,1.578665084626964,-1.032272510193806,-0.4778062826607263,-0.2763342559337616,0.2236236035823822,-0.09306735545396805,0.02655988931655884,-0.03701117634773254,-0.02221488952636719,XArbitraryZVertical,0.1954369404447605,-0.4838273715021226,0.6821276406736473,0.5122670170437069,-0.7623234987258911,0.4598322510719299,-0.4554309546947479,0,0,0,-1,-1,65066.95715912501,unknown,2,2025-04-18T11:53:44.011+03:00,2025-04-17T15:44:39.500+03:00,7529,1.126433,0,0,6207.333,4,10,2025-04-18T11:44:42.378+03:00,766659231.8361058,0,107.7,100.5632,1,0.5,2025-04-18T11:46:49.169+03:00,74,1.233333333333333,2025-04-18T08:51:18.885+03:00,0.03057091307199995,1
2025-04-18T11:53:52.858+03:00,1744966428.250393,40.95359290647468,29.1410029911603,94.2901,-1,-1,-1,-1,30,24.60438744106876,-9999,65075.7991735,-0.799224853515625,0.364349365234375,-0.481292724609375,65075.7890985,1.574852109576179,-1.031803352938402,-0.4785684689693586,-0.3702807128429413,0.2075245380401611,-0.1218449398875237,0.01444846391677856,-0.07444632053375244,0.02587530016899109,XArbitraryZVertical,0.1940955931229061,-0.4842753832384997,0.681268643055956,0.513495234847419,-0.7618086934089661,0.4605089426040649,-0.4556085169315338,0,0,0,-1,-1,65066.95715912501,unknown,2,2025-04-18T11:53:44.011+03:00,2025-04-17T15:44:39.500+03:00,7529,1.126433,0,0,6207.333,4,10,2025-04-18T11:44:42.378+03:00,766659231.8361058,0,107.7,100.5632,1,0.5,2025-04-18T11:46:49.169+03:00,74,1.233333333333333,2025-04-18T08:51:18.885+03:00,0.03057091307199995,1
2025-04-18T11:53:52.868+03:00,1744966428.250393,40.95359290647468,29.1410029911603,94.2901,-1,-1,-1,-1,30,24.60438744106876,-9999,65075.8092485,-0.7286224365234375,0.3571014404296875,-0.5018310546875,65075.7991735,1.570072741863572,-1.032481733865915,-0.479513052639067,-0.4492685496807098,0.08645610511302948,-0.1525777131319046,-0.02606749534606934,-0.09689101576805115,0.01474398374557495,XArbitraryZVertical,0.1928470589912644,-0.4851554449113517,0.6800654545071388,0.5147283976359902,-0.7617438435554504,0.4613471925258636,-0.4548684060573578,0,0,0,-1,-1,65066.95715912501,unknown,2,2025-04-18T11:53:44.011+03:00,2025-04-17T15:44:39.500+03:00,7529,1.126433,0,0,6207.333,4,10,2025-04-18T11:44:42.378+03:00,766659231.8361058,0,107.7,100.5632,1,0.5,2025-04-18T11:46:49.169+03:00,74,1.233333333333333,2025-04-18T08:51:18.885+03:00,0.03057091307199995,1
2025-04-18T11:53:52.878+03:00,1744966428.250393,40.95359290647468,29.1410029911603,94.2901,-1,-1,-1,-1,30,24.60438744106876,-9999,65075.81932350001,-0.68963623046875,0.3582763671875,-0.460968017578125,65075.8092485,1.564650698518559,-1.034773046133843,-0.4805429033465202,-0.4719871580600739,-0.03576594963669777,-0.1565247774124146,-0.0184171199798584,-0.09713307023048401,-0.04472541809082031,XArbitraryZVertical,0.1919574925144585,-0.486531460179965,0.6785481103964451,0.5157635248745016,-0.7623751759529114,0.4622606635093689,-0.4528789222240448,0,0,0,-1,-1,65066.95715912501,unknown,2,2025-04-18T11:53:44.011+03:00,2025-04-17T15:44:39.500+03:00,7529,1.126433,0,0,6207.333,4,10,2025-04-18T11:44:42.378+03:00,766659231.8361058,0,107.7,100.5632,1,0.5,2025-04-18T11:46:49.169+03:00,74,1.233333333333333,2025-04-18T08:51:18.885+03:00,0.03057091307199995,1
2025-04-18T11:53:52.888+03:00,1744966428.250393,40.95359290647468,29.1410029911603,94.2901,-1,-1,-1,-1,30,24.60438744106876,-9999,65075.82939850001,-0.737457275390625,0.4492645263671875,-0.393310546875,65075.81932350001,1.559406398867133,-1.037755483778408,-0.4816663852263386,-0.4298552274703979,-0.0534086599946022,-0.1156375706195831,0.06060737371444702,-0.1123349964618683,-0.04186370968818665,XArbitraryZVertical,0.1913071932419681,-0.4880902466608542,0.6770189453838884,0.5165411603045886,-0.763274610042572,0.4632565975189209,-0.4503389298915863,0,0,0,-1,-1,65066.95715912501,unknown,2,2025-04-18T11:53:44.011+03:00,2025-04-17T15:44:39.500+03:00,7529,1.126433,0,0,6207.333,4,10,2025-04-18T11:44:42.378+03:00,766659231.8361058,0,107.7,100.5632,1,0.5,2025-04-18T11:46:49.169+03:00,74,1.233333333333333,2025-04-18T08:51:18.885+03:00,0.03057091307199995,1
2025-04-18T11:53:52.898+03:00,1744966428.250393,40.95359290647468,29.1410029911603,94.2901,-1,-1,-1,-1,30,24.60438744106876,-9999,65075.8394735,-0.77642822265625,0.530517578125,-0.4268341064453125,65075.82939850001,1.555207136141585,-1.039914206010376,-0.4828451377745048,-0.3192232549190521,0.009302392601966858,-0.05505198985338211,0.06377661228179932,-0.08109170198440552,0.01678815484046936,XArbitraryZVertical,0.190608411847774,-0.4893482591301354,0.675844076001524,0.5171474759871557,-0.7637735605239868,0.4643009305000305,-0.4484134316444397,0,0,0,-1,-1,65066.95715912501,unknown,2,2025-04-18T11:53:44.011+03:00,2025-04-17T15:44:39.500+03:00,7529,1.126433,0,0,6207.333,4,10,2025-04-18T11:44:42.378+03:00,766659231.8361058,0,107.7,100.5632,1,0.5,2025-04-18T11:46:49.169+03:00,74,1.233333333333333,2025-04-18T08:51:18.885+03:00,0.03057091307199995,1
2025-04-18T11:53:52.908+03:00,1744966428.250393,40.95359290647468,29.1410029911603,94.2901,-1,-1,-1,-1,30,24.60438744106876,-9999,65075.8495485,-0.73773193359375,0.535186767578125,-0.460968017578125,65075.8394735,1.552453016703047,-1.040943615264413,-0.4840713696763441,-0.2291032820940018,0.03497706353664398,0.01998893171548843,0.003443241119384766,0.02316927909851074,0.05321970582008362,XArbitraryZVertical,0.189862146570428,-0.4901866138269447,0.6751554775508055,0.5175274157603973,-0.763742983341217,0.4653866291046143,-0.4473389089107513,0,0,0,-1,-1,65066.95715912501,unknown,2,2025-04-18T11:53:44.011+03:00,2025-04-17T15:44:39.500+03:00,7529,1.126433,0,0,6207.333,4,10,2025-04-18T11:44:42.378+03:00,766659231.8361058,0,107.7,100.5632,1,0.5,2025-04-18T11:46:49.169+03:00,74,1.233333333333333,2025-04-18T08:51:18.885+03:00,0.03057091307199995,1
2025-04-18T11:53:52.918+03:00,1744966428.250393,40.95359290647468,29.1410029911603,94.2901,-1,-1,-1,-1,30,24.60438744106876,-9999,65075.8596235,-0.7114410400390625,0.496429443359375,-0.477447509765625,65075.8495485,1.550482954482854,-1.041309209647443,-0.4856778975946784,-0.2327685952186584,0.07381314039230347,0.07867142558097839,-0.005416631698608398,0.07233086228370667,0.0005755424499511719,XArbitraryZVertical,0.1889522373221929,-0.4908730344705003,0.6747707129041394,0.5177115823075111,-0.7632601857185364,0.4668079614639282,-0.4466814398765564,0,0,0,-1,-1,65066.95715912501,unknown,2,2025-04-18T11:53:44.011+03:00,2025-04-17T15:44:39.500+03:00,7529,1.126433,0,0,6207.333,4,10,2025-04-18T11:44:42.378+03:00,766659231.8361058,0,107.7,100.5632,1,0.5,2025-04-18T11:46:49.169+03:00,74,1.233333333333333,2025-04-18T08:51:18.885+03:00,0.03057091307199995,1
2025-04-18T11:53:52.928+03:00,1744966428.250393,40.95359290647468,29.1410029911603,94.2901,-1,-1,-1,-1,30,24.60438744106876,-9999,65075.86969850001,-0.69537353515625,0.4135589599609375,-0.48297119140625,65075.8596235,1.548287752570883,-1.041448607545642,-0.4877384556802829,-0.3241511583328247,0.09050749987363815,0.07346764206886292,0.03998690843582153,0.05671557784080505,-0.01858749985694885,XArbitraryZVertical,0.187753805325953,-0.4916343549771625,0.6743940743628037,0.517915841123133,-0.7624905705451965,0.4686292409896851,-0.4460883438587189,0,0,0,-1,-1,65066.95715912501,unknown,2,2025-04-18T11:53:44.011+03:00,2025-04-17T15:44:39.500+03:00,7529,1.126433,0,0,6207.333,4,10,2025-04-18T11:44:42.378+03:00,766659231.8361058,0,107.7,100.5632,1,0.5,2025-04-18T11:46:49.169+03:00,74,1.233333333333333,2025-04-18T08:51:18.885+03:00,0.03057091307199995,1
2025-04-18T11:53:52.938+03:00,1744966428.250393,40.95359290647468,29.1410029911603,94.2901,-1,-1,-1,-1,30,24.60438744106876,-9999,65075.8797735,-0.6845703125,0.363739013671875,-0.42120361328125,65075.86969850001,1.544636541359559,-1.042373619373049,-0.4901935769451488,-0.4698883891105652,0.07581190764904022,0.02013144269585609,0.05331933498382568,-0.0008870065212249756,-0.04174026846885681,XArbitraryZVertical,0.1863242960006092,-0.4928311485544006,0.6736059270207698,0.5183201838609203,-0.7619069814682007,0.470796674489975,-0.4448014199733734,0,0,0,-1,-1,65066.95715912501,unknown,2,2025-04-18T11:53:44.011+03:00,2025-04-17T15:44:39.500+03:00,7529,1.126433,0,0,6207.333,4,10,2025-04-18T11:44:42.378+03:00,766659231.8361058,0,107.7,100.5632,1,0.5,2025-04-18T11:46:49.169+03:00,74,1.233333333333333,2025-04-18T08:51:18.885+03:00,0.03057091307199995,1
