loggingTime(txt),locationTimestamp_since1970(s),locationLatitude(WGS84),locationLongitude(WGS84),locationAltitude(m),locationSpeed(m/s),locationSpeedAccuracy(m/s),locationCourse(°),locationCourseAccuracy(°),locationVerticalAccuracy(m),locationHorizontalAccuracy(m),locationFloor(Z),accelerometerTimestamp_sinceReboot(s),accelerometerAccelerationX(G),accelerometerAccelerationY(G),accelerometerAccelerationZ(G),motionTimestamp_sinceReboot(s),motionYaw(rad),motionRoll(rad),motionPitch(rad),motionRotationRateX(rad/s),motionRotationRateY(rad/s),motionRotationRateZ(rad/s),motionUserAccelerationX(G),motionUserAccelerationY(G),motionUserAccelerationZ(G),motionAttitudeReferenceFrame(txt),motionQuaternionX(R),motionQuaternionY(R),motionQuaternionZ(R),motionQuaternionW(R),motionGravityX(G),motionGravityY(G),motionGravityZ(G),motionMagneticFieldX(µT),motionMagneticFieldY(µT),motionMagneticFieldZ(µT),motionHeading(°),motionMagneticFieldCalibrationAccuracy(Z),activityTimestamp_sinceReboot(s),activity(txt),activityActivityConfidence(Z),activityActivityStartDate(txt),pedometerStartDate(txt),pedometerNumberofSteps(N),pedometerAverageActivePace(s/m),pedometerCurrentPace(s/m),pedometerCurrentCadence(steps/s),pedometerDistance(m),pedometerFloorAscended(N),pedometerFloorDescended(N),pedometerEndDate(txt),altimeterTimestamp_sinceReboot(s),altimeterReset(bool),altimeterRelativeAltitude(m),altimeterPressure(kPa),batteryState(N),batteryLevel(R),heartRateBPMTimestamp(txt),heartRateBPM(N),heartRateBPS(R),heartRateVariabilityTimestamp(txt),heartRateVariability(ms),label
2025-04-18T14:40:16.182+03:00,1744976414.995466,40.95365572399826,29.14101768181349,94.72507,-1,-1,-1,-1,30,25.91352151834083,-9999,69454.6546635,-0.5125274658203125,0.8707733154296875,-0.029083251953125,69454.64458750001,0.4524368759539091,-1.510473260221745,-1.030704017302766,0.03055036999285221,0.06769371032714844,-0.0297661479562521,-0.02183055877685547,0.007863163948059082,0.0008793435990810394,XArbitraryZVertical,-0.2159232678118332,-0.6617227731146729,0.4713157857485344,0.5416286140238499,-0.513279914855957,0.857661247253418,-0.03100022859871387,0,0,0,-1,-1,69436.46078450001,unknown,2,2025-04-18T14:39:57.870+03:00,2025-04-18T14:06:46.055+03:00,48,7.358232,0,0,40.48506,0,0,2025-04-18T14:40:03.029+03:00,766669216.0135459,0,6.320007,100.354,1,0.25,2025-04-18T14:32:39.794+03:00,92.00000000000001,1.533333333333333,2025-04-18T08:51:18.885+03:00,0.03057091307199995,0
2025-04-18T14:40:16.183+03:00,1744976414.995466,40.95365572399826,29.14101768181349,94.72507,-1,-1,-1,-1,30,25.91352151834083,-9999,69454.6647395,-0.5105743408203125,0.8642730712890625,-0.03240966796875,69454.6546635,0.4532160905098638,-1.509157016142007,-1.030251200725926,0.04512026160955429,0.05844615027308464,-0.02486060559749603,-0.001251161098480225,0.01326864957809448,0.002372268587350845,XArbitraryZVertical,-0.2158186566188449,-0.6614925932263497,0.4712715462995055,0.5419897753986226,-0.5136260390281677,0.8574283123016357,-0.03169971331954002,0,0,0,-1,-1,69436.46078450001,unknown,2,2025-04-18T14:39:57.870+03:00,2025-04-18T14:06:46.055+03:00,48,7.358232,0,0,40.48506,0,0,2025-04-18T14:40:03.029+03:00,766669216.0135459,0,6.320007,100.354,1,0.25,2025-04-18T14:32:39.794+03:00,92.00000000000001,1.533333333333333,2025-04-18T08:51:18.885+03:00,0.03057091307199995,0
2025-04-18T14:40:16.184+03:00,1744976414.995466,40.95365572399826,29.14101768181349,94.72507,-1,-1,-1,-1,30,25.91352151834083,-9999,69454.67481550001,-0.513336181640625,0.854583740234375,-0.04083251953125,69454.6647395,0.4541398949396466,-1.507826823583849,-1.029909339907553,0.04909629374742508,0.045730821788311,-0.02771421521902084,0.003927290439605713,0.008348166942596436,0.001364950090646744,XArbitraryZVertical,-0.2157080096120982,-0.6612634725978387,0.4712930163418082,0.5422946495300214,-0.5138759016990662,0.857252299785614,-0.03240134939551353,0,0,0,-1,-1,69436.46078450001,unknown,2,2025-04-18T14:39:57.870+03:00,2025-04-18T14:06:46.055+03:00,48,7.358232,0,0,40.48506,0,0,2025-04-18T14:40:03.029+03:00,766669216.0135459,0,6.320007,100.354,1,0.25,2025-04-18T14:32:39.794+03:00,92.00000000000001,1.533333333333333,2025-04-18T08:51:18.885+03:00,0.03057091307199995,0
2025-04-18T14:40:16.194+03:00,1744976414.995466,40.95365572399826,29.14101768181349,94.72507,-1,-1,-1,-1,30,25.91352151834083,-9999,69454.6848915,-0.5133056640625,0.854095458984375,-0.0421295166015625,69454.67481550001,0.4551608587268438,-1.50653448951149,-1.029388917936884,0.04806724563241005,0.03387176245450974,-0.03079096600413322,0.0009428262710571289,-0.001317143440246582,-0.007372260093688965,XArbitraryZVertical,-0.2154943939428047,-0.6610711961340018,0.4713006145230932,0.5426074115843424,-0.5142790079116821,0.8569842576980591,-0.03309407830238342,0,0,0,-1,-1,69436.46078450001,unknown,2,2025-04-18T14:39:57.870+03:00,2025-04-18T14:06:46.055+03:00,48,7.358232,0,0,40.48506,0,0,2025-04-18T14:40:03.029+03:00,766669216.0135459,0,6.320007,100.354,1,0.25,2025-04-18T14:32:39.794+03:00,92.00000000000001,1.533333333333333,2025-04-18T08:51:18.885+03:00,0.03057091307199995,0
2025-04-18T14:40:16.204+03:00,1744976414.995466,40.95365572399826,29.14101768181349,94.72507,-1,-1,-1,-1,30,25.91352151834083,-9999,69454.69496750001,-0.5161285400390625,0.8464202880859375,-0.044891357421875,69454.6848915,0.4559351794877468,-1.505548512219038,-1.02880286118927,0.03759536147117615,0.02785747870802879,-0.03190087154507637,0.001090586185455322,-0.002601921558380127,-0.008068442344665527,XArbitraryZVertical,-0.2152672311109616,-0.6609410594522918,0.4712584002716943,0.542892690847029,-0.514747142791748,0.8566820621490479,-0.03363386914134026,0,0,0,-1,-1,69436.46078450001,unknown,2,2025-04-18T14:39:57.870+03:00,2025-04-18T14:06:46.055+03:00,48,7.358232,0,0,40.48506,0,0,2025-04-18T14:40:03.029+03:00,766669216.0135459,0,6.320007,100.354,1,0.25,2025-04-18T14:32:39.794+03:00,92.00000000000001,1.533333333333333,2025-04-18T08:51:18.885+03:00,0.03057091307199995,0
2025-04-18T14:40:16.214+03:00,1744976414.995466,40.95365572399826,29.14101768181349,94.72507,-1,-1,-1,-1,30,25.91352151834083,-9999,69454.7050435,-0.5199737548828125,0.844512939453125,-0.044189453125,69454.69496750001,0.4564464310232885,-1.504930911575914,-1.028361809258718,0.02776803448796272,0.01238957419991493,-0.02203439176082611,-0.0004608035087585449,-0.009423911571502686,-0.01089954003691673,XArbitraryZVertical,-0.2150904960025904,-0.6608689485149409,0.4712208897969346,0.5430829445572793,-0.5151030421257019,0.8564544916152954,-0.03397662192583084,0,0,0,-1,-1,69436.46078450001,unknown,2,2025-04-18T14:39:57.870+03:00,2025-04-18T14:06:46.055+03:00,48,7.358232,0,0,40.48506,0,0,2025-04-18T14:40:03.029+03:00,766669216.0135459,0,6.320007,100.354,1,0.25,2025-04-18T14:32:39.794+03:00,92.00000000000001,1.533333333333333,2025-04-18T08:51:18.885+03:00,0.03057091307199995,0
2025-04-18T14:40:16.224+03:00,1744976414.995466,40.95365572399826,29.14101768181349,94.72507,-1,-1,-1,-1,30,25.91352151834083,-9999,69454.7151195,-0.5222625732421875,0.8461151123046875,-0.043365478515625,69454.7050435,0.4566946853297136,-1.504616914008991,-1.028192138881436,0.01857120543718338,0.02318855933845043,-0.01646618731319904,-0.004095375537872314,-0.01160979270935059,-0.009873688220977783,XArbitraryZVertical,-0.2150234871990169,-0.6608259297069553,0.4712122180618941,0.5431694151280064,-0.5152374505996704,0.8563668727874756,-0.03414798155426979,0,0,0,-1,-1,69436.46078450001,unknown,2,2025-04-18T14:39:57.870+03:00,2025-04-18T14:06:46.055+03:00,48,7.358232,0,0,40.48506,0,0,2025-04-18T14:40:03.029+03:00,766669216.0135459,0,6.320007,100.354,1,0.25,2025-04-18T14:32:39.794+03:00,92.00000000000001,1.533333333333333,2025-04-18T08:51:18.885+03:00,0.03057091307199995,0
2025-04-18T14:40:16.235+03:00,1744976414.995466,40.95365572399826,29.14101768181349,94.72507,-1,-1,-1,-1,30,25.91352151834083,-9999,69454.72519550001,-0.5238494873046875,0.846954345703125,-0.042816162109375,69454.7151195,0.456705110673778,-1.504330694028867,-1.028191045181368,0.01499138399958611,0.04610186442732811,-0.00886286236345768,-0.006804823875427246,-0.01008325815200806,-0.00913107767701149,XArbitraryZVertical,-0.215087131738699,-0.6607493933346336,0.471183917604898,0.5432619926799519,-0.5152288675308228,0.8563662767410278,-0.03429552912712097,0,0,0,-1,-1,69436.46078450001,unknown,2,2025-04-18T14:39:57.870+03:00,2025-04-18T14:06:46.055+03:00,48,7.358232,0,0,40.48506,0,0,2025-04-18T14:40:03.029+03:00,766669216.0135459,0,6.320007,100.354,1,0.25,2025-04-18T14:32:39.794+03:00,92.00000000000001,1.533333333333333,2025-04-18T08:51:18.885+03:00,0.03057091307199995,0
2025-04-18T14:40:16.244+03:00,1744976414.995466,40.95365572399826,29.14101768181349,94.72507,-1,-1,-1,-1,30,25.91352151834083,-9999,69454.7352715,-0.516082763671875,0.8474578857421875,-0.037811279296875,69454.72519550001,0.4568765080505645,-1.503743210786936,-1.027999198315083,0.01488592382520437,0.04744249954819679,-0.005146155133843422,-0.009499311447143555,-0.008977115154266357,-0.008008603006601334,XArbitraryZVertical,-0.2151021955493008,-0.6606257912373004,0.471119527562875,0.5434621472992855,-0.5153725147247314,0.8562672138214111,-0.03460921719670296,0,0,0,-1,-1,69436.46078450001,unknown,2,2025-04-18T14:39:57.870+03:00,2025-04-18T14:06:46.055+03:00,48,7.358232,0,0,40.48506,0,0,2025-04-18T14:40:03.029+03:00,766669216.0135459,0,6.320007,100.354,1,0.25,2025-04-18T14:32:39.794+03:00,92.00000000000001,1.533333333333333,2025-04-18T08:51:18.885+03:00,0.03057091307199995,0
2025-04-18T14:40:16.254+03:00,1744976414.995466,40.95365572399826,29.14101768181349,94.72507,-1,-1,-1,-1,30,25.91352151834083,-9999,69454.74534750001,-0.51654052734375,0.8468017578125,-0.036590576171875,69454.7352715,0.4570850884390996,-1.503086761846908,-1.028053025165919,0.01122354436665773,0.05720831081271172,0.002789798891171813,-0.002091407775878906,-0.00850147008895874,-0.002744913101196289,XArbitraryZVertical,-0.2152066389507638,-0.6604649147953864,0.4711190462195391,0.5436166497970918,-0.5153035521507263,0.8562950491905212,-0.03494439646601677,0,0,0,-1,-1,69436.46078450001,unknown,2,2025-04-18T14:39:57.870+03:00,2025-04-18T14:06:46.055+03:00,48,7.358232,0,0,40.48506,0,0,2025-04-18T14:40:03.029+03:00,766669216.0135459,0,6.320007,100.354,1,0.25,2025-04-18T14:32:39.794+03:00,92.00000000000001,1.533333333333333,2025-04-18T08:51:18.885+03:00,0.03057091307199995,0
2025-04-18T14:40:16.264+03:00,1744976414.995466,40.95365572399826,29.14101768181349,94.72507,-1,-1,-1,-1,30,25.91352151834083,-9999,69454.7554235,-0.5176849365234375,0.8503570556640625,-0.033966064453125,69454.74534750001,0.4572917514791753,-1.502267058039981,-1.028185829025541,0.01539105828851461,0.06866037100553513,0.00290175131522119,-0.0007535815238952637,-0.009882211685180664,-0.0006518401205539703,XArbitraryZVertical,-0.2153776985744924,-0.660252186027464,0.4711200227245967,0.543806441654351,-0.5151612758636475,0.8563635945320129,-0.03535899519920349,0,0,0,-1,-1,69436.46078450001,unknown,2,2025-04-18T14:39:57.870+03:00,2025-04-18T14:06:46.055+03:00,48,7.358232,0,0,40.48506,0,0,2025-04-18T14:40:03.029+03:00,766669216.0135459,0,6.320007,100.354,1,0.25,2025-04-18T14:32:39.794+03:00,92.00000000000001,1.533333333333333,2025-04-18T08:51:18.885+03:00,0.03057091307199995,0
2025-04-18T14:40:16.275+03:00,1744976414.995466,40.95365572399826,29.14101768181349,94.72507,-1,-1,-1,-1,30,25.91352151834083,-9999,69454.7654985,-0.5108642578125,0.8515472412109375,-0.03607177734375,69454.7554235,0.4576729852936886,-1.501210165685071,-1.028230956000379,0.01385974045842886,0.06975413113832474,0.007311679422855377,-0.002950966358184814,-0.006182610988616943,0.001568380743265152,XArbitraryZVertical,-0.2155164932774039,-0.6600017211408564,0.4711211654448526,0.5440543025837744,-0.5150848031044006,0.8563868999481201,-0.03590073809027672,0,0,0,-1,-1,69436.46078450001,unknown,2,2025-04-18T14:39:57.870+03:00,2025-04-18T14:06:46.055+03:00,48,7.358232,0,0,40.48506,0,0,2025-04-18T14:40:03.029+03:00,766669216.0135459,0,6.320007,100.354,1,0.25,2025-04-18T14:32:39.794+03:00,92.00000000000001,1.533333333333333,2025-04-18T08:51:18.885+03:00,0.03057091307199995,0
2025-04-18T14:40:16.284+03:00,1744976414.995466,40.95365572399826,29.14101768181349,94.72507,-1,-1,-1,-1,30,25.91352151834083,-9999,69454.7755745,-0.510772705078125,0.8556060791015625,-0.04254150390625,69454.7654985,0.4579642708611602,-1.500207018965964,-1.028298824801715,0.009342020377516747,0.07117898762226105,0.006143118254840374,0.003500759601593018,-0.005042672157287598,0.0005093850195407867,XArbitraryZVertical,-0.2156803119070757,-0.6597540003219661,0.4711091457650355,0.5443001796518753,-0.514990508556366,0.856421947479248,-0.03641332313418388,0,0,0,-1,-1,69436.46078450001,unknown,2,2025-04-18T14:39:57.870+03:00,2025-04-18T14:06:46.055+03:00,48,7.358232,0,0,40.48506,0,0,2025-04-18T14:40:03.029+03:00,766669216.0135459,0,6.320007,100.354,1,0.25,2025-04-18T14:32:39.794+03:00,92.00000000000001,1.533333333333333,2025-04-18T08:51:18.885+03:00,0.03057091307199995,0
2025-04-18T14:40:16.294+03:00,1744976414.995466,40.95365572399826,29.14101768181349,94.72507,-1,-1,-1,-1,30,25.91352151834083,-9999,69454.78565050001,-0.5127105712890625,0.858978271484375,-0.04364013671875,69454.7755745,0.4582658761329465,-1.499188050035704,-1.028301183827266,0.001842026831582189,0.07119549810886383,0.006136460229754448,0.004117786884307861,-0.001167953014373779,-0.005054298788309097,XArbitraryZVertical,-0.2158217341645532,-0.6595089115128225,0.4710817751972384,0.544564969972974,-0.5149515271186829,0.8564231991767883,-0.03693794831633568,0,0,0,-1,-1,69436.46078450001,unknown,2,2025-04-18T14:39:57.870+03:00,2025-04-18T14:06:46.055+03:00,48,7.358232,0,0,40.48506,0,0,2025-04-18T14:40:03.029+03:00,766669216.0135459,0,6.320007,100.354,1,0.25,2025-04-18T14:32:39.794+03:00,92.00000000000001,1.533333333333333,2025-04-18T08:51:18.885+03:00,0.03057091307199995,0
2025-04-18T14:40:16.305+03:00,1744976414.995466,40.95365572399826,29.14101768181349,94.72507,-1,-1,-1,-1,30,25.91352151834083,-9999,69454.7957265,-0.5136871337890625,0.8603668212890625,-0.0435638427734375,69454.78565050001,0.4583129985049259,-1.498424109232795,-1.028249345856188,-0.006273757200688124,0.06702518463134766,0.004663565661758184,0.00280606746673584,0.00238347053527832,-0.00581735372543335,XArbitraryZVertical,-0.2159680330305273,-0.6593106586519963,0.4709993508989304,0.5448181806134587,-0.5149672627449036,0.8563963770866394,-0.03733452782034874,0,0,0,-1,-1,69436.46078450001,unknown,2,2025-04-18T14:39:57.870+03:00,2025-04-18T14:06:46.055+03:00,48,7.358232,0,0,40.48506,0,0,2025-04-18T14:40:03.029+03:00,766669216.0135459,0,6.320007,100.354,1,0.25,2025-04-18T14:32:39.794+03:00,92.00000000000001,1.533333333333333,2025-04-18T08:51:18.885+03:00,0.03057091307199995,0
2025-04-18T14:40:16.314+03:00,1744976414.995466,40.95365572399826,29.14101768181349,94.72507,-1,-1,-1,-1,30,25.91352151834083,-9999,69454.80580250001,-0.5193023681640625,0.8608856201171875,-0.04638671875,69454.7957265,0.4583021846007899,-1.497726861141923,-1.02819082812453,-0.004438572563230991,0.06327173113822937,0.003467540256679058,0.001792252063751221,0.003680169582366943,-0.005729377269744873,XArbitraryZVertical,-0.2161153756064376,-0.6591248202568035,0.4709066136908052,0.5450646813847099,-0.5149909853935242,0.8563662171363831,-0.03769723325967789,0,0,0,-1,-1,69436.46078450001,unknown,2,2025-04-18T14:39:57.870+03:00,2025-04-18T14:06:46.055+03:00,48,7.358232,0,0,40.48506,0,0,2025-04-18T14:40:03.029+03:00,766669216.0135459,0,6.320007,100.354,1,0.25,2025-04-18T14:32:39.794+03:00,92.00000000000001,1.533333333333333,2025-04-18T08:51:18.885+03:00,0.03057091307199995,0
2025-04-18T14:40:16.325+03:00,1744976414.995466,40.95365572399826,29.14101768181349,94.72507,-1,-1,-1,-1,30,25.91352151834083,-9999,69454.8158785,-0.5182647705078125,0.8572540283203125,-0.0421905517578125,69454.80580250001,0.458334447482429,-1.497071926557565,-1.028079643944516,-0.002509112237021327,0.05909296497702599,0.001016366644762456,-0.003111958503723145,0.005034565925598145,-0.008955597877502441,XArbitraryZVertical,-0.2162201876411252,-0.6589598365794112,0.4708170510022958,0.5452999605373011,-0.5150612592697144,0.8563087582588196,-0.03804152831435204,0,0,0,-1,-1,69436.46078450001,unknown,2,2025-04-18T14:39:57.870+03:00,2025-04-18T14:06:46.055+03:00,48,7.358232,0,0,40.48506,0,0,2025-04-18T14:40:03.029+03:00,766669216.0135459,0,6.320007,100.354,1,0.25,2025-04-18T14:32:39.794+03:00,92.00000000000001,1.533333333333333,2025-04-18T08:51:18.885+03:00,0.03057091307199995,0
2025-04-18T14:40:16.335+03:00,1744976414.995466,40.95365572399826,29.14101768181349,94.72507,-1,-1,-1,-1,30,25.91352151834083,-9999,69454.8259545,-0.52197265625,0.8574371337890625,-0.0450592041015625,69454.8158785,0.4582621083826068,-1.496455081026971,-1.02804409412419,-0.00436853151768446,0.07643920183181763,0.003114670980721712,-0.003303349018096924,0.001101016998291016,-0.004515770822763443,XArbitraryZVertical,-0.2163768483058877,-0.6587869944561934,0.4707217410490331,0.5455289986572132,-0.5150682330131531,0.8562904000282288,-0.03836151212453842,0,0,0,-1,-1,69436.46078450001,unknown,2,2025-04-18T14:39:57.870+03:00,2025-04-18T14:06:46.055+03:00,48,7.358232,0,0,40.48506,0,0,2025-04-18T14:40:03.029+03:00,766669216.0135459,0,6.320007,100.354,1,0.25,2025-04-18T14:32:39.794+03:00,92.00000000000001,1.533333333333333,2025-04-18T08:51:18.885+03:00,0.03057091307199995,0
2025-04-18T14:40:16.345+03:00,1744976414.995466,40.95365572399826,29.14101768181349,94.72507,-1,-1,-1,-1,30,25.91352151834083,-9999,69454.83603050001,-0.5242767333984375,0.8574981689453125,-0.043853759765625,69454.8259545,0.4582469791380003,-1.495696439355737,-1.028032429648447,0.005636631976813078,0.08079712837934494,0.004173377528786659,-0.006115198135375977,0.0008933544158935547,-0.005817949771881104,XArbitraryZVertical,-0.2165562654948908,-0.65857945021465,0.4706326968457775,0.5457850459285664,-0.5150486826896667,0.8562843799591064,-0.03875298425555229,0,0,0,-1,-1,69436.46078450001,unknown,2,2025-04-18T14:39:57.870+03:00,2025-04-18T14:06:46.055+03:00,48,7.358232,0,0,40.48506,0,0,2025-04-18T14:40:03.029+03:00,766669216.0135459,0,6.320007,100.354,1,0.25,2025-04-18T14:32:39.794+03:00,92.00000000000001,1.533333333333333,2025-04-18T08:51:18.885+03:00,0.03057091307199995,0
2025-04-18T14:40:16.355+03:00,1744976414.995466,40.95365572399826,29.14101768181349,94.72507,-1,-1,-1,-1,30,25.91352151834083,-9999,69454.8461065,-0.522491455078125,0.8598175048828125,-0.04498291015625,69454.83603050001,0.4583850319070014,-1.494745205658951,-1.028045768707676,0.01281518209725618,0.0900215208530426,0.01191971451044083,-0.009734034538269043,0.0005508661270141602,-0.005451027303934097,XArbitraryZVertical,-0.2167393290060699,-0.6583335320212058,0.470570558038913,0.5460626913431187,-0.5150004625320435,0.8562912940979004,-0.03924204781651497,0,0,0,-1,-1,69436.46078450001,unknown,2,2025-04-18T14:39:57.870+03:00,2025-04-18T14:06:46.055+03:00,48,7.358232,0,0,40.48506,0,0,2025-04-18T14:40:03.029+03:00,766669216.0135459,0,6.320007,100.354,1,0.25,2025-04-18T14:32:39.794+03:00,92.00000000000001,1.533333333333333,2025-04-18T08:51:18.885+03:00,0.03057091307199995,0
2025-04-18T14:40:16.365+03:00,1744976414.995466,40.95365572399826,29.14101768181349,94.72507,-1,-1,-1,-1,30,25.91352151834083,-9999,69454.85618250001,-0.5208892822265625,0.86065673828125,-0.0498504638671875,69454.8461065,0.4586320019913928,-1.493599797629563,-1.028219211355271,0.01345560606569052,0.1008850187063217,0.02134247869253159,-0.008035600185394287,0.002597272396087646,-0.00417071208357811,XArbitraryZVertical,-0.2169880241617768,-0.6580319041074121,0.4705568047731776,0.5463390600200833,-0.5148066878318787,0.856380820274353,-0.03982042148709297,0,0,0,-1,-1,69436.46078450001,unknown,2,2025-04-18T14:39:57.870+03:00,2025-04-18T14:06:46.055+03:00,48,7.358232,0,0,40.48506,0,0,2025-04-18T14:40:03.029+03:00,766669216.0135459,0,6.320007,100.354,1,0.25,2025-04-18T14:32:39.794+03:00,92.00000000000001,1.533333333333333,2025-04-18T08:51:18.885+03:00,0.03057091307199995,0
2025-04-18T14:40:16.375+03:00,1744976414.995466,40.95365572399826,29.14101768181349,94.72507,-1,-1,-1,-1,30,25.91352151834083,-9999,69454.8662585,-0.51715087890625,0.8650665283203125,-0.0506439208984375,69454.85618250001,0.4590619970943173,-1.49213645295636,-1.028474816294418,0.02502943761646748,0.1125616505742073,0.02798360213637352,-0.006817281246185303,0.003914952278137207,-0.008698936551809311,XArbitraryZVertical,-0.2172801524765362,-0.6576557426293675,0.4705785033145172,0.5466571295819894,-0.5145296454429626,0.8565127849578857,-0.04055652022361755,0,0,0,-1,-1,69436.46078450001,unknown,2,2025-04-18T14:39:57.870+03:00,2025-04-18T14:06:46.055+03:00,48,7.358232,0,0,40.48506,0,0,2025-04-18T14:40:03.029+03:00,766669216.0135459,0,6.320007,100.354,1,0.25,2025-04-18T14:32:39.794+03:00,92.00000000000001,1.533333333333333,2025-04-18T08:51:18.885+03:00,0.03057091307199995,0
2025-04-18T14:40:16.385+03:00,1744976414.995466,40.95365572399826,29.14101768181349,94.72507,-1,-1,-1,-1,30,25.91352151834083,-9999,69454.8763345,-0.512786865234375,0.864593505859375,-0.0465850830078125,69454.8662585,0.4597815206423189,-1.490367281463052,-1.028762932652951,0.03679115697741508,0.1137708574533463,0.02788300253450871,-0.003367006778717041,0.007962405681610107,-0.008952971547842026,XArbitraryZVertical,-0.217560585874643,-0.6572244187380167,0.4706539391825496,0.54699922695533,-0.5142109990119934,0.8566614389419556,-0.04144690930843353,0,0,0,-1,-1,69436.46078450001,unknown,2,2025-04-18T14:39:57.870+03:00,2025-04-18T14:06:46.055+03:00,48,7.358232,0,0,40.48506,0,0,2025-04-18T14:40:03.029+03:00,766669216.0135459,0,6.320007,100.354,1,0.25,2025-04-18T14:32:39.794+03:00,92.00000000000001,1.533333333333333,2025-04-18T08:51:18.885+03:00,0.03057091307199995,0
2025-04-18T14:40:16.395+03:00,1744976414.995466,40.95365572399826,29.14101768181349,94.72507,-1,-1,-1,-1,30,25.91352151834083,-9999,69454.88641050001,-0.50994873046875,0.8553619384765625,-0.0424652099609375,69454.8763345,0.4604888107603291,-1.48859635540085,-1.029034875954417,0.03092261403799057,0.1133482158184052,0.02813946455717087,0.0003551244735717773,0.008524179458618164,-0.005284368991851807,XArbitraryZVertical,-0.2178401316017153,-0.6567925813849063,0.4707214967451465,0.5473485309456053,-0.513904869556427,0.8568017482757568,-0.04233836382627487,0,0,0,-1,-1,69436.46078450001,unknown,2,2025-04-18T14:39:57.870+03:00,2025-04-18T14:06:46.055+03:00,48,7.358232,0,0,40.48506,0,0,2025-04-18T14:40:03.029+03:00,766669216.0135459,0,6.320007,100.354,1,0.25,2025-04-18T14:32:39.794+03:00,92.00000000000001,1.533333333333333,2025-04-18T08:51:18.885+03:00,0.03057091307199995,0
2025-04-18T14:40:16.406+03:00,1744976414.995466,40.95365572399826,29.14101768181349,94.72507,-1,-1,-1,-1,30,25.91352151834083,-9999,69454.8964865,-0.5119781494140625,0.845306396484375,-0.045684814453125,69454.88641050001,0.4610607105536257,-1.486934040285414,-1.029308966183438,0.0181727297604084,0.1138949543237686,0.03207361698150635,0.003452658653259277,-2.473592758178711e-05,0.0007076263427734375,XArbitraryZVertical,-0.2181395311953794,-0.6563754220684357,0.4707642053426441,0.5476928414378728,-0.513599693775177,0.8569430112838745,-0.04317289963364601,0,0,0,-1,-1,69436.46078450001,unknown,2,2025-04-18T14:39:57.870+03:00,2025-04-18T14:06:46.055+03:00,48,7.358232,0,0,40.48506,0,0,2025-04-18T14:40:03.029+03:00,766669216.0135459,0,6.320007,100.354,1,0.25,2025-04-18T14:32:39.794+03:00,92.00000000000001,1.533333333333333,2025-04-18T08:51:18.885+03:00,0.03057091307199995,0
2025-04-18T14:40:16.425+03:00,1744976414.995466,40.95365572399826,29.14101768181349,94.72507,-1,-1,-1,-1,30,25.91352151834083,-9999,69454.90656250001,-0.5093231201171875,0.8479766845703125,-0.05267333984375,69454.8964865,0.4614653291125602,-1.485538424190774,-1.029515226447184,0.02250729128718376,0.09523418545722961,0.02177144587039948,0.00228506326675415,-0.01053750514984131,-0.001123607158660889,XArbitraryZVertical,-0.2184075044913858,-0.6560189476547303,0.4707732673929644,0.5480053250508186,-0.5133629441261292,0.8570493459701538,-0.04387460276484489,0,0,0,-1,-1,69436.46078450001,unknown,2,2025-04-18T14:39:57.870+03:00,2025-04-18T14:06:46.055+03:00,48,7.358232,0,0,40.48506,0,0,2025-04-18T14:40:03.029+03:00,766669216.0135459,0,6.320007,100.354,1,0.25,2025-04-18T14:32:39.794+03:00,92.00000000000001,1.533333333333333,2025-04-18T08:51:18.885+03:00,0.03057091307199995,0
2025-04-18T14:40:16.427+03:00,1744976414.995466,40.95365572399826,29.14101768181349,94.72507,-1,-1,-1,-1,30,25.91352151834083,-9999,69454.9166385,-0.50537109375,0.85247802734375,-0.056121826171875,69454.90656250001,0.4620070992778448,-1.484203442883269,-1.029578550415612,0.02795079350471497,0.0803266167640686,0.01096114236861467,0.00298076868057251,-0.009837567806243896,-0.007523063570261002,XArbitraryZVertical,-0.2185662803412811,-0.6557066226757732,0.4707913838607163,0.5483002362111539,-0.513249933719635,0.8570819497108459,-0.04455521330237389,0,0,0,-1,-1,69436.46078450001,unknown,2,2025-04-18T14:39:57.870+03:00,2025-04-18T14:06:46.055+03:00,48,7.358232,0,0,40.48506,0,0,2025-04-18T14:40:03.029+03:00,766669216.0135459,0,6.320007,100.354,1,0.25,2025-04-18T14:32:39.794+03:00,92.00000000000001,1.533333333333333,2025-04-18T08:51:18.885+03:00,0.03057091307199995,0
2025-04-18T14:40:16.436+03:00,1744976414.995466,40.95365572399826,29.14101768181349,94.72507,-1,-1,-1,-1,30,25.91352151834083,-9999,69454.9267145,-0.5057220458984375,0.8467864990234375,-0.057342529296875,69454.9166385,0.4625189897994976,-1.483045310835071,-1.029529289898208,0.02571267262101173,0.06523554027080536,0.005172495730221272,0.00738072395324707,-0.00456315279006958,-0.01061761751770973,XArbitraryZVertical,-0.2186538520114521,-0.6554493455187832,0.4707930993224625,0.5485714153522498,-0.5132400989532471,0.8570565581321716,-0.04515329748392105,0,0,0,-1,-1,69436.46078450001,unknown,2,2025-04-18T14:39:57.870+03:00,2025-04-18T14:06:46.055+03:00,48,7.358232,0,0,40.48506,0,0,2025-04-18T14:40:03.029+03:00,766669216.0135459,0,6.320007,100.354,1,0.25,2025-04-18T14:32:39.794+03:00,92.00000000000001,1.533333333333333,2025-04-18T08:51:18.885+03:00,0.03057091307199995,0
2025-04-18T14:40:16.446+03:00,1744976414.995466,40.95365572399826,29.14101768181349,94.72507,-1,-1,-1,-1,30,25.91352151834083,-9999,69454.93679050001,-0.5072174072265625,0.846954345703125,-0.0545196533203125,69454.9267145,0.4629558229008194,-1.482072378507272,-1.029437071197793,0.02041444554924965,0.05968378856778145,-0.005056639201939106,0.007857680320739746,-0.009963154792785645,-0.01211017370223999,XArbitraryZVertical,-0.2187073837307592,-0.6552383340591525,0.4707840785370423,0.5488097664436314,-0.5132744908332825,0.8570090532302856,-0.04565961286425591,0,0,0,-1,-1,69436.46078450001,unknown,2,2025-04-18T14:39:57.870+03:00,2025-04-18T14:06:46.055+03:00,48,7.358232,0,0,40.48506,0,0,2025-04-18T14:40:03.029+03:00,766669216.0135459,0,6.320007,100.354,1,0.25,2025-04-18T14:32:39.794+03:00,92.00000000000001,1.533333333333333,2025-04-18T08:51:18.885+03:00,0.03057091307199995,0
2025-04-18T14:40:16.460+03:00,1744976414.995466,40.95365572399826,29.14101768181349,94.72507,-1,-1,-1,-1,30,25.91352151834083,-9999,69454.9468665,-0.5085296630859375,0.8482666015625,-0.054351806640625,69454.93679050001,0.4633515346502621,-1.481114583836156,-1.029313517395716,0.01175464503467083,0.05607999861240387,-0.006992224603891373,0.006851255893707275,-0.01043343544006348,-0.00840473547577858,XArbitraryZVertical,-0.2187599193219516,-0.6550295740170722,0.4707576752021653,0.5490607577223835,-0.5133362412452698,0.8569453954696655,-0.04616070911288261,0,0,0,-1,-1,69436.46078450001,unknown,2,2025-04-18T14:39:57.870+03:00,2025-04-18T14:06:46.055+03:00,48,7.358232,0,0,40.48506,0,0,2025-04-18T14:40:03.029+03:00,766669216.0135459,0,6.320007,100.354,1,0.25,2025-04-18T14:32:39.794+03:00,92.00000000000001,1.533333333333333,2025-04-18T08:51:18.885+03:00,0.03057091307199995,0
2025-04-18T14:40:16.475+03:00,1744976414.995466,40.95365572399826,29.14101768181349,94.72507,-1,-1,-1,-1,30,25.91352151834083,-9999,69454.95694250001,-0.507110595703125,0.84429931640625,-0.0556640625,69454.9468665,0.4635498283398408,-1.480406480733723,-1.029245989126998,0.003373743966221809,0.04688789695501328,-0.005779387895017862,0.004037618637084961,-0.008018434047698975,-0.007914062589406967,XArbitraryZVertical,-0.218837897811721,-0.6548627986631409,0.4707183183055393,0.5492621212008316,-0.5133606195449829,0.8569105863571167,-0.0465293787419796,0,0,0,-1,-1,69436.46078450001,unknown,2,2025-04-18T14:39:57.870+03:00,2025-04-18T14:06:46.055+03:00,48,7.358232,0,0,40.48506,0,0,2025-04-18T14:40:03.029+03:00,766669216.0135459,0,6.320007,100.354,1,0.25,2025-04-18T14:32:39.794+03:00,92.00000000000001,1.533333333333333,2025-04-18T08:51:18.885+03:00,0.03057091307199995,0
2025-04-18T14:40:16.478+03:00,1744976414.995466,40.95365572399826,29.14101768181349,94.72507,-1,-1,-1,-1,30,25.91352151834083,-9999,69454.96701787501,-0.50836181640625,0.848358154296875,-0.056732177734375,69454.95694250001,0.4635075177348198,-1.479996469250485,-1.029228188544837,-0.002877227729186416,0.04111070185899734,-0.005044089164584875,0.006414115428924561,-0.01280045509338379,-0.008754968643188477,XArbitraryZVertical,-0.2189420138467892,-0.654747102771324,0.4706574435739123,0.5494107581734199,-0.5133568048477173,0.8569014072418213,-0.04674125090241432,0,0,0,-1,-1,69436.46078450001,unknown,2,2025-04-18T14:39:57.870+03:00,2025-04-18T14:06:46.055+03:00,48,7.358232,0,0,40.48506,0,0,2025-04-18T14:40:03.029+03:00,766669216.0135459,0,6.320007,100.354,1,0.25,2025-04-18T14:32:39.794+03:00,92.00000000000001,1.533333333333333,2025-04-18T08:51:18.885+03:00,0.03057091307199995,0
2025-04-18T14:40:16.486+03:00,1744976414.995466,40.95365572399826,29.14101768181349,94.72507,-1,-1,-1,-1,30,25.91352151834083,-9999,69454.977093875,-0.5122528076171875,0.8495635986328125,-0.0562744140625,69454.96701787501,0.4633004747432326,-1.479782933660895,-1.029192558180025,-0.01101558096706867,0.03866299241781235,-0.01013432163745165,0.00530552864074707,-0.009241938591003418,-0.009710732847452164,XArbitraryZVertical,-0.2190475609451282,-0.6546688735839946,0.4705684226396938,0.5495382465778678,-0.5133774280548096,0.8568830490112305,-0.04685366526246071,0,0,0,-1,-1,69436.46078450001,unknown,2,2025-04-18T14:39:57.870+03:00,2025-04-18T14:06:46.055+03:00,48,7.358232,0,0,40.48506,0,0,2025-04-18T14:40:03.029+03:00,766669216.0135459,0,6.320007,100.354,1,0.25,2025-04-18T14:32:39.794+03:00,92.00000000000001,1.533333333333333,2025-04-18T08:51:18.885+03:00,0.03057091307199995,0
2025-04-18T14:40:16.496+03:00,1744976414.995466,40.95365572399826,29.14101768181349,94.72507,-1,-1,-1,-1,30,25.91352151834083,-9999,69454.98716987501,-0.510528564453125,0.8507843017578125,-0.055023193359375,69454.977093875,0.4630904881239129,-1.479664379890325,-1.029075009382474,-0.004312671720981598,0.02574719116091728,-0.009474656544625759,0.001844882965087891,-0.007380902767181396,-0.01006799936294556,XArbitraryZVertical,-0.2191029098310528,-0.6546236133005694,0.4704691120940016,0.5496550453724772,-0.5134720206260681,0.8568224310874939,-0.04692367836833,0,0,0,-1,-1,69436.46078450001,unknown,2,2025-04-18T14:39:57.870+03:00,2025-04-18T14:06:46.055+03:00,48,7.358232,0,0,40.48506,0,0,2025-04-18T14:40:03.029+03:00,766669216.0135459,0,6.320007,100.354,1,0.25,2025-04-18T14:32:39.794+03:00,92.00000000000001,1.533333333333333,2025-04-18T08:51:18.885+03:00,0.03057091307199995,0
2025-04-18T14:40:16.506+03:00,1744976414.995466,40.95365572399826,29.14101768181349,94.72507,-1,-1,-1,-1,30,25.91352151834083,-9999,69454.997244875,-0.5140228271484375,0.854736328125,-0.056060791015625,69454.98716987501,0.463095629869387,-1.479352942217136,-1.028989552856244,-0.004248156677931547,0.02749881893396378,-0.005762443412095308,0.002269208431243896,-0.006879210472106934,-0.008573882281780243,XArbitraryZVertical,-0.219144453596547,-0.6545460877572766,0.4704156474023693,0.5497764309898268,-0.5135300755500793,0.8567783832550049,-0.04709025472402573,0,0,0,-1,-1,69436.46078450001,unknown,2,2025-04-18T14:39:57.870+03:00,2025-04-18T14:06:46.055+03:00,48,7.358232,0,0,40.48506,0,0,2025-04-18T14:40:03.029+03:00,766669216.0135459,0,6.320007,100.354,1,0.25,2025-04-18T14:32:39.794+03:00,92.00000000000001,1.533333333333333,2025-04-18T08:51:18.885+03:00,0.03057091307199995,0
2025-04-18T14:40:16.516+03:00,1744976414.995466,40.95365572399826,29.14101768181349,94.72507,-1,-1,-1,-1,30,25.91352151834083,-9999,69455.00732087501,-0.509735107421875,0.86126708984375,-0.0552978515625,69454.997244875,0.4631136246892086,-1.4789893178886,-1.028987615786554,-0.009466887451708317,0.030888756737113,-0.00281672109849751,1.066923141479492e-05,-0.003246605396270752,-0.008982054889202118,XArbitraryZVertical,-0.2192234162963486,-0.6544482587564607,0.4703802545634929,0.5498917096591385,-0.5135146379470825,0.8567773699760437,-0.04727714136242867,0,0,0,-1,-1,69436.46078450001,unknown,2,2025-04-18T14:39:57.870+03:00,2025-04-18T14:06:46.055+03:00,48,7.358232,0,0,40.48506,0,0,2025-04-18T14:40:03.029+03:00,766669216.0135459,0,6.320007,100.354,1,0.25,2025-04-18T14:32:39.794+03:00,92.00000000000001,1.533333333333333,2025-04-18T08:51:18.885+03:00,0.03057091307199995,0
2025-04-18T14:40:16.526+03:00,1744976414.995466,40.95365572399826,29.14101768181349,94.72507,-1,-1,-1,-1,30,25.91352151834083,-9999,69455.017396875,-0.505523681640625,0.860870361328125,-0.055908203125,69455.00732087501,0.4630847435366931,-1.478692170035283,-1.02898051884839,-0.009749049320816994,0.01862210221588612,-0.00422440143302083,0.002902030944824219,0.003700017929077148,-0.007714994251728058,XArbitraryZVertical,-0.2193002986743308,-0.6543639828477206,0.4703379106549251,0.5499976974829452,-0.5135068893432617,0.8567736744880676,-0.04743031412363052,0,0,0,-1,-1,69436.46078450001,unknown,2,2025-04-18T14:39:57.870+03:00,2025-04-18T14:06:46.055+03:00,48,7.358232,0,0,40.48506,0,0,2025-04-18T14:40:03.029+03:00,766669216.0135459,0,6.320007,100.354,1,0.25,2025-04-18T14:32:39.794+03:00,92.00000000000001,1.533333333333333,2025-04-18T08:51:18.885+03:00,0.03057091307199995,0
2025-04-18T14:40:16.536+03:00,1744976414.995466,40.95365572399826,29.14101768181349,94.72507,-1,-1,-1,-1,30,25.91352151834083,-9999,69455.02747287501,-0.5045013427734375,0.854766845703125,-0.0542755126953125,69455.017396875,0.4629286976803261,-1.478656309533645,-1.028978558031556,-0.01597951352596283,0.007841627113521099,4.864041693508625e-05,0.008074581623077393,0.003868758678436279,-0.008108437061309814,XArbitraryZVertical,-0.2193590700738268,-0.6543371956918258,0.4702906500772824,0.5500464469794041,-0.5135066509246826,0.8567726612091064,-0.04744886606931686,0,0,0,-1,-1,69436.46078450001,unknown,2,2025-04-18T14:39:57.870+03:00,2025-04-18T14:06:46.055+03:00,48,7.358232,0,0,40.48506,0,0,2025-04-18T14:40:03.029+03:00,766669216.0135459,0,6.320007,100.354,1,0.25,2025-04-18T14:32:39.794+03:00,92.00000000000001,1.533333333333333,2025-04-18T08:51:18.885+03:00,0.03057091307199995,0
2025-04-18T14:40:16.547+03:00,1744976414.995466,40.95365572399826,29.14101768181349,94.72507,-1,-1,-1,-1,30,25.91352151834083,-9999,69455.037548875,-0.506378173828125,0.851409912109375,-0.05206298828125,69455.02747287501,0.4627125528145447,-1.478759424227079,-1.028982339903638,-0.0194398257881403,0.00337330880574882,-0.0008551365463063121,0.009693622589111328,-0.001260221004486084,-0.006345860660076141,XArbitraryZVertical,-0.2194068508257241,-0.654341524538676,0.4702434777401009,0.5500625107978018,-0.5135082006454468,0.856774628162384,-0.04739560559391975,0,0,0,-1,-1,69436.46078450001,unknown,2,2025-04-18T14:39:57.870+03:00,2025-04-18T14:06:46.055+03:00,48,7.358232,0,0,40.48506,0,0,2025-04-18T14:40:03.029+03:00,766669216.0135459,0,6.320007,100.354,1,0.25,2025-04-18T14:32:39.794+03:00,92.00000000000001,1.533333333333333,2025-04-18T08:51:18.885+03:00,0.03057091307199995,0
2025-04-18T14:40:16.557+03:00,1744976414.995466,40.95365572399826,29.14101768181349,94.72507,-1,-1,-1,-1,30,25.91352151834083,-9999,69455.04762487501,-0.509735107421875,0.849639892578125,-0.0543212890625,69455.037548875,0.4623498746450923,-1.478967316545913,-1.029028122709382,-0.02863598614931107,0.007795221172273159,0.006312761455774307,0.007772326469421387,-0.005144238471984863,-0.004899859428405762,XArbitraryZVertical,-0.2194927150245932,-0.6543548868416428,0.4701776798029888,0.5500686405270836,-0.5134790539741516,0.8567982316017151,-0.04728525876998901,0,0,0,-1,-1,69436.46078450001,unknown,2,2025-04-18T14:39:57.870+03:00,2025-04-18T14:06:46.055+03:00,48,7.358232,0,0,40.48506,0,0,2025-04-18T14:40:03.029+03:00,766669216.0135459,0,6.320007,100.354,1,0.25,2025-04-18T14:32:39.794+03:00,92.00000000000001,1.533333333333333,2025-04-18T08:51:18.885+03:00,0.03057091307199995,0
2025-04-18T14:40:16.567+03:00,1744976414.995466,40.95365572399826,29.14101768181349,94.72507,-1,-1,-1,-1,30,25.91352151834083,-9999,69455.057700875,-0.5089263916015625,0.843902587890625,-0.0580902099609375,69455.04762487501,0.4618992971315797,-1.479301264411176,-1.029149259784711,-0.03516525775194168,-0.006348560564219952,0.01123148668557405,0.003793835639953613,-0.006656289100646973,-0.006454106420278549,XArbitraryZVertical,-0.2196041630092632,-0.6543866277992064,0.4701199408519822,0.5500357850383379,-0.5133915543556213,0.8568606972694397,-0.04710430651903152,0,0,0,-1,-1,69436.46078450001,unknown,2,2025-04-18T14:39:57.870+03:00,2025-04-18T14:06:46.055+03:00,48,7.358232,0,0,40.48506,0,0,2025-04-18T14:40:03.029+03:00,766669216.0135459,0,6.320007,100.354,1,0.25,2025-04-18T14:32:39.794+03:00,92.00000000000001,1.533333333333333,2025-04-18T08:51:18.885+03:00,0.03057091307199995,0
2025-04-18T14:40:16.577+03:00,1744976414.995466,40.95365572399826,29.14101768181349,94.72507,-1,-1,-1,-1,30,25.91352151834083,-9999,69455.067776875,-0.507476806640625,0.84429931640625,-0.060577392578125,69455.057700875,0.4613989652033652,-1.479784998033974,-1.029285273099101,-0.03437962383031845,-0.01286052260547876,0.0143814729526639,0.004158258438110352,-0.01229584217071533,-0.01074135303497314,XArbitraryZVertical,-0.2197019093005438,-0.6544527393443085,0.4700686577628383,0.5499619339612173,-0.5132982134819031,0.8569307923316956,-0.04684536531567574,0,0,0,-1,-1,69436.46078450001,unknown,2,2025-04-18T14:39:57.870+03:00,2025-04-18T14:06:46.055+03:00,48,7.358232,0,0,40.48506,0,0,2025-04-18T14:40:03.029+03:00,766669216.0135459,0,6.320007,100.354,1,0.25,2025-04-18T14:32:39.794+03:00,92.00000000000001,1.533333333333333,2025-04-18T08:51:18.885+03:00,0.03057091307199995,0
2025-04-18T14:40:16.587+03:00,1744976414.995466,40.95365572399826,29.14101768181349,94.72507,-1,-1,-1,-1,30,25.91352151834083,-9999,69455.07785287501,-0.510101318359375,0.8458709716796875,-0.05999755859375,69455.067776875,0.4608850156320848,-1.480354426620039,-1.029484212669217,-0.03843062743544579,-0.02064900286495686,0.02228370495140553,0.005586683750152588,-0.0131765604019165,-0.01374989748001099,XArbitraryZVertical,-0.2198060572534875,-0.6545353011275183,0.4700384887326096,0.549847837721439,-0.5131550431251526,0.8570333123207092,-0.04653767496347427,0,0,0,-1,-1,69436.46078450001,unknown,2,2025-04-18T14:39:57.870+03:00,2025-04-18T14:06:46.055+03:00,48,7.358232,0,0,40.48506,0,0,2025-04-18T14:40:03.029+03:00,766669216.0135459,0,6.320007,100.354,1,0.25,2025-04-18T14:32:39.794+03:00,92.00000000000001,1.533333333333333,2025-04-18T08:51:18.885+03:00,0.03057091307199995,0
2025-04-18T14:40:16.597+03:00,1744976414.995466,40.95365572399826,29.14101768181349,94.72507,-1,-1,-1,-1,30,25.91352151834083,-9999,69455.087928875,-0.5053863525390625,0.8495330810546875,-0.0562591552734375,69455.07785287501,0.460284420371544,-1.481081300149805,-1.029716049373385,-0.04138433933258057,-0.03216797485947609,0.0215326938778162,0.002935349941253662,-0.01128172874450684,-0.01455265656113625,XArbitraryZVertical,-0.2199131151362327,-0.6546486007148298,0.4700099310017068,0.5496945556006453,-0.5129908323287964,0.8571527600288391,-0.04614686220884323,0,0,0,-1,-1,69436.46078450001,unknown,2,2025-04-18T14:39:57.870+03:00,2025-04-18T14:06:46.055+03:00,48,7.358232,0,0,40.48506,0,0,2025-04-18T14:40:03.029+03:00,766669216.0135459,0,6.320007,100.354,1,0.25,2025-04-18T14:32:39.794+03:00,92.00000000000001,1.533333333333333,2025-04-18T08:51:18.885+03:00,0.03057091307199995,0
2025-04-18T14:40:16.607+03:00,1744976414.995466,40.95365572399826,29.14101768181349,94.72507,-1,-1,-1,-1,30,25.91352151834083,-9999,69455.09800487501,-0.5039825439453125,0.854095458984375,-0.0514068603515625,69455.087928875,0.4596933236353574,-1.48194218863627,-1.029952934296368,-0.03698426485061646,-0.04442384093999863,0.01283880416303873,0.00683140754699707,-0.008809804916381836,-0.01069408655166626,XArbitraryZVertical,-0.2199873358694098,-0.6547991882196257,0.4700001287554085,0.5494937956953339,-0.5128280520439148,0.8572747707366943,-0.04568719118833542,0,0,0,-1,-1,69436.46078450001,unknown,2,2025-04-18T14:39:57.870+03:00,2025-04-18T14:06:46.055+03:00,48,7.358232,0,0,40.48506,0,0,2025-04-18T14:40:03.029+03:00,766669216.0135459,0,6.320007,100.354,1,0.25,2025-04-18T14:32:39.794+03:00,92.00000000000001,1.533333333333333,2025-04-18T08:51:18.885+03:00,0.03057091307199995,0
2025-04-18T14:40:16.617+03:00,1744976414.995466,40.95365572399826,29.14101768181349,94.72507,-1,-1,-1,-1,30,25.91352151834083,-9999,69455.108080875,-0.506988525390625,0.8533935546875,-0.05047607421875,69455.09800487501,0.4590836068495656,-1.482914162508592,-1.030204161878762,-0.04632317274808884,-0.0537068247795105,0.01658587343990803,0.008873522281646729,-0.002942442893981934,-0.006130337715148926,XArbitraryZVertical,-0.2200466079877858,-0.6549767812521365,0.4700010383577984,0.5492575989614825,-0.5126577019691467,0.8574040532112122,-0.04516981169581413,0,0,0,-1,-1,69436.46078450001,unknown,2,2025-04-18T14:39:57.870+03:00,2025-04-18T14:06:46.055+03:00,48,7.358232,0,0,40.48506,0,0,2025-04-18T14:40:03.029+03:00,766669216.0135459,0,6.320007,100.354,1,0.25,2025-04-18T14:32:39.794+03:00,92.00000000000001,1.533333333333333,2025-04-18T08:51:18.885+03:00,0.03057091307199995,0
2025-04-18T14:40:16.627+03:00,1744976414.995466,40.95365572399826,29.14101768181349,94.72507,-1,-1,-1,-1,30,25.91352151834083,-9999,69455.118156875,-0.510223388671875,0.8568878173828125,-0.044677734375,69455.108080875,0.4584323935649208,-1.483926317248361,-1.030502124865097,-0.04324482381343842,-0.04107385128736496,0.02248557284474373,0.005414307117462158,-0.004133343696594238,-0.006152570247650146,XArbitraryZVertical,-0.2201263960325871,-0.655156473878822,0.470006617648709,0.5490064621169521,-0.5124485492706299,0.8575573563575745,-0.04462872818112373,0,0,0,-1,-1,69436.46078450001,unknown,2,2025-04-18T14:39:57.870+03:00,2025-04-18T14:06:46.055+03:00,48,7.358232,0,0,40.48506,0,0,2025-04-18T14:40:03.029+03:00,766669216.0135459,0,6.320007,100.354,1,0.25,2025-04-18T14:32:39.794+03:00,92.00000000000001,1.533333333333333,2025-04-18T08:51:18.885+03:00,0.03057091307199995,0
2025-04-18T14:40:16.637+03:00,1744976414.995466,40.95365572399826,29.14101768181349,94.72507,-1,-1,-1,-1,30,25.91352151834083,-9999,69455.12823287501,-0.514892578125,0.8651123046875,-0.0404510498046875,69455.118156875,0.4577252828351791,-1.484779044947809,-1.030803338926429,-0.04667550697922707,-0.02093848772346973,0.02517776191234589,0.003028154373168945,-0.002045214176177979,-0.001942574977874756,XArbitraryZVertical,-0.2202631304554949,-0.6552857227822547,0.4699802338588663,0.5488199762638583,-0.5122291445732117,0.8577122688293457,-0.04416954889893532,0,0,0,-1,-1,69436.46078450001,unknown,2,2025-04-18T14:39:57.870+03:00,2025-04-18T14:06:46.055+03:00,48,7.358232,0,0,40.48506,0,0,2025-04-18T14:40:03.029+03:00,766669216.0135459,0,6.320007,100.354,1,0.25,2025-04-18T14:32:39.794+03:00,92.00000000000001,1.533333333333333,2025-04-18T08:51:18.885+03:00,0.03057091307199995,0
2025-04-18T14:40:16.647+03:00,1744976414.995466,40.95365572399826,29.14101768181349,94.72507,-1,-1,-1,-1,30,25.91352151834083,-9999,69455.138308875,-0.5134429931640625,0.86102294921875,-0.03863525390625,69455.12823287501,0.4570351759556003,-1.485473915958839,-1.03111471412631,-0.04434550553560257,-0.01161795668303967,0.03288721293210983,-0.002517640590667725,0.006843149662017822,0.002912465482950211,XArbitraryZVertical,-0.2204349076650968,-0.6553724418681902,0.4699438983339458,0.5486784612567082,-0.511993408203125,0.8578723073005676,-0.04379082843661308,0,0,0,-1,-1,69436.46078450001,unknown,2,2025-04-18T14:39:57.870+03:00,2025-04-18T14:06:46.055+03:00,48,7.358232,0,0,40.48506,0,0,2025-04-18T14:40:03.029+03:00,766669216.0135459,0,6.320007,100.354,1,0.25,2025-04-18T14:32:39.794+03:00,92.00000000000001,1.533333333333333,2025-04-18T08:51:18.885+03:00,0.03057091307199995,0
2025-04-18T14:40:16.657+03:00,1744976414.995466,40.95365572399826,29.14101768181349,94.72507,-1,-1,-1,-1,30,25.91352151834083,-9999,69455.14838487501,-0.517242431640625,0.861846923828125,-0.04083251953125,69455.138308875,0.4564318334412988,-1.485964119911301,-1.031424346707025,-0.04420702159404755,-0.001239352859556675,0.02993802912533283,-0.001540064811706543,0.00390702486038208,0.00453108549118042,XArbitraryZVertical,-0.2206257802679726,-0.6554125355020741,0.4699083968210043,0.5485843311614335,-0.5117502808570862,0.8580313920974731,-0.0435173474252224,0,0,0,-1,-1,69436.46078450001,unknown,2,2025-04-18T14:39:57.870+03:00,2025-04-18T14:06:46.055+03:00,48,7.358232,0,0,40.48506,0,0,2025-04-18T14:40:03.029+03:00,766669216.0135459,0,6.320007,100.354,1,0.25,2025-04-18T14:32:39.794+03:00,92.00000000000001,1.533333333333333,2025-04-18T08:51:18.885+03:00,0.03057091307199995,0
2025-04-18T14:40:16.668+03:00,1744976414.995466,40.95365572399826,29.14101768181349,94.72507,-1,-1,-1,-1,30,25.91352151834083,-9999,69455.158460875,-0.5146484375,0.864227294921875,-0.0406951904296875,69455.14838487501,0.4559246808399546,-1.486319797818896,-1.031710834593073,-0.04113127291202545,-0.001693088561296463,0.02715319395065308,-0.005157113075256348,0.002768099308013916,0.002054810523986816,XArbitraryZVertical,-0.2208085969688867,-0.6554283140786279,0.469878929437252,0.548517128072869,-0.5115206837654114,0.8581784963607788,-0.04331457614898682,0,0,0,-1,-1,69436.46078450001,unknown,2,2025-04-18T14:39:57.870+03:00,2025-04-18T14:06:46.055+03:00,48,7.358232,0,0,40.48506,0,0,2025-04-18T14:40:03.029+03:00,766669216.0135459,0,6.320007,100.354,1,0.25,2025-04-18T14:32:39.794+03:00,92.00000000000001,1.533333333333333,2025-04-18T08:51:18.885+03:00,0.03057091307199995,0
2025-04-18T14:40:16.678+03:00,1744976414.995466,40.95365572399826,29.14101768181349,94.72507,-1,-1,-1,-1,30,25.91352151834083,-9999,69455.168536875,-0.51226806640625,0.8598785400390625,-0.0420074462890625,69455.158460875,0.4553461075582912,-1.48674388790571,-1.031967921016489,-0.04917161911725998,0.0007748627103865147,0.02783256769180298,-0.003298580646514893,0.006008505821228027,0.00244491919875145,XArbitraryZVertical,-0.2209884947309778,-0.6554574868464846,0.4698301932107204,0.5484516654260444,-0.5113193392753601,0.8583104610443115,-0.04307913780212402,0,0,0,-1,-1,69436.46078450001,unknown,2,2025-04-18T14:39:57.870+03:00,2025-04-18T14:06:46.055+03:00,48,7.358232,0,0,40.48506,0,0,2025-04-18T14:40:03.029+03:00,766669216.0135459,0,6.320007,100.354,1,0.25,2025-04-18T14:32:39.794+03:00,92.00000000000001,1.533333333333333,2025-04-18T08:51:18.885+03:00,0.03057091307199995,0
2025-04-18T14:40:16.688+03:00,1744976414.995466,40.95365572399826,29.14101768181349,94.72507,-1,-1,-1,-1,30,25.91352151834083,-9999,69455.17861287501,-0.5121002197265625,0.8559417724609375,-0.0426177978515625,69455.168536875,0.4547558635461439,-1.487179466653386,-1.032233666594675,-0.03890680149197578,-0.0001613050699234009,0.02075664885342121,-0.00126415491104126,0.002179384231567383,0.0006315112113952637,XArbitraryZVertical,-0.221172498860072,-0.6554876420938293,0.469781841416578,0.5483828266081441,-0.5111106634140015,0.8584467768669128,-0.04283735528588295,0,0,0,-1,-1,69436.46078450001,unknown,2,2025-04-18T14:39:57.870+03:00,2025-04-18T14:06:46.055+03:00,48,7.358232,0,0,40.48506,0,0,2025-04-18T14:40:03.029+03:00,766669216.0135459,0,6.320007,100.354,1,0.25,2025-04-18T14:32:39.794+03:00,92.00000000000001,1.533333333333333,2025-04-18T08:51:18.885+03:00,0.03057091307199995,0
2025-04-18T14:40:16.698+03:00,1744976414.995466,40.95365572399826,29.14101768181349,94.72507,-1,-1,-1,-1,30,25.91352151834083,-9999,69455.188688875,-0.51055908203125,0.855865478515625,-0.042327880859375,69455.17861287501,0.4541589932303781,-1.487662600338399,-1.032475453341484,-0.04157129302620888,-0.001893957611173391,0.01475441642105579,-0.001191139221191406,-0.002384960651397705,-0.0005176626145839691,XArbitraryZVertical,-0.22133911182755,-0.6555321635980644,0.4697311743804296,0.548305681504102,-0.5109242796897888,0.8585707545280457,-0.04257316142320633,0,0,0,-1,-1,69436.46078450001,unknown,2,2025-04-18T14:39:57.870+03:00,2025-04-18T14:06:46.055+03:00,48,7.358232,0,0,40.48506,0,0,2025-04-18T14:40:03.029+03:00,766669216.0135459,0,6.320007,100.354,1,0.25,2025-04-18T14:32:39.794+03:00,92.00000000000001,1.533333333333333,2025-04-18T08:51:18.885+03:00,0.03057091307199995,0
2025-04-18T14:40:16.708+03:00,1744976414.995466,40.95365572399826,29.14101768181349,94.72507,-1,-1,-1,-1,30,25.91352151834083,-9999,69455.19876487501,-0.50677490234375,0.855743408203125,-0.0393829345703125,69455.188688875,0.4534359204662765,-1.488265324428708,-1.032623673898336,-0.04977809265255928,-0.001337623223662376,0.007559887133538723,-0.0002548098564147949,-0.002430438995361328,0.0003540553152561188,XArbitraryZVertical,-0.2214863480303614,-0.655603876793571,0.4696361771262393,0.5482418195836688,-0.5108228921890259,0.8586467504501343,-0.04225470870733261,0,0,0,-1,-1,69436.46078450001,unknown,2,2025-04-18T14:39:57.870+03:00,2025-04-18T14:06:46.055+03:00,48,7.358232,0,0,40.48506,0,0,2025-04-18T14:40:03.029+03:00,766669216.0135459,0,6.320007,100.354,1,0.25,2025-04-18T14:32:39.794+03:00,92.00000000000001,1.533333333333333,2025-04-18T08:51:18.885+03:00,0.03057091307199995,0
2025-04-18T14:40:16.718+03:00,1744976414.995466,40.95365572399826,29.14101768181349,94.72507,-1,-1,-1,-1,30,25.91352151834083,-9999,69455.208840875,-0.5040435791015625,0.860443115234375,-0.03643798828125,69455.19876487501,0.452622545549778,-1.488995589629865,-1.032669441667108,-0.04199953004717827,-0.01156655885279179,-0.006201465614140034,0.0032767653465271,-0.003628790378570557,0.002205554395914078,XArbitraryZVertical,-0.221597529590545,-0.6557097740800749,0.4695053737145287,0.5481822999244861,-0.5108145475387573,0.8586702346801758,-0.04187845438718796,0,0,0,-1,-1,69436.46078450001,unknown,2,2025-04-18T14:39:57.870+03:00,2025-04-18T14:06:46.055+03:00,48,7.358232,0,0,40.48506,0,0,2025-04-18T14:40:03.029+03:00,766669216.0135459,0,6.320007,100.354,1,0.25,2025-04-18T14:32:39.794+03:00,92.00000000000001,1.533333333333333,2025-04-18T08:51:18.885+03:00,0.03057091307199995,0
2025-04-18T14:40:16.728+03:00,1744976414.995466,40.95365572399826,29.14101768181349,94.72507,-1,-1,-1,-1,30,25.91352151834083,-9999,69455.218916875,-0.5030517578125,0.863739013671875,-0.0355682373046875,69455.208840875,0.4518000694246135,-1.48992864856524,-1.03261040107475,-0.03902384638786316,-0.03032466769218445,-0.01103716716170311,0.006112754344940186,0.0009791254997253418,0.005257789045572281,XArbitraryZVertical,-0.221627597343569,-0.6558797555267082,0.469368804024032,0.5480837234873103,-0.5109038949012756,0.8586399555206299,-0.04140590876340866,0,0,0,-1,-1,69436.46078450001,unknown,2,2025-04-18T14:39:57.870+03:00,2025-04-18T14:06:46.055+03:00,48,7.358232,0,0,40.48506,0,0,2025-04-18T14:40:03.029+03:00,766669216.0135459,0,6.320007,100.354,1,0.25,2025-04-18T14:32:39.794+03:00,92.00000000000001,1.533333333333333,2025-04-18T08:51:18.885+03:00,0.03057091307199995,0
2025-04-18T14:40:16.738+03:00,1744976414.995466,40.95365572399826,29.14101768181349,94.72507,-1,-1,-1,-1,30,25.91352151834083,-9999,69455.22899287501,-0.5073089599609375,0.8631134033203125,-0.036712646484375,69455.218916875,0.4510631874653004,-1.490937653216973,-1.032498287068403,-0.02941196598112583,-0.03368610888719559,-0.01320178434252739,0.008508682250976562,0.005003929138183594,0.004872024059295654,XArbitraryZVertical,-0.2215934350530321,-0.6560848331958531,0.4692509422544008,0.5479531135829947,-0.5110415816307068,0.8585824966430664,-0.04089808091521263,0,0,0,-1,-1,69436.46078450001,unknown,2,2025-04-18T14:39:57.870+03:00,2025-04-18T14:06:46.055+03:00,48,7.358232,0,0,40.48506,0,0,2025-04-18T14:40:03.029+03:00,766669216.0135459,0,6.320007,100.354,1,0.25,2025-04-18T14:32:39.794+03:00,92.00000000000001,1.533333333333333,2025-04-18T08:51:18.885+03:00,0.03057091307199995,0
2025-04-18T14:40:16.748+03:00,1744976414.995466,40.95365572399826,29.14101768181349,94.72507,-1,-1,-1,-1,30,25.91352151834083,-9999,69455.239068875,-0.5169219970703125,0.86578369140625,-0.0417938232421875,69455.22899287501,0.4506142525193553,-1.491609269659873,-1.032390983830871,-0.01777168922126293,-0.02381097339093685,-0.00384177197702229,0.005042076110839844,0.004769027233123779,0.004230916500091553,XArbitraryZVertical,-0.2215457318737454,-0.6562289379645661,0.4691758419843435,0.5478641587561625,-0.5111607909202576,0.8585274815559387,-0.04056213796138763,0,0,0,-1,-1,69436.46078450001,unknown,2,2025-04-18T14:39:57.870+03:00,2025-04-18T14:06:46.055+03:00,48,7.358232,0,0,40.48506,0,0,2025-04-18T14:40:03.029+03:00,766669216.0135459,0,6.320007,100.354,1,0.25,2025-04-18T14:32:39.794+03:00,92.00000000000001,1.533333333333333,2025-04-18T08:51:18.885+03:00,0.03057091307199995,0
2025-04-18T14:40:16.758+03:00,1744976414.995466,40.95365572399826,29.14101768181349,94.72507,-1,-1,-1,-1,30,25.91352151834083,-9999,69455.24914487501,-0.512542724609375,0.8616790771484375,-0.043121337890625,69455.239068875,0.4502381088999214,-1.492148686971285,-1.032406011187246,-0.01689630746841431,-0.02066498063504696,0.002857409883290529,-0.004577279090881348,0.006470322608947754,-0.0008065700531005859,XArbitraryZVertical,-0.2215478630826489,-0.6563336418266595,0.4691362843253614,0.5477717345242372,-0.5111697316169739,0.8585351705551147,-0.0402853898704052,0,0,0,-1,-1,69436.46078450001,unknown,2,2025-04-18T14:39:57.870+03:00,2025-04-18T14:06:46.055+03:00,48,7.358232,0,0,40.48506,0,0,2025-04-18T14:40:03.029+03:00,766669216.0135459,0,6.320007,100.354,1,0.25,2025-04-18T14:32:39.794+03:00,92.00000000000001,1.533333333333333,2025-04-18T08:51:18.885+03:00,0.03057091307199995,0
2025-04-18T14:40:16.768+03:00,1744976414.995466,40.95365572399826,29.14101768181349,94.72507,-1,-1,-1,-1,30,25.91352151834083,-9999,69455.259220875,-0.5055999755859375,0.8616485595703125,-0.040740966796875,69455.24914487501,0.4500693318743044,-1.492552238727319,-1.032424851610667,-0.002918639918789268,-0.03396207839250565,-0.001060732640326023,-0.001922130584716797,0.003881931304931641,-0.003226697444915771,XArbitraryZVertical,-0.2215151616277542,-0.656423730344284,0.4691394220509851,0.5476743129498389,-0.5111698508262634,0.8585448265075684,-0.04007783904671669,0,0,0,-1,-1,69436.46078450001,unknown,2,2025-04-18T14:39:57.870+03:00,2025-04-18T14:06:46.055+03:00,48,7.358232,0,0,40.48506,0,0,2025-04-18T14:40:03.029+03:00,766669216.0135459,0,6.320007,100.354,1,0.25,2025-04-18T14:32:39.794+03:00,92.00000000000001,1.533333333333333,2025-04-18T08:51:18.885+03:00,0.03057091307199995,0
2025-04-18T14:40:16.778+03:00,1744976414.995466,40.95365572399826,29.14101768181349,94.72507,-1,-1,-1,-1,30,25.91352151834083,-9999,69455.26929687501,-0.4970550537109375,0.8658599853515625,-0.0401153564453125,69455.259220875,0.4500422458061384,-1.493027435706294,-1.032378190842746,-0.003957272507250309,-0.05864612013101578,-0.005369727499783039,0.004758954048156738,0.003509044647216797,-0.0007199011743068695,XArbitraryZVertical,-0.2213962855014755,-0.6565551563115862,0.469173154226101,0.5475358210658169,-0.5112285614013672,0.8585209250450134,-0.0398380234837532,0,0,0,-1,-1,69436.46078450001,unknown,2,2025-04-18T14:39:57.870+03:00,2025-04-18T14:06:46.055+03:00,48,7.358232,0,0,40.48506,0,0,2025-04-18T14:40:03.029+03:00,766669216.0135459,0,6.320007,100.354,1,0.25,2025-04-18T14:32:39.794+03:00,92.00000000000001,1.533333333333333,2025-04-18T08:51:18.885+03:00,0.03057091307199995,0
2025-04-18T14:40:16.789+03:00,1744976414.995466,40.95365572399826,29.14101768181349,94.72507,-1,-1,-1,-1,30,25.91352151834083,-9999,69455.27937287501,-0.492401123046875,0.87823486328125,-0.0378875732421875,69455.26929687501,0.4499829132830461,-1.493832092133483,-1.032244864223087,-0.003719052998349071,-0.08979804813861847,-0.01825842820107937,0.01314491033554077,0.006858229637145996,-0.001030866056680679,XArbitraryZVertical,-0.2211805835577039,-0.6567810985995516,0.4692128193820452,0.5473181700820384,-0.5113749504089355,0.8584524989128113,-0.03943547606468201,0,0,0,-1,-1,69436.46078450001,unknown,2,2025-04-18T14:39:57.870+03:00,2025-04-18T14:06:46.055+03:00,48,7.358232,0,0,40.48506,0,0,2025-04-18T14:40:03.029+03:00,766669216.0135459,0,6.320007,100.354,1,0.25,2025-04-18T14:32:39.794+03:00,92.00000000000001,1.533333333333333,2025-04-18T08:51:18.885+03:00,0.03057091307199995,0
2025-04-18T14:40:16.798+03:00,1744976414.995466,40.95365572399826,29.14101768181349,94.72507,-1,-1,-1,-1,30,25.91352151834083,-9999,69455.289448875,-0.4937591552734375,0.8924407958984375,-0.036407470703125,69455.27937287501,0.4499059501934642,-1.49497722756814,-1.032038472809959,-0.003520381171256304,-0.1239341795444489,-0.02663353644311428,0.01892048120498657,0.01785886287689209,0.001219805330038071,XArbitraryZVertical,-0.2208652671609598,-0.6571049390104916,0.4692672347551602,0.5470099922030188,-0.5115962624549866,0.8583466410636902,-0.03886326402425766,0,0,0,-1,-1,69436.46078450001,unknown,2,2025-04-18T14:39:57.870+03:00,2025-04-18T14:06:46.055+03:00,48,7.358232,0,0,40.48506,0,0,2025-04-18T14:40:03.029+03:00,766669216.0135459,0,6.320007,100.354,1,0.25,2025-04-18T14:32:39.794+03:00,92.00000000000001,1.533333333333333,2025-04-18T08:51:18.885+03:00,0.03057091307199995,0
2025-04-18T14:40:16.809+03:00,1744976414.995466,40.95365572399826,29.14101768181349,94.72507,-1,-1,-1,-1,30,25.91352151834083,-9999,69455.29952487501,-0.4935302734375,0.8950347900390625,-0.035736083984375,69455.289448875,0.4497757057259473,-1.496550308216295,-1.031786267546363,-0.003150734584778547,-0.1620291024446487,-0.03452448174357414,0.01779299974441528,0.03205674886703491,0.002063695341348648,XArbitraryZVertical,-0.2204511003676607,-0.6575439691255955,0.4693426853893929,0.5465845267202156,-0.5118724703788757,0.8582172393798828,-0.03807448223233223,0,0,0,-1,-1,69436.46078450001,unknown,2,2025-04-18T14:39:57.870+03:00,2025-04-18T14:06:46.055+03:00,48,7.358232,0,0,40.48506,0,0,2025-04-18T14:40:03.029+03:00,766669216.0135459,0,6.320007,100.354,1,0.25,2025-04-18T14:32:39.794+03:00,92.00000000000001,1.533333333333333,2025-04-18T08:51:18.885+03:00,0.03057091307199995,0
2025-04-18T14:40:16.819+03:00,1744976414.995466,40.95365572399826,29.14101768181349,94.72507,-1,-1,-1,-1,30,25.91352151834083,-9999,69455.309600875,-0.4955902099609375,0.89080810546875,-0.032867431640625,69455.29952487501,0.4496659173348751,-1.498419748282752,-1.03157628626327,0.002112204441800714,-0.1836323887109756,-0.02466413006186485,0.01944690942764282,0.03669655323028564,0.001409705728292465,XArbitraryZVertical,-0.2199753940875653,-0.6580619679471682,0.4694663290160332,0.5460464202190701,-0.5121226906776428,0.8581094145774841,-0.03713054582476616,0,0,0,-1,-1,69436.46078450001,unknown,2,2025-04-18T14:39:57.870+03:00,2025-04-18T14:06:46.055+03:00,48,7.358232,0,0,40.48506,0,0,2025-04-18T14:40:03.029+03:00,766669216.0135459,0,6.320007,100.354,1,0.25,2025-04-18T14:32:39.794+03:00,92.00000000000001,1.533333333333333,2025-04-18T08:51:18.885+03:00,0.03057091307199995,0
2025-04-18T14:40:16.829+03:00,1744976414.995466,40.95365572399826,29.14101768181349,94.72507,-1,-1,-1,-1,30,25.91352151834083,-9999,69455.31967687501,-0.482879638671875,0.893341064453125,-0.033843994140625,69455.309600875,0.4498067795884749,-1.499937957211665,-1.031701042883774,0.008878231979906559,-0.1378755569458008,0.0274355560541153,0.01614570617675781,0.03225314617156982,0.003096461296081543,XArbitraryZVertical,-0.2196159457889892,-0.6584801692958406,0.4697026684459896,0.5454833692677081,-0.5120715498924255,0.8581734895706177,-0.03634540736675262,0,0,0,-1,-1,69436.46078450001,unknown,2,2025-04-18T14:39:57.870+03:00,2025-04-18T14:06:46.055+03:00,48,7.358232,0,0,40.48506,0,0,2025-04-18T14:40:03.029+03:00,766669216.0135459,0,6.320007,100.354,1,0.25,2025-04-18T14:32:39.794+03:00,92.00000000000001,1.533333333333333,2025-04-18T08:51:18.885+03:00,0.03057091307199995,0
2025-04-18T14:40:16.839+03:00,1744976414.995466,40.95365572399826,29.14101768181349,94.72507,-1,-1,-1,-1,30,25.91352151834083,-9999,69455.329752875,-0.4685516357421875,0.87493896484375,-0.038482666015625,69455.31967687501,0.449887041001282,-1.500893278129572,-1.032075044120171,-0.01588384062051773,-0.09230354428291321,0.05293292552232742,0.02663278579711914,0.03557074069976807,0.00231015682220459,XArbitraryZVertical,-0.2194951355919379,-0.6587146540182443,0.4699224600260217,0.5450594441858817,-0.5117859244346619,0.8583654165267944,-0.03583377972245216,0,0,0,-1,-1,69436.46078450001,unknown,2,2025-04-18T14:39:57.870+03:00,2025-04-18T14:06:46.055+03:00,48,7.358232,0,0,40.48506,0,0,2025-04-18T14:40:03.029+03:00,766669216.0135459,0,6.320007,100.354,1,0.25,2025-04-18T14:32:39.794+03:00,92.00000000000001,1.533333333333333,2025-04-18T08:51:18.885+03:00,0.03057091307199995,0
2025-04-18T14:40:16.849+03:00,1744976414.995466,40.95365572399826,29.14101768181349,94.72507,-1,-1,-1,-1,30,25.91352151834083,-9999,69455.339828875,-0.4986114501953125,0.8643951416015625,-0.0213775634765625,69455.329752875,0.449431249484325,-1.502814137090016,-1.032778045458504,-0.05082830786705017,-0.2201129794120789,0.03819988667964935,0.04120451211929321,0.0198293924331665,-0.004008829593658447,XArbitraryZVertical,-0.2194380748254212,-0.6591222295659611,0.4701842140072022,0.5443634489843845,-0.5112514495849609,0.8587258458137512,-0.03480963408946991,0,0,0,-1,-1,69436.46078450001,unknown,2,2025-04-18T14:39:57.870+03:00,2025-04-18T14:06:46.055+03:00,48,7.358232,0,0,40.48506,0,0,2025-04-18T14:40:03.029+03:00,766669216.0135459,0,6.320007,100.354,1,0.25,2025-04-18T14:32:39.794+03:00,92.00000000000001,1.533333333333333,2025-04-18T08:51:18.885+03:00,0.03057091307199995,0
2025-04-18T14:40:16.859+03:00,1744976414.995466,40.95365572399826,29.14101768181349,94.72507,-1,-1,-1,-1,30,25.91352151834083,-9999,69455.34990487501,-0.5419464111328125,0.67840576171875,-0.0229949951171875,69455.339828875,0.4509972065852638,-1.505578206084927,-1.02913060071878,0.2301016300916672,-0.4387372136116028,-0.4743539690971375,0.02521008253097534,0.009024083614349365,0.009399775415658951,XArbitraryZVertical,-0.2170052224204642,-0.6603851884834226,0.4700017597086879,0.5439654357980424,-0.5144677758216858,0.8568511009216309,-0.03360027074813843,0,0,0,-1,-1,69436.46078450001,unknown,2,2025-04-18T14:39:57.870+03:00,2025-04-18T14:06:46.055+03:00,48,7.358232,0,0,40.48506,0,0,2025-04-18T14:40:03.029+03:00,766669216.0135459,0,6.320007,100.354,1,0.25,2025-04-18T14:32:39.794+03:00,92.00000000000001,1.533333333333333,2025-04-18T08:51:18.885+03:00,0.03057091307199995,0
2025-04-18T14:40:16.869+03:00,1744976414.995466,40.95365572399826,29.14101768181349,94.72507,-1,-1,-1,-1,30,25.91352151834083,-9999,69455.359980875,-0.4670867919921875,0.7059173583984375,-0.0289154052734375,69455.34990487501,0.4525641702376589,-1.510331879995864,-1.024696505117101,0.05860058218240738,-0.7378678321838379,-0.4568694531917572,-0.0291370153427124,-0.1402162909507751,0.01156234368681908,XArbitraryZVertical,-0.2138312592358241,-0.6622570480094599,0.4698289283671106,0.5430954499998817,-0.5184093713760376,0.8545566201210022,-0.03138358891010284,0,0,0,-1,-1,69436.46078450001,unknown,2,2025-04-18T14:39:57.870+03:00,2025-04-18T14:06:46.055+03:00,48,7.358232,0,0,40.48506,0,0,2025-04-18T14:40:03.029+03:00,766669216.0135459,0,6.320007,100.354,1,0.25,2025-04-18T14:32:39.794+03:00,92.00000000000001,1.533333333333333,2025-04-18T08:51:18.885+03:00,0.03057091307199995,0
2025-04-18T14:40:16.879+03:00,1744976414.995466,40.95365572399826,29.14101768181349,94.72507,-1,-1,-1,-1,30,25.91352151834083,-9999,69455.37005687501,-0.6061248779296875,0.835693359375,-0.0338287353515625,69455.359980875,0.4520147534392099,-1.51667918959294,-1.019933426176949,-0.04874211922287941,-0.4883410930633545,-0.4943720698356628,0.05933845043182373,-0.1795726418495178,-0.004143236204981804,XArbitraryZVertical,-0.2108723096266809,-0.6643618873882459,0.4691540504138128,0.5422642668831428,-0.5226562023162842,0.8520731925964355,-0.02831230312585831,0,0,0,-1,-1,69436.46078450001,unknown,2,2025-04-18T14:39:57.870+03:00,2025-04-18T14:06:46.055+03:00,48,7.358232,0,0,40.48506,0,0,2025-04-18T14:40:03.029+03:00,766669216.0135459,0,6.320007,100.354,1,0.25,2025-04-18T14:32:39.794+03:00,92.00000000000001,1.533333333333333,2025-04-18T08:51:18.885+03:00,0.03057091307199995,0
2025-04-18T14:40:16.889+03:00,1744976414.995466,40.95365572399826,29.14101768181349,94.72507,-1,-1,-1,-1,30,25.91352151834083,-9999,69455.380132875,-0.5404205322265625,0.8544921875,-0.026580810546875,69455.37005687501,0.4502219184550162,-1.523039326716011,-1.016250219345516,-0.1041084453463554,-0.4179992973804474,-0.2992672920227051,-0.06805217266082764,-0.0104941725730896,-0.005426108837127686,XArbitraryZVertical,-0.2087035389759103,-0.6662388524048048,0.4684011834077503,0.5414507958617306,-0.5259571671485901,0.8501394987106323,-0.02513724938035011,0,0,0,-1,-1,69436.46078450001,unknown,2,2025-04-18T14:39:57.870+03:00,2025-04-18T14:06:46.055+03:00,48,7.358232,0,0,40.48506,0,0,2025-04-18T14:40:03.029+03:00,766669216.0135459,0,6.320007,100.354,1,0.25,2025-04-18T14:32:39.794+03:00,92.00000000000001,1.533333333333333,2025-04-18T08:51:18.885+03:00,0.03057091307199995,0
2025-04-18T14:40:16.899+03:00,1744976414.995466,40.95365572399826,29.14101768181349,94.72507,-1,-1,-1,-1,30,25.91352151834083,-9999,69455.390208875,-0.5311126708984375,0.89984130859375,-0.0287628173828125,69455.380132875,0.4477186259716015,-1.528427636294819,-1.014318749159995,-0.1243958696722984,-0.2266213446855545,-0.09062140434980392,-0.02729856967926025,-0.005859196186065674,-0.006985604763031006,XArbitraryZVertical,-0.2076102124520925,-0.6676165117587025,0.467791757965735,0.540700544387451,-0.5277245044708252,0.8491209149360657,-0.02237238548696041,0,0,0,-1,-1,69436.46078450001,unknown,2,2025-04-18T14:39:57.870+03:00,2025-04-18T14:06:46.055+03:00,48,7.358232,0,0,40.48506,0,0,2025-04-18T14:40:03.029+03:00,766669216.0135459,0,6.320007,100.354,1,0.25,2025-04-18T14:32:39.794+03:00,92.00000000000001,1.533333333333333,2025-04-18T08:51:18.885+03:00,0.03057091307199995,0
2025-04-18T14:40:16.922+03:00,1744976414.995466,40.95365572399826,29.14101768181349,94.72507,-1,-1,-1,-1,30,25.91352151834083,-9999,69455.40028487501,-0.591400146484375,0.849884033203125,-0.0337982177734375,69455.390208875,0.44576323865992,-1.531549929809207,-1.013857666788197,-0.08344238251447678,-0.08180989325046539,-0.03240939974784851,0.006286442279815674,0.0540308952331543,-0.005734143778681755,XArbitraryZVertical,-0.207374246344849,-0.668300802960202,0.4674691500462946,0.5402244183002367,-0.5281826853752136,0.8488772511482239,-0.02073991671204567,0,0,0,-1,-1,69436.46078450001,unknown,2,2025-04-18T14:39:57.870+03:00,2025-04-18T14:06:46.055+03:00,48,7.358232,0,0,40.48506,0,0,2025-04-18T14:40:03.029+03:00,766669216.0135459,0,6.320007,100.354,1,0.25,2025-04-18T14:32:39.794+03:00,92.00000000000001,1.533333333333333,2025-04-18T08:51:18.885+03:00,0.03057091307199995,0
2025-04-18T14:40:16.924+03:00,1744976414.995466,40.95365572399826,29.14101768181349,94.72507,-1,-1,-1,-1,30,25.91352151834083,-9999,69455.410360875,-0.534637451171875,0.857269287109375,-0.0157318115234375,69455.40028487501,0.4445009202717937,-1.533640807589205,-1.013566593235652,-0.04821488261222839,-0.1272048056125641,-0.04043137654662132,-0.06218045949935913,0.004151344299316406,-0.01587778329849243,XArbitraryZVertical,-0.2072073820561033,-0.668762107040762,0.4672701301586292,0.5398897219048697,-0.5284719467163086,0.8487234115600586,-0.01964469067752361,0,0,0,-1,-1,69436.46078450001,unknown,2,2025-04-18T14:39:57.870+03:00,2025-04-18T14:06:46.055+03:00,48,7.358232,0,0,40.48506,0,0,2025-04-18T14:40:03.029+03:00,766669216.0135459,0,6.320007,100.354,1,0.25,2025-04-18T14:32:39.794+03:00,92.00000000000001,1.533333333333333,2025-04-18T08:51:18.885+03:00,0.03057091307199995,0
2025-04-18T14:40:16.930+03:00,1744976414.995466,40.95365572399826,29.14101768181349,94.72507,-1,-1,-1,-1,30,25.91352151834083,-9999,69455.42043687501,-0.5245361328125,0.864898681640625,-0.01531982421875,69455.410360875,0.4438392412558238,-1.535606931201126,-1.013085453228048,-0.01943776197731495,-0.1398086845874786,-0.05313755199313164,-0.01379162073135376,0.006923556327819824,0.0007365942001342773,XArbitraryZVertical,-0.2068038943934725,-0.6692698700877912,0.4671711085658595,0.5395008368809953,-0.5289177298545837,0.8484688401222229,-0.01861998066306114,0,0,0,-1,-1,69436.46078450001,unknown,2,2025-04-18T14:39:57.870+03:00,2025-04-18T14:06:46.055+03:00,48,7.358232,0,0,40.48506,0,0,2025-04-18T14:40:03.029+03:00,766669216.0135459,0,6.320007,100.354,1,0.25,2025-04-18T14:32:39.794+03:00,92.00000000000001,1.533333333333333,2025-04-18T08:51:18.885+03:00,0.03057091307199995,0
2025-04-18T14:40:16.940+03:00,1744976414.995466,40.95365572399826,29.14101768181349,94.72507,-1,-1,-1,-1,30,25.91352151834083,-9999,69455.430512875,-0.55169677734375,0.8607330322265625,-0.0204315185546875,69455.42043687501,0.443626738975106,-1.537042939024772,-1.012616499816193,0.001694953767582774,-0.1047023609280586,-0.03823476657271385,0.007887542247772217,0.01628130674362183,0.003667892888188362,XArbitraryZVertical,-0.2063783390050936,-0.6696798157706987,0.4671412177372117,0.5391807822044381,-0.5293413400650024,0.8482205867767334,-0.01787385158240795,0,0,0,-1,-1,69436.46078450001,unknown,2,2025-04-18T14:39:57.870+03:00,2025-04-18T14:06:46.055+03:00,48,7.358232,0,0,40.48506,0,0,2025-04-18T14:40:03.029+03:00,766669216.0135459,0,6.320007,100.354,1,0.25,2025-04-18T14:32:39.794+03:00,92.00000000000001,1.533333333333333,2025-04-18T08:51:18.885+03:00,0.03057091307199995,0
2025-04-18T14:40:16.950+03:00,1744976414.995466,40.95365572399826,29.14101768181349,94.72507,-1,-1,-1,-1,30,25.91352151834083,-9999,69455.440588875,-0.546051025390625,0.8516693115234375,-0.0151519775390625,69455.430512875,0.4437271238397792,-1.537947590572762,-1.01229373439955,0.01108246296644211,-0.09239975363016129,-0.02730987966060638,-0.02099764347076416,0.0143771767616272,-0.002752900123596191,XArbitraryZVertical,-0.2060224856042622,-0.6699647392419262,0.4671781763114238,0.5389308654904107,-0.5296309590339661,0.8480495810508728,-0.01740396767854691,0,0,0,-1,-1,69436.46078450001,unknown,2,2025-04-18T14:39:57.870+03:00,2025-04-18T14:06:46.055+03:00,48,7.358232,0,0,40.48506,0,0,2025-04-18T14:40:03.029+03:00,766669216.0135459,0,6.320007,100.354,1,0.25,2025-04-18T14:32:39.794+03:00,92.00000000000001,1.533333333333333,2025-04-18T08:51:18.885+03:00,0.03057091307199995,0
2025-04-18T14:40:16.960+03:00,1744976414.995466,40.95365572399826,29.14101768181349,94.72507,-1,-1,-1,-1,30,25.91352151834083,-9999,69455.45066487501,-0.5334014892578125,0.845458984375,-0.009063720703125,69455.440588875,0.4438995085888423,-1.538752557453819,-1.012005489862118,0.009339423850178719,-0.09646587073802948,-0.02928567864000797,-0.01796239614486694,0.004840612411499023,0.0002312064170837402,XArbitraryZVertical,-0.2056776534658941,-0.6702268071263603,0.4672329623307693,0.5386892193331722,-0.5298891663551331,0.8478967547416687,-0.01698545925319195,0,0,0,-1,-1,69436.46078450001,unknown,2,2025-04-18T14:39:57.870+03:00,2025-04-18T14:06:46.055+03:00,48,7.358232,0,0,40.48506,0,0,2025-04-18T14:40:03.029+03:00,766669216.0135459,0,6.320007,100.354,1,0.25,2025-04-18T14:32:39.794+03:00,92.00000000000001,1.533333333333333,2025-04-18T08:51:18.885+03:00,0.03057091307199995,0
2025-04-18T14:40:16.970+03:00,1744976414.995466,40.95365572399826,29.14101768181349,94.72507,-1,-1,-1,-1,30,25.91352151834083,-9999,69455.460740875,-0.53546142578125,0.8362579345703125,-0.0097198486328125,69455.45066487501,0.4439514449866891,-1.539638597472692,-1.011733013621528,-0.0007084825774654746,-0.08602741360664368,-0.02321849949657917,-0.004029512405395508,-0.00128626823425293,0.006620109081268311,XArbitraryZVertical,-0.2053596376170811,-0.6704967161664765,0.4672675569148134,0.5384445842732188,-0.5301348567008972,0.8477522730827332,-0.01652314513921738,0,0,0,-1,-1,69436.46078450001,unknown,2,2025-04-18T14:39:57.870+03:00,2025-04-18T14:06:46.055+03:00,48,7.358232,0,0,40.48506,0,0,2025-04-18T14:40:03.029+03:00,766669216.0135459,0,6.320007,100.354,1,0.25,2025-04-18T14:32:39.794+03:00,92.00000000000001,1.533333333333333,2025-04-18T08:51:18.885+03:00,0.03057091307199995,0
2025-04-18T14:40:16.980+03:00,1744976414.995466,40.95365572399826,29.14101768181349,94.72507,-1,-1,-1,-1,30,25.91352151834083,-9999,69455.47081687501,-0.541229248046875,0.83856201171875,-0.007843017578125,69455.460740875,0.4438525738351953,-1.540487937170245,-1.01154695207655,-0.005719220265746117,-0.06370852142572403,-0.01648682728409767,-0.003796994686126709,-0.01011401414871216,0.00658661313354969,XArbitraryZVertical,-0.205130447901674,-0.6707329369532448,0.4672799811539649,0.5382268894219598,-0.5303062796592712,0.8476535677909851,-0.01607765257358551,0,0,0,-1,-1,69436.46078450001,unknown,2,2025-04-18T14:39:57.870+03:00,2025-04-18T14:06:46.055+03:00,48,7.358232,0,0,40.48506,0,0,2025-04-18T14:40:03.029+03:00,766669216.0135459,0,6.320007,100.354,1,0.25,2025-04-18T14:32:39.794+03:00,92.00000000000001,1.533333333333333,2025-04-18T08:51:18.885+03:00,0.03057091307199995,0
2025-04-18T14:40:16.990+03:00,1744976414.995466,40.95365572399826,29.14101768181349,94.72507,-1,-1,-1,-1,30,25.91352151834083,-9999,69455.480892875,-0.53936767578125,0.8529205322265625,-0.01263427734375,69455.47081687501,0.4438401312765883,-1.541093846290533,-1.01140972490198,0.004833356011658907,-0.05549340695142746,-0.01399900112301111,-0.01004934310913086,-0.009690284729003906,0.007489504292607307,XArbitraryZVertical,-0.2049459278636672,-0.6709077985392985,0.4673032481437167,0.5380589787330373,-0.5304321050643921,0.8475807905197144,-0.01575978472828865,0,0,0,-1,-1,69436.46078450001,unknown,2,2025-04-18T14:39:57.870+03:00,2025-04-18T14:06:46.055+03:00,48,7.358232,0,0,40.48506,0,0,2025-04-18T14:40:03.029+03:00,766669216.0135459,0,6.320007,100.354,1,0.25,2025-04-18T14:32:39.794+03:00,92.00000000000001,1.533333333333333,2025-04-18T08:51:18.885+03:00,0.03057091307199995,0
2025-04-18T14:40:17.000+03:00,1744976414.995466,40.95365572399826,29.14101768181349,94.72507,-1,-1,-1,-1,30,25.91352151834083,-9999,69455.490968875,-0.5366058349609375,0.855712890625,-0.0138702392578125,69455.480892875,0.4439599762809907,-1.541531937761877,-1.011263259239187,0.01289101596921682,-0.05081955343484879,-0.01338887121528387,-0.009506404399871826,0.003464221954345703,0.004376830533146858,XArbitraryZVertical,-0.2047530770964232,-0.6710519045102746,0.4673424267481479,0.5379186451812386,-0.5305630564689636,0.8475030660629272,-0.01553103793412447,0,0,0,-1,-1,69436.46078450001,unknown,2,2025-04-18T14:39:57.870+03:00,2025-04-18T14:06:46.055+03:00,48,7.358232,0,0,40.48506,0,0,2025-04-18T14:40:03.029+03:00,766669216.0135459,0,6.320007,100.354,1,0.25,2025-04-18T14:32:39.794+03:00,92.00000000000001,1.533333333333333,2025-04-18T08:51:18.885+03:00,0.03057091307199995,0
2025-04-18T14:40:17.010+03:00,1744976414.995466,40.95365572399826,29.14101768181349,94.72507,-1,-1,-1,-1,30,25.91352151834083,-9999,69455.50104487501,-0.5375518798828125,0.847869873046875,-0.0121612548828125,69455.490968875,0.444360678222364,-1.541657402712839,-1.011129366166629,0.03019850142300129,-0.04305923730134964,-0.01090061385184526,-0.006705522537231445,0.008204519748687744,0.001887441612780094,XArbitraryZVertical,-0.2045433354190846,-0.6711394314201643,0.4674283613003585,0.5378145423919261,-0.530678391456604,0.8474319577217102,-0.01546777505427599,0,0,0,-1,-1,69436.46078450001,unknown,2,2025-04-18T14:39:57.870+03:00,2025-04-18T14:06:46.055+03:00,48,7.358232,0,0,40.48506,0,0,2025-04-18T14:40:03.029+03:00,766669216.0135459,0,6.320007,100.354,1,0.25,2025-04-18T14:32:39.794+03:00,92.00000000000001,1.533333333333333,2025-04-18T08:51:18.885+03:00,0.03057091307199995,0
2025-04-18T14:40:17.020+03:00,1744976414.995466,40.95365572399826,29.14101768181349,94.72507,-1,-1,-1,-1,30,25.91352151834083,-9999,69455.511120875,-0.5350341796875,0.8498077392578125,-0.0118865966796875,69455.50104487501,0.4450338237958005,-1.541513866322021,-1.011044506135086,0.04151773080229759,-0.04381264746189117,-0.009740008041262627,-0.007017254829406738,0.0008186101913452148,0.003415286540985107,XArbitraryZVertical,-0.2043218849959265,-0.6711777253081795,0.4675726607914558,0.5377255710798462,-0.530748188495636,0.84738689661026,-0.01554605644196272,0,0,0,-1,-1,69436.46078450001,unknown,2,2025-04-18T14:39:57.870+03:00,2025-04-18T14:06:46.055+03:00,48,7.358232,0,0,40.48506,0,0,2025-04-18T14:40:03.029+03:00,766669216.0135459,0,6.320007,100.354,1,0.25,2025-04-18T14:32:39.794+03:00,92.00000000000001,1.533333333333333,2025-04-18T08:51:18.885+03:00,0.03057091307199995,0
2025-04-18T14:40:17.030+03:00,1744976414.995466,40.95365572399826,29.14101768181349,94.72507,-1,-1,-1,-1,30,25.91352151834083,-9999,69455.52119687501,-0.5342254638671875,0.8416595458984375,-0.0071868896484375,69455.511120875,0.445849681150637,-1.541271581588441,-1.010902515062525,0.04381617531180382,-0.04300370812416077,-0.01109988428652287,-0.004733920097351074,0.003030240535736084,0.003165960311889648,XArbitraryZVertical,-0.2040559958072243,-0.6712093930624908,0.4677304829212902,0.5376497857703105,-0.5308647751808167,0.8473114967346191,-0.01567820273339748,0,0,0,-1,-1,69436.46078450001,unknown,2,2025-04-18T14:39:57.870+03:00,2025-04-18T14:06:46.055+03:00,48,7.358232,0,0,40.48506,0,0,2025-04-18T14:40:03.029+03:00,766669216.0135459,0,6.320007,100.354,1,0.25,2025-04-18T14:32:39.794+03:00,92.00000000000001,1.533333333333333,2025-04-18T08:51:18.885+03:00,0.03057091307199995,0
2025-04-18T14:40:17.040+03:00,1744976414.995466,40.95365572399826,29.14101768181349,94.72507,-1,-1,-1,-1,30,25.91352151834083,-9999,69455.531272875,-0.53948974609375,0.837371826171875,-0.005828857421875,69455.52119687501,0.4466482942977176,-1.541015462086631,-1.010683914428548,0.04114582389593124,-0.04030619561672211,-0.01056059449911118,-0.002645432949066162,-0.004559218883514404,0.007991848513484001,XArbitraryZVertical,-0.2037728264267198,-0.6712427219705147,0.4678624305107616,0.5376008540424737,-0.5310460329055786,0.8471953868865967,-0.01581968739628792,0,0,0,-1,-1,69436.46078450001,unknown,2,2025-04-18T14:39:57.870+03:00,2025-04-18T14:06:46.055+03:00,48,7.358232,0,0,40.48506,0,0,2025-04-18T14:40:03.029+03:00,766669216.0135459,0,6.320007,100.354,1,0.25,2025-04-18T14:32:39.794+03:00,92.00000000000001,1.533333333333333,2025-04-18T08:51:18.885+03:00,0.03057091307199995,0
2025-04-18T14:40:17.050+03:00,1744976414.995466,40.95365572399826,29.14101768181349,94.72507,-1,-1,-1,-1,30,25.91352151834083,-9999,69455.54134887501,-0.537933349609375,0.843048095703125,-0.0095672607421875,69455.531272875,0.4473049826872403,-1.540870520089243,-1.010548045520356,0.04102851077914238,-0.03726792708039284,-0.007787111680954695,-0.007476568222045898,-0.01013284921646118,0.01033055782318115,XArbitraryZVertical,-0.2035396409585932,-0.6712835211809806,0.467989078830534,0.5375279401615798,-0.5311586260795593,0.8471232056617737,-0.01590009778738022,0,0,0,-1,-1,69436.46078450001,unknown,2,2025-04-18T14:39:57.870+03:00,2025-04-18T14:06:46.055+03:00,48,7.358232,0,0,40.48506,0,0,2025-04-18T14:40:03.029+03:00,766669216.0135459,0,6.320007,100.354,1,0.25,2025-04-18T14:32:39.794+03:00,92.00000000000001,1.533333333333333,2025-04-18T08:51:18.885+03:00,0.03057091307199995,0
2025-04-18T14:40:17.060+03:00,1744976414.995466,40.95365572399826,29.14101768181349,94.72507,-1,-1,-1,-1,30,25.91352151834083,-9999,69455.55142487501,-0.537750244140625,0.842987060546875,-0.0160369873046875,69455.54134887501,0.4479578528820524,-1.540701971298472,-1.010392546774791,0.03801168128848076,-0.03217276930809021,-0.004813426174223423,-0.007530689239501953,-0.00454181432723999,0.00767749547958374,XArbitraryZVertical,-0.2033065309106353,-0.6713193431499624,0.4681071763841301,0.5374686052907871,-0.531287670135498,0.8470405340194702,-0.01599358767271042,0,0,0,-1,-1,69436.46078450001,unknown,2,2025-04-18T14:39:57.870+03:00,2025-04-18T14:06:46.055+03:00,48,7.358232,0,0,40.48506,0,0,2025-04-18T14:40:03.029+03:00,766669216.0135459,0,6.320007,100.354,1,0.25,2025-04-18T14:32:39.794+03:00,92.00000000000001,1.533333333333333,2025-04-18T08:51:18.885+03:00,0.03057091307199995,0
2025-04-18T14:40:17.071+03:00,1744976414.995466,40.95365572399826,29.14101768181349,94.72507,-1,-1,-1,-1,30,25.91352151834083,-9999,69455.561500875,-0.5361175537109375,0.83770751953125,-0.0148773193359375,69455.55142487501,0.4486207885624521,-1.540481580081051,-1.010200811072997,0.04600769281387329,-0.02733819745481014,-0.004046502523124218,-0.006273269653320312,-0.003096997737884521,0.0006889086216688156,XArbitraryZVertical,-0.2030697151793613,-0.6713455813653728,0.4682133632154004,0.5374328855748117,-0.5314464569091797,0.8469386100769043,-0.01611560210585594,0,0,0,-1,-1,69436.46078450001,unknown,2,2025-04-18T14:39:57.870+03:00,2025-04-18T14:06:46.055+03:00,48,7.358232,0,0,40.48506,0,0,2025-04-18T14:40:03.029+03:00,766669216.0135459,0,6.320007,100.354,1,0.25,2025-04-18T14:32:39.794+03:00,92.00000000000001,1.533333333333333,2025-04-18T08:51:18.885+03:00,0.03057091307199995,0
2025-04-18T14:40:17.081+03:00,1744976414.995466,40.95365572399826,29.14101768181349,94.72507,-1,-1,-1,-1,30,25.91352151834083,-9999,69455.57157687501,-0.5326995849609375,0.8414764404296875,-0.01165771484375,69455.561500875,0.4493905897678289,-1.540118016582195,-1.010100242124819,0.04614724218845367,-0.02658931724727154,-0.003309872001409531,-0.004790365695953369,-0.008872509002685547,0.001434028148651123,XArbitraryZVertical,-0.2028618481118874,-0.6713355042584322,0.4683573969768577,0.5373983789858531,-0.5315255522727966,0.8468851447105408,-0.01631142199039459,0,0,0,-1,-1,69436.46078450001,unknown,2,2025-04-18T14:39:57.870+03:00,2025-04-18T14:06:46.055+03:00,48,7.358232,0,0,40.48506,0,0,2025-04-18T14:40:03.029+03:00,766669216.0135459,0,6.320007,100.354,1,0.25,2025-04-18T14:32:39.794+03:00,92.00000000000001,1.533333333333333,2025-04-18T08:51:18.885+03:00,0.03057091307199995,0
2025-04-18T14:40:17.091+03:00,1744976414.995466,40.95365572399826,29.14101768181349,94.72507,-1,-1,-1,-1,30,25.91352151834083,-9999,69455.581652875,-0.52923583984375,0.838104248046875,-0.0147247314453125,69455.57157687501,0.4501314247391861,-1.539774748290344,-1.01007458937689,0.0350354015827179,-0.02645356208086014,0.001880062976852059,-0.001722395420074463,-0.005623996257781982,0.004958868026733398,XArbitraryZVertical,-0.2026847773634917,-0.6713207900624996,0.4685149777662946,0.5373462827232039,-0.5315417647361755,0.8468714952468872,-0.01649455539882183,0,0,0,-1,-1,69436.46078450001,unknown,2,2025-04-18T14:39:57.870+03:00,2025-04-18T14:06:46.055+03:00,48,7.358232,0,0,40.48506,0,0,2025-04-18T14:40:03.029+03:00,766669216.0135459,0,6.320007,100.354,1,0.25,2025-04-18T14:32:39.794+03:00,92.00000000000001,1.533333333333333,2025-04-18T08:51:18.885+03:00,0.03057091307199995,0
2025-04-18T14:40:17.101+03:00,1744976414.995466,40.95365572399826,29.14101768181349,94.72507,-1,-1,-1,-1,30,25.91352151834083,-9999,69455.59172887501,-0.528961181640625,0.833160400390625,-0.0150146484375,69455.581652875,0.4506743408670141,-1.539637548349963,-1.010034352228071,0.02829121239483356,-0.03161450102925301,0.001111474819481373,0.002047717571258545,-0.007967710494995117,0.002423584461212158,XArbitraryZVertical,-0.2025208247635243,-0.6713427184830982,0.4686366012340414,0.5372745624233312,-0.5315734148025513,0.8468500971794128,-0.01656853966414928,0,0,0,-1,-1,69436.46078450001,unknown,2,2025-04-18T14:39:57.870+03:00,2025-04-18T14:06:46.055+03:00,48,7.358232,0,0,40.48506,0,0,2025-04-18T14:40:03.029+03:00,766669216.0135459,0,6.320007,100.354,1,0.25,2025-04-18T14:32:39.794+03:00,92.00000000000001,1.533333333333333,2025-04-18T08:51:18.885+03:00,0.03057091307199995,0
2025-04-18T14:40:17.111+03:00,1744976414.995466,40.95365572399826,29.14101768181349,94.72507,-1,-1,-1,-1,30,25.91352151834083,-9999,69455.601804875,-0.5281829833984375,0.83978271484375,-0.013763427734375,69455.59172887501,0.4510493473846832,-1.539688353642596,-1.010015209716223,0.01948000863194466,-0.0375359058380127,-0.0004123194958083332,0.002995669841766357,-0.01430517435073853,0.001771450042724609,XArbitraryZVertical,-0.2023764689204161,-0.6713961158926125,0.4687374992660531,0.5371742633164488,-0.5315905213356018,0.8468399047851562,-0.01654204167425632,0,0,0,-1,-1,69436.46078450001,unknown,2,2025-04-18T14:39:57.870+03:00,2025-04-18T14:06:46.055+03:00,48,7.358232,0,0,40.48506,0,0,2025-04-18T14:40:03.029+03:00,766669216.0135459,0,6.320007,100.354,1,0.25,2025-04-18T14:32:39.794+03:00,92.00000000000001,1.533333333333333,2025-04-18T08:51:18.885+03:00,0.03057091307199995,0
2025-04-18T14:40:17.121+03:00,1744976414.995466,40.95365572399826,29.14101768181349,94.72507,-1,-1,-1,-1,30,25.91352151834083,-9999,69455.611880875,-0.52886962890625,0.843475341796875,-0.0148773193359375,69455.601804875,0.4512231520021132,-1.540023794652167,-1.00994841609351,0.01349748391658068,-0.04771371185779572,-0.004446742124855518,0.003133893013000488,-0.008303463459014893,0.002586722373962402,XArbitraryZVertical,-0.2022165110452291,-0.6715100542371708,0.4688009043783275,0.5370366778260082,-0.5316525101661682,0.8468043804168701,-0.01636545918881893,0,0,0,-1,-1,69436.46078450001,unknown,2,2025-04-18T14:39:57.870+03:00,2025-04-18T14:06:46.055+03:00,48,7.358232,0,0,40.48506,0,0,2025-04-18T14:40:03.029+03:00,766669216.0135459,0,6.320007,100.354,1,0.25,2025-04-18T14:32:39.794+03:00,92.00000000000001,1.533333333333333,2025-04-18T08:51:18.885+03:00,0.03057091307199995,0
2025-04-18T14:40:17.131+03:00,1744976414.995466,40.95365572399826,29.14101768181349,94.72507,-1,-1,-1,-1,30,25.91352151834083,-9999,69455.62195687501,-0.5315399169921875,0.8446807861328125,-0.0157012939453125,69455.611880875,0.4511909575377084,-1.540588334857576,-1.009774895464906,0.002575394930317998,-0.04885507375001907,-0.006593083962798119,0.002527058124542236,-0.004121780395507812,0.001253426074981689,XArbitraryZVertical,-0.2020353457286986,-0.6716746533496517,0.4688044957829137,0.5368959172299493,-0.531808614730835,0.8467121124267578,-0.01606975868344307,0,0,0,-1,-1,69436.46078450001,unknown,2,2025-04-18T14:39:57.870+03:00,2025-04-18T14:06:46.055+03:00,48,7.358232,0,0,40.48506,0,0,2025-04-18T14:40:03.029+03:00,766669216.0135459,0,6.320007,100.354,1,0.25,2025-04-18T14:32:39.794+03:00,92.00000000000001,1.533333333333333,2025-04-18T08:51:18.885+03:00,0.03057091307199995,0
2025-04-18T14:40:17.141+03:00,1744976414.995466,40.95365572399826,29.14101768181349,94.72507,-1,-1,-1,-1,30,25.91352151834083,-9999,69455.632032875,-0.535125732421875,0.845794677734375,-0.0164337158203125,69455.62195687501,0.4510924701974066,-1.541202350669427,-1.009630543727495,0.0009681771043688059,-0.04527099058032036,-0.006027694791555405,0.0007363557815551758,-0.002534270286560059,0.0001980643719434738,XArbitraryZVertical,-0.2018748914066613,-0.6718430698075473,0.4688027540569246,0.5367470991507639,-0.5319406390190125,0.8466352820396423,-0.0157468356192112,0,0,0,-1,-1,69436.46078450001,unknown,2,2025-04-18T14:39:57.870+03:00,2025-04-18T14:06:46.055+03:00,48,7.358232,0,0,40.48506,0,0,2025-04-18T14:40:03.029+03:00,766669216.0135459,0,6.320007,100.354,1,0.25,2025-04-18T14:32:39.794+03:00,92.00000000000001,1.533333333333333,2025-04-18T08:51:18.885+03:00,0.03057091307199995,0
2025-04-18T14:40:17.151+03:00,1744976414.995466,40.95365572399826,29.14101768181349,94.72507,-1,-1,-1,-1,30,25.91352151834083,-9999,69455.64210887501,-0.5337066650390625,0.84539794921875,-0.0186309814453125,69455.632032875,0.4510425510507294,-1.541691685496864,-1.009517161511318,-0.005032990127801895,-0.04383315145969391,-0.003114063059911132,-0.002913713455200195,-0.001207530498504639,-0.0003340840339660645,XArbitraryZVertical,-0.201737981952033,-0.6719800017311067,0.4688094629656318,0.5366212488185349,-0.5320441722869873,0.8465749621391296,-0.01548932772129774,0,0,0,-1,-1,69436.46078450001,unknown,2,2025-04-18T14:39:57.870+03:00,2025-04-18T14:06:46.055+03:00,48,7.358232,0,0,40.48506,0,0,2025-04-18T14:40:03.029+03:00,766669216.0135459,0,6.320007,100.354,1,0.25,2025-04-18T14:32:39.794+03:00,92.00000000000001,1.533333333333333,2025-04-18T08:51:18.885+03:00,0.03057091307199995,0
2025-04-18T14:40:17.161+03:00,1744976414.995466,40.95365572399826,29.14101768181349,94.72507,-1,-1,-1,-1,30,25.91352151834083,-9999,69455.652184875,-0.53338623046875,0.844390869140625,-0.01904296875,69455.64210887501,0.450918049165355,-1.542228425247741,-1.009389724236772,-0.006831422913819551,-0.04139795899391174,-0.007030773907899857,-0.002477049827575684,-0.001933038234710693,-0.002966465428471565,XArbitraryZVertical,-0.2016102435508679,-0.6721234172052681,0.4687971826485832,0.5365004591754174,-0.5321604013442993,0.8465071320533752,-0.01520684361457825,0,0,0,-1,-1,69436.46078450001,unknown,2,2025-04-18T14:39:57.870+03:00,2025-04-18T14:06:46.055+03:00,48,7.358232,0,0,40.48506,0,0,2025-04-18T14:40:03.029+03:00,766669216.0135459,0,6.320007,100.354,1,0.25,2025-04-18T14:32:39.794+03:00,92.00000000000001,1.533333333333333,2025-04-18T08:51:18.885+03:00,0.03057091307199995,0
2025-04-18T14:40:17.171+03:00,1744976414.995466,40.95365572399826,29.14101768181349,94.72507,-1,-1,-1,-1,30,25.91352151834083,-9999,69455.662260875,-0.53411865234375,0.848388671875,-0.014678955078125,69455.652184875,0.4508400991270367,-1.542735497600421,-1.009272542820291,0.00555846793577075,-0.0438045896589756,-0.01052933558821678,-0.0007376670837402344,-0.001840114593505859,-0.004561008885502815,XArbitraryZVertical,-0.2014773080801523,-0.6722626018022193,0.4687971118816145,0.5363759930097262,-0.5322670936584473,0.8464447259902954,-0.01493977755308151,0,0,0,-1,-1,69436.46078450001,unknown,2,2025-04-18T14:39:57.870+03:00,2025-04-18T14:06:46.055+03:00,48,7.358232,0,0,40.48506,0,0,2025-04-18T14:40:03.029+03:00,766669216.0135459,0,6.320007,100.354,1,0.25,2025-04-18T14:32:39.794+03:00,92.00000000000001,1.533333333333333,2025-04-18T08:51:18.885+03:00,0.03057091307199995,0
2025-04-18T14:40:17.181+03:00,1744976414.995466,40.95365572399826,29.14101768181349,94.72507,-1,-1,-1,-1,30,25.91352151834083,-9999,69455.67233687501,-0.535064697265625,0.85107421875,-0.0138092041015625,69455.662260875,0.4508524411446146,-1.54317683483877,-1.009139893937539,-0.0006413708906620741,-0.04448928683996201,-0.01216744631528854,-0.002236485481262207,0.001404166221618652,-0.0003067841753363609,XArbitraryZVertical,-0.2013241100961704,-0.6723946924524613,0.4688106223123464,0.5362560060205335,-0.5323856472969055,0.8463740944862366,-0.01470796018838882,0,0,0,-1,-1,69436.46078450001,unknown,2,2025-04-18T14:39:57.870+03:00,2025-04-18T14:06:46.055+03:00,48,7.358232,0,0,40.48506,0,0,2025-04-18T14:40:03.029+03:00,766669216.0135459,0,6.320007,100.354,1,0.25,2025-04-18T14:32:39.794+03:00,92.00000000000001,1.533333333333333,2025-04-18T08:51:18.885+03:00,0.03057091307199995,0
2025-04-18T14:40:17.191+03:00,1744976414.995466,40.95365572399826,29.14101768181349,94.72507,-1,-1,-1,-1,30,25.91352151834083,-9999,69455.682412875,-0.5421600341796875,0.8401641845703125,-0.0152740478515625,69455.67233687501,0.450814628069116,-1.543615558561488,-1.00897653937839,-0.002401786856353283,-0.03649214655160904,-0.01127811707556248,-0.002061426639556885,0.006114542484283447,0.0004247445613145828,XArbitraryZVertical,-0.2011778653161108,-0.6725238991498718,0.4688023923872637,0.536155994684835,-0.5325301289558411,0.8462870717048645,-0.01447814330458641,0,0,0,-1,-1,69436.46078450001,unknown,2,2025-04-18T14:39:57.870+03:00,2025-04-18T14:06:46.055+03:00,48,7.358232,0,0,40.48506,0,0,2025-04-18T14:40:03.029+03:00,766669216.0135459,0,6.320007,100.354,1,0.25,2025-04-18T14:32:39.794+03:00,92.00000000000001,1.533333333333333,2025-04-18T08:51:18.885+03:00,0.03057091307199995,0
2025-04-18T14:40:17.202+03:00,1744976414.995466,40.95365572399826,29.14101768181349,94.72507,-1,-1,-1,-1,30,25.91352151834083,-9999,69455.69248887501,-0.54241943359375,0.8524169921875,-0.0135345458984375,69455.682412875,0.4507728587351683,-1.543987390865034,-1.008859175756291,0.003278469434008002,-0.03316772356629372,-0.01356497313827276,-0.00888437032699585,-0.005434870719909668,-0.0006250720471143723,XArbitraryZVertical,-0.2010644402320876,-0.6726304301845148,0.468798228636492,0.5360684998135402,-0.5326346755027771,0.8462245464324951,-0.01428279094398022,0,0,0,-1,-1,69436.46078450001,unknown,2,2025-04-18T14:39:57.870+03:00,2025-04-18T14:06:46.055+03:00,48,7.358232,0,0,40.48506,0,0,2025-04-18T14:40:03.029+03:00,766669216.0135459,0,6.320007,100.354,1,0.25,2025-04-18T14:32:39.794+03:00,92.00000000000001,1.533333333333333,2025-04-18T08:51:18.885+03:00,0.03057091307199995,0
2025-04-18T14:40:17.212+03:00,1744976414.995466,40.95365572399826,29.14101768181349,94.72507,-1,-1,-1,-1,30,25.91352151834083,-9999,69455.702564875,-0.5424957275390625,0.859649658203125,-0.013885498046875,69455.69248887501,0.4509449362441407,-1.544138014012773,-1.008729292443588,0.01689980551600456,-0.02424819953739643,-0.01382033713161945,-0.009916603565216064,0.004461050033569336,-1.57942995429039e-05,XArbitraryZVertical,-0.2009266845817122,-0.6727003186284124,0.46882579961806,0.5360084265400021,-0.5327468514442444,0.8461553454399109,-0.01420549768954515,0,0,0,-1,-1,69436.46078450001,unknown,2,2025-04-18T14:39:57.870+03:00,2025-04-18T14:06:46.055+03:00,48,7.358232,0,0,40.48506,0,0,2025-04-18T14:40:03.029+03:00,766669216.0135459,0,6.320007,100.354,1,0.25,2025-04-18T14:32:39.794+03:00,92.00000000000001,1.533333333333333,2025-04-18T08:51:18.885+03:00,0.03057091307199995,0
2025-04-18T14:40:17.222+03:00,1744976414.995466,40.95365572399826,29.14101768181349,94.72507,-1,-1,-1,-1,30,25.91352151834083,-9999,69455.712640875,-0.5448150634765625,0.8598480224609375,-0.0144805908203125,69455.702564875,0.4514596957582998,-1.543864519844556,-1.008589393601412,0.03354110196232796,-0.009214388206601143,-0.01280460692942142,-0.009344577789306641,0.01291263103485107,0.0006061811000108719,XArbitraryZVertical,-0.2007696036720059,-0.6726918862810062,0.4689001072333389,0.5360128153167061,-0.5328611731529236,0.8460807800292969,-0.01435438450425863,0,0,0,-1,-1,69436.46078450001,unknown,2,2025-04-18T14:39:57.870+03:00,2025-04-18T14:06:46.055+03:00,48,7.358232,0,0,40.48506,0,0,2025-04-18T14:40:03.029+03:00,766669216.0135459,0,6.320007,100.354,1,0.25,2025-04-18T14:32:39.794+03:00,92.00000000000001,1.533333333333333,2025-04-18T08:51:18.885+03:00,0.03057091307199995,0
2025-04-18T14:40:17.232+03:00,1744976414.995466,40.95365572399826,29.14101768181349,94.72507,-1,-1,-1,-1,30,25.91352151834083,-9999,69455.72271687501,-0.541595458984375,0.850799560546875,-0.0205535888671875,69455.712640875,0.4522143385453469,-1.543279464093949,-1.008428742822632,0.04386504366993904,0.0008192709647119045,-0.01058223284780979,-0.01144492626190186,0.01423430442810059,0.0001587281003594398,XArbitraryZVertical,-0.2005977974568419,-0.6726258882598439,0.469002080307135,0.5360707610907811,-0.5329885482788086,0.8459951281547546,-0.01466987654566765,0,0,0,-1,-1,69436.46078450001,unknown,2,2025-04-18T14:39:57.870+03:00,2025-04-18T14:06:46.055+03:00,48,7.358232,0,0,40.48506,0,0,2025-04-18T14:40:03.029+03:00,766669216.0135459,0,6.320007,100.354,1,0.25,2025-04-18T14:32:39.794+03:00,92.00000000000001,1.533333333333333,2025-04-18T08:51:18.885+03:00,0.03057091307199995,0
2025-04-18T14:40:17.242+03:00,1744976414.995466,40.95365572399826,29.14101768181349,94.72507,-1,-1,-1,-1,30,25.91352151834083,-9999,69455.732792875,-0.542816162109375,0.842193603515625,-0.0257110595703125,69455.72271687501,0.4531174185961248,-1.542437346383434,-1.0083050214734,0.04578971117734909,0.01192332059144974,-0.007093757856637239,-0.008713006973266602,0.006091058254241943,-0.004195987246930599,XArbitraryZVertical,-0.2004491054234271,-0.6725022798016264,0.4691277188833549,0.5361715501447114,-0.5330806970596313,0.8459291458129883,-0.01512167975306511,0,0,0,-1,-1,69436.46078450001,unknown,2,2025-04-18T14:39:57.870+03:00,2025-04-18T14:06:46.055+03:00,48,7.358232,0,0,40.48506,0,0,2025-04-18T14:40:03.029+03:00,766669216.0135459,0,6.320007,100.354,1,0.25,2025-04-18T14:32:39.794+03:00,92.00000000000001,1.533333333333333,2025-04-18T08:51:18.885+03:00,0.03057091307199995,0
2025-04-18T14:40:17.252+03:00,1744976414.995466,40.95365572399826,29.14101768181349,94.72507,-1,-1,-1,-1,30,25.91352151834083,-9999,69455.74286887501,-0.5396728515625,0.8415985107421875,-0.0216522216796875,69455.732792875,0.454067982767851,-1.541447458988199,-1.008223603563306,0.04685743898153305,0.01895386725664139,-0.005427118390798569,-0.009864866733551025,-0.003478527069091797,-0.009708821773529053,XArbitraryZVertical,-0.2003337491863877,-0.6723397187460437,0.4692623684403047,0.5363006900797486,-0.5331343412399292,0.845885694026947,-0.01565138250589371,0,0,0,-1,-1,69436.46078450001,unknown,2,2025-04-18T14:39:57.870+03:00,2025-04-18T14:06:46.055+03:00,48,7.358232,0,0,40.48506,0,0,2025-04-18T14:40:03.029+03:00,766669216.0135459,0,6.320007,100.354,1,0.25,2025-04-18T14:32:39.794+03:00,92.00000000000001,1.533333333333333,2025-04-18T08:51:18.885+03:00,0.03057091307199995,0
2025-04-18T14:40:17.262+03:00,1744976414.995466,40.95365572399826,29.14101768181349,94.72507,-1,-1,-1,-1,30,25.91352151834083,-9999,69455.752944875,-0.5335845947265625,0.834228515625,-0.0184173583984375,69455.74286887501,0.454875072548666,-1.540606990537389,-1.008145540215982,0.03913986310362816,0.01109807379543781,-0.005182906519621611,-0.00668412446975708,-0.003879427909851074,-0.006298480555415154,XArbitraryZVertical,-0.2002328269121451,-0.6722024164868038,0.469374508324087,0.5364123370183541,-0.5331869721412659,0.8458440899848938,-0.01610145345330238,0,0,0,-1,-1,69436.46078450001,unknown,2,2025-04-18T14:39:57.870+03:00,2025-04-18T14:06:46.055+03:00,48,7.358232,0,0,40.48506,0,0,2025-04-18T14:40:03.029+03:00,766669216.0135459,0,6.320007,100.354,1,0.25,2025-04-18T14:32:39.794+03:00,92.00000000000001,1.533333333333333,2025-04-18T08:51:18.885+03:00,0.03057091307199995,0
2025-04-18T14:40:17.272+03:00,1744976414.995466,40.95365572399826,29.14101768181349,94.72507,-1,-1,-1,-1,30,25.91352151834083,-9999,69455.76302087501,-0.533233642578125,0.8276519775390625,-0.019989013671875,69455.752944875,0.4554051243902832,-1.54010252127989,-1.00810495729198,0.02269557677209377,0.005477938801050186,-0.005605317186564207,-0.0006002187728881836,-0.009991824626922607,-0.002137480303645134,XArbitraryZVertical,-0.2001591304996405,-0.6721239332728574,0.4694557052062009,0.536467147856499,-0.5332131385803223,0.8458224534988403,-0.0163714811205864,0,0,0,-1,-1,69436.46078450001,unknown,2,2025-04-18T14:39:57.870+03:00,2025-04-18T14:06:46.055+03:00,48,7.358232,0,0,40.48506,0,0,2025-04-18T14:40:03.029+03:00,766669216.0135459,0,6.320007,100.354,1,0.25,2025-04-18T14:32:39.794+03:00,92.00000000000001,1.533333333333333,2025-04-18T08:51:18.885+03:00,0.03057091307199995,0
2025-04-18T14:40:17.282+03:00,1744976414.995466,40.95365572399826,29.14101768181349,94.72507,-1,-1,-1,-1,30,25.91352151834083,-9999,69455.77309687501,-0.535247802734375,0.8324737548828125,-0.0217132568359375,69455.76302087501,0.4557150780842329,-1.53979165115046,-1.007926546810832,0.01463764999061823,0.003942892421036959,-0.01061791926622391,-0.0001646280288696289,-0.01764804124832153,-0.002760529518127441,XArbitraryZVertical,-0.2000665407405134,-0.6720881040480873,0.4694617512674238,0.5365412909307197,-0.5333588719367981,0.845727264881134,-0.01654191873967648,0,0,0,-1,-1,69436.46078450001,unknown,2,2025-04-18T14:39:57.870+03:00,2025-04-18T14:06:46.055+03:00,48,7.358232,0,0,40.48506,0,0,2025-04-18T14:40:03.029+03:00,766669216.0135459,0,6.320007,100.354,1,0.25,2025-04-18T14:32:39.794+03:00,92.00000000000001,1.533333333333333,2025-04-18T08:51:18.885+03:00,0.03057091307199995,0
2025-04-18T14:40:17.292+03:00,1744976414.995466,40.95365572399826,29.14101768181349,94.72507,-1,-1,-1,-1,30,25.91352151834083,-9999,69455.783172875,-0.53106689453125,0.8425445556640625,-0.017913818359375,69455.77309687501,0.4559396868827151,-1.539619064927888,-1.007738293034383,0.01400281954556704,-0.003730939235538244,-0.01657218113541603,-0.0009390711784362793,-0.01449579000473022,-0.005059123039245605,XArbitraryZVertical,-0.1999667803765531,-0.6720817062565727,0.4694562198104364,0.5365913572967715,-0.5335151553153992,0.8456267714500427,-0.01663893461227417,0,0,0,-1,-1,69436.46078450001,unknown,2,2025-04-18T14:39:57.870+03:00,2025-04-18T14:06:46.055+03:00,48,7.358232,0,0,40.48506,0,0,2025-04-18T14:40:03.029+03:00,766669216.0135459,0,6.320007,100.354,1,0.25,2025-04-18T14:32:39.794+03:00,92.00000000000001,1.533333333333333,2025-04-18T08:51:18.885+03:00,0.03057091307199995,0
2025-04-18T14:40:17.302+03:00,1744976414.995466,40.95365572399826,29.14101768181349,94.72507,-1,-1,-1,-1,30,25.91352151834083,-9999,69455.79324887501,-0.5351409912109375,0.8363037109375,-0.017822265625,69455.783172875,0.4561471801512956,-1.539510760857183,-1.007545071188783,0.01139079127460718,-0.004616440739482641,-0.01799697242677212,0.002319812774658203,-0.003009676933288574,-0.001379905268549919,XArbitraryZVertical,-0.199855936155301,-0.6720912839360266,0.4694513217853308,0.5366248680173331,-0.5336765050888062,0.8455235958099365,-0.01670182123780251,0,0,0,-1,-1,69436.46078450001,unknown,2,2025-04-18T14:39:57.870+03:00,2025-04-18T14:06:46.055+03:00,48,7.358232,0,0,40.48506,0,0,2025-04-18T14:40:03.029+03:00,766669216.0135459,0,6.320007,100.354,1,0.25,2025-04-18T14:32:39.794+03:00,92.00000000000001,1.533333333333333,2025-04-18T08:51:18.885+03:00,0.03057091307199995,0
2025-04-18T14:40:17.312+03:00,1744976414.995466,40.95365572399826,29.14101768181349,94.72507,-1,-1,-1,-1,30,25.91352151834083,-9999,69455.803324875,-0.5421142578125,0.836669921875,-0.0204620361328125,69455.79324887501,0.4562614734123542,-1.539438508710721,-1.007351885377396,0.006368801463395357,0.001905840588733554,-0.0199646819382906,-0.0008138418197631836,-0.007651925086975098,-0.000664830207824707,XArbitraryZVertical,-0.199768010807788,-0.6721011733488532,0.4694249182169457,0.536668436980803,-0.5338388085365295,0.8454204201698303,-0.01674550957977772,0,0,0,-1,-1,69436.46078450001,unknown,2,2025-04-18T14:39:57.870+03:00,2025-04-18T14:06:46.055+03:00,48,7.358232,0,0,40.48506,0,0,2025-04-18T14:40:03.029+03:00,766669216.0135459,0,6.320007,100.354,1,0.25,2025-04-18T14:32:39.794+03:00,92.00000000000001,1.533333333333333,2025-04-18T08:51:18.885+03:00,0.03057091307199995,0
2025-04-18T14:40:17.322+03:00,1744976414.995466,40.95365572399826,29.14101768181349,94.72507,-1,-1,-1,-1,30,25.91352151834083,-9999,69455.81340087501,-0.5404205322265625,0.8402862548828125,-0.0213165283203125,69455.803324875,0.4563752531378295,-1.5393293990513,-1.007140602237485,0.001250738510861993,-0.001339220907539129,-0.01760858483612537,-0.007137477397918701,-0.008210480213165283,-0.003256021067500114,XArbitraryZVertical,-0.199682614065301,-0.6721027958441629,0.4693901619101546,0.5367285081424894,-0.5340153574943542,0.8453075885772705,-0.0168093703687191,0,0,0,-1,-1,69436.46078450001,unknown,2,2025-04-18T14:39:57.870+03:00,2025-04-18T14:06:46.055+03:00,48,7.358232,0,0,40.48506,0,0,2025-04-18T14:40:03.029+03:00,766669216.0135459,0,6.320007,100.354,1,0.25,2025-04-18T14:32:39.794+03:00,92.00000000000001,1.533333333333333,2025-04-18T08:51:18.885+03:00,0.03057091307199995,0
2025-04-18T14:40:17.333+03:00,1744976414.995466,40.95365572399826,29.14101768181349,94.72507,-1,-1,-1,-1,30,25.91352151834083,-9999,69455.823476875,-0.538177490234375,0.8410797119140625,-0.0202789306640625,69455.81340087501,0.4564545791841634,-1.539237416006109,-1.00688381937433,-0.003110121237114072,-0.001942627131938934,-0.01478879526257515,-0.005991339683532715,-0.005250334739685059,-0.004847943782806396,XArbitraryZVertical,-0.199589121941103,-0.6721097473883654,0.4693361067911991,0.5368018436525048,-0.5342307686805725,0.8451703786849976,-0.01686533913016319,0,0,0,-1,-1,69436.46078450001,unknown,2,2025-04-18T14:39:57.870+03:00,2025-04-18T14:06:46.055+03:00,48,7.358232,0,0,40.48506,0,0,2025-04-18T14:40:03.029+03:00,766669216.0135459,0,6.320007,100.354,1,0.25,2025-04-18T14:32:39.794+03:00,92.00000000000001,1.533333333333333,2025-04-18T08:51:18.885+03:00,0.03057091307199995,0
2025-04-18T14:40:17.343+03:00,1744976414.995466,40.95365572399826,29.14101768181349,94.72507,-1,-1,-1,-1,30,25.91352151834083,-9999,69455.833552875,-0.540496826171875,0.8350372314453125,-0.021392822265625,69455.823476875,0.4564220194501172,-1.539290659662526,-1.006673519294953,-0.00871607568114996,-0.006634850520640612,-0.01431714929640293,-0.003554582595825195,-0.003444314002990723,-0.003573833033442497,XArbitraryZVertical,-0.1995151354793552,-0.6721402127158872,0.4692785241212108,0.536841487222593,-0.5344091653823853,0.8450579643249512,-0.01684249006211758,0,0,0,-1,-1,69436.46078450001,unknown,2,2025-04-18T14:39:57.870+03:00,2025-04-18T14:06:46.055+03:00,48,7.358232,0,0,40.48506,0,0,2025-04-18T14:40:03.029+03:00,766669216.0135459,0,6.320007,100.354,1,0.25,2025-04-18T14:32:39.794+03:00,92.00000000000001,1.533333333333333,2025-04-18T08:51:18.885+03:00,0.03057091307199995,0
2025-04-18T14:40:17.353+03:00,1744976414.995466,40.95365572399826,29.14101768181349,94.72507,-1,-1,-1,-1,30,25.91352151834083,-9999,69455.84362887501,-0.5415496826171875,0.834930419921875,-0.0191497802734375,69455.833552875,0.4561617794897578,-1.539565014142054,-1.006510220542611,-0.01947617717087269,-0.007323943544179201,-0.01393718272447586,-0.005823016166687012,-0.009323179721832275,-0.00481480173766613,XArbitraryZVertical,-0.1994819930991099,-0.6722029787287321,0.4691939605086564,0.5368491063681706,-0.5345516204833984,0.8449706435203552,-0.01670018024742603,0,0,0,-1,-1,69436.46078450001,unknown,2,2025-04-18T14:39:57.870+03:00,2025-04-18T14:06:46.055+03:00,48,7.358232,0,0,40.48506,0,0,2025-04-18T14:40:03.029+03:00,766669216.0135459,0,6.320007,100.354,1,0.25,2025-04-18T14:32:39.794+03:00,92.00000000000001,1.533333333333333,2025-04-18T08:51:18.885+03:00,0.03057091307199995,0
2025-04-18T14:40:17.363+03:00,1744976414.995466,40.95365572399826,29.14101768181349,94.72507,-1,-1,-1,-1,30,25.91352151834083,-9999,69455.853704875,-0.5386199951171875,0.8393707275390625,-0.0176544189453125,69455.84362887501,0.455810543673263,-1.539918436472553,-1.006301946453975,-0.02110603265464306,-0.007505038287490606,-0.01198961306363344,-0.006312549114227295,-0.01021879911422729,-0.003319798037409782,XArbitraryZVertical,-0.1994454490776345,-0.6722820595473927,0.4690812045296152,0.5368622188478094,-0.5347334742546082,0.8448591828346252,-0.01651669107377529,0,0,0,-1,-1,69436.46078450001,unknown,2,2025-04-18T14:39:57.870+03:00,2025-04-18T14:06:46.055+03:00,48,7.358232,0,0,40.48506,0,0,2025-04-18T14:40:03.029+03:00,766669216.0135459,0,6.320007,100.354,1,0.25,2025-04-18T14:32:39.794+03:00,92.00000000000001,1.533333333333333,2025-04-18T08:51:18.885+03:00,0.03057091307199995,0
2025-04-18T14:40:17.373+03:00,1744976414.995466,40.95365572399826,29.14101768181349,94.72507,-1,-1,-1,-1,30,25.91352151834083,-9999,69455.86378087501,-0.5403900146484375,0.8391571044921875,-0.0160675048828125,69455.853704875,0.4554002752526103,-1.540302485894761,-1.006136706459702,-0.02510103955864906,-0.004340935964137316,-0.01011115219444036,-0.003862559795379639,-0.005384862422943115,-0.0019492506980896,XArbitraryZVertical,-0.1994364426647128,-0.672359511112457,0.4689666912865524,0.5368686954234791,-0.5348794460296631,0.8447707891464233,-0.01631558686494827,0,0,0,-1,-1,69436.46078450001,unknown,2,2025-04-18T14:39:57.870+03:00,2025-04-18T14:06:46.055+03:00,48,7.358232,0,0,40.48506,0,0,2025-04-18T14:40:03.029+03:00,766669216.0135459,0,6.320007,100.354,1,0.25,2025-04-18T14:32:39.794+03:00,92.00000000000001,1.533333333333333,2025-04-18T08:51:18.885+03:00,0.03057091307199995,0
2025-04-18T14:40:17.383+03:00,1744976414.995466,40.95365572399826,29.14101768181349,94.72507,-1,-1,-1,-1,30,25.91352151834083,-9999,69455.873856875,-0.5426788330078125,0.8443756103515625,-0.0180816650390625,69455.86378087501,0.4549059853476144,-1.540706246890265,-1.006099048042998,-0.02776180393993855,0.003901547053828835,-0.002428998239338398,-0.005685806274414062,-0.006173431873321533,0.0003228802233934402,XArbitraryZVertical,-0.1994949872215281,-0.6724220858516204,0.4688645721138913,0.5368577409478484,-0.5349177122116089,0.8447506427764893,-0.0161005761474371,0,0,0,-1,-1,69436.46078450001,unknown,2,2025-04-18T14:39:57.870+03:00,2025-04-18T14:06:46.055+03:00,48,7.358232,0,0,40.48506,0,0,2025-04-18T14:40:03.029+03:00,766669216.0135459,0,6.320007,100.354,1,0.25,2025-04-18T14:32:39.794+03:00,92.00000000000001,1.533333333333333,2025-04-18T08:51:18.885+03:00,0.03057091307199995,0
2025-04-18T14:40:17.393+03:00,1744976414.995466,40.95365572399826,29.14101768181349,94.72507,-1,-1,-1,-1,30,25.91352151834083,-9999,69455.883932875,-0.544219970703125,0.8475341796875,-0.018890380859375,69455.873856875,0.4544243855096314,-1.541041449333568,-1.006059951891602,-0.02239020727574825,0.01105160173028708,-0.0005211096140556037,-0.007188498973846436,-0.001284956932067871,-0.001320241019129753,XArbitraryZVertical,-0.1995648894952582,-0.6724676408435566,0.468758631698979,0.5368672272310231,-0.534956157207489,0.8447297215461731,-0.01592225395143032,0,0,0,-1,-1,69436.46078450001,unknown,2,2025-04-18T14:39:57.870+03:00,2025-04-18T14:06:46.055+03:00,48,7.358232,0,0,40.48506,0,0,2025-04-18T14:40:03.029+03:00,766669216.0135459,0,6.320007,100.354,1,0.25,2025-04-18T14:32:39.794+03:00,92.00000000000001,1.533333333333333,2025-04-18T08:51:18.885+03:00,0.03057091307199995,0
2025-04-18T14:40:17.403+03:00,1744976414.995466,40.95365572399826,29.14101768181349,94.72507,-1,-1,-1,-1,30,25.91352151834083,-9999,69455.89400887501,-0.5399932861328125,0.8525390625,-0.016326904296875,69455.883932875,0.4541534415880474,-1.541131331153777,-1.005971467573771,-0.01390750799328089,0.01193337514996529,-0.0009802385466173291,-0.009034931659698486,0.002668678760528564,-0.003868520259857178,XArbitraryZVertical,-0.1996044996621497,-0.6724729347716946,0.4686719697627854,0.5369215901242436,-0.5350323915481567,0.8446823358535767,-0.01587639190256596,0,0,0,-1,-1,69436.46078450001,unknown,2,2025-04-18T14:39:57.870+03:00,2025-04-18T14:06:46.055+03:00,48,7.358232,0,0,40.48506,0,0,2025-04-18T14:40:03.029+03:00,766669216.0135459,0,6.320007,100.354,1,0.25,2025-04-18T14:32:39.794+03:00,92.00000000000001,1.533333333333333,2025-04-18T08:51:18.885+03:00,0.03057091307199995,0
2025-04-18T14:40:17.422+03:00,1744976414.995466,40.95365572399826,29.14101768181349,94.72507,-1,-1,-1,-1,30,25.91352151834083,-9999,69455.904084875,-0.5373992919921875,0.853790283203125,-0.0162506103515625,69455.89400887501,0.4540761389291377,-1.541037564213411,-1.00591295272771,-0.004299688618630171,0.01484148018062115,0.002378906356170774,-0.005248486995697021,0.006728470325469971,-0.001192392781376839,XArbitraryZVertical,-0.1996323527806648,-0.6724454671608117,0.4686266908429239,0.5369852305154276,-0.5350804924964905,0.8446510434150696,-0.01592803560197353,0,0,0,-1,-1,69436.46078450001,unknown,2,2025-04-18T14:39:57.870+03:00,2025-04-18T14:06:46.055+03:00,48,7.358232,0,0,40.48506,0,0,2025-04-18T14:40:03.029+03:00,766669216.0135459,0,6.320007,100.354,1,0.25,2025-04-18T14:32:39.794+03:00,92.00000000000001,1.533333333333333,2025-04-18T08:51:18.885+03:00,0.03057091307199995,0
2025-04-18T14:40:17.425+03:00,1744976414.995466,40.95365572399826,29.14101768181349,94.72507,-1,-1,-1,-1,30,25.91352151834083,-9999,69455.91416087501,-0.5385894775390625,0.849029541015625,-0.0182952880859375,69455.904084875,0.4541161743926392,-1.540787385069949,-1.005894386033389,5.351442814571783e-05,0.02265386283397675,0.003530457383021712,-0.001941084861755371,0.01023250818252563,-0.000249326229095459,XArbitraryZVertical,-0.1996711007704176,-0.6723840185417944,0.4686077181605284,0.5370642438724581,-0.5350919961929321,0.8446410894393921,-0.01606236584484577,0,0,0,-1,-1,69436.46078450001,unknown,2,2025-04-18T14:39:57.870+03:00,2025-04-18T14:06:46.055+03:00,48,7.358232,0,0,40.48506,0,0,2025-04-18T14:40:03.029+03:00,766669216.0135459,0,6.320007,100.354,1,0.25,2025-04-18T14:32:39.794+03:00,92.00000000000001,1.533333333333333,2025-04-18T08:51:18.885+03:00,0.03057091307199995,0
2025-04-18T14:40:17.433+03:00,1744976414.995466,40.95365572399826,29.14101768181349,94.72507,-1,-1,-1,-1,30,25.91352151834083,-9999,69455.924236875,-0.5357666015625,0.8470916748046875,-0.0166778564453125,69455.91416087501,0.4541745465458158,-1.540492408645298,-1.00584108257092,-0.001668219221755862,0.02213641069829464,0.005141803063452244,-0.003243684768676758,0.004630565643310547,-0.002348423004150391,XArbitraryZVertical,-0.1997022305937179,-0.6723155778164117,0.4685802096708342,0.5371622867045274,-0.535132110118866,0.8446125388145447,-0.01622156612575054,0,0,0,-1,-1,69436.46078450001,unknown,2,2025-04-18T14:39:57.870+03:00,2025-04-18T14:06:46.055+03:00,48,7.358232,0,0,40.48506,0,0,2025-04-18T14:40:03.029+03:00,766669216.0135459,0,6.320007,100.354,1,0.25,2025-04-18T14:32:39.794+03:00,92.00000000000001,1.533333333333333,2025-04-18T08:51:18.885+03:00,0.03057091307199995,0
2025-04-18T14:40:17.443+03:00,1744976414.995466,40.95365572399826,29.14101768181349,94.72507,-1,-1,-1,-1,30,25.91352151834083,-9999,69455.934312875,-0.53485107421875,0.8462677001953125,-0.0132598876953125,69455.924236875,0.4541422161058159,-1.540284590984519,-1.005779412510349,-0.00710586179047823,0.02075689285993576,0.003412079764530063,-0.00131833553314209,0.002954483032226562,-0.0002061706036329269,XArbitraryZVertical,-0.1997405322720993,-0.6722622558230689,0.4685349085850675,0.5372541880488142,-0.5351806282997131,0.8445795178413391,-0.01633435860276222,0,0,0,-1,-1,69436.46078450001,unknown,2,2025-04-18T14:39:57.870+03:00,2025-04-18T14:06:46.055+03:00,48,7.358232,0,0,40.48506,0,0,2025-04-18T14:40:03.029+03:00,766669216.0135459,0,6.320007,100.354,1,0.25,2025-04-18T14:32:39.794+03:00,92.00000000000001,1.533333333333333,2025-04-18T08:51:18.885+03:00,0.03057091307199995,0
2025-04-18T14:40:17.453+03:00,1744976414.995466,40.95365572399826,29.14101768181349,94.72507,-1,-1,-1,-1,30,25.91352151834083,-9999,69455.94438887501,-0.53582763671875,0.8397979736328125,-0.01287841796875,69455.934312875,0.4540076566489173,-1.540134760823644,-1.005757380436417,-0.01012628525495529,0.02776380255818367,0.004572485573589802,0.0009410977363586426,0.001745700836181641,0.003475606441497803,XArbitraryZVertical,-0.1998133189149765,-0.6722105887650165,0.4684780098947564,0.5373415314427736,-0.5351970195770264,0.8445677757263184,-0.01641512475907803,0,0,0,-1,-1,69436.46078450001,unknown,2,2025-04-18T14:39:57.870+03:00,2025-04-18T14:06:46.055+03:00,48,7.358232,0,0,40.48506,0,0,2025-04-18T14:40:03.029+03:00,766669216.0135459,0,6.320007,100.354,1,0.25,2025-04-18T14:32:39.794+03:00,92.00000000000001,1.533333333333333,2025-04-18T08:51:18.885+03:00,0.03057091307199995,0
2025-04-18T14:40:17.464+03:00,1744976414.995466,40.95365572399826,29.14101768181349,94.72507,-1,-1,-1,-1,30,25.91352151834083,-9999,69455.954464875,-0.5369720458984375,0.8404388427734375,-0.011962890625,69455.94438887501,0.4538278513835206,-1.539980144890316,-1.005731688549065,-0.01127011328935623,0.02940004877746105,0.004344519227743149,-0.0001232624053955078,-0.00355064868927002,0.003558995202183723,XArbitraryZVertical,-0.1999010901847645,-0.6721534693069271,0.4684076787307646,0.5374415354700544,-0.5352159738540649,0.8445540070533752,-0.01649853587150574,0,0,0,-1,-1,69436.46078450001,unknown,2,2025-04-18T14:39:57.870+03:00,2025-04-18T14:06:46.055+03:00,48,7.358232,0,0,40.48506,0,0,2025-04-18T14:40:03.029+03:00,766669216.0135459,0,6.320007,100.354,1,0.25,2025-04-18T14:32:39.794+03:00,92.00000000000001,1.533333333333333,2025-04-18T08:51:18.885+03:00,0.03057091307199995,0
2025-04-18T14:40:17.474+03:00,1744976414.995466,40.95365572399826,29.14101768181349,94.72507,-1,-1,-1,-1,30,25.91352151834083,-9999,69455.964541625,-0.5361328125,0.83953857421875,-0.0149993896484375,69455.954464875,0.4536808702208236,-1.539783893858487,-1.005710432464523,-0.005807237233966589,0.03428342193365097,0.005346366669982672,-0.001832723617553711,-0.00472944974899292,0.004870058968663216,XArbitraryZVertical,-0.1999891366242814,-0.6720880001578143,0.4683430503148764,0.5375469978173484,-0.5352307558059692,0.8445426225662231,-0.01660413108766079,0,0,0,-1,-1,69436.46078450001,unknown,2,2025-04-18T14:39:57.870+03:00,2025-04-18T14:06:46.055+03:00,48,7.358232,0,0,40.48506,0,0,2025-04-18T14:40:03.029+03:00,766669216.0135459,0,6.320007,100.354,1,0.25,2025-04-18T14:32:39.794+03:00,92.00000000000001,1.533333333333333,2025-04-18T08:51:18.885+03:00,0.03057091307199995,0
2025-04-18T14:40:17.484+03:00,1744976414.995466,40.95365572399826,29.14101768181349,94.72507,-1,-1,-1,-1,30,25.91352151834083,-9999,69455.974617625,-0.537078857421875,0.8385009765625,-0.0172119140625,69455.964541625,0.4536704444589953,-1.539401339674866,-1.005707162544429,0.0005822185194119811,0.04046594724059105,0.004603344947099686,-0.0009514689445495605,-0.003934264183044434,0.001672150567173958,XArbitraryZVertical,-0.2000810803954513,-0.6719844323242936,0.4683011696686218,0.5376786885040499,-0.5352270007133484,0.8445408344268799,-0.01680896803736687,0,0,0,-1,-1,69436.46078450001,unknown,2,2025-04-18T14:39:57.870+03:00,2025-04-18T14:06:46.055+03:00,48,7.358232,0,0,40.48506,0,0,2025-04-18T14:40:03.029+03:00,766669216.0135459,0,6.320007,100.354,1,0.25,2025-04-18T14:32:39.794+03:00,92.00000000000001,1.533333333333333,2025-04-18T08:51:18.885+03:00,0.03057091307199995,0
2025-04-18T14:40:17.494+03:00,1744976414.995466,40.95365572399826,29.14101768181349,94.72507,-1,-1,-1,-1,30,25.91352151834083,-9999,69455.98469362501,-0.529998779296875,0.8474273681640625,-0.0125579833984375,69455.974617625,0.4537267339976973,-1.539023514113344,-1.005707294987428,0.005143880378454924,0.02600731514394283,-0.003276582341641188,-0.001491963863372803,-0.006207823753356934,-9.399652481079102e-05,XArbitraryZVertical,-0.2001507007016967,-0.6718884594827318,0.4682784901746515,0.5377925246795496,-0.5352206230163574,0.8445409536361694,-0.01701118983328342,0,0,0,-1,-1,69436.46078450001,unknown,2,2025-04-18T14:39:57.870+03:00,2025-04-18T14:06:46.055+03:00,48,7.358232,0,0,40.48506,0,0,2025-04-18T14:40:03.029+03:00,766669216.0135459,0,6.320007,100.354,1,0.25,2025-04-18T14:32:39.794+03:00,92.00000000000001,1.533333333333333,2025-04-18T08:51:18.885+03:00,0.03057091307199995,0
2025-04-18T14:40:17.504+03:00,1744976414.995466,40.95365572399826,29.14101768181349,94.72507,-1,-1,-1,-1,30,25.91352151834083,-9999,69455.994769625,-0.5308685302734375,0.8422698974609375,-0.0144195556640625,69455.98469362501,0.4538351722820486,-1.538698510010738,-1.005691384889984,0.005402473267167807,0.0222285557538271,-0.005822830833494663,0.003566741943359375,0.002025306224822998,0.004429159685969353,XArbitraryZVertical,-0.2001849193135667,-0.6718133746122174,0.4682709560257495,0.5378802423142098,-0.5352287292480469,0.8445324301719666,-0.01718557626008987,0,0,0,-1,-1,69436.46078450001,unknown,2,2025-04-18T14:39:57.870+03:00,2025-04-18T14:06:46.055+03:00,48,7.358232,0,0,40.48506,0,0,2025-04-18T14:40:03.029+03:00,766669216.0135459,0,6.320007,100.354,1,0.25,2025-04-18T14:32:39.794+03:00,92.00000000000001,1.533333333333333,2025-04-18T08:51:18.885+03:00,0.03057091307199995,0
