loggingTime(txt),locationTimestamp_since1970(s),locationLatitude(WGS84),locationLongitude(WGS84),locationAltitude(m),locationSpeed(m/s),locationSpeedAccuracy(m/s),locationCourse(°),locationCourseAccuracy(°),locationVerticalAccuracy(m),locationHorizontalAccuracy(m),locationFloor(Z),accelerometerTimestamp_sinceReboot(s),accelerometerAccelerationX(G),accelerometerAccelerationY(G),accelerometerAccelerationZ(G),motionTimestamp_sinceReboot(s),motionYaw(rad),motionRoll(rad),motionPitch(rad),motionRotationRateX(rad/s),motionRotationRateY(rad/s),motionRotationRateZ(rad/s),motionUserAccelerationX(G),motionUserAccelerationY(G),motionUserAccelerationZ(G),motionAttitudeReferenceFrame(txt),motionQuaternionX(R),motionQuaternionY(R),motionQuaternionZ(R),motionQuaternionW(R),motionGravityX(G),motionGravityY(G),motionGravityZ(G),motionMagneticFieldX(µT),motionMagneticFieldY(µT),motionMagneticFieldZ(µT),motionHeading(°),motionMagneticFieldCalibrationAccuracy(Z),activityTimestamp_sinceReboot(s),activity(txt),activityActivityConfidence(Z),activityActivityStartDate(txt),pedometerStartDate(txt),pedometerNumberofSteps(N),pedometerAverageActivePace(s/m),pedometerCurrentPace(s/m),pedometerCurrentCadence(steps/s),pedometerDistance(m),pedometerFloorAscended(N),pedometerFloorDescended(N),pedometerEndDate(txt),altimeterTimestamp_sinceReboot(s),altimeterReset(bool),altimeterRelativeAltitude(m),altimeterPressure(kPa),batteryState(N),batteryLevel(R),heartRateBPMTimestamp(txt),heartRateBPM(N),heartRateBPS(R),heartRateVariabilityTimestamp(txt),heartRateVariability(ms),label
2025-04-18T12:33:09.651+03:00,1744968787.160457,40.95364477741025,29.14099323588287,92.07828,-1,-1,-1,-1,30,31.71544983042259,-9999,66798.42899837501,-0.7511138916015625,0.6319580078125,-0.2623291015625,66798.418922375,1.269755655742734,-1.232882024334821,-0.6694712597973135,0.02416008338332176,0.02175437286496162,-0.002943114610388875,-0.03911060094833374,0.007999122142791748,-0.006868958473205566,XArbitraryZVertical,0.1080279782605007,-0.5986227811679854,0.6099788058617902,0.5078450878086304,-0.7398048043251038,0.6205714344978333,-0.2599614560604095,0,0,0,-1,-1,66782.51853550001,unknown,2,2025-04-18T12:32:53.690+03:00,2025-04-17T15:44:39.500+03:00,7653,1.147938,0,0,6301.398,4,10,2025-04-18T12:29:40.242+03:00,766661589.2645069,0,110.88,100.5253,1,0.4,2025-04-18T12:33:02.545+03:00,80,1.333333333333333,2025-04-18T08:51:18.885+03:00,0.03057091307199995,1
2025-04-18T12:33:09.653+03:00,1744968787.160457,40.95364477741025,29.14099323588287,92.07828,-1,-1,-1,-1,30,31.71544983042259,-9999,66798.439073375,-0.6970367431640625,0.613067626953125,-0.2517547607421875,66798.42899837501,1.26992654194238,-1.232776368255537,-0.6693619257404623,0.01524142455309629,-0.009573990479111671,-0.006150892470031977,-0.02595144510269165,0.01620250940322876,-0.006127417087554932,XArbitraryZVertical,0.1080869558210377,-0.5985700866357297,0.6100125618475426,0.5078541574526586,-0.7398414015769958,0.6204857230186462,-0.2600621283054352,0,0,0,-1,-1,66782.51853550001,unknown,2,2025-04-18T12:32:53.690+03:00,2025-04-17T15:44:39.500+03:00,7653,1.147938,0,0,6301.398,4,10,2025-04-18T12:29:40.242+03:00,766661589.2645069,0,110.88,100.5253,1,0.4,2025-04-18T12:33:02.545+03:00,80,1.333333333333333,2025-04-18T08:51:18.885+03:00,0.03057091307199995,1
2025-04-18T12:33:09.654+03:00,1744968787.160457,40.95364477741025,29.14099323588287,92.07828,-1,-1,-1,-1,30,31.71544983042259,-9999,66798.44914937501,-0.745452880859375,0.619720458984375,-0.2665557861328125,66798.439073375,1.270025972000235,-1.232747109124457,-0.6691563609650947,0.01493695843964815,0.01141271833330393,-0.00673562241718173,0.04531288146972656,-0.006219267845153809,0.008844375610351562,XArbitraryZVertical,0.1081831737136487,-0.5985260079873528,0.6100105532818432,0.5078879423877185,-0.7399540543556213,0.6203244924545288,-0.2601260244846344,0,0,0,-1,-1,66782.51853550001,unknown,2,2025-04-18T12:32:53.690+03:00,2025-04-17T15:44:39.500+03:00,7653,1.147938,0,0,6301.398,4,10,2025-04-18T12:29:40.242+03:00,766661589.2645069,0,110.88,100.5253,1,0.4,2025-04-18T12:33:02.545+03:00,80,1.333333333333333,2025-04-18T08:51:18.885+03:00,0.03057091307199995,1
2025-04-18T12:33:09.662+03:00,1744968787.160457,40.95364477741025,29.14099323588287,92.07828,-1,-1,-1,-1,30,31.71544983042259,-9999,66798.45922437501,-0.7347412109375,0.617828369140625,-0.2625885009765625,66798.44914937501,1.270168555834406,-1.232507864832433,-0.6691039028802016,0.009136592969298363,0.00496573792770505,-0.006563049275428057,-0.0008916854858398438,-0.001356363296508789,-0.004990577697753906,XArbitraryZVertical,0.1081720357425219,-0.5984495441048611,0.6100523361443128,0.5079303845327402,-0.7399226427078247,0.6202833652496338,-0.2603138983249664,0,0,0,-1,-1,66782.51853550001,unknown,2,2025-04-18T12:32:53.690+03:00,2025-04-17T15:44:39.500+03:00,7653,1.147938,0,0,6301.398,4,10,2025-04-18T12:29:40.242+03:00,766661589.2645069,0,110.88,100.5253,1,0.4,2025-04-18T12:33:02.545+03:00,80,1.333333333333333,2025-04-18T08:51:18.885+03:00,0.03057091307199995,1
2025-04-18T12:33:09.676+03:00,1744968787.160457,40.95364477741025,29.14099323588287,92.07828,-1,-1,-1,-1,30,31.71544983042259,-9999,66798.469300375,-0.722686767578125,0.616668701171875,-0.2562713623046875,66798.45922437501,1.270276268534241,-1.232391518836511,-0.6690913336404086,0.005644523538649082,0.0002073352225124836,-0.008753033354878426,0.001618325710296631,-0.001666843891143799,-0.002872556447982788,XArbitraryZVertical,0.1081733679933146,-0.5984122540989597,0.6100842195462631,0.5079357778517095,-0.7398996949195862,0.6202734708786011,-0.2604025900363922,0,0,0,-1,-1,66782.51853550001,unknown,2,2025-04-18T12:32:53.690+03:00,2025-04-17T15:44:39.500+03:00,7653,1.147938,0,0,6301.398,4,10,2025-04-18T12:29:40.242+03:00,766661589.2645069,0,110.88,100.5253,1,0.4,2025-04-18T12:33:02.545+03:00,80,1.333333333333333,2025-04-18T08:51:18.885+03:00,0.03057091307199995,1
2025-04-18T12:33:09.684+03:00,1744968787.160457,40.95364477741025,29.14099323588287,92.07828,-1,-1,-1,-1,30,31.71544983042259,-9999,66798.479375375,-0.7392578125,0.6247100830078125,-0.2581939697265625,66798.469300375,1.270328382439587,-1.232272522692344,-0.6689971510819008,0.003178436309099197,0.01281127706170082,-0.006008379627019167,0.01859492063522339,-0.003439366817474365,0.003277391195297241,XArbitraryZVertical,0.1081872526826309,-0.5983648787889081,0.610090694010899,0.5079806789830413,-0.7399236559867859,0.6201996207237244,-0.2605099678039551,0,0,0,-1,-1,66782.51853550001,unknown,2,2025-04-18T12:32:53.690+03:00,2025-04-17T15:44:39.500+03:00,7653,1.147938,0,0,6301.398,4,10,2025-04-18T12:29:40.242+03:00,766661589.2645069,0,110.88,100.5253,1,0.4,2025-04-18T12:33:02.545+03:00,80,1.333333333333333,2025-04-18T08:51:18.885+03:00,0.03057091307199995,1
2025-04-18T12:33:09.692+03:00,1744968787.160457,40.95364477741025,29.14099323588287,92.07828,-1,-1,-1,-1,30,31.71544983042259,-9999,66798.489451375,-0.7325286865234375,0.618255615234375,-0.2612762451171875,66798.479375375,1.270355138659663,-1.232145774372315,-0.6689423507033671,0.004814282990992069,0.007976974360644817,-0.007066919468343258,0.002053439617156982,0.004110991954803467,0.002726316452026367,XArbitraryZVertical,0.1081766760062443,-0.5983228881086931,0.6100966619759353,0.5080252336383655,-0.7399227023124695,0.6201566457748413,-0.2606150507926941,0,0,0,-1,-1,66782.51853550001,unknown,2,2025-04-18T12:32:53.690+03:00,2025-04-17T15:44:39.500+03:00,7653,1.147938,0,0,6301.398,4,10,2025-04-18T12:29:40.242+03:00,766661589.2645069,0,110.88,100.5253,1,0.4,2025-04-18T12:33:02.545+03:00,80,1.333333333333333,2025-04-18T08:51:18.885+03:00,0.03057091307199995,1
2025-04-18T12:33:09.702+03:00,1744968787.160457,40.95364477741025,29.14099323588287,92.07828,-1,-1,-1,-1,30,31.71544983042259,-9999,66798.499526375,-0.724822998046875,0.622406005859375,-0.2653350830078125,66798.489451375,1.27036704371962,-1.232091429626686,-0.6689099671571272,0.00448990985751152,0.002733476459980011,-0.006108714267611504,0.005964457988739014,-0.0005481243133544922,-0.0006142556667327881,XArbitraryZVertical,0.1081755325910768,-0.5983035059127475,0.6100980857329408,0.5080465874699444,-0.7399274706840515,0.620131254196167,-0.2606619298458099,0,0,0,-1,-1,66782.51853550001,unknown,2,2025-04-18T12:32:53.690+03:00,2025-04-17T15:44:39.500+03:00,7653,1.147938,0,0,6301.398,4,10,2025-04-18T12:29:40.242+03:00,766661589.2645069,0,110.88,100.5253,1,0.4,2025-04-18T12:33:02.545+03:00,80,1.333333333333333,2025-04-18T08:51:18.885+03:00,0.03057091307199995,1
2025-04-18T12:33:09.713+03:00,1744968787.160457,40.95364477741025,29.14099323588287,92.07828,-1,-1,-1,-1,30,31.71544983042259,-9999,66798.50960237501,-0.730560302734375,0.6309051513671875,-0.2685546875,66798.499526375,1.27041091528984,-1.232062823016179,-0.6688248829212933,0.00990305095911026,0.002269553951919079,-0.0036635329015553,0.01503998041152954,0.0001443028450012207,-0.003428936004638672,XArbitraryZVertical,0.1082111009587849,-0.5982808974720094,0.6100988472910152,0.5080647667892945,-0.7399698495864868,0.6200644969940186,-0.2607006430625916,0,0,0,-1,-1,66782.51853550001,unknown,2,2025-04-18T12:32:53.690+03:00,2025-04-17T15:44:39.500+03:00,7653,1.147938,0,0,6301.398,4,10,2025-04-18T12:29:40.242+03:00,766661589.2645069,0,110.88,100.5253,1,0.4,2025-04-18T12:33:02.545+03:00,80,1.333333333333333,2025-04-18T08:51:18.885+03:00,0.03057091307199995,1
2025-04-18T12:33:09.723+03:00,1744968787.160457,40.95364477741025,29.14099323588287,92.07828,-1,-1,-1,-1,30,31.71544983042259,-9999,66798.519678375,-0.7319488525390625,0.6258544921875,-0.27130126953125,66798.50960237501,1.270532151215584,-1.23202710786991,-0.6687333280920817,0.01554868556559086,-0.00548503827303648,-0.004274994600564241,0.009179115295410156,0.01056164503097534,-0.007503479719161987,XArbitraryZVertical,0.1082699780326792,-0.5982513005069814,0.6101187360464091,0.5080633263332764,-0.7400141954421997,0.6199926733970642,-0.2607459723949432,0,0,0,-1,-1,66782.51853550001,unknown,2,2025-04-18T12:32:53.690+03:00,2025-04-17T15:44:39.500+03:00,7653,1.147938,0,0,6301.398,4,10,2025-04-18T12:29:40.242+03:00,766661589.2645069,0,110.88,100.5253,1,0.4,2025-04-18T12:33:02.545+03:00,80,1.333333333333333,2025-04-18T08:51:18.885+03:00,0.03057091307199995,1
2025-04-18T12:33:09.733+03:00,1744968787.160457,40.95364477741025,29.14099323588287,92.07828,-1,-1,-1,-1,30,31.71544983042259,-9999,66798.529753375,-0.7366790771484375,0.629913330078125,-0.2691802978515625,66798.519678375,1.270722093828831,-1.231938521947606,-0.668674955060411,0.02027406543493271,-0.004288613330572844,-0.008915619924664497,0.007908344268798828,0.006106078624725342,-0.0108591616153717,XArbitraryZVertical,0.1083211809616724,-0.5982096150739148,0.6101636035363094,0.5080475700485459,-0.7400251626968384,0.6199468374252319,-0.2608235478401184,0,0,0,-1,-1,66782.51853550001,unknown,2,2025-04-18T12:32:53.690+03:00,2025-04-17T15:44:39.500+03:00,7653,1.147938,0,0,6301.398,4,10,2025-04-18T12:29:40.242+03:00,766661589.2645069,0,110.88,100.5253,1,0.4,2025-04-18T12:33:02.545+03:00,80,1.333333333333333,2025-04-18T08:51:18.885+03:00,0.03057091307199995,1
2025-04-18T12:33:09.743+03:00,1744968787.160457,40.95364477741025,29.14099323588287,92.07828,-1,-1,-1,-1,30,31.71544983042259,-9999,66798.539829375,-0.738372802734375,0.6267242431640625,-0.260955810546875,66798.529753375,1.270936116498466,-1.231823455769205,-0.6685171469443425,0.02178327925503254,-0.0003500641323626041,-0.008292972110211849,0.004110097885131836,0.009327411651611328,-0.008895158767700195,XArbitraryZVertical,0.1084079630105092,-0.5981447235762349,0.6102020947408235,0.5080591458780266,-0.7400873303413391,0.6198230385780334,-0.260941207408905,0,0,0,-1,-1,66782.51853550001,unknown,2,2025-04-18T12:32:53.690+03:00,2025-04-17T15:44:39.500+03:00,7653,1.147938,0,0,6301.398,4,10,2025-04-18T12:29:40.242+03:00,766661589.2645069,0,110.88,100.5253,1,0.4,2025-04-18T12:33:02.545+03:00,80,1.333333333333333,2025-04-18T08:51:18.885+03:00,0.03057091307199995,1
2025-04-18T12:33:09.753+03:00,1744968787.160457,40.95364477741025,29.14099323588287,92.07828,-1,-1,-1,-1,30,31.71544983042259,-9999,66798.549904375,-0.7371978759765625,0.6190948486328125,-0.2575531005859375,66798.539829375,1.271119279570583,-1.231706921061276,-0.6683646440849293,0.01794712990522385,-0.0003438061103224754,-0.009807311929762363,0.00159001350402832,0.008165299892425537,-0.0006903707981109619,XArbitraryZVertical,0.1084831315524697,-0.5980819233754983,0.6102335820548683,0.5080790788320563,-0.7401459217071533,0.6197033524513245,-0.2610588371753693,0,0,0,-1,-1,66782.51853550001,unknown,2,2025-04-18T12:32:53.690+03:00,2025-04-17T15:44:39.500+03:00,7653,1.147938,0,0,6301.398,4,10,2025-04-18T12:29:40.242+03:00,766661589.2645069,0,110.88,100.5253,1,0.4,2025-04-18T12:33:02.545+03:00,80,1.333333333333333,2025-04-18T08:51:18.885+03:00,0.03057091307199995,1
2025-04-18T12:33:09.763+03:00,1744968787.160457,40.95364477741025,29.14099323588287,92.07828,-1,-1,-1,-1,30,31.71544983042259,-9999,66798.55998037501,-0.737518310546875,0.617889404296875,-0.256591796875,66798.549904375,1.271329818392474,-1.231572042384279,-0.6682487022679907,0.01917324960231781,-0.0003358167596161366,-0.007062392309308052,0.002294003963470459,-0.000502169132232666,0.003446459770202637,XArbitraryZVertical,0.1085473710696181,-0.5980185245339876,0.6102781368356595,0.5080866098716328,-0.7401785850524902,0.6196123361587524,-0.2611826360225677,0,0,0,-1,-1,66782.51853550001,unknown,2,2025-04-18T12:32:53.690+03:00,2025-04-17T15:44:39.500+03:00,7653,1.147938,0,0,6301.398,4,10,2025-04-18T12:29:40.242+03:00,766661589.2645069,0,110.88,100.5253,1,0.4,2025-04-18T12:33:02.545+03:00,80,1.333333333333333,2025-04-18T08:51:18.885+03:00,0.03057091307199995,1
2025-04-18T12:33:09.773+03:00,1744968787.160457,40.95364477741025,29.14099323588287,92.07828,-1,-1,-1,-1,30,31.71544983042259,-9999,66798.57005537501,-0.7379302978515625,0.6177978515625,-0.257415771484375,66798.55998037501,1.271568935130364,-1.231418407329475,-0.6681408117695073,0.02613854594528675,0.001874407753348351,-0.005012257490307093,0.002561032772064209,-0.001699209213256836,0.00454375147819519,XArbitraryZVertical,0.1086114868433026,-0.5979500258576048,0.6103321091897271,0.5080887921479063,-0.7402015924453735,0.6195276379585266,-0.2613186240196228,0,0,0,-1,-1,66782.51853550001,unknown,2,2025-04-18T12:32:53.690+03:00,2025-04-17T15:44:39.500+03:00,7653,1.147938,0,0,6301.398,4,10,2025-04-18T12:29:40.242+03:00,766661589.2645069,0,110.88,100.5253,1,0.4,2025-04-18T12:33:02.545+03:00,80,1.333333333333333,2025-04-18T08:51:18.885+03:00,0.03057091307199995,1
2025-04-18T12:33:09.783+03:00,1744968787.160457,40.95364477741025,29.14099323588287,92.07828,-1,-1,-1,-1,30,31.71544983042259,-9999,66798.580131375,-0.7328643798828125,0.6213836669921875,-0.259918212890625,66798.57005537501,1.271862372834964,-1.231212830620035,-0.6680490894570393,0.02242370322346687,0.001855765469372272,-0.0007389492820948362,0.001599609851837158,-0.001444160938262939,0.004684329032897949,XArbitraryZVertical,0.1086701269269347,-0.5978678475517528,0.6104049866122453,0.508085311858372,-0.7402012944221497,0.6194556355476379,-0.2614896893501282,0,0,0,-1,-1,66782.51853550001,unknown,2,2025-04-18T12:32:53.690+03:00,2025-04-17T15:44:39.500+03:00,7653,1.147938,0,0,6301.398,4,10,2025-04-18T12:29:40.242+03:00,766661589.2645069,0,110.88,100.5253,1,0.4,2025-04-18T12:33:02.545+03:00,80,1.333333333333333,2025-04-18T08:51:18.885+03:00,0.03057091307199995,1
2025-04-18T12:33:09.794+03:00,1744968787.160457,40.95364477741025,29.14099323588287,92.07828,-1,-1,-1,-1,30,31.71544983042259,-9999,66798.59020637501,-0.724456787109375,0.6199798583984375,-0.2592926025390625,66798.580131375,1.272132120901786,-1.231030167897154,-0.6680253426507001,0.01677274145185947,-0.0047017359174788,0.002044986002147198,0.006723165512084961,0.001122772693634033,0.002367764711380005,XArbitraryZVertical,0.1087036585888251,-0.5978031457110348,0.6104801098778173,0.508064141808409,-0.740167498588562,0.6194369792938232,-0.2616298198699951,0,0,0,-1,-1,66782.51853550001,unknown,2,2025-04-18T12:32:53.690+03:00,2025-04-17T15:44:39.500+03:00,7653,1.147938,0,0,6301.398,4,10,2025-04-18T12:29:40.242+03:00,766661589.2645069,0,110.88,100.5253,1,0.4,2025-04-18T12:33:02.545+03:00,80,1.333333333333333,2025-04-18T08:51:18.885+03:00,0.03057091307199995,1
2025-04-18T12:33:09.803+03:00,1744968787.160457,40.95364477741025,29.14099323588287,92.07828,-1,-1,-1,-1,30,31.71544983042259,-9999,66798.600282375,-0.723236083984375,0.6203155517578125,-0.259307861328125,66798.59020637501,1.272319291385769,-1.230964641551255,-0.6680419366652246,0.009836272336542606,-0.01029810309410095,0.001276131486520171,0.01534807682037354,0.0008502602577209473,0.0017566978931427,XArbitraryZVertical,0.1087335752091034,-0.5977788736095518,0.6105335453210433,0.5080219459096809,-0.7401405572891235,0.6194500327110291,-0.2616748511791229,0,0,0,-1,-1,66782.51853550001,unknown,2,2025-04-18T12:32:53.690+03:00,2025-04-17T15:44:39.500+03:00,7653,1.147938,0,0,6301.398,4,10,2025-04-18T12:29:40.242+03:00,766661589.2645069,0,110.88,100.5253,1,0.4,2025-04-18T12:33:02.545+03:00,80,1.333333333333333,2025-04-18T08:51:18.885+03:00,0.03057091307199995,1
2025-04-18T12:33:09.813+03:00,1744968787.160457,40.95364477741025,29.14099323588287,92.07828,-1,-1,-1,-1,30,31.71544983042259,-9999,66798.610357375,-0.7292633056640625,0.6226654052734375,-0.2615203857421875,66798.600282375,1.272448551384317,-1.231003017101074,-0.6680563118667179,0.00281717861071229,-0.01624048128724098,0.002086764434352517,0.01693665981292725,0.0002133846282958984,0.002244114875793457,XArbitraryZVertical,0.1087786281382346,-0.5977837871553843,0.6105662969337959,0.5079672283317328,-0.740142285823822,0.6194612979888916,-0.2616434991359711,0,0,0,-1,-1,66782.51853550001,unknown,2,2025-04-18T12:32:53.690+03:00,2025-04-17T15:44:39.500+03:00,7653,1.147938,0,0,6301.398,4,10,2025-04-18T12:29:40.242+03:00,766661589.2645069,0,110.88,100.5253,1,0.4,2025-04-18T12:33:02.545+03:00,80,1.333333333333333,2025-04-18T08:51:18.885+03:00,0.03057091307199995,1
2025-04-18T12:33:09.823+03:00,1744968787.160457,40.95364477741025,29.14099323588287,92.07828,-1,-1,-1,-1,30,31.71544983042259,-9999,66798.62043337501,-0.734649658203125,0.6213226318359375,-0.2595672607421875,66798.610357375,1.272537496671274,-1.231103290812172,-0.6680864805614013,0.00514930859208107,-0.02024134807288647,0.0009708999423310161,0.01215392351150513,0.002524256706237793,-0.0003692805767059326,XArbitraryZVertical,0.1088248399206033,-0.5978090421345515,0.6105876587907411,0.5079017524488233,-0.7401507496833801,0.6194850206375122,-0.2615630030632019,0,0,0,-1,-1,66782.51853550001,unknown,2,2025-04-18T12:32:53.690+03:00,2025-04-17T15:44:39.500+03:00,7653,1.147938,0,0,6301.398,4,10,2025-04-18T12:29:40.242+03:00,766661589.2645069,0,110.88,100.5253,1,0.4,2025-04-18T12:33:02.545+03:00,80,1.333333333333333,2025-04-18T08:51:18.885+03:00,0.03057091307199995,1
2025-04-18T12:33:09.833+03:00,1744968787.160457,40.95364477741025,29.14099323588287,92.07828,-1,-1,-1,-1,30,31.71544983042259,-9999,66798.630508375,-0.7420196533203125,0.6224517822265625,-0.2624969482421875,66798.62043337501,1.272645896815591,-1.231255105661895,-0.6680897157124935,0.01474893838167191,-0.02202806249260902,-0.001073475694283843,0.0063934326171875,0.002369165420532227,0.001013040542602539,XArbitraryZVertical,0.1089023738232011,-0.5978421823241961,0.6106073698336605,0.5078225041284311,-0.7401885986328125,0.6194875240325928,-0.2614499926567078,0,0,0,-1,-1,66782.51853550001,unknown,2,2025-04-18T12:32:53.690+03:00,2025-04-17T15:44:39.500+03:00,7653,1.147938,0,0,6301.398,4,10,2025-04-18T12:29:40.242+03:00,766661589.2645069,0,110.88,100.5253,1,0.4,2025-04-18T12:33:02.545+03:00,80,1.333333333333333,2025-04-18T08:51:18.885+03:00,0.03057091307199995,1
2025-04-18T12:33:09.843+03:00,1744968787.160457,40.95364477741025,29.14099323588287,92.07828,-1,-1,-1,-1,30,31.71544983042259,-9999,66798.64058437501,-0.7430572509765625,0.6244354248046875,-0.2631988525390625,66798.630508375,1.272844371548114,-1.231338447132398,-0.6680443125982336,0.02015302516520023,-0.01705780439078808,0.003256824100390077,-0.0007909536361694336,0.002404868602752686,-0.001022905111312866,XArbitraryZVertical,0.1090037492334713,-0.597845575990515,0.6106468667972067,0.5077493484514168,-0.7402369976043701,0.6194518804550171,-0.2613976895809174,0,0,0,-1,-1,66782.51853550001,unknown,2,2025-04-18T12:32:53.690+03:00,2025-04-17T15:44:39.500+03:00,7653,1.147938,0,0,6301.398,4,10,2025-04-18T12:29:40.242+03:00,766661589.2645069,0,110.88,100.5253,1,0.4,2025-04-18T12:33:02.545+03:00,80,1.333333333333333,2025-04-18T08:51:18.885+03:00,0.03057091307199995,1
2025-04-18T12:33:09.853+03:00,1744968787.160457,40.95364477741025,29.14099323588287,92.07828,-1,-1,-1,-1,30,31.71544983042259,-9999,66798.65065937501,-0.73785400390625,0.6181640625,-0.2596588134765625,66798.64058437501,1.273138822299638,-1.231337042962877,-0.6680006310766786,0.02250299975275993,-0.01662370935082436,0.005906003527343273,-0.002901971340179443,0.005704522132873535,-0.002111494541168213,XArbitraryZVertical,0.1091073519825214,-0.5978224783860796,0.6107155843122263,0.5076716104807009,-0.7402621507644653,0.6194176077842712,-0.261407732963562,0,0,0,-1,-1,66782.51853550001,unknown,2,2025-04-18T12:32:53.690+03:00,2025-04-17T15:44:39.500+03:00,7653,1.147938,0,0,6301.398,4,10,2025-04-18T12:29:40.242+03:00,766661589.2645069,0,110.88,100.5253,1,0.4,2025-04-18T12:33:02.545+03:00,80,1.333333333333333,2025-04-18T08:51:18.885+03:00,0.03057091307199995,1
2025-04-18T12:33:09.863+03:00,1744968787.160457,40.95364477741025,29.14099323588287,92.07828,-1,-1,-1,-1,30,31.71544983042259,-9999,66798.660735375,-0.73541259765625,0.6099395751953125,-0.256988525390625,66798.65065937501,1.273415550465014,-1.231336097144708,-0.6680135824404632,0.0185998696833849,-0.01595046184957027,0.009839492850005627,0.00140845775604248,-0.0006685853004455566,0.001014590263366699,XArbitraryZVertical,0.1091850254678891,-0.5978091184126098,0.6107876828520347,0.507583920922813,-0.7402543425559998,0.6194277405738831,-0.2614057660102844,0,0,0,-1,-1,66782.51853550001,unknown,2,2025-04-18T12:32:53.690+03:00,2025-04-17T15:44:39.500+03:00,7653,1.147938,0,0,6301.398,4,10,2025-04-18T12:29:40.242+03:00,766661589.2645069,0,110.88,100.5253,1,0.4,2025-04-18T12:33:02.545+03:00,80,1.333333333333333,2025-04-18T08:51:18.885+03:00,0.03057091307199995,1
2025-04-18T12:33:09.874+03:00,1744968787.160457,40.95364477741025,29.14099323588287,92.07828,-1,-1,-1,-1,30,31.71544983042259,-9999,66798.670810375,-0.726531982421875,0.61138916015625,-0.2547149658203125,66798.660735375,1.273634482239781,-1.231377385750902,-0.6681110976038992,0.006625365931540728,-0.021166130900383,0.01467452757060528,0.004185140132904053,-0.009656190872192383,0.004244536161422729,XArbitraryZVertical,0.1092273372235065,-0.5978225764962302,0.6108546128315698,0.5074784498223244,-0.7402082085609436,0.6195043325424194,-0.2613551020622253,0,0,0,-1,-1,66782.51853550001,unknown,2,2025-04-18T12:32:53.690+03:00,2025-04-17T15:44:39.500+03:00,7653,1.147938,0,0,6301.398,4,10,2025-04-18T12:29:40.242+03:00,766661589.2645069,0,110.88,100.5253,1,0.4,2025-04-18T12:33:02.545+03:00,80,1.333333333333333,2025-04-18T08:51:18.885+03:00,0.03057091307199995,1
2025-04-18T12:33:09.884+03:00,1744968787.160457,40.95364477741025,29.14099323588287,92.07828,-1,-1,-1,-1,30,31.71544983042259,-9999,66798.680886375,-0.728363037109375,0.613525390625,-0.25836181640625,66798.670810375,1.273764892850088,-1.231502405241475,-0.6683208215972033,0.0003887751081492752,-0.02079621702432632,0.02074041031301022,0.01245707273483276,-0.009347856044769287,0.005985617637634277,XArbitraryZVertical,0.1092276973554103,-0.5978792998175202,0.6109101781575141,0.5073445932490503,-0.7401182651519775,0.6196689605712891,-0.2612192928791046,0,0,0,-1,-1,66782.51853550001,unknown,2,2025-04-18T12:32:53.690+03:00,2025-04-17T15:44:39.500+03:00,7653,1.147938,0,0,6301.398,4,10,2025-04-18T12:29:40.242+03:00,766661589.2645069,0,110.88,100.5253,1,0.4,2025-04-18T12:33:02.545+03:00,80,1.333333333333333,2025-04-18T08:51:18.885+03:00,0.03057091307199995,1
2025-04-18T12:33:09.894+03:00,1744968787.160457,40.95364477741025,29.14099323588287,92.07828,-1,-1,-1,-1,30,31.71544983042259,-9999,66798.690961375,-0.737335205078125,0.6226959228515625,-0.264678955078125,66798.680886375,1.273899424535516,-1.231586054119991,-0.6685946640399891,0.001222744002006948,-0.01266145892441273,0.02673511952161789,0.01286822557449341,-0.00701451301574707,0.004036098718643188,XArbitraryZVertical,0.1091931382738646,-0.5979351062026241,0.6109779850075963,0.5072046332082509,-0.7399801015853882,0.6198838353157043,-0.2611009478569031,0,0,0,-1,-1,66782.51853550001,unknown,2,2025-04-18T12:32:53.690+03:00,2025-04-17T15:44:39.500+03:00,7653,1.147938,0,0,6301.398,4,10,2025-04-18T12:29:40.242+03:00,766661589.2645069,0,110.88,100.5253,1,0.4,2025-04-18T12:33:02.545+03:00,80,1.333333333333333,2025-04-18T08:51:18.885+03:00,0.03057091307199995,1
2025-04-18T12:33:09.904+03:00,1744968787.160457,40.95364477741025,29.14099323588287,92.07828,-1,-1,-1,-1,30,31.71544983042259,-9999,66798.70103737501,-0.7347412109375,0.6318359375,-0.2611541748046875,66798.690961375,1.27410444799079,-1.231574780445181,-0.668865684291901,0.0105573907494545,-0.01474218629300594,0.02887310460209846,0.003505825996398926,0.001622915267944336,-0.00313723087310791,XArbitraryZVertical,0.1091516867159834,-0.5979625544442194,0.6110684291213517,0.5070722884321727,-0.7398187518119812,0.6200965046882629,-0.2610533833503723,0,0,0,-1,-1,66782.51853550001,unknown,2,2025-04-18T12:32:53.690+03:00,2025-04-17T15:44:39.500+03:00,7653,1.147938,0,0,6301.398,4,10,2025-04-18T12:29:40.242+03:00,766661589.2645069,0,110.88,100.5253,1,0.4,2025-04-18T12:33:02.545+03:00,80,1.333333333333333,2025-04-18T08:51:18.885+03:00,0.03057091307199995,1
2025-04-18T12:33:09.914+03:00,1744968787.160457,40.95364477741025,29.14099323588287,92.07828,-1,-1,-1,-1,30,31.71544983042259,-9999,66798.71111237501,-0.7403564453125,0.6345977783203125,-0.25958251953125,66798.70103737501,1.27440240245021,-1.231512824192502,-0.6690846973353803,0.02053232491016388,-0.01066535338759422,0.02338289842009544,0.004902660846710205,0.01135408878326416,-0.001793891191482544,XArbitraryZVertical,0.1091416325322535,-0.5979641324548233,0.611177910216767,0.5069405789356083,-0.73967444896698,0.6202682852745056,-0.2610540091991425,0,0,0,-1,-1,66782.51853550001,unknown,2,2025-04-18T12:32:53.690+03:00,2025-04-17T15:44:39.500+03:00,7653,1.147938,0,0,6301.398,4,10,2025-04-18T12:29:40.242+03:00,766661589.2645069,0,110.88,100.5253,1,0.4,2025-04-18T12:33:02.545+03:00,80,1.333333333333333,2025-04-18T08:51:18.885+03:00,0.03057091307199995,1
2025-04-18T12:33:09.924+03:00,1744968787.160457,40.95364477741025,29.14099323588287,92.07828,-1,-1,-1,-1,30,31.71544983042259,-9999,66798.721188375,-0.75128173828125,0.641204833984375,-0.2668609619140625,66798.71111237501,1.274843723739049,-1.231279677940358,-0.6691891378422711,0.03449288383126259,0.002355640521273017,0.02000787295401096,0.00128638744354248,0.013713538646698,0.002171695232391357,XArbitraryZVertical,0.1091640949078365,-0.5978969631758398,0.6113170550667042,0.506847100169639,-0.7395524382591248,0.620350182056427,-0.2612048387527466,0,0,0,-1,-1,66782.51853550001,unknown,2,2025-04-18T12:32:53.690+03:00,2025-04-17T15:44:39.500+03:00,7653,1.147938,0,0,6301.398,4,10,2025-04-18T12:29:40.242+03:00,766661589.2645069,0,110.88,100.5253,1,0.4,2025-04-18T12:33:02.545+03:00,80,1.333333333333333,2025-04-18T08:51:18.885+03:00,0.03057091307199995,1
2025-04-18T12:33:09.934+03:00,1744968787.160457,40.95364477741025,29.14099323588287,92.07828,-1,-1,-1,-1,30,31.71544983042259,-9999,66798.731263375,-0.7412872314453125,0.6327972412109375,-0.2658233642578125,66798.721188375,1.275391271970583,-1.23090685109081,-0.6692338038815011,0.04218602553009987,0.001288578379899263,0.01463870890438557,-0.0108153223991394,0.02059072256088257,-0.004184186458587646,XArbitraryZVertical,0.1091974413583728,-0.597779445366311,0.6114823840051103,0.5067790767186972,-0.7394288778305054,0.6203852295875549,-0.261471301317215,0,0,0,-1,-1,66782.51853550001,unknown,2,2025-04-18T12:32:53.690+03:00,2025-04-17T15:44:39.500+03:00,7653,1.147938,0,0,6301.398,4,10,2025-04-18T12:29:40.242+03:00,766661589.2645069,0,110.88,100.5253,1,0.4,2025-04-18T12:33:02.545+03:00,80,1.333333333333333,2025-04-18T08:51:18.885+03:00,0.03057091307199995,1
2025-04-18T12:33:09.944+03:00,1744968787.160457,40.95364477741025,29.14099323588287,92.07828,-1,-1,-1,-1,30,31.71544983042259,-9999,66798.741339375,-0.735260009765625,0.62469482421875,-0.2660369873046875,66798.731263375,1.275915688551881,-1.230603749997401,-0.6692229505679904,0.03975855186581612,-0.001792964991182089,0.009628769941627979,-0.004693150520324707,0.01377856731414795,-0.004797041416168213,XArbitraryZVertical,0.1092654514934142,-0.597672338836066,0.6116302988993263,0.5067122751919567,-0.7393559217453003,0.6203767061233521,-0.2616976797580719,0,0,0,-1,-1,66782.51853550001,unknown,2,2025-04-18T12:32:53.690+03:00,2025-04-17T15:44:39.500+03:00,7653,1.147938,0,0,6301.398,4,10,2025-04-18T12:29:40.242+03:00,766661589.2645069,0,110.88,100.5253,1,0.4,2025-04-18T12:33:02.545+03:00,80,1.333333333333333,2025-04-18T08:51:18.885+03:00,0.03057091307199995,1
2025-04-18T12:33:09.956+03:00,1744968787.160457,40.95364477741025,29.14099323588287,92.07828,-1,-1,-1,-1,30,31.71544983042259,-9999,66798.751414375,-0.7393646240234375,0.627410888671875,-0.2683868408203125,66798.741339375,1.276459883071367,-1.230250368484279,-0.669152533126613,0.04388725012540817,0.004677717108279467,0.008030607365071774,0.004227578639984131,0.004342854022979736,-0.003727734088897705,XArbitraryZVertical,0.1093457927089482,-0.5975422559526196,0.6117776925264089,0.5066703578566698,-0.7393045425415039,0.62032151222229,-0.26197350025177,0,0,0,-1,-1,66782.51853550001,unknown,2,2025-04-18T12:32:53.690+03:00,2025-04-17T15:44:39.500+03:00,7653,1.147938,0,0,6301.398,4,10,2025-04-18T12:29:40.242+03:00,766661589.2645069,0,110.88,100.5253,1,0.4,2025-04-18T12:33:02.545+03:00,80,1.333333333333333,2025-04-18T08:51:18.885+03:00,0.03057091307199995,1
2025-04-18T12:33:09.964+03:00,1744968787.160457,40.95364477741025,29.14099323588287,92.07828,-1,-1,-1,-1,30,31.71544983042259,-9999,66798.76149037501,-0.725311279296875,0.6176605224609375,-0.2646484375,66798.751414375,1.276991498738003,-1.229935906858686,-0.6691040501109096,0.038351871073246,-0.004896612837910652,0.01000613998621702,-9.894371032714844e-05,0.007905662059783936,-0.006445407867431641,XArbitraryZVertical,0.1094261426394219,-0.5974260619803121,0.6119228225184202,0.5066148205388488,-0.7392504811286926,0.6202834844589233,-0.2622160315513611,0,0,0,-1,-1,66782.51853550001,unknown,2,2025-04-18T12:32:53.690+03:00,2025-04-17T15:44:39.500+03:00,7653,1.147938,0,0,6301.398,4,10,2025-04-18T12:29:40.242+03:00,766661589.2645069,0,110.88,100.5253,1,0.4,2025-04-18T12:33:02.545+03:00,80,1.333333333333333,2025-04-18T08:51:18.885+03:00,0.03057091307199995,1
2025-04-18T12:33:09.975+03:00,1744968787.160457,40.95364477741025,29.14099323588287,92.07828,-1,-1,-1,-1,30,31.71544983042259,-9999,66798.77156537501,-0.7244873046875,0.6112060546875,-0.262725830078125,66798.76149037501,1.277458327734165,-1.229698349821825,-0.6690883951320136,0.03230283036828041,-0.00387469120323658,0.008792038075625896,0.01200920343399048,-0.001252532005310059,-0.003107935190200806,XArbitraryZVertical,0.1094985821292278,-0.5973379252727622,0.6120518895272233,0.5065472816153535,-0.7391974329948425,0.6202712059020996,-0.2623949348926544,0,0,0,-1,-1,66782.51853550001,unknown,2,2025-04-18T12:32:53.690+03:00,2025-04-17T15:44:39.500+03:00,7653,1.147938,0,0,6301.398,4,10,2025-04-18T12:29:40.242+03:00,766661589.2645069,0,110.88,100.5253,1,0.4,2025-04-18T12:33:02.545+03:00,80,1.333333333333333,2025-04-18T08:51:18.885+03:00,0.03057091307199995,1
2025-04-18T12:33:09.990+03:00,1744968787.160457,40.95364477741025,29.14099323588287,92.07828,-1,-1,-1,-1,30,31.71544983042259,-9999,66798.78164262501,-0.7330780029296875,0.612396240234375,-0.2629852294921875,66798.77156537501,1.277854470439941,-1.229475465159506,-0.669119648817237,0.02276072651147842,-0.00231168232858181,0.01486883871257305,0.01535040140151978,-0.009455859661102295,-0.0009660720825195312,XArbitraryZVertical,0.1095372565118344,-0.59726460320777,0.6121687593420951,0.5064840843442132,-0.7391206026077271,0.6202957034111023,-0.2625531554222107,0,0,0,-1,-1,66782.51853550001,unknown,2,2025-04-18T12:32:53.690+03:00,2025-04-17T15:44:39.500+03:00,7653,1.147938,0,0,6301.398,4,10,2025-04-18T12:29:40.242+03:00,766661589.2645069,0,110.88,100.5253,1,0.4,2025-04-18T12:33:02.545+03:00,80,1.333333333333333,2025-04-18T08:51:18.885+03:00,0.03057091307199995,1
2025-04-18T12:33:09.995+03:00,1744968787.160457,40.95364477741025,29.14099323588287,92.07828,-1,-1,-1,-1,30,31.71544983042259,-9999,66798.791718625,-0.73651123046875,0.61083984375,-0.2611083984375,66798.78164262501,1.278127822382971,-1.229351182830422,-0.6692454800083006,0.01494980789721012,-0.006590982433408499,0.01595187932252884,0.006668746471405029,-0.007769286632537842,-0.0004425942897796631,XArbitraryZVertical,0.1095348064182689,-0.5972375566642417,0.6122622337022091,0.5064034136898606,-0.7390143275260925,0.6203944087028503,-0.2626188397407532,0,0,0,-1,-1,66782.51853550001,unknown,2,2025-04-18T12:32:53.690+03:00,2025-04-17T15:44:39.500+03:00,7653,1.147938,0,0,6301.398,4,10,2025-04-18T12:29:40.242+03:00,766661589.2645069,0,110.88,100.5253,1,0.4,2025-04-18T12:33:02.545+03:00,80,1.333333333333333,2025-04-18T08:51:18.885+03:00,0.03057091307199995,1
2025-04-18T12:33:10.005+03:00,1744968787.160457,40.95364477741025,29.14099323588287,92.07828,-1,-1,-1,-1,30,31.71544983042259,-9999,66798.80179362501,-0.749237060546875,0.6204986572265625,-0.2604522705078125,66798.791718625,1.278358081211262,-1.229267920584908,-0.6694032645081228,0.01391250640153885,-0.0001655737869441509,0.01541711669415236,0.003380835056304932,-0.01034963130950928,0.0007000565528869629,XArbitraryZVertical,0.1095202796935111,-0.5972281824049842,0.6123469500388927,0.5063152229146803,-0.7389002442359924,0.6205181479454041,-0.2626475989818573,0,0,0,-1,-1,66782.51853550001,unknown,2,2025-04-18T12:32:53.690+03:00,2025-04-17T15:44:39.500+03:00,7653,1.147938,0,0,6301.398,4,10,2025-04-18T12:29:40.242+03:00,766661589.2645069,0,110.88,100.5253,1,0.4,2025-04-18T12:33:02.545+03:00,80,1.333333333333333,2025-04-18T08:51:18.885+03:00,0.03057091307199995,1
2025-04-18T12:33:10.015+03:00,1744968787.160457,40.95364477741025,29.14099323588287,92.07828,-1,-1,-1,-1,30,31.71544983042259,-9999,66798.811869625,-0.7526702880859375,0.6273651123046875,-0.26177978515625,66798.80179362501,1.278639031722741,-1.229086798126125,-0.6695072862258573,0.02118300274014473,0.001810558140277863,0.01391273085027933,-0.008537888526916504,-0.002481400966644287,0.001834571361541748,XArbitraryZVertical,0.1095106152791487,-0.597182984235711,0.6124423920180322,0.5062552084535553,-0.7387918829917908,0.6205996870994568,-0.262759804725647,0,0,0,-1,-1,66782.51853550001,unknown,2,2025-04-18T12:32:53.690+03:00,2025-04-17T15:44:39.500+03:00,7653,1.147938,0,0,6301.398,4,10,2025-04-18T12:29:40.242+03:00,766661589.2645069,0,110.88,100.5253,1,0.4,2025-04-18T12:33:02.545+03:00,80,1.333333333333333,2025-04-18T08:51:18.885+03:00,0.03057091307199995,1
2025-04-18T12:33:10.025+03:00,1744968787.160457,40.95364477741025,29.14099323588287,92.07828,-1,-1,-1,-1,30,31.71544983042259,-9999,66798.821944625,-0.746337890625,0.6273040771484375,-0.2669677734375,66798.811869625,1.278960175326479,-1.228837388888302,-0.6695761369903042,0.0228328313678503,0.006324882619082928,0.009986433200538158,-0.0140911340713501,0.006604552268981934,0.001287370920181274,XArbitraryZVertical,0.1095049447054264,-0.5971128959867977,0.6125468671391047,0.5062126170437196,-0.7386859655380249,0.6206536889076233,-0.2629297077655792,0,0,0,-1,-1,66782.51853550001,unknown,2,2025-04-18T12:32:53.690+03:00,2025-04-17T15:44:39.500+03:00,7653,1.147938,0,0,6301.398,4,10,2025-04-18T12:29:40.242+03:00,766661589.2645069,0,110.88,100.5253,1,0.4,2025-04-18T12:33:02.545+03:00,80,1.333333333333333,2025-04-18T08:51:18.885+03:00,0.03057091307199995,1
2025-04-18T12:33:10.035+03:00,1744968787.160457,40.95364477741025,29.14099323588287,92.07828,-1,-1,-1,-1,30,31.71544983042259,-9999,66798.83202062501,-0.7379913330078125,0.63262939453125,-0.2702789306640625,66798.821944625,1.279357266019736,-1.228513351049828,-0.6695736872847051,0.03490906953811646,0.00835168082267046,0.005245140288025141,-0.009063243865966797,0.006194591522216797,-0.003157258033752441,XArbitraryZVertical,0.1095251176685189,-0.5970087579501095,0.612664773995154,0.5061884269626428,-0.7386022210121155,0.6206517815589905,-0.2631695866584778,0,0,0,-1,-1,66782.51853550001,unknown,2,2025-04-18T12:32:53.690+03:00,2025-04-17T15:44:39.500+03:00,7653,1.147938,0,0,6301.398,4,10,2025-04-18T12:29:40.242+03:00,766661589.2645069,0,110.88,100.5253,1,0.4,2025-04-18T12:33:02.545+03:00,80,1.333333333333333,2025-04-18T08:51:18.885+03:00,0.03057091307199995,1
2025-04-18T12:33:10.045+03:00,1744968787.160457,40.95364477741025,29.14099323588287,92.07828,-1,-1,-1,-1,30,31.71544983042259,-9999,66798.842095625,-0.730499267578125,0.636505126953125,-0.272491455078125,66798.83202062501,1.279838428149777,-1.228095997265004,-0.6694985632110246,0.03593997657299042,0.01362793613225222,0.003407292999327183,-0.0001569986343383789,0.01048022508621216,-0.007182091474533081,XArbitraryZVertical,0.1095683156216185,-0.5968651594960764,0.6127990272423169,0.5061860523956286,-0.7385363578796387,0.6205928921699524,-0.263493537902832,0,0,0,-1,-1,66782.51853550001,unknown,2,2025-04-18T12:32:53.690+03:00,2025-04-17T15:44:39.500+03:00,7653,1.147938,0,0,6301.398,4,10,2025-04-18T12:29:40.242+03:00,766661589.2645069,0,110.88,100.5253,1,0.4,2025-04-18T12:33:02.545+03:00,80,1.333333333333333,2025-04-18T08:51:18.885+03:00,0.03057091307199995,1
2025-04-18T12:33:10.055+03:00,1744968787.160457,40.95364477741025,29.14099323588287,92.07828,-1,-1,-1,-1,30,31.71544983042259,-9999,66798.85217162501,-0.7234649658203125,0.6260528564453125,-0.271636962890625,66798.842095625,1.280315075170159,-1.227662749134243,-0.6694356665537705,0.03564629703760147,0.01038533821702003,0.004256741609424353,0.006647229194641113,0.01646518707275391,-0.008207052946090698,XArbitraryZVertical,0.1096008396614053,-0.5967196691813732,0.6129347239419899,0.5061861768073972,-0.7384588122367859,0.6205435395240784,-0.2638265788555145,0,0,0,-1,-1,66782.51853550001,unknown,2,2025-04-18T12:32:53.690+03:00,2025-04-17T15:44:39.500+03:00,7653,1.147938,0,0,6301.398,4,10,2025-04-18T12:29:40.242+03:00,766661589.2645069,0,110.88,100.5253,1,0.4,2025-04-18T12:33:02.545+03:00,80,1.333333333333333,2025-04-18T08:51:18.885+03:00,0.03057091307199995,1
2025-04-18T12:33:10.065+03:00,1744968787.160457,40.95364477741025,29.14099323588287,92.07828,-1,-1,-1,-1,30,31.71544983042259,-9999,66798.86224662501,-0.724090576171875,0.626220703125,-0.2686004638671875,66798.85217162501,1.280783811712486,-1.227274957389626,-0.6693521169304569,0.03799067810177803,0.007361850701272488,0.005056488793343306,0.01347541809082031,0.006444633007049561,-0.008132100105285645,XArbitraryZVertical,0.1096523964808262,-0.5965828951925028,0.6130630909331543,0.5061807997671905,-0.7384052872657776,0.6204780340194702,-0.2641304135322571,0,0,0,-1,-1,66782.51853550001,unknown,2,2025-04-18T12:32:53.690+03:00,2025-04-17T15:44:39.500+03:00,7653,1.147938,0,0,6301.398,4,10,2025-04-18T12:29:40.242+03:00,766661589.2645069,0,110.88,100.5253,1,0.4,2025-04-18T12:33:02.545+03:00,80,1.333333333333333,2025-04-18T08:51:18.885+03:00,0.03057091307199995,1
2025-04-18T12:33:10.075+03:00,1744968787.160457,40.95364477741025,29.14099323588287,92.07828,-1,-1,-1,-1,30,31.71544983042259,-9999,66798.872322625,-0.7303619384765625,0.6268157958984375,-0.2682647705078125,66798.86224662501,1.281414282733315,-1.22677642011205,-0.6692337068088817,0.05587946623563766,0.01363046560436487,0.007778406143188477,0.0150148868560791,0.004767417907714844,-0.003771990537643433,XArbitraryZVertical,0.1097310007914272,-0.5964038027751247,0.6132336926050229,0.5061680115515498,-0.7383425235748291,0.6203851699829102,-0.2645232081413269,0,0,0,-1,-1,66782.51853550001,unknown,2,2025-04-18T12:32:53.690+03:00,2025-04-17T15:44:39.500+03:00,7653,1.147938,0,0,6301.398,4,10,2025-04-18T12:29:40.242+03:00,766661589.2645069,0,110.88,100.5253,1,0.4,2025-04-18T12:33:02.545+03:00,80,1.333333333333333,2025-04-18T08:51:18.885+03:00,0.03057091307199995,1
2025-04-18T12:33:10.086+03:00,1744968787.160457,40.95364477741025,29.14099323588287,92.07828,-1,-1,-1,-1,30,31.71544983042259,-9999,66798.882397625,-0.724853515625,0.6170806884765625,-0.2623291015625,66798.872322625,1.282101771785853,-1.226203533111382,-0.6690960876185981,0.05245783552527428,0.01395297516137362,0.006092891097068787,0.008458614349365234,0.007835507392883301,-0.003518551588058472,XArbitraryZVertical,0.1098106891533357,-0.5961997289147259,0.6134201945932077,0.5061651146071563,-0.738271176815033,0.6202772259712219,-0.264974981546402,0,0,0,-1,-1,66782.51853550001,unknown,2,2025-04-18T12:32:53.690+03:00,2025-04-17T15:44:39.500+03:00,7653,1.147938,0,0,6301.398,4,10,2025-04-18T12:29:40.242+03:00,766661589.2645069,0,110.88,100.5253,1,0.4,2025-04-18T12:33:02.545+03:00,80,1.333333333333333,2025-04-18T08:51:18.885+03:00,0.03057091307199995,1
2025-04-18T12:33:10.096+03:00,1744968787.160457,40.95364477741025,29.14099323588287,92.07828,-1,-1,-1,-1,30,31.71544983042259,-9999,66798.892473625,-0.720947265625,0.611419677734375,-0.2563018798828125,66798.882397625,1.282644539373033,-1.22579999539408,-0.6689707126163237,0.0345894880592823,0.003694611368700862,0.004884681198745966,0.01217848062515259,-0.002472579479217529,0.003077030181884766,XArbitraryZVertical,0.1098945294247521,-0.5960483016284694,0.6135624856331957,0.5061529227642995,-0.7382375001907349,0.6201788783073425,-0.2652992308139801,0,0,0,-1,-1,66782.51853550001,unknown,2,2025-04-18T12:32:53.690+03:00,2025-04-17T15:44:39.500+03:00,7653,1.147938,0,0,6301.398,4,10,2025-04-18T12:29:40.242+03:00,766661589.2645069,0,110.88,100.5253,1,0.4,2025-04-18T12:33:02.545+03:00,80,1.333333333333333,2025-04-18T08:51:18.885+03:00,0.03057091307199995,1
2025-04-18T12:33:10.105+03:00,1744968787.160457,40.95364477741025,29.14099323588287,92.07828,-1,-1,-1,-1,30,31.71544983042259,-9999,66798.902548625,-0.72784423828125,0.6060791015625,-0.2480010986328125,66798.892473625,1.282925067417459,-1.225599787100305,-0.6689468517513304,0.01358566991984844,0.004532708320766687,0.008731617592275143,0.01746463775634766,-0.007733404636383057,0.007425963878631592,XArbitraryZVertical,0.1099254226259816,-0.5959785052397762,0.6136412028112888,0.5061330152375487,-0.7381983399391174,0.6201601624488831,-0.2654520571231842,0,0,0,-1,-1,66782.51853550001,unknown,2,2025-04-18T12:32:53.690+03:00,2025-04-17T15:44:39.500+03:00,7653,1.147938,0,0,6301.398,4,10,2025-04-18T12:29:40.242+03:00,766661589.2645069,0,110.88,100.5253,1,0.4,2025-04-18T12:33:02.545+03:00,80,1.333333333333333,2025-04-18T08:51:18.885+03:00,0.03057091307199995,1
2025-04-18T12:33:10.116+03:00,1744968787.160457,40.95364477741025,29.14099323588287,92.07828,-1,-1,-1,-1,30,31.71544983042259,-9999,66798.91262462501,-0.7320709228515625,0.6128997802734375,-0.2651214599609375,66798.902548625,1.283078199658888,-1.225478179604646,-0.6689814431537026,0.01136073283851147,0.003941886126995087,0.007510225288569927,0.01153743267059326,-0.01389455795288086,0.01715201139450073,XArbitraryZVertical,0.1099211026508585,-0.5959446997029826,0.6136913899862672,0.5061128455817785,-0.7381458282470703,0.6201872825622559,-0.265534520149231,0,0,0,-1,-1,66782.51853550001,unknown,2,2025-04-18T12:32:53.690+03:00,2025-04-17T15:44:39.500+03:00,7653,1.147938,0,0,6301.398,4,10,2025-04-18T12:29:40.242+03:00,766661589.2645069,0,110.88,100.5253,1,0.4,2025-04-18T12:33:02.545+03:00,80,1.333333333333333,2025-04-18T08:51:18.885+03:00,0.03057091307199995,1
2025-04-18T12:33:10.126+03:00,1744968787.160457,40.95364477741025,29.14099323588287,92.07828,-1,-1,-1,-1,30,31.71544983042259,-9999,66798.92269962501,-0.735992431640625,0.62640380859375,-0.27423095703125,66798.91262462501,1.283328483622586,-1.225239777114588,-0.6690268248885258,0.02001946792006493,0.009340912103652954,0.008731817826628685,0.006397068500518799,-0.009108304977416992,0.004043310880661011,XArbitraryZVertical,0.1099058535790734,-0.5958776704572879,0.6137740474335459,0.5060949811115693,-0.7380561232566833,0.6202229261398315,-0.2657009959220886,0,0,0,-1,-1,66782.51853550001,unknown,2,2025-04-18T12:32:53.690+03:00,2025-04-17T15:44:39.500+03:00,7653,1.147938,0,0,6301.398,4,10,2025-04-18T12:29:40.242+03:00,766661589.2645069,0,110.88,100.5253,1,0.4,2025-04-18T12:33:02.545+03:00,80,1.333333333333333,2025-04-18T08:51:18.885+03:00,0.03057091307199995,1
2025-04-18T12:33:10.136+03:00,1744968787.160457,40.95364477741025,29.14099323588287,92.07828,-1,-1,-1,-1,30,31.71544983042259,-9999,66798.932775625,-0.727996826171875,0.62640380859375,-0.2708282470703125,66798.92269962501,1.283733442737098,-1.224870449322218,-0.6690934241302472,0.03389380499720573,0.005851172842085361,0.01166066247969866,0.0014229416847229,0.00577777624130249,-0.008439242839813232,XArbitraryZVertical,0.109888813123671,-0.5957723419923597,0.6139059488587302,0.5060625760264109,-0.7379189729690552,0.6202751398086548,-0.2659595310688019,0,0,0,-1,-1,66782.51853550001,unknown,2,2025-04-18T12:32:53.690+03:00,2025-04-17T15:44:39.500+03:00,7653,1.147938,0,0,6301.398,4,10,2025-04-18T12:29:40.242+03:00,766661589.2645069,0,110.88,100.5253,1,0.4,2025-04-18T12:33:02.545+03:00,80,1.333333333333333,2025-04-18T08:51:18.885+03:00,0.03057091307199995,1
2025-04-18T12:33:10.146+03:00,1744968787.160457,40.95364477741025,29.14099323588287,92.07828,-1,-1,-1,-1,30,31.71544983042259,-9999,66798.942850625,-0.7297210693359375,0.628631591796875,-0.2701416015625,66798.932775625,1.28420742858464,-1.22449428984588,-0.6691258562461786,0.03124049678444862,0.005427996627986431,0.008808683604001999,0.00867384672164917,0.006652474403381348,-0.004552185535430908,XArbitraryZVertical,0.109902712143915,-0.5956561860078387,0.6140509962012253,0.5060201409001718,-0.7377998232841492,0.6203005909919739,-0.2662301957607269,0,0,0,-1,-1,66782.51853550001,unknown,2,2025-04-18T12:32:53.690+03:00,2025-04-17T15:44:39.500+03:00,7653,1.147938,0,0,6301.398,4,10,2025-04-18T12:29:40.242+03:00,766661589.2645069,0,110.88,100.5253,1,0.4,2025-04-18T12:33:02.545+03:00,80,1.333333333333333,2025-04-18T08:51:18.885+03:00,0.03057091307199995,1
2025-04-18T12:33:10.156+03:00,1744968787.160457,40.95364477741025,29.14099323588287,92.07828,-1,-1,-1,-1,30,31.71544983042259,-9999,66798.952926625,-0.74029541015625,0.6236724853515625,-0.2701416015625,66798.942850625,1.28464311815483,-1.22412768805321,-0.6691479488724414,0.02904791571199894,0.00839981809258461,0.007200799416750669,0.009433150291442871,0.007367610931396484,-0.003706485033035278,XArbitraryZVertical,0.1099117615765879,-0.5955429307438352,0.6141843908155475,0.5059897006623089,-0.7376893758773804,0.6203178763389587,-0.2664960324764252,0,0,0,-1,-1,66782.51853550001,unknown,2,2025-04-18T12:32:53.690+03:00,2025-04-17T15:44:39.500+03:00,7653,1.147938,0,0,6301.398,4,10,2025-04-18T12:29:40.242+03:00,766661589.2645069,0,110.88,100.5253,1,0.4,2025-04-18T12:33:02.545+03:00,80,1.333333333333333,2025-04-18T08:51:18.885+03:00,0.03057091307199995,1
2025-04-18T12:33:10.166+03:00,1744968787.160457,40.95364477741025,29.14099323588287,92.07828,-1,-1,-1,-1,30,31.71544983042259,-9999,66798.963001625,-0.7430572509765625,0.6164093017578125,-0.2715606689453125,66798.952926625,1.285035895998964,-1.223813063453156,-0.6691287090659364,0.03053981997072697,0.004146749619394541,0.003098199609667063,-0.001992106437683105,0.005078613758087158,-0.003363579511642456,XArbitraryZVertical,0.1099391374409282,-0.5954387450699589,0.6142984232394851,0.5059679034804462,-0.7376166582107544,0.6203027963638306,-0.2667321860790253,0,0,0,-1,-1,66782.51853550001,unknown,2,2025-04-18T12:32:53.690+03:00,2025-04-17T15:44:39.500+03:00,7653,1.147938,0,0,6301.398,4,10,2025-04-18T12:29:40.242+03:00,766661589.2645069,0,110.88,100.5253,1,0.4,2025-04-18T12:33:02.545+03:00,80,1.333333333333333,2025-04-18T08:51:18.885+03:00,0.03057091307199995,1
2025-04-18T12:33:10.176+03:00,1744968787.160457,40.95364477741025,29.14099323588287,92.07828,-1,-1,-1,-1,30,31.71544983042259,-9999,66798.97307762501,-0.7322845458984375,0.621612548828125,-0.271881103515625,66798.963001625,1.28541517774647,-1.223525251703076,-0.6690786153873363,0.03120467811822891,0.006179140880703926,0.002701455261558294,-0.006037473678588867,-0.003701627254486084,-0.004376709461212158,XArbitraryZVertical,0.1099819612411457,-0.5953372549744903,0.6144033528499491,0.5059506462962748,-0.7375690937042236,0.6202635169029236,-0.2669550478458405,0,0,0,-1,-1,66782.51853550001,unknown,2,2025-04-18T12:32:53.690+03:00,2025-04-17T15:44:39.500+03:00,7653,1.147938,0,0,6301.398,4,10,2025-04-18T12:29:40.242+03:00,766661589.2645069,0,110.88,100.5253,1,0.4,2025-04-18T12:33:02.545+03:00,80,1.333333333333333,2025-04-18T08:51:18.885+03:00,0.03057091307199995,1
2025-04-18T12:33:10.186+03:00,1744968787.160457,40.95364477741025,29.14099323588287,92.07828,-1,-1,-1,-1,30,31.71544983042259,-9999,66798.983153625,-0.7188720703125,0.6199188232421875,-0.269012451171875,66798.97307762501,1.285706884227261,-1.223318798262618,-0.6690562473046774,0.01974589563906193,0.002977488795295358,0.00410494115203619,0.004113376140594482,0.0007104277610778809,-0.005196243524551392,XArbitraryZVertical,0.1100135319568293,-0.5952654863490348,0.6144854448085436,0.5059285687253995,-0.737527072429657,0.6202459931373596,-0.2671120464801788,0,0,0,-1,-1,66782.51853550001,unknown,2,2025-04-18T12:32:53.690+03:00,2025-04-17T15:44:39.500+03:00,7653,1.147938,0,0,6301.398,4,10,2025-04-18T12:29:40.242+03:00,766661589.2645069,0,110.88,100.5253,1,0.4,2025-04-18T12:33:02.545+03:00,80,1.333333333333333,2025-04-18T08:51:18.885+03:00,0.03057091307199995,1
2025-04-18T12:33:10.196+03:00,1744968787.160457,40.95364477741025,29.14099323588287,92.07828,-1,-1,-1,-1,30,31.71544983042259,-9999,66798.993228625,-0.7099609375,0.6167144775390625,-0.265625,66798.983153625,1.285764642250796,-1.22331229458415,-0.6690339835024367,-0.003128262003883719,-0.0007445449009537697,-0.0002173692046198994,0.01697248220443726,-0.0004928112030029297,-0.002196043729782104,XArbitraryZVertical,0.110036888056818,-0.5952571852628514,0.6144973761362461,0.5059187248978964,-0.7375382781028748,0.6202285289764404,-0.2671215236186981,0,0,0,-1,-1,66782.51853550001,unknown,2,2025-04-18T12:32:53.690+03:00,2025-04-17T15:44:39.500+03:00,7653,1.147938,0,0,6301.398,4,10,2025-04-18T12:29:40.242+03:00,766661589.2645069,0,110.88,100.5253,1,0.4,2025-04-18T12:33:02.545+03:00,80,1.333333333333333,2025-04-18T08:51:18.885+03:00,0.03057091307199995,1
2025-04-18T12:33:10.206+03:00,1744968787.160457,40.95364477741025,29.14099323588287,92.07828,-1,-1,-1,-1,30,31.71544983042259,-9999,66799.003304625,-0.7210235595703125,0.6140899658203125,-0.2674407958984375,66798.993228625,1.285646361367248,-1.223426101650845,-0.669054733226446,-0.01478944532573223,-0.006278060842305422,-0.0009998059831559658,0.0271378755569458,-0.003286182880401611,0.001881331205368042,XArbitraryZVertical,0.1100290639387747,-0.5952957265027226,0.6144640281393976,0.5059155597689265,-0.737556517124176,0.6202448010444641,-0.2670332193374634,0,0,0,-1,-1,66782.51853550001,unknown,2,2025-04-18T12:32:53.690+03:00,2025-04-17T15:44:39.500+03:00,7653,1.147938,0,0,6301.398,4,10,2025-04-18T12:29:40.242+03:00,766661589.2645069,0,110.88,100.5253,1,0.4,2025-04-18T12:33:02.545+03:00,80,1.333333333333333,2025-04-18T08:51:18.885+03:00,0.03057091307199995,1
2025-04-18T12:33:10.217+03:00,1744968787.160457,40.95364477741025,29.14099323588287,92.07828,-1,-1,-1,-1,30,31.71544983042259,-9999,66799.013379625,-0.7415924072265625,0.6230621337890625,-0.26885986328125,66799.003304625,1.285550287626824,-1.223551173446078,-0.6690536252435174,0.002011705655604601,-0.009474586695432663,-0.006720641627907753,0.01903891563415527,-0.006840646266937256,0.0003091990947723389,XArbitraryZVertical,0.1100393053698924,-0.5953324779281703,0.6144326942453839,0.5059081224309732,-0.7375905513763428,0.6202439069747925,-0.2669411897659302,0,0,0,-1,-1,66782.51853550001,unknown,2,2025-04-18T12:32:53.690+03:00,2025-04-17T15:44:39.500+03:00,7653,1.147938,0,0,6301.398,4,10,2025-04-18T12:29:40.242+03:00,766661589.2645069,0,110.88,100.5253,1,0.4,2025-04-18T12:33:02.545+03:00,80,1.333333333333333,2025-04-18T08:51:18.885+03:00,0.03057091307199995,1
2025-04-18T12:33:10.227+03:00,1744968787.160457,40.95364477741025,29.14099323588287,92.07828,-1,-1,-1,-1,30,31.71544983042259,-9999,66799.02345562501,-0.7501220703125,0.632415771484375,-0.2667999267578125,66799.013379625,1.285667549331992,-1.223526588573772,-0.6689754156165354,0.01549715455621481,-0.003109365701675415,-0.008779797703027725,-0.001567065715789795,0.001170575618743896,-0.002356976270675659,XArbitraryZVertical,0.1100952459856857,-0.5953075761162432,0.6144530252245088,0.5059006471099948,-0.7376297116279602,0.6201825737953186,-0.2669758498668671,0,0,0,-1,-1,66782.51853550001,unknown,2,2025-04-18T12:32:53.690+03:00,2025-04-17T15:44:39.500+03:00,7653,1.147938,0,0,6301.398,4,10,2025-04-18T12:29:40.242+03:00,766661589.2645069,0,110.88,100.5253,1,0.4,2025-04-18T12:33:02.545+03:00,80,1.333333333333333,2025-04-18T08:51:18.885+03:00,0.03057091307199995,1
2025-04-18T12:33:10.237+03:00,1744968787.160457,40.95364477741025,29.14099323588287,92.07828,-1,-1,-1,-1,30,31.71544983042259,-9999,66799.03353062501,-0.745025634765625,0.6229705810546875,-0.2686767578125,66799.02345562501,1.285886799858726,-1.223389976260623,-0.668835899392861,0.02169765904545784,0.001055951695889235,-0.01308300066739321,-0.01202034950256348,0.01251053810119629,0.0004282593727111816,XArbitraryZVertical,0.1101695931457541,-0.5952391322186653,0.6144969599771593,0.505911622370427,-0.7376745343208313,0.620073139667511,-0.2671060860157013,0,0,0,-1,-1,66782.51853550001,unknown,2,2025-04-18T12:32:53.690+03:00,2025-04-17T15:44:39.500+03:00,7653,1.147938,0,0,6301.398,4,10,2025-04-18T12:29:40.242+03:00,766661589.2645069,0,110.88,100.5253,1,0.4,2025-04-18T12:33:02.545+03:00,80,1.333333333333333,2025-04-18T08:51:18.885+03:00,0.03057091307199995,1
2025-04-18T12:33:10.247+03:00,1744968787.160457,40.95364477741025,29.14099323588287,92.07828,-1,-1,-1,-1,30,31.71544983042259,-9999,66799.04360662501,-0.739898681640625,0.618682861328125,-0.268768310546875,66799.03353062501,1.286053566850617,-1.223246241072843,-0.6686418550415922,0.01842623203992844,0.005553497932851315,-0.01411897037178278,-0.007703602313995361,0.003949999809265137,-0.0004470348358154297,XArbitraryZVertical,0.1102460423483632,-0.5951632216569757,0.6145205751732057,0.505955665232835,-0.7377493381500244,0.6199208498001099,-0.2672531008720398,0,0,0,-1,-1,66782.51853550001,unknown,2,2025-04-18T12:32:53.690+03:00,2025-04-17T15:44:39.500+03:00,7653,1.147938,0,0,6301.398,4,10,2025-04-18T12:29:40.242+03:00,766661589.2645069,0,110.88,100.5253,1,0.4,2025-04-18T12:33:02.545+03:00,80,1.333333333333333,2025-04-18T08:51:18.885+03:00,0.03057091307199995,1
2025-04-18T12:33:10.257+03:00,1744968787.160457,40.95364477741025,29.14099323588287,92.07828,-1,-1,-1,-1,30,31.71544983042259,-9999,66799.05368162501,-0.7369232177734375,0.6222686767578125,-0.2666473388671875,66799.04360662501,1.286223389439866,-1.223051738472011,-0.668392513349392,0.02288755960762501,0.01336161978542805,-0.01715364120900631,-0.002864837646484375,-0.0009965300559997559,-0.001883566379547119,XArbitraryZVertical,0.1103280581723478,-0.5950656204555805,0.6145402334126673,0.5060287021903994,-0.7378426194190979,0.619725227355957,-0.2674492597579956,0,0,0,-1,-1,66782.51853550001,unknown,2,2025-04-18T12:32:53.690+03:00,2025-04-17T15:44:39.500+03:00,7653,1.147938,0,0,6301.398,4,10,2025-04-18T12:29:40.242+03:00,766661589.2645069,0,110.88,100.5253,1,0.4,2025-04-18T12:33:02.545+03:00,80,1.333333333333333,2025-04-18T08:51:18.885+03:00,0.03057091307199995,1
2025-04-18T12:33:10.267+03:00,1744968787.160457,40.95364477741025,29.14099323588287,92.07828,-1,-1,-1,-1,30,31.71544983042259,-9999,66799.063757625,-0.733856201171875,0.622467041015625,-0.2706298828125,66799.05368162501,1.286479891014633,-1.222702534785459,-0.6681433902902969,0.02770468406379223,0.02232475392520428,-0.01761623285710812,8.600950241088867e-05,0.002357602119445801,0.001234322786331177,XArbitraryZVertical,0.1103882002534726,-0.5949240786874378,0.6145904114992335,0.5061211330464868,-0.7378943562507629,0.619529664516449,-0.2677595615386963,0,0,0,-1,-1,66782.51853550001,unknown,2,2025-04-18T12:32:53.690+03:00,2025-04-17T15:44:39.500+03:00,7653,1.147938,0,0,6301.398,4,10,2025-04-18T12:29:40.242+03:00,766661589.2645069,0,110.88,100.5253,1,0.4,2025-04-18T12:33:02.545+03:00,80,1.333333333333333,2025-04-18T08:51:18.885+03:00,0.03057091307199995,1
2025-04-18T12:33:10.277+03:00,1744968787.160457,40.95364477741025,29.14099323588287,92.07828,-1,-1,-1,-1,30,31.71544983042259,-9999,66799.073832625,-0.7293853759765625,0.61553955078125,-0.2711029052734375,66799.063757625,1.286770647754993,-1.222292152837386,-0.6679446384205211,0.02588554657995701,0.01938522420823574,-0.01374063454568386,0.004089534282684326,0.003505349159240723,-0.002327114343643188,XArbitraryZVertical,0.1104213772988554,-0.5947730221029152,0.6146595554436063,0.506207248510007,-0.7378999590873718,0.619373619556427,-0.2681043446063995,0,0,0,-1,-1,66782.51853550001,unknown,2,2025-04-18T12:32:53.690+03:00,2025-04-17T15:44:39.500+03:00,7653,1.147938,0,0,6301.398,4,10,2025-04-18T12:29:40.242+03:00,766661589.2645069,0,110.88,100.5253,1,0.4,2025-04-18T12:33:02.545+03:00,80,1.333333333333333,2025-04-18T08:51:18.885+03:00,0.03057091307199995,1
2025-04-18T12:33:10.298+03:00,1744968787.160457,40.95364477741025,29.14099323588287,92.07828,-1,-1,-1,-1,30,31.71544983042259,-9999,66799.08390862501,-0.7310791015625,0.6122589111328125,-0.2736053466796875,66799.073832625,1.287023458394778,-1.221916978855728,-0.6677967247409405,0.02293396554887295,0.02224040031433105,-0.01023937668651342,0.007935404777526855,-0.002680420875549316,-0.002629369497299194,XArbitraryZVertical,0.1104353868403994,-0.594640893121601,0.6147241044860547,0.506280993541715,-0.7378853559494019,0.6192575097084045,-0.2684124708175659,0,0,0,-1,-1,66782.51853550001,unknown,2,2025-04-18T12:32:53.690+03:00,2025-04-17T15:44:39.500+03:00,7653,1.147938,0,0,6301.398,4,10,2025-04-18T12:29:40.242+03:00,766661589.2645069,0,110.88,100.5253,1,0.4,2025-04-18T12:33:02.545+03:00,80,1.333333333333333,2025-04-18T08:51:18.885+03:00,0.03057091307199995,1
2025-04-18T12:33:10.301+03:00,1744968787.160457,40.95364477741025,29.14099323588287,92.07828,-1,-1,-1,-1,30,31.71544983042259,-9999,66799.093983625,-0.7304840087890625,0.6192474365234375,-0.275543212890625,66799.08390862501,1.287258732702392,-1.221552940685327,-0.6676383393036402,0.02156183868646622,0.01986132934689522,-0.01027709431946278,0.00725853443145752,-0.007194638252258301,-0.004554927349090576,XArbitraryZVertical,0.1104513115539921,-0.5945108580753028,0.6147821854498705,0.5063599130161676,-0.7378799319267273,0.6191331148147583,-0.2687146961688995,0,0,0,-1,-1,66782.51853550001,unknown,2,2025-04-18T12:32:53.690+03:00,2025-04-17T15:44:39.500+03:00,7653,1.147938,0,0,6301.398,4,10,2025-04-18T12:29:40.242+03:00,766661589.2645069,0,110.88,100.5253,1,0.4,2025-04-18T12:33:02.545+03:00,80,1.333333333333333,2025-04-18T08:51:18.885+03:00,0.03057091307199995,1
2025-04-18T12:33:10.307+03:00,1744968787.160457,40.95364477741025,29.14099323588287,92.07828,-1,-1,-1,-1,30,31.71544983042259,-9999,66799.10405962501,-0.72869873046875,0.616912841796875,-0.2728118896484375,66799.093983625,1.287435361515993,-1.221282799040937,-0.6674843058194995,0.01723180525004864,0.0123504176735878,-0.009641664102673531,0.00669562816619873,-5.459785461425781e-05,-0.006504952907562256,XArbitraryZVertical,0.1104771697230131,-0.594408506539553,0.6148208591642504,0.5064273874828538,-0.7378968596458435,0.619012176990509,-0.268946647644043,0,0,0,-1,-1,66782.51853550001,unknown,2,2025-04-18T12:32:53.690+03:00,2025-04-17T15:44:39.500+03:00,7653,1.147938,0,0,6301.398,4,10,2025-04-18T12:29:40.242+03:00,766661589.2645069,0,110.88,100.5253,1,0.4,2025-04-18T12:33:02.545+03:00,80,1.333333333333333,2025-04-18T08:51:18.885+03:00,0.03057091307199995,1
2025-04-18T12:33:10.317+03:00,1744968787.160457,40.95364477741025,29.14099323588287,92.07828,-1,-1,-1,-1,30,31.71544983042259,-9999,66799.11413462501,-0.742767333984375,0.61895751953125,-0.2727508544921875,66799.10405962501,1.287548237127099,-1.221110692997836,-0.6673269056632734,0.01542911026626825,0.01204894762486219,-0.01458915136754513,0.01061654090881348,-0.001136481761932373,-0.003872662782669067,XArbitraryZVertical,0.1105154353381545,-0.5943339491600078,0.614837529219512,0.5064862281591825,-0.7379419803619385,0.6188885569572449,-0.2691069841384888,0,0,0,-1,-1,66782.51853550001,unknown,2,2025-04-18T12:32:53.690+03:00,2025-04-17T15:44:39.500+03:00,7653,1.147938,0,0,6301.398,4,10,2025-04-18T12:29:40.242+03:00,766661589.2645069,0,110.88,100.5253,1,0.4,2025-04-18T12:33:02.545+03:00,80,1.333333333333333,2025-04-18T08:51:18.885+03:00,0.03057091307199995,1
2025-04-18T12:33:10.327+03:00,1744968787.160457,40.95364477741025,29.14099323588287,92.07828,-1,-1,-1,-1,30,31.71544983042259,-9999,66799.124210625,-0.7404022216796875,0.627166748046875,-0.2702789306640625,66799.11413462501,1.287602366351009,-1.220939235790641,-0.6671215004446422,0.007534968201071024,0.01597977429628372,-0.02112588100135326,-0.002768456935882568,-0.0005783438682556152,-0.003244757652282715,XArbitraryZVertical,0.1105539394248045,-0.594255223611032,0.6148327536690177,0.5065760860519626,-0.738015353679657,0.6187272071838379,-0.2692771255970001,0,0,0,-1,-1,66782.51853550001,unknown,2,2025-04-18T12:32:53.690+03:00,2025-04-17T15:44:39.500+03:00,7653,1.147938,0,0,6301.398,4,10,2025-04-18T12:29:40.242+03:00,766661589.2645069,0,110.88,100.5253,1,0.4,2025-04-18T12:33:02.545+03:00,80,1.333333333333333,2025-04-18T08:51:18.885+03:00,0.03057091307199995,1
2025-04-18T12:33:10.337+03:00,1744968787.160457,40.95364477741025,29.14099323588287,92.07828,-1,-1,-1,-1,30,31.71544983042259,-9999,66799.13428662501,-0.7335205078125,0.623199462890625,-0.267547607421875,66799.124210625,1.287583097053358,-1.220814284536712,-0.6669020373436159,0.004677063785493374,0.01433227583765984,-0.02098596468567848,-0.003467917442321777,0.00783383846282959,-0.001656472682952881,XArbitraryZVertical,0.1105900986736031,-0.5941901079545429,0.6148049083675385,0.5066784022074973,-0.7381092309951782,0.6185547709465027,-0.2694158852100372,0,0,0,-1,-1,66782.51853550001,unknown,2,2025-04-18T12:32:53.690+03:00,2025-04-17T15:44:39.500+03:00,7653,1.147938,0,0,6301.398,4,10,2025-04-18T12:29:40.242+03:00,766661589.2645069,0,110.88,100.5253,1,0.4,2025-04-18T12:33:02.545+03:00,80,1.333333333333333,2025-04-18T08:51:18.885+03:00,0.03057091307199995,1
2025-04-18T12:33:10.347+03:00,1744968787.160457,40.95364477741025,29.14099323588287,92.07828,-1,-1,-1,-1,30,31.71544983042259,-9999,66799.144361625,-0.727783203125,0.6210174560546875,-0.2771759033203125,66799.13428662501,1.287565796985248,-1.220655243691583,-0.6666903822142596,0.007744758855551481,0.0188058540225029,-0.02053269371390343,0.003814280033111572,0.00522303581237793,0.001908540725708008,XArbitraryZVertical,0.1106135349426136,-0.5941174621470384,0.6147805114944048,0.5067880433828307,-0.7381893396377563,0.6183884143829346,-0.2695781886577606,0,0,0,-1,-1,66782.51853550001,unknown,2,2025-04-18T12:32:53.690+03:00,2025-04-17T15:44:39.500+03:00,7653,1.147938,0,0,6301.398,4,10,2025-04-18T12:29:40.242+03:00,766661589.2645069,0,110.88,100.5253,1,0.4,2025-04-18T12:33:02.545+03:00,80,1.333333333333333,2025-04-18T08:51:18.885+03:00,0.03057091307199995,1
2025-04-18T12:33:10.358+03:00,1744968787.160457,40.95364477741025,29.14099323588287,92.07828,-1,-1,-1,-1,30,31.71544983042259,-9999,66799.15443762501,-0.7180938720703125,0.6212310791015625,-0.277587890625,66799.144361625,1.287562688612245,-1.220487629919131,-0.6664684593338208,0.007014586590230465,0.01500665489584208,-0.02248569019138813,0.009772539138793945,0.002025187015533447,-0.005672067403793335,XArbitraryZVertical,0.1106423519864163,-0.5940402290690173,0.6147587921250789,0.5068985025730577,-0.7382729053497314,0.6182140111923218,-0.2697489559650421,0,0,0,-1,-1,66782.51853550001,unknown,2,2025-04-18T12:32:53.690+03:00,2025-04-17T15:44:39.500+03:00,7653,1.147938,0,0,6301.398,4,10,2025-04-18T12:29:40.242+03:00,766661589.2645069,0,110.88,100.5253,1,0.4,2025-04-18T12:33:02.545+03:00,80,1.333333333333333,2025-04-18T08:51:18.885+03:00,0.03057091307199995,1
2025-04-18T12:33:10.368+03:00,1744968787.160457,40.95364477741025,29.14099323588287,92.07828,-1,-1,-1,-1,30,31.71544983042259,-9999,66799.16451262501,-0.72003173828125,0.6150360107421875,-0.273590087890625,66799.15443762501,1.287564171082415,-1.220317468428181,-0.6662503886399463,0.006252389866858721,0.01528575364500284,-0.0209003109484911,0.01931369304656982,0.002974808216094971,-0.009269148111343384,XArbitraryZVertical,0.1106703157538115,-0.5939626770864536,0.6147389002861465,0.5070073360625617,-0.7383535504341125,0.6180425882339478,-0.269920825958252,0,0,0,-1,-1,66782.51853550001,unknown,2,2025-04-18T12:32:53.690+03:00,2025-04-17T15:44:39.500+03:00,7653,1.147938,0,0,6301.398,4,10,2025-04-18T12:29:40.242+03:00,766661589.2645069,0,110.88,100.5253,1,0.4,2025-04-18T12:33:02.545+03:00,80,1.333333333333333,2025-04-18T08:51:18.885+03:00,0.03057091307199995,1
2025-04-18T12:33:10.378+03:00,1744968787.160457,40.95364477741025,29.14099323588287,92.07828,-1,-1,-1,-1,30,31.71544983042259,-9999,66799.174588625,-0.7305755615234375,0.6086273193359375,-0.275909423828125,66799.16451262501,1.287540825162649,-1.220136475286624,-0.6660453395153416,0.001693857135251164,0.01732094213366508,-0.01660623028874397,0.01930755376815796,-0.001456856727600098,-0.003476709127426147,XArbitraryZVertical,0.1106827743411159,-0.5938857764948096,0.6147150824780664,0.5071236160335942,-0.738423764705658,0.6178814172744751,-0.2700980305671692,0,0,0,-1,-1,66782.51853550001,unknown,2,2025-04-18T12:32:53.690+03:00,2025-04-17T15:44:39.500+03:00,7653,1.147938,0,0,6301.398,4,10,2025-04-18T12:29:40.242+03:00,766661589.2645069,0,110.88,100.5253,1,0.4,2025-04-18T12:33:02.545+03:00,80,1.333333333333333,2025-04-18T08:51:18.885+03:00,0.03057091307199995,1
2025-04-18T12:33:10.388+03:00,1744968787.160457,40.95364477741025,29.14099323588287,92.07828,-1,-1,-1,-1,30,31.71544983042259,-9999,66799.184663625,-0.7350311279296875,0.6041412353515625,-0.276458740234375,66799.174588625,1.287445520274456,-1.220012641588559,-0.6659070428100845,-0.00649483036249876,0.01366042625159025,-0.0177679006010294,0.009069859981536865,-0.007573723793029785,-0.005232781171798706,XArbitraryZVertical,0.1106670328335222,-0.5938378573928593,0.6146789407245506,0.5072269555235371,-0.7384705543518066,0.61777263879776,-0.2702188193798065,0,0,0,-1,-1,66782.51853550001,unknown,2,2025-04-18T12:32:53.690+03:00,2025-04-17T15:44:39.500+03:00,7653,1.147938,0,0,6301.398,4,10,2025-04-18T12:29:40.242+03:00,766661589.2645069,0,110.88,100.5253,1,0.4,2025-04-18T12:33:02.545+03:00,80,1.333333333333333,2025-04-18T08:51:18.885+03:00,0.03057091307199995,1
2025-04-18T12:33:10.398+03:00,1744968787.160457,40.95364477741025,29.14099323588287,92.07828,-1,-1,-1,-1,30,31.71544983042259,-9999,66799.194739625,-0.7322235107421875,0.6080322265625,-0.276947021484375,66799.184663625,1.287307336664764,-1.219973322171545,-0.6657981123133702,-0.009054793976247311,0.007655664347112179,-0.01622186787426472,0.004407525062561035,-0.01322537660598755,-0.006660729646682739,XArbitraryZVertical,0.1106537923577177,-0.5938183664162385,0.6146312375353923,0.5073104515537449,-0.7385230660438538,0.6176869869232178,-0.270270973443985,0,0,0,-1,-1,66782.51853550001,unknown,2,2025-04-18T12:32:53.690+03:00,2025-04-17T15:44:39.500+03:00,7653,1.147938,0,0,6301.398,4,10,2025-04-18T12:29:40.242+03:00,766661589.2645069,0,110.88,100.5253,1,0.4,2025-04-18T12:33:02.545+03:00,80,1.333333333333333,2025-04-18T08:51:18.885+03:00,0.03057091307199995,1
2025-04-18T12:33:10.408+03:00,1744968787.160457,40.95364477741025,29.14099323588287,92.07828,-1,-1,-1,-1,30,31.71544983042259,-9999,66799.204814625,-0.7272796630859375,0.6162261962890625,-0.2789764404296875,66799.194739625,1.287122295798891,-1.220032960972917,-0.6656479561915573,-0.01111075468361378,0.00120815122500062,-0.02013884671032429,0.005960285663604736,-0.01066583395004272,-0.007222205400466919,XArbitraryZVertical,0.1106721308609194,-0.5938200740424084,0.6145605461624056,0.507390100910987,-0.7386263012886047,0.6175689101219177,-0.2702587842941284,0,0,0,-1,-1,66782.51853550001,unknown,2,2025-04-18T12:32:53.690+03:00,2025-04-17T15:44:39.500+03:00,7653,1.147938,0,0,6301.398,4,10,2025-04-18T12:29:40.242+03:00,766661589.2645069,0,110.88,100.5253,1,0.4,2025-04-18T12:33:02.545+03:00,80,1.333333333333333,2025-04-18T08:51:18.885+03:00,0.03057091307199995,1
2025-04-18T12:33:10.418+03:00,1744968787.160457,40.95364477741025,29.14099323588287,92.07828,-1,-1,-1,-1,30,31.71544983042259,-9999,66799.21489062501,-0.7224273681640625,0.6216583251953125,-0.27667236328125,66799.204814625,1.286923908532208,-1.220152729206047,-0.6654966317116738,-0.005326368845999241,-0.002821211703121662,-0.02264115214347839,0.01050549745559692,-0.00221550464630127,-0.007705777883529663,XArbitraryZVertical,0.1107053988514772,-0.5938375987203028,0.6144829633393966,0.5074563279133883,-0.7387464642524719,0.6174498796463013,-0.2702024281024933,0,0,0,-1,-1,66782.51853550001,unknown,2,2025-04-18T12:32:53.690+03:00,2025-04-17T15:44:39.500+03:00,7653,1.147938,0,0,6301.398,4,10,2025-04-18T12:29:40.242+03:00,766661589.2645069,0,110.88,100.5253,1,0.4,2025-04-18T12:33:02.545+03:00,80,1.333333333333333,2025-04-18T08:51:18.885+03:00,0.03057091307199995,1
2025-04-18T12:33:10.428+03:00,1744968787.160457,40.95364477741025,29.14099323588287,92.07828,-1,-1,-1,-1,30,31.71544983042259,-9999,66799.22496562501,-0.7200927734375,0.621551513671875,-0.2723236083984375,66799.21489062501,1.286681599746618,-1.220371115753752,-0.6653674915926552,-0.01591909117996693,-0.008558459579944611,-0.0230757798999548,0.01654458045959473,0.003547132015228271,-0.007778704166412354,XArbitraryZVertical,0.1107477715303568,-0.5938860820364013,0.6143917779446316,0.507500845241511,-0.7388803958892822,0.6173482537269592,-0.270068496465683,0,0,0,-1,-1,66782.51853550001,unknown,2,2025-04-18T12:32:53.690+03:00,2025-04-17T15:44:39.500+03:00,7653,1.147938,0,0,6301.398,4,10,2025-04-18T12:29:40.242+03:00,766661589.2645069,0,110.88,100.5253,1,0.4,2025-04-18T12:33:02.545+03:00,80,1.333333333333333,2025-04-18T08:51:18.885+03:00,0.03057091307199995,1
2025-04-18T12:33:10.438+03:00,1744968787.160457,40.95364477741025,29.14099323588287,92.07828,-1,-1,-1,-1,30,31.71544983042259,-9999,66799.235041625,-0.727508544921875,0.6188812255859375,-0.2720184326171875,66799.22496562501,1.286380249027808,-1.22061636980981,-0.6652495162573253,-0.02163057401776314,-0.009040825068950653,-0.02154715918004513,0.01971572637557983,0.004479169845581055,-0.002487599849700928,XArbitraryZVertical,0.1107767676286692,-0.5939464296518867,0.614285623665648,0.5075524691863758,-0.7390151023864746,0.6172554492950439,-0.2699123024940491,0,0,0,-1,-1,66782.51853550001,unknown,2,2025-04-18T12:32:53.690+03:00,2025-04-17T15:44:39.500+03:00,7653,1.147938,0,0,6301.398,4,10,2025-04-18T12:29:40.242+03:00,766661589.2645069,0,110.88,100.5253,1,0.4,2025-04-18T12:33:02.545+03:00,80,1.333333333333333,2025-04-18T08:51:18.885+03:00,0.03057091307199995,1
2025-04-18T12:33:10.448+03:00,1744968787.160457,40.95364477741025,29.14099323588287,92.07828,-1,-1,-1,-1,30,31.71544983042259,-9999,66799.24511662501,-0.73541259765625,0.6162261962890625,-0.266998291015625,66799.235041625,1.286014827766477,-1.220860410412771,-0.6652045037158907,-0.02830658480525017,-0.006496440153568983,-0.01867733709514141,0.01350575685501099,0.002561450004577637,-0.002139568328857422,XArbitraryZVertical,0.1107596734778303,-0.5940215217542471,0.6141732225994763,0.5076043195930898,-0.7391070127487183,0.6172200441360474,-0.2697414457798004,0,0,0,-1,-1,66782.51853550001,unknown,2,2025-04-18T12:32:53.690+03:00,2025-04-17T15:44:39.500+03:00,7653,1.147938,0,0,6301.398,4,10,2025-04-18T12:29:40.242+03:00,766661589.2645069,0,110.88,100.5253,1,0.4,2025-04-18T12:33:02.545+03:00,80,1.333333333333333,2025-04-18T08:51:18.885+03:00,0.03057091307199995,1
2025-04-18T12:33:10.458+03:00,1744968787.160457,40.95364477741025,29.14099323588287,92.07828,-1,-1,-1,-1,30,31.71544983042259,-9999,66799.255192625,-0.7417449951171875,0.615203857421875,-0.2715606689453125,66799.24511662501,1.285655505497487,-1.221089554781878,-0.6651674071869192,-0.02534202113747597,-0.0008580624125897884,-0.01773926988244057,0.004326879978179932,-0.0007815361022949219,0.001803457736968994,XArbitraryZVertical,0.1107369342470927,-0.5940937535660815,0.6140642692381654,0.507656431177406,-0.7391902208328247,0.6171908378601074,-0.2695798873901367,0,0,0,-1,-1,66782.51853550001,unknown,2,2025-04-18T12:32:53.690+03:00,2025-04-17T15:44:39.500+03:00,7653,1.147938,0,0,6301.398,4,10,2025-04-18T12:29:40.242+03:00,766661589.2645069,0,110.88,100.5253,1,0.4,2025-04-18T12:33:02.545+03:00,80,1.333333333333333,2025-04-18T08:51:18.885+03:00,0.03057091307199995,1
2025-04-18T12:33:10.469+03:00,1744968787.160457,40.95364477741025,29.14099323588287,92.07828,-1,-1,-1,-1,30,31.71544983042259,-9999,66799.265267625,-0.7456512451171875,0.613128662109375,-0.28277587890625,66799.255192625,1.285366915768754,-1.221224631061501,-0.6650955926421551,-0.01693335734307766,0.004621924366801977,-0.01278952043503523,-0.001866340637207031,-0.001991450786590576,-0.001241415739059448,XArbitraryZVertical,0.1107188938806035,-0.5941327203358209,0.6139737068851892,0.507724472621095,-0.73926842212677,0.6171343326568604,-0.2694952785968781,0,0,0,-1,-1,66782.51853550001,unknown,2,2025-04-18T12:32:53.690+03:00,2025-04-17T15:44:39.500+03:00,7653,1.147938,0,0,6301.398,4,10,2025-04-18T12:29:40.242+03:00,766661589.2645069,0,110.88,100.5253,1,0.4,2025-04-18T12:33:02.545+03:00,80,1.333333333333333,2025-04-18T08:51:18.885+03:00,0.03057091307199995,1
2025-04-18T12:33:10.479+03:00,1744968787.160457,40.95364477741025,29.14099323588287,92.07828,-1,-1,-1,-1,30,31.71544983042259,-9999,66799.27534362501,-0.7389068603515625,0.6147918701171875,-0.287109375,66799.265267625,1.285219014816519,-1.221241039495362,-0.6649779236138891,-0.006173786707222462,0.005150428507477045,-0.01153057720512152,-0.006386637687683105,-0.003958821296691895,-0.01139101386070251,XArbitraryZVertical,0.1107230867961333,-0.5941265857546186,0.6139191562171,0.5077966455783258,-0.7393410205841064,0.6170417666435242,-0.2695080041885376,0,0,0,-1,-1,66782.51853550001,unknown,2,2025-04-18T12:32:53.690+03:00,2025-04-17T15:44:39.500+03:00,7653,1.147938,0,0,6301.398,4,10,2025-04-18T12:29:40.242+03:00,766661589.2645069,0,110.88,100.5253,1,0.4,2025-04-18T12:33:02.545+03:00,80,1.333333333333333,2025-04-18T08:51:18.885+03:00,0.03057091307199995,1
2025-04-18T12:33:10.489+03:00,1744968787.160457,40.95364477741025,29.14099323588287,92.07828,-1,-1,-1,-1,30,31.71544983042259,-9999,66799.285418625,-0.7249298095703125,0.617156982421875,-0.2862396240234375,66799.27534362501,1.285127140171032,-1.221201878799482,-0.664885561396389,-0.01387085486203432,0.007552599534392357,-0.009185930714011192,-0.0009267926216125488,-0.002558648586273193,-0.01775127649307251,XArbitraryZVertical,0.1107176168109341,-0.5941072197182882,0.613885363016216,0.5078612632034832,-0.7393839359283447,0.6169690489768982,-0.2695564329624176,0,0,0,-1,-1,66782.51853550001,unknown,2,2025-04-18T12:32:53.690+03:00,2025-04-17T15:44:39.500+03:00,7653,1.147938,0,0,6301.398,4,10,2025-04-18T12:29:40.242+03:00,766661589.2645069,0,110.88,100.5253,1,0.4,2025-04-18T12:33:02.545+03:00,80,1.333333333333333,2025-04-18T08:51:18.885+03:00,0.03057091307199995,1
2025-04-18T12:33:10.499+03:00,1744968787.160457,40.95364477741025,29.14099323588287,92.07828,-1,-1,-1,-1,30,31.71544983042259,-9999,66799.29549462501,-0.71478271484375,0.604736328125,-0.2764129638671875,66799.285418625,1.28475093835012,-1.221382294713478,-0.6649109712476297,-0.04515733942389488,-0.004558590706437826,-0.009784708730876446,0.01287055015563965,0.001495480537414551,-0.01779848337173462,XArbitraryZVertical,0.1106519260362957,-0.5941778465095262,0.6137833214042813,0.5079162931647129,-0.7394178509712219,0.6169890761375427,-0.2694176733493805,0,0,0,-1,-1,66782.51853550001,unknown,2,2025-04-18T12:32:53.690+03:00,2025-04-17T15:44:39.500+03:00,7653,1.147938,0,0,6301.398,4,10,2025-04-18T12:29:40.242+03:00,766661589.2645069,0,110.88,100.5253,1,0.4,2025-04-18T12:33:02.545+03:00,80,1.333333333333333,2025-04-18T08:51:18.885+03:00,0.03057091307199995,1
2025-04-18T12:33:10.509+03:00,1744968787.160457,40.95364477741025,29.14099323588287,92.07828,-1,-1,-1,-1,30,31.71544983042259,-9999,66799.305570625,-0.717376708984375,0.6089630126953125,-0.2733154296875,66799.29549462501,1.284012852482305,-1.221901863196359,-0.6650666648843996,-0.07119692862033844,-0.0145675502717495,-0.01085263583809137,0.02437955141067505,-0.01080358028411865,-0.008694052696228027,XArbitraryZVertical,0.1105350151235812,-0.5943750421536369,0.613588468071054,0.5079465178997805,-0.7394675016403198,0.6171115636825562,-0.2690006494522095,0,0,0,-1,-1,66782.51853550001,unknown,2,2025-04-18T12:32:53.690+03:00,2025-04-17T15:44:39.500+03:00,7653,1.147938,0,0,6301.398,4,10,2025-04-18T12:29:40.242+03:00,766661589.2645069,0,110.88,100.5253,1,0.4,2025-04-18T12:33:02.545+03:00,80,1.333333333333333,2025-04-18T08:51:18.885+03:00,0.03057091307199995,1
2025-04-18T12:33:10.519+03:00,1744968787.160457,40.95364477741025,29.14099323588287,92.07828,-1,-1,-1,-1,30,31.71544983042259,-9999,66799.315645625,-0.729766845703125,0.6221771240234375,-0.2733917236328125,66799.305570625,1.283236475352969,-1.22254607441642,-0.6652567435480653,-0.0544491745531559,-0.02173258364200592,-0.007819728925824165,0.02325212955474854,-0.01048016548156738,-0.004907518625259399,XArbitraryZVertical,0.1104323027902828,-0.5946113331638512,0.6133817814254486,0.5079418184404045,-0.7395302653312683,0.6172611713409424,-0.2684841454029083,0,0,0,-1,-1,66782.51853550001,unknown,2,2025-04-18T12:32:53.690+03:00,2025-04-17T15:44:39.500+03:00,7653,1.147938,0,0,6301.398,4,10,2025-04-18T12:29:40.242+03:00,766661589.2645069,0,110.88,100.5253,1,0.4,2025-04-18T12:33:02.545+03:00,80,1.333333333333333,2025-04-18T08:51:18.885+03:00,0.03057091307199995,1
2025-04-18T12:33:10.529+03:00,1744968787.160457,40.95364477741025,29.14099323588287,92.07828,-1,-1,-1,-1,30,31.71544983042259,-9999,66799.32572162501,-0.7519073486328125,0.6267547607421875,-0.276336669921875,66799.315645625,1.28273380448981,-1.223017807971212,-0.6653458303105938,-0.02511418797075748,-0.01225466001778841,-0.01083682384341955,0.01224911212921143,0.003884613513946533,-0.006190657615661621,XArbitraryZVertical,0.1103948761869506,-0.5947728291533638,0.613240310915838,0.5079316981139462,-0.7396051287651062,0.6173312067985535,-0.2681165039539337,0,0,0,-1,-1,66782.51853550001,unknown,2,2025-04-18T12:32:53.690+03:00,2025-04-17T15:44:39.500+03:00,7653,1.147938,0,0,6301.398,4,10,2025-04-18T12:29:40.242+03:00,766661589.2645069,0,110.88,100.5253,1,0.4,2025-04-18T12:33:02.545+03:00,80,1.333333333333333,2025-04-18T08:51:18.885+03:00,0.03057091307199995,1
2025-04-18T12:33:10.539+03:00,1744968787.160457,40.95364477741025,29.14099323588287,92.07828,-1,-1,-1,-1,30,31.71544983042259,-9999,66799.335796625,-0.7573699951171875,0.622833251953125,-0.2802886962890625,66799.32572162501,1.282479452863297,-1.223233298742371,-0.6653044317412234,-0.01153985597193241,-0.002132584806531668,-0.01204273663461208,-0.009901225566864014,0.009303450584411621,-0.007974058389663696,XArbitraryZVertical,0.1104004936569879,-0.5948351303329134,0.6131581317384476,0.5079566409628308,-0.7396868467330933,0.6172986626625061,-0.2679657936096191,0,0,0,-1,-1,66782.51853550001,unknown,2,2025-04-18T12:32:53.690+03:00,2025-04-17T15:44:39.500+03:00,7653,1.147938,0,0,6301.398,4,10,2025-04-18T12:29:40.242+03:00,766661589.2645069,0,110.88,100.5253,1,0.4,2025-04-18T12:33:02.545+03:00,80,1.333333333333333,2025-04-18T08:51:18.885+03:00,0.03057091307199995,1
2025-04-18T12:33:10.549+03:00,1744968787.160457,40.95364477741025,29.14099323588287,92.07828,-1,-1,-1,-1,30,31.71544983042259,-9999,66799.34587262501,-0.74432373046875,0.6096343994140625,-0.27923583984375,66799.335796625,1.282361079298568,-1.223304034025046,-0.6651977626849586,-0.003838260658085346,0.0001036715693771839,-0.01476715039461851,-0.01845675706863403,0.006640791893005371,-0.01287153363227844,XArbitraryZVertical,0.110425999983331,-0.5948429528932263,0.6131094895400814,0.5080007198937512,-0.7397677302360535,0.6172147393226624,-0.2679359316825867,0,0,0,-1,-1,66782.51853550001,unknown,2,2025-04-18T12:32:53.690+03:00,2025-04-17T15:44:39.500+03:00,7653,1.147938,0,0,6301.398,4,10,2025-04-18T12:29:40.242+03:00,766661589.2645069,0,110.88,100.5253,1,0.4,2025-04-18T12:33:02.545+03:00,80,1.333333333333333,2025-04-18T08:51:18.885+03:00,0.03057091307199995,1
2025-04-18T12:33:10.559+03:00,1744968787.160457,40.95364477741025,29.14099323588287,92.07828,-1,-1,-1,-1,30,31.71544983042259,-9999,66799.35594762501,-0.73291015625,0.6038665771484375,-0.2859954833984375,66799.34587262501,1.282254463166089,-1.22333074380367,-0.6650458228580928,-0.007634929846972227,0.003145201597362757,-0.01268991734832525,-0.006642699241638184,-0.00564497709274292,-0.01205062866210938,XArbitraryZVertical,0.1104581002274102,-0.5948318742851075,0.6130600310157781,0.5080664229662847,-0.7398630976676941,0.6170951724052429,-0.2679480910301208,0,0,0,-1,-1,66782.51853550001,unknown,2,2025-04-18T12:32:53.690+03:00,2025-04-17T15:44:39.500+03:00,7653,1.147938,0,0,6301.398,4,10,2025-04-18T12:29:40.242+03:00,766661589.2645069,0,110.88,100.5253,1,0.4,2025-04-18T12:33:02.545+03:00,80,1.333333333333333,2025-04-18T08:51:18.885+03:00,0.03057091307199995,1
2025-04-18T12:33:10.569+03:00,1744968787.160457,40.95364477741025,29.14099323588287,92.07828,-1,-1,-1,-1,30,31.71544983042259,-9999,66799.366023625,-0.7213134765625,0.6049957275390625,-0.2939300537109375,66799.35594762501,1.282186383879685,-1.223307781340122,-0.6649572385121014,-0.006518266163766384,-0.001473784912377596,-0.006968382745981216,0.005426585674285889,-0.01303678750991821,-0.01671469211578369,XArbitraryZVertical,0.1104632049825577,-0.5948159472998125,0.6130318108665402,0.5081181204065841,-0.7399084568023682,0.6170254945755005,-0.2679837346076965,0,0,0,-1,-1,66782.51853550001,unknown,2,2025-04-18T12:32:53.690+03:00,2025-04-17T15:44:39.500+03:00,7653,1.147938,0,0,6301.398,4,10,2025-04-18T12:29:40.242+03:00,766661589.2645069,0,110.88,100.5253,1,0.4,2025-04-18T12:33:02.545+03:00,80,1.333333333333333,2025-04-18T08:51:18.885+03:00,0.03057091307199995,1
2025-04-18T12:33:10.579+03:00,1744968787.160457,40.95364477741025,29.14099323588287,92.07828,-1,-1,-1,-1,30,31.71544983042259,-9999,66799.376098625,-0.7196502685546875,0.6063690185546875,-0.297454833984375,66799.366023625,1.282333364997482,-1.22320088925856,-0.6648872126942756,0.03037570230662823,-0.004050526767969131,-0.004552030004560947,0.01767599582672119,-0.01231038570404053,-0.02496746182441711,XArbitraryZVertical,0.1104998638292997,-0.594769734852285,0.6130654319365989,0.5081234959442351,-0.7399202585220337,0.6169703602790833,-0.2680774927139282,0,0,0,-1,-1,66782.51853550001,unknown,2,2025-04-18T12:32:53.690+03:00,2025-04-17T15:44:39.500+03:00,7653,1.147938,0,0,6301.398,4,10,2025-04-18T12:29:40.242+03:00,766661589.2645069,0,110.88,100.5253,1,0.4,2025-04-18T12:33:02.545+03:00,80,1.333333333333333,2025-04-18T08:51:18.885+03:00,0.03057091307199995,1
2025-04-18T12:33:10.589+03:00,1744968787.160457,40.95364477741025,29.14099323588287,92.07828,-1,-1,-1,-1,30,31.71544983042259,-9999,66799.386174625,-0.728729248046875,0.62603759765625,-0.31231689453125,66799.376098625,1.282875211422826,-1.222804031658712,-0.6646714006538424,0.05319713056087494,0.004164792597293854,-0.01590455323457718,0.02086853981018066,-0.01137757301330566,-0.02760389447212219,XArbitraryZVertical,0.110618328912314,-0.5946051892637289,0.613195357116223,0.5081335289342933,-0.7399389743804932,0.6168005466461182,-0.2684164941310883,0,0,0,-1,-1,66782.51853550001,unknown,2,2025-04-18T12:32:53.690+03:00,2025-04-17T15:44:39.500+03:00,7653,1.147938,0,0,6301.398,4,10,2025-04-18T12:29:40.242+03:00,766661589.2645069,0,110.88,100.5253,1,0.4,2025-04-18T12:33:02.545+03:00,80,1.333333333333333,2025-04-18T08:51:18.885+03:00,0.03057091307199995,1
2025-04-18T12:33:10.599+03:00,1744968787.160457,40.95364477741025,29.14099323588287,92.07828,-1,-1,-1,-1,30,31.71544983042259,-9999,66799.396249625,-0.7407989501953125,0.629150390625,-0.321441650390625,66799.386174625,1.28347181042555,-1.222371493984769,-0.6643102155143852,0.04948754608631134,0.001842183526605368,-0.02542711794376373,0.01314926147460938,0.007308900356292725,-0.04116958379745483,XArbitraryZVertical,0.1107952281807277,-0.5944056777069863,0.6133212490533793,0.5081765896341265,-0.7400322556495667,0.6165161728858948,-0.2688126266002655,0,0,0,-1,-1,66782.51853550001,unknown,2,2025-04-18T12:32:53.690+03:00,2025-04-17T15:44:39.500+03:00,7653,1.147938,0,0,6301.398,4,10,2025-04-18T12:29:40.242+03:00,766661589.2645069,0,110.88,100.5253,1,0.4,2025-04-18T12:33:02.545+03:00,80,1.333333333333333,2025-04-18T08:51:18.885+03:00,0.03057091307199995,1
2025-04-18T12:33:10.609+03:00,1744968787.160457,40.95364477741025,29.14099323588287,92.07828,-1,-1,-1,-1,30,31.71544983042259,-9999,66799.40632562501,-0.7490997314453125,0.610076904296875,-0.31866455078125,66799.396249625,1.283448865503932,-1.22234448091491,-0.6640244854387951,-0.05548228323459625,0.0006600064225494862,-0.03754450008273125,0.0009631514549255371,0.01443088054656982,-0.05201476812362671,XArbitraryZVertical,0.1108847454648157,-0.5943552881798528,0.6132776663416933,0.5082685507872668,-0.7401905059814453,0.6162911653518677,-0.2688927352428436,0,0,0,-1,-1,66782.51853550001,unknown,2,2025-04-18T12:32:53.690+03:00,2025-04-17T15:44:39.500+03:00,7653,1.147938,0,0,6301.398,4,10,2025-04-18T12:29:40.242+03:00,766661589.2645069,0,110.88,100.5253,1,0.4,2025-04-18T12:33:02.545+03:00,80,1.333333333333333,2025-04-18T08:51:18.885+03:00,0.03057091307199995,1
2025-04-18T12:33:10.620+03:00,1744968787.160457,40.95364477741025,29.14099323588287,92.07828,-1,-1,-1,-1,30,31.71544983042259,-9999,66799.416401625,-0.7615203857421875,0.5605010986328125,-0.30572509765625,66799.40632562501,1.281371348300304,-1.223623771313617,-0.6641665314925084,-0.2692860960960388,-0.001823058817535639,-0.05085201561450958,-0.007641196250915527,-0.003091275691986084,-0.05160319805145264,XArbitraryZVertical,0.1106072165171472,-0.5948177438983748,0.6126982992110603,0.5084866768946067,-0.7404515147209167,0.6164030432701111,-0.2679157853126526,0,0,0,-1,-1,66782.51853550001,unknown,2,2025-04-18T12:32:53.690+03:00,2025-04-17T15:44:39.500+03:00,7653,1.147938,0,0,6301.398,4,10,2025-04-18T12:29:40.242+03:00,766661589.2645069,0,110.88,100.5253,1,0.4,2025-04-18T12:33:02.545+03:00,80,1.333333333333333,2025-04-18T08:51:18.885+03:00,0.03057091307199995,1
2025-04-18T12:33:10.630+03:00,1744968787.160457,40.95364477741025,29.14099323588287,92.07828,-1,-1,-1,-1,30,31.71544983042259,-9999,66799.426476625,-0.757476806640625,0.525421142578125,-0.2973175048828125,66799.416401625,1.276710913969228,-1.226606842017721,-0.6648025811598014,-0.4533869624137878,-0.02203512005507946,-0.07071520388126373,-0.02015388011932373,-0.04884952306747437,-0.04173851013183594,XArbitraryZVertical,0.109899793941087,-0.595932299393476,0.6114365784104524,0.5088537461928565,-0.7408782839775085,0.6169037818908691,-0.2655734717845917,0,0,0,-1,-1,66782.51853550001,unknown,2,2025-04-18T12:32:53.690+03:00,2025-04-17T15:44:39.500+03:00,7653,1.147938,0,0,6301.398,4,10,2025-04-18T12:29:40.242+03:00,766661589.2645069,0,110.88,100.5253,1,0.4,2025-04-18T12:33:02.545+03:00,80,1.333333333333333,2025-04-18T08:51:18.885+03:00,0.03057091307199995,1
2025-04-18T12:33:10.640+03:00,1744968787.160457,40.95364477741025,29.14099323588287,92.07828,-1,-1,-1,-1,30,31.71544983042259,-9999,66799.436552625,-0.74188232421875,0.5703582763671875,-0.3130340576171875,66799.426476625,1.270640925907172,-1.230638009914361,-0.6656227637957571,-0.4818574488162994,-0.03825104236602783,-0.08670265972614288,-0.01767450571060181,-0.09192961454391479,-0.03493216633796692,XArbitraryZVertical,0.1090191082394207,-0.5974168941119686,0.609785494417135,0.5092833622000792,-0.7414655089378357,0.6175490617752075,-0.2624157667160034,0,0,0,-1,-1,66782.51853550001,unknown,2,2025-04-18T12:32:53.690+03:00,2025-04-17T15:44:39.500+03:00,7653,1.147938,0,0,6301.398,4,10,2025-04-18T12:29:40.242+03:00,766661589.2645069,0,110.88,100.5253,1,0.4,2025-04-18T12:33:02.545+03:00,80,1.333333333333333,2025-04-18T08:51:18.885+03:00,0.03057091307199995,1
2025-04-18T12:33:10.650+03:00,1744968787.160457,40.95364477741025,29.14099323588287,92.07828,-1,-1,-1,-1,30,31.71544983042259,-9999,66799.446627625,-0.7283935546875,0.631378173828125,-0.34429931640625,66799.436552625,1.265096076065701,-1.234446191624907,-0.6662131081070829,-0.3733711838722229,-0.04028596356511116,-0.09077116847038269,-0.001598179340362549,-0.05629152059555054,-0.05049708485603333,XArbitraryZVertical,0.1083040978714044,-0.5987781547571353,0.6082493760688977,0.5096740873860101,-0.7421151995658875,0.618013322353363,-0.2594698965549469,0,0,0,-1,-1,66782.51853550001,unknown,2,2025-04-18T12:32:53.690+03:00,2025-04-17T15:44:39.500+03:00,7653,1.147938,0,0,6301.398,4,10,2025-04-18T12:29:40.242+03:00,766661589.2645069,0,110.88,100.5253,1,0.4,2025-04-18T12:33:02.545+03:00,80,1.333333333333333,2025-04-18T08:51:18.885+03:00,0.03057091307199995,1
2025-04-18T12:33:10.660+03:00,1744968787.160457,40.95364477741025,29.14099323588287,92.07828,-1,-1,-1,-1,30,31.71544983042259,-9999,66799.45670362501,-0.7129364013671875,0.6808624267578125,-0.3736114501953125,66799.446627625,1.260791331137269,-1.237417396895276,-0.6663805309942881,-0.2932080924510956,-0.04680265113711357,-0.09829922765493393,0.01249939203262329,0.006519436836242676,-0.08215600252151489,XArbitraryZVertical,0.1078554957306355,-0.5997934940985528,0.6070152241733808,0.5100465972163911,-0.7427850961685181,0.6181449294090271,-0.2572299242019653,0,0,0,-1,-1,66782.51853550001,unknown,2,2025-04-18T12:32:53.690+03:00,2025-04-17T15:44:39.500+03:00,7653,1.147938,0,0,6301.398,4,10,2025-04-18T12:29:40.242+03:00,766661589.2645069,0,110.88,100.5253,1,0.4,2025-04-18T12:33:02.545+03:00,80,1.333333333333333,2025-04-18T08:51:18.885+03:00,0.03057091307199995,1
2025-04-18T12:33:10.670+03:00,1744968787.160457,40.95364477741025,29.14099323588287,92.07828,-1,-1,-1,-1,30,31.71544983042259,-9999,66799.46677862501,-0.70855712890625,0.6804046630859375,-0.393096923828125,66799.45670362501,1.25745795207446,-1.240012858881771,-0.6664192818877512,-0.2227610945701599,-0.07820531725883484,-0.07689806818962097,0.028858482837677,0.05891823768615723,-0.1152204573154449,XArbitraryZVertical,0.1076279630863818,-0.6006409117726327,0.6060306767702133,0.5102682693305013,-0.7434276938438416,0.6181753873825073,-0.2552934288978577,0,0,0,-1,-1,66782.51853550001,unknown,2,2025-04-18T12:32:53.690+03:00,2025-04-17T15:44:39.500+03:00,7653,1.147938,0,0,6301.398,4,10,2025-04-18T12:29:40.242+03:00,766661589.2645069,0,110.88,100.5253,1,0.4,2025-04-18T12:33:02.545+03:00,80,1.333333333333333,2025-04-18T08:51:18.885+03:00,0.03057091307199995,1
2025-04-18T12:33:10.680+03:00,1744968787.160457,40.95364477741025,29.14099323588287,92.07828,-1,-1,-1,-1,30,31.71544983042259,-9999,66799.476854625,-0.7397308349609375,0.6350860595703125,-0.3895416259765625,66799.46677862501,1.254306154464241,-1.242966556413852,-0.6665007844048522,-0.2776590883731842,-0.1288814097642899,-0.06963969022035599,0.03670275211334229,0.06593424081802368,-0.1394062936306,XArbitraryZVertical,0.1075450764508785,-0.6015762075410419,0.6050793754195803,0.5103129109606115,-0.7441308498382568,0.6182394027709961,-0.2530802488327026,0,0,0,-1,-1,66782.51853550001,unknown,2,2025-04-18T12:32:53.690+03:00,2025-04-17T15:44:39.500+03:00,7653,1.147938,0,0,6301.398,4,10,2025-04-18T12:29:40.242+03:00,766661589.2645069,0,110.88,100.5253,1,0.4,2025-04-18T12:33:02.545+03:00,80,1.333333333333333,2025-04-18T08:51:18.885+03:00,0.03057091307199995,1
2025-04-18T12:33:10.690+03:00,1744968787.160457,40.95364477741025,29.14099323588287,92.07828,-1,-1,-1,-1,30,31.71544983042259,-9999,66799.48692962501,-0.758331298828125,0.605804443359375,-0.4089508056640625,66799.476854625,1.25057933902922,-1.246574099482643,-0.6669241668042606,-0.2796937525272369,-0.1500660479068756,-0.01336469687521458,0.01075130701065063,0.0222969651222229,-0.1399175226688385,XArbitraryZVertical,0.1073581717716913,-0.6027594057865593,0.6039962198015797,0.5102390187794441,-0.7447906136512756,0.6185721755027771,-0.2503106296062469,0,0,0,-1,-1,66782.51853550001,unknown,2,2025-04-18T12:32:53.690+03:00,2025-04-17T15:44:39.500+03:00,7653,1.147938,0,0,6301.398,4,10,2025-04-18T12:29:40.242+03:00,766661589.2645069,0,110.88,100.5253,1,0.4,2025-04-18T12:33:02.545+03:00,80,1.333333333333333,2025-04-18T08:51:18.885+03:00,0.03057091307199995,1
2025-04-18T12:33:10.700+03:00,1744968787.160457,40.95364477741025,29.14099323588287,92.07828,-1,-1,-1,-1,30,31.71544983042259,-9999,66799.497005625,-0.7280426025390625,0.5833740234375,-0.427978515625,66799.48692962501,1.246922312811798,-1.250637290238301,-0.667773788477277,-0.3504954874515533,-0.2207266390323639,-0.02900823764503002,-0.01434105634689331,-0.01195484399795532,-0.1561727821826935,XArbitraryZVertical,0.1071689632780578,-0.6041161703417458,0.6029699926556603,0.5098880562056831,-0.7453025579452515,0.6192395091056824,-0.2471169382333755,0,0,0,-1,-1,66782.51853550001,unknown,2,2025-04-18T12:32:53.690+03:00,2025-04-17T15:44:39.500+03:00,7653,1.147938,0,0,6301.398,4,10,2025-04-18T12:29:40.242+03:00,766661589.2645069,0,110.88,100.5253,1,0.4,2025-04-18T12:33:02.545+03:00,80,1.333333333333333,2025-04-18T08:51:18.885+03:00,0.03057091307199995,1
2025-04-18T12:33:10.710+03:00,1744968787.160457,40.95364477741025,29.14099323588287,92.07828,-1,-1,-1,-1,30,31.71544983042259,-9999,66799.507080625,-0.72674560546875,0.5048828125,-0.3826904296875,66799.497005625,1.241421064848223,-1.256570954934094,-0.6687434806609927,-0.5365673303604126,-0.3077816367149353,-0.04059964790940285,0.01550185680389404,-0.02943968772888184,-0.1877170205116272,XArbitraryZVertical,0.1069353590427071,-0.6060631756374671,0.6013937137405554,0.5094879696305626,-0.7461842894554138,0.6200006008148193,-0.2425045073032379,0,0,0,-1,-1,66782.51853550001,unknown,2,2025-04-18T12:32:53.690+03:00,2025-04-17T15:44:39.500+03:00,7653,1.147938,0,0,6301.398,4,10,2025-04-18T12:29:40.242+03:00,766661589.2645069,0,110.88,100.5253,1,0.4,2025-04-18T12:33:02.545+03:00,80,1.333333333333333,2025-04-18T08:51:18.885+03:00,0.03057091307199995,1
2025-04-18T12:33:10.721+03:00,1744968787.160457,40.95364477741025,29.14099323588287,92.07828,-1,-1,-1,-1,30,31.71544983042259,-9999,66799.51715662501,-0.72564697265625,0.5122833251953125,-0.38690185546875,66799.507080625,1.233998827698608,-1.264521655339841,-0.6701530835897745,-0.6319680213928223,-0.3426316380500793,-0.03522532060742378,0.02108889818191528,-0.1090058088302612,-0.1512880176305771,XArbitraryZVertical,0.1065507345802374,-0.6086844173778339,0.599290715148448,0.508921266536719,-0.7472546100616455,0.621105968952179,-0.2363004386425018,0,0,0,-1,-1,66782.51853550001,unknown,2,2025-04-18T12:32:53.690+03:00,2025-04-17T15:44:39.500+03:00,7653,1.147938,0,0,6301.398,4,10,2025-04-18T12:29:40.242+03:00,766661589.2645069,0,110.88,100.5253,1,0.4,2025-04-18T12:33:02.545+03:00,80,1.333333333333333,2025-04-18T08:51:18.885+03:00,0.03057091307199995,1
2025-04-18T12:33:10.731+03:00,1744968787.160457,40.95364477741025,29.14099323588287,92.07828,-1,-1,-1,-1,30,31.71544983042259,-9999,66799.527231625,-0.70806884765625,0.581512451171875,-0.4332733154296875,66799.51715662501,1.2262683380723,-1.273016655749305,-0.6717878986754666,-0.5977128148078918,-0.3877293467521667,-0.0137413339689374,0.02142608165740967,-0.1168169379234314,-0.1520374119281769,XArbitraryZVertical,0.106133742087476,-0.6114840284728319,0.5971218526999622,0.5082010788573096,-0.7482632398605347,0.6223863959312439,-0.2296458184719086,0,0,0,-1,-1,66782.51853550001,unknown,2,2025-04-18T12:32:53.690+03:00,2025-04-17T15:44:39.500+03:00,7653,1.147938,0,0,6301.398,4,10,2025-04-18T12:29:40.242+03:00,766661589.2645069,0,110.88,100.5253,1,0.4,2025-04-18T12:33:02.545+03:00,80,1.333333333333333,2025-04-18T08:51:18.885+03:00,0.03057091307199995,1
2025-04-18T12:33:10.741+03:00,1744968787.160457,40.95364477741025,29.14099323588287,92.07828,-1,-1,-1,-1,30,31.71544983042259,-9999,66799.53730762501,-0.700439453125,0.6132659912109375,-0.4720306396484375,66799.527231625,1.2190460659048,-1.281674037702154,-0.6733614559956856,-0.5745278000831604,-0.4412430226802826,-0.009273681789636612,0.03875821828842163,-0.04956632852554321,-0.2044882774353027,XArbitraryZVertical,0.10592364815685,-0.6142802773267887,0.5950722720128412,0.5072760743094575,-0.7492838501930237,0.6236172318458557,-0.2228798419237137,0,0,0,-1,-1,66782.51853550001,unknown,2,2025-04-18T12:32:53.690+03:00,2025-04-17T15:44:39.500+03:00,7653,1.147938,0,0,6301.398,4,10,2025-04-18T12:29:40.242+03:00,766661589.2645069,0,110.88,100.5253,1,0.4,2025-04-18T12:33:02.545+03:00,80,1.333333333333333,2025-04-18T08:51:18.885+03:00,0.03057091307199995,1
2025-04-18T12:33:10.751+03:00,1744968787.160457,40.95364477741025,29.14099323588287,92.07828,-1,-1,-1,-1,30,31.71544983042259,-9999,66799.547383625,-0.6989898681640625,0.6168670654296875,-0.504302978515625,66799.53730762501,1.211991294789182,-1.290904297636405,-0.6749809202146384,-0.5627872347831726,-0.5190715193748474,0.005726307164877653,0.04969960451126099,-0.01295918226242065,-0.2528612613677979,XArbitraryZVertical,0.1058996640119568,-0.6172096302457836,0.5930500377575663,0.5060921068559237,-0.7503374218940735,0.6248824000358582,-0.2156750708818436,0,0,0,-1,-1,66782.51853550001,unknown,2,2025-04-18T12:32:53.690+03:00,2025-04-17T15:44:39.500+03:00,7653,1.147938,0,0,6301.398,4,10,2025-04-18T12:29:40.242+03:00,766661589.2645069,0,110.88,100.5253,1,0.4,2025-04-18T12:33:02.545+03:00,80,1.333333333333333,2025-04-18T08:51:18.885+03:00,0.03057091307199995,1
2025-04-18T12:33:10.761+03:00,1744968787.160457,40.95364477741025,29.14099323588287,92.07828,-1,-1,-1,-1,30,31.71544983042259,-9999,66799.557458625,-0.7156524658203125,0.6380767822265625,-0.54461669921875,66799.547383625,1.205165233289065,-1.300856018302578,-0.6765633432097935,-0.5396790504455566,-0.6039571762084961,0.01142237521708012,0.05357086658477783,-0.01042497158050537,-0.2920512557029724,XArbitraryZVertical,0.1061540654385293,-0.620293969152467,0.5910496000477985,0.5046059178833316,-0.7514926791191101,0.6261170506477356,-0.2079334110021591,0,0,0,-1,-1,66782.51853550001,unknown,2,2025-04-18T12:32:53.690+03:00,2025-04-17T15:44:39.500+03:00,7653,1.147938,0,0,6301.398,4,10,2025-04-18T12:29:40.242+03:00,766661589.2645069,0,110.88,100.5253,1,0.4,2025-04-18T12:33:02.545+03:00,80,1.333333333333333,2025-04-18T08:51:18.885+03:00,0.03057091307199995,1
2025-04-18T12:33:10.771+03:00,1744968787.160457,40.95364477741025,29.14099323588287,92.07828,-1,-1,-1,-1,30,31.71544983042259,-9999,66799.56753462501,-0.73797607421875,0.663787841796875,-0.562713623046875,66799.557458625,1.198654689666502,-1.311410207145756,-0.678116221058114,-0.5158743858337402,-0.6839180588722229,0.01954714767634869,0.03979873657226562,0.006492435932159424,-0.340175986289978,XArbitraryZVertical,0.1066751450887802,-0.6234981421319999,0.5890994744727397,0.5028243530537162,-0.7527046203613281,0.6273271441459656,-0.1997409611940384,0,0,0,-1,-1,66782.51853550001,unknown,2,2025-04-18T12:32:53.690+03:00,2025-04-17T15:44:39.500+03:00,7653,1.147938,0,0,6301.398,4,10,2025-04-18T12:29:40.242+03:00,766661589.2645069,0,110.88,100.5253,1,0.4,2025-04-18T12:33:02.545+03:00,80,1.333333333333333,2025-04-18T08:51:18.885+03:00,0.03057091307199995,1
2025-04-18T12:33:10.781+03:00,1744968787.160457,40.95364477741025,29.14099323588287,92.07828,-1,-1,-1,-1,30,31.71544983042259,-9999,66799.577609625,-0.7485809326171875,0.6611328125,-0.542205810546875,66799.56753462501,1.192300505601733,-1.322720579305149,-0.6796030747173939,-0.5091419816017151,-0.7735465168952942,0.01962208189070225,0.01913201808929443,0.03354877233505249,-0.3722770810127258,XArbitraryZVertical,0.1074712793814424,-0.6268628574575144,0.58714414203195,0.5007541253081825,-0.7540106177330017,0.628484308719635,-0.190985769033432,0,0,0,-1,-1,66782.51853550001,unknown,2,2025-04-18T12:32:53.690+03:00,2025-04-17T15:44:39.500+03:00,7653,1.147938,0,0,6301.398,4,10,2025-04-18T12:29:40.242+03:00,766661589.2645069,0,110.88,100.5253,1,0.4,2025-04-18T12:33:02.545+03:00,80,1.333333333333333,2025-04-18T08:51:18.885+03:00,0.03057091307199995,1
2025-04-18T12:33:10.799+03:00,1744968787.160457,40.95364477741025,29.14099323588287,92.07828,-1,-1,-1,-1,30,31.71544983042259,-9999,66799.58768562501,-0.74029541015625,0.666778564453125,-0.5192413330078125,66799.577609625,1.186017974215759,-1.334946071771063,-0.6810626764000546,-0.4898450076580048,-0.8692368268966675,0.03086008690297604,0.00725787878036499,0.03136128187179565,-0.3641151785850525,XArbitraryZVertical,0.1085467222203665,-0.6304348448135316,0.5851586813967596,0.4983562183351709,-0.7553963661193848,0.6296190023422241,-0.1815390288829803,0,0,0,-1,-1,66782.51853550001,unknown,2,2025-04-18T12:32:53.690+03:00,2025-04-17T15:44:39.500+03:00,7653,1.147938,0,0,6301.398,4,10,2025-04-18T12:29:40.242+03:00,766661589.2645069,0,110.88,100.5253,1,0.4,2025-04-18T12:33:02.545+03:00,80,1.333333333333333,2025-04-18T08:51:18.885+03:00,0.03057091307199995,1
2025-04-18T12:33:10.802+03:00,1744968787.160457,40.95364477741025,29.14099323588287,92.07828,-1,-1,-1,-1,30,31.71544983042259,-9999,66799.59776062501,-0.720855712890625,0.688568115234375,-0.483856201171875,66799.58768562501,1.180419550378774,-1.347697050595124,-0.6824981718765292,-0.4105269908905029,-0.963638961315155,0.04921859130263329,0.01461046934127808,0.03390884399414062,-0.350005567073822,XArbitraryZVertical,0.1099785933940322,-0.6340808479472289,0.583315066431225,0.4955703211451448,-0.7567676305770874,0.6307335495948792,-0.1716923713684082,0,0,0,-1,-1,66782.51853550001,unknown,2,2025-04-18T12:32:53.690+03:00,2025-04-17T15:44:39.500+03:00,7653,1.147938,0,0,6301.398,4,10,2025-04-18T12:29:40.242+03:00,766661589.2645069,0,110.88,100.5253,1,0.4,2025-04-18T12:33:02.545+03:00,80,1.333333333333333,2025-04-18T08:51:18.885+03:00,0.03057091307199995,1
2025-04-18T12:33:10.811+03:00,1744968787.160457,40.95364477741025,29.14099323588287,92.07828,-1,-1,-1,-1,30,31.71544983042259,-9999,66799.607836625,-0.7125396728515625,0.70391845703125,-0.4150543212890625,66799.59776062501,1.175956935250662,-1.360757324934821,-0.6839214467870276,-0.3185438215732574,-1.069158434867859,0.07511250674724579,0.03519660234451294,0.05415207147598267,-0.3287798166275024,XArbitraryZVertical,0.1118461764455967,-0.6377200720487696,0.5817346888025423,0.4923296766719603,-0.7580666542053223,0.6318373680114746,-0.1616070866584778,0,0,0,-1,-1,66782.51853550001,unknown,2,2025-04-18T12:32:53.690+03:00,2025-04-17T15:44:39.500+03:00,7653,1.147938,0,0,6301.398,4,10,2025-04-18T12:29:40.242+03:00,766661589.2645069,0,110.88,100.5253,1,0.4,2025-04-18T12:33:02.545+03:00,80,1.333333333333333,2025-04-18T08:51:18.885+03:00,0.03057091307199995,1
2025-04-18T12:33:10.821+03:00,1744968787.160457,40.95364477741025,29.14099323588287,92.07828,-1,-1,-1,-1,30,31.71544983042259,-9999,66799.617911625,-0.7279052734375,0.7107696533203125,-0.3451995849609375,66799.607836625,1.172638057161322,-1.374049797002541,-0.685339569858229,-0.2417892962694168,-1.154587268829346,0.09655991196632385,0.04669785499572754,0.07043325901031494,-0.2721511125564575,XArbitraryZVertical,0.1141325454407576,-0.6413292109383352,0.5804188093615883,0.488656102477959,-0.7592682242393494,0.6329359412193298,-0.1513412147760391,0,0,0,-1,-1,66782.51853550001,unknown,2,2025-04-18T12:32:53.690+03:00,2025-04-17T15:44:39.500+03:00,7653,1.147938,0,0,6301.398,4,10,2025-04-18T12:29:40.242+03:00,766661589.2645069,0,110.88,100.5253,1,0.4,2025-04-18T12:33:02.545+03:00,80,1.333333333333333,2025-04-18T08:51:18.885+03:00,0.03057091307199995,1
2025-04-18T12:33:10.831+03:00,1744968787.160457,40.95364477741025,29.14099323588287,92.07828,-1,-1,-1,-1,30,31.71544983042259,-9999,66799.627987625,-0.741455078125,0.7296600341796875,-0.2660369873046875,66799.617911625,1.170093582608037,-1.387671836349266,-0.6867916009837048,-0.1983739137649536,-1.229282855987549,0.115481398999691,0.03482979536056519,0.0755200982093811,-0.2131256014108658,XArbitraryZVertical,0.1167383984387736,-0.6449523553981152,0.5792722450281341,0.4846158329016272,-0.7603548765182495,0.6340594291687012,-0.1408172100782394,0,0,0,-1,-1,66782.51853550001,unknown,2,2025-04-18T12:32:53.690+03:00,2025-04-17T15:44:39.500+03:00,7653,1.147938,0,0,6301.398,4,10,2025-04-18T12:29:40.242+03:00,766661589.2645069,0,110.88,100.5253,1,0.4,2025-04-18T12:33:02.545+03:00,80,1.333333333333333,2025-04-18T08:51:18.885+03:00,0.03057091307199995,1
2025-04-18T12:33:10.841+03:00,1744968787.160457,40.95364477741025,29.14099323588287,92.07828,-1,-1,-1,-1,30,31.71544983042259,-9999,66799.638062625,-0.7497711181640625,0.74609375,-0.20068359375,66799.627987625,1.167906056810335,-1.401789427226974,-0.6883084633796778,-0.1918328553438187,-1.295565128326416,0.1221254840493202,0.02106821537017822,0.09110194444656372,-0.1460173726081848,XArbitraryZVertical,0.1195690795814394,-0.6486521671766226,0.5781848673787918,0.4802665271156141,-0.7613179087638855,0.6352316737174988,-0.1299072057008743,0,0,0,-1,-1,66782.51853550001,unknown,2,2025-04-18T12:32:53.690+03:00,2025-04-17T15:44:39.500+03:00,7653,1.147938,0,0,6301.398,4,10,2025-04-18T12:29:40.242+03:00,766661589.2645069,0,110.88,100.5253,1,0.4,2025-04-18T12:33:02.545+03:00,80,1.333333333333333,2025-04-18T08:51:18.885+03:00,0.03057091307199995,1
2025-04-18T12:33:10.851+03:00,1744968787.160457,40.95364477741025,29.14099323588287,92.07828,-1,-1,-1,-1,30,31.71544983042259,-9999,66799.64813862501,-0.759552001953125,0.733306884765625,-0.1461181640625,66799.638062625,1.165379440653476,-1.416743545950633,-0.6898957368157109,-0.2449927479028702,-1.353499293327332,0.1240778490900993,0.01364284753799438,0.1094387173652649,-0.08898301422595978,XArbitraryZVertical,0.1224950830172126,-0.652547506354149,0.5769674145392196,0.4756947223631783,-0.7621781229972839,0.6364567875862122,-0.1183534115552902,0,0,0,-1,-1,66782.51853550001,unknown,2,2025-04-18T12:32:53.690+03:00,2025-04-17T15:44:39.500+03:00,7653,1.147938,0,0,6301.398,4,10,2025-04-18T12:29:40.242+03:00,766661589.2645069,0,110.88,100.5253,1,0.4,2025-04-18T12:33:02.545+03:00,80,1.333333333333333,2025-04-18T08:51:18.885+03:00,0.03057091307199995,1
2025-04-18T12:33:10.861+03:00,1744968787.160457,40.95364477741025,29.14099323588287,92.07828,-1,-1,-1,-1,30,31.71544983042259,-9999,66799.658214625,-0.77862548828125,0.716522216796875,-0.0682220458984375,66799.64813862501,1.162012901828608,-1.432705799387984,-0.6914853972125804,-0.3073723316192627,-1.381682515144348,0.107418417930603,0.005551159381866455,0.09765422344207764,-0.04850757122039795,XArbitraryZVertical,0.1254225874820013,-0.6566981791312706,0.5754777956517494,0.4710011058996081,-0.7629669904708862,0.6376820802688599,-0.1060333549976349,0,0,0,-1,-1,66782.51853550001,unknown,2,2025-04-18T12:32:53.690+03:00,2025-04-17T15:44:39.500+03:00,7653,1.147938,0,0,6301.398,4,10,2025-04-18T12:29:40.242+03:00,766661589.2645069,0,110.88,100.5253,1,0.4,2025-04-18T12:33:02.545+03:00,80,1.333333333333333,2025-04-18T08:51:18.885+03:00,0.03057091307199995,1
2025-04-18T12:33:10.871+03:00,1744968787.160457,40.95364477741025,29.14099323588287,92.07828,-1,-1,-1,-1,30,31.71544983042259,-9999,66799.668289625,-0.8118743896484375,0.7216644287109375,0.0463409423828125,66799.658214625,1.158330318096099,-1.448878691284803,-0.6927256574067048,-0.2631875574588776,-1.354064464569092,0.05735071748495102,-0.01215893030166626,0.07844984531402588,0.01425403356552124,XArbitraryZVertical,0.1284137316398004,-0.6608462175091714,0.5738236981643758,0.4663888815412506,-0.763796329498291,0.6386369466781616,-0.09358438104391098,0,0,0,-1,-1,66782.51853550001,unknown,2,2025-04-18T12:32:53.690+03:00,2025-04-17T15:44:39.500+03:00,7653,1.147938,0,0,6301.398,4,10,2025-04-18T12:29:40.242+03:00,766661589.2645069,0,110.88,100.5253,1,0.4,2025-04-18T12:33:02.545+03:00,80,1.333333333333333,2025-04-18T08:51:18.885+03:00,0.03057091307199995,1
2025-04-18T12:33:10.881+03:00,1744968787.160457,40.95364477741025,29.14099323588287,92.07828,-1,-1,-1,-1,30,31.71544983042259,-9999,66799.678365625,-0.8294219970703125,0.786773681640625,0.174041748046875,66799.668289625,1.155991674602715,-1.463617772805379,-0.6931825646576409,-0.08006864786148071,-1.267351984977722,-0.009115822613239288,-0.04258584976196289,0.07901382446289062,0.1117352917790413,XArbitraryZVertical,0.1316999837164583,-0.6644638768423674,0.5724104623241483,0.4620488617752055,-0.7648024559020996,0.6389884948730469,-0.08228573948144913,0,0,0,-1,-1,66782.51853550001,unknown,2,2025-04-18T12:32:53.690+03:00,2025-04-17T15:44:39.500+03:00,7653,1.147938,0,0,6301.398,4,10,2025-04-18T12:29:40.242+03:00,766661589.2645069,0,110.88,100.5253,1,0.4,2025-04-18T12:33:02.545+03:00,80,1.333333333333333,2025-04-18T08:51:18.885+03:00,0.03057091307199995,1
2025-04-18T12:33:10.892+03:00,1744968787.160457,40.95364477741025,29.14099323588287,92.07828,-1,-1,-1,-1,30,31.71544983042259,-9999,66799.688440625,-0.80999755859375,0.8410491943359375,0.2924041748046875,66799.678365625,1.157211091279749,-1.474968453978437,-0.6927195240339225,0.27744260430336,-1.131896376609802,-0.0648251548409462,-0.06429493427276611,0.1376738548278809,0.2328534126281738,XArbitraryZVertical,0.1355170622533086,-0.666949159729068,0.5718423452065282,0.4580504231133417,-0.7659814953804016,0.6386322379112244,-0.07362788915634155,0,0,0,-1,-1,66782.51853550001,unknown,2,2025-04-18T12:32:53.690+03:00,2025-04-17T15:44:39.500+03:00,7653,1.147938,0,0,6301.398,4,10,2025-04-18T12:29:40.242+03:00,766661589.2645069,0,110.88,100.5253,1,0.4,2025-04-18T12:33:02.545+03:00,80,1.333333333333333,2025-04-18T08:51:18.885+03:00,0.03057091307199995,1
2025-04-18T12:33:10.901+03:00,1744968787.160457,40.95364477741025,29.14099323588287,92.07828,-1,-1,-1,-1,30,31.71544983042259,-9999,66799.69851662501,-0.813507080078125,0.82415771484375,0.4603271484375,66799.688440625,1.162675985487068,-1.481878241034812,-0.6913569892907379,0.5562732815742493,-0.9234272837638855,-0.1263407766819,-0.04507029056549072,0.2007652521133423,0.3440759778022766,XArbitraryZVertical,0.1397988475778699,-0.6680201826354933,0.5723459759751445,0.4545608228809254,-0.7673382163047791,0.6375831961631775,-0.06841063499450684,0,0,0,-1,-1,66782.51853550001,unknown,2,2025-04-18T12:32:53.690+03:00,2025-04-17T15:44:39.500+03:00,7653,1.147938,0,0,6301.398,4,10,2025-04-18T12:29:40.242+03:00,766661589.2645069,0,110.88,100.5253,1,0.4,2025-04-18T12:33:02.545+03:00,80,1.333333333333333,2025-04-18T08:51:18.885+03:00,0.03057091307199995,1
2025-04-18T12:33:10.912+03:00,1744968787.160457,40.95364477741025,29.14099323588287,92.07828,-1,-1,-1,-1,30,31.71544983042259,-9999,66799.70859162501,-0.8312225341796875,0.7269439697265625,0.64556884765625,66799.69851662501,1.170362919563564,-1.484887693766257,-0.6893294137479088,0.6183254718780518,-0.6412656307220459,-0.1679593324661255,-0.04130804538726807,0.1948212385177612,0.5029336810112,XArbitraryZVertical,0.1439431026218151,-0.6679629213389816,0.573475904889294,0.4519196368559684,-0.7688269019126892,0.6360198259353638,-0.06621183454990387,0,0,0,-1,-1,66782.51853550001,unknown,2,2025-04-18T12:32:53.690+03:00,2025-04-17T15:44:39.500+03:00,7653,1.147938,0,0,6301.398,4,10,2025-04-18T12:29:40.242+03:00,766661589.2645069,0,110.88,100.5253,1,0.4,2025-04-18T12:33:02.545+03:00,80,1.333333333333333,2025-04-18T08:51:18.885+03:00,0.03057091307199995,1
2025-04-18T12:33:10.922+03:00,1744968787.160457,40.95364477741025,29.14099323588287,92.07828,-1,-1,-1,-1,30,31.71544983042259,-9999,66799.718667625,-0.807373046875,0.58892822265625,0.8515777587890625,66799.70859162501,1.177139047842863,-1.485461236581623,-0.6871541453477247,0.4282296001911163,-0.3225715160369873,-0.1724996119737625,-0.061087965965271,0.1080918312072754,0.6885388493537903,XArbitraryZVertical,0.1471353539824098,-0.6673880974734703,0.5745359227503934,0.45039181861185,-0.770241379737854,0.6343397498130798,-0.06588862836360931,0,0,0,-1,-1,66782.51853550001,unknown,2,2025-04-18T12:32:53.690+03:00,2025-04-17T15:44:39.500+03:00,7653,1.147938,0,0,6301.398,4,10,2025-04-18T12:29:40.242+03:00,766661589.2645069,0,110.88,100.5253,1,0.4,2025-04-18T12:33:02.545+03:00,80,1.333333333333333,2025-04-18T08:51:18.885+03:00,0.03057091307199995,1
2025-04-18T12:33:10.932+03:00,1744968787.160457,40.95364477741025,29.14099323588287,92.07828,-1,-1,-1,-1,30,31.71544983042259,-9999,66799.728742625,-0.7552032470703125,0.4437408447265625,1.146072387695312,66799.718667625,1.180640148954838,-1.484627959336667,-0.6852739059638694,0.1387117505073547,0.06281771510839462,-0.1391376703977585,-0.04134052991867065,-0.0253564715385437,0.8888223171234131,XArbitraryZVertical,0.1487247285068098,-0.6667566856003581,0.5750177554488243,0.4501899621434285,-0.7713730335235596,0.6328850984573364,-0.0666329562664032,0,0,0,-1,-1,66782.51853550001,unknown,2,2025-04-18T12:32:53.690+03:00,2025-04-17T15:44:39.500+03:00,7653,1.147938,0,0,6301.398,4,10,2025-04-18T12:29:40.242+03:00,766661589.2645069,0,110.88,100.5253,1,0.4,2025-04-18T12:33:02.545+03:00,80,1.333333333333333,2025-04-18T08:51:18.885+03:00,0.03057091307199995,1
2025-04-18T12:33:10.942+03:00,1744968787.160457,40.95364477741025,29.14099323588287,92.07828,-1,-1,-1,-1,30,31.71544983042259,-9999,66799.738818625,-0.7160186767578125,0.3314208984375,1.493682861328125,66799.728742625,1.180566290855937,-1.481439095003455,-0.6845744729467661,-0.1348567306995392,0.601668119430542,0.01530420035123825,0.01019918918609619,-0.1707192659378052,1.174188733100891,XArbitraryZVertical,0.1480291063492637,-0.6659740402413834,0.5751010444632512,0.4514697060655394,-0.7715976238250732,0.6323434114456177,-0.06913192570209503,0,0,0,-1,-1,66782.51853550001,unknown,2,2025-04-18T12:32:53.690+03:00,2025-04-17T15:44:39.500+03:00,7653,1.147938,0,0,6301.398,4,10,2025-04-18T12:29:40.242+03:00,766661589.2645069,0,110.88,100.5253,1,0.4,2025-04-18T12:33:02.545+03:00,80,1.333333333333333,2025-04-18T08:51:18.885+03:00,0.03057091307199995,1
2025-04-18T12:33:10.952+03:00,1744968787.160457,40.95364477741025,29.14099323588287,92.07828,-1,-1,-1,-1,30,31.71544983042259,-9999,66799.748893625,-0.6785888671875,0.313079833984375,1.782455444335938,66799.738818625,1.178175073521294,-1.473561649227427,-0.6858421730245986,-0.2168237715959549,1.309594392776489,0.1997438073158264,0.04990881681442261,-0.2911008596420288,1.525371193885803,XArbitraryZVertical,0.1445214704213254,-0.6644911754074153,0.5753822069864281,0.4544231932037646,-0.7702305912971497,0.6333249807357788,-0.07513004541397095,0,0,0,-1,-1,66782.51853550001,unknown,2,2025-04-18T12:32:53.690+03:00,2025-04-17T15:44:39.500+03:00,7653,1.147938,0,0,6301.398,4,10,2025-04-18T12:29:40.242+03:00,766661589.2645069,0,110.88,100.5253,1,0.4,2025-04-18T12:33:02.545+03:00,80,1.333333333333333,2025-04-18T08:51:18.885+03:00,0.03057091307199995,1
2025-04-18T12:33:10.962+03:00,1744968787.160457,40.95364477741025,29.14099323588287,92.07828,-1,-1,-1,-1,30,31.71544983042259,-9999,66799.75896962501,-0.671783447265625,0.40557861328125,1.95123291015625,66799.748893625,1.176278699432705,-1.457099349780185,-0.6890445199112075,-0.1189237684011459,2.210263013839722,0.4030604958534241,0.08391749858856201,-0.3283964395523071,1.841642737388611,XArbitraryZVertical,0.138018919751013,-0.6611856988769216,0.5767276465479402,0.4595317901173291,-0.7668703198432922,0.6358000040054321,-0.087568499147892,0,0,0,-1,-1,66782.51853550001,unknown,2,2025-04-18T12:32:53.690+03:00,2025-04-17T15:44:39.500+03:00,7653,1.147938,0,0,6301.398,4,10,2025-04-18T12:29:40.242+03:00,766661589.2645069,0,110.88,100.5253,1,0.4,2025-04-18T12:33:02.545+03:00,80,1.333333333333333,2025-04-18T08:51:18.885+03:00,0.03057091307199995,1
2025-04-18T12:33:10.972+03:00,1744968787.160457,40.95364477741025,29.14099323588287,92.07828,-1,-1,-1,-1,30,31.71544983042259,-9999,66799.769045625,-0.6702117919921875,0.4636383056640625,2.053604125976562,66799.75896962501,1.177433709193545,-1.429043658923996,-0.6939685570558785,0.1630751639604568,3.218953609466553,0.5866186022758484,0.08999836444854736,-0.2460992336273193,2.041937112808228,XArbitraryZVertical,0.1285345667604921,-0.6551164163345115,0.5797898192058787,0.4670602031092855,-0.7610036730766296,0.6395928859710693,-0.1086026951670647,0,0,0,-1,-1,66782.51853550001,unknown,2,2025-04-18T12:32:53.690+03:00,2025-04-17T15:44:39.500+03:00,7653,1.147938,0,0,6301.398,4,10,2025-04-18T12:29:40.242+03:00,766661589.2645069,0,110.88,100.5253,1,0.4,2025-04-18T12:33:02.545+03:00,80,1.333333333333333,2025-04-18T08:51:18.885+03:00,0.03057091307199995,1
2025-04-18T12:33:10.983+03:00,1744968787.160457,40.95364477741025,29.14099323588287,92.07828,-1,-1,-1,-1,30,31.71544983042259,-9999,66799.77912062501,-0.653350830078125,0.4764556884765625,2.074234008789062,66799.769045625,1.182829239414904,-1.387940004892774,-0.6998555838373154,0.4303658008575439,4.24355411529541,0.6860601305961609,0.08036857843399048,-0.1851991415023804,2.183452606201172,XArbitraryZVertical,0.1162092704884731,-0.6457149997111207,0.5846409747488041,0.477223840531085,-0.7521826028823853,0.6441072225570679,-0.1390950828790665,0,0,0,-1,-1,66782.51853550001,unknown,2,2025-04-18T12:32:53.690+03:00,2025-04-17T15:44:39.500+03:00,7653,1.147938,0,0,6301.398,4,10,2025-04-18T12:29:40.242+03:00,766661589.2645069,0,110.88,100.5253,1,0.4,2025-04-18T12:33:02.545+03:00,80,1.333333333333333,2025-04-18T08:51:18.885+03:00,0.03057091307199995,1
2025-04-18T12:33:10.992+03:00,1744968787.160457,40.95364477741025,29.14099323588287,92.07828,-1,-1,-1,-1,30,31.71544983042259,-9999,66799.78919604167,-0.6392059326171875,0.3021240234375,1.9013671875,66799.77912062501,1.189557407603631,-1.336059216582841,-0.7060704502765999,0.2221702337265015,5.139740943908691,0.733948290348053,0.08524936437606812,-0.1691123247146606,2.256493330001831,XArbitraryZVertical,0.1008669487799648,-0.633510819144369,0.590142581589804,0.4901243487032063,-0.7400498986244202,0.6488487124443054,-0.1769797950983047,0,0,0,-1,-1,66782.51853550001,unknown,2,2025-04-18T12:32:53.690+03:00,2025-04-17T15:44:39.500+03:00,7653,1.147938,0,0,6301.398,4,10,2025-04-18T12:29:40.242+03:00,766661589.2645069,0,110.88,100.5253,1,0.4,2025-04-18T12:33:02.545+03:00,80,1.333333333333333,2025-04-18T08:51:18.885+03:00,0.03057091307199995,1
2025-04-18T12:33:11.003+03:00,1744968787.160457,40.95364477741025,29.14099323588287,92.07828,-1,-1,-1,-1,30,31.71544983042259,-9999,66799.79927104167,-0.5503997802734375,-0.0331878662109375,1.581329345703125,66799.78919604167,1.190287178863467,-1.28096595979919,-0.7137882953129544,-0.5711902976036072,5.68775749206543,0.788792610168457,0.0805010199546814,-0.3154380321502686,2.152273654937744,XArbitraryZVertical,0.08194876809334152,-0.6207028472151958,0.5940696105121327,0.5050680669169132,-0.7243609428405762,0.6547020077705383,-0.2160247564315796,0,0,0,-1,-1,66782.51853550001,unknown,2,2025-04-18T12:32:53.690+03:00,2025-04-17T15:44:39.500+03:00,7653,1.147938,0,0,6301.398,4,10,2025-04-18T12:29:40.242+03:00,766661589.2645069,0,110.88,100.5253,1,0.4,2025-04-18T12:33:02.545+03:00,80,1.333333333333333,2025-04-18T08:51:18.885+03:00,0.03057091307199995,1
