loggingTime(txt),locationTimestamp_since1970(s),locationLatitude(WGS84),locationLongitude(WGS84),locationAltitude(m),locationSpeed(m/s),locationSpeedAccuracy(m/s),locationCourse(°),locationCourseAccuracy(°),locationVerticalAccuracy(m),locationHorizontalAccuracy(m),locationFloor(Z),accelerometerTimestamp_sinceReboot(s),accelerometerAccelerationX(G),accelerometerAccelerationY(G),accelerometerAccelerationZ(G),motionTimestamp_sinceReboot(s),motionYaw(rad),motionRoll(rad),motionPitch(rad),motionRotationRateX(rad/s),motionRotationRateY(rad/s),motionRotationRateZ(rad/s),motionUserAccelerationX(G),motionUserAccelerationY(G),motionUserAccelerationZ(G),motionAttitudeReferenceFrame(txt),motionQuaternionX(R),motionQuaternionY(R),motionQuaternionZ(R),motionQuaternionW(R),motionGravityX(G),motionGravityY(G),motionGravityZ(G),motionMagneticFieldX(µT),motionMagneticFieldY(µT),motionMagneticFieldZ(µT),motionHeading(°),motionMagneticFieldCalibrationAccuracy(Z),activityTimestamp_sinceReboot(s),activity(txt),activityActivityConfidence(Z),activityActivityStartDate(txt),pedometerStartDate(txt),pedometerNumberofSteps(N),pedometerAverageActivePace(s/m),pedometerCurrentPace(s/m),pedometerCurrentCadence(steps/s),pedometerDistance(m),pedometerFloorAscended(N),pedometerFloorDescended(N),pedometerEndDate(txt),altimeterTimestamp_sinceReboot(s),altimeterReset(bool),altimeterRelativeAltitude(m),altimeterPressure(kPa),batteryState(N),batteryLevel(R),heartRateBPMTimestamp(txt),heartRateBPM(N),heartRateBPS(R),heartRateVariabilityTimestamp(txt),heartRateVariability(ms),label
2025-04-22T13:30:51.852+03:00,1745317846.535418,40.95227273616753,29.14031030331255,76.46297,-1,-1,-1,-1,30,30.83114588979476,-9999,33503.850071375,0.6263275146484375,-0.764923095703125,-0.1016082763671875,33503.839994375,2.986462548229446,1.387809563419773,0.883586498794812,-0.0418427549302578,0.01573910005390644,-0.0132999075576663,-0.01946711540222168,0.001061677932739258,0.0006602853536605835,XArbitraryZVertical,-0.5509314185597987,0.3724998272305976,0.7140426515081173,-0.2187727202101096,0.6237914562225342,-0.7730190753936768,-0.1154369041323662,0,0,0,-1,-1,33499.5285815,unknown,2,2025-04-22T13:30:47.504+03:00,2025-04-21T17:08:51.449+03:00,7448,1.015038,0,0,6201.935,5,20,2025-04-22T13:27:54.669+03:00,767010650.1763785,0,-20.1,100.4436,1,0.65,2025-04-22T13:27:27.892+03:00,96,1.6,2025-04-22T09:54:17.825+03:00,0.02225348692287972,0
2025-04-22T13:30:51.854+03:00,1745317846.535418,40.95227273616753,29.14031030331255,76.46297,-1,-1,-1,-1,30,30.83114588979476,-9999,33503.860147375,0.599151611328125,-0.7532958984375,-0.10772705078125,33503.850071375,2.986803903318257,1.387862277233278,0.8832294833999412,-0.009319967590272427,0.04155818000435829,-0.01080319378525019,0.03190642595291138,0.0169941782951355,0.01207594573497772,XArbitraryZVertical,-0.5510720539857767,0.3722801103787737,0.7140413036087694,-0.2187969547223269,0.6240689158439636,-0.7727925181388855,-0.1154542192816734,0,0,0,-1,-1,33499.5285815,unknown,2,2025-04-22T13:30:47.504+03:00,2025-04-21T17:08:51.449+03:00,7448,1.015038,0,0,6201.935,5,20,2025-04-22T13:27:54.669+03:00,767010650.1763785,0,-20.1,100.4436,1,0.65,2025-04-22T13:27:27.892+03:00,96,1.6,2025-04-22T09:54:17.825+03:00,0.02225348692287972,0
2025-04-22T13:30:51.855+03:00,1745317846.535418,40.95227273616753,29.14031030331255,76.46297,-1,-1,-1,-1,30,30.83114588979476,-9999,33503.870224375,0.6302490234375,-0.7487335205078125,-0.1118316650390625,33503.860147375,2.986813890282775,1.388200807661196,0.8833027631452169,0.007005874998867512,0.02729149349033833,-0.002748263534158468,-0.004301190376281738,0.007214188575744629,0.01307506859302521,XArbitraryZVertical,-0.5511828270638751,0.3722649258925439,0.7139364321789829,-0.2188856698793621,0.624052107334137,-0.7728390097618103,-0.1152326315641403,0,0,0,-1,-1,33499.5285815,unknown,2,2025-04-22T13:30:47.504+03:00,2025-04-21T17:08:51.449+03:00,7448,1.015038,0,0,6201.935,5,20,2025-04-22T13:27:54.669+03:00,767010650.1763785,0,-20.1,100.4436,1,0.65,2025-04-22T13:27:27.892+03:00,96,1.6,2025-04-22T09:54:17.825+03:00,0.02225348692287972,0
2025-04-22T13:30:51.862+03:00,1745317846.535418,40.95227273616753,29.14031030331255,76.46297,-1,-1,-1,-1,30,30.83114588979476,-9999,33503.880300375,0.6396636962890625,-0.76055908203125,-0.11572265625,33503.870224375,2.986766745480852,1.388418150177136,0.883452659933198,0.005375754088163376,0.01612645760178566,0.005418053828179836,-0.02362155914306641,0.0215303897857666,0.006845414638519287,XArbitraryZVertical,-0.5512271572642694,0.372304466179671,0.7138605980474489,-0.2189543511035451,0.6239633560180664,-0.7729341387748718,-0.1150760129094124,0,0,0,-1,-1,33499.5285815,unknown,2,2025-04-22T13:30:47.504+03:00,2025-04-21T17:08:51.449+03:00,7448,1.015038,0,0,6201.935,5,20,2025-04-22T13:27:54.669+03:00,767010650.1763785,0,-20.1,100.4436,1,0.65,2025-04-22T13:27:27.892+03:00,96,1.6,2025-04-22T09:54:17.825+03:00,0.02225348692287972,0
2025-04-22T13:30:51.872+03:00,1745317846.535418,40.95227273616753,29.14031030331255,76.46297,-1,-1,-1,-1,30,30.83114588979476,-9999,33503.890377375,0.621246337890625,-0.767242431640625,-0.11962890625,33503.880300375,2.98681435072487,1.388515233279794,0.8835361992175608,0.004711628425866365,0.02176523208618164,0.007122376933693886,0.01062566041946411,0.02236151695251465,0.00269906222820282,XArbitraryZVertical,-0.5512570260608415,0.3723087662711058,0.7138168846483441,-0.2190145158297507,0.6239110827445984,-0.7729871273040771,-0.1150037497282028,0,0,0,-1,-1,33499.5285815,unknown,2,2025-04-22T13:30:47.504+03:00,2025-04-21T17:08:51.449+03:00,7448,1.015038,0,0,6201.935,5,20,2025-04-22T13:27:54.669+03:00,767010650.1763785,0,-20.1,100.4436,1,0.65,2025-04-22T13:27:27.892+03:00,96,1.6,2025-04-22T09:54:17.825+03:00,0.02225348692287972,0
2025-04-22T13:30:51.881+03:00,1745317846.535418,40.95227273616753,29.14031030331255,76.46297,-1,-1,-1,-1,30,30.83114588979476,-9999,33503.900453375,0.6153106689453125,-0.7722320556640625,-0.1202545166015625,33503.890377375,2.986952119244489,1.388577556652789,0.8836962785725084,-0.005809189286082983,0.02263395860791206,0.007106930483132601,0.01417356729507446,0.01118695735931396,-0.0005360841751098633,XArbitraryZVertical,-0.5512788042130607,0.3723177113471386,0.7137618353508385,-0.2191235621138315,0.6237964034080505,-0.7730886936187744,-0.1149424016475677,0,0,0,-1,-1,33499.5285815,unknown,2,2025-04-22T13:30:47.504+03:00,2025-04-21T17:08:51.449+03:00,7448,1.015038,0,0,6201.935,5,20,2025-04-22T13:27:54.669+03:00,767010650.1763785,0,-20.1,100.4436,1,0.65,2025-04-22T13:27:27.892+03:00,96,1.6,2025-04-22T09:54:17.825+03:00,0.02225348692287972,0
2025-04-22T13:30:51.891+03:00,1745317846.535418,40.95227273616753,29.14031030331255,76.46297,-1,-1,-1,-1,30,30.83114588979476,-9999,33503.910529375,0.6179351806640625,-0.778167724609375,-0.11932373046875,33503.900453375,2.987303568599442,1.388467520098652,0.8839349551976491,-0.01840940304100513,0.02160757407546043,0.005113687831908464,-0.004049777984619141,0.005631387233734131,-0.004788592457771301,XArbitraryZVertical,-0.5512659902908655,0.3723130394112466,0.7137199958287942,-0.2193002552480398,0.6236024498939514,-0.7732400894165039,-0.1149776205420494,0,0,0,-1,-1,33499.5285815,unknown,2,2025-04-22T13:30:47.504+03:00,2025-04-21T17:08:51.449+03:00,7448,1.015038,0,0,6201.935,5,20,2025-04-22T13:27:54.669+03:00,767010650.1763785,0,-20.1,100.4436,1,0.65,2025-04-22T13:27:27.892+03:00,96,1.6,2025-04-22T09:54:17.825+03:00,0.02225348692287972,0
2025-04-22T13:30:51.901+03:00,1745317846.535418,40.95227273616753,29.14031030331255,76.46297,-1,-1,-1,-1,30,30.83114588979476,-9999,33503.920606375,0.6135406494140625,-0.778472900390625,-0.1175537109375,33503.910529375,2.987749622533965,1.38827474907509,0.8841928022214762,-0.01990183815360069,0.02012765593826771,0.002456651534885168,-0.007600367069244385,0.0003933906555175781,-0.005284428596496582,XArbitraryZVertical,-0.5512381768295839,0.3722978235165676,0.7136875603361256,-0.2195012107120999,0.6233839988708496,-0.773403525352478,-0.1150616034865379,0,0,0,-1,-1,33499.5285815,unknown,2,2025-04-22T13:30:47.504+03:00,2025-04-21T17:08:51.449+03:00,7448,1.015038,0,0,6201.935,5,20,2025-04-22T13:27:54.669+03:00,767010650.1763785,0,-20.1,100.4436,1,0.65,2025-04-22T13:27:27.892+03:00,96,1.6,2025-04-22T09:54:17.825+03:00,0.02225348692287972,0
2025-04-22T13:30:51.911+03:00,1745317846.535418,40.95227273616753,29.14031030331255,76.46297,-1,-1,-1,-1,30,30.83114588979476,-9999,33503.930682375,0.6074981689453125,-0.777618408203125,-0.1134490966796875,33503.920606375,2.988051252684695,1.388283499493747,0.8842895998884212,-0.01296643447130919,0.02925191260874271,0.003100470872595906,-0.005208373069763184,-0.00522148609161377,-0.003869175910949707,XArbitraryZVertical,-0.551281657062289,0.3722462306954384,0.7136382894585147,-0.219639609976282,0.6233113408088684,-0.7734649181365967,-0.1150425598025322,0,0,0,-1,-1,33499.5285815,unknown,2,2025-04-22T13:30:47.504+03:00,2025-04-21T17:08:51.449+03:00,7448,1.015038,0,0,6201.935,5,20,2025-04-22T13:27:54.669+03:00,767010650.1763785,0,-20.1,100.4436,1,0.65,2025-04-22T13:27:27.892+03:00,96,1.6,2025-04-22T09:54:17.825+03:00,0.02225348692287972,0
2025-04-22T13:30:51.921+03:00,1745317846.535418,40.95227273616753,29.14031030331255,76.46297,-1,-1,-1,-1,30,30.83114588979476,-9999,33503.940759375,0.6158905029296875,-0.7750091552734375,-0.1134796142578125,33503.930682375,2.988176601496152,1.388572964887712,0.8840612421532246,-0.01482931617647409,0.02985458634793758,0.002875966485589743,-0.01035922765731812,-0.005732595920562744,-0.002293363213539124,XArbitraryZVertical,-0.5514454983626597,0.37210319697293,0.7135771586361863,-0.2196694482089392,0.6235184073448181,-0.7733201384544373,-0.1148941442370415,0,0,0,-1,-1,33499.5285815,unknown,2,2025-04-22T13:30:47.504+03:00,2025-04-21T17:08:51.449+03:00,7448,1.015038,0,0,6201.935,5,20,2025-04-22T13:27:54.669+03:00,767010650.1763785,0,-20.1,100.4436,1,0.65,2025-04-22T13:27:27.892+03:00,96,1.6,2025-04-22T09:54:17.825+03:00,0.02225348692287972,0
2025-04-22T13:30:51.931+03:00,1745317846.535418,40.95227273616753,29.14031030331255,76.46297,-1,-1,-1,-1,30,30.83114588979476,-9999,33503.950835375,0.6236419677734375,-0.7704315185546875,-0.11322021484375,33503.940759375,2.988242108096843,1.388842789893272,0.8840823314681612,-0.003617275040596724,0.02390415221452713,0.001613827887922525,-0.01571482419967651,-0.003445684909820557,0.001533254981040955,XArbitraryZVertical,-0.5515505043986474,0.3720625744476457,0.7134926219782551,-0.2197493302999758,0.6235334277153015,-0.7733334898948669,-0.1147229671478271,0,0,0,-1,-1,33499.5285815,unknown,2,2025-04-22T13:30:47.504+03:00,2025-04-21T17:08:51.449+03:00,7448,1.015038,0,0,6201.935,5,20,2025-04-22T13:27:54.669+03:00,767010650.1763785,0,-20.1,100.4436,1,0.65,2025-04-22T13:27:27.892+03:00,96,1.6,2025-04-22T09:54:17.825+03:00,0.02225348692287972,0
2025-04-22T13:30:51.941+03:00,1745317846.535418,40.95227273616753,29.14031030331255,76.46297,-1,-1,-1,-1,30,30.83114588979476,-9999,33503.96091237501,0.6240234375,-0.768829345703125,-0.111175537109375,33503.950835375,2.988170105527146,1.389121117040824,0.8841635904037584,0.009463906288146973,0.01918289996683598,0.005937203764915466,-0.006392180919647217,-0.001349329948425293,0.001226313412189484,XArbitraryZVertical,-0.5516231640157938,0.372079127920844,0.7134120874618634,-0.2197999904501448,0.6235032677650452,-0.7733850479125977,-0.1145380139350891,0,0,0,-1,-1,33499.5285815,unknown,2,2025-04-22T13:30:47.504+03:00,2025-04-21T17:08:51.449+03:00,7448,1.015038,0,0,6201.935,5,20,2025-04-22T13:27:54.669+03:00,767010650.1763785,0,-20.1,100.4436,1,0.65,2025-04-22T13:27:27.892+03:00,96,1.6,2025-04-22T09:54:17.825+03:00,0.02225348692287972,0
2025-04-22T13:30:51.951+03:00,1745317846.535418,40.95227273616753,29.14031030331255,76.46297,-1,-1,-1,-1,30,30.83114588979476,-9999,33503.970988375,0.62286376953125,-0.765289306640625,-0.1114501953125,33503.96091237501,2.987940858400636,1.38953190925385,0.8840985796343366,0.01969783380627632,0.02207289636135101,0.005515591707080603,0.0009577274322509766,0.003599166870117188,0.001482740044593811,XArbitraryZVertical,-0.5517376523671447,0.3720753961665999,0.713333124004387,-0.2197751071200972,0.623599648475647,-0.7733438014984131,-0.1142909228801727,0,0,0,-1,-1,33499.5285815,unknown,2,2025-04-22T13:30:47.504+03:00,2025-04-21T17:08:51.449+03:00,7448,1.015038,0,0,6201.935,5,20,2025-04-22T13:27:54.669+03:00,767010650.1763785,0,-20.1,100.4436,1,0.65,2025-04-22T13:27:27.892+03:00,96,1.6,2025-04-22T09:54:17.825+03:00,0.02225348692287972,0
2025-04-22T13:30:51.961+03:00,1745317846.535418,40.95227273616753,29.14031030331255,76.46297,-1,-1,-1,-1,30,30.83114588979476,-9999,33503.981064375,0.6270599365234375,-0.764678955078125,-0.1140899658203125,33503.970988375,2.98762708198386,1.389986290371024,0.8840861924374964,0.02202277444303036,0.01812875457108021,0.01024829503148794,0.0001028180122375488,0.004506707191467285,0.002742230892181396,XArbitraryZVertical,-0.5518433281908014,0.3721078835746879,0.7132441670888675,-0.2197438946743795,0.6236612200737,-0.7733359336853027,-0.114009328186512,0,0,0,-1,-1,33499.5285815,unknown,2,2025-04-22T13:30:47.504+03:00,2025-04-21T17:08:51.449+03:00,7448,1.015038,0,0,6201.935,5,20,2025-04-22T13:27:54.669+03:00,767010650.1763785,0,-20.1,100.4436,1,0.65,2025-04-22T13:27:27.892+03:00,96,1.6,2025-04-22T09:54:17.825+03:00,0.02225348692287972,0
2025-04-22T13:30:51.971+03:00,1745317846.535418,40.95227273616753,29.14031030331255,76.46297,-1,-1,-1,-1,30,30.83114588979476,-9999,33503.991141375,0.6246185302734375,-0.7685699462890625,-0.113250732421875,33503.981064375,2.987438469417349,1.390266763347575,0.8842046715221338,0.01402796432375908,0.01617931947112083,0.009352807886898518,-0.0005866885185241699,0.008472681045532227,0.001742169260978699,XArbitraryZVertical,-0.5518888968582712,0.3721688632702654,0.7131707861235249,-0.2197644752789447,0.6236031055450439,-0.7734110951423645,-0.1138179674744606,0,0,0,-1,-1,33499.5285815,unknown,2,2025-04-22T13:30:47.504+03:00,2025-04-21T17:08:51.449+03:00,7448,1.015038,0,0,6201.935,5,20,2025-04-22T13:27:54.669+03:00,767010650.1763785,0,-20.1,100.4436,1,0.65,2025-04-22T13:27:27.892+03:00,96,1.6,2025-04-22T09:54:17.825+03:00,0.02225348692287972,0
2025-04-22T13:30:51.981+03:00,1745317846.535418,40.95227273616753,29.14031030331255,76.46297,-1,-1,-1,-1,30,30.83114588979476,-9999,33504.001217375,0.6156463623046875,-0.770355224609375,-0.1152801513671875,33503.991141375,2.987315319608795,1.390516179280812,0.8843372240174657,0.0122236730530858,0.02368437498807907,0.006513078697025776,0.004246532917022705,0.008511066436767578,-0.001010477542877197,XArbitraryZVertical,-0.5519332659300987,0.3722199027070643,0.7130966786175591,-0.2198069498757651,0.6235305070877075,-0.773495078086853,-0.1136440262198448,0,0,0,-1,-1,33499.5285815,unknown,2,2025-04-22T13:30:47.504+03:00,2025-04-21T17:08:51.449+03:00,7448,1.015038,0,0,6201.935,5,20,2025-04-22T13:27:54.669+03:00,767010650.1763785,0,-20.1,100.4436,1,0.65,2025-04-22T13:27:27.892+03:00,96,1.6,2025-04-22T09:54:17.825+03:00,0.02225348692287972,0
2025-04-22T13:30:51.991+03:00,1745317846.535418,40.95227273616753,29.14031030331255,76.46297,-1,-1,-1,-1,30,30.83114588979476,-9999,33504.011294375,0.6166839599609375,-0.7703704833984375,-0.116607666015625,33504.001217375,2.987211649011901,1.390800684249255,0.8844570980069187,0.008078929036855698,0.02470243349671364,0.005124473478645086,7.88569450378418e-05,0.003948330879211426,0.0003671646118164062,XArbitraryZVertical,-0.5519958220155005,0.3722574464016856,0.7130125428338386,-0.2198590934800231,0.6234714984893799,-0.7735710740089417,-0.1134500131011009,0,0,0,-1,-1,33499.5285815,unknown,2,2025-04-22T13:30:47.504+03:00,2025-04-21T17:08:51.449+03:00,7448,1.015038,0,0,6201.935,5,20,2025-04-22T13:27:54.669+03:00,767010650.1763785,0,-20.1,100.4436,1,0.65,2025-04-22T13:27:27.892+03:00,96,1.6,2025-04-22T09:54:17.825+03:00,0.02225348692287972,0
2025-04-22T13:30:52.002+03:00,1745317846.535418,40.95227273616753,29.14031030331255,76.46297,-1,-1,-1,-1,30,30.83114588979476,-9999,33504.02137037501,0.62030029296875,-0.772552490234375,-0.1158905029296875,33504.011294375,2.987201380984172,1.391017189152806,0.8845970438614907,0.002310522366315126,0.0232696533203125,0.006609984673559666,-0.008323132991790771,0.003045201301574707,-0.001816630363464355,XArbitraryZVertical,-0.5520482083289531,0.3722834062453663,0.7129341791535991,-0.2199378636334775,0.6233896613121033,-0.7736597657203674,-0.1132956817746162,0,0,0,-1,-1,33499.5285815,unknown,2,2025-04-22T13:30:47.504+03:00,2025-04-21T17:08:51.449+03:00,7448,1.015038,0,0,6201.935,5,20,2025-04-22T13:27:54.669+03:00,767010650.1763785,0,-20.1,100.4436,1,0.65,2025-04-22T13:27:27.892+03:00,96,1.6,2025-04-22T09:54:17.825+03:00,0.02225348692287972,0
2025-04-22T13:30:52.012+03:00,1745317846.535418,40.95227273616753,29.14031030331255,76.46297,-1,-1,-1,-1,30,30.83114588979476,-9999,33504.031446375,0.6253509521484375,-0.777252197265625,-0.1121978759765625,33504.02137037501,2.987253601223218,1.391189445153812,0.8847653349846998,-0.005930230487138033,0.02333876304328442,0.00550750270485878,-0.006413936614990234,0.003380715847015381,-0.004052996635437012,XArbitraryZVertical,-0.552091819821499,0.3723064714991228,0.71285703712118,-0.2200392850076869,0.6232810020446777,-0.7737663388252258,-0.1131650283932686,0,0,0,-1,-1,33499.5285815,unknown,2,2025-04-22T13:30:47.504+03:00,2025-04-21T17:08:51.449+03:00,7448,1.015038,0,0,6201.935,5,20,2025-04-22T13:27:54.669+03:00,767010650.1763785,0,-20.1,100.4436,1,0.65,2025-04-22T13:27:27.892+03:00,96,1.6,2025-04-22T09:54:17.825+03:00,0.02225348692287972,0
2025-04-22T13:30:52.022+03:00,1745317846.535418,40.95227273616753,29.14031030331255,76.46297,-1,-1,-1,-1,30,30.83114588979476,-9999,33504.041523375,0.62506103515625,-0.7756195068359375,-0.11090087890625,33504.031446375,2.987424803272173,1.391249823960442,0.8848383560817827,-0.01287255901843309,0.01689551025629044,0.005579407792538404,-0.00320667028427124,9.000301361083984e-06,-0.002284884452819824,XArbitraryZVertical,-0.5521332679271571,0.3722770483883133,0.7128112093018014,-0.2201335416919087,0.6232322454452515,-0.7738125920295715,-0.1131173074245453,0,0,0,-1,-1,33499.5285815,unknown,2,2025-04-22T13:30:47.504+03:00,2025-04-21T17:08:51.449+03:00,7448,1.015038,0,0,6201.935,5,20,2025-04-22T13:27:54.669+03:00,767010650.1763785,0,-20.1,100.4436,1,0.65,2025-04-22T13:27:27.892+03:00,96,1.6,2025-04-22T09:54:17.825+03:00,0.02225348692287972,0
2025-04-22T13:30:52.032+03:00,1745317846.535418,40.95227273616753,29.14031030331255,76.46297,-1,-1,-1,-1,30,30.83114588979476,-9999,33504.051599375,0.625030517578125,-0.77154541015625,-0.1148529052734375,33504.041523375,2.987651308353174,1.391229305046164,0.8848305685619743,-0.01296423748135567,0.01010251976549625,0.004255516920238733,0.002389788627624512,-0.003307044506072998,0.001513130962848663,XArbitraryZVertical,-0.5521693927121278,0.3722141628101278,0.7127929857220898,-0.2202081383050358,0.6232357621192932,-0.7738077044487,-0.113131158053875,0,0,0,-1,-1,33499.5285815,unknown,2,2025-04-22T13:30:47.504+03:00,2025-04-21T17:08:51.449+03:00,7448,1.015038,0,0,6201.935,5,20,2025-04-22T13:27:54.669+03:00,767010650.1763785,0,-20.1,100.4436,1,0.65,2025-04-22T13:27:27.892+03:00,96,1.6,2025-04-22T09:54:17.825+03:00,0.02225348692287972,0
2025-04-22T13:30:52.042+03:00,1745317846.535418,40.95227273616753,29.14031030331255,76.46297,-1,-1,-1,-1,30,30.83114588979476,-9999,33504.061676375,0.6246795654296875,-0.7688140869140625,-0.11395263671875,33504.051599375,2.98776444060453,1.391270703791459,0.8848333413283261,-0.003300957847386599,0.01406397111713886,0.002772669075056911,0.002509355545043945,-0.0007570385932922363,0.001746311783790588,XArbitraryZVertical,-0.5522047570301971,0.3721792976394189,0.7127686280492197,-0.2202570471960235,0.623238205909729,-0.7738094329833984,-0.1131049543619156,0,0,0,-1,-1,33499.5285815,unknown,2,2025-04-22T13:30:47.504+03:00,2025-04-21T17:08:51.449+03:00,7448,1.015038,0,0,6201.935,5,20,2025-04-22T13:27:54.669+03:00,767010650.1763785,0,-20.1,100.4436,1,0.65,2025-04-22T13:27:27.892+03:00,96,1.6,2025-04-22T09:54:17.825+03:00,0.02225348692287972,0
2025-04-22T13:30:52.052+03:00,1745317846.535418,40.95227273616753,29.14031030331255,76.46297,-1,-1,-1,-1,30,30.83114588979476,-9999,33504.071752375,0.622894287109375,-0.77142333984375,-0.1119384765625,33504.061676375,2.987714772748461,1.391466402273711,0.8848176220246922,0.00740501657128334,0.01745504140853882,-0.001312719890847802,0.002139627933502197,0.002834081649780273,-0.00165412575006485,XArbitraryZVertical,-0.5522678308595014,0.3721661880532449,0.7127222434538868,-0.2202710547617417,0.6232722401618958,-0.7737994790077209,-0.1129851415753365,0,0,0,-1,-1,33499.5285815,unknown,2,2025-04-22T13:30:47.504+03:00,2025-04-21T17:08:51.449+03:00,7448,1.015038,0,0,6201.935,5,20,2025-04-22T13:27:54.669+03:00,767010650.1763785,0,-20.1,100.4436,1,0.65,2025-04-22T13:27:27.892+03:00,96,1.6,2025-04-22T09:54:17.825+03:00,0.02225348692287972,0
2025-04-22T13:30:52.062+03:00,1745317846.535418,40.95227273616753,29.14031030331255,76.46297,-1,-1,-1,-1,30,30.83114588979476,-9999,33504.08182937501,0.622711181640625,-0.7698211669921875,-0.1147613525390625,33504.071752375,2.987571424030184,1.391744176910804,0.8847605285324671,0.01235210429877043,0.01718313246965408,-0.00147330854088068,0.0005540847778320312,0.005346119403839111,-0.0006749555468559265,XArbitraryZVertical,-0.5523494618626155,0.3721560437972716,0.7126695005461604,-0.22025438898553,0.6233472228050232,-0.7737632989883423,-0.1128199025988579,0,0,0,-1,-1,33499.5285815,unknown,2,2025-04-22T13:30:47.504+03:00,2025-04-21T17:08:51.449+03:00,7448,1.015038,0,0,6201.935,5,20,2025-04-22T13:27:54.669+03:00,767010650.1763785,0,-20.1,100.4436,1,0.65,2025-04-22T13:27:27.892+03:00,96,1.6,2025-04-22T09:54:17.825+03:00,0.02225348692287972,0
2025-04-22T13:30:52.072+03:00,1745317846.535418,40.95227273616753,29.14031030331255,76.46297,-1,-1,-1,-1,30,30.83114588979476,-9999,33504.091905375,0.6236419677734375,-0.7684326171875,-0.1136322021484375,33504.08182937501,2.987359273006076,1.39207683006093,0.8847397383062506,0.01199763733893633,0.01428055297583342,-0.003589456202462316,0.0001955628395080566,0.00197601318359375,0.0009515956044197083,XArbitraryZVertical,-0.5524319156239559,0.3721710376148748,0.7126039175945581,-0.22023443450821,0.6234005093574524,-0.7737501263618469,-0.1126153916120529,0,0,0,-1,-1,33499.5285815,unknown,2,2025-04-22T13:30:47.504+03:00,2025-04-21T17:08:51.449+03:00,7448,1.015038,0,0,6201.935,5,20,2025-04-22T13:27:54.669+03:00,767010650.1763785,0,-20.1,100.4436,1,0.65,2025-04-22T13:27:27.892+03:00,96,1.6,2025-04-22T09:54:17.825+03:00,0.02225348692287972,0
2025-04-22T13:30:52.082+03:00,1745317846.535418,40.95227273616753,29.14031030331255,76.46297,-1,-1,-1,-1,30,30.83114588979476,-9999,33504.101981375,0.6249847412109375,-0.774078369140625,-0.1125335693359375,33504.091905375,2.987223947158725,1.392330551812641,0.8847339033644394,0.009241797961294651,0.01741296239197254,-0.008342932909727097,-0.0004935860633850098,0.003955960273742676,-0.002516917884349823,XArbitraryZVertical,-0.5524980862115967,0.3721785245087794,0.7125495541438481,-0.2202316769948361,0.623433530330658,-0.7737464308738708,-0.1124580204486847,0,0,0,-1,-1,33499.5285815,unknown,2,2025-04-22T13:30:47.504+03:00,2025-04-21T17:08:51.449+03:00,7448,1.015038,0,0,6201.935,5,20,2025-04-22T13:27:54.669+03:00,767010650.1763785,0,-20.1,100.4436,1,0.65,2025-04-22T13:27:27.892+03:00,96,1.6,2025-04-22T09:54:17.825+03:00,0.02225348692287972,0
2025-04-22T13:30:52.092+03:00,1745317846.535418,40.95227273616753,29.14031030331255,76.46297,-1,-1,-1,-1,30,30.83114588979476,-9999,33504.112058375,0.62579345703125,-0.773956298828125,-0.1133880615234375,33504.101981375,2.98712830165203,1.392539832732567,0.8846820787901807,0.01008408982306719,0.01670742407441139,-0.007411924656480551,0.0006030797958374023,0.00473177433013916,-0.001007616519927979,XArbitraryZVertical,-0.5525633203763864,0.3721645382207593,0.712509639157864,-0.2202208880077892,0.6234965920448303,-0.7737135887145996,-0.112334668636322,0,0,0,-1,-1,33499.5285815,unknown,2,2025-04-22T13:30:47.504+03:00,2025-04-21T17:08:51.449+03:00,7448,1.015038,0,0,6201.935,5,20,2025-04-22T13:27:54.669+03:00,767010650.1763785,0,-20.1,100.4436,1,0.65,2025-04-22T13:27:27.892+03:00,96,1.6,2025-04-22T09:54:17.825+03:00,0.02225348692287972,0
2025-04-22T13:30:52.103+03:00,1745317846.535418,40.95227273616753,29.14031030331255,76.46297,-1,-1,-1,-1,30,30.83114588979476,-9999,33504.122134375,0.62451171875,-0.7775726318359375,-0.11041259765625,33504.112058375,2.987019433930955,1.39276686694448,0.8846512858604477,0.004914095159620047,0.01527810655534267,-0.005042776465415955,0.001347541809082031,-6.383657455444336e-05,-0.000793948769569397,XArbitraryZVertical,-0.5526289684646829,0.3721593038297516,0.7124633428207602,-0.2202150028578338,0.6235456466674805,-0.7736940979957581,-0.1121973544359207,0,0,0,-1,-1,33499.5285815,unknown,2,2025-04-22T13:30:47.504+03:00,2025-04-21T17:08:51.449+03:00,7448,1.015038,0,0,6201.935,5,20,2025-04-22T13:27:54.669+03:00,767010650.1763785,0,-20.1,100.4436,1,0.65,2025-04-22T13:27:27.892+03:00,96,1.6,2025-04-22T09:54:17.825+03:00,0.02225348692287972,0
2025-04-22T13:30:52.112+03:00,1745317846.535418,40.95227273616753,29.14031030331255,76.46297,-1,-1,-1,-1,30,30.83114588979476,-9999,33504.132211375,0.62310791015625,-0.7723236083984375,-0.1109771728515625,33504.122134375,2.986957106447107,1.39295493909406,0.8846079917037336,0.0002407800639048219,0.0114066693931818,-0.005101365968585014,0.001720786094665527,-0.0009761452674865723,-0.001179993152618408,XArbitraryZVertical,-0.5526914554669884,0.3721413138201177,0.7124243197612066,-0.2202147561894295,0.623599648475647,-0.7736666798591614,-0.1120859980583191,0,0,0,-1,-1,33499.5285815,unknown,2,2025-04-22T13:30:47.504+03:00,2025-04-21T17:08:51.449+03:00,7448,1.015038,0,0,6201.935,5,20,2025-04-22T13:27:54.669+03:00,767010650.1763785,0,-20.1,100.4436,1,0.65,2025-04-22T13:27:27.892+03:00,96,1.6,2025-04-22T09:54:17.825+03:00,0.02225348692287972,0
2025-04-22T13:30:52.123+03:00,1745317846.535418,40.95227273616753,29.14031030331255,76.46297,-1,-1,-1,-1,30,30.83114588979476,-9999,33504.14228737501,0.6211700439453125,-0.769012451171875,-0.1114349365234375,33504.132211375,2.986909146621873,1.393112366825574,0.8845814050229377,0.004291447810828686,0.0129020344465971,-0.001118875108659267,0.0008131861686706543,-0.004029512405395508,0.001182138919830322,XArbitraryZVertical,-0.5527429630775146,0.3721283270580603,0.7123898199434843,-0.2202189624967151,0.6236374974250793,-0.7736498117446899,-0.1119914501905441,0,0,0,-1,-1,33499.5285815,unknown,2,2025-04-22T13:30:47.504+03:00,2025-04-21T17:08:51.449+03:00,7448,1.015038,0,0,6201.935,5,20,2025-04-22T13:27:54.669+03:00,767010650.1763785,0,-20.1,100.4436,1,0.65,2025-04-22T13:27:27.892+03:00,96,1.6,2025-04-22T09:54:17.825+03:00,0.02225348692287972,0
2025-04-22T13:30:52.132+03:00,1745317846.535418,40.95227273616753,29.14031030331255,76.46297,-1,-1,-1,-1,30,30.83114588979476,-9999,33504.152364375,0.61688232421875,-0.771636962890625,-0.1107940673828125,33504.14228737501,2.986846742069457,1.39327557664033,0.8845553777758138,0.006361323408782482,0.01323952339589596,0.0009997028391808271,-0.001132190227508545,0.00217968225479126,0.0009465962648391724,XArbitraryZVertical,-0.5527937553892728,0.3721188842579852,0.7123551774548799,-0.2202193006179821,0.6236754655838013,-0.7736333608627319,-0.1118931993842125,0,0,0,-1,-1,33499.5285815,unknown,2,2025-04-22T13:30:47.504+03:00,2025-04-21T17:08:51.449+03:00,7448,1.015038,0,0,6201.935,5,20,2025-04-22T13:27:54.669+03:00,767010650.1763785,0,-20.1,100.4436,1,0.65,2025-04-22T13:27:27.892+03:00,96,1.6,2025-04-22T09:54:17.825+03:00,0.02225348692287972,0
2025-04-22T13:30:52.143+03:00,1745317846.535418,40.95227273616753,29.14031030331255,76.46297,-1,-1,-1,-1,30,30.83114588979476,-9999,33504.162440375,0.6146240234375,-0.7709197998046875,-0.1121673583984375,33504.152364375,2.986718586932331,1.393504593233128,0.8845541731772286,0.01385466009378433,0.0163881778717041,0.003875384340062737,-0.002928674221038818,0.00407099723815918,0.0001630410552024841,XArbitraryZVertical,-0.5528516865742704,0.372128686193441,0.7123060672656484,-0.2202159609309098,0.6237018704414368,-0.7736325860023499,-0.1117505058646202,0,0,0,-1,-1,33499.5285815,unknown,2,2025-04-22T13:30:47.504+03:00,2025-04-21T17:08:51.449+03:00,7448,1.015038,0,0,6201.935,5,20,2025-04-22T13:27:54.669+03:00,767010650.1763785,0,-20.1,100.4436,1,0.65,2025-04-22T13:27:27.892+03:00,96,1.6,2025-04-22T09:54:17.825+03:00,0.02225348692287972,0
2025-04-22T13:30:52.153+03:00,1745317846.535418,40.95227273616753,29.14031030331255,76.46297,-1,-1,-1,-1,30,30.83114588979476,-9999,33504.172516375,0.6227569580078125,-0.7689971923828125,-0.115081787109375,33504.162440375,2.986508346054466,1.393807195269996,0.8846242701729221,0.01515914313495159,0.01228351518511772,0.006531121674925089,-0.00681537389755249,0.001704514026641846,0.000865057110786438,XArbitraryZVertical,-0.5529088438092289,0.3721769608199606,0.7122357500414047,-0.22021850057569,0.6236823797225952,-0.7736769914627075,-0.1115522384643555,0,0,0,-1,-1,33499.5285815,unknown,2,2025-04-22T13:30:47.504+03:00,2025-04-21T17:08:51.449+03:00,7448,1.015038,0,0,6201.935,5,20,2025-04-22T13:27:54.669+03:00,767010650.1763785,0,-20.1,100.4436,1,0.65,2025-04-22T13:27:27.892+03:00,96,1.6,2025-04-22T09:54:17.825+03:00,0.02225348692287972,0
2025-04-22T13:30:52.163+03:00,1745317846.535418,40.95227273616753,29.14031030331255,76.46297,-1,-1,-1,-1,30,30.83114588979476,-9999,33504.182593375,0.6305694580078125,-0.7721099853515625,-0.1148834228515625,33504.172516375,2.986309657130957,1.3940347802574,0.8847072797420398,0.01590242981910706,0.005889531224966049,0.008639547042548656,-0.008150875568389893,0.00322192907333374,-0.001134507358074188,XArbitraryZVertical,-0.55293930946348,0.3722346242738859,0.7121830155704364,-0.2202151472248104,0.6236445903778076,-0.7737295627593994,-0.1113990098237991,0,0,0,-1,-1,33499.5285815,unknown,2,2025-04-22T13:30:47.504+03:00,2025-04-21T17:08:51.449+03:00,7448,1.015038,0,0,6201.935,5,20,2025-04-22T13:27:54.669+03:00,767010650.1763785,0,-20.1,100.4436,1,0.65,2025-04-22T13:27:27.892+03:00,96,1.6,2025-04-22T09:54:17.825+03:00,0.02225348692287972,0
2025-04-22T13:30:52.173+03:00,1745317846.535418,40.95227273616753,29.14031030331255,76.46297,-1,-1,-1,-1,30,30.83114588979476,-9999,33504.192669375,0.633026123046875,-0.777130126953125,-0.1157684326171875,33504.182593375,2.98617344720736,1.394159639572769,0.8848037231449485,0.008882604539394379,8.57044942677021e-05,0.01146595925092697,0.0005756020545959473,0.004701912403106689,-0.003514304757118225,XArbitraryZVertical,-0.552942593299274,0.3722908218646526,0.7121500338958545,-0.2202189090540354,0.6235852241516113,-0.7737906575202942,-0.1113080680370331,0,0,0,-1,-1,33499.5285815,unknown,2,2025-04-22T13:30:47.504+03:00,2025-04-21T17:08:51.449+03:00,7448,1.015038,0,0,6201.935,5,20,2025-04-22T13:27:54.669+03:00,767010650.1763785,0,-20.1,100.4436,1,0.65,2025-04-22T13:27:27.892+03:00,96,1.6,2025-04-22T09:54:17.825+03:00,0.02225348692287972,0
2025-04-22T13:30:52.183+03:00,1745317846.535418,40.95227273616753,29.14031030331255,76.46297,-1,-1,-1,-1,30,30.83114588979476,-9999,33504.20274637501,0.631591796875,-0.7783660888671875,-0.1190185546875,33504.192669375,2.986080099650868,1.394212493614088,0.8849158265369208,0.007153680548071861,-0.003952979575842619,0.01079644076526165,0.007933676242828369,0.0005463957786560059,-0.004142396152019501,XArbitraryZVertical,-0.5529256808939201,0.3723483306500327,0.7121297108682284,-0.2202294707383881,0.6235054731369019,-0.7738617062568665,-0.111259825527668,0,0,0,-1,-1,33499.5285815,unknown,2,2025-04-22T13:30:47.504+03:00,2025-04-21T17:08:51.449+03:00,7448,1.015038,0,0,6201.935,5,20,2025-04-22T13:27:54.669+03:00,767010650.1763785,0,-20.1,100.4436,1,0.65,2025-04-22T13:27:27.892+03:00,96,1.6,2025-04-22T09:54:17.825+03:00,0.02225348692287972,0
2025-04-22T13:30:52.193+03:00,1745317846.535418,40.95227273616753,29.14031030331255,76.46297,-1,-1,-1,-1,30,30.83114588979476,-9999,33504.212822375,0.6312408447265625,-0.78033447265625,-0.1184234619140625,33504.20274637501,2.986054006595269,1.394161907210563,0.8850304089749232,0.001572493813000619,-0.007020141463726759,0.01339834928512573,0.009964466094970703,-0.003546655178070068,-0.005194529891014099,XArbitraryZVertical,-0.5528840256521784,0.3723994665466004,0.7121303987585861,-0.2202453606350062,0.623412549495697,-0.7739342451095581,-0.1112757846713066,0,0,0,-1,-1,33499.5285815,unknown,2,2025-04-22T13:30:47.504+03:00,2025-04-21T17:08:51.449+03:00,7448,1.015038,0,0,6201.935,5,20,2025-04-22T13:27:54.669+03:00,767010650.1763785,0,-20.1,100.4436,1,0.65,2025-04-22T13:27:27.892+03:00,96,1.6,2025-04-22T09:54:17.825+03:00,0.02225348692287972,0
2025-04-22T13:30:52.203+03:00,1745317846.535418,40.95227273616753,29.14031030331255,76.46297,-1,-1,-1,-1,30,30.83114588979476,-9999,33504.222898375,0.627349853515625,-0.7830963134765625,-0.11553955078125,33504.212822375,2.986107945229702,1.394017408872057,0.8851387531561511,-0.006708871573209763,-0.0116492472589016,0.009025971405208111,0.008689701557159424,-0.004378437995910645,-0.008140444755554199,XArbitraryZVertical,-0.5528248410450858,0.3724367361978883,0.712149221549966,-0.2202702999170029,0.6233140826225281,-0.7740028500556946,-0.1113511472940445,0,0,0,-1,-1,33499.5285815,unknown,2,2025-04-22T13:30:47.504+03:00,2025-04-21T17:08:51.449+03:00,7448,1.015038,0,0,6201.935,5,20,2025-04-22T13:27:54.669+03:00,767010650.1763785,0,-20.1,100.4436,1,0.65,2025-04-22T13:27:27.892+03:00,96,1.6,2025-04-22T09:54:17.825+03:00,0.02225348692287972,0
2025-04-22T13:30:52.213+03:00,1745317846.535418,40.95227273616753,29.14031030331255,76.46297,-1,-1,-1,-1,30,30.83114588979476,-9999,33504.232975375,0.6246337890625,-0.780029296875,-0.1133575439453125,33504.222898375,2.986306173824968,1.393728930409167,0.8851758249039179,-0.0135163115337491,-0.01781619712710381,0.003748318180441856,0.007651448249816895,-0.007574558258056641,-0.006806015968322754,XArbitraryZVertical,-0.5527529522914295,0.3724261305851612,0.7122018992207431,-0.22029835135094,0.6232537031173706,-0.7740263342857361,-0.1115259006619453,0,0,0,-1,-1,33499.5285815,unknown,2,2025-04-22T13:30:47.504+03:00,2025-04-21T17:08:51.449+03:00,7448,1.015038,0,0,6201.935,5,20,2025-04-22T13:27:54.669+03:00,767010650.1763785,0,-20.1,100.4436,1,0.65,2025-04-22T13:27:27.892+03:00,96,1.6,2025-04-22T09:54:17.825+03:00,0.02225348692287972,0
2025-04-22T13:30:52.250+03:00,1745317846.535418,40.95227273616753,29.14031030331255,76.46297,-1,-1,-1,-1,30,30.83114588979476,-9999,33504.243051375,0.6229248046875,-0.7741241455078125,-0.11346435546875,33504.232975375,2.986542099633112,1.393335863206097,0.8851965779577158,-0.01426039822399616,-0.02354465797543526,0.006444768980145454,0.003133475780487061,-0.00911790132522583,-0.002901747822761536,XArbitraryZVertical,-0.5526534950609663,0.3724111794155207,0.7122816737280823,-0.2203153953887798,0.6231940984725952,-0.7740394473075867,-0.111768051981926,0,0,0,-1,-1,33499.5285815,unknown,2,2025-04-22T13:30:47.504+03:00,2025-04-21T17:08:51.449+03:00,7448,1.015038,0,0,6201.935,5,20,2025-04-22T13:27:54.669+03:00,767010650.1763785,0,-20.1,100.4436,1,0.65,2025-04-22T13:27:27.892+03:00,96,1.6,2025-04-22T09:54:17.825+03:00,0.02225348692287972,0
2025-04-22T13:30:52.252+03:00,1745317846.535418,40.95227273616753,29.14031030331255,76.46297,-1,-1,-1,-1,30,30.83114588979476,-9999,33504.253128375,0.6192169189453125,-0.773895263671875,-0.1119842529296875,33504.243051375,2.986780675097169,1.392908597079797,0.8852611031332792,-0.01260657515376806,-0.02383227832615376,0.007820158265531063,0.001353740692138672,-0.004850208759307861,-0.001789860427379608,XArbitraryZVertical,-0.5525351927762305,0.3724139378798291,0.7123641732709405,-0.2203403727574671,0.6230968832969666,-0.7740803360939026,-0.1120254397392273,0,0,0,-1,-1,33499.5285815,unknown,2,2025-04-22T13:30:47.504+03:00,2025-04-21T17:08:51.449+03:00,7448,1.015038,0,0,6201.935,5,20,2025-04-22T13:27:54.669+03:00,767010650.1763785,0,-20.1,100.4436,1,0.65,2025-04-22T13:27:27.892+03:00,96,1.6,2025-04-22T09:54:17.825+03:00,0.02225348692287972,0
2025-04-22T13:30:52.255+03:00,1745317846.535418,40.95227273616753,29.14031030331255,76.46297,-1,-1,-1,-1,30,30.83114588979476,-9999,33504.26320437501,0.61700439453125,-0.775665283203125,-0.1106109619140625,33504.253128375,2.987081394400677,1.392443752925052,0.8853316459069738,-0.01831825822591782,-0.02197978459298611,0.008343469351530075,-0.0002647638320922852,0.001175820827484131,-0.001052141189575195,XArbitraryZVertical,-0.552414045599117,0.3724057167629984,0.7124495749934756,-0.2203821437109842,0.622991144657135,-0.7741249799728394,-0.1123054102063179,0,0,0,-1,-1,33499.5285815,unknown,2,2025-04-22T13:30:47.504+03:00,2025-04-21T17:08:51.449+03:00,7448,1.015038,0,0,6201.935,5,20,2025-04-22T13:27:54.669+03:00,767010650.1763785,0,-20.1,100.4436,1,0.65,2025-04-22T13:27:27.892+03:00,96,1.6,2025-04-22T09:54:17.825+03:00,0.02225348692287972,0
2025-04-22T13:30:52.258+03:00,1745317846.535418,40.95227273616753,29.14031030331255,76.46297,-1,-1,-1,-1,30,30.83114588979476,-9999,33504.273281375,0.6192474365234375,-0.7718048095703125,-0.1125335693359375,33504.26320437501,2.987389636161581,1.391957268652621,0.8853437556387621,-0.01898204907774925,-0.02526199631392956,0.007399045396596193,-0.003756105899810791,0.0004051923751831055,0.001110836863517761,XArbitraryZVertical,-0.5522961459883828,0.3723782541096949,0.7125482610193111,-0.2204050174808852,0.6229272484779358,-0.7741326093673706,-0.1126068085432053,0,0,0,-1,-1,33499.5285815,unknown,2,2025-04-22T13:30:47.504+03:00,2025-04-21T17:08:51.449+03:00,7448,1.015038,0,0,6201.935,5,20,2025-04-22T13:27:54.669+03:00,767010650.1763785,0,-20.1,100.4436,1,0.65,2025-04-22T13:27:27.892+03:00,96,1.6,2025-04-22T09:54:17.825+03:00,0.02225348692287972,0
2025-04-22T13:30:52.264+03:00,1745317846.535418,40.95227273616753,29.14031030331255,76.46297,-1,-1,-1,-1,30,30.83114588979476,-9999,33504.283357375,0.616546630859375,-0.7761688232421875,-0.1099853515625,33504.273281375,2.987700527135283,1.391468059271298,0.8853315689853012,-0.01680677942931652,-0.02471205219626427,0.00631434004753828,-0.00618213415145874,-0.0008689761161804199,0.001539334654808044,XArbitraryZVertical,-0.5521817129837527,0.3723422408560049,0.7126508282393899,-0.2204210184341918,0.6228814125061035,-0.7741249203681946,-0.1129132211208344,0,0,0,-1,-1,33499.5285815,unknown,2,2025-04-22T13:30:47.504+03:00,2025-04-21T17:08:51.449+03:00,7448,1.015038,0,0,6201.935,5,20,2025-04-22T13:27:54.669+03:00,767010650.1763785,0,-20.1,100.4436,1,0.65,2025-04-22T13:27:27.892+03:00,96,1.6,2025-04-22T09:54:17.825+03:00,0.02225348692287972,0
2025-04-22T13:30:52.279+03:00,1745317846.535418,40.95227273616753,29.14031030331255,76.46297,-1,-1,-1,-1,30,30.83114588979476,-9999,33504.293433375,0.6129913330078125,-0.7725830078125,-0.11077880859375,33504.283357375,2.987990593107399,1.391013353973743,0.8853239691607445,-0.0115121491253376,-0.02064434066414833,0.006837784312665462,-0.003084659576416016,0.001766085624694824,0.0005113482475280762,XArbitraryZVertical,-0.5520749347307838,0.3723097296767277,0.712745354900946,-0.2204375136836659,0.622835636138916,-0.7741200923919678,-0.113197460770607,0,0,0,-1,-1,33499.5285815,unknown,2,2025-04-22T13:30:47.504+03:00,2025-04-21T17:08:51.449+03:00,7448,1.015038,0,0,6201.935,5,20,2025-04-22T13:27:54.669+03:00,767010650.1763785,0,-20.1,100.4436,1,0.65,2025-04-22T13:27:27.892+03:00,96,1.6,2025-04-22T09:54:17.825+03:00,0.02225348692287972,0
2025-04-22T13:30:52.284+03:00,1745317846.535418,40.95227273616753,29.14031030331255,76.46297,-1,-1,-1,-1,30,30.83114588979476,-9999,33504.303510375,0.6172332763671875,-0.76806640625,-0.1149749755859375,33504.293433375,2.988145402049025,1.390684831110045,0.8853410269604087,-0.001674698549322784,-0.01890396513044834,0.006594371516257524,-0.007215499877929688,-0.002434670925140381,0.003597483038902283,XArbitraryZVertical,-0.5519838701991346,0.372308931142405,0.7128166543798699,-0.2204366021090304,0.6227855682373047,-0.7741309404373169,-0.1133997365832329,0,0,0,-1,-1,33499.5285815,unknown,2,2025-04-22T13:30:47.504+03:00,2025-04-21T17:08:51.449+03:00,7448,1.015038,0,0,6201.935,5,20,2025-04-22T13:27:54.669+03:00,767010650.1763785,0,-20.1,100.4436,1,0.65,2025-04-22T13:27:27.892+03:00,96,1.6,2025-04-22T09:54:17.825+03:00,0.02225348692287972,0
2025-04-22T13:30:52.294+03:00,1745317846.535418,40.95227273616753,29.14031030331255,76.46297,-1,-1,-1,-1,30,30.83114588979476,-9999,33504.313586375,0.6216583251953125,-0.77032470703125,-0.1142120361328125,33504.303510375,2.988150459244847,1.390449450547738,0.88543014191174,0.01069175638258457,-0.02293273061513901,0.009773020632565022,-0.009730100631713867,0.002870857715606689,0.001519203186035156,XArbitraryZVertical,-0.5518863659175851,0.3723633648354192,0.7128683385543917,-0.2204214748273917,0.6226908564567566,-0.7741873264312744,-0.1135339289903641,0,0,0,-1,-1,33499.5285815,unknown,2,2025-04-22T13:30:47.504+03:00,2025-04-21T17:08:51.449+03:00,7448,1.015038,0,0,6201.935,5,20,2025-04-22T13:27:54.669+03:00,767010650.1763785,0,-20.1,100.4436,1,0.65,2025-04-22T13:27:27.892+03:00,96,1.6,2025-04-22T09:54:17.825+03:00,0.02225348692287972,0
2025-04-22T13:30:52.304+03:00,1745317846.535418,40.95227273616753,29.14031030331255,76.46297,-1,-1,-1,-1,30,30.83114588979476,-9999,33504.323663375,0.618621826171875,-0.7684478759765625,-0.1154632568359375,33504.313586375,2.987984167363586,1.39035580638482,0.8855804636208953,0.01546494010835886,-0.02184243127703667,0.01114188507199287,-0.004783153533935547,0.005910992622375488,-0.001251034438610077,XArbitraryZVertical,-0.5517974663171747,0.3724699842781505,0.7128911149252488,-0.2203900782045052,0.6225656270980835,-0.7742824554443359,-0.1135713309049606,0,0,0,-1,-1,33499.5285815,unknown,2,2025-04-22T13:30:47.504+03:00,2025-04-21T17:08:51.449+03:00,7448,1.015038,0,0,6201.935,5,20,2025-04-22T13:27:54.669+03:00,767010650.1763785,0,-20.1,100.4436,1,0.65,2025-04-22T13:27:27.892+03:00,96,1.6,2025-04-22T09:54:17.825+03:00,0.02225348692287972,0
2025-04-22T13:30:52.314+03:00,1745317846.535418,40.95227273616753,29.14031030331255,76.46297,-1,-1,-1,-1,30,30.83114588979476,-9999,33504.333739375,0.6162109375,-0.770782470703125,-0.1178436279296875,33504.323663375,2.987776726165073,1.390339702007818,0.8857125892290558,0.01476213242858648,-0.0152564337477088,0.01041124761104584,-0.0001642107963562012,0.003324270248413086,-0.0005574226379394531,XArbitraryZVertical,-0.5517314750258293,0.3725733014160953,0.7128997986031521,-0.2203528471695972,0.6224633455276489,-0.7743660807609558,-0.1135630309581757,0,0,0,-1,-1,33499.5285815,unknown,2,2025-04-22T13:30:47.504+03:00,2025-04-21T17:08:51.449+03:00,7448,1.015038,0,0,6201.935,5,20,2025-04-22T13:27:54.669+03:00,767010650.1763785,0,-20.1,100.4436,1,0.65,2025-04-22T13:27:27.892+03:00,96,1.6,2025-04-22T09:54:17.825+03:00,0.02225348692287972,0
2025-04-22T13:30:52.324+03:00,1745317846.535418,40.95227273616753,29.14031030331255,76.46297,-1,-1,-1,-1,30,30.83114588979476,-9999,33504.343816375,0.6192779541015625,-0.778533935546875,-0.1150665283203125,33504.333739375,2.987630817525553,1.390294032900586,0.8858311686106273,0.007815808989107609,-0.01735500618815422,0.01217612437903881,-0.004752993583679199,0.006252706050872803,-0.002712249755859375,XArbitraryZVertical,-0.5516686338584681,0.3726583465387352,0.7129115731695115,-0.220328091001613,0.6223676800727844,-0.7744410634040833,-0.1135749518871307,0,0,0,-1,-1,33499.5285815,unknown,2,2025-04-22T13:30:47.504+03:00,2025-04-21T17:08:51.449+03:00,7448,1.015038,0,0,6201.935,5,20,2025-04-22T13:27:54.669+03:00,767010650.1763785,0,-20.1,100.4436,1,0.65,2025-04-22T13:27:27.892+03:00,96,1.6,2025-04-22T09:54:17.825+03:00,0.02225348692287972,0
2025-04-22T13:30:52.334+03:00,1745317846.535418,40.95227273616753,29.14031030331255,76.46297,-1,-1,-1,-1,30,30.83114588979476,-9999,33504.353892375,0.6170196533203125,-0.782928466796875,-0.111846923828125,33504.343816375,2.987675979579233,1.390097705320596,0.8859173779590104,-0.007604759652167559,-0.01456381194293499,0.005503141321241856,-0.005397379398345947,0.002141594886779785,-0.003822803497314453,XArbitraryZVertical,-0.5515929729909204,0.372696429131894,0.7129484832441441,-0.2203335896251395,0.6222796440124512,-0.7744956016540527,-0.113685131072998,0,0,0,-1,-1,33499.5285815,unknown,2,2025-04-22T13:30:47.504+03:00,2025-04-21T17:08:51.449+03:00,7448,1.015038,0,0,6201.935,5,20,2025-04-22T13:27:54.669+03:00,767010650.1763785,0,-20.1,100.4436,1,0.65,2025-04-22T13:27:27.892+03:00,96,1.6,2025-04-22T09:54:17.825+03:00,0.02225348692287972,0
2025-04-22T13:30:52.344+03:00,1745317846.535418,40.95227273616753,29.14031030331255,76.46297,-1,-1,-1,-1,30,30.83114588979476,-9999,33504.363968375,0.612762451171875,-0.780548095703125,-0.1154327392578125,33504.353892375,2.98783228904521,1.389826432486004,0.8859553341378056,-0.01111214328557253,-0.01464210823178291,0.001585897989571095,-0.002728462219238281,-0.005112826824188232,-0.0005311965942382812,XArbitraryZVertical,-0.5515191806732742,0.3726959401768794,0.7130007622386866,-0.2203501406792309,0.622219979763031,-0.7745196223258972,-0.1138486564159393,0,0,0,-1,-1,33499.5285815,unknown,2,2025-04-22T13:30:47.504+03:00,2025-04-21T17:08:51.449+03:00,7448,1.015038,0,0,6201.935,5,20,2025-04-22T13:27:54.669+03:00,767010650.1763785,0,-20.1,100.4436,1,0.65,2025-04-22T13:27:27.892+03:00,96,1.6,2025-04-22T09:54:17.825+03:00,0.02225348692287972,0
2025-04-22T13:30:52.354+03:00,1745317846.535418,40.95227273616753,29.14031030331255,76.46297,-1,-1,-1,-1,30,30.83114588979476,-9999,33504.374045375,0.6123199462890625,-0.7781829833984375,-0.1167449951171875,33504.363968375,2.988015868361051,1.389562647683541,0.8859455266243296,-0.01253387052565813,-0.01098971627652645,-0.0004726590414065868,-0.006413698196411133,-0.008659124374389648,0.001984119415283203,XArbitraryZVertical,-0.5514609551704285,0.3726710919220267,0.7130546180474019,-0.2203635132126727,0.6221973299980164,-0.7745134234428406,-0.1140141412615776,0,0,0,-1,-1,33499.5285815,unknown,2,2025-04-22T13:30:47.504+03:00,2025-04-21T17:08:51.449+03:00,7448,1.015038,0,0,6201.935,5,20,2025-04-22T13:27:54.669+03:00,767010650.1763785,0,-20.1,100.4436,1,0.65,2025-04-22T13:27:27.892+03:00,96,1.6,2025-04-22T09:54:17.825+03:00,0.02225348692287972,0
2025-04-22T13:30:52.365+03:00,1745317846.535418,40.95227273616753,29.14031030331255,76.46297,-1,-1,-1,-1,30,30.83114588979476,-9999,33504.38412137501,0.612213134765625,-0.77734375,-0.1167144775390625,33504.374045375,2.988240886489354,1.389311123821804,0.8859358404185522,-0.01935049891471863,-0.007545982953161001,-0.003411457408219576,-0.009337365627288818,-0.005918622016906738,-0.0009097456932067871,XArbitraryZVertical,-0.5514147803549582,0.3726335163380927,0.7131005984103636,-0.2203939282567355,0.6221761107444763,-0.7745072841644287,-0.1141720041632652,0,0,0,-1,-1,33499.5285815,unknown,2,2025-04-22T13:30:47.504+03:00,2025-04-21T17:08:51.449+03:00,7448,1.015038,0,0,6201.935,5,20,2025-04-22T13:27:54.669+03:00,767010650.1763785,0,-20.1,100.4436,1,0.65,2025-04-22T13:27:27.892+03:00,96,1.6,2025-04-22T09:54:17.825+03:00,0.02225348692287972,0
2025-04-22T13:30:52.375+03:00,1745317846.535418,40.95227273616753,29.14031030331255,76.46297,-1,-1,-1,-1,30,30.83114588979476,-9999,33504.394198375,0.6130828857421875,-0.7643890380859375,-0.1141357421875,33504.38412137501,2.988489608643257,1.389067862349865,0.8858792439135732,-0.01402011420577765,-0.002453685738146305,-0.008386341854929924,-0.009459555149078369,-0.004657566547393799,-0.003146126866340637,XArbitraryZVertical,-0.5513836103395326,0.3725727617061442,0.7131484028731229,-0.2204201932785833,0.6221915483474731,-0.7744715213775635,-0.1143313050270081,0,0,0,-1,-1,33499.5285815,unknown,2,2025-04-22T13:30:47.504+03:00,2025-04-21T17:08:51.449+03:00,7448,1.015038,0,0,6201.935,5,20,2025-04-22T13:27:54.669+03:00,767010650.1763785,0,-20.1,100.4436,1,0.65,2025-04-22T13:27:27.892+03:00,96,1.6,2025-04-22T09:54:17.825+03:00,0.02225348692287972,0
2025-04-22T13:30:52.385+03:00,1745317846.535418,40.95227273616753,29.14031030331255,76.46297,-1,-1,-1,-1,30,30.83114588979476,-9999,33504.404274375,0.6179656982421875,-0.7566986083984375,-0.110595703125,33504.394198375,2.98857806994031,1.388987477730243,0.8858049519022664,-0.002324043773114681,0.001886467449367046,-0.004841408226639032,-0.0103614330291748,-0.001820623874664307,-0.001880243420600891,XArbitraryZVertical,-0.5513835619232211,0.372532299039135,0.7131713207634103,-0.2204144421919625,0.6222388744354248,-0.7744244933128357,-0.1143917068839073,0,0,0,-1,-1,33499.5285815,unknown,2,2025-04-22T13:30:47.504+03:00,2025-04-21T17:08:51.449+03:00,7448,1.015038,0,0,6201.935,5,20,2025-04-22T13:27:54.669+03:00,767010650.1763785,0,-20.1,100.4436,1,0.65,2025-04-22T13:27:27.892+03:00,96,1.6,2025-04-22T09:54:17.825+03:00,0.02225348692287972,0
2025-04-22T13:30:52.395+03:00,1745317846.535418,40.95227273616753,29.14031030331255,76.46297,-1,-1,-1,-1,30,30.83114588979476,-9999,33504.414351375,0.6236724853515625,-0.7550811767578125,-0.109222412109375,33504.404274375,2.988510154329854,1.389053329136712,0.8857523086051059,0.004229262936860323,0.003583766985684633,-0.004143227357417345,-0.008944094181060791,0.01120775938034058,0.001183636486530304,XArbitraryZVertical,-0.5514030112602032,0.3725260959125717,0.7131679474137321,-0.2203867678428976,0.6222862601280212,-0.7743911743164062,-0.114358052611351,0,0,0,-1,-1,33499.5285815,unknown,2,2025-04-22T13:30:47.504+03:00,2025-04-21T17:08:51.449+03:00,7448,1.015038,0,0,6201.935,5,20,2025-04-22T13:27:54.669+03:00,767010650.1763785,0,-20.1,100.4436,1,0.65,2025-04-22T13:27:27.892+03:00,96,1.6,2025-04-22T09:54:17.825+03:00,0.02225348692287972,0
2025-04-22T13:30:52.405+03:00,1745317846.535418,40.95227273616753,29.14031030331255,76.46297,-1,-1,-1,-1,30,30.83114588979476,-9999,33504.424427375,0.6264495849609375,-0.7538299560546875,-0.1089935302734375,33504.414351375,2.988354415009302,1.389205479102539,0.8857547301203219,0.01755385659635067,0.00511561706662178,0.001913866261020303,-0.003817379474639893,0.01801466941833496,0.004033565521240234,XArbitraryZVertical,-0.5514278534389252,0.3725530828284727,0.7131428640665299,-0.2203602727018255,0.6223018765449524,-0.7743927240371704,-0.114263042807579,0,0,0,-1,-1,33499.5285815,unknown,2,2025-04-22T13:30:47.504+03:00,2025-04-21T17:08:51.449+03:00,7448,1.015038,0,0,6201.935,5,20,2025-04-22T13:27:54.669+03:00,767010650.1763785,0,-20.1,100.4436,1,0.65,2025-04-22T13:27:27.892+03:00,96,1.6,2025-04-22T09:54:17.825+03:00,0.02225348692287972,0
2025-04-22T13:30:52.415+03:00,1745317846.535418,40.95227273616753,29.14031030331255,76.46297,-1,-1,-1,-1,30,30.83114588979476,-9999,33504.434503375,0.627838134765625,-0.7559356689453125,-0.111297607421875,33504.424427375,2.988033163731366,1.389491689296678,0.8858253761823978,0.02813506126403809,0.003959738649427891,0.001938733505085111,0.001376450061798096,0.0199819803237915,0.004272818565368652,XArbitraryZVertical,-0.551458518238,0.3726338309884702,0.7130892887658614,-0.2203203237169423,0.6222807168960571,-0.774437427520752,-0.1140750646591187,0,0,0,-1,-1,33499.5285815,unknown,2,2025-04-22T13:30:47.504+03:00,2025-04-21T17:08:51.449+03:00,7448,1.015038,0,0,6201.935,5,20,2025-04-22T13:27:54.669+03:00,767010650.1763785,0,-20.1,100.4436,1,0.65,2025-04-22T13:27:27.892+03:00,96,1.6,2025-04-22T09:54:17.825+03:00,0.02225348692287972,0
2025-04-22T13:30:52.425+03:00,1745317846.535418,40.95227273616753,29.14031030331255,76.46297,-1,-1,-1,-1,30,30.83114588979476,-9999,33504.444580375,0.6245574951171875,-0.768829345703125,-0.11029052734375,33504.434503375,2.987482336346927,1.389981692782293,0.8859423297408178,0.04092755913734436,0.01127677410840988,0.0009355206275358796,0.004354715347290039,0.02103257179260254,0.004607751965522766,XArbitraryZVertical,-0.551511455885714,0.3727709767034639,0.712998195738669,-0.2202504959250804,0.6222473382949829,-0.7745113968849182,-0.1137538254261017,0,0,0,-1,-1,33499.5285815,unknown,2,2025-04-22T13:30:47.504+03:00,2025-04-21T17:08:51.449+03:00,7448,1.015038,0,0,6201.935,5,20,2025-04-22T13:27:54.669+03:00,767010650.1763785,0,-20.1,100.4436,1,0.65,2025-04-22T13:27:27.892+03:00,96,1.6,2025-04-22T09:54:17.825+03:00,0.02225348692287972,0
2025-04-22T13:30:52.435+03:00,1745317846.535418,40.95227273616753,29.14031030331255,76.46297,-1,-1,-1,-1,30,30.83114588979476,-9999,33504.454656375,0.6228485107421875,-0.7768402099609375,-0.11041259765625,33504.444580375,2.986842504390615,1.390578446424115,0.8860759339671592,0.03778262808918953,0.01081444881856441,-0.001014046370983124,0.004953205585479736,0.01759225130081177,0.002218961715698242,XArbitraryZVertical,-0.5515830232559085,0.3729265176141954,0.7128852637699364,-0.2201738167566449,0.6222134828567505,-0.7745959162712097,-0.1133639588952065,0,0,0,-1,-1,33499.5285815,unknown,2,2025-04-22T13:30:47.504+03:00,2025-04-21T17:08:51.449+03:00,7448,1.015038,0,0,6201.935,5,20,2025-04-22T13:27:54.669+03:00,767010650.1763785,0,-20.1,100.4436,1,0.65,2025-04-22T13:27:27.892+03:00,96,1.6,2025-04-22T09:54:17.825+03:00,0.02225348692287972,0
2025-04-22T13:30:52.445+03:00,1745317846.535418,40.95227273616753,29.14031030331255,76.46297,-1,-1,-1,-1,30,30.83114588979476,-9999,33504.464733375,0.6220855712890625,-0.7762298583984375,-0.1127777099609375,33504.454656375,2.986303573660122,1.391066403814709,0.8861888070781265,0.03348561748862267,0.005661764647811651,-0.00321514904499054,0.002374649047851562,0.00396120548248291,0.00292205810546875,XArbitraryZVertical,-0.5516379406896348,0.3730592781352525,0.7127940520270792,-0.2201067151055891,0.6221827864646912,-0.7746673226356506,-0.1130447164177895,0,0,0,-1,-1,33499.5285815,unknown,2,2025-04-22T13:30:47.504+03:00,2025-04-21T17:08:51.449+03:00,7448,1.015038,0,0,6201.935,5,20,2025-04-22T13:27:54.669+03:00,767010650.1763785,0,-20.1,100.4436,1,0.65,2025-04-22T13:27:27.892+03:00,96,1.6,2025-04-22T09:54:17.825+03:00,0.02225348692287972,0
2025-04-22T13:30:52.455+03:00,1745317846.535418,40.95227273616753,29.14031030331255,76.46297,-1,-1,-1,-1,30,30.83114588979476,-9999,33504.474809375,0.6227874755859375,-0.7874298095703125,-0.1107025146484375,33504.464733375,2.985860722561797,1.391438757019757,0.8862304282196697,0.02307818457484245,0.005608168430626392,-0.01065046153962612,0.0001364946365356445,-0.002497494220733643,0.002028524875640869,XArbitraryZVertical,-0.551681198871965,0.373154403242461,0.7127342182656407,-0.2200308757062141,0.6221931576728821,-0.7746936082839966,-0.1128072887659073,0,0,0,-1,-1,33499.5285815,unknown,2,2025-04-22T13:30:47.504+03:00,2025-04-21T17:08:51.449+03:00,7448,1.015038,0,0,6201.935,5,20,2025-04-22T13:27:54.669+03:00,767010650.1763785,0,-20.1,100.4436,1,0.65,2025-04-22T13:27:27.892+03:00,96,1.6,2025-04-22T09:54:17.825+03:00,0.02225348692287972,0
2025-04-22T13:30:52.465+03:00,1745317846.535418,40.95227273616753,29.14031030331255,76.46297,-1,-1,-1,-1,30,30.83114588979476,-9999,33504.484886375,0.6178741455078125,-0.789642333984375,-0.11102294921875,33504.474809375,2.985646086370622,1.391656008674555,0.8861945937432493,0.007961816154420376,0.0102830808609724,-0.01259217225015163,0.0005730986595153809,-0.002443909645080566,-0.0003447681665420532,XArbitraryZVertical,-0.5517244490851002,0.3731777088394961,0.7127029558253765,-0.2199841302514891,0.6222449541091919,-0.7746709585189819,-0.1126770600676537,0,0,0,-1,-1,33499.5285815,unknown,2,2025-04-22T13:30:47.504+03:00,2025-04-21T17:08:51.449+03:00,7448,1.015038,0,0,6201.935,5,20,2025-04-22T13:27:54.669+03:00,767010650.1763785,0,-20.1,100.4436,1,0.65,2025-04-22T13:27:27.892+03:00,96,1.6,2025-04-22T09:54:17.825+03:00,0.02225348692287972,0
2025-04-22T13:30:52.475+03:00,1745317846.535418,40.95227273616753,29.14031030331255,76.46297,-1,-1,-1,-1,30,30.83114588979476,-9999,33504.494962375,0.618927001953125,-0.7775726318359375,-0.1152801513671875,33504.484886375,2.985495351872037,1.391864089957497,0.8860625402386748,0.009390203282237053,0.008583584800362587,-0.0148921450600028,-0.0007259845733642578,-0.01510059833526611,0.001329243183135986,XArbitraryZVertical,-0.5517921331707889,0.3731521803817758,0.7126808001065537,-0.2199294282822319,0.6223690509796143,-0.7745874524116516,-0.1125657856464386,0,0,0,-1,-1,33499.5285815,unknown,2,2025-04-22T13:30:47.504+03:00,2025-04-21T17:08:51.449+03:00,7448,1.015038,0,0,6201.935,5,20,2025-04-22T13:27:54.669+03:00,767010650.1763785,0,-20.1,100.4436,1,0.65,2025-04-22T13:27:27.892+03:00,96,1.6,2025-04-22T09:54:17.825+03:00,0.02225348692287972,0
2025-04-22T13:30:52.485+03:00,1745317846.535418,40.95227273616753,29.14031030331255,76.46297,-1,-1,-1,-1,30,30.83114588979476,-9999,33504.505038375,0.6215667724609375,-0.7740936279296875,-0.1181793212890625,33504.494962375,2.985314291866474,1.392104032300185,0.8858797626759809,0.007745700888335705,0.00756465969607234,-0.01377095375210047,-0.004569530487060547,-0.0134614109992981,0.0002437233924865723,XArbitraryZVertical,-0.5518738485826751,0.3731145441480743,0.7126602395130535,-0.2198546206283598,0.6225351691246033,-0.7744718194007874,-0.1124415844678879,0,0,0,-1,-1,33499.5285815,unknown,2,2025-04-22T13:30:47.504+03:00,2025-04-21T17:08:51.449+03:00,7448,1.015038,0,0,6201.935,5,20,2025-04-22T13:27:54.669+03:00,767010650.1763785,0,-20.1,100.4436,1,0.65,2025-04-22T13:27:27.892+03:00,96,1.6,2025-04-22T09:54:17.825+03:00,0.02225348692287972,0
2025-04-22T13:30:52.496+03:00,1745317846.535418,40.95227273616753,29.14031030331255,76.46297,-1,-1,-1,-1,30,30.83114588979476,-9999,33504.515115375,0.6192169189453125,-0.772705078125,-0.120391845703125,33504.505038375,2.98519368220694,1.392302484424996,0.8857001642096101,0.005052180029451847,0.006697001866996288,-0.007106393575668335,-0.003279209136962891,-0.002771914005279541,-0.004081800580024719,XArbitraryZVertical,-0.5519515133817501,0.3730658749433644,0.7126442162094077,-0.2197944222178344,0.6226944923400879,-0.7743582129478455,-0.1123427599668503,0,0,0,-1,-1,33499.5285815,unknown,2,2025-04-22T13:30:47.504+03:00,2025-04-21T17:08:51.449+03:00,7448,1.015038,0,0,6201.935,5,20,2025-04-22T13:27:54.669+03:00,767010650.1763785,0,-20.1,100.4436,1,0.65,2025-04-22T13:27:27.892+03:00,96,1.6,2025-04-22T09:54:17.825+03:00,0.02225348692287972,0
2025-04-22T13:30:52.506+03:00,1745317846.535418,40.95227273616753,29.14031030331255,76.46297,-1,-1,-1,-1,30,30.83114588979476,-9999,33504.525191375,0.6184844970703125,-0.7704925537109375,-0.1201324462890625,33504.515115375,2.985112086433414,1.392446132811993,0.8855420561572775,0.002489686477929354,0.007734569720923901,-0.00563286617398262,-0.002042531967163086,0.0006985664367675781,-0.006682470440864563,XArbitraryZVertical,-0.5520134156183347,0.3730196679399014,0.7126358855702943,-0.2197444321370596,0.6228311657905579,-0.7742581367492676,-0.1122750341892242,0,0,0,-1,-1,33499.5285815,unknown,2,2025-04-22T13:30:47.504+03:00,2025-04-21T17:08:51.449+03:00,7448,1.015038,0,0,6201.935,5,20,2025-04-22T13:27:54.669+03:00,767010650.1763785,0,-20.1,100.4436,1,0.65,2025-04-22T13:27:27.892+03:00,96,1.6,2025-04-22T09:54:17.825+03:00,0.02225348692287972,0
2025-04-22T13:30:52.516+03:00,1745317846.535418,40.95227273616753,29.14031030331255,76.46297,-1,-1,-1,-1,30,30.83114588979476,-9999,33504.535268375,0.6156158447265625,-0.771484375,-0.1177825927734375,33504.525191375,2.985078574084303,1.392545533276949,0.8854082947078389,-0.001994610764086246,0.007121176924556494,-0.002940443810075521,-0.003544151782989502,0.002414584159851074,-0.007595770061016083,XArbitraryZVertical,-0.5520645388156159,0.3729732075752644,0.7126309322025106,-0.2197107268344981,0.6229441165924072,-0.7741734981536865,-0.1122314631938934,0,0,0,-1,-1,33499.5285815,unknown,2,2025-04-22T13:30:47.504+03:00,2025-04-21T17:08:51.449+03:00,7448,1.015038,0,0,6201.935,5,20,2025-04-22T13:27:54.669+03:00,767010650.1763785,0,-20.1,100.4436,1,0.65,2025-04-22T13:27:27.892+03:00,96,1.6,2025-04-22T09:54:17.825+03:00,0.02225348692287972,0
2025-04-22T13:30:52.526+03:00,1745317846.535418,40.95227273616753,29.14031030331255,76.46297,-1,-1,-1,-1,30,30.83114588979476,-9999,33504.545344375,0.6196136474609375,-0.7728271484375,-0.115814208984375,33504.535268375,2.985118224497856,1.39255298394574,0.8853776930890551,-0.005253254435956478,0.0003061476163566113,0.00082686374662444,-0.004621207714080811,0.003066539764404297,-0.007687747478485107,XArbitraryZVertical,-0.5520796037984654,0.3729511980257621,0.712628871992655,-0.2197169902747725,0.622968316078186,-0.7741541266441345,-0.1122310310602188,0,0,0,-1,-1,33499.5285815,unknown,2,2025-04-22T13:30:47.504+03:00,2025-04-21T17:08:51.449+03:00,7448,1.015038,0,0,6201.935,5,20,2025-04-22T13:27:54.669+03:00,767010650.1763785,0,-20.1,100.4436,1,0.65,2025-04-22T13:27:27.892+03:00,96,1.6,2025-04-22T09:54:17.825+03:00,0.02225348692287972,0
2025-04-22T13:30:52.536+03:00,1745317846.535418,40.95227273616753,29.14031030331255,76.46297,-1,-1,-1,-1,30,30.83114588979476,-9999,33504.555420375,0.620452880859375,-0.77044677734375,-0.113433837890625,33504.545344375,2.985084475189257,1.392560857668806,0.885396225508574,0.005570431239902973,-0.002491969149559736,0.0005022577242925763,-0.006713628768920898,0.002422213554382324,-0.00464349240064621,XArbitraryZVertical,-0.5520730794093699,0.3729658540141987,0.712627759096087,-0.2197120447863574,0.6229550242424011,-0.7741658687591553,-0.1122235730290413,0,0,0,-1,-1,33499.5285815,unknown,2,2025-04-22T13:30:47.504+03:00,2025-04-21T17:08:51.449+03:00,7448,1.015038,0,0,6201.935,5,20,2025-04-22T13:27:54.669+03:00,767010650.1763785,0,-20.1,100.4436,1,0.65,2025-04-22T13:27:27.892+03:00,96,1.6,2025-04-22T09:54:17.825+03:00,0.02225348692287972,0
2025-04-22T13:30:52.546+03:00,1745317846.535418,40.95227273616753,29.14031030331255,76.46297,-1,-1,-1,-1,30,30.83114588979476,-9999,33504.565497375,0.6208038330078125,-0.7740020751953125,-0.1107635498046875,33504.555420375,2.985011589270309,1.39258425032441,0.885426180389983,0.003881188109517097,-0.002705821301788092,0.0006481988821178675,-0.00348895788192749,0.001388370990753174,-0.00431118905544281,XArbitraryZVertical,-0.5520629184352954,0.3729934316456477,0.7126249933149126,-0.2196995313751589,0.6229346990585327,-0.7741848230361938,-0.1122048646211624,0,0,0,-1,-1,33499.5285815,unknown,2,2025-04-22T13:30:47.504+03:00,2025-04-21T17:08:51.449+03:00,7448,1.015038,0,0,6201.935,5,20,2025-04-22T13:27:54.669+03:00,767010650.1763785,0,-20.1,100.4436,1,0.65,2025-04-22T13:27:27.892+03:00,96,1.6,2025-04-22T09:54:17.825+03:00,0.02225348692287972,0
2025-04-22T13:30:52.556+03:00,1745317846.535418,40.95227273616753,29.14031030331255,76.46297,-1,-1,-1,-1,30,30.83114588979476,-9999,33504.575573375,0.621429443359375,-0.77923583984375,-0.1126708984375,33504.565497375,2.984990579091077,1.392580902145469,0.885500931575106,-0.001692874706350267,-0.002284308895468712,0.0003962305490858853,-0.002516269683837891,0.003770172595977783,-0.0009014010429382324,XArbitraryZVertical,-0.5520455284228366,0.3730246287088135,0.7126177811981422,-0.2197139056009423,0.6228775382041931,-0.7742321491241455,-0.11219672113657,0,0,0,-1,-1,33499.5285815,unknown,2,2025-04-22T13:30:47.504+03:00,2025-04-21T17:08:51.449+03:00,7448,1.015038,0,0,6201.935,5,20,2025-04-22T13:27:54.669+03:00,767010650.1763785,0,-20.1,100.4436,1,0.65,2025-04-22T13:27:27.892+03:00,96,1.6,2025-04-22T09:54:17.825+03:00,0.02225348692287972,0
2025-04-22T13:30:52.566+03:00,1745317846.535418,40.95227273616753,29.14031030331255,76.46297,-1,-1,-1,-1,30,30.83114588979476,-9999,33504.585650375,0.62103271484375,-0.77471923828125,-0.11669921875,33504.575573375,2.984980046150908,1.392549532617293,0.8855752204128343,0.001845134887844324,-0.001121306791901588,-0.001873315311968327,-0.001571059226989746,-0.0005162358283996582,0.001473017036914825,XArbitraryZVertical,-0.5520202020871958,0.3730558544532905,0.712617064663823,-0.2197267448664199,0.62281733751297,-0.7742791175842285,-0.1122060492634773,0,0,0,-1,-1,33499.5285815,unknown,2,2025-04-22T13:30:47.504+03:00,2025-04-21T17:08:51.449+03:00,7448,1.015038,0,0,6201.935,5,20,2025-04-22T13:27:54.669+03:00,767010650.1763785,0,-20.1,100.4436,1,0.65,2025-04-22T13:27:27.892+03:00,96,1.6,2025-04-22T09:54:17.825+03:00,0.02225348692287972,0
2025-04-22T13:30:52.576+03:00,1745317846.535418,40.95227273616753,29.14031030331255,76.46297,-1,-1,-1,-1,30,30.83114588979476,-9999,33504.595726375,0.6186065673828125,-0.770538330078125,-0.1182403564453125,33504.585650375,2.984978286067925,1.392523157189536,0.8855888524812108,0.00283429934643209,0.0006974325515329838,-0.003005658276379108,-0.001298427581787109,-0.005482196807861328,-0.0003587156534194946,XArbitraryZVertical,-0.5520082229926944,0.3730638041794512,0.7126227410885619,-0.2197252282227347,0.6228041648864746,-0.7742877602577209,-0.1122206375002861,0,0,0,-1,-1,33499.5285815,unknown,2,2025-04-22T13:30:47.504+03:00,2025-04-21T17:08:51.449+03:00,7448,1.015038,0,0,6201.935,5,20,2025-04-22T13:27:54.669+03:00,767010650.1763785,0,-20.1,100.4436,1,0.65,2025-04-22T13:27:27.892+03:00,96,1.6,2025-04-22T09:54:17.825+03:00,0.02225348692287972,0
2025-04-22T13:30:52.586+03:00,1745317846.535418,40.95227273616753,29.14031030331255,76.46297,-1,-1,-1,-1,30,30.83114588979476,-9999,33504.605803375,0.617034912109375,-0.7752838134765625,-0.1165618896484375,33504.595726375,2.985033107597436,1.392495910341243,0.8855554951065977,-0.005750666372478008,0.006010172888636589,-0.003219509962946177,-0.001900613307952881,0.000340878963470459,-0.004838481545448303,XArbitraryZVertical,-0.5520142096035593,0.3730404983589258,0.71262898136335,-0.2197295939124618,0.6228265762329102,-0.7742666602134705,-0.1122421994805336,0,0,0,-1,-1,33499.5285815,unknown,2,2025-04-22T13:30:47.504+03:00,2025-04-21T17:08:51.449+03:00,7448,1.015038,0,0,6201.935,5,20,2025-04-22T13:27:54.669+03:00,767010650.1763785,0,-20.1,100.4436,1,0.65,2025-04-22T13:27:27.892+03:00,96,1.6,2025-04-22T09:54:17.825+03:00,0.02225348692287972,0
2025-04-22T13:30:52.596+03:00,1745317846.535418,40.95227273616753,29.14031030331255,76.46297,-1,-1,-1,-1,30,30.83114588979476,-9999,33504.615879375,0.6211700439453125,-0.774078369140625,-0.1155548095703125,33504.605803375,2.985140220477161,1.392430105856332,0.8854956172370266,-0.000601111794821918,0.004258145578205585,-0.006371860392391682,-0.004929423332214355,0.003309130668640137,-0.006605081260204315,XArbitraryZVertical,-0.5520205858778124,0.3729981117427009,0.7126436528594029,-0.2197375367347972,0.6228645443916321,-0.7742287516593933,-0.1122913658618927,0,0,0,-1,-1,33499.5285815,unknown,2,2025-04-22T13:30:47.504+03:00,2025-04-21T17:08:51.449+03:00,7448,1.015038,0,0,6201.935,5,20,2025-04-22T13:27:54.669+03:00,767010650.1763785,0,-20.1,100.4436,1,0.65,2025-04-22T13:27:27.892+03:00,96,1.6,2025-04-22T09:54:17.825+03:00,0.02225348692287972,0
2025-04-22T13:30:52.606+03:00,1745317846.535418,40.95227273616753,29.14031030331255,76.46297,-1,-1,-1,-1,30,30.83114588979476,-9999,33504.62595675,0.62493896484375,-0.7662200927734375,-0.1168670654296875,33504.615879375,2.985155400349096,1.392426758159991,0.8854579116903748,0.006135620642453432,0.00452898908406496,-0.003115346888080239,-0.005781710147857666,-0.00141441822052002,-0.004095360636711121,XArbitraryZVertical,-0.5520284154097832,0.3729816631136879,0.7126481849271789,-0.2197309770814554,0.6228928565979004,-0.7742049098014832,-0.1122986152768135,0,0,0,-1,-1,33499.5285815,unknown,2,2025-04-22T13:30:47.504+03:00,2025-04-21T17:08:51.449+03:00,7448,1.015038,0,0,6201.935,5,20,2025-04-22T13:27:54.669+03:00,767010650.1763785,0,-20.1,100.4436,1,0.65,2025-04-22T13:27:27.892+03:00,96,1.6,2025-04-22T09:54:17.825+03:00,0.02225348692287972,0
2025-04-22T13:30:52.617+03:00,1745317846.535418,40.95227273616753,29.14031030331255,76.46297,-1,-1,-1,-1,30,30.83114588979476,-9999,33504.63603375,0.6287689208984375,-0.7677154541015625,-0.11395263671875,33504.62595675,2.985069748741998,1.392518013777988,0.8854937999277709,0.006494414992630482,0.002399592194706202,0.002525794086977839,-0.0008513331413269043,0.001309037208557129,-0.003516316413879395,XArbitraryZVertical,-0.5520390621203667,0.3730072965997173,0.7126274038894554,-0.2197282628200382,0.6228758096694946,-0.7742276191711426,-0.1122368648648262,0,0,0,-1,-1,33499.5285815,unknown,2,2025-04-22T13:30:47.504+03:00,2025-04-21T17:08:51.449+03:00,7448,1.015038,0,0,6201.935,5,20,2025-04-22T13:27:54.669+03:00,767010650.1763785,0,-20.1,100.4436,1,0.65,2025-04-22T13:27:27.892+03:00,96,1.6,2025-04-22T09:54:17.825+03:00,0.02225348692287972,0
2025-04-22T13:30:52.627+03:00,1745317846.535418,40.95227273616753,29.14031030331255,76.46297,-1,-1,-1,-1,30,30.83114588979476,-9999,33504.64610975,0.630706787109375,-0.7769317626953125,-0.110382080078125,33504.63603375,2.98504904533827,1.392512690926409,0.8855382379343679,-0.0004487123514991254,-0.002027647104114294,0.004741810262203217,0.002189099788665771,0.008997082710266113,-0.004785530269145966,XArbitraryZVertical,-0.5520260155063946,0.3730284747277753,0.712624854866248,-0.2197333126545576,0.6228413581848145,-0.7742557525634766,-0.1122340708971024,0,0,0,-1,-1,33499.5285815,unknown,2,2025-04-22T13:30:47.504+03:00,2025-04-21T17:08:51.449+03:00,7448,1.015038,0,0,6201.935,5,20,2025-04-22T13:27:54.669+03:00,767010650.1763785,0,-20.1,100.4436,1,0.65,2025-04-22T13:27:27.892+03:00,96,1.6,2025-04-22T09:54:17.825+03:00,0.02225348692287972,0
2025-04-22T13:30:52.637+03:00,1745317846.535418,40.95227273616753,29.14031030331255,76.46297,-1,-1,-1,-1,30,30.83114588979476,-9999,33504.65618675,0.628570556640625,-0.78033447265625,-0.1107025146484375,33504.64610975,2.985145310315195,1.392418299144142,0.8855634612648846,-0.008368087932467461,-0.001814261078834534,0.005891397129744291,0.005987703800201416,0.005915462970733643,-0.0008697509765625,XArbitraryZVertical,-0.5520061822394237,0.3730207236819078,0.7126368997464226,-0.2197575335517206,0.6228117346763611,-0.7742717266082764,-0.1122894287109375,0,0,0,-1,-1,33499.5285815,unknown,2,2025-04-22T13:30:47.504+03:00,2025-04-21T17:08:51.449+03:00,7448,1.015038,0,0,6201.935,5,20,2025-04-22T13:27:54.669+03:00,767010650.1763785,0,-20.1,100.4436,1,0.65,2025-04-22T13:27:27.892+03:00,96,1.6,2025-04-22T09:54:17.825+03:00,0.02225348692287972,0
2025-04-22T13:30:52.647+03:00,1745317846.535418,40.95227273616753,29.14031030331255,76.46297,-1,-1,-1,-1,30,30.83114588979476,-9999,33504.66626275,0.623870849609375,-0.7761383056640625,-0.1165618896484375,33504.65618675,2.985334087257968,1.392247081231578,0.8856007951176733,-0.01365100033581257,-0.003547712229192257,0.004669805057346821,0.007927417755126953,-0.003429949283599854,0.002298817038536072,XArbitraryZVertical,-0.551974247047286,0.372999940449983,0.712658216501357,-0.2198040772185052,0.6227641701698303,-0.7742953300476074,-0.1123909503221512,0,0,0,-1,-1,33499.5285815,unknown,2,2025-04-22T13:30:47.504+03:00,2025-04-21T17:08:51.449+03:00,7448,1.015038,0,0,6201.935,5,20,2025-04-22T13:27:54.669+03:00,767010650.1763785,0,-20.1,100.4436,1,0.65,2025-04-22T13:27:27.892+03:00,96,1.6,2025-04-22T09:54:17.825+03:00,0.02225348692287972,0
2025-04-22T13:30:52.657+03:00,1745317846.535418,40.95227273616753,29.14031030331255,76.46297,-1,-1,-1,-1,30,30.83114588979476,-9999,33504.67633975,0.620758056640625,-0.77581787109375,-0.11602783203125,33504.66626275,2.985581631275261,1.392030338629483,0.885654037571891,-0.01426778919994831,-0.0004890724085271358,0.007151605095714331,0.005505263805389404,-0.005272924900054932,0.000900566577911377,XArbitraryZVertical,-0.5519344618394726,0.3729732774738179,0.7126831886102887,-0.2198679953591443,0.6226990222930908,-0.7743290066719055,-0.1125185713171959,0,0,0,-1,-1,33499.5285815,unknown,2,2025-04-22T13:30:47.504+03:00,2025-04-21T17:08:51.449+03:00,7448,1.015038,0,0,6201.935,5,20,2025-04-22T13:27:54.669+03:00,767010650.1763785,0,-20.1,100.4436,1,0.65,2025-04-22T13:27:27.892+03:00,96,1.6,2025-04-22T09:54:17.825+03:00,0.02225348692287972,0
2025-04-22T13:30:52.667+03:00,1745317846.535418,40.95227273616753,29.14031030331255,76.46297,-1,-1,-1,-1,30,30.83114588979476,-9999,33504.68641575,0.6146697998046875,-0.7725677490234375,-0.11376953125,33504.67633975,2.985862002087883,1.391807499976003,0.8857032458736841,-0.01311783585697412,0.004092097282409668,0.008080516010522842,0.0008223652839660645,-0.001717031002044678,-0.004369080066680908,XArbitraryZVertical,-0.5518992706636483,0.3729368910036677,0.7127068895276392,-0.2199411955227702,0.6226364374160767,-0.774360179901123,-0.1126505434513092,0,0,0,-1,-1,33499.5285815,unknown,2,2025-04-22T13:30:47.504+03:00,2025-04-21T17:08:51.449+03:00,7448,1.015038,0,0,6201.935,5,20,2025-04-22T13:27:54.669+03:00,767010650.1763785,0,-20.1,100.4436,1,0.65,2025-04-22T13:27:27.892+03:00,96,1.6,2025-04-22T09:54:17.825+03:00,0.02225348692287972,0
2025-04-22T13:30:52.677+03:00,1745317846.535418,40.95227273616753,29.14031030331255,76.46297,-1,-1,-1,-1,30,30.83114588979476,-9999,33504.69649175,0.614410400390625,-0.7683868408203125,-0.11456298828125,33504.68641575,2.986135249337623,1.391588839247484,0.8857665908511025,-0.01016918383538723,0.001875282265245914,0.0086969044059515,-0.002492189407348633,-0.0008835196495056152,-0.002853155136108398,XArbitraryZVertical,-0.5518619150999405,0.3729067629243734,0.7127282329590066,-0.2200168833732342,0.6225635409355164,-0.7744002342224121,-0.1127779483795166,0,0,0,-1,-1,33499.5285815,unknown,2,2025-04-22T13:30:47.504+03:00,2025-04-21T17:08:51.449+03:00,7448,1.015038,0,0,6201.935,5,20,2025-04-22T13:27:54.669+03:00,767010650.1763785,0,-20.1,100.4436,1,0.65,2025-04-22T13:27:27.892+03:00,96,1.6,2025-04-22T09:54:17.825+03:00,0.02225348692287972,0
2025-04-22T13:30:52.688+03:00,1745317846.535418,40.95227273616753,29.14031030331255,76.46297,-1,-1,-1,-1,30,30.83114588979476,-9999,33504.70656875,0.6117401123046875,-0.7688751220703125,-0.1123046875,33504.69649175,2.986328351230861,1.391438193123482,0.8858897805094059,-0.006857542786747217,0.00385081535205245,0.01232492830604315,-0.007752418518066406,0.002597153186798096,-0.0008537769317626953,XArbitraryZVertical,-0.5518240514989151,0.372911331523283,0.7127311141122815,-0.2200947486159242,0.6224526762962341,-0.7744781970977783,-0.1128547117114067,0,0,0,-1,-1,33499.5285815,unknown,2,2025-04-22T13:30:47.504+03:00,2025-04-21T17:08:51.449+03:00,7448,1.015038,0,0,6201.935,5,20,2025-04-22T13:27:54.669+03:00,767010650.1763785,0,-20.1,100.4436,1,0.65,2025-04-22T13:27:27.892+03:00,96,1.6,2025-04-22T09:54:17.825+03:00,0.02225348692287972,0
2025-04-22T13:30:52.697+03:00,1745317846.535418,40.95227273616753,29.14031030331255,76.46297,-1,-1,-1,-1,30,30.83114588979476,-9999,33504.71664475,0.6080169677734375,-0.7645721435546875,-0.111602783203125,33504.70656875,2.986443743619107,1.391362751790784,0.8859918761763519,0.0001931760489242151,0.004069993272423744,0.0120788523927331,-0.00716245174407959,0.005713522434234619,-0.0007293820381164551,XArbitraryZVertical,-0.5518019615024752,0.3729220054973911,0.712724737397003,-0.2201526010922129,0.6223663091659546,-0.7745427489280701,-0.1128875464200974,0,0,0,-1,-1,33499.5285815,unknown,2,2025-04-22T13:30:47.504+03:00,2025-04-21T17:08:51.449+03:00,7448,1.015038,0,0,6201.935,5,20,2025-04-22T13:27:54.669+03:00,767010650.1763785,0,-20.1,100.4436,1,0.65,2025-04-22T13:27:27.892+03:00,96,1.6,2025-04-22T09:54:17.825+03:00,0.02225348692287972,0
2025-04-22T13:30:52.707+03:00,1745317846.535418,40.95227273616753,29.14031030331255,76.46297,-1,-1,-1,-1,30,30.83114588979476,-9999,33504.72672175,0.61083984375,-0.7668609619140625,-0.1112213134765625,33504.71664475,2.986484032378993,1.391354252834576,0.8860714675675235,0.003052878426387906,0.006334745790809393,0.01419553346931934,-0.01093065738677979,0.0055961012840271,0.0006382018327713013,XArbitraryZVertical,-0.5517934245926043,0.3729384920491305,0.7127112311247473,-0.2201894563109076,0.6223044991493225,-0.7745931148529053,-0.1128817945718765,0,0,0,-1,-1,33499.5285815,unknown,2,2025-04-22T13:30:47.504+03:00,2025-04-21T17:08:51.449+03:00,7448,1.015038,0,0,6201.935,5,20,2025-04-22T13:27:54.669+03:00,767010650.1763785,0,-20.1,100.4436,1,0.65,2025-04-22T13:27:27.892+03:00,96,1.6,2025-04-22T09:54:17.825+03:00,0.02225348692287972,0
2025-04-22T13:30:52.717+03:00,1745317846.535418,40.95227273616753,29.14031030331255,76.46297,-1,-1,-1,-1,30,30.83114588979476,-9999,33504.73679775,0.61236572265625,-0.7740631103515625,-0.1117095947265625,33504.72672175,2.986525617533761,1.391385764386313,0.886145809275974,-0.003692908678203821,0.005792792420834303,0.01056910678744316,-0.01420396566390991,0.01078534126281738,0.001218631863594055,XArbitraryZVertical,-0.5518002317964579,0.3729484581543384,0.7126874073155349,-0.220232571965632,0.6222513318061829,-0.7746400833129883,-0.1128519028425217,0,0,0,-1,-1,33499.5285815,unknown,2,2025-04-22T13:30:47.504+03:00,2025-04-21T17:08:51.449+03:00,7448,1.015038,0,0,6201.935,5,20,2025-04-22T13:27:54.669+03:00,767010650.1763785,0,-20.1,100.4436,1,0.65,2025-04-22T13:27:27.892+03:00,96,1.6,2025-04-22T09:54:17.825+03:00,0.02225348692287972,0
2025-04-22T13:30:52.736+03:00,1745317846.535418,40.95227273616753,29.14031030331255,76.46297,-1,-1,-1,-1,30,30.83114588979476,-9999,33504.74687475,0.614227294921875,-0.7719879150390625,-0.1132659912109375,33504.73679775,2.986577399982063,1.39144166797214,0.8862104218726558,-0.005357916932553053,0.008963019587099552,0.007017248310148716,-0.01123154163360596,0.00702667236328125,0.001602232456207275,XArbitraryZVertical,-0.5518191982637166,0.372949666317769,0.7126573245469869,-0.220280796187607,0.6222087144851685,-0.7746809720993042,-0.1128082349896431,0,0,0,-1,-1,33499.5285815,unknown,2,2025-04-22T13:30:47.504+03:00,2025-04-21T17:08:51.449+03:00,7448,1.015038,0,0,6201.935,5,20,2025-04-22T13:27:54.669+03:00,767010650.1763785,0,-20.1,100.4436,1,0.65,2025-04-22T13:27:27.892+03:00,96,1.6,2025-04-22T09:54:17.825+03:00,0.02225348692287972,0
2025-04-22T13:30:52.739+03:00,1745317846.535418,40.95227273616753,29.14031030331255,76.46297,-1,-1,-1,-1,30,30.83114588979476,-9999,33504.75695075,0.613800048828125,-0.77728271484375,-0.1144866943359375,33504.74687475,2.986623700045433,1.391524117706261,0.8862313446240387,-0.001854262081906199,0.01447842642664909,0.0003489594091661274,-0.009622693061828613,0.0003717541694641113,0.00150221586227417,XArbitraryZVertical,-0.5518537837153444,0.3729348193898085,0.7126265024761562,-0.2203189803499791,0.6222020387649536,-0.7746942043304443,-0.1127540469169617,0,0,0,-1,-1,33499.5285815,unknown,2,2025-04-22T13:30:47.504+03:00,2025-04-21T17:08:51.449+03:00,7448,1.015038,0,0,6201.935,5,20,2025-04-22T13:27:54.669+03:00,767010650.1763785,0,-20.1,100.4436,1,0.65,2025-04-22T13:27:27.892+03:00,96,1.6,2025-04-22T09:54:17.825+03:00,0.02225348692287972,0
2025-04-22T13:30:52.748+03:00,1745317846.535418,40.95227273616753,29.14031030331255,76.46297,-1,-1,-1,-1,30,30.83114588979476,-9999,33504.76702675,0.619354248046875,-0.7852020263671875,-0.110107421875,33504.75695075,2.986663751317385,1.391651150612167,0.8862203960232521,-0.002598349237814546,0.02019410207867622,-0.0009725011186674237,-0.007600665092468262,0.002592682838439941,-0.0004216358065605164,XArbitraryZVertical,-0.5519083141062328,0.3729061037386455,0.7125885366398707,-0.2203536700343754,0.6222246289253235,-0.7746872901916504,-0.1126765012741089,0,0,0,-1,-1,33499.5285815,unknown,2,2025-04-22T13:30:47.504+03:00,2025-04-21T17:08:51.449+03:00,7448,1.015038,0,0,6201.935,5,20,2025-04-22T13:27:54.669+03:00,767010650.1763785,0,-20.1,100.4436,1,0.65,2025-04-22T13:27:27.892+03:00,96,1.6,2025-04-22T09:54:17.825+03:00,0.02225348692287972,0
2025-04-22T13:30:52.757+03:00,1745317846.535418,40.95227273616753,29.14031030331255,76.46297,-1,-1,-1,-1,30,30.83114588979476,-9999,33504.77710375,0.62542724609375,-0.77557373046875,-0.1127777099609375,33504.76702675,2.986702201001318,1.391820382127047,0.8861860474705574,-0.0001562306715641171,0.02147295139729977,-0.008567836135625839,-0.008714020252227783,-0.003044307231903076,-0.001407206058502197,XArbitraryZVertical,-0.5519813991140723,0.3728653391713675,0.7125425056717767,-0.2203885387413713,0.6222699284553528,-0.7746655344963074,-0.1125759482383728,0,0,0,-1,-1,33499.5285815,unknown,2,2025-04-22T13:30:47.504+03:00,2025-04-21T17:08:51.449+03:00,7448,1.015038,0,0,6201.935,5,20,2025-04-22T13:27:54.669+03:00,767010650.1763785,0,-20.1,100.4436,1,0.65,2025-04-22T13:27:27.892+03:00,96,1.6,2025-04-22T09:54:17.825+03:00,0.02225348692287972,0
2025-04-22T13:30:52.768+03:00,1745317846.535418,40.95227273616753,29.14031030331255,76.46297,-1,-1,-1,-1,30,30.83114588979476,-9999,33504.78717975,0.6312408447265625,-0.7714080810546875,-0.1122589111328125,33504.77710375,2.986634181993914,1.392068437962418,0.88615129443816,0.0080467713996768,0.01976180449128151,-0.001848714426159859,-0.002649605274200439,-0.0103752613067627,0.002410471439361572,XArbitraryZVertical,-0.5520627934375057,0.3728451352351269,0.712486384284984,-0.2204001202714604,0.6223242282867432,-0.77464359998703,-0.1124263554811478,0,0,0,-1,-1,33499.5285815,unknown,2,2025-04-22T13:30:47.504+03:00,2025-04-21T17:08:51.449+03:00,7448,1.015038,0,0,6201.935,5,20,2025-04-22T13:27:54.669+03:00,767010652.7544683,0,-19.92,100.4422,1,0.65,2025-04-22T13:27:27.892+03:00,96,1.6,2025-04-22T09:54:17.825+03:00,0.02225348692287972,0
2025-04-22T13:30:52.778+03:00,1745317846.535418,40.95227273616753,29.14031030331255,76.46297,-1,-1,-1,-1,30,30.83114588979476,-9999,33504.79725675,0.62957763671875,-0.7826995849609375,-0.10693359375,33504.78717975,2.986592871219493,1.392272878594567,0.886134666100122,-0.001974770100787282,0.01710496842861176,-0.006225919350981712,0.003753840923309326,0.0006005167961120605,-0.0002321004867553711,XArbitraryZVertical,-0.5521306359067502,0.3728284401793261,0.7124369309571361,-0.220418453252701,0.6223599910736084,-0.7746330499649048,-0.1123014315962791,0,0,0,-1,-1,33499.5285815,unknown,2,2025-04-22T13:30:47.504+03:00,2025-04-21T17:08:51.449+03:00,7448,1.015038,0,0,6201.935,5,20,2025-04-22T13:27:54.669+03:00,767010652.7544683,0,-19.92,100.4422,1,0.65,2025-04-22T13:27:27.892+03:00,96,1.6,2025-04-22T09:54:17.825+03:00,0.02225348692287972,0
2025-04-22T13:30:52.788+03:00,1745317846.535418,40.95227273616753,29.14031030331255,76.46297,-1,-1,-1,-1,30,30.83114588979476,-9999,33504.80733275,0.6243743896484375,-0.7767791748046875,-0.1091156005859375,33504.79725675,2.986662656142008,1.392414852090578,0.8861185054034009,-0.003719407133758068,0.01991540193557739,-0.003350504208356142,0.009600162506103516,0.002650201320648193,0.001482293009757996,XArbitraryZVertical,-0.5521968537226716,0.3727881140610512,0.7123924170370933,-0.220464846664897,0.6223883628845215,-0.7746228575706482,-0.1122153103351593,0,0,0,-1,-1,33499.5285815,unknown,2,2025-04-22T13:30:47.504+03:00,2025-04-21T17:08:51.449+03:00,7448,1.015038,0,0,6201.935,5,20,2025-04-22T13:27:54.669+03:00,767010652.7544683,0,-19.92,100.4422,1,0.65,2025-04-22T13:27:27.892+03:00,96,1.6,2025-04-22T09:54:17.825+03:00,0.02225348692287972,0
2025-04-22T13:30:52.798+03:00,1745317852.764962,40.95227357501957,29.14031228110051,76.44904,-1,-1,-1,-1,30,24.09898977317843,-9999,33504.81740975,0.6215362548828125,-0.7695465087890625,-0.110015869140625,33504.80733275,2.986724571936868,1.39255683354911,0.886117569483832,-0.0003230111324228346,0.01715962961316109,-0.0007941025542095304,0.006211459636688232,-0.009221673011779785,0.005437612533569336,XArbitraryZVertical,-0.5522591315860277,0.3727550505673086,0.7123464191704857,-0.2205131466191602,0.6224048733711243,-0.7746222615242004,-0.1121270507574081,0,0,0,-1,-1,33499.5285815,unknown,2,2025-04-22T13:30:47.504+03:00,2025-04-21T17:08:51.449+03:00,7448,1.015038,0,0,6201.935,5,20,2025-04-22T13:27:54.669+03:00,767010652.7544683,0,-19.92,100.4422,1,0.65,2025-04-22T13:27:27.892+03:00,96,1.6,2025-04-22T09:54:17.825+03:00,0.02225348692287972,0
2025-04-22T13:30:52.808+03:00,1745317852.764962,40.95227357501957,29.14031228110051,76.44904,-1,-1,-1,-1,30,24.09898977317843,-9999,33504.82748575,0.6210174560546875,-0.7685089111328125,-0.1116485595703125,33504.81740975,2.986725943829386,1.392732590929671,0.886141123146319,-0.00191930984146893,0.01715856418013573,0.0006061875028535724,0.001906812191009521,-0.0004940032958984375,0.002654731273651123,XArbitraryZVertical,-0.5523181270770967,0.3727431791552231,0.7122943826607243,-0.2205535062872132,0.622406542301178,-0.7746371626853943,-0.1120144203305244,0,0,0,-1,-1,33499.5285815,unknown,2,2025-04-22T13:30:47.504+03:00,2025-04-21T17:08:51.449+03:00,7448,1.015038,0,0,6201.935,5,20,2025-04-22T13:27:54.669+03:00,767010652.7544683,0,-19.92,100.4422,1,0.65,2025-04-22T13:27:27.892+03:00,96,1.6,2025-04-22T09:54:17.825+03:00,0.02225348692287972,0
2025-04-22T13:30:52.818+03:00,1745317852.764962,40.95227357501957,29.14031228110051,76.44904,-1,-1,-1,-1,30,24.09898977317843,-9999,33504.83756175,0.623138427734375,-0.7661590576171875,-0.1112518310546875,33504.82748575,2.986722930406731,1.392879928452436,0.8862318604776498,0.001494529657065868,0.01384312845766544,0.006660451646894217,-0.001061856746673584,0.005849897861480713,0.001848682761192322,XArbitraryZVertical,-0.5523551520982102,0.3727581473493473,0.7122412863508404,-0.2206071930195875,0.6223540306091309,-0.7746945023536682,-0.1119102984666824,0,0,0,-1,-1,33499.5285815,unknown,2,2025-04-22T13:30:47.504+03:00,2025-04-21T17:08:51.449+03:00,7448,1.015038,0,0,6201.935,5,20,2025-04-22T13:27:54.669+03:00,767010652.7544683,0,-19.92,100.4422,1,0.65,2025-04-22T13:27:27.892+03:00,96,1.6,2025-04-22T09:54:17.825+03:00,0.02225348692287972,0
2025-04-22T13:30:52.828+03:00,1745317852.764962,40.95227357501957,29.14031228110051,76.44904,-1,-1,-1,-1,30,24.09898977317843,-9999,33504.84763875,0.6217498779296875,-0.7641448974609375,-0.108734130859375,33504.83756175,2.986687149553068,1.393035810962886,0.8863303659957784,0.007876794785261154,0.01208277884870768,0.006751265376806259,-0.0006836652755737305,0.006659984588623047,-0.000245511531829834,XArbitraryZVertical,-0.5523878625863953,0.3727838134617747,0.7121881035459779,-0.2206533045536963,0.622296154499054,-0.7747567892074585,-0.1117997542023659,0,0,0,-1,-1,33499.5285815,unknown,2,2025-04-22T13:30:47.504+03:00,2025-04-21T17:08:51.449+03:00,7448,1.015038,0,0,6201.935,5,20,2025-04-22T13:27:54.669+03:00,767010652.7544683,0,-19.92,100.4422,1,0.65,2025-04-22T13:27:27.892+03:00,96,1.6,2025-04-22T09:54:17.825+03:00,0.02225348692287972,0
2025-04-22T13:30:52.838+03:00,1745317852.764962,40.95227357501957,29.14031228110051,76.44904,-1,-1,-1,-1,30,24.09898977317843,-9999,33504.85771475,0.622650146484375,-0.76715087890625,-0.1065826416015625,33504.84763875,2.986532907379503,1.393227971404764,0.8864740289446862,0.01697275601327419,0.005798451136797667,0.008413177914917469,0.0007625222206115723,0.009466946125030518,5.771219730377197e-05,XArbitraryZVertical,-0.5524039894940908,0.372853307363406,0.7121316179010559,-0.2206776016225339,0.6222079396247864,-0.7748476266860962,-0.1116604879498482,0,0,0,-1,-1,33499.5285815,unknown,2,2025-04-22T13:30:47.504+03:00,2025-04-21T17:08:51.449+03:00,7448,1.015038,0,0,6201.935,5,20,2025-04-22T13:27:54.669+03:00,767010652.7544683,0,-19.92,100.4422,1,0.65,2025-04-22T13:27:27.892+03:00,96,1.6,2025-04-22T09:54:17.825+03:00,0.02225348692287972,0
2025-04-22T13:30:52.848+03:00,1745317852.764962,40.95227357501957,29.14031228110051,76.44904,-1,-1,-1,-1,30,24.09898977317843,-9999,33504.86779175,0.6239013671875,-0.7732086181640625,-0.107635498046875,33504.85771475,2.986335439611224,1.39341826892463,0.8866180571028646,0.01167040131986141,0.002514241030439734,0.005675980821251869,-0.0001712441444396973,0.01109910011291504,0.00291038304567337,XArbitraryZVertical,-0.5524112951809292,0.3729350616607309,0.7120805175418126,-0.220686190575478,0.6221194267272949,-0.7749386429786682,-0.1115223988890648,0,0,0,-1,-1,33499.5285815,unknown,2,2025-04-22T13:30:47.504+03:00,2025-04-21T17:08:51.449+03:00,7448,1.015038,0,0,6201.935,5,20,2025-04-22T13:27:54.669+03:00,767010652.7544683,0,-19.92,100.4422,1,0.65,2025-04-22T13:27:27.892+03:00,96,1.6,2025-04-22T09:54:17.825+03:00,0.02225348692287972,0
2025-04-22T13:30:52.858+03:00,1745317852.764962,40.95227357501957,29.14031228110051,76.44904,-1,-1,-1,-1,30,24.09898977317843,-9999,33504.87786775,0.6190032958984375,-0.7729034423828125,-0.113250732421875,33504.86779175,2.986171630933207,1.393561942402043,0.8866757016155532,0.01306143682450056,0.003116980893537402,0.003532435745000839,0.001016378402709961,0.007152974605560303,0.005254514515399933,XArbitraryZVertical,-0.5524224430791059,0.3729837460841268,0.712050738980381,-0.2206720629365127,0.6220914125442505,-0.7749751210212708,-0.1114251390099525,0,0,0,-1,-1,33499.5285815,unknown,2,2025-04-22T13:30:47.504+03:00,2025-04-21T17:08:51.449+03:00,7448,1.015038,0,0,6201.935,5,20,2025-04-22T13:27:54.669+03:00,767010652.7544683,0,-19.92,100.4422,1,0.65,2025-04-22T13:27:27.892+03:00,96,1.6,2025-04-22T09:54:17.825+03:00,0.02225348692287972,0
2025-04-22T13:30:52.868+03:00,1745317852.764962,40.95227357501957,29.14031228110051,76.44904,-1,-1,-1,-1,30,24.09898977317843,-9999,33504.88794475,0.6174468994140625,-0.7710113525390625,-0.115020751953125,33504.87786775,2.985988575718526,1.39377481746747,0.8866572755532695,0.007286638952791691,0.006912784650921822,0.003815529868006706,0.0007650852203369141,0.001648247241973877,0.002881541848182678,XArbitraryZVertical,-0.5524671193647476,0.3730046574081412,0.7120147079343827,-0.2206410536531855,0.6221291422843933,-0.7749634385108948,-0.1112952157855034,0,0,0,-1,-1,33499.5285815,unknown,2,2025-04-22T13:30:47.504+03:00,2025-04-21T17:08:51.449+03:00,7448,1.015038,0,0,6201.935,5,20,2025-04-22T13:27:54.669+03:00,767010652.7544683,0,-19.92,100.4422,1,0.65,2025-04-22T13:27:27.892+03:00,96,1.6,2025-04-22T09:54:17.825+03:00,0.02225348692287972,0
2025-04-22T13:30:52.879+03:00,1745317852.764962,40.95227357501957,29.14031228110051,76.44904,-1,-1,-1,-1,30,24.09898977317843,-9999,33504.89802075,0.6214752197265625,-0.7657470703125,-0.1183624267578125,33504.88794475,2.985846546391574,1.393971704639706,0.8867215159806296,0.007053944747895002,0.006800998467952013,0.004281483124941587,-0.003571808338165283,0.002467036247253418,-0.002315625548362732,XArbitraryZVertical,-0.5525001746365644,0.3730436645482749,0.711966889018176,-0.2206466118519907,0.6221020221710205,-0.7750040292739868,-0.111163966357708,0,0,0,-1,-1,33499.5285815,unknown,2,2025-04-22T13:30:47.504+03:00,2025-04-21T17:08:51.449+03:00,7448,1.015038,0,0,6201.935,5,20,2025-04-22T13:27:54.669+03:00,767010652.7544683,0,-19.92,100.4422,1,0.65,2025-04-22T13:27:27.892+03:00,96,1.6,2025-04-22T09:54:17.825+03:00,0.02225348692287972,0
2025-04-22T13:30:52.889+03:00,1745317852.764962,40.95227357501957,29.14031228110051,76.44904,-1,-1,-1,-1,30,24.09898977317843,-9999,33504.90809675,0.6266632080078125,-0.7611846923828125,-0.1160888671875,33504.89802075,2.985678662412313,1.394172617365155,0.8867949236988276,0.01639205403625965,0.006514974869787693,0.007040517870336771,-0.004972577095031738,0.003810226917266846,-0.004937782883644104,XArbitraryZVertical,-0.5525283054399163,0.3730924380084391,0.7119196589111918,-0.2206464006952643,0.6220685243606567,-0.7750504612922668,-0.1110290065407753,0,0,0,-1,-1,33499.5285815,unknown,2,2025-04-22T13:30:47.504+03:00,2025-04-21T17:08:51.449+03:00,7448,1.015038,0,0,6201.935,5,20,2025-04-22T13:27:54.669+03:00,767010652.7544683,0,-19.92,100.4422,1,0.65,2025-04-22T13:27:27.892+03:00,96,1.6,2025-04-22T09:54:17.825+03:00,0.02225348692287972,0
2025-04-22T13:30:52.899+03:00,1745317852.764962,40.95227357501957,29.14031228110051,76.44904,-1,-1,-1,-1,30,24.09898977317843,-9999,33504.91817375,0.6280975341796875,-0.764923095703125,-0.1128082275390625,33504.90809675,2.98539518022107,1.394460333165316,0.8868940820293827,0.02170905470848083,0.005945324897766113,0.008834289386868477,6.067752838134766e-05,0.009732306003570557,-0.007388532161712646,XArbitraryZVertical,-0.5525615280783035,0.3731721826901752,0.7118574937095431,-0.2206290690499457,0.6220248937606812,-0.7751131057739258,-0.1108365580439568,0,0,0,-1,-1,33499.5285815,unknown,2,2025-04-22T13:30:47.504+03:00,2025-04-21T17:08:51.449+03:00,7448,1.015038,0,0,6201.935,5,20,2025-04-22T13:27:54.669+03:00,767010652.7544683,0,-19.92,100.4422,1,0.65,2025-04-22T13:27:27.892+03:00,96,1.6,2025-04-22T09:54:17.825+03:00,0.02225348692287972,0
2025-04-22T13:30:52.909+03:00,1745317852.764962,40.95227357501957,29.14031228110051,76.44904,-1,-1,-1,-1,30,24.09898977317843,-9999,33504.92824975,0.625518798828125,-0.77496337890625,-0.1082305908203125,33504.91817375,2.985049888179213,1.394767564457268,0.8869949927540958,0.02679329551756382,0.003502140752971172,0.006396432407200336,0.005108773708343506,0.0139007568359375,-0.005289256572723389,XArbitraryZVertical,-0.5525898740771054,0.373267434211193,0.7117962637974087,-0.2205940928971617,0.6219816207885742,-0.7751768827438354,-0.1106317043304443,0,0,0,-1,-1,33499.5285815,unknown,2,2025-04-22T13:30:47.504+03:00,2025-04-21T17:08:51.449+03:00,7448,1.015038,0,0,6201.935,5,20,2025-04-22T13:27:54.669+03:00,767010652.7544683,0,-19.92,100.4422,1,0.65,2025-04-22T13:27:27.892+03:00,96,1.6,2025-04-22T09:54:17.825+03:00,0.02225348692287972,0
2025-04-22T13:30:52.919+03:00,1745317852.764962,40.95227357501957,29.14031228110051,76.44904,-1,-1,-1,-1,30,24.09898977317843,-9999,33504.93832675,0.6191864013671875,-0.77685546875,-0.1064910888671875,33504.92824975,2.984642524254702,1.395123815359093,0.8870492015893989,0.02890151925384998,0.006160840857774019,0.004692574962973595,0.006331324577331543,0.008548557758331299,-0.001947641372680664,XArbitraryZVertical,-0.5526316916558039,0.3733588270765995,0.7117351977056396,-0.2205319253530798,0.6219797730445862,-0.7752110958099365,-0.110402800142765,0,0,0,-1,-1,33499.5285815,unknown,2,2025-04-22T13:30:47.504+03:00,2025-04-21T17:08:51.449+03:00,7448,1.015038,0,0,6201.935,5,20,2025-04-22T13:27:54.669+03:00,767010652.7544683,0,-19.92,100.4422,1,0.65,2025-04-22T13:27:27.892+03:00,96,1.6,2025-04-22T09:54:17.825+03:00,0.02225348692287972,0
2025-04-22T13:30:52.929+03:00,1745317852.764962,40.95227357501957,29.14031228110051,76.44904,-1,-1,-1,-1,30,24.09898977317843,-9999,33504.94840275,0.6226043701171875,-0.777923583984375,-0.1058349609375,33504.93832675,2.984179128137884,1.395552600710479,0.8870860736362894,0.03123311698436737,0.003400474553927779,0.0008557590190321207,0.002146661281585693,0.000393211841583252,0.002602458000183105,XArbitraryZVertical,-0.5526916963523001,0.3734519269171838,0.7116625324326219,-0.2204582629759352,0.6219988465309143,-0.7752344012260437,-0.1101310923695564,0,0,0,-1,-1,33499.5285815,unknown,2,2025-04-22T13:30:47.504+03:00,2025-04-21T17:08:51.449+03:00,7448,1.015038,0,0,6201.935,5,20,2025-04-22T13:27:54.669+03:00,767010652.7544683,0,-19.92,100.4422,1,0.65,2025-04-22T13:27:27.892+03:00,96,1.6,2025-04-22T09:54:17.825+03:00,0.02225348692287972,0
2025-04-22T13:30:52.939+03:00,1745317852.764962,40.95227357501957,29.14031228110051,76.44904,-1,-1,-1,-1,30,24.09898977317843,-9999,33504.95847875,0.6253814697265625,-0.78875732421875,-0.1055755615234375,33504.94840275,2.983711900110299,1.395905897835786,0.8870888329997586,0.02175652422010899,-0.006705156527459621,-0.002059070859104395,-0.003139138221740723,-0.001497089862823486,0.003358848392963409,XArbitraryZVertical,-0.5527297004703504,0.3735430345303076,0.7116159760448403,-0.2203588402835212,0.6220355629920959,-0.7752361297607422,-0.1099109575152397,0,0,0,-1,-1,33499.5285815,unknown,2,2025-04-22T13:30:47.504+03:00,2025-04-21T17:08:51.449+03:00,7448,1.015038,0,0,6201.935,5,20,2025-04-22T13:27:54.669+03:00,767010652.7544683,0,-19.92,100.4422,1,0.65,2025-04-22T13:27:27.892+03:00,96,1.6,2025-04-22T09:54:17.825+03:00,0.02225348692287972,0
2025-04-22T13:30:52.949+03:00,1745317852.764962,40.95227357501957,29.14031228110051,76.44904,-1,-1,-1,-1,30,24.09898977317843,-9999,33504.96855575001,0.61798095703125,-0.78643798828125,-0.10638427734375,33504.95847875,2.983499239764304,1.39601834819589,0.8870808681390396,0.002997750882059336,-0.005802610889077187,-0.00326441740617156,0.0006570219993591309,-0.00325697660446167,0.004358112812042236,XArbitraryZVertical,-0.5527312898575273,0.3735867594862762,0.7116095486544286,-0.2203017057851157,0.6220541000366211,-0.7752311229705811,-0.1098421066999435,0,0,0,-1,-1,33499.5285815,unknown,2,2025-04-22T13:30:47.504+03:00,2025-04-21T17:08:51.449+03:00,7448,1.015038,0,0,6201.935,5,20,2025-04-22T13:27:54.669+03:00,767010652.7544683,0,-19.92,100.4422,1,0.65,2025-04-22T13:27:27.892+03:00,96,1.6,2025-04-22T09:54:17.825+03:00,0.02225348692287972,0
2025-04-22T13:30:52.959+03:00,1745317852.764962,40.95227357501957,29.14031228110051,76.44904,-1,-1,-1,-1,30,24.09898977317843,-9999,33504.97863175,0.6183013916015625,-0.7788238525390625,-0.1107025146484375,33504.96855575001,2.983513163190172,1.395947547107702,0.8870328621401513,-0.004969960544258356,-0.008188603445887566,-0.007002729922533035,0.002306640148162842,-0.01439571380615234,0.004271268844604492,XArbitraryZVertical,-0.5527166119821362,0.3735746739907762,0.7116343289053537,-0.2202789343224498,0.6220829486846924,-0.7752007842063904,-0.1098926216363907,0,0,0,-1,-1,33499.5285815,unknown,2,2025-04-22T13:30:47.504+03:00,2025-04-21T17:08:51.449+03:00,7448,1.015038,0,0,6201.935,5,20,2025-04-22T13:27:54.669+03:00,767010652.7544683,0,-19.92,100.4422,1,0.65,2025-04-22T13:27:27.892+03:00,96,1.6,2025-04-22T09:54:17.825+03:00,0.02225348692287972,0
2025-04-22T13:30:52.969+03:00,1745317852.764962,40.95227357501957,29.14031228110051,76.44904,-1,-1,-1,-1,30,24.09898977317843,-9999,33504.98870875,0.624237060546875,-0.77593994140625,-0.1075897216796875,33504.97863175,2.983667245245668,1.395676066060738,0.8869702860767884,-0.009895477443933487,-0.01783830299973488,-0.006103646941483021,-0.004547178745269775,-0.01048314571380615,0.002724416553974152,XArbitraryZVertical,-0.5526591033789957,0.3735410885522173,0.7117011647635844,-0.220264163318048,0.622100830078125,-0.7751612663269043,-0.1100699380040169,0,0,0,-1,-1,33499.5285815,unknown,2,2025-04-22T13:30:47.504+03:00,2025-04-21T17:08:51.449+03:00,7448,1.015038,0,0,6201.935,5,20,2025-04-22T13:27:54.669+03:00,767010652.7544683,0,-19.92,100.4422,1,0.65,2025-04-22T13:27:27.892+03:00,96,1.6,2025-04-22T09:54:17.825+03:00,0.02225348692287972,0
2025-04-22T13:30:52.980+03:00,1745317852.764962,40.95227357501957,29.14031228110051,76.44904,-1,-1,-1,-1,30,24.09898977317843,-9999,33504.99878475,0.6216583251953125,-0.767730712890625,-0.103057861328125,33504.98870875,2.983896271878719,1.395285603661486,0.8868533330166388,-0.006493688561022282,-0.0151627566665411,-0.004878792446106672,-0.002365648746490479,-0.002561450004577637,-0.00045013427734375,XArbitraryZVertical,-0.5525821751333653,0.3734817271948861,0.7118003616614011,-0.2202373761162082,0.6221470832824707,-0.7750873565673828,-0.1103286817669868,0,0,0,-1,-1,33499.5285815,unknown,2,2025-04-22T13:30:47.504+03:00,2025-04-21T17:08:51.449+03:00,7448,1.015038,0,0,6201.935,5,20,2025-04-22T13:27:54.669+03:00,767010652.7544683,0,-19.92,100.4422,1,0.65,2025-04-22T13:27:27.892+03:00,96,1.6,2025-04-22T09:54:17.825+03:00,0.02225348692287972,0
2025-04-22T13:30:52.989+03:00,1745317852.764962,40.95227357501957,29.14031228110051,76.44904,-1,-1,-1,-1,30,24.09898977317843,-9999,33505.00886175,0.6173858642578125,-0.75958251953125,-0.1064605712890625,33504.99878475,2.983977636090663,1.395017384110866,0.886725078786253,0.000116010953206569,-0.01789116486907005,-0.0006156042218208313,0.002204775810241699,-3.325939178466797e-05,0.003487765789031982,XArbitraryZVertical,-0.5525230178375854,0.3734459148224061,0.711883584386982,-0.2201775026883488,0.6222153306007385,-0.7750062942504883,-0.1105129271745682,0,0,0,-1,-1,33499.5285815,unknown,2,2025-04-22T13:30:47.504+03:00,2025-04-21T17:08:51.449+03:00,7448,1.015038,0,0,6201.935,5,20,2025-04-22T13:27:54.669+03:00,767010652.7544683,0,-19.92,100.4422,1,0.65,2025-04-22T13:27:27.892+03:00,96,1.6,2025-04-22T09:54:17.825+03:00,0.02225348692287972,0
2025-04-22T13:30:52.999+03:00,1745317852.764962,40.95227357501957,29.14031228110051,76.44904,-1,-1,-1,-1,30,24.09898977317843,-9999,33505.01893775,0.6198883056640625,-0.756195068359375,-0.1094818115234375,33505.00886175,2.983986040304634,1.394796702853963,0.886662089151992,-0.0009454584796912968,-0.02394765987992287,0.002065965905785561,-0.001038491725921631,0.007861495018005371,0.006838023662567139,XArbitraryZVertical,-0.5524563986248999,0.3734468292936118,0.7119525211817284,-0.2201202471272434,0.6222390532493591,-0.7749664783477783,-0.1106587871909142,0,0,0,-1,-1,33499.5285815,unknown,2,2025-04-22T13:30:47.504+03:00,2025-04-21T17:08:51.449+03:00,7448,1.015038,0,0,6201.935,5,20,2025-04-22T13:27:54.669+03:00,767010652.7544683,0,-19.92,100.4422,1,0.65,2025-04-22T13:27:27.892+03:00,96,1.6,2025-04-22T09:54:17.825+03:00,0.02225348692287972,0
2025-04-22T13:30:53.010+03:00,1745317852.764962,40.95227357501957,29.14031228110051,76.44904,-1,-1,-1,-1,30,24.09898977317843,-9999,33505.02901375001,0.61834716796875,-0.752105712890625,-0.108673095703125,33505.01893775,2.983909549706946,1.394628483006239,0.8866890632780009,0.01378102414309978,-0.02268212661147118,0.006661250256001949,-0.004997134208679199,0.01602673530578613,0.00367361307144165,XArbitraryZVertical,-0.5523777914755028,0.373495486229606,0.7120035981789736,-0.2200697532127041,0.6221998333930969,-0.7749835252761841,-0.1107597947120667,0,0,0,-1,-1,33499.5285815,unknown,2,2025-04-22T13:30:47.504+03:00,2025-04-21T17:08:51.449+03:00,7448,1.015038,0,0,6201.935,5,20,2025-04-22T13:27:54.669+03:00,767010652.7544683,0,-19.92,100.4422,1,0.65,2025-04-22T13:27:27.892+03:00,96,1.6,2025-04-22T09:54:17.825+03:00,0.02225348692287972,0
2025-04-22T13:30:53.019+03:00,1745317852.764962,40.95227357501957,29.14031228110051,76.44904,-1,-1,-1,-1,30,24.09898977317843,-9999,33505.03909075,0.612701416015625,-0.7506866455078125,-0.1100921630859375,33505.02901375001,2.983522670972892,1.394740338688916,0.8868121238359421,0.03241156414151192,-0.0167282298207283,0.004709885455667973,-0.002001166343688965,0.01949191093444824,0.0007187128067016602,XArbitraryZVertical,-0.5523250926551551,0.3736311631134413,0.7119979102088486,-0.2199900958647923,0.6221182942390442,-0.775061309337616,-0.1106734946370125,0,0,0,-1,-1,33499.5285815,unknown,2,2025-04-22T13:30:47.504+03:00,2025-04-21T17:08:51.449+03:00,7448,1.015038,0,0,6201.935,5,20,2025-04-22T13:27:54.669+03:00,767010652.7544683,0,-19.92,100.4422,1,0.65,2025-04-22T13:27:27.892+03:00,96,1.6,2025-04-22T09:54:17.825+03:00,0.02225348692287972,0
2025-04-22T13:30:53.030+03:00,1745317852.764962,40.95227357501957,29.14031228110051,76.44904,-1,-1,-1,-1,30,24.09898977317843,-9999,33505.04916675,0.6148223876953125,-0.75091552734375,-0.1143798828125,33505.03909075,2.982856868274647,1.395110280748724,0.8869454370556832,0.04960227012634277,-0.01756925508379936,0.004218798596411943,-0.004198551177978516,0.02361983060836792,0.001462288200855255,XArbitraryZVertical,-0.5523104253773697,0.3738188997015104,0.7119500589335426,-0.2198625629571218,0.622057318687439,-0.7751455307006836,-0.1104252487421036,0,0,0,-1,-1,33499.5285815,unknown,2,2025-04-22T13:30:47.504+03:00,2025-04-21T17:08:51.449+03:00,7448,1.015038,0,0,6201.935,5,20,2025-04-22T13:27:54.669+03:00,767010652.7544683,0,-19.92,100.4422,1,0.65,2025-04-22T13:27:27.892+03:00,96,1.6,2025-04-22T09:54:17.825+03:00,0.02225348692287972,0
2025-04-22T13:30:53.040+03:00,1745317852.764962,40.95227357501957,29.14031228110051,76.44904,-1,-1,-1,-1,30,24.09898977317843,-9999,33505.05924375,0.616729736328125,-0.75616455078125,-0.1139373779296875,33505.04916675,2.98194155351441,1.395677628929352,0.8871449041858943,0.06547284871339798,-0.01430049166083336,0.004791112150996923,-0.009342670440673828,0.02440190315246582,-0.0009927749633789062,XArbitraryZVertical,-0.5523083246332572,0.3740759519073733,0.7118659813997231,-0.2197030635612785,0.6219677329063416,-0.7752715349197388,-0.1100453957915306,0,0,0,-1,-1,33499.5285815,unknown,2,2025-04-22T13:30:47.504+03:00,2025-04-21T17:08:51.449+03:00,7448,1.015038,0,0,6201.935,5,20,2025-04-22T13:27:54.669+03:00,767010652.7544683,0,-19.92,100.4422,1,0.65,2025-04-22T13:27:27.892+03:00,96,1.6,2025-04-22T09:54:17.825+03:00,0.02225348692287972,0
2025-04-22T13:30:53.050+03:00,1745317852.764962,40.95227357501957,29.14031228110051,76.44904,-1,-1,-1,-1,30,24.09898977317843,-9999,33505.06931975,0.6128692626953125,-0.770782470703125,-0.107086181640625,33505.05924375,2.980850626658314,1.396428514410637,0.8873495321886288,0.06795597821474075,-0.007199705578386784,-0.0008622462046332657,-0.006308615207672119,0.02418023347854614,-0.005103699862957001,XArbitraryZVertical,-0.5523376516880212,0.374363083336604,0.7117495779414185,-0.2195172190815462,0.6218938827514648,-0.7754007577896118,-0.109550803899765,0,0,0,-1,-1,33499.5285815,unknown,2,2025-04-22T13:30:47.504+03:00,2025-04-21T17:08:51.449+03:00,7448,1.015038,0,0,6201.935,5,20,2025-04-22T13:27:54.669+03:00,767010652.7544683,0,-19.92,100.4422,1,0.65,2025-04-22T13:27:27.892+03:00,96,1.6,2025-04-22T09:54:17.825+03:00,0.02225348692287972,0
2025-04-22T13:30:53.060+03:00,1745317852.764962,40.95227357501957,29.14031228110051,76.44904,-1,-1,-1,-1,30,24.09898977317843,-9999,33505.07939675,0.623260498046875,-0.780609130859375,-0.10406494140625,33505.06931975,2.979719053427424,1.397234841471251,0.887466938898745,0.07046620547771454,-0.008624296635389328,-0.005118676461279392,-0.006093502044677734,0.01848649978637695,-0.004125535488128662,XArbitraryZVertical,-0.552393265358245,0.3746263154083179,0.7116345938312998,-0.2193010312549662,0.6218924522399902,-0.7754749059677124,-0.1090336069464684,0,0,0,-1,-1,33499.5285815,unknown,2,2025-04-22T13:30:47.504+03:00,2025-04-21T17:08:51.449+03:00,7448,1.015038,0,0,6201.935,5,20,2025-04-22T13:27:54.669+03:00,767010652.7544683,0,-19.92,100.4422,1,0.65,2025-04-22T13:27:27.892+03:00,96,1.6,2025-04-22T09:54:17.825+03:00,0.02225348692287972,0
2025-04-22T13:30:53.070+03:00,1745317852.764962,40.95227357501957,29.14031228110051,76.44904,-1,-1,-1,-1,30,24.09898977317843,-9999,33505.08947275001,0.63385009765625,-0.78094482421875,-0.10821533203125,33505.07939675,2.978609158821901,1.397969516274042,0.8874944630300104,0.06571006774902344,-0.01832619309425354,-0.01035258732736111,-0.00867009162902832,0.002283751964569092,0.002326071262359619,XArbitraryZVertical,-0.5524421369005152,0.3748615425441078,0.7115494370815196,-0.219052132006846,0.6219513416290283,-0.7754923105239868,-0.1085730195045471,0,0,0,-1,-1,33499.5285815,unknown,2,2025-04-22T13:30:47.504+03:00,2025-04-21T17:08:51.449+03:00,7448,1.015038,0,0,6201.935,5,20,2025-04-22T13:27:54.669+03:00,767010652.7544683,0,-19.92,100.4422,1,0.65,2025-04-22T13:27:27.892+03:00,96,1.6,2025-04-22T09:54:17.825+03:00,0.02225348692287972,0
2025-04-22T13:30:53.080+03:00,1745317852.764962,40.95227357501957,29.14031228110051,76.44904,-1,-1,-1,-1,30,24.09898977317843,-9999,33505.09954975,0.6275177001953125,-0.780975341796875,-0.113067626953125,33505.08947275001,2.977548427773334,1.398618020991575,0.8874752555887693,0.06070885062217712,-0.02119315043091774,-0.01096381619572639,0.002276897430419922,-0.005144178867340088,0.003939449787139893,XArbitraryZVertical,-0.5524771541538901,0.3750771642315596,0.7114891826384918,-0.2187904750755348,0.6220363974571228,-0.7754801511764526,-0.1081722304224968,0,0,0,-1,-1,33499.5285815,unknown,2,2025-04-22T13:30:47.504+03:00,2025-04-21T17:08:51.449+03:00,7448,1.015038,0,0,6201.935,5,20,2025-04-22T13:27:54.669+03:00,767010652.7544683,0,-19.92,100.4422,1,0.65,2025-04-22T13:27:27.892+03:00,96,1.6,2025-04-22T09:54:17.825+03:00,0.02225348692287972,0
2025-04-22T13:30:53.090+03:00,1745317852.764962,40.95227357501957,29.14031228110051,76.44904,-1,-1,-1,-1,30,24.09898977317843,-9999,33505.10962575,0.618896484375,-0.783294677734375,-0.1107177734375,33505.09954975,2.976596756667058,1.399167930540577,0.8873929665188462,0.05674313753843307,-0.01488012913614511,-0.01709148287773132,0.01137101650238037,-0.004921436309814453,-0.0009388923645019531,XArbitraryZVertical,-0.5525079355131183,0.3752525326668027,0.7114527730107986,-0.2185301649231299,0.6221585869789124,-0.7754282355308533,-0.1078410372138023,0,0,0,-1,-1,33499.5285815,unknown,2,2025-04-22T13:30:47.504+03:00,2025-04-21T17:08:51.449+03:00,7448,1.015038,0,0,6201.935,5,20,2025-04-22T13:27:54.669+03:00,767010652.7544683,0,-19.92,100.4422,1,0.65,2025-04-22T13:27:27.892+03:00,96,1.6,2025-04-22T09:54:17.825+03:00,0.02225348692287972,0
2025-04-22T13:30:53.100+03:00,1745317852.764962,40.95227357501957,29.14031228110051,76.44904,-1,-1,-1,-1,30,24.09898977317843,-9999,33505.11970175,0.6111907958984375,-0.78375244140625,-0.110687255859375,33505.10962575,2.97580357458621,1.399656190741025,0.8872233066068699,0.04314057528972626,-0.008324159309267998,-0.0176500491797924,0.004459679126739502,-0.005837380886077881,-0.005721583962440491,XArbitraryZVertical,-0.5525609805878032,0.375361866242822,0.7114282400279321,-0.2182881298738618,0.6223409175872803,-0.7753210663795471,-0.1075596660375595,0,0,0,-1,-1,33499.5285815,unknown,2,2025-04-22T13:30:47.504+03:00,2025-04-21T17:08:51.449+03:00,7448,1.015038,0,0,6201.935,5,20,2025-04-22T13:27:54.669+03:00,767010652.7544683,0,-19.92,100.4422,1,0.65,2025-04-22T13:27:27.892+03:00,96,1.6,2025-04-22T09:54:17.825+03:00,0.02225348692287972,0
2025-04-22T13:30:53.110+03:00,1745317852.764962,40.95227357501957,29.14031228110051,76.44904,-1,-1,-1,-1,30,24.09898977317843,-9999,33505.12977875,0.6041412353515625,-0.774444580078125,-0.111480712890625,33505.11970175,2.975057033523154,1.400173959730542,0.8870417334857141,0.0497601293027401,0.000166798010468483,-0.01971319876611233,-0.004218518733978271,-0.008378088474273682,-0.003013908863067627,XArbitraryZVertical,-0.552635246970808,0.3754512308031568,0.7113918997056893,-0.2180646766367876,0.6225351691246033,-0.7752063870429993,-0.1072613149881363,0,0,0,-1,-1,33499.5285815,unknown,2,2025-04-22T13:30:47.504+03:00,2025-04-21T17:08:51.449+03:00,7448,1.015038,0,0,6201.935,5,20,2025-04-22T13:27:54.669+03:00,767010652.7544683,0,-19.92,100.4422,1,0.65,2025-04-22T13:27:27.892+03:00,96,1.6,2025-04-22T09:54:17.825+03:00,0.02225348692287972,0
2025-04-22T13:30:53.120+03:00,1745317852.764962,40.95227357501957,29.14031228110051,76.44904,-1,-1,-1,-1,30,24.09898977317843,-9999,33505.13985475,0.5977325439453125,-0.7718048095703125,-0.1090545654296875,33505.12977875,2.974160939140548,1.400893005455902,0.8868627025032102,0.06442968547344208,0.01082643307745457,-0.02290775999426842,-0.01248890161514282,-0.007545173168182373,-0.003697574138641357,XArbitraryZVertical,-0.5527525756600257,0.3755609578801211,0.7113157400514625,-0.2178266036222538,0.622748851776123,-0.7750932574272156,-0.1068371161818504,0,0,0,-1,-1,33499.5285815,unknown,2,2025-04-22T13:30:47.504+03:00,2025-04-21T17:08:51.449+03:00,7448,1.015038,0,0,6201.935,5,20,2025-04-22T13:27:54.669+03:00,767010652.7544683,0,-19.92,100.4422,1,0.65,2025-04-22T13:27:27.892+03:00,96,1.6,2025-04-22T09:54:17.825+03:00,0.02225348692287972,0
2025-04-22T13:30:53.130+03:00,1745317852.764962,40.95227357501957,29.14031228110051,76.44904,-1,-1,-1,-1,30,24.09898977317843,-9999,33505.14993175001,0.599609375,-0.7720947265625,-0.1019744873046875,33505.13985475,2.973112768392653,1.401848266321804,0.8866520096237201,0.07251637428998947,0.02187402360141277,-0.02737467922270298,-0.01981651782989502,0.0008054375648498535,-0.00511951744556427,XArbitraryZVertical,-0.5529305618450827,0.3756766769186987,0.7111951459933979,-0.2175691572989568,0.6230117678642273,-0.7749601602554321,-0.1062696576118469,0,0,0,-1,-1,33499.5285815,unknown,2,2025-04-22T13:30:47.504+03:00,2025-04-21T17:08:51.449+03:00,7448,1.015038,0,0,6201.935,5,20,2025-04-22T13:27:54.669+03:00,767010652.7544683,0,-19.92,100.4422,1,0.65,2025-04-22T13:27:27.892+03:00,96,1.6,2025-04-22T09:54:17.825+03:00,0.02225348692287972,0
2025-04-22T13:30:53.140+03:00,1745317852.764962,40.95227357501957,29.14031228110051,76.44904,-1,-1,-1,-1,30,24.09898977317843,-9999,33505.16000775,0.6088409423828125,-0.76580810546875,-0.099945068359375,33505.14993175001,2.971900331401678,1.402984710347969,0.8864787173670797,0.08287154138088226,0.02406793646514416,-0.02668851800262928,-0.02580660581588745,0.003076255321502686,-0.002158299088478088,XArbitraryZVertical,-0.5531357861865703,0.3758308184455119,0.7110367297486498,-0.2172988718871243,0.623264491558075,-0.774850606918335,-0.1055839955806732,0,0,0,-1,-1,33499.5285815,unknown,2,2025-04-22T13:30:47.504+03:00,2025-04-21T17:08:51.449+03:00,7448,1.015038,0,0,6201.935,5,20,2025-04-22T13:27:54.669+03:00,767010652.7544683,0,-19.92,100.4422,1,0.65,2025-04-22T13:27:27.892+03:00,96,1.6,2025-04-22T09:54:17.825+03:00,0.02225348692287972,0
2025-04-22T13:30:53.150+03:00,1745317852.764962,40.95227357501957,29.14031228110051,76.44904,-1,-1,-1,-1,30,24.09898977317843,-9999,33505.17008475,0.618499755859375,-0.7698516845703125,-0.0987396240234375,33505.16000775,2.970571136475687,1.404271237549362,0.8864111605763856,0.08123902231454849,0.02761207148432732,-0.02401603572070599,-0.0230180025100708,0.003842294216156006,0.004113242030143738,XArbitraryZVertical,-0.553354563925441,0.3760363807080952,0.7108345071238142,-0.2170476529983281,0.6234514117240906,-0.774807870388031,-0.1047907322645187,0,0,0,-1,-1,33499.5285815,unknown,2,2025-04-22T13:30:47.504+03:00,2025-04-21T17:08:51.449+03:00,7448,1.015038,0,0,6201.935,5,20,2025-04-22T13:27:54.669+03:00,767010652.7544683,0,-19.92,100.4422,1,0.65,2025-04-22T13:27:27.892+03:00,96,1.6,2025-04-22T09:54:17.825+03:00,0.02225348692287972,0
2025-04-22T13:30:53.161+03:00,1745317852.764962,40.95227357501957,29.14031228110051,76.44904,-1,-1,-1,-1,30,24.09898977317843,-9999,33505.18016075,0.624847412109375,-0.771148681640625,-0.104736328125,33505.17008475,2.969257357038495,1.405563676018179,0.8863332481617949,0.07872667163610458,0.02647789753973484,-0.02111302316188812,-0.0141182541847229,0.009728729724884033,0.004385456442832947,XArbitraryZVertical,-0.5535798267221523,0.3762339311793987,0.7106301200100129,-0.216800082109931,0.6236459016799927,-0.7747586369514465,-0.1039948090910912,0,0,0,-1,-1,33499.5285815,unknown,2,2025-04-22T13:30:47.504+03:00,2025-04-21T17:08:51.449+03:00,7448,1.015038,0,0,6201.935,5,20,2025-04-22T13:27:54.669+03:00,767010652.7544683,0,-19.92,100.4422,1,0.65,2025-04-22T13:27:27.892+03:00,96,1.6,2025-04-22T09:54:17.825+03:00,0.02225348692287972,0
2025-04-22T13:30:53.171+03:00,1745317852.764962,40.95227357501957,29.14031228110051,76.44904,-1,-1,-1,-1,30,24.09898977317843,-9999,33505.19023675,0.629150390625,-0.7678375244140625,-0.1198577880859375,33505.18016075,2.968011380511145,1.40674627036731,0.8862322879523068,0.0782473012804985,0.02042612992227077,-0.01875239610671997,-0.004445433616638184,0.004370152950286865,0.004789769649505615,XArbitraryZVertical,-0.5537824841855503,0.3764172948761732,0.7104514931718081,-0.2165492253691405,0.6238454580307007,-0.7746948003768921,-0.1032699570059776,0,0,0,-1,-1,33499.5285815,unknown,2,2025-04-22T13:30:47.504+03:00,2025-04-21T17:08:51.449+03:00,7448,1.015038,0,0,6201.935,5,20,2025-04-22T13:27:54.669+03:00,767010652.7544683,0,-19.92,100.4422,1,0.65,2025-04-22T13:27:27.892+03:00,96,1.6,2025-04-22T09:54:17.825+03:00,0.02225348692287972,0
2025-04-22T13:30:53.181+03:00,1745317852.764962,40.95227357501957,29.14031228110051,76.44904,-1,-1,-1,-1,30,24.09898977317843,-9999,33505.20031375,0.625244140625,-0.779052734375,-0.120208740234375,33505.19023675,2.966889713059371,1.407780912056272,0.8861480916532453,0.06634736806154251,0.02037220075726509,-0.02038484811782837,0.001792371273040771,0.004530549049377441,-0.003840744495391846,XArbitraryZVertical,-0.5539529771472457,0.3765880816345019,0.7102979082738239,-0.2163198934406242,0.624016284942627,-0.7746415734291077,-0.102635033428669,0,0,0,-1,-1,33499.5285815,unknown,2,2025-04-22T13:30:47.504+03:00,2025-04-21T17:08:51.449+03:00,7448,1.015038,0,0,6201.935,5,20,2025-04-22T13:27:54.669+03:00,767010652.7544683,0,-19.92,100.4422,1,0.65,2025-04-22T13:27:27.892+03:00,96,1.6,2025-04-22T09:54:17.825+03:00,0.02225348692287972,0
2025-04-22T13:30:53.191+03:00,1745317852.764962,40.95227357501957,29.14031228110051,76.44904,-1,-1,-1,-1,30,24.09898977317843,-9999,33505.21038975001,0.6212921142578125,-0.788665771484375,-0.117340087890625,33505.20031375,2.966066488284198,1.408625014343532,0.8860735845363289,0.03726750612258911,0.02692703902721405,-0.02610957995057106,0.004899084568023682,0.005368471145629883,-0.01865570992231369,XArbitraryZVertical,-0.5541102370485688,0.3767002133392959,0.710163344224911,-0.2161637236119806,0.6241596937179565,-0.7745944261550903,-0.1021175906062126,0,0,0,-1,-1,33499.5285815,unknown,2,2025-04-22T13:30:47.504+03:00,2025-04-21T17:08:51.449+03:00,7448,1.015038,0,0,6201.935,5,20,2025-04-22T13:27:54.669+03:00,767010652.7544683,0,-19.92,100.4422,1,0.65,2025-04-22T13:27:27.892+03:00,96,1.6,2025-04-22T09:54:17.825+03:00,0.02225348692287972,0
2025-04-22T13:30:53.201+03:00,1745317852.764962,40.95227357501957,29.14031228110051,76.44904,-1,-1,-1,-1,30,24.09898977317843,-9999,33505.22046675,0.6232452392578125,-0.7893829345703125,-0.1197357177734375,33505.21038975001,2.965607872950528,1.409260121240778,0.8859379453970367,0.02439238876104355,0.03871838375926018,-0.03304248675704002,-1.484155654907227e-05,-0.00681757926940918,-0.0185011625289917,XArbitraryZVertical,-0.5542722004418026,0.3767138100800182,0.7100555378416807,-0.2160790161809427,0.6243281960487366,-0.7745086550712585,-0.1017380654811859,0,0,0,-1,-1,33499.5285815,unknown,2,2025-04-22T13:30:47.504+03:00,2025-04-21T17:08:51.449+03:00,7448,1.015038,0,0,6201.935,5,20,2025-04-22T13:27:54.669+03:00,767010652.7544683,0,-19.92,100.4422,1,0.65,2025-04-22T13:27:27.892+03:00,96,1.6,2025-04-22T09:54:17.825+03:00,0.02225348692287972,0
2025-04-22T13:30:53.211+03:00,1745317852.764962,40.95227357501957,29.14031228110051,76.44904,-1,-1,-1,-1,30,24.09898977317843,-9999,33505.23054275,0.6311492919921875,-0.78466796875,-0.11004638671875,33505.22046675,2.965290886270389,1.409836187033448,0.8857063000439389,0.01849242113530636,0.03737322241067886,-0.0391983836889267,-0.003302097320556641,-0.01506650447845459,-0.01622283458709717,XArbitraryZVertical,-0.5544560593833071,0.3766628657642492,0.7099617262791943,-0.2160041770650096,0.6245636343955994,-0.7743620872497559,-0.1014071255922318,0,0,0,-1,-1,33499.5285815,unknown,2,2025-04-22T13:30:47.504+03:00,2025-04-21T17:08:51.449+03:00,7448,1.015038,0,0,6201.935,5,20,2025-04-22T13:27:54.669+03:00,767010652.7544683,0,-19.92,100.4422,1,0.65,2025-04-22T13:27:27.892+03:00,96,1.6,2025-04-22T09:54:17.825+03:00,0.02225348692287972,0
2025-04-22T13:30:53.236+03:00,1745317852.764962,40.95227357501957,29.14031228110051,76.44904,-1,-1,-1,-1,30,24.09898977317843,-9999,33505.24061975,0.6460723876953125,-0.77789306640625,-0.0994415283203125,33505.23054275,2.96493670709394,1.410405546043799,0.8854543669972015,0.02449904754757881,0.02863925136625767,-0.04094734415411949,-0.0009583234786987305,-0.01507341861724854,-0.01770699024200439,XArbitraryZVertical,-0.5546339419843204,0.3766163300377173,0.7098765346606279,-0.2159085880119262,0.6248138546943665,-0.7742026448249817,-0.1010826602578163,0,0,0,-1,-1,33499.5285815,unknown,2,2025-04-22T13:30:47.504+03:00,2025-04-21T17:08:51.449+03:00,7448,1.015038,0,0,6201.935,5,20,2025-04-22T13:27:54.669+03:00,767010652.7544683,0,-19.92,100.4422,1,0.65,2025-04-22T13:27:27.892+03:00,96,1.6,2025-04-22T09:54:17.825+03:00,0.02225348692287972,0
