loggingTime(txt),locationTimestamp_since1970(s),locationLatitude(WGS84),locationLongitude(WGS84),locationAltitude(m),locationSpeed(m/s),locationSpeedAccuracy(m/s),locationCourse(°),locationCourseAccuracy(°),locationVerticalAccuracy(m),locationHorizontalAccuracy(m),locationFloor(Z),accelerometerTimestamp_sinceReboot(s),accelerometerAccelerationX(G),accelerometerAccelerationY(G),accelerometerAccelerationZ(G),motionTimestamp_sinceReboot(s),motionYaw(rad),motionRoll(rad),motionPitch(rad),motionRotationRateX(rad/s),motionRotationRateY(rad/s),motionRotationRateZ(rad/s),motionUserAccelerationX(G),motionUserAccelerationY(G),motionUserAccelerationZ(G),motionAttitudeReferenceFrame(txt),motionQuaternionX(R),motionQuaternionY(R),motionQuaternionZ(R),motionQuaternionW(R),motionGravityX(G),motionGravityY(G),motionGravityZ(G),motionMagneticFieldX(µT),motionMagneticFieldY(µT),motionMagneticFieldZ(µT),motionHeading(°),motionMagneticFieldCalibrationAccuracy(Z),activityTimestamp_sinceReboot(s),activity(txt),activityActivityConfidence(Z),activityActivityStartDate(txt),pedometerStartDate(txt),pedometerNumberofSteps(N),pedometerAverageActivePace(s/m),pedometerCurrentPace(s/m),pedometerCurrentCadence(steps/s),pedometerDistance(m),pedometerFloorAscended(N),pedometerFloorDescended(N),pedometerEndDate(txt),altimeterTimestamp_sinceReboot(s),altimeterReset(bool),altimeterRelativeAltitude(m),altimeterPressure(kPa),batteryState(N),batteryLevel(R),heartRateBPMTimestamp(txt),heartRateBPM(N),heartRateBPS(R),heartRateVariabilityTimestamp(txt),heartRateVariability(ms),label
2025-04-21T10:50:59.425+03:00,1745221858.034492,40.95361963094089,29.14097085298671,92.82853,-1,-1,-1,-1,30,24.9532621481264,-9999,12657.21246204167,-0.6724395751953125,0.6943206787109375,-0.2832489013671875,12657.19858204167,-1.996745875243025,-1.172519610370457,-0.7444183202811007,-0.0007873864960856736,0.02479111030697823,0.007817053236067295,0.01293849945068359,0.01334333419799805,0.0007728636264801025,XArbitraryZVertical,0.597309211091278,0.02450488259778184,0.5432927969397247,-0.5894524556075661,-0.6779165267944336,0.677544116973877,-0.2852424383163452,0,0,0,-1,-1,12638.664264,unknown,2,2025-04-21T10:50:40.858+03:00,2025-04-20T21:57:49.637+03:00,1480,1.071516,0,0,1109.802,1,4,2025-04-21T10:45:26.169+03:00,766914659.0172858,0,-47.47,100.3013,1,0.7,2025-04-21T10:50:54.212+03:00,92.00000000000001,1.533333333333333,2025-04-21T09:28:58.093+03:00,0.01174319131481236,0
2025-04-21T10:50:59.426+03:00,1745221858.034492,40.95361963094089,29.14097085298671,92.82853,-1,-1,-1,-1,30,24.9532621481264,-9999,12657.22253804167,-0.668609619140625,0.68780517578125,-0.2858734130859375,12657.20865804167,-1.996618841224302,-1.172242827793685,-0.7444412022741882,0.009184554219245911,0.008741304278373718,0.001727469614706933,0.002591311931610107,0.005987048149108887,0.00307542085647583,XArbitraryZVertical,0.5972353555695837,0.0244525015744097,0.5433318614194897,-0.589493387327183,-0.6778231859207153,0.6775609254837036,-0.2854240238666534,0,0,0,-1,-1,12638.664264,unknown,2,2025-04-21T10:50:40.858+03:00,2025-04-20T21:57:49.637+03:00,1480,1.071516,0,0,1109.802,1,4,2025-04-21T10:45:26.169+03:00,766914659.0172858,0,-47.47,100.3013,1,0.7,2025-04-21T10:50:54.212+03:00,92.00000000000001,1.533333333333333,2025-04-21T09:28:58.093+03:00,0.01174319131481236,0
2025-04-21T10:50:59.428+03:00,1745221858.034492,40.95361963094089,29.14097085298671,92.82853,-1,-1,-1,-1,30,24.9532621481264,-9999,12657.23261404167,-0.677093505859375,0.673492431640625,-0.291717529296875,12657.21873404167,-1.996535379296824,-1.172120395743623,-0.7444459698835393,-0.003271516412496567,0.003573240246623755,0.0009069828665815294,0.006398677825927734,0.01730555295944214,0.001738131046295166,XArbitraryZVertical,0.5972016617810193,0.0244395470091153,0.5433425837385194,-0.589518234697852,-0.6777852773666382,0.6775644421577454,-0.2855057716369629,0,0,0,-1,-1,12638.664264,unknown,2,2025-04-21T10:50:40.858+03:00,2025-04-20T21:57:49.637+03:00,1480,1.071516,0,0,1109.802,1,4,2025-04-21T10:45:26.169+03:00,766914659.0172858,0,-47.47,100.3013,1,0.7,2025-04-21T10:50:54.212+03:00,92.00000000000001,1.533333333333333,2025-04-21T09:28:58.093+03:00,0.01174319131481236,0
2025-04-21T10:50:59.438+03:00,1745221858.034492,40.95361963094089,29.14097085298671,92.82853,-1,-1,-1,-1,30,24.9532621481264,-9999,12657.24269004167,-0.6820831298828125,0.67010498046875,-0.2940521240234375,12657.22881004167,-1.996631581073496,-1.172099624275279,-0.7444653362141127,-0.01407702639698982,0.008417529985308647,-0.001860840478911996,0.00776904821395874,0.00810551643371582,-0.0007553696632385254,XArbitraryZVertical,0.5971996501597023,0.02439727832433194,0.5433719026807848,-0.5894948863312534,-0.6777671575546265,0.6775786876678467,-0.2855147123336792,0,0,0,-1,-1,12638.664264,unknown,2,2025-04-21T10:50:40.858+03:00,2025-04-20T21:57:49.637+03:00,1480,1.071516,0,0,1109.802,1,4,2025-04-21T10:45:26.169+03:00,766914659.0172858,0,-47.47,100.3013,1,0.7,2025-04-21T10:50:54.212+03:00,92.00000000000001,1.533333333333333,2025-04-21T09:28:58.093+03:00,0.01174319131481236,0
2025-04-21T10:50:59.450+03:00,1745221858.034492,40.95361963094089,29.14097085298671,92.82853,-1,-1,-1,-1,30,24.9532621481264,-9999,12657.25276504167,-0.6726531982421875,0.6748199462890625,-0.28826904296875,12657.23888604167,-1.996872232322316,-1.172168740409808,-0.7445128812714381,-0.02035383135080338,0.007446008734405041,-0.004122796468436718,-0.00083160400390625,-0.005586147308349609,-0.007803231477737427,XArbitraryZVertical,0.5972273403523117,0.02432767624422673,0.5434094817224171,-0.5894350335776462,-0.6777571439743042,0.6776136755943298,-0.2854553461074829,0,0,0,-1,-1,12638.664264,unknown,2,2025-04-21T10:50:40.858+03:00,2025-04-20T21:57:49.637+03:00,1480,1.071516,0,0,1109.802,1,4,2025-04-21T10:45:26.169+03:00,766914659.0172858,0,-47.47,100.3013,1,0.7,2025-04-21T10:50:54.212+03:00,92.00000000000001,1.533333333333333,2025-04-21T09:28:58.093+03:00,0.01174319131481236,0
2025-04-21T10:50:59.458+03:00,1745221858.034492,40.95361963094089,29.14097085298671,92.82853,-1,-1,-1,-1,30,24.9532621481264,-9999,12657.26284104167,-0.665740966796875,0.671722412109375,-0.2810516357421875,12657.24896104167,-1.997182747986708,-1.172357829509526,-0.7445324663604982,-0.02381567284464836,0.0003681257367134094,0.002508208388462663,-0.003673791885375977,-0.007309556007385254,-0.008272260427474976,XArbitraryZVertical,0.5972849575307876,0.02428320215556724,0.5434392751424857,-0.5893509795670372,-0.677798867225647,0.6776280403137207,-0.2853220105171204,0,0,0,-1,-1,12638.664264,unknown,2,2025-04-21T10:50:40.858+03:00,2025-04-20T21:57:49.637+03:00,1480,1.071516,0,0,1109.802,1,4,2025-04-21T10:45:26.169+03:00,766914659.0172858,0,-47.47,100.3013,1,0.7,2025-04-21T10:50:54.212+03:00,92.00000000000001,1.533333333333333,2025-04-21T09:28:58.093+03:00,0.01174319131481236,0
2025-04-21T10:50:59.468+03:00,1745221858.034492,40.95361963094089,29.14097085298671,92.82853,-1,-1,-1,-1,30,24.9532621481264,-9999,12657.27291704167,-0.670623779296875,0.6587982177734375,-0.2788848876953125,12657.25903704167,-1.997537250367704,-1.172661876138075,-0.7446693353177369,-0.03310737758874893,-0.007694527506828308,0.007272902876138687,0.006093025207519531,-0.002878308296203613,-0.002090424299240112,XArbitraryZVertical,0.5973890506037518,0.02421478826881657,0.5434163612922616,-0.5892693625180311,-0.6778000593185425,0.6777287125587463,-0.2850799262523651,0,0,0,-1,-1,12638.664264,unknown,2,2025-04-21T10:50:40.858+03:00,2025-04-20T21:57:49.637+03:00,1480,1.071516,0,0,1109.802,1,4,2025-04-21T10:45:26.169+03:00,766914659.0172858,0,-47.47,100.3013,1,0.7,2025-04-21T10:50:54.212+03:00,92.00000000000001,1.533333333333333,2025-04-21T09:28:58.093+03:00,0.01174319131481236,0
2025-04-21T10:50:59.478+03:00,1745221858.034492,40.95361963094089,29.14097085298671,92.82853,-1,-1,-1,-1,30,24.9532621481264,-9999,12657.28299304167,-0.6796722412109375,0.664825439453125,-0.2800750732421875,12657.26911304167,-1.997997146756288,-1.173064256434925,-0.744930863727805,-0.04491450265049934,-0.01061388477683067,0.007087280973792076,0.01271241903305054,-0.008182287216186523,0.003900617361068726,XArbitraryZVertical,0.5975366803353519,0.02409643086737136,0.5433619011071843,-0.5891748370786039,-0.677751362323761,0.6779209971427917,-0.2847385406494141,0,0,0,-1,-1,12638.664264,unknown,2,2025-04-21T10:50:40.858+03:00,2025-04-20T21:57:49.637+03:00,1480,1.071516,0,0,1109.802,1,4,2025-04-21T10:45:26.169+03:00,766914659.0172858,0,-47.47,100.3013,1,0.7,2025-04-21T10:50:54.212+03:00,92.00000000000001,1.533333333333333,2025-04-21T09:28:58.093+03:00,0.01174319131481236,0
2025-04-21T10:50:59.488+03:00,1745221858.034492,40.95361963094089,29.14097085298671,92.82853,-1,-1,-1,-1,30,24.9532621481264,-9999,12657.29306804167,-0.6814117431640625,0.67987060546875,-0.2844696044921875,12657.27918904167,-1.998567977086454,-1.173552223339258,-0.7451773139856013,-0.04837807267904282,-0.01010056119412184,0.0006807140889577568,0.006105482578277588,-0.01986849308013916,0.006114482879638672,XArbitraryZVertical,0.597706913155135,0.02397582937252806,0.5433185236769947,-0.5890471986371623,-0.6777362823486328,0.6781021356582642,-0.2843432128429413,0,0,0,-1,-1,12638.664264,unknown,2,2025-04-21T10:50:40.858+03:00,2025-04-20T21:57:49.637+03:00,1480,1.071516,0,0,1109.802,1,4,2025-04-21T10:45:26.169+03:00,766914659.0172858,0,-47.47,100.3013,1,0.7,2025-04-21T10:50:54.212+03:00,92.00000000000001,1.533333333333333,2025-04-21T09:28:58.093+03:00,0.01174319131481236,0
2025-04-21T10:50:59.498+03:00,1745221858.034492,40.95361963094089,29.14097085298671,92.82853,-1,-1,-1,-1,30,24.9532621481264,-9999,12657.30314404167,-0.6733856201171875,0.6811981201171875,-0.2876739501953125,12657.28926404167,-1.999189513822423,-1.174061461703282,-0.7453933589150437,-0.05029022321105003,-0.007420888170599937,0.0005153318052180111,-0.00265878438949585,-0.01168066263198853,0.003698557615280151,XArbitraryZVertical,0.5978796511687591,0.02385779951376783,0.5432917109539249,-0.5889014615521589,-0.6777458786964417,0.6782609224319458,-0.2839414477348328,0,0,0,-1,-1,12638.664264,unknown,2,2025-04-21T10:50:40.858+03:00,2025-04-20T21:57:49.637+03:00,1480,1.071516,0,0,1109.802,1,4,2025-04-21T10:45:26.169+03:00,766914659.0172858,0,-47.47,100.3013,1,0.7,2025-04-21T10:50:54.212+03:00,92.00000000000001,1.533333333333333,2025-04-21T09:28:58.093+03:00,0.01174319131481236,0
2025-04-21T10:50:59.508+03:00,1745221858.034492,40.95361963094089,29.14097085298671,92.82853,-1,-1,-1,-1,30,24.9532621481264,-9999,12657.31322004167,-0.6681976318359375,0.6786346435546875,-0.2845916748046875,12657.29934004167,-1.999843618468412,-1.174581134831389,-0.7456349853223105,-0.05137519538402557,-0.01002066675573587,0.0005622034077532589,-0.002998232841491699,0.002286672592163086,-0.001767635345458984,XArbitraryZVertical,0.5980587353503277,0.02372320905711666,0.5432643502629798,-0.5887501926280894,-0.677742063999176,0.6784384250640869,-0.2835259139537811,0,0,0,-1,-1,12638.664264,unknown,2,2025-04-21T10:50:40.858+03:00,2025-04-20T21:57:49.637+03:00,1480,1.071516,0,0,1109.802,1,4,2025-04-21T10:45:26.169+03:00,766914659.0172858,0,-47.47,100.3013,1,0.7,2025-04-21T10:50:54.212+03:00,92.00000000000001,1.533333333333333,2025-04-21T09:28:58.093+03:00,0.01174319131481236,0
2025-04-21T10:50:59.518+03:00,1745221858.034492,40.95361963094089,29.14097085298671,92.82853,-1,-1,-1,-1,30,24.9532621481264,-9999,12657.32329466667,-0.672332763671875,0.6815338134765625,-0.2816009521484375,12657.30941604167,-2.000394126483781,-1.175052951362199,-0.7458239337779928,-0.03799493983387947,-0.01185877900570631,-0.001021578442305326,0.004829645156860352,0.002529323101043701,-0.004761338233947754,XArbitraryZVertical,0.59821692870441,0.0236255032034395,0.5432348188549175,-0.5886206174780451,-0.6777574419975281,0.6785772442817688,-0.28315669298172,0,0,0,-1,-1,12638.664264,unknown,2,2025-04-21T10:50:40.858+03:00,2025-04-20T21:57:49.637+03:00,1480,1.071516,0,0,1109.802,1,4,2025-04-21T10:45:26.169+03:00,766914659.0172858,0,-47.47,100.3013,1,0.7,2025-04-21T10:50:54.212+03:00,92.00000000000001,1.533333333333333,2025-04-21T09:28:58.093+03:00,0.01174319131481236,0
2025-04-21T10:50:59.528+03:00,1745221858.034492,40.95361963094089,29.14097085298671,92.82853,-1,-1,-1,-1,30,24.9532621481264,-9999,12657.33336966667,-0.6767730712890625,0.680267333984375,-0.278289794921875,12657.31949066667,-2.000702277635219,-1.175335035785937,-0.7458973179247412,-0.01448528841137886,-0.008316708728671074,-0.003912939224392176,0.008830845355987549,-0.0001949071884155273,-0.0007145106792449951,XArbitraryZVertical,0.5983063186278406,0.02358837619717491,0.5432214906552885,-0.588543484171186,-0.6777912974357605,0.6786311268806458,-0.2829462885856628,0,0,0,-1,-1,12638.664264,unknown,2,2025-04-21T10:50:40.858+03:00,2025-04-20T21:57:49.637+03:00,1480,1.071516,0,0,1109.802,1,4,2025-04-21T10:45:26.169+03:00,766914659.0172858,0,-47.47,100.3013,1,0.7,2025-04-21T10:50:54.212+03:00,92.00000000000001,1.533333333333333,2025-04-21T09:28:58.093+03:00,0.01174319131481236,0
2025-04-21T10:50:59.539+03:00,1745221858.034492,40.95361963094089,29.14097085298671,92.82853,-1,-1,-1,-1,30,24.9532621481264,-9999,12657.34344566667,-0.6827850341796875,0.6770477294921875,-0.2780303955078125,12657.32956566667,-2.000871295241316,-1.175542668442277,-0.7458821514759845,-0.01063622254878283,-0.01022513024508953,-0.007968933321535587,0.004138350486755371,0.003951370716094971,0.001590073108673096,XArbitraryZVertical,0.5983628080549107,0.02360471633044302,0.5432132065313273,-0.5884931209523386,-0.6778596043586731,0.6786199808120728,-0.2828095257282257,0,0,0,-1,-1,12638.664264,unknown,2,2025-04-21T10:50:40.858+03:00,2025-04-20T21:57:49.637+03:00,1480,1.071516,0,0,1109.802,1,4,2025-04-21T10:45:26.169+03:00,766914659.0172858,0,-47.47,100.3013,1,0.7,2025-04-21T10:50:54.212+03:00,92.00000000000001,1.533333333333333,2025-04-21T09:28:58.093+03:00,0.01174319131481236,0
2025-04-21T10:50:59.549+03:00,1745221858.034492,40.95361963094089,29.14097085298671,92.82853,-1,-1,-1,-1,30,24.9532621481264,-9999,12657.35352166667,-0.6879119873046875,0.6792449951171875,-0.282135009765625,12657.33964166667,-2.001038088831353,-1.175729195958169,-0.7458533981789328,-0.009150777012109756,-0.00710530299693346,-0.007098645437508821,0.001035153865814209,0.000920712947845459,0.005178987979888916,XArbitraryZVertical,0.5984118934409907,0.02362059036200687,0.543214077859659,-0.5884416472337007,-0.6779302358627319,0.6785988807678223,-0.282690554857254,0,0,0,-1,-1,12638.664264,unknown,2,2025-04-21T10:50:40.858+03:00,2025-04-20T21:57:49.637+03:00,1480,1.071516,0,0,1109.802,1,4,2025-04-21T10:45:26.169+03:00,766914659.0172858,0,-47.47,100.3013,1,0.7,2025-04-21T10:50:54.212+03:00,92.00000000000001,1.533333333333333,2025-04-21T09:28:58.093+03:00,0.01174319131481236,0
2025-04-21T10:50:59.559+03:00,1745221858.034492,40.95361963094089,29.14097085298671,92.82853,-1,-1,-1,-1,30,24.9532621481264,-9999,12657.36359766667,-0.6858367919921875,0.675201416015625,-0.2850799560546875,12657.34971766667,-2.001198947949176,-1.175881927566407,-0.7458566360902554,-0.01341529749333858,-0.002991518005728722,-0.004890352487564087,-0.005545973777770996,-0.001324713230133057,0.004098087549209595,XArbitraryZVertical,0.598455670471579,0.02361617690833531,0.543214862793978,-0.588396614649794,-0.677971363067627,0.6786012649536133,-0.2825861871242523,0,0,0,-1,-1,12638.664264,unknown,2,2025-04-21T10:50:40.858+03:00,2025-04-20T21:57:49.637+03:00,1480,1.071516,0,0,1109.802,1,4,2025-04-21T10:45:26.169+03:00,766914659.0172858,0,-47.47,100.3013,1,0.7,2025-04-21T10:50:54.212+03:00,92.00000000000001,1.533333333333333,2025-04-21T09:28:58.093+03:00,0.01174319131481236,0
2025-04-21T10:50:59.569+03:00,1745221858.034492,40.95361963094089,29.14097085298671,92.82853,-1,-1,-1,-1,30,24.9532621481264,-9999,12657.37367366667,-0.6813201904296875,0.6776275634765625,-0.2872772216796875,12657.35979366667,-2.001461772985278,-1.176090358744237,-0.7458708995182846,-0.02205918543040752,-0.0002083154395222664,-0.00531063275411725,-0.009570062160491943,0.00051116943359375,0.0004587769508361816,XArbitraryZVertical,0.5985171398088863,0.02359344441853583,0.5432260439876366,-0.5883247455048086,-0.6780214309692383,0.6786117553710938,-0.2824411690235138,0,0,0,-1,-1,12638.664264,unknown,2,2025-04-21T10:50:40.858+03:00,2025-04-20T21:57:49.637+03:00,1480,1.071516,0,0,1109.802,1,4,2025-04-21T10:45:26.169+03:00,766914659.0172858,0,-47.47,100.3013,1,0.7,2025-04-21T10:50:54.212+03:00,92.00000000000001,1.533333333333333,2025-04-21T09:28:58.093+03:00,0.01174319131481236,0
2025-04-21T10:50:59.579+03:00,1745221858.034492,40.95361963094089,29.14097085298671,92.82853,-1,-1,-1,-1,30,24.9532621481264,-9999,12657.38374866667,-0.6760101318359375,0.688629150390625,-0.286346435546875,12657.36986966667,-2.001755301688413,-1.176315699023425,-0.7458652281778323,-0.01355917472392321,-0.0005121822468936443,-0.008111745119094849,-0.006847918033599854,-0.003925025463104248,-0.002881616353988647,XArbitraryZVertical,0.5985811308722722,0.02357398372358084,0.5432463769793356,-0.5882415110901801,-0.6780884265899658,0.6786075830459595,-0.2822898030281067,0,0,0,-1,-1,12638.664264,unknown,2,2025-04-21T10:50:40.858+03:00,2025-04-20T21:57:49.637+03:00,1480,1.071516,0,0,1109.802,1,4,2025-04-21T10:45:26.169+03:00,766914659.0172858,0,-47.47,100.3013,1,0.7,2025-04-21T10:50:54.212+03:00,92.00000000000001,1.533333333333333,2025-04-21T09:28:58.093+03:00,0.01174319131481236,0
2025-04-21T10:50:59.589+03:00,1745221858.034492,40.95361963094089,29.14097085298671,92.82853,-1,-1,-1,-1,30,24.9532621481264,-9999,12657.39382466667,-0.6676177978515625,0.6856231689453125,-0.2849273681640625,12657.37994466667,-2.001883573983283,-1.176418608529588,-0.7458584271945016,-0.00178893469274044,-0.00415764981880784,-0.002062308602035046,-0.00193178653717041,0.0004745125770568848,-0.004475533962249756,XArbitraryZVertical,0.5986097383353214,0.02356847891630272,0.5432551635211688,-0.588204576925017,-0.6781218647956848,0.6786025762557983,-0.2822218239307404,0,0,0,-1,-1,12638.664264,unknown,2,2025-04-21T10:50:40.858+03:00,2025-04-20T21:57:49.637+03:00,1480,1.071516,0,0,1109.802,1,4,2025-04-21T10:45:26.169+03:00,766914659.0172858,0,-47.47,100.3013,1,0.7,2025-04-21T10:50:54.212+03:00,92.00000000000001,1.533333333333333,2025-04-21T09:28:58.093+03:00,0.01174319131481236,0
2025-04-21T10:50:59.599+03:00,1745221858.034492,40.95361963094089,29.14097085298671,92.82853,-1,-1,-1,-1,30,24.9532621481264,-9999,12657.40390066667,-0.6668853759765625,0.6727142333984375,-0.2773590087890625,12657.39002066667,-2.001930151251407,-1.176526314627861,-0.7458411782928113,-0.002309316536411643,-0.01420708931982517,-0.004815218038856983,0.00341951847076416,0.01058858633041382,-0.004528790712356567,XArbitraryZVertical,0.5986373814536643,0.0235928335895373,0.5432413068816417,-0.5881883890244427,-0.6781631708145142,0.678589940071106,-0.2821533381938934,0,0,0,-1,-1,12638.664264,unknown,2,2025-04-21T10:50:40.858+03:00,2025-04-20T21:57:49.637+03:00,1480,1.071516,0,0,1109.802,1,4,2025-04-21T10:45:26.169+03:00,766914659.0172858,0,-47.47,100.3013,1,0.7,2025-04-21T10:50:54.212+03:00,92.00000000000001,1.533333333333333,2025-04-21T09:28:58.093+03:00,0.01174319131481236,0
2025-04-21T10:50:59.609+03:00,1745221858.034492,40.95361963094089,29.14097085298671,92.82853,-1,-1,-1,-1,30,24.9532621481264,-9999,12657.41397666667,-0.6790313720703125,0.6722564697265625,-0.2745361328125,12657.40009666667,-2.001964372534607,-1.176723966334045,-0.7457933912349267,-0.001938670873641968,-0.01828525215387344,-0.008409054018557072,0.01102781295776367,0.005374610424041748,-0.001552820205688477,XArbitraryZVertical,0.5986855648172072,0.02365888157165482,0.5432049264567271,-0.5881702288706723,-0.6782488226890564,0.6785548329353333,-0.2820317149162292,0,0,0,-1,-1,12638.664264,unknown,2,2025-04-21T10:50:40.858+03:00,2025-04-20T21:57:49.637+03:00,1480,1.071516,0,0,1109.802,1,4,2025-04-21T10:45:26.169+03:00,766914659.0172858,0,-47.47,100.3013,1,0.7,2025-04-21T10:50:54.212+03:00,92.00000000000001,1.533333333333333,2025-04-21T09:28:58.093+03:00,0.01174319131481236,0
2025-04-21T10:50:59.619+03:00,1745221858.034492,40.95361963094089,29.14097085298671,92.82853,-1,-1,-1,-1,30,24.9532621481264,-9999,12657.42405166667,-0.685150146484375,0.6799774169921875,-0.2772369384765625,12657.41017266667,-2.002030942563753,-1.176931428049485,-0.7457376385004859,-0.001789267640560865,-0.01093519572168589,-0.007614899426698685,0.01066339015960693,-0.007508635520935059,0.005751967430114746,XArbitraryZVertical,0.5987358056756905,0.02372116582295758,0.5431772534871089,-0.5881420852277474,-0.6783421635627747,0.6785138845443726,-0.281905472278595,0,0,0,-1,-1,12638.664264,unknown,2,2025-04-21T10:50:40.858+03:00,2025-04-20T21:57:49.637+03:00,1480,1.071516,0,0,1109.802,1,4,2025-04-21T10:45:26.169+03:00,766914659.0172858,0,-47.47,100.3013,1,0.7,2025-04-21T10:50:54.212+03:00,92.00000000000001,1.533333333333333,2025-04-21T09:28:58.093+03:00,0.01174319131481236,0
2025-04-21T10:50:59.629+03:00,1745221858.034492,40.95361963094089,29.14097085298671,92.82853,-1,-1,-1,-1,30,24.9532621481264,-9999,12657.43412766667,-0.680419921875,0.6795806884765625,-0.27655029296875,12657.42024766667,-2.002101514402404,-1.177053969576769,-0.7456683165979913,-0.003473850199952722,-0.005450814962387085,-0.00880713015794754,-0.00201493501663208,-0.004650115966796875,0.006816059350967407,XArbitraryZVertical,0.5987613446325901,0.02376245790222165,0.5431798230999872,-0.5881120350628899,-0.6784201264381409,0.6784629225730896,-0.2818403840065002,0,0,0,-1,-1,12638.664264,unknown,2,2025-04-21T10:50:40.858+03:00,2025-04-20T21:57:49.637+03:00,1480,1.071516,0,0,1109.802,1,4,2025-04-21T10:45:26.169+03:00,766914659.0172858,0,-47.47,100.3013,1,0.7,2025-04-21T10:50:54.212+03:00,92.00000000000001,1.533333333333333,2025-04-21T09:28:58.093+03:00,0.01174319131481236,0
2025-04-21T10:50:59.639+03:00,1745221858.034492,40.95361963094089,29.14097085298671,92.82853,-1,-1,-1,-1,30,24.9532621481264,-9999,12657.44420366667,-0.6810760498046875,0.676544189453125,-0.2777252197265625,12657.43032366667,-2.002221142295578,-1.17719954277424,-0.7456165557662577,-0.005296251270920038,-0.006334717385470867,-0.00790352001786232,-0.006244480609893799,0.001476168632507324,0.004914969205856323,XArbitraryZVertical,0.5987958992933041,0.02378914602018041,0.5431852281797657,-0.5880707687702935,-0.6784935593605042,0.6784248948097229,-0.2817550897598267,0,0,0,-1,-1,12638.664264,unknown,2,2025-04-21T10:50:40.858+03:00,2025-04-20T21:57:49.637+03:00,1480,1.071516,0,0,1109.802,1,4,2025-04-21T10:45:26.169+03:00,766914659.0172858,0,-47.47,100.3013,1,0.7,2025-04-21T10:50:54.212+03:00,92.00000000000001,1.533333333333333,2025-04-21T09:28:58.093+03:00,0.01174319131481236,0
2025-04-21T10:50:59.650+03:00,1745221858.034492,40.95361963094089,29.14097085298671,92.82853,-1,-1,-1,-1,30,24.9532621481264,-9999,12657.45427966667,-0.6826324462890625,0.6844024658203125,-0.27764892578125,12657.44039966667,-2.002333614778621,-1.177275504181414,-0.7455631944732378,-0.003958279266953468,0.006054840050637722,-0.006421337369829416,-0.001932442188262939,0.0004930496215820312,0.005426585674285889,XArbitraryZVertical,0.5988112554660934,0.02379814023942394,0.5432098327772232,-0.5880320898169389,-0.6785484552383423,0.6783856749534607,-0.281717449426651,0,0,0,-1,-1,12638.664264,unknown,2,2025-04-21T10:50:40.858+03:00,2025-04-20T21:57:49.637+03:00,1480,1.071516,0,0,1109.802,1,4,2025-04-21T10:45:26.169+03:00,766914659.0172858,0,-47.47,100.3013,1,0.7,2025-04-21T10:50:54.212+03:00,92.00000000000001,1.533333333333333,2025-04-21T09:28:58.093+03:00,0.01174319131481236,0
2025-04-21T10:50:59.662+03:00,1745221858.034492,40.95361963094089,29.14097085298671,92.82853,-1,-1,-1,-1,30,24.9532621481264,-9999,12657.46435466667,-0.6729278564453125,0.679412841796875,-0.2824249267578125,12657.45047566667,-2.002407107409963,-1.177267477245717,-0.7454849747860028,-0.00756020424887538,0.004976525902748108,-0.006124661304056644,-0.002938568592071533,-0.001173794269561768,0.003850191831588745,XArbitraryZVertical,0.598800292656345,0.02380350789610241,0.5432546615646301,-0.5880015187857121,-0.6785951256752014,0.6783282160758972,-0.281743198633194,0,0,0,-1,-1,12638.664264,unknown,2,2025-04-21T10:50:40.858+03:00,2025-04-20T21:57:49.637+03:00,1480,1.071516,0,0,1109.802,1,4,2025-04-21T10:45:26.169+03:00,766914659.0172858,0,-47.47,100.3013,1,0.7,2025-04-21T10:50:54.212+03:00,92.00000000000001,1.533333333333333,2025-04-21T09:28:58.093+03:00,0.01174319131481236,0
2025-04-21T10:50:59.670+03:00,1745221858.034492,40.95361963094089,29.14097085298671,92.82853,-1,-1,-1,-1,30,24.9532621481264,-9999,12657.47443066667,-0.671783447265625,0.6685791015625,-0.2866363525390625,12657.46055066667,-2.002551819672154,-1.177347429781941,-0.7454621504271517,-0.01196047943085432,-0.002070930320769548,-0.007442359812557697,-0.002749145030975342,0.006960690021514893,0.003573030233383179,XArbitraryZVertical,0.5988208977558614,0.02379239760314474,0.5432793947679125,-0.5879581863365301,-0.6786319613456726,0.6783114671707153,-0.2816949188709259,0,0,0,-1,-1,12638.664264,unknown,2,2025-04-21T10:50:40.858+03:00,2025-04-20T21:57:49.637+03:00,1480,1.071516,0,0,1109.802,1,4,2025-04-21T10:45:26.169+03:00,766914659.0172858,0,-47.47,100.3013,1,0.7,2025-04-21T10:50:54.212+03:00,92.00000000000001,1.533333333333333,2025-04-21T09:28:58.093+03:00,0.01174319131481236,0
2025-04-21T10:50:59.697+03:00,1745221858.034492,40.95361963094089,29.14097085298671,92.82853,-1,-1,-1,-1,30,24.9532621481264,-9999,12657.48450666667,-0.6765594482421875,0.6743621826171875,-0.2866973876953125,12657.47062666667,-2.002764284225323,-1.17748879646879,-0.7454786047142791,-0.01635336317121983,0.001866819569841027,-0.007064990233629942,0.007106959819793701,-0.0007265806198120117,-0.001760989427566528,XArbitraryZVertical,0.5988638711683367,0.02376405028653501,0.5432950960635251,-0.5879009965333648,-0.6786614060401917,0.6783235669136047,-0.2815946638584137,0,0,0,-1,-1,12638.664264,unknown,2,2025-04-21T10:50:40.858+03:00,2025-04-20T21:57:49.637+03:00,1480,1.071516,0,0,1109.802,1,4,2025-04-21T10:45:26.169+03:00,766914659.0172858,0,-47.47,100.3013,1,0.7,2025-04-21T10:50:54.212+03:00,92.00000000000001,1.533333333333333,2025-04-21T09:28:58.093+03:00,0.01174319131481236,0
2025-04-21T10:50:59.698+03:00,1745221858.034492,40.95361963094089,29.14097085298671,92.82853,-1,-1,-1,-1,30,24.9532621481264,-9999,12657.49458266667,-0.6746368408203125,0.6833648681640625,-0.285980224609375,12657.48070266667,-2.002940930337253,-1.177579137479738,-0.7455041762240349,-0.005874489899724722,0.003706664545461535,-0.004091504029929638,0.005697369575500488,-0.01009899377822876,-0.004560261964797974,XArbitraryZVertical,0.5988936649714947,0.02372798765869983,0.5433131587152257,-0.587855436739362,-0.6786708831787109,0.678342342376709,-0.2815267145633698,0,0,0,-1,-1,12638.664264,unknown,2,2025-04-21T10:50:40.858+03:00,2025-04-20T21:57:49.637+03:00,1480,1.071516,0,0,1109.802,1,4,2025-04-21T10:45:26.169+03:00,766914659.0172858,0,-47.47,100.3013,1,0.7,2025-04-21T10:50:54.212+03:00,92.00000000000001,1.533333333333333,2025-04-21T09:28:58.093+03:00,0.01174319131481236,0
2025-04-21T10:50:59.700+03:00,1745221858.034492,40.95361963094089,29.14097085298671,92.82853,-1,-1,-1,-1,30,24.9532621481264,-9999,12657.50465766667,-0.6744842529296875,0.67999267578125,-0.283050537109375,12657.49077866667,-2.002991623928256,-1.177566751230928,-0.745490711784113,-0.000131117005366832,0.00688674533739686,-0.003278707386925817,0.002345383167266846,-0.002658069133758545,-0.005326569080352783,XArbitraryZVertical,0.5988892282026008,0.02371431245994771,0.5433353908278622,-0.5878400064738151,-0.6786758899688721,0.6783324480056763,-0.2815386354923248,0,0,0,-1,-1,12638.664264,unknown,2,2025-04-21T10:50:40.858+03:00,2025-04-20T21:57:49.637+03:00,1480,1.071516,0,0,1109.802,1,4,2025-04-21T10:45:26.169+03:00,766914659.0172858,0,-47.47,100.3013,1,0.7,2025-04-21T10:50:54.212+03:00,92.00000000000001,1.533333333333333,2025-04-21T09:28:58.093+03:00,0.01174319131481236,0
2025-04-21T10:50:59.710+03:00,1745221858.034492,40.95361963094089,29.14097085298671,92.82853,-1,-1,-1,-1,30,24.9532621481264,-9999,12657.51473366667,-0.67449951171875,0.6776275634765625,-0.2799072265625,12657.50085366667,-2.002985781685561,-1.177478760109376,-0.7454648116433976,0.007530065253376961,0.01047115959227085,0.0005410978337749839,0.004701912403106689,0.00526505708694458,-0.004741311073303223,XArbitraryZVertical,0.5988620616610537,0.02370004115901009,0.5433669086780942,-0.587839083401666,-0.6786672472953796,0.6783134341239929,-0.281605064868927,0,0,0,-1,-1,12638.664264,unknown,2,2025-04-21T10:50:40.858+03:00,2025-04-20T21:57:49.637+03:00,1480,1.071516,0,0,1109.802,1,4,2025-04-21T10:45:26.169+03:00,766914659.0172858,0,-47.47,100.3013,1,0.7,2025-04-21T10:50:54.212+03:00,92.00000000000001,1.533333333333333,2025-04-21T09:28:58.093+03:00,0.01174319131481236,0
2025-04-21T10:50:59.720+03:00,1745221858.034492,40.95361963094089,29.14097085298671,92.82853,-1,-1,-1,-1,30,24.9532621481264,-9999,12657.52480966667,-0.6704254150390625,0.6757965087890625,-0.275543212890625,12657.51092966667,-2.002900072439881,-1.177312367555916,-0.7453948553879741,0.00998976081609726,0.00932147353887558,-0.00385471573099494,0.00363081693649292,0.001517057418823242,-0.001237988471984863,XArbitraryZVertical,0.5988071717982822,0.02370346869527313,0.5434102684292554,-0.5878548727748657,-0.6786643266677856,0.6782619953155518,-0.2817362248897552,0,0,0,-1,-1,12638.664264,unknown,2,2025-04-21T10:50:40.858+03:00,2025-04-20T21:57:49.637+03:00,1480,1.071516,0,0,1109.802,1,4,2025-04-21T10:45:26.169+03:00,766914659.0172858,0,-47.47,100.3013,1,0.7,2025-04-21T10:50:54.212+03:00,92.00000000000001,1.533333333333333,2025-04-21T09:28:58.093+03:00,0.01174319131481236,0
2025-04-21T10:50:59.730+03:00,1745221858.034492,40.95361963094089,29.14097085298671,92.82853,-1,-1,-1,-1,30,24.9532621481264,-9999,12657.53488566667,-0.6683807373046875,0.67535400390625,-0.27783203125,12657.52100566667,-2.002874457338498,-1.177217537853298,-0.7453328270594527,0.0004846058436669409,0.004056070931255817,-0.004991918802261353,0.003917574882507324,-0.001229822635650635,0.002260476350784302,XArbitraryZVertical,0.5987734463267417,0.02370684737806893,0.5434476413834883,-0.5878544672852439,-0.6786763668060303,0.6782164573669434,-0.281816691160202,0,0,0,-1,-1,12638.664264,unknown,2,2025-04-21T10:50:40.858+03:00,2025-04-20T21:57:49.637+03:00,1480,1.071516,0,0,1109.802,1,4,2025-04-21T10:45:26.169+03:00,766914659.0172858,0,-47.47,100.3013,1,0.7,2025-04-21T10:50:54.212+03:00,92.00000000000001,1.533333333333333,2025-04-21T09:28:58.093+03:00,0.01174319131481236,0
2025-04-21T10:50:59.740+03:00,1745221858.034492,40.95361963094089,29.14097085298671,92.82853,-1,-1,-1,-1,30,24.9532621481264,-9999,12657.54496166667,-0.6741485595703125,0.6850738525390625,-0.282470703125,12657.53108166667,-2.00296281544347,-1.17727999382309,-0.7452931736914463,-0.005524284671992064,-0.002066003624349833,-0.005298182368278503,0.008873343467712402,-0.002268731594085693,0.006622970104217529,XArbitraryZVertical,0.5987865499918881,0.02371387138713158,0.5434655321577556,-0.5878243534576596,-0.6787188649177551,0.6781873106956482,-0.2817846536636353,0,0,0,-1,-1,12638.664264,unknown,2,2025-04-21T10:50:40.858+03:00,2025-04-20T21:57:49.637+03:00,1480,1.071516,0,0,1109.802,1,4,2025-04-21T10:45:26.169+03:00,766914659.0172858,0,-47.47,100.3013,1,0.7,2025-04-21T10:50:54.212+03:00,92.00000000000001,1.533333333333333,2025-04-21T09:28:58.093+03:00,0.01174319131481236,0
2025-04-21T10:50:59.750+03:00,1745221858.034492,40.95361963094089,29.14097085298671,92.82853,-1,-1,-1,-1,30,24.9532621481264,-9999,12657.55503666667,-0.6720123291015625,0.690216064453125,-0.289337158203125,12657.54115766667,-2.003065345805979,-1.177355590084351,-0.7452641934934296,-0.003927120007574558,-0.0001702988520264626,-0.006281920708715916,0.009889364242553711,-0.001820266246795654,0.003130704164505005,XArbitraryZVertical,0.5988047346642225,0.02371640443870091,0.5434807377430338,-0.5877916200766232,-0.6787582635879517,0.6781659722328186,-0.2817408442497253,0,0,0,-1,-1,12638.664264,unknown,2,2025-04-21T10:50:40.858+03:00,2025-04-20T21:57:49.637+03:00,1480,1.071516,0,0,1109.802,1,4,2025-04-21T10:45:26.169+03:00,766914659.0172858,0,-47.47,100.3013,1,0.7,2025-04-21T10:50:54.212+03:00,92.00000000000001,1.533333333333333,2025-04-21T09:28:58.093+03:00,0.01174319131481236,0
2025-04-21T10:50:59.760+03:00,1745221858.034492,40.95361963094089,29.14097085298671,92.82853,-1,-1,-1,-1,30,24.9532621481264,-9999,12657.56511266667,-0.6697845458984375,0.677001953125,-0.29205322265625,12657.55123266667,-2.003065107689861,-1.177372014418805,-0.745205848009176,0.006823794916272163,-0.005446020513772964,-0.005917600356042385,0.004635751247406006,0.008369803428649902,-0.001763403415679932,XArbitraryZVertical,0.5988019766653596,0.02374352643320288,0.5434913388577741,-0.5877835593770088,-0.6787995100021362,0.6781231164932251,-0.2817448675632477,0,0,0,-1,-1,12638.664264,unknown,2,2025-04-21T10:50:40.858+03:00,2025-04-20T21:57:49.637+03:00,1480,1.071516,0,0,1109.802,1,4,2025-04-21T10:45:26.169+03:00,766914659.0172858,0,-47.47,100.3013,1,0.7,2025-04-21T10:50:54.212+03:00,92.00000000000001,1.533333333333333,2025-04-21T09:28:58.093+03:00,0.01174319131481236,0
2025-04-21T10:50:59.770+03:00,1745221858.034492,40.95361963094089,29.14097085298671,92.82853,-1,-1,-1,-1,30,24.9532621481264,-9999,12657.57518866667,-0.6726837158203125,0.666351318359375,-0.2830657958984375,12657.56130866667,-2.002990659504686,-1.17737942403661,-0.7451272252838268,0.006494761444628239,-0.01120976638048887,-0.004246932920068502,0.007647335529327393,0.01129627227783203,-0.008309215307235718,XArbitraryZVertical,0.5987933649915945,0.02379796648482347,0.5434882838219767,-0.5877930516748653,-0.6788508892059326,0.678065299987793,-0.2817603349685669,0,0,0,-1,-1,12638.664264,unknown,2,2025-04-21T10:50:40.858+03:00,2025-04-20T21:57:49.637+03:00,1480,1.071516,0,0,1109.802,1,4,2025-04-21T10:45:26.169+03:00,766914659.0172858,0,-47.47,100.3013,1,0.7,2025-04-21T10:50:54.212+03:00,92.00000000000001,1.533333333333333,2025-04-21T09:28:58.093+03:00,0.01174319131481236,0
2025-04-21T10:50:59.781+03:00,1745221858.034492,40.95361963094089,29.14097085298671,92.82853,-1,-1,-1,-1,30,24.9532621481264,-9999,12657.58526466667,-0.678192138671875,0.6697845458984375,-0.27606201171875,12657.57138466667,-2.002915008792461,-1.177441817843474,-0.745069371131026,0.007109152618795633,-0.0124609200283885,-0.003749454393982887,0.00936424732208252,-0.002439975738525391,-0.01013711094856262,XArbitraryZVertical,0.5988023035184792,0.02386089433369359,0.5434626871308443,-0.587804864870305,-0.6789045333862305,0.6780228018760681,-0.2817329168319702,0,0,0,-1,-1,12638.664264,unknown,2,2025-04-21T10:50:40.858+03:00,2025-04-20T21:57:49.637+03:00,1480,1.071516,0,0,1109.802,1,4,2025-04-21T10:45:26.169+03:00,766914659.0172858,0,-47.47,100.3013,1,0.7,2025-04-21T10:50:54.212+03:00,92.00000000000001,1.533333333333333,2025-04-21T09:28:58.093+03:00,0.01174319131481236,0
2025-04-21T10:50:59.790+03:00,1745221858.034492,40.95361963094089,29.14097085298671,92.82853,-1,-1,-1,-1,30,24.9532621481264,-9999,12657.59533966667,-0.68194580078125,0.6772003173828125,-0.276153564453125,12657.58146066667,-2.002849540513493,-1.177518868319221,-0.7450229418823494,0.003650904633104801,-0.01263229548931122,-0.003233000868931413,0.005203604698181152,-0.01203417778015137,-0.0001828372478485107,XArbitraryZVertical,0.5988167158439044,0.02392081620795033,0.5434327677399517,-0.5878154088453577,-0.6789553165435791,0.6779886484146118,-0.2816926836967468,0,0,0,-1,-1,12638.664264,unknown,2,2025-04-21T10:50:40.858+03:00,2025-04-20T21:57:49.637+03:00,1480,1.071516,0,0,1109.802,1,4,2025-04-21T10:45:26.169+03:00,766914659.0172858,0,-47.47,100.3013,1,0.7,2025-04-21T10:50:54.212+03:00,92.00000000000001,1.533333333333333,2025-04-21T09:28:58.093+03:00,0.01174319131481236,0
2025-04-21T10:50:59.801+03:00,1745221858.034492,40.95361963094089,29.14097085298671,92.82853,-1,-1,-1,-1,30,24.9532621481264,-9999,12657.60541566667,-0.6846160888671875,0.6700897216796875,-0.2794036865234375,12657.59153566667,-2.00286818349583,-1.177639543032572,-0.745000554148476,-0.007741033565253019,-0.009266058914363384,-0.002679595956578851,0.0004450678825378418,-0.006814479827880859,0.006058186292648315,XArbitraryZVertical,0.5988469565047556,0.02395922860506483,0.5434080974518164,-0.5878058557547696,-0.6790032982826233,0.6779721975326538,-0.2816165685653687,0,0,0,-1,-1,12638.664264,unknown,2,2025-04-21T10:50:40.858+03:00,2025-04-20T21:57:49.637+03:00,1480,1.071516,0,0,1109.802,1,4,2025-04-21T10:45:26.169+03:00,766914659.0172858,0,-47.47,100.3013,1,0.7,2025-04-21T10:50:54.212+03:00,92.00000000000001,1.533333333333333,2025-04-21T09:28:58.093+03:00,0.01174319131481236,0
2025-04-21T10:50:59.811+03:00,1745221858.034492,40.95361963094089,29.14097085298671,92.82853,-1,-1,-1,-1,30,24.9532621481264,-9999,12657.61549166667,-0.6903076171875,0.6756744384765625,-0.2868499755859375,12657.60161166667,-2.003048582917118,-1.177822944917838,-0.7450460185618692,-0.01427017245441675,-0.0007211738266050816,0.0001261107390746474,-0.003193795680999756,-0.001080036163330078,0.005235224962234497,XArbitraryZVertical,0.5989045570845838,0.0239418266809942,0.5433940975187328,-0.5877608741680123,-0.6790265440940857,0.6780056357383728,-0.2814802527427673,0,0,0,-1,-1,12638.664264,unknown,2,2025-04-21T10:50:40.858+03:00,2025-04-20T21:57:49.637+03:00,1480,1.071516,0,0,1109.802,1,4,2025-04-21T10:45:26.169+03:00,766914659.0172858,0,-47.47,100.3013,1,0.7,2025-04-21T10:50:54.212+03:00,92.00000000000001,1.533333333333333,2025-04-21T09:28:58.093+03:00,0.01174319131481236,0
2025-04-21T10:50:59.821+03:00,1745221858.034492,40.95361963094089,29.14097085298671,92.82853,-1,-1,-1,-1,30,24.9532621481264,-9999,12657.62556766667,-0.6884613037109375,0.689666748046875,-0.2904815673828125,12657.61168766667,-2.003217784428725,-1.177887142331286,-0.7450968159753099,-0.008806164376437664,0.01003826316446066,-0.001806278945878148,-0.006488204002380371,-0.008121192455291748,0.00217244029045105,XArbitraryZVertical,0.598930298433742,0.02389068985736026,0.5434110438954836,-0.5877210643717405,-0.6790127754211426,0.6780429482460022,-0.2814234793186188,0,0,0,-1,-1,12638.664264,unknown,2,2025-04-21T10:50:40.858+03:00,2025-04-20T21:57:49.637+03:00,1480,1.071516,0,0,1109.802,1,4,2025-04-21T10:45:26.169+03:00,766914659.0172858,0,-47.47,100.3013,1,0.7,2025-04-21T10:50:54.212+03:00,92.00000000000001,1.533333333333333,2025-04-21T09:28:58.093+03:00,0.01174319131481236,0
2025-04-21T10:50:59.830+03:00,1745221858.034492,40.95361963094089,29.14097085298671,92.82853,-1,-1,-1,-1,30,24.9532621481264,-9999,12657.63564266667,-0.6773834228515625,0.6912384033203125,-0.288818359375,12657.62176366667,-2.003221251749095,-1.177791031149034,-0.7450563578103608,0.009922183118760586,0.006502850446850061,-0.006860725581645966,-0.01096069812774658,-0.0005534887313842773,-0.007074922323226929,XArbitraryZVertical,0.5988992070847119,0.02387685032658786,0.5434517008072846,-0.5877158116389384,-0.6790111660957336,0.6780132651329041,-0.2814992666244507,0,0,0,-1,-1,12638.664264,unknown,2,2025-04-21T10:50:40.858+03:00,2025-04-20T21:57:49.637+03:00,1480,1.071516,0,0,1109.802,1,4,2025-04-21T10:45:26.169+03:00,766914659.0172858,0,-47.47,100.3013,1,0.7,2025-04-21T10:50:54.212+03:00,92.00000000000001,1.533333333333333,2025-04-21T09:28:58.093+03:00,0.01174319131481236,0
2025-04-21T10:50:59.859+03:00,1745221858.034492,40.95361963094089,29.14097085298671,92.82853,-1,-1,-1,-1,30,24.9532621481264,-9999,12657.64571866667,-0.671905517578125,0.6809234619140625,-0.2870941162109375,12657.63183866667,-2.003068062513578,-1.17761321426118,-0.744924271886894,0.01973113790154457,0.005938526708632708,-0.01336443144828081,-0.008913934230804443,0.01251345872879028,-0.009040862321853638,XArbitraryZVertical,0.5988327513567173,0.02392070587452242,0.5434951153571074,-0.5877414968491211,-0.679043710231781,0.6779161691665649,-0.2816542685031891,0,0,0,-1,-1,12638.664264,unknown,2,2025-04-21T10:50:40.858+03:00,2025-04-20T21:57:49.637+03:00,1480,1.071516,0,0,1109.802,1,4,2025-04-21T10:45:26.169+03:00,766914659.0172858,0,-47.47,100.3013,1,0.7,2025-04-21T10:50:54.212+03:00,92.00000000000001,1.533333333333333,2025-04-21T09:28:58.093+03:00,0.01174319131481236,0
2025-04-21T10:50:59.862+03:00,1745221858.034492,40.95361963094089,29.14097085298671,92.82853,-1,-1,-1,-1,30,24.9532621481264,-9999,12657.65579466667,-0.673004150390625,0.6743927001953125,-0.2817535400390625,12657.64191466667,-2.002834601059003,-1.177386109543171,-0.7447451201930567,0.02805751003324986,0.0008385730907320976,-0.01174482982605696,0.003097116947174072,0.01235532760620117,-0.006261348724365234,XArbitraryZVertical,0.5987460775453668,0.02399206215114424,0.5435423077245433,-0.5877832502187789,-0.6790919303894043,0.6777844429016113,-0.2818550169467926,0,0,0,-1,-1,12638.664264,unknown,2,2025-04-21T10:50:40.858+03:00,2025-04-20T21:57:49.637+03:00,1480,1.071516,0,0,1109.802,1,4,2025-04-21T10:45:26.169+03:00,766914659.0172858,0,-47.47,100.3013,1,0.7,2025-04-21T10:50:54.212+03:00,92.00000000000001,1.533333333333333,2025-04-21T09:28:58.093+03:00,0.01174319131481236,0
2025-04-21T10:50:59.864+03:00,1745221858.034492,40.95361963094089,29.14097085298671,92.82853,-1,-1,-1,-1,30,24.9532621481264,-9999,12657.66587066667,-0.67242431640625,0.680328369140625,-0.2772216796875,12657.65199066667,-2.0024924406461,-1.177105051340341,-0.7445039823112142,0.02951612323522568,0.003530496265739202,-0.01431051921099424,0.007441222667694092,0.001256346702575684,-0.00457349419593811,XArbitraryZVertical,0.5986357303304752,0.02410365908188569,0.5435901924144728,-0.5878467490023206,-0.6791635155677795,0.6776071190834045,-0.2821085453033447,0,0,0,-1,-1,12638.664264,unknown,2,2025-04-21T10:50:40.858+03:00,2025-04-20T21:57:49.637+03:00,1480,1.071516,0,0,1109.802,1,4,2025-04-21T10:45:26.169+03:00,766914659.0172858,0,-47.47,100.3013,1,0.7,2025-04-21T10:50:54.212+03:00,92.00000000000001,1.533333333333333,2025-04-21T09:28:58.093+03:00,0.01174319131481236,0
2025-04-21T10:50:59.872+03:00,1745221858.034492,40.95361963094089,29.14097085298671,92.82853,-1,-1,-1,-1,30,24.9532621481264,-9999,12657.67594566667,-0.6729888916015625,0.6731719970703125,-0.2769012451171875,12657.66206666667,-2.002255696692322,-1.176942381971994,-0.7442894688963627,0.02021663263440132,-0.005223313812166452,-0.01432689838111401,0.006263136863708496,-0.003438174724578857,0.0007654726505279541,XArbitraryZVertical,0.5985620665861099,0.02420837553852592,0.5436265435592709,-0.587883869416339,-0.6792519092559814,0.6774493455886841,-0.2822748124599457,0,0,0,-1,-1,12638.664264,unknown,2,2025-04-21T10:50:40.858+03:00,2025-04-20T21:57:49.637+03:00,1480,1.071516,0,0,1109.802,1,4,2025-04-21T10:45:26.169+03:00,766914659.0172858,0,-47.47,100.3013,1,0.7,2025-04-21T10:50:54.212+03:00,92.00000000000001,1.533333333333333,2025-04-21T09:28:58.093+03:00,0.01174319131481236,0
2025-04-21T10:50:59.881+03:00,1745221858.034492,40.95361963094089,29.14097085298671,92.82853,-1,-1,-1,-1,30,24.9532621481264,-9999,12657.68602166667,-0.6789398193359375,0.66796875,-0.2771148681640625,12657.67214166667,-2.002134638990746,-1.176919349364768,-0.7441019468249445,0.01191635802388191,-0.003743395674973726,-0.01369519531726837,0.006480753421783447,0.003322124481201172,0.005132853984832764,XArbitraryZVertical,0.5985310609781408,0.02430926763535279,0.5436479510641572,-0.587891591675629,-0.6793627738952637,0.6773113608360291,-0.2823392450809479,0,0,0,-1,-1,12638.664264,unknown,2,2025-04-21T10:50:40.858+03:00,2025-04-20T21:57:49.637+03:00,1480,1.071516,0,0,1109.802,1,4,2025-04-21T10:45:26.169+03:00,766914659.0172858,0,-47.47,100.3013,1,0.7,2025-04-21T10:50:54.212+03:00,92.00000000000001,1.533333333333333,2025-04-21T09:28:58.093+03:00,0.01174319131481236,0
2025-04-21T10:50:59.891+03:00,1745221858.034492,40.95361963094089,29.14097085298671,92.82853,-1,-1,-1,-1,30,24.9532621481264,-9999,12657.69609766667,-0.680908203125,0.673309326171875,-0.2837677001953125,12657.68221766667,-2.002083607498168,-1.176913436989341,-0.7439489505309859,0.008751058019697666,0.0005084741860628128,-0.01329552195966244,0.005903363227844238,-0.005766332149505615,0.005802273750305176,XArbitraryZVertical,0.5985098608155754,0.02438102680050981,0.5436755117617482,-0.5878846806769934,-0.6794567704200745,0.6771988272666931,-0.2823830246925354,0,0,0,-1,-1,12638.664264,unknown,2,2025-04-21T10:50:40.858+03:00,2025-04-20T21:57:49.637+03:00,1480,1.071516,0,0,1109.802,1,4,2025-04-21T10:45:26.169+03:00,766914659.0172858,0,-47.47,100.3013,1,0.7,2025-04-21T10:50:54.212+03:00,92.00000000000001,1.533333333333333,2025-04-21T09:28:58.093+03:00,0.01174319131481236,0
2025-04-21T10:50:59.901+03:00,1745221858.034492,40.95361963094089,29.14097085298671,92.82853,-1,-1,-1,-1,30,24.9532621481264,-9999,12657.70617366667,-0.673828125,0.670135498046875,-0.284271240234375,12657.69229366667,-2.002069867275053,-1.176905301479545,-0.7437940140055842,0.004299850203096867,-0.001448949333280325,-0.009646991267800331,-0.0003497600555419922,-0.008185386657714844,0.003818601369857788,XArbitraryZVertical,0.5984882791577385,0.02444167933681749,0.5437151679908421,-0.5878673484611453,-0.6795512437820435,0.6770848035812378,-0.2824287712574005,0,0,0,-1,-1,12638.664264,unknown,2,2025-04-21T10:50:40.858+03:00,2025-04-20T21:57:49.637+03:00,1480,1.071516,0,0,1109.802,1,4,2025-04-21T10:45:26.169+03:00,766914659.0172858,0,-47.47,100.3013,1,0.7,2025-04-21T10:50:54.212+03:00,92.00000000000001,1.533333333333333,2025-04-21T09:28:58.093+03:00,0.01174319131481236,0
2025-04-21T10:50:59.911+03:00,1745221858.034492,40.95361963094089,29.14097085298671,92.82853,-1,-1,-1,-1,30,24.9532621481264,-9999,12657.71624966667,-0.6724853515625,0.6730194091796875,-0.2799530029296875,12657.70236966667,-2.002100053282027,-1.176959874623815,-0.743698468425147,-0.001642793882638216,-0.004774505272507668,-0.008978438563644886,-0.0005187392234802246,-0.003842532634735107,-0.002388745546340942,XArbitraryZVertical,0.5984916286255957,0.024485056692603,0.543733193343613,-0.5878454591913289,-0.6796264052391052,0.6770144701004028,-0.2824164927005768,0,0,0,-1,-1,12638.664264,unknown,2,2025-04-21T10:50:40.858+03:00,2025-04-20T21:57:49.637+03:00,1480,1.071516,0,0,1109.802,1,4,2025-04-21T10:45:26.169+03:00,766914659.0172858,0,-47.47,100.3013,1,0.7,2025-04-21T10:50:54.212+03:00,92.00000000000001,1.533333333333333,2025-04-21T09:28:58.093+03:00,0.01174319131481236,0
2025-04-21T10:50:59.921+03:00,1745221858.034492,40.95361963094089,29.14097085298671,92.82853,-1,-1,-1,-1,30,24.9532621481264,-9999,12657.72632466667,-0.6788482666015625,0.67449951171875,-0.2800750732421875,12657.71244566667,-2.002177418602066,-1.177058543423957,-0.743624020444031,-0.003128038719296455,-0.007108499296009541,-0.01113373413681984,0.006681561470031738,-0.007068336009979248,-0.001200437545776367,XArbitraryZVertical,0.5985101443592156,0.02451928552956458,0.5437463217886056,-0.5878131325854625,-0.6797009110450745,0.6769596934318542,-0.2823688089847565,0,0,0,-1,-1,12638.664264,unknown,2,2025-04-21T10:50:40.858+03:00,2025-04-20T21:57:49.637+03:00,1480,1.071516,0,0,1109.802,1,4,2025-04-21T10:45:26.169+03:00,766914659.0172858,0,-47.47,100.3013,1,0.7,2025-04-21T10:50:54.212+03:00,92.00000000000001,1.533333333333333,2025-04-21T09:28:58.093+03:00,0.01174319131481236,0
2025-04-21T10:50:59.932+03:00,1745221858.034492,40.95361963094089,29.14097085298671,92.82853,-1,-1,-1,-1,30,24.9532621481264,-9999,12657.73640066667,-0.684295654296875,0.67181396484375,-0.2810211181640625,12657.72252066667,-2.002283305911094,-1.177169542687145,-0.7435490685571605,-0.006504793651401997,-0.004456656984984875,-0.01315993349999189,0.006088435649871826,-0.003015398979187012,0.002588808536529541,XArbitraryZVertical,0.5985323046558784,0.02454878903168356,0.5437642699030089,-0.5877728221700462,-0.6797791719436646,0.676904559135437,-0.2823128700256348,0,0,0,-1,-1,12638.664264,unknown,2,2025-04-21T10:50:40.858+03:00,2025-04-20T21:57:49.637+03:00,1480,1.071516,0,0,1109.802,1,4,2025-04-21T10:45:26.169+03:00,766914659.0172858,0,-47.47,100.3013,1,0.7,2025-04-21T10:50:54.212+03:00,92.00000000000001,1.533333333333333,2025-04-21T09:28:58.093+03:00,0.01174319131481236,0
2025-04-21T10:50:59.942+03:00,1745221858.034492,40.95361963094089,29.14097085298671,92.82853,-1,-1,-1,-1,30,24.9532621481264,-9999,12657.74647666667,-0.68389892578125,0.67510986328125,-0.2813720703125,12657.73259666667,-2.002361011303314,-1.177235589262837,-0.7434625983404168,0.0006913337274454534,0.0005548796616494656,-0.008504727855324745,0.0001796483993530273,-0.002844929695129395,0.002184867858886719,XArbitraryZVertical,0.5985405027106557,0.02457783223269227,0.5437903618066768,-0.5877390566634791,-0.6798518300056458,0.6768409013748169,-0.2822903990745544,0,0,0,-1,-1,12638.664264,unknown,2,2025-04-21T10:50:40.858+03:00,2025-04-20T21:57:49.637+03:00,1480,1.071516,0,0,1109.802,1,4,2025-04-21T10:45:26.169+03:00,766914659.0172858,0,-47.47,100.3013,1,0.7,2025-04-21T10:50:54.212+03:00,92.00000000000001,1.533333333333333,2025-04-21T09:28:58.093+03:00,0.01174319131481236,0
2025-04-21T10:50:59.952+03:00,1745221858.034492,40.95361963094089,29.14097085298671,92.82853,-1,-1,-1,-1,30,24.9532621481264,-9999,12657.75655266667,-0.68255615234375,0.6701812744140625,-0.2804107666015625,12657.74267266667,-2.002393005306462,-1.177229864569934,-0.7433921183492251,-0.001189989969134331,0.005392977967858315,-0.005160230677574873,-0.00461500883102417,-0.00462418794631958,0.001016825437545776,XArbitraryZVertical,0.5985306146438369,0.0245933660193884,0.5438202174592772,-0.5877207634338668,-0.6798941493034363,0.6767889857292175,-0.2823125422000885,0,0,0,-1,-1,12638.664264,unknown,2,2025-04-21T10:50:40.858+03:00,2025-04-20T21:57:49.637+03:00,1480,1.071516,0,0,1109.802,1,4,2025-04-21T10:45:26.169+03:00,766914659.0172858,0,-47.47,100.3013,1,0.7,2025-04-21T10:50:54.212+03:00,92.00000000000001,1.533333333333333,2025-04-21T09:28:58.093+03:00,0.01174319131481236,0
2025-04-21T10:50:59.962+03:00,1745221858.034492,40.95361963094089,29.14097085298671,92.82853,-1,-1,-1,-1,30,24.9532621481264,-9999,12657.76662766667,-0.6810760498046875,0.669769287109375,-0.281097412109375,12657.75274866667,-2.002409053707376,-1.177171081349652,-0.7433393201994148,0.00375763070769608,0.01028280798345804,-0.007496355567127466,-0.004140794277191162,-0.00179290771484375,0.0009179413318634033,XArbitraryZVertical,0.5985082699783868,0.02459140444270393,0.543856629129967,-0.5877099469219331,-0.6799106001853943,0.676750123500824,-0.2823662161827087,0,0,0,-1,-1,12638.664264,unknown,2,2025-04-21T10:50:40.858+03:00,2025-04-20T21:57:49.637+03:00,1480,1.071516,0,0,1109.802,1,4,2025-04-21T10:45:26.169+03:00,766914659.0172858,0,-47.47,100.3013,1,0.7,2025-04-21T10:50:54.212+03:00,92.00000000000001,1.533333333333333,2025-04-21T09:28:58.093+03:00,0.01174319131481236,0
2025-04-21T10:50:59.972+03:00,1745221858.034492,40.95361963094089,29.14097085298671,92.82853,-1,-1,-1,-1,30,24.9532621481264,-9999,12657.77670366667,-0.6790618896484375,0.6707000732421875,-0.2830963134765625,12657.76282366667,-2.002375307285318,-1.177033035324053,-0.7432804927449006,0.004286401439458132,0.01623191125690937,-0.003825121326372027,-0.002998590469360352,-0.007563173770904541,0.001820504665374756,XArbitraryZVertical,0.5984630061556138,0.02458335117491623,0.5439037383601224,-0.5877128291904538,-0.6799084544181824,0.6767067909240723,-0.2824753820896149,0,0,0,-1,-1,12638.664264,unknown,2,2025-04-21T10:50:40.858+03:00,2025-04-20T21:57:49.637+03:00,1480,1.071516,0,0,1109.802,1,4,2025-04-21T10:45:26.169+03:00,766914659.0172858,0,-47.47,100.3013,1,0.7,2025-04-21T10:50:54.212+03:00,92.00000000000001,1.533333333333333,2025-04-21T09:28:58.093+03:00,0.01174319131481236,0
2025-04-21T10:50:59.982+03:00,1745221858.034492,40.95361963094089,29.14097085298671,92.82853,-1,-1,-1,-1,30,24.9532621481264,-9999,12657.78677966667,-0.673004150390625,0.6650848388671875,-0.280120849609375,12657.77289966667,-2.002380466688158,-1.176872916864111,-0.7432144024465913,-0.002011442091315985,0.0153069943189621,-0.003834708826616406,-0.001064598560333252,-0.006919384002685547,0.001427769660949707,XArbitraryZVertical,0.5984112987953052,0.02455995970772128,0.5439708528534971,-0.5877044476410699,-0.679904580116272,0.6766581535339355,-0.2826014459133148,0,0,0,-1,-1,12638.664264,unknown,2,2025-04-21T10:50:40.858+03:00,2025-04-20T21:57:49.637+03:00,1480,1.071516,0,0,1109.802,1,4,2025-04-21T10:45:26.169+03:00,766914659.0172858,0,-47.47,100.3013,1,0.7,2025-04-21T10:50:54.212+03:00,92.00000000000001,1.533333333333333,2025-04-21T09:28:58.093+03:00,0.01174319131481236,0
2025-04-21T10:50:59.992+03:00,1745221858.034492,40.95361963094089,29.14097085298671,92.82853,-1,-1,-1,-1,30,24.9532621481264,-9999,12657.79685566667,-0.6715240478515625,0.668609619140625,-0.2807159423828125,12657.78297566667,-2.002526322575211,-1.176851704643678,-0.7431946429871735,-0.01811338029801846,0.008878190070390701,-0.005907546728849411,0.001505196094512939,-0.006141901016235352,0.0003639459609985352,XArbitraryZVertical,0.5984048729114995,0.02451759403397805,0.5440253059239752,-0.5876623213173175,-0.6799108982086182,0.6766436100006104,-0.2826209962368011,0,0,0,-1,-1,12638.664264,unknown,2,2025-04-21T10:50:40.858+03:00,2025-04-20T21:57:49.637+03:00,1480,1.071516,0,0,1109.802,1,4,2025-04-21T10:45:26.169+03:00,766914659.0172858,0,-47.47,100.3013,1,0.7,2025-04-21T10:50:54.212+03:00,92.00000000000001,1.533333333333333,2025-04-21T09:28:58.093+03:00,0.01174319131481236,0
2025-04-21T10:51:00.002+03:00,1745221858.034492,40.95361963094089,29.14097085298671,92.82853,-1,-1,-1,-1,30,24.9532621481264,-9999,12657.80693066667,-0.6748199462890625,0.6772003173828125,-0.2842254638671875,12657.79305166667,-2.002795104951148,-1.176934228845527,-0.7432325973703982,-0.02008784748613834,0.01244469545781612,-0.001551946974359453,0.007882893085479736,-0.01222759485244751,0.002510488033294678,XArbitraryZVertical,0.5984353401742243,0.02444692772556574,0.5440694059546849,-0.5875933117784667,-0.67991042137146,0.67667156457901,-0.2825549840927124,0,0,0,-1,-1,12638.664264,unknown,2,2025-04-21T10:50:40.858+03:00,2025-04-20T21:57:49.637+03:00,1480,1.071516,0,0,1109.802,1,4,2025-04-21T10:45:26.169+03:00,766914659.0172858,0,-47.47,100.3013,1,0.7,2025-04-21T10:50:54.212+03:00,92.00000000000001,1.533333333333333,2025-04-21T09:28:58.093+03:00,0.01174319131481236,0
2025-04-21T10:51:00.012+03:00,1745221858.034492,40.95361963094089,29.14097085298671,92.82853,-1,-1,-1,-1,30,24.9532621481264,-9999,12657.81700666667,-0.677642822265625,0.6778717041015625,-0.287872314453125,12657.80312666667,-2.003034070668611,-1.176999549433221,-0.7433079450583475,-0.01704904623329639,0.008880454115569592,0.001351231476292014,0.008830785751342773,-0.007034063339233398,0.0009968876838684082,XArbitraryZVertical,0.5984653838528998,0.02436589731928459,0.5440999315163861,-0.5875377394396522,-0.6798816919326782,0.6767270565032959,-0.2824909687042236,0,0,0,-1,-1,12638.664264,unknown,2,2025-04-21T10:50:40.858+03:00,2025-04-20T21:57:49.637+03:00,1480,1.071516,0,0,1109.802,1,4,2025-04-21T10:45:26.169+03:00,766914659.0172858,0,-47.47,100.3013,1,0.7,2025-04-21T10:50:54.212+03:00,92.00000000000001,1.533333333333333,2025-04-21T09:28:58.093+03:00,0.01174319131481236,0
2025-04-21T10:51:00.022+03:00,1745221858.034492,40.95361963094089,29.14097085298671,92.82853,-1,-1,-1,-1,30,24.9532621481264,-9999,12657.82708266667,-0.67657470703125,0.6795196533203125,-0.287841796875,12657.81320266667,-2.003207628277806,-1.177023935576349,-0.7433611897713824,-0.01124069280922413,0.01016036979854107,-0.001161727355793118,0.004699826240539551,0.0005103349685668945,-0.002298861742019653,XArbitraryZVertical,0.5984807212758283,0.02430087219282728,0.5441294481550834,-0.5874975135878618,-0.6798553466796875,0.6767662167549133,-0.2824606001377106,0,0,0,-1,-1,12638.664264,unknown,2,2025-04-21T10:50:40.858+03:00,2025-04-20T21:57:49.637+03:00,1480,1.071516,0,0,1109.802,1,4,2025-04-21T10:45:26.169+03:00,766914659.0172858,0,-47.47,100.3013,1,0.7,2025-04-21T10:50:54.212+03:00,92.00000000000001,1.533333333333333,2025-04-21T09:28:58.093+03:00,0.01174319131481236,0
2025-04-21T10:51:00.032+03:00,1745221858.034492,40.95361963094089,29.14097085298671,92.82853,-1,-1,-1,-1,30,24.9532621481264,-9999,12657.83715866667,-0.677764892578125,0.687957763671875,-0.2899169921875,12657.82327866667,-2.003308127245601,-1.17698131263834,-0.74338472161428,-0.002578495535999537,0.0145740257576108,-0.001565861981362104,0.002552151679992676,0.0008592009544372559,-0.005114138126373291,XArbitraryZVertical,0.5984732445676949,0.02424935338278924,0.5441654991386673,-0.5874739466408194,-0.6798287034034729,0.676783561706543,-0.2824834883213043,0,0,0,-1,-1,12638.664264,unknown,2,2025-04-21T10:50:40.858+03:00,2025-04-20T21:57:49.637+03:00,1480,1.071516,0,0,1109.802,1,4,2025-04-21T10:45:26.169+03:00,766914659.0172858,0,-47.47,100.3013,1,0.7,2025-04-21T10:50:54.212+03:00,92.00000000000001,1.533333333333333,2025-04-21T09:28:58.093+03:00,0.01174319131481236,0
2025-04-21T10:51:00.042+03:00,1745221858.034492,40.95361963094089,29.14097085298671,92.82853,-1,-1,-1,-1,30,24.9532621481264,-9999,12657.84723366667,-0.6743316650390625,0.6862640380859375,-0.29119873046875,12657.83335466667,-2.003234487526932,-1.176789793163939,-0.7433296230158999,0.01456666924059391,0.01348639093339443,-0.002383985091000795,0.003493726253509521,0.003920972347259521,-0.005290061235427856,XArbitraryZVertical,0.5984134289740995,0.0242360728541342,0.5442158109923976,-0.5874887371607048,-0.6798089146614075,0.6767429709434509,-0.2826279699802399,0,0,0,-1,-1,12638.664264,unknown,2,2025-04-21T10:50:40.858+03:00,2025-04-20T21:57:49.637+03:00,1480,1.071516,0,0,1109.802,1,4,2025-04-21T10:45:26.169+03:00,766914659.0172858,0,-47.47,100.3013,1,0.7,2025-04-21T10:50:54.212+03:00,92.00000000000001,1.533333333333333,2025-04-21T09:28:58.093+03:00,0.01174319131481236,0
2025-04-21T10:51:00.052+03:00,1745221858.034492,40.95361963094089,29.14097085298671,92.82853,-1,-1,-1,-1,30,24.9532621481264,-9999,12657.85730966667,-0.6707305908203125,0.6779632568359375,-0.285675048828125,12657.84342966667,-2.003010498698864,-1.176524734093506,-0.7432101124336989,0.0203851442784071,0.006430611945688725,-0.001798755489289761,0.002501726150512695,0.01221829652786255,-0.008100032806396484,XArbitraryZVertical,0.5983237432755041,0.02427077355455414,0.5442612414663454,-0.5875366731202829,-0.6798087954521179,0.6766549944877625,-0.2828392684459686,0,0,0,-1,-1,12638.664264,unknown,2,2025-04-21T10:50:40.858+03:00,2025-04-20T21:57:49.637+03:00,1480,1.071516,0,0,1109.802,1,4,2025-04-21T10:45:26.169+03:00,766914659.0172858,0,-47.47,100.3013,1,0.7,2025-04-21T10:50:54.212+03:00,92.00000000000001,1.533333333333333,2025-04-21T09:28:58.093+03:00,0.01174319131481236,0
2025-04-21T10:51:00.063+03:00,1745221858.034492,40.95361963094089,29.14097085298671,92.82853,-1,-1,-1,-1,30,24.9532621481264,-9999,12657.86738566667,-0.673492431640625,0.6690826416015625,-0.2802886962890625,12657.85350566667,-2.002756137015361,-1.176266993070265,-0.7431014955262186,0.02288318984210491,0.009361420758068562,-0.005087226629257202,0.006174027919769287,0.008712470531463623,-0.007835507392883301,XArbitraryZVertical,0.5982370260000335,0.02431251399738555,0.5442925903055867,-0.5875942424956412,-0.679803729057312,0.6765750050544739,-0.2830427289009094,0,0,0,-1,-1,12638.664264,unknown,2,2025-04-21T10:50:40.858+03:00,2025-04-20T21:57:49.637+03:00,1480,1.071516,0,0,1109.802,1,4,2025-04-21T10:45:26.169+03:00,766914659.0172858,0,-47.47,100.3013,1,0.7,2025-04-21T10:50:54.212+03:00,92.00000000000001,1.533333333333333,2025-04-21T09:28:58.093+03:00,0.01174319131481236,0
2025-04-21T10:51:00.073+03:00,1745221858.034492,40.95361963094089,29.14097085298671,92.82853,-1,-1,-1,-1,30,24.9532621481264,-9999,12657.87746166667,-0.6797027587890625,0.6696014404296875,-0.282928466796875,12657.86358166667,-2.002515347041713,-1.175998404116131,-0.7430016825153966,0.01816400140523911,0.0140804760158062,-0.0008259359747171402,0.009227216243743896,0.0003783702850341797,-0.001233577728271484,XArbitraryZVertical,0.5981486256139328,0.02434357353562168,0.544328710902574,-0.5876493739694183,-0.6797899007797241,0.6765015125274658,-0.2832512259483337,0,0,0,-1,-1,12638.664264,unknown,2,2025-04-21T10:50:40.858+03:00,2025-04-20T21:57:49.637+03:00,1480,1.071516,0,0,1109.802,1,4,2025-04-21T10:45:26.169+03:00,766914659.0172858,0,-47.47,100.3013,1,0.7,2025-04-21T10:50:54.212+03:00,92.00000000000001,1.533333333333333,2025-04-21T09:28:58.093+03:00,0.01174319131481236,0
2025-04-21T10:51:00.083+03:00,1745221858.034492,40.95361963094089,29.14097085298671,92.82853,-1,-1,-1,-1,30,24.9532621481264,-9999,12657.88753766667,-0.6817779541015625,0.6668701171875,-0.2830810546875,12657.87365766667,-2.002270841494163,-1.175685218075258,-0.7429487460077286,0.01435834355652332,0.01501418091356754,0.005111315287649632,0.005265414714813232,-0.008051216602325439,0.004089564085006714,XArbitraryZVertical,0.5980537991614322,0.02434488474797377,0.5443647249142083,-0.5877126164494081,-0.6797343492507935,0.6764625310897827,-0.2834779620170593,0,0,0,-1,-1,12638.664264,unknown,2,2025-04-21T10:50:40.858+03:00,2025-04-20T21:57:49.637+03:00,1480,1.071516,0,0,1109.802,1,4,2025-04-21T10:45:26.169+03:00,766914659.0172858,0,-47.47,100.3013,1,0.7,2025-04-21T10:50:54.212+03:00,92.00000000000001,1.533333333333333,2025-04-21T09:28:58.093+03:00,0.01174319131481236,0
2025-04-21T10:51:00.093+03:00,1745221858.034492,40.95361963094089,29.14097085298671,92.82853,-1,-1,-1,-1,30,24.9532621481264,-9999,12657.89761266667,-0.68017578125,0.662200927734375,-0.2787017822265625,12657.88373366667,-2.00216666830802,-1.175466940955267,-0.7429917513291372,-0.003602347569540143,0.0167856477200985,0.007535291370004416,-0.000545501708984375,-0.007106423377990723,0.00030517578125,XArbitraryZVertical,0.5979984959526143,0.0242954566204608,0.5443878320434274,-0.5877493937426749,-0.6796454787254333,0.6764941811561584,-0.2836150527000427,0,0,0,-1,-1,12638.664264,unknown,2,2025-04-21T10:50:40.858+03:00,2025-04-20T21:57:49.637+03:00,1480,1.071516,0,0,1109.802,1,4,2025-04-21T10:45:26.169+03:00,766914659.0172858,0,-47.47,100.3013,1,0.7,2025-04-21T10:50:54.212+03:00,92.00000000000001,1.533333333333333,2025-04-21T09:28:58.093+03:00,0.01174319131481236,0
2025-04-21T10:51:00.103+03:00,1745221858.034492,40.95361963094089,29.14097085298671,92.82853,-1,-1,-1,-1,30,24.9532621481264,-9999,12657.90768866667,-0.6777191162109375,0.67138671875,-0.2824554443359375,12657.89380866667,-2.002260332775361,-1.175347476528133,-0.7431554166177742,-0.02055470086634159,0.01652465760707855,0.01543529238551855,-0.001963317394256592,-0.01085859537124634,0.00168648362159729,XArbitraryZVertical,0.5979874845366392,0.02416999030356251,0.5444074041502219,-0.5877475603055531,-0.6795093417167664,0.6766147017478943,-0.2836535573005676,0,0,0,-1,-1,12638.664264,unknown,2,2025-04-21T10:50:40.858+03:00,2025-04-20T21:57:49.637+03:00,1480,1.071516,0,0,1109.802,1,4,2025-04-21T10:45:26.169+03:00,766914659.0172858,0,-47.47,100.3013,1,0.7,2025-04-21T10:50:54.212+03:00,92.00000000000001,1.533333333333333,2025-04-21T09:28:58.093+03:00,0.01174319131481236,0
2025-04-21T10:51:00.113+03:00,1745221858.034492,40.95361963094089,29.14097085298671,92.82853,-1,-1,-1,-1,30,24.9532621481264,-9999,12657.91776466667,-0.678924560546875,0.6776885986328125,-0.2869720458984375,12657.90388466667,-2.002481013574637,-1.175321571018956,-0.7434125446474464,-0.02671225927770138,0.01645028963685036,0.01732636988162994,-0.0006663203239440918,-0.0140843391418457,0.004627764225006104,XArbitraryZVertical,0.5980150351973698,0.02399852860004561,0.5444115305146268,-0.5877228392843648,-0.6793415546417236,0.6768040657043457,-0.2836041748523712,0,0,0,-1,-1,12638.664264,unknown,2,2025-04-21T10:50:40.858+03:00,2025-04-20T21:57:49.637+03:00,1480,1.071516,0,0,1109.802,1,4,2025-04-21T10:45:26.169+03:00,766914659.0172858,0,-47.47,100.3013,1,0.7,2025-04-21T10:50:54.212+03:00,92.00000000000001,1.533333333333333,2025-04-21T09:28:58.093+03:00,0.01174319131481236,0
2025-04-21T10:51:00.123+03:00,1745221858.034492,40.95361963094089,29.14097085298671,92.82853,-1,-1,-1,-1,30,24.9532621481264,-9999,12657.92784066667,-0.67913818359375,0.67901611328125,-0.2893829345703125,12657.91396066667,-2.002717789771853,-1.175331408213624,-0.7436593728730116,-0.02072041295468807,0.01120812352746725,0.01386266201734543,0.002127170562744141,-0.004714012145996094,0.0002079606056213379,XArbitraryZVertical,0.5980512178164611,0.02383661115166587,0.5444123481624167,-0.5876918169153746,-0.6791900992393494,0.6769857406616211,-0.283533126115799,0,0,0,-1,-1,12638.664264,unknown,2,2025-04-21T10:50:40.858+03:00,2025-04-20T21:57:49.637+03:00,1480,1.071516,0,0,1109.802,1,4,2025-04-21T10:45:26.169+03:00,766914659.0172858,0,-47.47,100.3013,1,0.7,2025-04-21T10:50:54.212+03:00,92.00000000000001,1.533333333333333,2025-04-21T09:28:58.093+03:00,0.01174319131481236,0
2025-04-21T10:51:00.133+03:00,1745221858.034492,40.95361963094089,29.14097085298671,92.82853,-1,-1,-1,-1,30,24.9532621481264,-9999,12657.93791566667,-0.674224853515625,0.6822509765625,-0.2913818359375,12657.92403666667,-2.002822646420475,-1.175287665404019,-0.743810392229549,-0.007758210878819227,0.008971400558948517,0.007071368396282196,-0.000100553035736084,0.0006985068321228027,-0.003479063510894775,XArbitraryZVertical,0.5980593094357944,0.02373489627137974,0.5444159873306419,-0.5876843379451248,-0.6790833473205566,0.6770968437194824,-0.2835234403610229,0,0,0,-1,-1,12638.664264,unknown,2,2025-04-21T10:50:40.858+03:00,2025-04-20T21:57:49.637+03:00,1480,1.071516,0,0,1109.802,1,4,2025-04-21T10:45:26.169+03:00,766914659.0172858,0,-47.47,100.3013,1,0.7,2025-04-21T10:50:54.212+03:00,92.00000000000001,1.533333333333333,2025-04-21T09:28:58.093+03:00,0.01174319131481236,0
2025-04-21T10:51:00.143+03:00,1745221858.034492,40.95361963094089,29.14097085298671,92.82853,-1,-1,-1,-1,30,24.9532621481264,-9999,12657.94799166667,-0.66900634765625,0.683868408203125,-0.286102294921875,12657.93411166667,-2.002837543333212,-1.175225948495106,-0.7438675525064284,0.0002350010618101805,0.0003555421717464924,-0.002282185712829232,0.0005328655242919922,0.002136528491973877,-0.006839543581008911,XArbitraryZVertical,0.5980497952283471,0.02369051304560405,0.5444235441766586,-0.5876887503454561,-0.6790300607681274,0.6771389245986938,-0.2835504114627838,0,0,0,-1,-1,12638.664264,unknown,2,2025-04-21T10:50:40.858+03:00,2025-04-20T21:57:49.637+03:00,1480,1.071516,0,0,1109.802,1,4,2025-04-21T10:45:26.169+03:00,766914659.0172858,0,-47.47,100.3013,1,0.7,2025-04-21T10:50:54.212+03:00,92.00000000000001,1.533333333333333,2025-04-21T09:28:58.093+03:00,0.01174319131481236,0
2025-04-21T10:51:00.153+03:00,1745221858.034492,40.95361963094089,29.14097085298671,92.82853,-1,-1,-1,-1,30,24.9532621481264,-9999,12657.95806766667,-0.6704254150390625,0.67645263671875,-0.280517578125,12657.94418766667,-2.002832107714227,-1.175236370872804,-0.7438476289919821,0.0008764233789406717,-0.004057181999087334,-0.003212627721950412,0.005522668361663818,0.006438910961151123,-0.007405966520309448,XArbitraryZVertical,0.5980500855120956,0.02370280680170452,0.5444241686903237,-0.5876874239322472,-0.6790454983711243,0.6771242618560791,-0.2835485339164734,0,0,0,-1,-1,12638.664264,unknown,2,2025-04-21T10:50:40.858+03:00,2025-04-20T21:57:49.637+03:00,1480,1.071516,0,0,1109.802,1,4,2025-04-21T10:45:26.169+03:00,766914659.0172858,0,-47.47,100.3013,1,0.7,2025-04-21T10:50:54.212+03:00,92.00000000000001,1.533333333333333,2025-04-21T09:28:58.093+03:00,0.01174319131481236,0
2025-04-21T10:51:00.163+03:00,1745221858.034492,40.95361963094089,29.14097085298671,92.82853,-1,-1,-1,-1,30,24.9532621481264,-9999,12657.96814366667,-0.6770782470703125,0.6678924560546875,-0.2809906005859375,12657.95426366667,-2.002830803709848,-1.17528312300104,-0.7438076570909236,-0.001145981135778129,-0.00280443113297224,-0.002137775998562574,0.01000124216079712,0.006209015846252441,-0.001323789358139038,XArbitraryZVertical,0.5980578147765616,0.02373219643891611,0.5444205193289392,-0.5876818460839554,-0.6790838837623596,0.6770948767662048,-0.2835272550582886,0,0,0,-1,-1,12638.664264,unknown,2,2025-04-21T10:50:40.858+03:00,2025-04-20T21:57:49.637+03:00,1480,1.071516,0,0,1109.802,1,4,2025-04-21T10:45:26.169+03:00,766914659.0172858,0,-47.47,100.3013,1,0.7,2025-04-21T10:50:54.212+03:00,92.00000000000001,1.533333333333333,2025-04-21T09:28:58.093+03:00,0.01174319131481236,0
2025-04-21T10:51:00.173+03:00,1745221858.034492,40.95361963094089,29.14097085298671,92.82853,-1,-1,-1,-1,30,24.9532621481264,-9999,12657.97821866667,-0.6766204833984375,0.665863037109375,-0.2833404541015625,12657.96433966667,-2.002879013520426,-1.175340370045934,-0.7437837260327572,-0.003843829967081547,-0.003466293681412935,-0.002068566856905818,0.007362067699432373,-0.002135217189788818,0.003785789012908936,XArbitraryZVertical,0.5980710233516319,0.02374366347946005,0.5444238709690137,-0.5876647152650494,-0.6791149377822876,0.6770772337913513,-0.2834945917129517,0,0,0,-1,-1,12638.664264,unknown,2,2025-04-21T10:50:40.858+03:00,2025-04-20T21:57:49.637+03:00,1480,1.071516,0,0,1109.802,1,4,2025-04-21T10:45:26.169+03:00,766914659.0172858,0,-47.47,100.3013,1,0.7,2025-04-21T10:50:54.212+03:00,92.00000000000001,1.533333333333333,2025-04-21T09:28:58.093+03:00,0.01174319131481236,0
2025-04-21T10:51:00.183+03:00,1745221858.034492,40.95361963094089,29.14097085298671,92.82853,-1,-1,-1,-1,30,24.9532621481264,-9999,12657.98829466667,-0.677734375,0.669158935546875,-0.2830657958984375,12657.97441466667,-2.002961542518902,-1.175435627069356,-0.7437393657760307,-0.003628113772720098,-0.003601315896958113,-0.007160264998674393,0.001648962497711182,-0.00993037223815918,0.001520097255706787,XArbitraryZVertical,0.5980924274226023,0.02376386528936215,0.5444314586407345,-0.5876350832027081,-0.6791696548461914,0.6770445704460144,-0.2834414541721344,0,0,0,-1,-1,12638.664264,unknown,2,2025-04-21T10:50:40.858+03:00,2025-04-20T21:57:49.637+03:00,1480,1.071516,0,0,1109.802,1,4,2025-04-21T10:45:26.169+03:00,766914659.0172858,0,-47.47,100.3013,1,0.7,2025-04-21T10:50:54.212+03:00,92.00000000000001,1.533333333333333,2025-04-21T09:28:58.093+03:00,0.01174319131481236,0
2025-04-21T10:51:00.194+03:00,1745221858.034492,40.95361963094089,29.14097085298671,92.82853,-1,-1,-1,-1,30,24.9532621481264,-9999,12657.99837066667,-0.6782379150390625,0.667724609375,-0.28143310546875,12657.98449066667,-2.003023583332976,-1.17553185071429,-0.7436538436875767,-0.001455373829230666,-0.005797225516289473,-0.008253824897110462,0.002507865428924561,-0.01095086336135864,-1.826882362365723e-05,XArbitraryZVertical,0.5981087483501906,0.0238061426514511,0.5444436955854589,-0.5876054009829409,-0.6792502999305725,0.6769816279411316,-0.2833983898162842,0,0,0,-1,-1,12638.664264,unknown,2,2025-04-21T10:50:40.858+03:00,2025-04-20T21:57:49.637+03:00,1480,1.071516,0,0,1109.802,1,4,2025-04-21T10:45:26.169+03:00,766914659.0172858,0,-47.47,100.3013,1,0.7,2025-04-21T10:50:54.212+03:00,92.00000000000001,1.533333333333333,2025-04-21T09:28:58.093+03:00,0.01174319131481236,0
2025-04-21T10:51:00.204+03:00,1745221858.034492,40.95361963094089,29.14097085298671,92.82853,-1,-1,-1,-1,30,24.9532621481264,-9999,12658.00844666667,-0.6749114990234375,0.658172607421875,-0.2793121337890625,12657.99456666667,-2.003113082331243,-1.175635904601309,-0.7436282588901995,-0.01223878003656864,-0.005250478629022837,-0.003861207282170653,0.000539243221282959,-0.007117211818695068,5.501508712768555e-05,XArbitraryZVertical,0.5981349448635198,0.02381973258370861,0.5444457528262133,-0.587576376476279,-0.6792958974838257,0.6769627928733826,-0.2833344042301178,0,0,0,-1,-1,12638.664264,unknown,2,2025-04-21T10:50:40.858+03:00,2025-04-20T21:57:49.637+03:00,1480,1.071516,0,0,1109.802,1,4,2025-04-21T10:45:26.169+03:00,766914659.0172858,0,-47.47,100.3013,1,0.7,2025-04-21T10:50:54.212+03:00,92.00000000000001,1.533333333333333,2025-04-21T09:28:58.093+03:00,0.01174319131481236,0
2025-04-21T10:51:00.214+03:00,1745221858.034492,40.95361963094089,29.14097085298671,92.82853,-1,-1,-1,-1,30,24.9532621481264,-9999,12658.01852266667,-0.6755523681640625,0.665740966796875,-0.2751312255859375,12658.00464266667,-2.003377091593429,-1.175905363252127,-0.7436855882224814,-0.02787686139345169,-0.01277071237564087,-0.002769311424344778,0.002242922782897949,-0.01082158088684082,0.002618908882141113,XArbitraryZVertical,0.5982185591730261,0.02379807952021521,0.5444274102220636,-0.5875090798366591,-0.6793363094329834,0.6770049929618835,-0.2831364274024963,0,0,0,-1,-1,12638.664264,unknown,2,2025-04-21T10:50:40.858+03:00,2025-04-20T21:57:49.637+03:00,1480,1.071516,0,0,1109.802,1,4,2025-04-21T10:45:26.169+03:00,766914659.0172858,0,-47.47,100.3013,1,0.7,2025-04-21T10:50:54.212+03:00,92.00000000000001,1.533333333333333,2025-04-21T09:28:58.093+03:00,0.01174319131481236,0
2025-04-21T10:51:00.224+03:00,1745221858.034492,40.95361963094089,29.14097085298671,92.82853,-1,-1,-1,-1,30,24.9532621481264,-9999,12658.02859766667,-0.67852783203125,0.682464599609375,-0.2800140380859375,12658.01471866667,-2.003769624973188,-1.176291805052158,-0.7437564960632903,-0.03041938133537769,-0.01245246455073357,-0.0048572295345366,0.003635525703430176,-0.01937288045883179,0.004184246063232422,XArbitraryZVertical,0.5983371917080845,0.02376719672714556,0.5444082543646314,-0.5874073413123218,-0.6794014573097229,0.6770572066307068,-0.2828554511070251,0,0,0,-1,-1,12638.664264,unknown,2,2025-04-21T10:50:40.858+03:00,2025-04-20T21:57:49.637+03:00,1480,1.071516,0,0,1109.802,1,4,2025-04-21T10:45:26.169+03:00,766914659.0172858,0,-47.47,100.3013,1,0.7,2025-04-21T10:50:54.212+03:00,92.00000000000001,1.533333333333333,2025-04-21T09:28:58.093+03:00,0.01174319131481236,0
2025-04-21T10:51:00.234+03:00,1745221858.034492,40.95361963094089,29.14097085298671,92.82853,-1,-1,-1,-1,30,24.9532621481264,-9999,12658.03867366667,-0.6803741455078125,0.6843109130859375,-0.28857421875,12658.03486966667,-2.004361753075997,-1.176908130508568,-0.7438191826843245,-0.01339106261730194,-0.01049683894962072,-0.007844730280339718,0.0006424188613891602,0.006856620311737061,0.0008347034454345703,XArbitraryZVertical,0.5985197549829966,0.02374712362728455,0.5443809861859278,-0.5872473655061898,-0.6795364022254944,0.6771033406257629,-0.2824203670024872,0,0,0,-1,-1,12638.664264,unknown,2,2025-04-21T10:50:40.858+03:00,2025-04-20T21:57:49.637+03:00,1480,1.071516,0,0,1109.802,1,4,2025-04-21T10:45:26.169+03:00,766914659.0172858,0,-47.47,100.3013,1,0.7,2025-04-21T10:50:54.212+03:00,92.00000000000001,1.533333333333333,2025-04-21T09:28:58.093+03:00,0.01174319131481236,0
2025-04-21T10:51:00.244+03:00,1745221858.034492,40.95361963094089,29.14097085298671,92.82853,-1,-1,-1,-1,30,24.9532621481264,-9999,12658.04874966667,-0.6799774169921875,0.6805572509765625,-0.2867431640625,12658.03486966667,-2.004361753075997,-1.176908130508568,-0.7438191826843245,-0.01339106261730194,-0.01049683894962072,-0.007844730280339718,0.0006424188613891602,0.006856620311737061,0.0008347034454345703,XArbitraryZVertical,0.5985197549829966,0.02374712362728455,0.5443809861859278,-0.5872473655061898,-0.6795364022254944,0.6771033406257629,-0.2824203670024872,0,0,0,-1,-1,12638.664264,unknown,2,2025-04-21T10:50:40.858+03:00,2025-04-20T21:57:49.637+03:00,1480,1.071516,0,0,1109.802,1,4,2025-04-21T10:45:26.169+03:00,766914659.0172858,0,-47.47,100.3013,1,0.7,2025-04-21T10:50:54.212+03:00,92.00000000000001,1.533333333333333,2025-04-21T09:28:58.093+03:00,0.01174319131481236,0
2025-04-21T10:51:00.254+03:00,1745221858.034492,40.95361963094089,29.14097085298671,92.82853,-1,-1,-1,-1,30,24.9532621481264,-9999,12658.05882566667,-0.682891845703125,0.68212890625,-0.28399658203125,12658.04494566667,-2.004520498489664,-1.177112555546202,-0.7437905538776054,-0.006930832751095295,-0.01198561303317547,-0.008602166548371315,-7.539987564086914e-05,0.006786167621612549,-0.006163209676742554,XArbitraryZVertical,0.5985737292396995,0.02377056963663533,0.5443740936917357,-0.5871978637470622,-0.6796121001243591,0.6770822405815125,-0.2822889089584351,0,0,0,-1,-1,12638.664264,unknown,2,2025-04-21T10:50:40.858+03:00,2025-04-20T21:57:49.637+03:00,1480,1.071516,0,0,1109.802,1,4,2025-04-21T10:45:26.169+03:00,766914659.0172858,0,-47.47,100.3013,1,0.7,2025-04-21T10:50:54.212+03:00,92.00000000000001,1.533333333333333,2025-04-21T09:28:58.093+03:00,0.01174319131481236,0
2025-04-21T10:51:00.264+03:00,1745221858.034492,40.95361963094089,29.14097085298671,92.82853,-1,-1,-1,-1,30,24.9532621481264,-9999,12658.06890066667,-0.6881256103515625,0.6829833984375,-0.28466796875,12658.05502166667,-2.004605666685069,-1.177296554143283,-0.7436768889033896,0.0005715580191463232,-0.01381547003984451,-0.0100759593769908,-0.0008525848388671875,0.003863811492919922,-0.004702329635620117,XArbitraryZVertical,0.5986107801748296,0.02384237681796451,0.5443743202388924,-0.5871569582187051,-0.6797351241111755,0.6769986152648926,-0.2821933627128601,0,0,0,-1,-1,12638.664264,unknown,2,2025-04-21T10:50:40.858+03:00,2025-04-20T21:57:49.637+03:00,1480,1.071516,0,0,1109.802,1,4,2025-04-21T10:45:26.169+03:00,766914659.0172858,0,-47.47,100.3013,1,0.7,2025-04-21T10:50:54.212+03:00,92.00000000000001,1.533333333333333,2025-04-21T09:28:58.093+03:00,0.01174319131481236,0
2025-04-21T10:51:00.274+03:00,1745221858.034492,40.95361963094089,29.14097085298671,92.82853,-1,-1,-1,-1,30,24.9532621481264,-9999,12658.07897666667,-0.6845245361328125,0.679718017578125,-0.2829742431640625,12658.06509666667,-2.004593923200453,-1.177388359697584,-0.7435400355665164,0.007576670497655869,-0.007264959625899792,-0.01076215598732233,-0.004067659378051758,0.005673468112945557,-0.002409964799880981,XArbitraryZVertical,0.598618750088768,0.02392488331244928,0.5443797687138138,-0.5871402548625645,-0.6798464059829712,0.6768978834152222,-0.2821663916110992,0,0,0,-1,-1,12638.664264,unknown,2,2025-04-21T10:50:40.858+03:00,2025-04-20T21:57:49.637+03:00,1480,1.071516,0,0,1109.802,1,4,2025-04-21T10:45:26.169+03:00,766914659.0172858,0,-47.47,100.3013,1,0.7,2025-04-21T10:50:54.212+03:00,92.00000000000001,1.533333333333333,2025-04-21T09:28:58.093+03:00,0.01174319131481236,0
2025-04-21T10:51:00.284+03:00,1745221858.034492,40.95361963094089,29.14097085298671,92.82853,-1,-1,-1,-1,30,24.9532621481264,-9999,12658.08905266667,-0.6744232177734375,0.6743927001953125,-0.278839111328125,12658.07517266667,-2.004526612227922,-1.177392444525873,-0.7434115493231034,0.009471509605646133,-0.006428195163607597,-0.008790884166955948,-0.008197665214538574,0.005874812602996826,-0.002379387617111206,XArbitraryZVertical,0.5986031786035062,0.02399514573447393,0.5443930211744388,-0.5871409555070863,-0.6799278259277344,0.6768032908439636,-0.2821969389915466,0,0,0,-1,-1,12638.664264,unknown,2,2025-04-21T10:50:40.858+03:00,2025-04-20T21:57:49.637+03:00,1480,1.071516,0,0,1109.802,1,4,2025-04-21T10:45:26.169+03:00,766914659.0172858,0,-47.47,100.3013,1,0.7,2025-04-21T10:50:54.212+03:00,92.00000000000001,1.533333333333333,2025-04-21T09:28:58.093+03:00,0.01174319131481236,0
2025-04-21T10:51:00.294+03:00,1745221858.034492,40.95361963094089,29.14097085298671,92.82853,-1,-1,-1,-1,30,24.9532621481264,-9999,12658.09912866667,-0.6774139404296875,0.6743621826171875,-0.2808685302734375,12658.08524866667,-2.004480226617556,-1.177436207953623,-0.7432794999954158,0.009264182299375534,-0.01082467380911112,-0.009749157354235649,-0.002502739429473877,0.002599895000457764,9.700655937194824e-05,XArbitraryZVertical,0.5985982006109836,0.02407217469650542,0.5444015263636047,-0.5871350310436355,-0.6800227761268616,0.676706075668335,-0.2822014391422272,0,0,0,-1,-1,12638.664264,unknown,2,2025-04-21T10:50:40.858+03:00,2025-04-20T21:57:49.637+03:00,1480,1.071516,0,0,1109.802,1,4,2025-04-21T10:45:26.169+03:00,766914659.0172858,0,-47.47,100.3013,1,0.7,2025-04-21T10:50:54.212+03:00,92.00000000000001,1.533333333333333,2025-04-21T09:28:58.093+03:00,0.01174319131481236,0
2025-04-21T10:51:00.304+03:00,1745221858.034492,40.95361963094089,29.14097085298671,92.82853,-1,-1,-1,-1,30,24.9532621481264,-9999,12658.10920366667,-0.68499755859375,0.6768341064453125,-0.2825775146484375,12658.09532466667,-2.004426174092949,-1.17748622327133,-0.7431540098595855,0.01130975689738989,-0.005923125892877579,-0.007362165488302708,0.005921065807342529,-0.002587258815765381,0.003482997417449951,XArbitraryZVertical,0.5985956456237954,0.02415081956693492,0.5444041374717729,-0.5871319883306918,-0.6801153421401978,0.6766136884689331,-0.2821999788284302,0,0,0,-1,-1,12638.664264,unknown,2,2025-04-21T10:50:40.858+03:00,2025-04-20T21:57:49.637+03:00,1480,1.071516,0,0,1109.802,1,4,2025-04-21T10:45:26.169+03:00,766914659.0172858,0,-47.47,100.3013,1,0.7,2025-04-21T10:50:54.212+03:00,92.00000000000001,1.533333333333333,2025-04-21T09:28:58.093+03:00,0.01174319131481236,0
2025-04-21T10:51:00.314+03:00,1745221858.034492,40.95361963094089,29.14097085298671,92.82853,-1,-1,-1,-1,30,24.9532621481264,-9999,12658.11927966667,-0.6811065673828125,0.6739349365234375,-0.2816619873046875,12658.10539966667,-2.004373403755784,-1.177450275885483,-0.7430596107686456,0.006167791318148375,0.007714455481618643,-0.006277027074247599,0.00209420919418335,-0.0019073486328125,0.001594066619873047,XArbitraryZVertical,0.5985735448129876,0.02419201056734424,0.5444245728589818,-0.587133890657504,-0.6801642179489136,0.676544189453125,-0.2822489142417908,0,0,0,-1,-1,12638.664264,unknown,2,2025-04-21T10:50:40.858+03:00,2025-04-20T21:57:49.637+03:00,1480,1.071516,0,0,1109.802,1,4,2025-04-21T10:45:26.169+03:00,766914659.0172858,0,-47.47,100.3013,1,0.7,2025-04-21T10:50:54.212+03:00,92.00000000000001,1.533333333333333,2025-04-21T09:28:58.093+03:00,0.01174319131481236,0
2025-04-21T10:51:00.324+03:00,1745221858.034492,40.95361963094089,29.14097085298671,92.82853,-1,-1,-1,-1,30,24.9532621481264,-9999,12658.12935566667,-0.6754302978515625,0.6619415283203125,-0.2784271240234375,12658.11547566667,-2.004364320412496,-1.177369442721353,-0.74302761468498,-0.001762569416314363,0.004700555931776762,-0.001532872091047466,-0.005583763122558594,0.0008322596549987793,-0.0006161928176879883,XArbitraryZVertical,0.5985474613006952,0.02418320630170837,0.5444546605961679,-0.5871330013538381,-0.6801614165306091,0.6765206456184387,-0.2823122143745422,0,0,0,-1,-1,12638.664264,unknown,2,2025-04-21T10:50:40.858+03:00,2025-04-20T21:57:49.637+03:00,1480,1.071516,0,0,1109.802,1,4,2025-04-21T10:45:26.169+03:00,766914659.0172858,0,-47.47,100.3013,1,0.7,2025-04-21T10:50:54.212+03:00,92.00000000000001,1.533333333333333,2025-04-21T09:28:58.093+03:00,0.01174319131481236,0
2025-04-21T10:51:00.334+03:00,1745221858.034492,40.95361963094089,29.14097085298671,92.82853,-1,-1,-1,-1,30,24.9532621481264,-9999,12658.13943166667,-0.6850433349609375,0.6686859130859375,-0.2802734375,12658.12555166667,-2.004399525273976,-1.177338716775751,-0.7430592050933247,-0.006013839971274137,0.007009450346231461,0.004073048941791058,0.001010119915008545,-0.003966987133026123,0.00112074613571167,XArbitraryZVertical,0.5985434360454895,0.02415160892426533,0.5444657534009273,-0.587128088967911,-0.6801329851150513,0.6765438914299011,-0.2823249101638794,0,0,0,-1,-1,12638.664264,unknown,2,2025-04-21T10:50:40.858+03:00,2025-04-20T21:57:49.637+03:00,1480,1.071516,0,0,1109.802,1,4,2025-04-21T10:45:26.169+03:00,766914659.0172858,0,-47.47,100.3013,1,0.7,2025-04-21T10:50:54.212+03:00,92.00000000000001,1.533333333333333,2025-04-21T09:28:58.093+03:00,0.01174319131481236,0
2025-04-21T10:51:00.347+03:00,1745221858.034492,40.95361963094089,29.14097085298671,92.82853,-1,-1,-1,-1,30,24.9532621481264,-9999,12658.14950666667,-0.6830291748046875,0.678314208984375,-0.28216552734375,12658.13562766667,-2.004372609162955,-1.177191963407323,-0.7430943098531474,0.001791086047887802,0.01669749617576599,0.004342027939856052,0.00434952974319458,-0.01497912406921387,0.003729134798049927,XArbitraryZVertical,0.5985074758529463,0.02410327049139875,0.5444924956205643,-0.5871420647293255,-0.6800697445869446,0.6765697598457336,-0.2824156582355499,0,0,0,-1,-1,12638.664264,unknown,2,2025-04-21T10:50:40.858+03:00,2025-04-20T21:57:49.637+03:00,1480,1.071516,0,0,1109.802,1,4,2025-04-21T10:45:26.169+03:00,766914659.0172858,0,-47.47,100.3013,1,0.7,2025-04-21T10:50:57.212+03:00,92.00000000000001,1.533333333333333,2025-04-21T09:28:58.093+03:00,0.01174319131481236,0
2025-04-21T10:51:00.355+03:00,1745221858.034492,40.95361963094089,29.14097085298671,92.82853,-1,-1,-1,-1,30,24.9532621481264,-9999,12658.15958266667,-0.67230224609375,0.67205810546875,-0.28375244140625,12658.14570266667,-2.004317356913655,-1.177013618853884,-0.7431225149496715,0.001147200353443623,0.009320607408881187,0.003604498691856861,-0.006018221378326416,-0.005829513072967529,0.002378255128860474,XArbitraryZVertical,0.5984617780469335,0.02405663761173994,0.5445220257412696,-0.5871630099706137,-0.6800015568733215,0.6765905022621155,-0.2825295627117157,0,0,0,-1,-1,12638.664264,unknown,2,2025-04-21T10:50:40.858+03:00,2025-04-20T21:57:49.637+03:00,1480,1.071516,0,0,1109.802,1,4,2025-04-21T10:45:26.169+03:00,766914659.0172858,0,-47.47,100.3013,1,0.7,2025-04-21T10:50:57.212+03:00,92.00000000000001,1.533333333333333,2025-04-21T09:28:58.093+03:00,0.01174319131481236,0
2025-04-21T10:51:00.365+03:00,1745221858.034492,40.95361963094089,29.14097085298671,92.82853,-1,-1,-1,-1,30,24.9532621481264,-9999,12658.16965866667,-0.673736572265625,0.6749114990234375,-0.2885284423828125,12658.15577866667,-2.004343258301893,-1.176992157282168,-0.74316877014894,-0.004346634726971388,0.003606263315305114,0.003432192374020815,-0.00153660774230957,0.001643836498260498,-0.0006861984729766846,XArbitraryZVertical,0.5984619836296696,0.02402494406025518,0.5445236829512781,-0.5871624938684288,-0.6799665093421936,0.6766245365142822,-0.282532125711441,0,0,0,-1,-1,12638.664264,unknown,2,2025-04-21T10:50:40.858+03:00,2025-04-20T21:57:49.637+03:00,1480,1.071516,0,0,1109.802,1,4,2025-04-21T10:45:26.169+03:00,766914659.0172858,0,-47.47,100.3013,1,0.7,2025-04-21T10:50:57.212+03:00,92.00000000000001,1.533333333333333,2025-04-21T09:28:58.093+03:00,0.01174319131481236,0
2025-04-21T10:51:00.375+03:00,1745221858.034492,40.95361963094089,29.14097085298671,92.82853,-1,-1,-1,-1,30,24.9532621481264,-9999,12658.17973466667,-0.6758270263671875,0.678131103515625,-0.2883758544921875,12658.16585466667,-2.004432684975094,-1.177000954214713,-0.7432207293312475,-0.008824805729091167,0.009347438812255859,1.811963738873601e-05,0.008107542991638184,-0.005184590816497803,-0.00128549337387085,XArbitraryZVertical,0.5984718574287721,0.0239810308961688,0.5445335296891612,-0.5871452096826957,-0.6799367070198059,0.676662802696228,-0.2825126945972443,0,0,0,-1,-1,12638.664264,unknown,2,2025-04-21T10:50:40.858+03:00,2025-04-20T21:57:49.637+03:00,1480,1.071516,0,0,1109.802,1,4,2025-04-21T10:45:26.169+03:00,766914659.0172858,0,-47.47,100.3013,1,0.7,2025-04-21T10:50:57.212+03:00,92.00000000000001,1.533333333333333,2025-04-21T09:28:58.093+03:00,0.01174319131481236,0
2025-04-21T10:51:00.385+03:00,1745221858.034492,40.95361963094089,29.14097085298671,92.82853,-1,-1,-1,-1,30,24.9532621481264,-9999,12658.18981066667,-0.668121337890625,0.676513671875,-0.2841339111328125,12658.17593066667,-2.004573230671011,-1.177032639475179,-0.7432760072217469,-0.01298306602984667,0.003653601044788957,0.00282349344342947,0.005259096622467041,-0.001151204109191895,-0.006692439317703247,XArbitraryZVertical,0.5984890097134006,0.02392721642769745,0.5445505623138598,-0.5871141025534095,-0.6799110770225525,0.6767035126686096,-0.2824767827987671,0,0,0,-1,-1,12638.664264,unknown,2,2025-04-21T10:50:40.858+03:00,2025-04-20T21:57:49.637+03:00,1480,1.071516,0,0,1109.802,1,4,2025-04-21T10:45:26.169+03:00,766914659.0172858,0,-47.47,100.3013,1,0.7,2025-04-21T10:50:57.212+03:00,92.00000000000001,1.533333333333333,2025-04-21T09:28:58.093+03:00,0.01174319131481236,0
2025-04-21T10:51:00.395+03:00,1745221858.034492,40.95361963094089,29.14097085298671,92.82853,-1,-1,-1,-1,30,24.9532621481264,-9999,12658.19988566667,-0.6710205078125,0.67254638671875,-0.2819671630859375,12658.18600666667,-2.004698683823357,-1.177094076400172,-0.7433283260085058,-0.006235947832465172,0.0004655309021472931,-5.445152055472136e-05,0.00469440221786499,0.001450002193450928,-0.005969613790512085,XArbitraryZVertical,0.5985137153719902,0.02388776746610805,0.5445550340322017,-0.5870863327003881,-0.6798956990242004,0.6767420172691345,-0.2824214100837708,0,0,0,-1,-1,12638.664264,unknown,2,2025-04-21T10:50:40.858+03:00,2025-04-20T21:57:49.637+03:00,1480,1.071516,0,0,1109.802,1,4,2025-04-21T10:45:26.169+03:00,766914659.0172858,0,-47.47,100.3013,1,0.7,2025-04-21T10:50:57.212+03:00,92.00000000000001,1.533333333333333,2025-04-21T09:28:58.093+03:00,0.01174319131481236,0
2025-04-21T10:51:00.405+03:00,1745221858.034492,40.95361963094089,29.14097085298671,92.82853,-1,-1,-1,-1,30,24.9532621481264,-9999,12658.20996166667,-0.678863525390625,0.6671142578125,-0.27911376953125,12658.19608166667,-2.004780185130473,-1.177147883167221,-0.7433611212922974,-0.003739234292879701,0.003503132378682494,0.001277395291253924,0.01233381032943726,-8.344650268554688e-06,-0.000735163688659668,XArbitraryZVertical,0.5985333706199237,0.02386673030205932,0.5445541849636519,-0.5870680490215839,-0.679890513420105,0.6767661571502686,-0.2823763787746429,0,0,0,-1,-1,12638.664264,unknown,2,2025-04-21T10:50:40.858+03:00,2025-04-20T21:57:49.637+03:00,1480,1.071516,0,0,1109.802,1,4,2025-04-21T10:45:26.169+03:00,766914659.0172858,0,-47.47,100.3013,1,0.7,2025-04-21T10:50:57.212+03:00,92.00000000000001,1.533333333333333,2025-04-21T09:28:58.093+03:00,0.01174319131481236,0
2025-04-21T10:51:00.415+03:00,1745221858.034492,40.95361963094089,29.14097085298671,92.82853,-1,-1,-1,-1,30,24.9532621481264,-9999,12658.22003766667,-0.6790924072265625,0.670379638671875,-0.2764739990234375,12658.20615766667,-2.004791851893309,-1.177109456907407,-0.743405097472065,-0.001703513786196709,0.003388616489246488,0.003595144487917423,0.007794022560119629,-0.005228757858276367,0.0005917847156524658,XArbitraryZVertical,0.5985285111321512,0.02383515262204145,0.5445573013403052,-0.5870712546044262,-0.6798520088195801,0.6767985820770264,-0.2823910117149353,0,0,0,-1,-1,12638.664264,unknown,2,2025-04-21T10:50:40.858+03:00,2025-04-20T21:57:49.637+03:00,1480,1.071516,0,0,1109.802,1,4,2025-04-21T10:45:26.169+03:00,766914659.0172858,0,-47.47,100.3013,1,0.7,2025-04-21T10:50:57.212+03:00,92.00000000000001,1.533333333333333,2025-04-21T09:28:58.093+03:00,0.01174319131481236,0
2025-04-21T10:51:00.425+03:00,1745221858.034492,40.95361963094089,29.14097085298671,92.82853,-1,-1,-1,-1,30,24.9532621481264,-9999,12658.23011366667,-0.6747283935546875,0.6722564697265625,-0.2801666259765625,12658.21623366667,-2.004866554648443,-1.177142363164001,-0.7434728643604391,-0.0104685090482235,0.0005688616074621677,0.004517397377640009,0.0004062056541442871,-0.009047627449035645,0.004030793905258179,XArbitraryZVertical,0.5985467401622454,0.02379663911625043,0.5445513065226935,-0.5870597700083405,-0.6798189282417297,0.6768484711647034,-0.2823510468006134,0,0,0,-1,-1,12638.664264,unknown,2,2025-04-21T10:50:40.858+03:00,2025-04-20T21:57:49.637+03:00,1480,1.071516,0,0,1109.802,1,4,2025-04-21T10:45:26.169+03:00,766914659.0172858,0,-47.47,100.3013,1,0.7,2025-04-21T10:50:57.212+03:00,92.00000000000001,1.533333333333333,2025-04-21T09:28:58.093+03:00,0.01174319131481236,0
2025-04-21T10:51:00.435+03:00,1745221858.034492,40.95361963094089,29.14097085298671,92.82853,-1,-1,-1,-1,30,24.9532621481264,-9999,12658.24018866667,-0.6728057861328125,0.665557861328125,-0.285614013671875,12658.22630966667,-2.005102753083532,-1.177306710034064,-0.7436046495259253,-0.02957722172141075,-0.001471652183681726,0.008312135934829712,0.0009348392486572266,-0.00597071647644043,0.00544130802154541,XArbitraryZVertical,0.5986105498999228,0.02372404898204765,0.5445363963803462,-0.5870115903628799,-0.679783046245575,0.6769454479217529,-0.2822051644325256,0,0,0,-1,-1,12638.664264,unknown,2,2025-04-21T10:50:40.858+03:00,2025-04-20T21:57:49.637+03:00,1480,1.071516,0,0,1109.802,1,4,2025-04-21T10:45:26.169+03:00,766914659.0172858,0,-47.47,100.3013,1,0.7,2025-04-21T10:50:57.212+03:00,92.00000000000001,1.533333333333333,2025-04-21T09:28:58.093+03:00,0.01174319131481236,0
2025-04-21T10:51:00.445+03:00,1745221858.034492,40.95361963094089,29.14097085298671,92.82853,-1,-1,-1,-1,30,24.9532621481264,-9999,12658.25026466667,-0.6761322021484375,0.6677703857421875,-0.2890472412109375,12658.23638466667,-2.005557064242011,-1.177640167598718,-0.7438284363077616,-0.05176961049437523,-0.004973975941538811,0.00962320901453495,0.005680203437805176,-0.005326747894287109,0.001097679138183594,XArbitraryZVertical,0.5987343323042222,0.02360069126349102,0.5445102564829657,-0.5869145479582741,-0.6797371506690979,0.6771101355552673,-0.2819204032421112,0,0,0,-1,-1,12638.664264,unknown,2,2025-04-21T10:50:40.858+03:00,2025-04-20T21:57:49.637+03:00,1480,1.071516,0,0,1109.802,1,4,2025-04-21T10:45:26.169+03:00,766914659.0172858,0,-47.47,100.3013,1,0.7,2025-04-21T10:50:57.212+03:00,92.00000000000001,1.533333333333333,2025-04-21T09:28:58.093+03:00,0.01174319131481236,0
2025-04-21T10:51:00.455+03:00,1745221858.034492,40.95361963094089,29.14097085298671,92.82853,-1,-1,-1,-1,30,24.9532621481264,-9999,12658.26034066667,-0.677490234375,0.6797027587890625,-0.2874298095703125,12658.24646066667,-2.006110925013679,-1.1780418523831,-0.7440969275499407,-0.04347439855337143,-0.002884726040065289,0.00715605728328228,0.006785094738006592,-0.01249760389328003,-0.004738122224807739,XArbitraryZVertical,0.598883296273979,0.02345046460938682,0.544480920158129,-0.5867957596468074,-0.6796823143959045,0.6773077249526978,-0.2815777361392975,0,0,0,-1,-1,12638.664264,unknown,2,2025-04-21T10:50:40.858+03:00,2025-04-20T21:57:49.637+03:00,1480,1.071516,0,0,1109.802,1,4,2025-04-21T10:45:26.169+03:00,766914659.0172858,0,-47.47,100.3013,1,0.7,2025-04-21T10:50:57.212+03:00,92.00000000000001,1.533333333333333,2025-04-21T09:28:58.093+03:00,0.01174319131481236,0
2025-04-21T10:51:00.466+03:00,1745221858.034492,40.95361963094089,29.14097085298671,92.82853,-1,-1,-1,-1,30,24.9532621481264,-9999,12658.27041666667,-0.6805572509765625,0.6878509521484375,-0.2831878662109375,12658.25653666667,-2.006521076878189,-1.178309600125213,-0.7442934895846272,-0.02984806708991528,0.004076244775205851,0.007893219590187073,0.003502547740936279,-0.008201897144317627,-0.007778674364089966,XArbitraryZVertical,0.5989851778419324,0.02333131681137224,0.5444686496358236,-0.5867078695351376,-0.6796346306800842,0.6774522662162781,-0.2813448011875153,0,0,0,-1,-1,12638.664264,unknown,2,2025-04-21T10:50:40.858+03:00,2025-04-20T21:57:49.637+03:00,1480,1.071516,0,0,1109.802,1,4,2025-04-21T10:45:26.169+03:00,766914659.0172858,0,-47.47,100.3013,1,0.7,2025-04-21T10:50:57.212+03:00,92.00000000000001,1.533333333333333,2025-04-21T09:28:58.093+03:00,0.01174319131481236,0
2025-04-21T10:51:00.476+03:00,1745221858.034492,40.95361963094089,29.14097085298671,92.82853,-1,-1,-1,-1,30,24.9532621481264,-9999,12658.28049166667,-0.6798095703125,0.673828125,-0.27996826171875,12658.26661266667,-2.007017725151965,-1.178563100198084,-0.7445127706984561,-0.04166024923324585,0.00718708336353302,0.004606746137142181,0.001834392547607422,0.003859162330627441,-0.005795210599899292,XArbitraryZVertical,0.5990869189705937,0.02317339615734137,0.5444799287788502,-0.5865997483456048,-0.6795686483383179,0.6776135563850403,-0.281115710735321,0,0,0,-1,-1,12638.664264,unknown,2,2025-04-21T10:50:40.858+03:00,2025-04-20T21:57:49.637+03:00,1480,1.071516,0,0,1109.802,1,4,2025-04-21T10:45:26.169+03:00,766914659.0172858,0,-47.47,100.3013,1,0.7,2025-04-21T10:50:57.212+03:00,92.00000000000001,1.533333333333333,2025-04-21T09:28:58.093+03:00,0.01174319131481236,0
2025-04-21T10:51:00.486+03:00,1745221858.034492,40.95361963094089,29.14097085298671,92.82853,-1,-1,-1,-1,30,24.9532621481264,-9999,12658.29056766667,-0.68072509765625,0.67047119140625,-0.2805023193359375,12658.27668766667,-2.00748096149653,-1.178806875161674,-0.744729946096494,-0.04132895171642303,0.004333239980041981,0.007839823141694069,-0.00102543830871582,0.00908583402633667,-0.001347899436950684,XArbitraryZVertical,0.5991852710702611,0.02302344788905165,0.5444849224706839,-0.5865006591375883,-0.6795012354850769,0.6777732968330383,-0.280893862247467,0,0,0,-1,-1,12638.664264,unknown,2,2025-04-21T10:50:40.858+03:00,2025-04-20T21:57:49.637+03:00,1480,1.071516,0,0,1109.802,1,4,2025-04-21T10:45:26.169+03:00,766914659.0172858,0,-47.47,100.3013,1,0.7,2025-04-21T10:50:57.212+03:00,92.00000000000001,1.533333333333333,2025-04-21T09:28:58.093+03:00,0.01174319131481236,0
2025-04-21T10:51:00.496+03:00,1745221858.034492,40.95361963094089,29.14097085298671,92.82853,-1,-1,-1,-1,30,24.9532621481264,-9999,12658.30064366667,-0.677276611328125,0.683837890625,-0.276214599609375,12658.28676366667,-2.007913486325779,-1.179029322874227,-0.7449440383919904,-0.03385439142584801,0.009995253756642342,0.007497807033360004,-0.0003798604011535645,-0.006589770317077637,0.0008869469165802002,XArbitraryZVertical,0.5992770410299351,0.02287754160028494,0.5444880219349295,-0.5864097231478337,-0.6794295907020569,0.6779306530952454,-0.2806873023509979,0,0,0,-1,-1,12638.664264,unknown,2,2025-04-21T10:50:40.858+03:00,2025-04-20T21:57:49.637+03:00,1480,1.071516,0,0,1109.802,1,4,2025-04-21T10:45:26.169+03:00,766914659.0172858,0,-47.47,100.3013,1,0.7,2025-04-21T10:50:57.212+03:00,92.00000000000001,1.533333333333333,2025-04-21T09:28:58.093+03:00,0.01174319131481236,0
2025-04-21T10:51:00.506+03:00,1745221858.034492,40.95361963094089,29.14097085298671,92.82853,-1,-1,-1,-1,30,24.9532621481264,-9999,12658.31071966667,-0.6715087890625,0.68603515625,-0.27838134765625,12658.29683966667,-2.008234672466854,-1.179170896982666,-0.7451025178715529,-0.02282917313277721,0.005111015867441893,0.005794182885438204,-0.001065075397491455,-0.006340086460113525,0.000353008508682251,XArbitraryZVertical,0.5993386547540619,0.02276244864979692,0.5444975224238092,-0.5863424248988759,-0.6793699860572815,0.6780471801757812,-0.280550092458725,0,0,0,-1,-1,12638.664264,unknown,2,2025-04-21T10:50:40.858+03:00,2025-04-20T21:57:49.637+03:00,1480,1.071516,0,0,1109.802,1,4,2025-04-21T10:45:26.169+03:00,766914659.0172858,0,-47.47,100.3013,1,0.7,2025-04-21T10:50:57.212+03:00,92.00000000000001,1.533333333333333,2025-04-21T09:28:58.093+03:00,0.01174319131481236,0
2025-04-21T10:51:00.517+03:00,1745221858.034492,40.95361963094089,29.14097085298671,92.82853,-1,-1,-1,-1,30,24.9532621481264,-9999,12658.32079766667,-0.67572021484375,0.689300537109375,-0.2860565185546875,12658.30691566667,-2.008468521651319,-1.179296282196143,-0.7452103269872929,-0.01504581794142723,0.00362310791388154,0.002969501307234168,0.002579808235168457,0.00612342357635498,0.004130899906158447,XArbitraryZVertical,0.599388649180488,0.0226880458149945,0.5444997328323843,-0.5862921119819861,-0.6793375611305237,0.6781263947486877,-0.2804369926452637,0,0,0,-1,-1,12638.664264,unknown,2,2025-04-21T10:50:40.858+03:00,2025-04-20T21:57:49.637+03:00,1480,1.071516,0,0,1109.802,1,4,2025-04-21T10:45:26.169+03:00,766914659.0172858,0,-47.47,100.3013,1,0.7,2025-04-21T10:50:57.212+03:00,92.00000000000001,1.533333333333333,2025-04-21T09:28:58.093+03:00,0.01174319131481236,0
2025-04-21T10:51:00.526+03:00,1745221858.034492,40.95361963094089,29.14097085298671,92.82853,-1,-1,-1,-1,30,24.9532621481264,-9999,12658.33087266667,-0.682891845703125,0.6881103515625,-0.2904052734375,12658.31699366667,-2.008551385823164,-1.179291736813029,-0.7452193312456914,0.00177896860986948,0.007850609719753265,-0.003950722981244326,0.008249223232269287,0.007795333862304688,0.001247763633728027,XArbitraryZVertical,0.5993894414444086,0.02265847359871702,0.5445230202260224,-0.5862708735360457,-0.6793307065963745,0.6781330108642578,-0.2804377675056458,0,0,0,-1,-1,12638.664264,unknown,2,2025-04-21T10:50:40.858+03:00,2025-04-20T21:57:49.637+03:00,1480,1.071516,0,0,1109.802,1,4,2025-04-21T10:45:26.169+03:00,766914659.0172858,0,-47.47,100.3013,1,0.7,2025-04-21T10:50:57.212+03:00,92.00000000000001,1.533333333333333,2025-04-21T09:28:58.093+03:00,0.01174319131481236,0
2025-04-21T10:51:00.536+03:00,1745221858.034492,40.95361963094089,29.14097085298671,92.82853,-1,-1,-1,-1,30,24.9532621481264,-9999,12658.34094866667,-0.688079833984375,0.68389892578125,-0.2890777587890625,12658.32706866667,-2.008459139783424,-1.179103343152308,-0.7451378109196668,0.0129472017288208,0.01462143007665873,-0.004839818924665451,0.00312042236328125,0.01153254508972168,-0.006385177373886108,XArbitraryZVertical,0.5993271580052572,0.02266187821914868,0.544574075275852,-0.5862868389334172,-0.6793287992477417,0.6780731081962585,-0.2805867791175842,0,0,0,-1,-1,12638.664264,unknown,2,2025-04-21T10:50:40.858+03:00,2025-04-20T21:57:49.637+03:00,1480,1.071516,0,0,1109.802,1,4,2025-04-21T10:45:26.169+03:00,766914659.0172858,0,-47.47,100.3013,1,0.7,2025-04-21T10:50:57.212+03:00,92.00000000000001,1.533333333333333,2025-04-21T09:28:58.093+03:00,0.01174319131481236,0
2025-04-21T10:51:00.546+03:00,1745221858.034492,40.95361963094089,29.14097085298671,92.82853,-1,-1,-1,-1,30,24.9532621481264,-9999,12658.35102466667,-0.6915435791015625,0.6774749755859375,-0.2871551513671875,12658.33714466667,-2.00819989629633,-1.178734926458473,-0.744997748213781,0.02406057342886925,0.02013523876667023,-0.004250461235642433,-0.004783987998962402,0.009789228439331055,-0.008997797966003418,XArbitraryZVertical,0.5992067310448513,0.02268494083401084,0.5446458604725999,-0.5863424399526738,-0.6793132424354553,0.6779701709747314,-0.2808733880519867,0,0,0,-1,-1,12638.664264,unknown,2,2025-04-21T10:50:40.858+03:00,2025-04-20T21:57:49.637+03:00,1480,1.071516,0,0,1109.802,1,4,2025-04-21T10:45:26.169+03:00,766914659.0172858,0,-47.47,100.3013,1,0.7,2025-04-21T10:50:57.212+03:00,92.00000000000001,1.533333333333333,2025-04-21T09:28:58.093+03:00,0.01174319131481236,0
2025-04-21T10:51:00.557+03:00,1745221858.034492,40.95361963094089,29.14097085298671,92.82853,-1,-1,-1,-1,30,24.9532621481264,-9999,12658.36110066667,-0.6922760009765625,0.6680908203125,-0.2874298095703125,12658.34722066667,-2.007920738439954,-1.17827882126962,-0.7448933112499265,0.01923645474016666,0.02986529655754566,0.0008483933634124696,-0.009226024150848389,0.005212008953094482,-0.007653802633285522,XArbitraryZVertical,0.5990665559972213,0.02267460859954457,0.5447284643063539,-0.5864092924204861,-0.6792504191398621,0.6778934001922607,-0.2812102437019348,0,0,0,-1,-1,12638.664264,unknown,2,2025-04-21T10:50:40.858+03:00,2025-04-20T21:57:49.637+03:00,1480,1.071516,0,0,1109.802,1,4,2025-04-21T10:45:26.169+03:00,766914659.0172858,0,-47.47,100.3013,1,0.7,2025-04-21T10:50:57.212+03:00,92.00000000000001,1.533333333333333,2025-04-21T09:28:58.093+03:00,0.01174319131481236,0
2025-04-21T10:51:00.566+03:00,1745221858.034492,40.95361963094089,29.14097085298671,92.82853,-1,-1,-1,-1,30,24.9532621481264,-9999,12658.37117566667,-0.684661865234375,0.660430908203125,-0.2857818603515625,12658.35729666667,-2.007729518914595,-1.177841802773494,-0.7448662301655411,0.004781350027769804,0.03228531405329704,0.00415444141253829,-0.01311612129211426,-0.001756548881530762,-0.006205558776855469,XArbitraryZVertical,0.5989420093932615,0.02261410123604573,0.5448105713927998,-0.5864626822107565,-0.6791445016860962,0.6778734922409058,-0.2815141379833221,0,0,0,-1,-1,12638.664264,unknown,2,2025-04-21T10:50:40.858+03:00,2025-04-20T21:57:49.637+03:00,1480,1.071516,0,0,1109.802,1,4,2025-04-21T10:45:26.169+03:00,766914659.0172858,0,-47.47,100.3013,1,0.7,2025-04-21T10:50:57.212+03:00,92.00000000000001,1.533333333333333,2025-04-21T09:28:58.093+03:00,0.01174319131481236,0
2025-04-21T10:51:00.576+03:00,1745221858.034492,40.95361963094089,29.14097085298671,92.82853,-1,-1,-1,-1,30,24.9532621481264,-9999,12658.38125166667,-0.6788787841796875,0.661224365234375,-0.285308837890625,12658.36737166667,-2.00781911724783,-1.177580764064493,-0.7449667246622547,-0.02690673805773258,0.03530460596084595,0.007142941001802683,-0.0118945837020874,-0.01187068223953247,-0.00541350245475769,XArbitraryZVertical,0.5988842307214683,0.02247246021870947,0.5448882554848586,-0.5864550050232472,-0.6790081262588501,0.6779473423957825,-0.2816653251647949,0,0,0,-1,-1,12638.664264,unknown,2,2025-04-21T10:50:40.858+03:00,2025-04-20T21:57:49.637+03:00,1480,1.071516,0,0,1109.802,1,4,2025-04-21T10:45:26.169+03:00,766914659.0172858,0,-47.47,100.3013,1,0.7,2025-04-21T10:50:57.212+03:00,92.00000000000001,1.533333333333333,2025-04-21T09:28:58.093+03:00,0.01174319131481236,0
2025-04-21T10:51:00.587+03:00,1745221858.034492,40.95361963094089,29.14097085298671,92.82853,-1,-1,-1,-1,30,24.9532621481264,-9999,12658.39132766667,-0.6684722900390625,0.663909912109375,-0.2904510498046875,12658.37744766667,-2.00835802878068,-1.177575954805659,-0.7452167646564749,-0.06241519749164581,0.03713712468743324,0.01095791906118393,-0.005018234252929688,-0.01835644245147705,-0.00430026650428772,XArbitraryZVertical,0.5989196328323174,0.02221436231185249,0.5449809905624233,-0.5863423967558382,-0.6788500547409058,0.6781311631202698,-0.28160360455513,0,0,0,-1,-1,12638.664264,unknown,2,2025-04-21T10:50:40.858+03:00,2025-04-20T21:57:49.637+03:00,1480,1.071516,0,0,1109.802,1,4,2025-04-21T10:45:26.169+03:00,766914659.0172858,0,-47.47,100.3013,1,0.7,2025-04-21T10:50:57.212+03:00,92.00000000000001,1.533333333333333,2025-04-21T09:28:58.093+03:00,0.01174319131481236,0
2025-04-21T10:51:00.597+03:00,1745221858.034492,40.95361963094089,29.14097085298671,92.82853,-1,-1,-1,-1,30,24.9532621481264,-9999,12658.40140366667,-0.6625823974609375,0.6663665771484375,-0.29296875,12658.38752366667,-2.009329856658079,-1.177882949299913,-0.7456610075135307,-0.1040510535240173,0.03492297232151031,0.01570979692041874,-8.32676887512207e-05,-0.01712644100189209,-0.004303663969039917,XArbitraryZVertical,0.599068406726234,0.02184398494212113,0.5450554494624352,-0.5861350048758061,-0.6786580681800842,0.6784575581550598,-0.2812797725200653,0,0,0,-1,-1,12638.664264,unknown,2,2025-04-21T10:50:40.858+03:00,2025-04-20T21:57:49.637+03:00,1480,1.071516,0,0,1109.802,1,4,2025-04-21T10:45:26.169+03:00,766914659.0172858,0,-47.47,100.3013,1,0.7,2025-04-21T10:50:57.212+03:00,92.00000000000001,1.533333333333333,2025-04-21T09:28:58.093+03:00,0.01174319131481236,0
2025-04-21T10:51:00.607+03:00,1745221858.034492,40.95361963094089,29.14097085298671,92.82853,-1,-1,-1,-1,30,24.9532621481264,-9999,12658.41147866667,-0.67388916015625,0.666229248046875,-0.2935791015625,12658.39759966667,-2.010868127801167,-1.178556022265231,-0.7462954488333894,-0.1492739319801331,0.04150444269180298,0.01221839338541031,0.01157939434051514,-0.01437276601791382,-0.01050978899002075,XArbitraryZVertical,0.5993458747513016,0.02133858971409691,0.5451354363193206,-0.5857956002390896,-0.6784494519233704,0.678923487663269,-0.2806583642959595,0,0,0,-1,-1,12638.664264,unknown,2,2025-04-21T10:50:40.858+03:00,2025-04-20T21:57:49.637+03:00,1480,1.071516,0,0,1109.802,1,4,2025-04-21T10:45:26.169+03:00,766914659.0172858,0,-47.47,100.3013,1,0.7,2025-04-21T10:50:57.212+03:00,92.00000000000001,1.533333333333333,2025-04-21T09:28:58.093+03:00,0.01174319131481236,0
2025-04-21T10:51:00.617+03:00,1745221858.034492,40.95361963094089,29.14097085298671,92.82853,-1,-1,-1,-1,30,24.9532621481264,-9999,12658.42155466667,-0.6831207275390625,0.6611480712890625,-0.3083038330078125,12658.40767466667,-2.013005491322403,-1.179520362433597,-0.7471166799414414,-0.1973881274461746,0.05151532962918282,0.01664113812148571,0.01527082920074463,-0.01332753896713257,-0.01268917322158813,XArbitraryZVertical,0.5997309745763142,0.02066719766280771,0.5452531855208426,-0.5853157305751724,-0.6782041192054749,0.6795262098312378,-0.2797912359237671,0,0,0,-1,-1,12638.664264,unknown,2,2025-04-21T10:50:40.858+03:00,2025-04-20T21:57:49.637+03:00,1480,1.071516,0,0,1109.802,1,4,2025-04-21T10:45:26.169+03:00,766914659.0172858,0,-47.47,100.3013,1,0.7,2025-04-21T10:50:57.212+03:00,92.00000000000001,1.533333333333333,2025-04-21T09:28:58.093+03:00,0.01174319131481236,0
2025-04-21T10:51:00.627+03:00,1745221858.034492,40.95361963094089,29.14097085298671,92.82853,-1,-1,-1,-1,30,24.9532621481264,-9999,12658.43163066667,-0.680084228515625,0.657073974609375,-0.33477783203125,12658.41775066667,-2.015752610893432,-1.180818697304201,-0.7481742179314367,-0.2604195475578308,0.05790398642420769,0.02704637497663498,0.001571297645568848,-0.0148659348487854,-0.01608633995056152,XArbitraryZVertical,0.6002404598866008,0.01981971356122342,0.5453853009881912,-0.5846994063507783,-0.6779018044471741,0.6803017258644104,-0.2786371409893036,0,0,0,-1,-1,12638.664264,unknown,2,2025-04-21T10:50:40.858+03:00,2025-04-20T21:57:49.637+03:00,1480,1.071516,0,0,1109.802,1,4,2025-04-21T10:45:26.169+03:00,766914659.0172858,0,-47.47,100.3013,1,0.7,2025-04-21T10:50:57.212+03:00,92.00000000000001,1.533333333333333,2025-04-21T09:28:58.093+03:00,0.01174319131481236,0
2025-04-21T10:51:00.637+03:00,1745221858.034492,40.95361963094089,29.14097085298671,92.82853,-1,-1,-1,-1,30,24.9532621481264,-9999,12658.44170666667,-0.6748199462890625,0.65216064453125,-0.3602447509765625,12658.42782666667,-2.019259139861359,-1.182652299402625,-0.7495525059094776,-0.3198756873607635,0.05066179111599922,0.03648368641734123,-0.005989611148834229,-0.02092617750167847,-0.034881591796875,XArbitraryZVertical,0.6009393996052773,0.01877687483835098,0.5454915953537463,-0.5839162156979241,-0.677543044090271,0.6813112497329712,-0.2770385444164276,0,0,0,-1,-1,12638.664264,unknown,2,2025-04-21T10:50:40.858+03:00,2025-04-20T21:57:49.637+03:00,1480,1.071516,0,0,1109.802,1,4,2025-04-21T10:45:26.169+03:00,766914659.0172858,0,-47.47,100.3013,1,0.7,2025-04-21T10:50:57.212+03:00,92.00000000000001,1.533333333333333,2025-04-21T09:28:58.093+03:00,0.01174319131481236,0
2025-04-21T10:51:00.647+03:00,1745221858.034492,40.95361963094089,29.14097085298671,92.82853,-1,-1,-1,-1,30,24.9532621481264,-9999,12658.45178166667,-0.6798095703125,0.6415252685546875,-0.3657684326171875,12658.43790266667,-2.023594817149259,-1.185137974242843,-0.7513002342008188,-0.3990551829338074,0.03946106880903244,0.05297451093792915,-0.001829802989959717,-0.02551561594009399,-0.06235980987548828,XArbitraryZVertical,0.6018638181286681,0.01753166380145897,0.5455427509578239,-0.5829542111658649,-0.6771252155303955,0.6825895309448242,-0.2749051749706268,0,0,0,-1,-1,12638.664264,unknown,2,2025-04-21T10:50:40.858+03:00,2025-04-20T21:57:49.637+03:00,1480,1.071516,0,0,1109.802,1,4,2025-04-21T10:45:26.169+03:00,766914659.0172858,0,-47.47,100.3013,1,0.7,2025-04-21T10:50:57.212+03:00,92.00000000000001,1.533333333333333,2025-04-21T09:28:58.093+03:00,0.01174319131481236,0
2025-04-21T10:51:00.657+03:00,1745221858.034492,40.95361963094089,29.14097085298671,92.82853,-1,-1,-1,-1,30,24.9532621481264,-9999,12658.46185766667,-0.6854400634765625,0.6195526123046875,-0.357513427734375,12658.44797766667,-2.02885831804666,-1.188351842177398,-0.7534315596568879,-0.4670947790145874,0.03647346794605255,0.05720198154449463,0.001650989055633545,-0.03296148777008057,-0.09060889482498169,XArbitraryZVertical,0.6030338081585579,0.01606894477761334,0.5455386319612238,-0.5817899648071259,-0.6766539812088013,0.6841455698013306,-0.2721840441226959,0,0,0,-1,-1,12638.664264,unknown,2,2025-04-21T10:50:40.858+03:00,2025-04-20T21:57:49.637+03:00,1480,1.071516,0,0,1109.802,1,4,2025-04-21T10:45:26.169+03:00,766914659.0172858,0,-47.47,100.3013,1,0.7,2025-04-21T10:50:57.212+03:00,92.00000000000001,1.533333333333333,2025-04-21T09:28:58.093+03:00,0.01174319131481236,0
2025-04-21T10:51:00.667+03:00,1745221858.034492,40.95361963094089,29.14097085298671,92.82853,-1,-1,-1,-1,30,24.9532621481264,-9999,12658.47193366667,-0.684326171875,0.6141204833984375,-0.339599609375,12658.45805366667,-2.034983231745784,-1.192199459699433,-0.7557647907954408,-0.534227192401886,0.026326023042202,0.04737544804811478,-0.004712224006652832,-0.04604440927505493,-0.09539204835891724,XArbitraryZVertical,0.6043983559570499,0.01444772699081548,0.5455339904110186,-0.5804192623637779,-0.6762111783027649,0.6858454346656799,-0.268987774848938,0,0,0,-1,-1,12638.664264,unknown,2,2025-04-21T10:50:40.858+03:00,2025-04-20T21:57:49.637+03:00,1480,1.071516,0,0,1109.802,1,4,2025-04-21T10:45:26.169+03:00,766914659.0172858,0,-47.47,100.3013,1,0.7,2025-04-21T10:50:57.212+03:00,92.00000000000001,1.533333333333333,2025-04-21T09:28:58.093+03:00,0.01174319131481236,0
2025-04-21T10:51:00.677+03:00,1745221858.034492,40.95361963094089,29.14097085298671,92.82853,-1,-1,-1,-1,30,24.9532621481264,-9999,12658.48200966667,-0.6871490478515625,0.6666412353515625,-0.344573974609375,12658.46812966667,-2.041699209947528,-1.196389300965787,-0.7579671506206063,-0.4737227261066437,0.09869595617055893,0.004837509244680405,-0.009499967098236084,-0.07057946920394897,-0.09028154611587524,XArbitraryZVertical,0.6058356622442232,0.01278950475444738,0.545624697036737,-0.5788723933244349,-0.6759247779846191,0.6874465346336365,-0.2655991613864899,0,0,0,-1,-1,12638.664264,unknown,2,2025-04-21T10:50:40.858+03:00,2025-04-20T21:57:49.637+03:00,1480,1.071516,0,0,1109.802,1,4,2025-04-21T10:45:26.169+03:00,766914659.0172858,0,-47.47,100.3013,1,0.7,2025-04-21T10:50:57.212+03:00,92.00000000000001,1.533333333333333,2025-04-21T09:28:58.093+03:00,0.01174319131481236,0
2025-04-21T10:51:00.687+03:00,1745221858.034492,40.95361963094089,29.14097085298671,92.82853,-1,-1,-1,-1,30,24.9532621481264,-9999,12658.49208566667,-0.66119384765625,0.724700927734375,-0.3349456787109375,12658.47820566667,-2.047564896837002,-1.198373981182092,-0.7596103460588549,-0.463532418012619,0.1490219831466675,-0.005835375282913446,-0.009752571582794189,-0.07181763648986816,-0.0733887255191803,XArbitraryZVertical,0.6065946197197377,0.01095798005779119,0.5462801528939387,-0.5774954053963995,-0.6753975749015808,0.6886389851570129,-0.2638457715511322,0,0,0,-1,-1,12638.664264,unknown,2,2025-04-21T10:50:40.858+03:00,2025-04-20T21:57:49.637+03:00,1480,1.071516,0,0,1109.802,1,4,2025-04-21T10:45:26.169+03:00,766914659.0172858,0,-47.47,100.3013,1,0.7,2025-04-21T10:50:57.212+03:00,92.00000000000001,1.533333333333333,2025-04-21T09:28:58.093+03:00,0.01174319131481236,0
2025-04-21T10:51:00.697+03:00,1745221858.034492,40.95361963094089,29.14097085298671,92.82853,-1,-1,-1,-1,30,24.9532621481264,-9999,12658.50216066667,-0.64349365234375,0.7176971435546875,-0.35028076171875,12658.48828166667,-2.053795747444026,-1.201065590392173,-0.760659580576513,-0.4358955025672913,0.2327775210142136,-0.1253166645765305,-0.01008510589599609,-0.0117260217666626,-0.08499026298522949,XArbitraryZVertical,0.6074767567558489,0.009442168399366848,0.5469798811791996,-0.5759304594701032,-0.6754311919212341,0.6893993616104126,-0.2617656588554382,0,0,0,-1,-1,12638.664264,unknown,2,2025-04-21T10:50:40.858+03:00,2025-04-20T21:57:49.637+03:00,1480,1.071516,0,0,1109.802,1,4,2025-04-21T10:45:26.169+03:00,766914659.0172858,0,-47.47,100.3013,1,0.7,2025-04-21T10:50:57.212+03:00,92.00000000000001,1.533333333333333,2025-04-21T09:28:58.093+03:00,0.01174319131481236,0
2025-04-21T10:51:00.708+03:00,1745221858.034492,40.95361963094089,29.14097085298671,92.82853,-1,-1,-1,-1,30,24.9532621481264,-9999,12658.51223666667,-0.597991943359375,0.79644775390625,-0.39532470703125,12658.49835666667,-2.058346247378571,-1.201234541332619,-0.7614513950754281,-0.2321173548698425,0.3070363104343414,0.03033391386270523,0.01754117012023926,0.03373628854751587,-0.06879168748855591,XArbitraryZVertical,0.6076281310543789,0.00780578973129427,0.548026411303198,-0.5747991779037773,-0.674966037273407,0.6899727582931519,-0.2614542543888092,0,0,0,-1,-1,12638.664264,unknown,2,2025-04-21T10:50:40.858+03:00,2025-04-20T21:57:49.637+03:00,1480,1.071516,0,0,1109.802,1,4,2025-04-21T10:45:26.169+03:00,766914659.0172858,0,-47.47,100.3013,1,0.7,2025-04-21T10:50:57.212+03:00,92.00000000000001,1.533333333333333,2025-04-21T09:28:58.093+03:00,0.01174319131481236,0
2025-04-21T10:51:00.717+03:00,1745221858.034492,40.95361963094089,29.14097085298671,92.82853,-1,-1,-1,-1,30,24.9532621481264,-9999,12658.52231266667,-0.6681976318359375,0.736907958984375,-0.3722686767578125,12658.50843266667,-2.0615374817621,-1.202321325280076,-0.7621287131009331,-0.2583845257759094,0.008414600975811481,-0.05487053096294403,0.03580617904663086,0.03341406583786011,-0.09819716215133667,XArbitraryZVertical,0.6080102416741267,0.006889126821923432,0.5484321434196224,-0.5740193505773982,-0.6748136878013611,0.6904628276824951,-0.2605521678924561,0,0,0,-1,-1,12638.664264,unknown,2,2025-04-21T10:50:40.858+03:00,2025-04-20T21:57:49.637+03:00,1480,1.071516,0,0,1109.802,1,4,2025-04-21T10:45:26.169+03:00,766914659.0172858,0,-47.47,100.3013,1,0.7,2025-04-21T10:50:57.212+03:00,92.00000000000001,1.533333333333333,2025-04-21T09:28:58.093+03:00,0.01174319131481236,0
2025-04-21T10:51:00.728+03:00,1745221858.034492,40.95361963094089,29.14097085298671,92.82853,-1,-1,-1,-1,30,24.9532621481264,-9999,12658.53238866667,-0.75543212890625,0.66607666015625,-0.3964080810546875,12658.51850866667,-2.066230781353871,-1.205234872745588,-0.7628069612932327,-0.4258629977703094,0.06153534352779388,-0.06222911179065704,0.07764410972595215,0.1093243956565857,-0.1347709596157074,XArbitraryZVertical,0.6088963713416041,0.006037308481452554,0.5487106882451769,-0.5728222561884556,-0.6751325130462646,0.6909533143043518,-0.2584175169467926,0,0,0,-1,-1,12638.664264,unknown,2,2025-04-21T10:50:40.858+03:00,2025-04-20T21:57:49.637+03:00,1480,1.071516,0,0,1109.802,1,4,2025-04-21T10:45:26.169+03:00,766914659.0172858,0,-47.47,100.3013,1,0.7,2025-04-21T10:50:57.212+03:00,92.00000000000001,1.533333333333333,2025-04-21T09:28:58.093+03:00,0.01174319131481236,0
2025-04-21T10:51:00.738+03:00,1745221858.034492,40.95361963094089,29.14097085298671,92.82853,-1,-1,-1,-1,30,24.9532621481264,-9999,12658.54246366667,-0.72906494140625,0.68731689453125,-0.4293670654296875,12658.52858466667,-2.073042681671891,-1.209394974159942,-0.7640729319117511,-0.5679368376731873,0.0398787148296833,-0.04625909775495529,-0.00778353214263916,0.03023898601531982,-0.1166815757751465,XArbitraryZVertical,0.6101881989083461,0.004666815989344742,0.5490537182405049,-0.5711292000430984,-0.6753829121589661,0.6918679475784302,-0.2552971541881561,0,0,0,-1,-1,12638.664264,unknown,2,2025-04-21T10:50:40.858+03:00,2025-04-20T21:57:49.637+03:00,1480,1.071516,0,0,1109.802,1,4,2025-04-21T10:45:26.169+03:00,766914659.0172858,0,-47.47,100.3013,1,0.7,2025-04-21T10:50:57.212+03:00,92.00000000000001,1.533333333333333,2025-04-21T09:28:58.093+03:00,0.01174319131481236,0
2025-04-21T10:51:00.748+03:00,1745221858.034492,40.95361963094089,29.14097085298671,92.82853,-1,-1,-1,-1,30,24.9532621481264,-9999,12658.55253966667,-0.680877685546875,0.7432708740234375,-0.4551544189453125,12658.53865966667,-2.081271900228674,-1.215258100187298,-0.7659135526794976,-0.6525086760520935,-0.06930449604988098,-0.02834454551339149,-0.08267337083816528,-0.02783632278442383,-0.1506762802600861,XArbitraryZVertical,0.6120013601566876,0.003119803638495112,0.5491179880822002,-0.5691343649016561,-0.6756730675697327,0.6931957006454468,-0.2508892118930817,0,0,0,-1,-1,12638.664264,unknown,2,2025-04-21T10:50:40.858+03:00,2025-04-20T21:57:49.637+03:00,1480,1.071516,0,0,1109.802,1,4,2025-04-21T10:45:26.169+03:00,766914659.0172858,0,-47.47,100.3013,1,0.7,2025-04-21T10:50:57.212+03:00,92.00000000000001,1.533333333333333,2025-04-21T09:28:58.093+03:00,0.01174319131481236,0
