loggingTime(txt),locationTimestamp_since1970(s),locationLatitude(WGS84),locationLongitude(WGS84),locationAltitude(m),locationSpeed(m/s),locationSpeedAccuracy(m/s),locationCourse(°),locationCourseAccuracy(°),locationVerticalAccuracy(m),locationHorizontalAccuracy(m),locationFloor(Z),accelerometerTimestamp_sinceReboot(s),accelerometerAccelerationX(G),accelerometerAccelerationY(G),accelerometerAccelerationZ(G),motionTimestamp_sinceReboot(s),motionYaw(rad),motionRoll(rad),motionPitch(rad),motionRotationRateX(rad/s),motionRotationRateY(rad/s),motionRotationRateZ(rad/s),motionUserAccelerationX(G),motionUserAccelerationY(G),motionUserAccelerationZ(G),motionAttitudeReferenceFrame(txt),motionQuaternionX(R),motionQuaternionY(R),motionQuaternionZ(R),motionQuaternionW(R),motionGravityX(G),motionGravityY(G),motionGravityZ(G),motionMagneticFieldX(µT),motionMagneticFieldY(µT),motionMagneticFieldZ(µT),motionHeading(°),motionMagneticFieldCalibrationAccuracy(Z),activityTimestamp_sinceReboot(s),activity(txt),activityActivityConfidence(Z),activityActivityStartDate(txt),pedometerStartDate(txt),pedometerNumberofSteps(N),pedometerAverageActivePace(s/m),pedometerCurrentPace(s/m),pedometerCurrentCadence(steps/s),pedometerDistance(m),pedometerFloorAscended(N),pedometerFloorDescended(N),pedometerEndDate(txt),altimeterTimestamp_sinceReboot(s),altimeterReset(bool),altimeterRelativeAltitude(m),altimeterPressure(kPa),batteryState(N),batteryLevel(R),heartRateBPMTimestamp(txt),heartRateBPM(N),heartRateBPS(R),heartRateVariabilityTimestamp(txt),heartRateVariability(ms),label
2025-04-21T10:26:09.192+03:00,1745220366.649838,40.9535311799476,29.14097193321444,92.49437,-1,-1,-1,-1,30,28.42579423228661,-9999,11870.050980125,-0.692535400390625,0.64178466796875,-0.2846527099609375,11870.045942125,-2.183942258546743,-1.165667635287359,-0.7449297787676912,-0.02178517729043961,-0.06822854280471802,-0.03753560408949852,-0.009507298469543457,0.003186345100402832,-0.003194034099578857,XArbitraryZVertical,-0.5949857678389565,0.03346443169468352,-0.5979183042475181,0.5360650892707784,-0.6756275296211243,0.6779201626777649,-0.2897441387176514,0,0,0,-1,-1,11858.64064875,unknown,2,2025-04-21T10:25:57.740+03:00,2025-04-20T21:57:49.637+03:00,1464,1.041328,0,0,1097.988,1,4,2025-04-21T10:25:37.107+03:00,766913168.1489851,0,-47.68,100.3037,1,0.75,2025-04-21T10:26:06.344+03:00,92.00000000000001,1.533333333333333,2025-04-21T09:28:58.093+03:00,0.01174319131481236,0
2025-04-21T10:26:09.195+03:00,1745220366.649838,40.9535311799476,29.14097193321444,92.49437,-1,-1,-1,-1,30,28.42579423228661,-9999,11870.061056125,-0.664337158203125,0.676116943359375,-0.2927703857421875,11870.056018125,-2.184356760032894,-1.166240415307733,-0.7446279793336126,0.0004801815084647387,0.05101076513528824,-0.03608950972557068,-0.02532780170440674,-0.02569031715393066,0.003640532493591309,XArbitraryZVertical,-0.5951228786406333,0.03331622188144024,-0.5979352278730252,0.5359031160650146,-0.675981342792511,0.6776983141899109,-0.2894375920295715,0,0,0,-1,-1,11858.64064875,unknown,2,2025-04-21T10:25:57.740+03:00,2025-04-20T21:57:49.637+03:00,1464,1.041328,0,0,1097.988,1,4,2025-04-21T10:25:37.107+03:00,766913168.1489851,0,-47.68,100.3037,1,0.75,2025-04-21T10:26:06.344+03:00,92.00000000000001,1.533333333333333,2025-04-21T09:28:58.093+03:00,0.01174319131481236,0
2025-04-21T10:26:09.197+03:00,1745220366.649838,40.9535311799476,29.14097193321444,92.49437,-1,-1,-1,-1,30,28.42579423228661,-9999,11870.071131125,-0.7110443115234375,0.6793365478515625,-0.3021392822265625,11870.066094125,-2.184147968253523,-1.164368602203538,-0.7446976827442001,-0.000249324890319258,0.2103835791349411,0.02395941317081451,0.002375662326812744,-0.02517694234848022,0.003452330827713013,XArbitraryZVertical,-0.5945728226797106,0.03378293708846355,-0.5984184380157793,0.5359451866293983,-0.6753950715065002,0.6777495741844177,-0.2906837463378906,0,0,0,-1,-1,11858.64064875,unknown,2,2025-04-21T10:25:57.740+03:00,2025-04-20T21:57:49.637+03:00,1464,1.041328,0,0,1097.988,1,4,2025-04-21T10:25:37.107+03:00,766913168.1489851,0,-47.68,100.3037,1,0.75,2025-04-21T10:26:06.344+03:00,92.00000000000001,1.533333333333333,2025-04-21T09:28:58.093+03:00,0.01174319131481236,0
2025-04-21T10:26:09.198+03:00,1745220366.649838,40.9535311799476,29.14097193321444,92.49437,-1,-1,-1,-1,30,28.42579423228661,-9999,11870.081207125,-0.7105560302734375,0.646240234375,-0.2910919189453125,11870.076169125,-2.184213266250409,-1.162957500193164,-0.7448877331376758,-0.02536453120410442,0.04805485904216766,-0.01104704011231661,-0.002212285995483398,0.009778499603271484,-0.006922245025634766,XArbitraryZVertical,-0.5941665687814871,0.03425488859896512,-0.5988072026233463,0.5359314757820066,-0.6748659014701843,0.6778892874717712,-0.291585385799408,0,0,0,-1,-1,11858.64064875,unknown,2,2025-04-21T10:25:57.740+03:00,2025-04-20T21:57:49.637+03:00,1464,1.041328,0,0,1097.988,1,4,2025-04-21T10:25:37.107+03:00,766913168.1489851,0,-47.68,100.3037,1,0.75,2025-04-21T10:26:06.344+03:00,92.00000000000001,1.533333333333333,2025-04-21T09:28:58.093+03:00,0.01174319131481236,0
2025-04-21T10:26:09.200+03:00,1745220366.649838,40.9535311799476,29.14097193321444,92.49437,-1,-1,-1,-1,30,28.42579423228661,-9999,11870.091282125,-0.5577850341796875,0.65692138671875,-0.28839111328125,11870.086244125,-2.184620800685638,-1.163560185636416,-0.7448673325688562,-0.02951326966285706,-0.08154687285423279,-0.02017985098063946,-0.06211304664611816,-0.01809948682785034,-0.006346970796585083,XArbitraryZVertical,-0.5943381691283964,0.03420647376843068,-0.5987425441629968,0.535816621821618,-0.6750543117523193,0.6778742671012878,-0.29118412733078,0,0,0,-1,-1,11858.64064875,unknown,2,2025-04-21T10:25:57.740+03:00,2025-04-20T21:57:49.637+03:00,1464,1.041328,0,0,1097.988,1,4,2025-04-21T10:25:37.107+03:00,766913168.1489851,0,-47.68,100.3037,1,0.75,2025-04-21T10:26:06.344+03:00,92.00000000000001,1.533333333333333,2025-04-21T09:28:58.093+03:00,0.01174319131481236,0
2025-04-21T10:26:09.210+03:00,1745220366.649838,40.9535311799476,29.14097193321444,92.49437,-1,-1,-1,-1,30,28.42579423228661,-9999,11870.101358125,-0.630584716796875,0.67236328125,-0.2970428466796875,11870.096320125,-2.185069772085985,-1.164251180812857,-0.7449120207679624,-0.03199853375554085,0.01675066351890564,-0.006215034518390894,0.04618388414382935,-0.03029364347457886,0.003001153469085693,XArbitraryZVertical,-0.5945413893998198,0.03417233399350222,-0.5986460901048375,0.5357010280948644,-0.6752274632453918,0.6779071092605591,-0.2907055616378784,0,0,0,-1,-1,11858.64064875,unknown,2,2025-04-21T10:25:57.740+03:00,2025-04-20T21:57:49.637+03:00,1464,1.041328,0,0,1097.988,1,4,2025-04-21T10:25:37.107+03:00,766913168.1489851,0,-47.68,100.3037,1,0.75,2025-04-21T10:26:06.344+03:00,92.00000000000001,1.533333333333333,2025-04-21T09:28:58.093+03:00,0.01174319131481236,0
2025-04-21T10:26:09.220+03:00,1745220366.649838,40.9535311799476,29.14097193321444,92.49437,-1,-1,-1,-1,30,28.42579423228661,-9999,11870.111433125,-0.7411346435546875,0.6703948974609375,-0.302001953125,11870.106396125,-2.185468894971343,-1.164082419007887,-0.7450606321929291,-0.0350305400788784,0.04853549227118492,0.002730923239141703,0.114218533039093,-0.01061230897903442,-0.001349836587905884,XArbitraryZVertical,-0.5944974518252589,0.03439439552874236,-0.5987654979640233,0.5356019798856165,-0.675085723400116,0.6780163645744324,-0.2907796204090118,0,0,0,-1,-1,11858.64064875,unknown,2,2025-04-21T10:25:57.740+03:00,2025-04-20T21:57:49.637+03:00,1464,1.041328,0,0,1097.988,1,4,2025-04-21T10:25:37.107+03:00,766913168.1489851,0,-47.68,100.3037,1,0.75,2025-04-21T10:26:06.344+03:00,92.00000000000001,1.533333333333333,2025-04-21T09:28:58.093+03:00,0.01174319131481236,0
2025-04-21T10:26:09.230+03:00,1745220366.649838,40.9535311799476,29.14097193321444,92.49437,-1,-1,-1,-1,30,28.42579423228661,-9999,11870.121509125,-0.6700592041015625,0.669464111328125,-0.29364013671875,11870.116471125,-2.185978883225643,-1.164262267292069,-0.7452340568953858,-0.04534496366977692,-0.01379393041133881,-0.001907238154672086,-0.0334811806678772,-0.006299376487731934,-0.01000162959098816,XArbitraryZVertical,-0.5945580970580178,0.03456565491397134,-0.5988048840240251,0.5354797802457534,-0.6750301718711853,0.6781438589096069,-0.2906117737293243,0,0,0,-1,-1,11858.64064875,unknown,2,2025-04-21T10:25:57.740+03:00,2025-04-20T21:57:49.637+03:00,1464,1.041328,0,0,1097.988,1,4,2025-04-21T10:25:37.107+03:00,766913168.1489851,0,-47.68,100.3037,1,0.75,2025-04-21T10:26:06.344+03:00,92.00000000000001,1.533333333333333,2025-04-21T09:28:58.093+03:00,0.01174319131481236,0
2025-04-21T10:26:09.241+03:00,1745220366.649838,40.9535311799476,29.14097193321444,92.49437,-1,-1,-1,-1,30,28.42579423228661,-9999,11870.131584125,-0.64056396484375,0.676361083984375,-0.2941741943359375,11870.126547125,-2.186505988862349,-1.164827092142079,-0.7453839920379063,-0.03665646910667419,-0.01581560261547565,-0.001160654239356518,-0.04198604822158813,-0.009308755397796631,-0.007584929466247559,XArbitraryZVertical,-0.5947315689125604,0.0346298808777055,-0.5987401182152251,0.5353553297921965,-0.6751007437705994,0.6782540082931519,-0.2901902496814728,0,0,0,-1,-1,11858.64064875,unknown,2,2025-04-21T10:25:57.740+03:00,2025-04-20T21:57:49.637+03:00,1464,1.041328,0,0,1097.988,1,4,2025-04-21T10:25:37.107+03:00,766913168.1489851,0,-47.68,100.3037,1,0.75,2025-04-21T10:26:06.344+03:00,92.00000000000001,1.533333333333333,2025-04-21T09:28:58.093+03:00,0.01174319131481236,0
2025-04-21T10:26:09.250+03:00,1745220366.649838,40.9535311799476,29.14097193321444,92.49437,-1,-1,-1,-1,30,28.42579423228661,-9999,11870.141660125,-0.68572998046875,0.68707275390625,-0.3016204833984375,11870.136622125,-2.186864554893081,-1.165061677444353,-0.7454718094271037,-0.01747105456888676,0.01372258272022009,-0.002017925726249814,0.03644216060638428,-0.005650162696838379,-0.001922726631164551,XArbitraryZVertical,-0.5948034729248622,0.03470812306784238,-0.5987440870856804,0.5352658638093475,-0.6751139760017395,0.6783185601234436,-0.2900083363056183,0,0,0,-1,-1,11858.64064875,unknown,2,2025-04-21T10:25:57.740+03:00,2025-04-20T21:57:49.637+03:00,1464,1.041328,0,0,1097.988,1,4,2025-04-21T10:25:37.107+03:00,766913168.1489851,0,-47.68,100.3037,1,0.75,2025-04-21T10:26:06.344+03:00,92.00000000000001,1.533333333333333,2025-04-21T09:28:58.093+03:00,0.01174319131481236,0
2025-04-21T10:26:09.260+03:00,1745220366.649838,40.9535311799476,29.14097193321444,92.49437,-1,-1,-1,-1,30,28.42579423228661,-9999,11870.151735125,-0.6829376220703125,0.6913604736328125,-0.3007659912109375,11870.146698125,-2.187064436124134,-1.165130421855753,-0.7454626173028815,-0.009423581883311272,-0.003358733374625444,-0.01031064335256815,0.01249629259109497,0.00305408239364624,-0.008360117673873901,XArbitraryZVertical,-0.5948197595133333,0.03474557527957,-0.5987794543344382,0.5352057651770312,-0.6751396656036377,0.678311824798584,-0.2899644076824188,0,0,0,-1,-1,11858.64064875,unknown,2,2025-04-21T10:25:57.740+03:00,2025-04-20T21:57:49.637+03:00,1464,1.041328,0,0,1097.988,1,4,2025-04-21T10:25:37.107+03:00,766913168.1489851,0,-47.68,100.3037,1,0.75,2025-04-21T10:26:06.344+03:00,92.00000000000001,1.533333333333333,2025-04-21T09:28:58.093+03:00,0.01174319131481236,0
2025-04-21T10:26:09.270+03:00,1745220366.649838,40.9535311799476,29.14097193321444,92.49437,-1,-1,-1,-1,30,28.42579423228661,-9999,11870.161811125,-0.656951904296875,0.6885833740234375,-0.292877197265625,11870.156773125,-2.187212672819444,-1.165350821326695,-0.7453512413074107,-0.006783057935535908,-0.02021494507789612,-0.01839493587613106,-0.01767432689666748,0.01219964027404785,-0.01302620768547058,XArbitraryZVertical,-0.5948731897759129,0.03468709266320709,-0.5987817187716902,0.5351476406065284,-0.6752729415893555,0.6782299876213074,-0.2898453772068024,0,0,0,-1,-1,11858.64064875,unknown,2,2025-04-21T10:25:57.740+03:00,2025-04-20T21:57:49.637+03:00,1464,1.041328,0,0,1097.988,1,4,2025-04-21T10:25:37.107+03:00,766913168.1489851,0,-47.68,100.3037,1,0.75,2025-04-21T10:26:06.344+03:00,92.00000000000001,1.533333333333333,2025-04-21T09:28:58.093+03:00,0.01174319131481236,0
2025-04-21T10:26:09.280+03:00,1745220366.649838,40.9535311799476,29.14097193321444,92.49437,-1,-1,-1,-1,30,28.42579423228661,-9999,11870.171886125,-0.6637725830078125,0.683197021484375,-0.2915191650390625,11870.166849125,-2.187379854114504,-1.165655774077155,-0.7451845756476374,-0.001982842804864049,-0.01481498591601849,-0.01871498115360737,0.008183181285858154,0.01212376356124878,-0.006717890501022339,XArbitraryZVertical,-0.5949466699154347,0.03459000918966866,-0.5987778340370421,0.5350765445570467,-0.6754651665687561,0.6781075000762939,-0.2896839678287506,0,0,0,-1,-1,11858.64064875,unknown,2,2025-04-21T10:25:57.740+03:00,2025-04-20T21:57:49.637+03:00,1464,1.041328,0,0,1097.988,1,4,2025-04-21T10:25:37.107+03:00,766913168.1489851,0,-47.68,100.3037,1,0.75,2025-04-21T10:26:06.344+03:00,92.00000000000001,1.533333333333333,2025-04-21T09:28:58.093+03:00,0.01174319131481236,0
2025-04-21T10:26:09.290+03:00,1745220366.649838,40.9535311799476,29.14097193321444,92.49437,-1,-1,-1,-1,30,28.42579423228661,-9999,11870.181962125,-0.672607421875,0.6750946044921875,-0.2927703857421875,11870.176924125,-2.187565378541381,-1.165920783337667,-0.7450485316563857,-0.01037552859634161,-0.01546692661941051,-0.01838847622275352,0.01820188760757446,0.00805819034576416,-0.002191394567489624,XArbitraryZVertical,-0.5950106034604662,0.0345210054897743,-0.5987831005347972,0.5350041592423331,-0.675626814365387,0.6780074834823608,-0.2895413637161255,0,0,0,-1,-1,11858.64064875,unknown,2,2025-04-21T10:25:57.740+03:00,2025-04-20T21:57:49.637+03:00,1464,1.041328,0,0,1097.988,1,4,2025-04-21T10:25:37.107+03:00,766913168.1489851,0,-47.68,100.3037,1,0.75,2025-04-21T10:26:06.344+03:00,92.00000000000001,1.533333333333333,2025-04-21T09:28:58.093+03:00,0.01174319131481236,0
2025-04-21T10:26:09.300+03:00,1745220366.649838,40.9535311799476,29.14097193321444,92.49437,-1,-1,-1,-1,30,28.42579423228661,-9999,11870.192037125,-0.66650390625,0.6680908203125,-0.2931976318359375,11870.187000125,-2.187834934064357,-1.166278015357664,-0.7449816803931948,-0.02262846566736698,-0.01986354030668736,-0.01613930426537991,0.005834817886352539,0.001073002815246582,-0.003391444683074951,XArbitraryZVertical,-0.5951069184334986,0.03447947671232348,-0.5987658283394531,0.5349190701964806,-0.6757718920707703,0.6779583692550659,-0.2893178462982178,0,0,0,-1,-1,11858.64064875,unknown,2,2025-04-21T10:25:57.740+03:00,2025-04-20T21:57:49.637+03:00,1464,1.041328,0,0,1097.988,1,4,2025-04-21T10:25:37.107+03:00,766913168.1489851,0,-47.68,100.3037,1,0.75,2025-04-21T10:26:06.344+03:00,92.00000000000001,1.533333333333333,2025-04-21T09:28:58.093+03:00,0.01174319131481236,0
2025-04-21T10:26:09.310+03:00,1745220366.649838,40.9535311799476,29.14097193321444,92.49437,-1,-1,-1,-1,30,28.42579423228661,-9999,11870.202113125,-0.6614990234375,0.662139892578125,-0.293243408203125,11870.197075125,-2.188219076714008,-1.166793921317665,-0.7449568742607092,-0.03167842328548431,-0.02845462970435619,-0.009820155799388885,0.005648493766784668,-0.006095588207244873,-0.003550440073013306,XArbitraryZVertical,-0.5952525264115188,0.03444610617405832,-0.598721316683908,0.5348090468158174,-0.6759365797042847,0.6779401302337646,-0.2889758050441742,0,0,0,-1,-1,11858.64064875,unknown,2,2025-04-21T10:25:57.740+03:00,2025-04-20T21:57:49.637+03:00,1464,1.041328,0,0,1097.988,1,4,2025-04-21T10:25:37.107+03:00,766913168.1489851,0,-47.68,100.3037,1,0.75,2025-04-21T10:26:06.344+03:00,92.00000000000001,1.533333333333333,2025-04-21T09:28:58.093+03:00,0.01174319131481236,0
2025-04-21T10:26:09.320+03:00,1745220366.649838,40.9535311799476,29.14097193321444,92.49437,-1,-1,-1,-1,30,28.42579423228661,-9999,11870.212188125,-0.6671905517578125,0.6559295654296875,-0.294158935546875,11870.207151125,-2.188756471089301,-1.167435746198217,-0.7450332906939225,-0.04727295786142349,-0.02527628280222416,-0.004620133899152279,0.01326292753219604,-0.01240789890289307,-0.00534743070602417,XArbitraryZVertical,-0.5954422263010132,0.03446441382392314,-0.5986545672373851,0.534671288040965,-0.6760741472244263,0.6779962778091431,-0.2885215282440186,0,0,0,-1,-1,11858.64064875,unknown,2,2025-04-21T10:25:57.740+03:00,2025-04-20T21:57:49.637+03:00,1464,1.041328,0,0,1097.988,1,4,2025-04-21T10:25:37.107+03:00,766913168.1489851,0,-47.68,100.3037,1,0.75,2025-04-21T10:26:06.344+03:00,92.00000000000001,1.533333333333333,2025-04-21T09:28:58.093+03:00,0.01174319131481236,0
2025-04-21T10:26:09.330+03:00,1745220366.649838,40.9535311799476,29.14097193321444,92.49437,-1,-1,-1,-1,30,28.42579423228661,-9999,11870.222264125,-0.6744384765625,0.659576416015625,-0.293212890625,11870.217226125,-2.189432032157304,-1.168126816723574,-0.7452182859902187,-0.05660600587725639,-0.01952412165701389,-0.004271525889635086,0.01270586252212524,-0.01971554756164551,-0.00552821159362793,XArbitraryZVertical,-0.5956538709127377,0.03455324803411867,-0.5985826197848685,0.5345103400876362,-0.6761579513549805,0.6781322360038757,-0.2880050837993622,0,0,0,-1,-1,11858.64064875,unknown,2,2025-04-21T10:25:57.740+03:00,2025-04-20T21:57:49.637+03:00,1464,1.041328,0,0,1097.988,1,4,2025-04-21T10:25:37.107+03:00,766913168.1489851,0,-47.68,100.3037,1,0.75,2025-04-21T10:26:06.344+03:00,92.00000000000001,1.533333333333333,2025-04-21T09:28:58.093+03:00,0.01174319131481236,0
2025-04-21T10:26:09.340+03:00,1745220366.649838,40.9535311799476,29.14097193321444,92.49437,-1,-1,-1,-1,30,28.42579423228661,-9999,11870.232339125,-0.6752166748046875,0.67193603515625,-0.2923431396484375,11870.227302125,-2.190130670128196,-1.168785522182483,-0.74540667970198,-0.0525498129427433,-0.02096043154597282,-0.004826828371733427,0.004171907901763916,-0.02246326208114624,-0.005947321653366089,XArbitraryZVertical,-0.5958556347096328,0.03465906643539288,-0.5985254755656193,0.5343425438787017,-0.6762299537658691,0.678270697593689,-0.2875096201896667,0,0,0,-1,-1,11858.64064875,unknown,2,2025-04-21T10:25:57.740+03:00,2025-04-20T21:57:49.637+03:00,1464,1.041328,0,0,1097.988,1,4,2025-04-21T10:25:37.107+03:00,766913168.1489851,0,-47.68,100.3037,1,0.75,2025-04-21T10:26:06.344+03:00,92.00000000000001,1.533333333333333,2025-04-21T09:28:58.093+03:00,0.01174319131481236,0
2025-04-21T10:26:09.350+03:00,1745220366.649838,40.9535311799476,29.14097193321444,92.49437,-1,-1,-1,-1,30,28.42579423228661,-9999,11870.242415125,-0.672393798828125,0.6805267333984375,-0.292510986328125,11870.237377125,-2.19079567531738,-1.169458426544768,-0.7455212605490946,-0.04760725051164627,-0.02306512743234634,-0.009747817181050777,0.0005704760551452637,-0.01178997755050659,-0.005517303943634033,XArbitraryZVertical,-0.5960556019028086,0.03472229705917427,-0.5984736661276209,0.5341734292804668,-0.6763517260551453,0.6783549189567566,-0.2870241701602936,0,0,0,-1,-1,11858.64064875,unknown,2,2025-04-21T10:25:57.740+03:00,2025-04-20T21:57:49.637+03:00,1464,1.041328,0,0,1097.988,1,4,2025-04-21T10:25:37.107+03:00,766913168.1489851,0,-47.68,100.3037,1,0.75,2025-04-21T10:26:06.344+03:00,92.00000000000001,1.533333333333333,2025-04-21T09:28:58.093+03:00,0.01174319131481236,0
2025-04-21T10:26:09.361+03:00,1745220366.649838,40.9535311799476,29.14097193321444,92.49437,-1,-1,-1,-1,30,28.42579423228661,-9999,11870.252490125,-0.672821044921875,0.6835174560546875,-0.2903594970703125,11870.247453125,-2.191349974802515,-1.170086941729065,-0.7455912090334805,-0.03231178969144821,-0.02640007063746452,-0.01016400288790464,0.002553462982177734,-0.001999497413635254,-0.005762577056884766,XArbitraryZVertical,-0.5962402020062002,0.03474700909186207,-0.5984167314030935,0.5340296554956145,-0.6764883399009705,0.678406298160553,-0.2865805327892303,0,0,0,-1,-1,11858.64064875,unknown,2,2025-04-21T10:25:57.740+03:00,2025-04-20T21:57:49.637+03:00,1464,1.041328,0,0,1097.988,1,4,2025-04-21T10:25:37.107+03:00,766913168.1489851,0,-47.68,100.3037,1,0.75,2025-04-21T10:26:06.344+03:00,92.00000000000001,1.533333333333333,2025-04-21T09:28:58.093+03:00,0.01174319131481236,0
2025-04-21T10:26:09.371+03:00,1745220366.649838,40.9535311799476,29.14097193321444,92.49437,-1,-1,-1,-1,30,28.42579423228661,-9999,11870.262566125,-0.6770477294921875,0.686767578125,-0.29364013671875,11870.257528125,-2.191700490463397,-1.17051683375482,-0.7456015206193279,-0.01721432618796825,-0.01350664161145687,-0.01054004114121199,0.004180788993835449,0.004218518733978271,-0.004972755908966064,XArbitraryZVertical,-0.5963636459405667,0.03474077574637074,-0.5983795320459736,0.5339338877981293,-0.6766050457954407,0.6784138679504395,-0.2862869501113892,0,0,0,-1,-1,11858.64064875,unknown,2,2025-04-21T10:25:57.740+03:00,2025-04-20T21:57:49.637+03:00,1464,1.041328,0,0,1097.988,1,4,2025-04-21T10:25:37.107+03:00,766913168.1489851,0,-47.68,100.3037,1,0.75,2025-04-21T10:26:06.344+03:00,92.00000000000001,1.533333333333333,2025-04-21T09:28:58.093+03:00,0.01174319131481236,0
2025-04-21T10:26:09.381+03:00,1745220366.649838,40.9535311799476,29.14097193321444,92.49437,-1,-1,-1,-1,30,28.42579423228661,-9999,11870.272641125,-0.6812744140625,0.6895904541015625,-0.29522705078125,11870.267604125,-2.191918307200492,-1.17075804533848,-0.7455651690218504,-0.009088490158319473,-0.009906047955155373,-0.007726810872554779,0.002746641635894775,0.006778240203857422,-0.005477309226989746,XArbitraryZVertical,-0.5964288361532963,0.03472712651871614,-0.5983749143871321,0.5338671017811575,-0.67669677734375,0.6783871650695801,-0.286133348941803,0,0,0,-1,-1,11858.64064875,unknown,2,2025-04-21T10:25:57.740+03:00,2025-04-20T21:57:49.637+03:00,1464,1.041328,0,0,1097.988,1,4,2025-04-21T10:25:37.107+03:00,766913168.1489851,0,-47.68,100.3037,1,0.75,2025-04-21T10:26:06.344+03:00,92.00000000000001,1.533333333333333,2025-04-21T09:28:58.093+03:00,0.01174319131481236,0
2025-04-21T10:26:09.391+03:00,1745220366.649838,40.9535311799476,29.14097193321444,92.49437,-1,-1,-1,-1,30,28.42579423228661,-9999,11870.282717125,-0.6781463623046875,0.681304931640625,-0.29217529296875,11870.277679125,-2.192109785852898,-1.170995391949396,-0.7455082443561958,-0.01303795725107193,-0.01357561722397804,-0.01189811993390322,-0.002322614192962646,0.01029908657073975,-0.009071409702301025,XArbitraryZVertical,-0.596491515694654,0.03469860585294837,-0.5983696290162047,0.5338048627466663,-0.6768002510070801,0.6783453226089478,-0.2859877645969391,0,0,0,-1,-1,11858.64064875,unknown,2,2025-04-21T10:25:57.740+03:00,2025-04-20T21:57:49.637+03:00,1464,1.041328,0,0,1097.988,1,4,2025-04-21T10:25:37.107+03:00,766913168.1489851,0,-47.68,100.3037,1,0.75,2025-04-21T10:26:06.344+03:00,92.00000000000001,1.533333333333333,2025-04-21T09:28:58.093+03:00,0.01174319131481236,0
2025-04-21T10:26:09.401+03:00,1745220366.649838,40.9535311799476,29.14097193321444,92.49437,-1,-1,-1,-1,30,28.42579423228661,-9999,11870.292792125,-0.6778717041015625,0.6783294677734375,-0.289794921875,11870.287755125,-2.192324531227026,-1.171266208287758,-0.745439145694301,-0.01244021020829678,-0.01168517302721739,-0.01228794082999229,-0.003392279148101807,0.008625507354736328,-0.00853458046913147,XArbitraryZVertical,-0.5965627599217547,0.03466338998465846,-0.5983635493758385,0.5337342358696822,-0.6769207715988159,0.6782945394515991,-0.2858226597309113,0,0,0,-1,-1,11858.64064875,unknown,2,2025-04-21T10:25:57.740+03:00,2025-04-20T21:57:49.637+03:00,1464,1.041328,0,0,1097.988,1,4,2025-04-21T10:25:37.107+03:00,766913168.1489851,0,-47.68,100.3037,1,0.75,2025-04-21T10:26:06.344+03:00,92.00000000000001,1.533333333333333,2025-04-21T09:28:58.093+03:00,0.01174319131481236,0
2025-04-21T10:26:09.411+03:00,1745220366.649838,40.9535311799476,29.14097193321444,92.49437,-1,-1,-1,-1,30,28.42579423228661,-9999,11870.302868125,-0.679534912109375,0.6850128173828125,-0.2909088134765625,11870.297830125,-2.192534882635945,-1.171519085673765,-0.7453711689007569,-0.01277789939194918,-0.01367801520973444,-0.01178327109664679,0.0002320408821105957,-0.0006170868873596191,-0.004262745380401611,XArbitraryZVertical,-0.596628785792278,0.0346320250282265,-0.5983614944953113,0.5336648852477728,-0.6770355701446533,0.6782445907592773,-0.2856694161891937,0,0,0,-1,-1,11858.64064875,unknown,2,2025-04-21T10:25:57.740+03:00,2025-04-20T21:57:49.637+03:00,1464,1.041328,0,0,1097.988,1,4,2025-04-21T10:25:37.107+03:00,766913168.1489851,0,-47.68,100.3037,1,0.75,2025-04-21T10:26:06.344+03:00,92.00000000000001,1.533333333333333,2025-04-21T09:28:58.093+03:00,0.01174319131481236,0
2025-04-21T10:26:09.421+03:00,1745220366.649838,40.9535311799476,29.14097193321444,92.49437,-1,-1,-1,-1,30,28.42579423228661,-9999,11870.312943125,-0.679412841796875,0.679412841796875,-0.293975830078125,11870.307906125,-2.192710619650802,-1.171761722698424,-0.7452840942467656,-0.009479109197854996,-0.01375637948513031,-0.008424526080489159,-0.001414239406585693,0.00356680154800415,-0.004709303379058838,XArbitraryZVertical,-0.5966906944889282,0.034585650089763,-0.5983579967647404,0.5336026040039281,-0.677159309387207,0.6781806349754333,-0.2855280935764313,0,0,0,-1,-1,11858.64064875,unknown,2,2025-04-21T10:25:57.740+03:00,2025-04-20T21:57:49.637+03:00,1464,1.041328,0,0,1097.988,1,4,2025-04-21T10:25:37.107+03:00,766913168.1489851,0,-47.68,100.3037,1,0.75,2025-04-21T10:26:06.344+03:00,92.00000000000001,1.533333333333333,2025-04-21T09:28:58.093+03:00,0.01174319131481236,0
2025-04-21T10:26:09.431+03:00,1745220366.649838,40.9535311799476,29.14097193321444,92.49437,-1,-1,-1,-1,30,28.42579423228661,-9999,11870.323019125,-0.6788482666015625,0.6715087890625,-0.2938079833984375,11870.317981125,-2.192834562187377,-1.17195008958439,-0.7452199222745803,-0.006128852255642414,-0.009397849440574646,-0.005152033641934395,-0.002983629703521729,0.006024777889251709,-0.007154554128646851,XArbitraryZVertical,-0.5967392966176119,0.03454731724536577,-0.5983509925490453,0.5335584707967567,-0.6772530674934387,0.6781334280967712,-0.285417377948761,0,0,0,-1,-1,11858.64064875,unknown,2,2025-04-21T10:25:57.740+03:00,2025-04-20T21:57:49.637+03:00,1464,1.041328,0,0,1097.988,1,4,2025-04-21T10:25:37.107+03:00,766913168.1489851,0,-47.68,100.3037,1,0.75,2025-04-21T10:26:06.344+03:00,92.00000000000001,1.533333333333333,2025-04-21T09:28:58.093+03:00,0.01174319131481236,0
2025-04-21T10:26:09.441+03:00,1745220366.649838,40.9535311799476,29.14097193321444,92.49437,-1,-1,-1,-1,30,28.42579423228661,-9999,11870.333094125,-0.676055908203125,0.6741485595703125,-0.2913055419921875,11870.328057125,-2.192895293319112,-1.172060550403274,-0.7451885152541377,0.0005741245113313198,-0.006867780350148678,-0.003079128917306662,-0.001711785793304443,-0.004297554492950439,-0.009158968925476074,XArbitraryZVertical,-0.5967685329159552,0.03452366533994346,-0.5983422032864765,0.5335372146794912,-0.6773042678833008,0.6781103610992432,-0.2853508591651917,0,0,0,-1,-1,11858.64064875,unknown,2,2025-04-21T10:25:57.740+03:00,2025-04-20T21:57:49.637+03:00,1464,1.041328,0,0,1097.988,1,4,2025-04-21T10:25:37.107+03:00,766913168.1489851,0,-47.68,100.3037,1,0.75,2025-04-21T10:26:06.344+03:00,92.00000000000001,1.533333333333333,2025-04-21T09:28:58.093+03:00,0.01174319131481236,0
2025-04-21T10:26:09.451+03:00,1745220366.649838,40.9535311799476,29.14097193321444,92.49437,-1,-1,-1,-1,30,28.42579423228661,-9999,11870.343170125,-0.6676483154296875,0.67535400390625,-0.290679931640625,11870.338132125,-2.192892002902609,-1.172123032532633,-0.7452000055625062,-0.001644022297114134,-0.008939986117184162,0.0005430364981293678,-0.000541388988494873,-0.00537407398223877,-0.006625533103942871,XArbitraryZVertical,-0.5967882805990897,0.03451048767739293,-0.5983198187961909,0.5335411416400986,-0.6773149967193604,0.6781188249588013,-0.2853055596351624,0,0,0,-1,-1,11858.64064875,unknown,2,2025-04-21T10:25:57.740+03:00,2025-04-20T21:57:49.637+03:00,1464,1.041328,0,0,1097.988,1,4,2025-04-21T10:25:37.107+03:00,766913168.1489851,0,-47.68,100.3037,1,0.75,2025-04-21T10:26:06.344+03:00,92.00000000000001,1.533333333333333,2025-04-21T09:28:58.093+03:00,0.01174319131481236,0
2025-04-21T10:26:09.461+03:00,1745220366.649838,40.9535311799476,29.14097193321444,92.49437,-1,-1,-1,-1,30,28.42579423228661,-9999,11870.353245125,-0.6624755859375,0.670745849609375,-0.2899169921875,11870.348208125,-2.19294129751306,-1.172294321668463,-0.745249778281352,-0.009882977232336998,-0.01757042668759823,0.004040732514113188,0.005198359489440918,-0.002053797245025635,-0.005457669496536255,XArbitraryZVertical,-0.5968430456420966,0.03449900136389105,-0.5982692281333365,0.533537268393395,-0.6773326396942139,0.6781554222106934,-0.2851763963699341,0,0,0,-1,-1,11858.64064875,unknown,2,2025-04-21T10:25:57.740+03:00,2025-04-20T21:57:49.637+03:00,1464,1.041328,0,0,1097.988,1,4,2025-04-21T10:25:37.107+03:00,766913168.1489851,0,-47.68,100.3037,1,0.75,2025-04-21T10:26:06.344+03:00,92.00000000000001,1.533333333333333,2025-04-21T09:28:58.093+03:00,0.01174319131481236,0
2025-04-21T10:26:09.471+03:00,1745220366.649838,40.9535311799476,29.14097193321444,92.49437,-1,-1,-1,-1,30,28.42579423228661,-9999,11870.363321125,-0.663787841796875,0.674835205078125,-0.2893218994140625,11870.358283125,-2.193077524345953,-1.172563220546303,-0.7453357768264142,-0.01572568714618683,-0.01788467913866043,0.003693456295877695,0.01318627595901489,-0.005580723285675049,-0.004716455936431885,XArbitraryZVertical,-0.5969286609338971,0.03450156139308418,-0.5982035937862069,0.5335149100439325,-0.6773555278778076,0.6782186031341553,-0.2849716246128082,0,0,0,-1,-1,11858.64064875,unknown,2,2025-04-21T10:25:57.740+03:00,2025-04-20T21:57:49.637+03:00,1464,1.041328,0,0,1097.988,1,4,2025-04-21T10:25:37.107+03:00,766913168.1489851,0,-47.68,100.3037,1,0.75,2025-04-21T10:26:06.344+03:00,92.00000000000001,1.533333333333333,2025-04-21T09:28:58.093+03:00,0.01174319131481236,0
2025-04-21T10:26:09.482+03:00,1745220366.649838,40.9535311799476,29.14097193321444,92.49437,-1,-1,-1,-1,30,28.42579423228661,-9999,11870.373396125,-0.664398193359375,0.6775360107421875,-0.2870941162109375,11870.368359125,-2.193302946498515,-1.172899447372226,-0.7454674247621913,-0.02628245763480663,-0.02017100341618061,0.003307431004941463,0.01457303762435913,-0.007142305374145508,-0.004612565040588379,XArbitraryZVertical,-0.5970368429086895,0.03453063237170026,-0.5981301371637389,0.5334743730474212,-0.6773690581321716,0.6783153414726257,-0.2847092747688293,0,0,0,-1,-1,11858.64064875,unknown,2,2025-04-21T10:25:57.740+03:00,2025-04-20T21:57:49.637+03:00,1464,1.041328,0,0,1097.988,1,4,2025-04-21T10:25:37.107+03:00,766913168.1489851,0,-47.68,100.3037,1,0.75,2025-04-21T10:26:06.344+03:00,92.00000000000001,1.533333333333333,2025-04-21T09:28:58.093+03:00,0.01174319131481236,0
2025-04-21T10:26:09.504+03:00,1745220366.649838,40.9535311799476,29.14097193321444,92.49437,-1,-1,-1,-1,30,28.42579423228661,-9999,11870.383472125,-0.6687774658203125,0.676910400390625,-0.287384033203125,11870.378434125,-2.193644094666224,-1.173357487482688,-0.7456151569979053,-0.0288207158446312,-0.02411674149334431,0.003563893493264914,0.01317662000656128,-0.001299917697906494,-0.002962768077850342,XArbitraryZVertical,-0.597180837715128,0.03456810596637039,-0.5980470303877277,0.5334038955560751,-0.677406907081604,0.6784238815307617,-0.2843602001667023,0,0,0,-1,-1,11858.64064875,unknown,2,2025-04-21T10:25:57.740+03:00,2025-04-20T21:57:49.637+03:00,1464,1.041328,0,0,1097.988,1,4,2025-04-21T10:25:37.107+03:00,766913168.1489851,0,-47.68,100.3037,1,0.75,2025-04-21T10:26:06.344+03:00,92.00000000000001,1.533333333333333,2025-04-21T09:28:58.093+03:00,0.01174319131481236,0
2025-04-21T10:26:09.506+03:00,1745220366.649838,40.9535311799476,29.14097193321444,92.49437,-1,-1,-1,-1,30,28.42579423228661,-9999,11870.393548125,-0.6747283935546875,0.68255615234375,-0.2871856689453125,11870.388510125,-2.193957051958164,-1.173785294004643,-0.7457333390475457,-0.02739492617547512,-0.01965654641389847,0.001877812785096467,0.01130163669586182,-0.001951336860656738,-0.003588765859603882,XArbitraryZVertical,-0.5973136652393443,0.03459372140469285,-0.5979728228402721,0.5333366063461332,-0.6774544715881348,0.6785107254981995,-0.284039318561554,0,0,0,-1,-1,11858.64064875,unknown,2,2025-04-21T10:25:57.740+03:00,2025-04-20T21:57:49.637+03:00,1464,1.041328,0,0,1097.988,1,4,2025-04-21T10:25:37.107+03:00,766913168.1489851,0,-47.68,100.3037,1,0.75,2025-04-21T10:26:06.344+03:00,92.00000000000001,1.533333333333333,2025-04-21T09:28:58.093+03:00,0.01174319131481236,0
2025-04-21T10:26:09.512+03:00,1745220366.649838,40.9535311799476,29.14097193321444,92.49437,-1,-1,-1,-1,30,28.42579423228661,-9999,11870.403623125,-0.67742919921875,0.682464599609375,-0.2878570556640625,11870.398585125,-2.194222461942304,-1.174166786449676,-0.7458461803103527,-0.01870822720229626,-0.02157961577177048,0.002418168354779482,0.005647897720336914,-0.0001115798950195312,-0.004395604133605957,XArbitraryZVertical,-0.5974329338996014,0.03461533880149389,-0.5979012403267995,0.533282014102521,-0.6774923205375671,0.6785935759544373,-0.2837513387203217,0,0,0,-1,-1,11858.64064875,unknown,2,2025-04-21T10:25:57.740+03:00,2025-04-20T21:57:49.637+03:00,1464,1.041328,0,0,1097.988,1,4,2025-04-21T10:25:37.107+03:00,766913168.1489851,0,-47.68,100.3037,1,0.75,2025-04-21T10:26:06.344+03:00,92.00000000000001,1.533333333333333,2025-04-21T09:28:58.093+03:00,0.01174319131481236,0
2025-04-21T10:26:09.522+03:00,1745220366.649838,40.9535311799476,29.14097193321444,92.49437,-1,-1,-1,-1,30,28.42579423228661,-9999,11870.413699125,-0.6749114990234375,0.6811370849609375,-0.2875823974609375,11870.408661125,-2.194385079751483,-1.174492464032558,-0.7459076041794486,-0.009919995442032814,-0.02279501594603062,0.003379469504579902,0.0009714961051940918,0.004924416542053223,-0.003960937261581421,XArbitraryZVertical,-0.5975328366186003,0.03460114165735397,-0.5978317136254668,0.5332488369710083,-0.6775461435317993,0.6786386966705322,-0.283514529466629,0,0,0,-1,-1,11858.64064875,unknown,2,2025-04-21T10:25:57.740+03:00,2025-04-20T21:57:49.637+03:00,1464,1.041328,0,0,1097.988,1,4,2025-04-21T10:25:37.107+03:00,766913168.1489851,0,-47.68,100.3037,1,0.75,2025-04-21T10:26:06.344+03:00,92.00000000000001,1.533333333333333,2025-04-21T09:28:58.093+03:00,0.01174319131481236,0
2025-04-21T10:26:09.532+03:00,1745220366.649838,40.9535311799476,29.14097193321444,92.49437,-1,-1,-1,-1,30,28.42579423228661,-9999,11870.423774125,-0.67333984375,0.6806488037109375,-0.2903594970703125,11870.418736125,-2.19446734328247,-1.174773233201995,-0.7459737060950322,-0.0122715663164854,-0.02318463660776615,0.004560315050184727,0.002367794513702393,0.00269395112991333,-0.004656821489334106,XArbitraryZVertical,-0.5976210581531434,0.03457665046114938,-0.5977531574621171,0.5332397811702205,-0.6775844693183899,0.6786872744560242,-0.2833070456981659,0,0,0,-1,-1,11858.64064875,unknown,2,2025-04-21T10:25:57.740+03:00,2025-04-20T21:57:49.637+03:00,1464,1.041328,0,0,1097.988,1,4,2025-04-21T10:25:37.107+03:00,766913168.1489851,0,-47.68,100.3037,1,0.75,2025-04-21T10:26:06.344+03:00,92.00000000000001,1.533333333333333,2025-04-21T09:28:58.093+03:00,0.01174319131481236,0
2025-04-21T10:26:09.542+03:00,1745220366.649838,40.9535311799476,29.14097193321444,92.49437,-1,-1,-1,-1,30,28.42579423228661,-9999,11870.433850125,-0.672332763671875,0.6763916015625,-0.2882537841796875,11870.428812125,-2.194593490523164,-1.175094543036838,-0.7460765514328966,-0.01757152378559113,-0.02781933359801769,0.006586980540305376,0.003447175025939941,0.00226747989654541,-0.006289958953857422,XArbitraryZVertical,-0.5977238487837851,0.03456892334114772,-0.5976647266431437,0.5332241020869,-0.6776109337806702,0.6787627935409546,-0.2830623686313629,0,0,0,-1,-1,11858.64064875,unknown,2,2025-04-21T10:25:57.740+03:00,2025-04-20T21:57:49.637+03:00,1464,1.041328,0,0,1097.988,1,4,2025-04-21T10:25:37.107+03:00,766913168.1489851,0,-47.68,100.3037,1,0.75,2025-04-21T10:26:06.344+03:00,92.00000000000001,1.533333333333333,2025-04-21T09:28:58.093+03:00,0.01174319131481236,0
2025-04-21T10:26:09.552+03:00,1745220366.649838,40.9535311799476,29.14097193321444,92.49437,-1,-1,-1,-1,30,28.42579423228661,-9999,11870.443925125,-0.67462158203125,0.670318603515625,-0.2868499755859375,11870.438887125,-2.194805794805016,-1.175488043034502,-0.7462347863298107,-0.02707261592149734,-0.02362858504056931,0.008886354044079781,0.005549848079681396,-0.000366508960723877,-0.007849246263504028,XArbitraryZVertical,-0.5978514926568435,0.03458934485139474,-0.5975637060125446,0.5331928610215527,-0.6776231527328491,0.6788789629936218,-0.2827543318271637,0,0,0,-1,-1,11858.64064875,unknown,2,2025-04-21T10:25:57.740+03:00,2025-04-20T21:57:49.637+03:00,1464,1.041328,0,0,1097.988,1,4,2025-04-21T10:25:37.107+03:00,766913168.1489851,0,-47.68,100.3037,1,0.75,2025-04-21T10:26:06.344+03:00,92.00000000000001,1.533333333333333,2025-04-21T09:28:58.093+03:00,0.01174319131481236,0
2025-04-21T10:26:09.562+03:00,1745220366.649838,40.9535311799476,29.14097193321444,92.49437,-1,-1,-1,-1,30,28.42579423228661,-9999,11870.454001125,-0.679595947265625,0.673492431640625,-0.2891082763671875,11870.448963125,-2.195113748572679,-1.175878054985612,-0.7464536996820287,-0.03147602081298828,-0.01535480841994286,0.01235771831125021,0.00437849760055542,-0.005806684494018555,-0.004584908485412598,XArbitraryZVertical,-0.5979816358746101,0.03466299263010173,-0.5974739270580904,0.5331428123012067,-0.6775962114334106,0.6790397167205811,-0.28243288397789,0,0,0,-1,-1,11858.64064875,unknown,2,2025-04-21T10:25:57.740+03:00,2025-04-20T21:57:49.637+03:00,1464,1.041328,0,0,1097.988,1,4,2025-04-21T10:25:37.107+03:00,766913168.1489851,0,-47.68,100.3037,1,0.75,2025-04-21T10:26:06.344+03:00,92.00000000000001,1.533333333333333,2025-04-21T09:28:58.093+03:00,0.01174319131481236,0
2025-04-21T10:26:09.590+03:00,1745220366.649838,40.9535311799476,29.14097193321444,92.49437,-1,-1,-1,-1,30,28.42579423228661,-9999,11870.464076125,-0.6800537109375,0.680755615234375,-0.29034423828125,11870.459038125,-2.195412256979866,-1.176210257330312,-0.7467129040147472,-0.0291830375790596,-0.016324732452631,0.01368317380547523,0.0001441240310668945,-0.009048700332641602,-0.005808472633361816,XArbitraryZVertical,-0.5980981112505493,0.03476503276715102,-0.5973886368321789,0.5331010641878017,-0.6775274872779846,0.6792299747467041,-0.2821400761604309,0,0,0,-1,-1,11858.64064875,unknown,2,2025-04-21T10:25:57.740+03:00,2025-04-20T21:57:49.637+03:00,1464,1.041328,0,0,1097.988,1,4,2025-04-21T10:25:37.107+03:00,766913168.1489851,0,-47.68,100.3037,1,0.75,2025-04-21T10:26:06.344+03:00,92.00000000000001,1.533333333333333,2025-04-21T09:28:58.093+03:00,0.01174319131481236,0
2025-04-21T10:26:09.593+03:00,1745220366.649838,40.9535311799476,29.14097193321444,92.49437,-1,-1,-1,-1,30,28.42579423228661,-9999,11870.474152125,-0.6712493896484375,0.6811676025390625,-0.2928924560546875,11870.469114125,-2.19563042366124,-1.176496264481231,-0.7469482321097625,-0.01903745904564857,-0.0135025791823864,0.01432472933083773,-0.003691732883453369,-0.002049803733825684,-0.007360696792602539,XArbitraryZVertical,-0.5982000589831554,0.03484602825647071,-0.5973017778913909,0.5330787300250125,-0.6774605512619019,0.6794026494026184,-0.2818848788738251,0,0,0,-1,-1,11858.64064875,unknown,2,2025-04-21T10:25:57.740+03:00,2025-04-20T21:57:49.637+03:00,1464,1.041328,0,0,1097.988,1,4,2025-04-21T10:25:37.107+03:00,766913168.1489851,0,-47.68,100.3037,1,0.75,2025-04-21T10:26:06.344+03:00,92.00000000000001,1.533333333333333,2025-04-21T09:28:58.093+03:00,0.01174319131481236,0
2025-04-21T10:26:09.595+03:00,1745220366.649838,40.9535311799476,29.14097193321444,92.49437,-1,-1,-1,-1,30,28.42579423228661,-9999,11870.484227125,-0.6662445068359375,0.6866607666015625,-0.293182373046875,11870.479189125,-2.195655026828599,-1.176623418179141,-0.7471027453893302,0.0001809753593988717,-0.01092597097158432,0.01235691923648119,0.00164872407913208,0.001697301864624023,-0.00968441367149353,XArbitraryZVertical,-0.5982509501475672,0.03487992844956905,-0.5972311738720255,0.5330984027632684,-0.6773993372917175,0.6795160174369812,-0.2817583680152893,0,0,0,-1,-1,11858.64064875,unknown,2,2025-04-21T10:25:57.740+03:00,2025-04-20T21:57:49.637+03:00,1464,1.041328,0,0,1097.988,1,4,2025-04-21T10:25:37.107+03:00,766913168.1489851,0,-47.68,100.3037,1,0.75,2025-04-21T10:26:06.344+03:00,92.00000000000001,1.533333333333333,2025-04-21T09:28:58.093+03:00,0.01174319131481236,0
2025-04-21T10:26:09.602+03:00,1745220366.649838,40.9535311799476,29.14097193321444,92.49437,-1,-1,-1,-1,30,28.42579423228661,-9999,11870.494303125,-0.6624755859375,0.68890380859375,-0.296539306640625,11870.489265125,-2.195564791538849,-1.176687345318261,-0.747213943490049,0.002809914760291576,-0.01769666001200676,0.01060595735907555,0.009409546852111816,0.002485454082489014,-0.01091638207435608,XArbitraryZVertical,-0.5982811922764122,0.03487932900985639,-0.5971599389951916,0.5331443833737309,-0.6773476600646973,0.6795976161956787,-0.2816860973834991,0,0,0,-1,-1,11858.64064875,unknown,2,2025-04-21T10:25:57.740+03:00,2025-04-20T21:57:49.637+03:00,1464,1.041328,0,0,1097.988,1,4,2025-04-21T10:25:37.107+03:00,766913168.1489851,0,-47.68,100.3037,1,0.75,2025-04-21T10:26:06.344+03:00,92.00000000000001,1.533333333333333,2025-04-21T09:28:58.093+03:00,0.01174319131481236,0
2025-04-21T10:26:09.614+03:00,1745220366.649838,40.9535311799476,29.14097193321444,92.49437,-1,-1,-1,-1,30,28.42579423228661,-9999,11870.504378125,-0.662933349609375,0.67352294921875,-0.2912750244140625,11870.499340125,-2.195499784673707,-1.176825530161766,-0.7473309772322694,-0.007431536912918091,-0.01795605197548866,0.0102901067584753,0.01325076818466187,0.01088351011276245,-0.01352769136428833,XArbitraryZVertical,-0.5983336697582298,0.03486877243621116,-0.5970717056306022,0.533185041716583,-0.6773132085800171,0.6796834468841553,-0.2815619707107544,0,0,0,-1,-1,11858.64064875,unknown,2,2025-04-21T10:25:57.740+03:00,2025-04-20T21:57:49.637+03:00,1464,1.041328,0,0,1097.988,1,4,2025-04-21T10:25:37.107+03:00,766913168.1489851,0,-47.68,100.3037,1,0.75,2025-04-21T10:26:06.344+03:00,92.00000000000001,1.533333333333333,2025-04-21T09:28:58.093+03:00,0.01174319131481236,0
2025-04-21T10:26:09.623+03:00,1745220366.649838,40.9535311799476,29.14097193321444,92.49437,-1,-1,-1,-1,30,28.42579423228661,-9999,11870.514454125,-0.670928955078125,0.669525146484375,-0.283721923828125,11870.509416125,-2.195556152360509,-1.177051324427338,-0.7474584667062872,-0.01526456046849489,-0.01666455157101154,0.01105090510100126,0.01530945301055908,0.001924633979797363,-0.01441580057144165,XArbitraryZVertical,-0.5984110834224133,0.03487527689619132,-0.5969869249391198,0.533192647977794,-0.6772966980934143,0.6797769665718079,-0.2813757658004761,0,0,0,-1,-1,11858.64064875,unknown,2,2025-04-21T10:25:57.740+03:00,2025-04-20T21:57:49.637+03:00,1464,1.041328,0,0,1097.988,1,4,2025-04-21T10:25:37.107+03:00,766913168.1489851,0,-47.68,100.3037,1,0.75,2025-04-21T10:26:06.344+03:00,92.00000000000001,1.533333333333333,2025-04-21T09:28:58.093+03:00,0.01174319131481236,0
2025-04-21T10:26:09.633+03:00,1745220366.649838,40.9535311799476,29.14097193321444,92.49437,-1,-1,-1,-1,30,28.42579423228661,-9999,11870.524529125,-0.6776580810546875,0.671722412109375,-0.2818756103515625,11870.519491125,-2.195748674961972,-1.177350971158523,-0.7476505322770932,-0.02733081020414829,-0.01818148791790009,0.01301844883710146,0.01063448190689087,-0.01097249984741211,-0.005727171897888184,XArbitraryZVertical,-0.5985136974182943,0.03492805558992667,-0.5969000303283832,0.5331713282200008,-0.6772603988647461,0.6799178123474121,-0.2811227738857269,0,0,0,-1,-1,11858.64064875,unknown,2,2025-04-21T10:25:57.740+03:00,2025-04-20T21:57:49.637+03:00,1464,1.041328,0,0,1097.988,1,4,2025-04-21T10:25:37.107+03:00,766913168.1489851,0,-47.68,100.3037,1,0.75,2025-04-21T10:26:06.344+03:00,92.00000000000001,1.533333333333333,2025-04-21T09:28:58.093+03:00,0.01174319131481236,0
2025-04-21T10:26:09.643+03:00,1745220366.649838,40.9535311799476,29.14097193321444,92.49437,-1,-1,-1,-1,30,28.42579423228661,-9999,11870.534605125,-0.6798553466796875,0.6704864501953125,-0.282623291015625,11870.529567125,-2.196063258621942,-1.177750861316115,-0.7478582398214225,-0.03230925649404526,-0.02171357348561287,0.00943266786634922,0.002391934394836426,-0.008622348308563232,-0.001596510410308838,XArbitraryZVertical,-0.5986453884539836,0.03499675222528115,-0.5968117218699522,0.5331179059877558,-0.6772423982620239,0.6800701022148132,-0.2807978391647339,0,0,0,-1,-1,11858.64064875,unknown,2,2025-04-21T10:25:57.740+03:00,2025-04-20T21:57:49.637+03:00,1464,1.041328,0,0,1097.988,1,4,2025-04-21T10:25:37.107+03:00,766913168.1489851,0,-47.68,100.3037,1,0.75,2025-04-21T10:26:06.344+03:00,92.00000000000001,1.533333333333333,2025-04-21T09:28:58.093+03:00,0.01174319131481236,0
2025-04-21T10:26:09.653+03:00,1745220366.649838,40.9535311799476,29.14097193321444,92.49437,-1,-1,-1,-1,30,28.42579423228661,-9999,11870.544680125,-0.6774139404296875,0.6776123046875,-0.288787841796875,11870.539642125,-2.196364892043527,-1.178187584434002,-0.7480395523228307,-0.02739465981721878,-0.02709422260522842,0.008515208959579468,-0.002146601676940918,-0.009686112403869629,-0.001817405223846436,XArbitraryZVertical,-0.59878599165294,0.03504151268908642,-0.596715489608822,0.5330647304767843,-0.6772509813308716,0.6802030205726624,-0.2804548442363739,0,0,0,-1,-1,11858.64064875,unknown,2,2025-04-21T10:25:57.740+03:00,2025-04-20T21:57:49.637+03:00,1464,1.041328,0,0,1097.988,1,4,2025-04-21T10:25:37.107+03:00,766913168.1489851,0,-47.68,100.3037,1,0.75,2025-04-21T10:26:06.344+03:00,92.00000000000001,1.533333333333333,2025-04-21T09:28:58.093+03:00,0.01174319131481236,0
2025-04-21T10:26:09.663+03:00,1745220366.649838,40.9535311799476,29.14097193321444,92.49437,-1,-1,-1,-1,30,28.42579423228661,-9999,11870.554756125,-0.68011474609375,0.682586669921875,-0.294342041015625,11870.549718125,-2.196635223869705,-1.178644800575405,-0.7481875827422919,-0.02466578409075737,-0.02699921280145645,0.006440972909331322,-0.0005703568458557129,-0.00692594051361084,-0.005446255207061768,XArbitraryZVertical,-0.5989303519101635,0.03505845911853678,-0.5966131600887689,0.5330159320464792,-0.6772860288619995,0.6803115010261536,-0.2801066637039185,0,0,0,-1,-1,11858.64064875,unknown,2,2025-04-21T10:25:57.740+03:00,2025-04-20T21:57:49.637+03:00,1464,1.041328,0,0,1097.988,1,4,2025-04-21T10:25:37.107+03:00,766913168.1489851,0,-47.68,100.3037,1,0.75,2025-04-21T10:26:06.344+03:00,92.00000000000001,1.533333333333333,2025-04-21T09:28:58.093+03:00,0.01174319131481236,0
2025-04-21T10:26:09.673+03:00,1745220366.649838,40.9535311799476,29.14097193321444,92.49437,-1,-1,-1,-1,30,28.42579423228661,-9999,11870.564831125,-0.6831817626953125,0.686370849609375,-0.2936248779296875,11870.559793125,-2.196860748493166,-1.179073383350077,-0.7482944340054714,-0.02180341817438602,-0.02909192442893982,0.004124288912862539,-0.0005022287368774414,0.0002132058143615723,-0.01275280117988586,XArbitraryZVertical,-0.5990633650260349,0.0350534895107729,-0.5965179557324135,0.5329734640931191,-0.6773389577865601,0.6803898215293884,-0.2797886729240417,0,0,0,-1,-1,11858.64064875,unknown,2,2025-04-21T10:25:57.740+03:00,2025-04-20T21:57:49.637+03:00,1464,1.041328,0,0,1097.988,1,4,2025-04-21T10:25:37.107+03:00,766913168.1489851,0,-47.68,100.3037,1,0.75,2025-04-21T10:26:06.344+03:00,92.00000000000001,1.533333333333333,2025-04-21T09:28:58.093+03:00,0.01174319131481236,0
2025-04-21T10:26:09.683+03:00,1745220366.649838,40.9535311799476,29.14097193321444,92.49437,-1,-1,-1,-1,30,28.42579423228661,-9999,11870.574907125,-0.6810150146484375,0.6890106201171875,-0.291900634765625,11870.569869125,-2.197110738081329,-1.179551376324303,-0.7483663437462846,-0.01902487687766552,-0.03596494719386101,-0.005672381725162268,-0.005113482475280762,0.003990471363067627,-0.01562821865081787,XArbitraryZVertical,-0.5992076876526394,0.03502910447888728,-0.5964231808080994,0.5329188828855662,-0.677427351474762,0.6804425120353699,-0.2794462144374847,0,0,0,-1,-1,11858.64064875,unknown,2,2025-04-21T10:25:57.740+03:00,2025-04-20T21:57:49.637+03:00,1464,1.041328,0,0,1097.988,1,4,2025-04-21T10:25:37.107+03:00,766913168.1489851,0,-47.68,100.3037,1,0.75,2025-04-21T10:26:06.344+03:00,92.00000000000001,1.533333333333333,2025-04-21T09:28:58.093+03:00,0.01174319131481236,0
2025-04-21T10:26:09.693+03:00,1745220366.649838,40.9535311799476,29.14097193321444,92.49437,-1,-1,-1,-1,30,28.42579423228661,-9999,11870.584982125,-0.6789398193359375,0.6869659423828125,-0.2904205322265625,11870.579944125,-2.197393558264962,-1.180047527351404,-0.7484145281518336,-0.02201667241752148,-0.03111746162176132,-0.006038033869117498,-0.004791676998138428,0.006976425647735596,-0.01339808106422424,XArbitraryZVertical,-0.5993547935730553,0.03500047007755347,-0.5963376914215516,0.5328510253703322,-0.6775356531143188,0.6804778575897217,-0.2790975868701935,0,0,0,-1,-1,11858.64064875,unknown,2,2025-04-21T10:25:57.740+03:00,2025-04-20T21:57:49.637+03:00,1464,1.041328,0,0,1097.988,1,4,2025-04-21T10:25:37.107+03:00,766913168.1489851,0,-47.68,100.3037,1,0.75,2025-04-21T10:26:06.344+03:00,92.00000000000001,1.533333333333333,2025-04-21T09:28:58.093+03:00,0.01174319131481236,0
2025-04-21T10:26:09.703+03:00,1745220366.649838,40.9535311799476,29.14097193321444,92.49437,-1,-1,-1,-1,30,28.42579423228661,-9999,11870.595058125,-0.6823272705078125,0.6829986572265625,-0.2897186279296875,11870.590020125,-2.197637675742493,-1.180486021911211,-0.748439208941667,-0.01530610490590334,-0.03047836571931839,-0.007036486174911261,-0.002243459224700928,0.008453667163848877,-0.01257249712944031,XArbitraryZVertical,-0.5994833650460909,0.0349664569237188,-0.5962650603139247,0.5327898995507868,-0.6776424050331116,0.6804959177970886,-0.2787940800189972,0,0,0,-1,-1,11858.64064875,unknown,2,2025-04-21T10:25:57.740+03:00,2025-04-20T21:57:49.637+03:00,1464,1.041328,0,0,1097.988,1,4,2025-04-21T10:25:37.107+03:00,766913168.1489851,0,-47.68,100.3037,1,0.75,2025-04-21T10:26:06.344+03:00,92.00000000000001,1.533333333333333,2025-04-21T09:28:58.093+03:00,0.01174319131481236,0
2025-04-21T10:26:09.713+03:00,1745220366.649838,40.9535311799476,29.14097193321444,92.49437,-1,-1,-1,-1,30,28.42579423228661,-9999,11870.605133125,-0.6831817626953125,0.6827850341796875,-0.2889251708984375,11870.600096125,-2.197828001910764,-1.180884200878299,-0.7484139165824299,-0.01154039613902569,-0.02563540823757648,-0.007392817176878452,-0.002696454524993896,0.003909766674041748,-0.0113251805305481,XArbitraryZVertical,-0.5995966043126599,0.03490759790010334,-0.5962027350479894,0.5327359830454762,-0.6777691841125488,0.6804773807525635,-0.2785307466983795,0,0,0,-1,-1,11858.64064875,unknown,2,2025-04-21T10:25:57.740+03:00,2025-04-20T21:57:49.637+03:00,1464,1.041328,0,0,1097.988,1,4,2025-04-21T10:25:37.107+03:00,766913168.1489851,0,-47.68,100.3037,1,0.75,2025-04-21T10:26:06.344+03:00,92.00000000000001,1.533333333333333,2025-04-21T09:28:58.093+03:00,0.01174319131481236,0
2025-04-21T10:26:09.724+03:00,1745220366.649838,40.9535311799476,29.14097193321444,92.49437,-1,-1,-1,-1,30,28.42579423228661,-9999,11870.615209125,-0.6800994873046875,0.681732177734375,-0.2878570556640625,11870.610171125,-2.197994440933585,-1.181211922475818,-0.7483683310995024,-0.009361596778035164,-0.01990874856710434,-0.007458963897079229,-0.005490958690643311,0.001974821090698242,-0.01051318645477295,XArbitraryZVertical,-0.5996875180938928,0.03485241315530651,-0.5961603257627743,0.5326846965841582,-0.6778891086578369,0.6804440021514893,-0.2783203721046448,0,0,0,-1,-1,11858.64064875,unknown,2,2025-04-21T10:25:57.740+03:00,2025-04-20T21:57:49.637+03:00,1464,1.041328,0,0,1097.988,1,4,2025-04-21T10:25:37.107+03:00,766913168.1489851,0,-47.68,100.3037,1,0.75,2025-04-21T10:26:06.344+03:00,92.00000000000001,1.533333333333333,2025-04-21T09:28:58.093+03:00,0.01174319131481236,0
2025-04-21T10:26:09.733+03:00,1745220366.649838,40.9535311799476,29.14097193321444,92.49437,-1,-1,-1,-1,30,28.42579423228661,-9999,11870.625284125,-0.6775360107421875,0.678924560546875,-0.285858154296875,11870.620247125,-2.198127722109365,-1.181477808897325,-0.7483139295308565,-0.006641710177063942,-0.01955907419323921,-0.007347111124545336,-0.003338038921356201,0.001785814762115479,-0.01135078072547913,XArbitraryZVertical,-0.5997598172480508,0.03480029535148831,-0.5961298964134188,0.532640818391608,-0.6779974102973938,0.6804041266441345,-0.278154194355011,0,0,0,-1,-1,11858.64064875,unknown,2,2025-04-21T10:25:57.740+03:00,2025-04-20T21:57:49.637+03:00,1464,1.041328,0,0,1097.988,1,4,2025-04-21T10:25:37.107+03:00,766913168.1489851,0,-47.68,100.3037,1,0.75,2025-04-21T10:26:06.344+03:00,92.00000000000001,1.533333333333333,2025-04-21T09:28:58.093+03:00,0.01174319131481236,0
2025-04-21T10:26:09.744+03:00,1745220366.649838,40.9535311799476,29.14097193321444,92.49437,-1,-1,-1,-1,30,28.42579423228661,-9999,11870.635360125,-0.672821044921875,0.6767578125,-0.2821197509765625,11870.630322125,-2.198248516144225,-1.181761693413655,-0.7482615874162531,-0.01043778005987406,-0.02343184500932693,-0.007853643968701363,-0.000479578971862793,-3.74913215637207e-05,-0.009469836950302124,XArbitraryZVertical,-0.5998379015555937,0.03474052239615589,-0.5960900882429558,0.5326012159000659,-0.6781091690063477,0.6803657412528992,-0.2779751718044281,0,0,0,-1,-1,11858.64064875,unknown,2,2025-04-21T10:25:57.740+03:00,2025-04-20T21:57:49.637+03:00,1464,1.041328,0,0,1097.988,1,4,2025-04-21T10:25:37.107+03:00,766913168.1489851,0,-47.68,100.3037,1,0.75,2025-04-21T10:26:06.344+03:00,92.00000000000001,1.533333333333333,2025-04-21T09:28:58.093+03:00,0.01174319131481236,0
2025-04-21T10:26:09.754+03:00,1745220366.649838,40.9535311799476,29.14097193321444,92.49437,-1,-1,-1,-1,30,28.42579423228661,-9999,11870.645435125,-0.673065185546875,0.67413330078125,-0.279754638671875,11870.640398125,-2.198312010768823,-1.181989530897602,-0.7482216948396611,-0.0002349438145756721,-0.01621254533529282,-0.004524159710854292,0.002431690692901611,-0.002998948097229004,-0.006287604570388794,XArbitraryZVertical,-0.599901317940153,0.03468332081370184,-0.596048741399326,0.53257977460223,-0.6781975626945496,0.6803365349769592,-0.277830958366394,0,0,0,-1,-1,11858.64064875,unknown,2,2025-04-21T10:25:57.740+03:00,2025-04-20T21:57:49.637+03:00,1464,1.041328,0,0,1097.988,1,4,2025-04-21T10:25:37.107+03:00,766913168.1489851,0,-47.68,100.3037,1,0.75,2025-04-21T10:26:06.344+03:00,92.00000000000001,1.533333333333333,2025-04-21T09:28:58.093+03:00,0.01174319131481236,0
2025-04-21T10:26:09.764+03:00,1745220366.649838,40.9535311799476,29.14097193321444,92.49437,-1,-1,-1,-1,30,28.42579423228661,-9999,11870.655511125,-0.6776123046875,0.6792755126953125,-0.2812042236328125,11870.650473125,-2.198282804609852,-1.182088671409433,-0.7481722943294263,0.001450104755349457,-0.01321642473340034,-0.003455932950600982,0.006717026233673096,-0.005327820777893066,-0.002741038799285889,XArbitraryZVertical,-0.5999271681098856,0.03462884860914359,-0.5960237580395148,0.5325822127773189,-0.6782562732696533,0.6803002953529358,-0.2777764797210693,0,0,0,-1,-1,11858.64064875,unknown,2,2025-04-21T10:25:57.740+03:00,2025-04-20T21:57:49.637+03:00,1464,1.041328,0,0,1097.988,1,4,2025-04-21T10:25:37.107+03:00,766913168.1489851,0,-47.68,100.3037,1,0.75,2025-04-21T10:26:06.344+03:00,92.00000000000001,1.533333333333333,2025-04-21T09:28:58.093+03:00,0.01174319131481236,0
2025-04-21T10:26:09.774+03:00,1745220366.649838,40.9535311799476,29.14097193321444,92.49437,-1,-1,-1,-1,30,28.42579423228661,-9999,11870.665586125,-0.6698150634765625,0.6760406494140625,-0.2825775146484375,11870.660549125,-2.19830251753163,-1.182273236771783,-0.7481393687488052,-0.004503924399614334,-0.02297105081379414,-0.003773914417251945,0.001570463180541992,-0.004144072532653809,-0.002888292074203491,XArbitraryZVertical,-0.5999790503682596,0.03457280000086166,-0.59598189213432,0.5325741388973331,-0.6783281564712524,0.6802761554718018,-0.2776597142219543,0,0,0,-1,-1,11858.64064875,unknown,2,2025-04-21T10:25:57.740+03:00,2025-04-20T21:57:49.637+03:00,1464,1.041328,0,0,1097.988,1,4,2025-04-21T10:25:37.107+03:00,766913168.1489851,0,-47.68,100.3037,1,0.75,2025-04-21T10:26:06.344+03:00,92.00000000000001,1.533333333333333,2025-04-21T09:28:58.093+03:00,0.01174319131481236,0
2025-04-21T10:26:09.784+03:00,1745220366.649838,40.9535311799476,29.14097193321444,92.49437,-1,-1,-1,-1,30,28.42579423228661,-9999,11870.675662125,-0.6668548583984375,0.6715545654296875,-0.2802276611328125,11870.670624125,-2.198380632637893,-1.182572346379838,-0.7481318977955324,-0.008617576211690903,-0.02689428627490997,-0.004578654654324055,0.003870785236358643,-0.0006138086318969727,-0.004905015230178833,XArbitraryZVertical,-0.6000661826027902,0.03451364127021657,-0.5959148994295372,0.5325548533089067,-0.6784159541130066,0.6802707314491272,-0.2774587571620941,0,0,0,-1,-1,11858.64064875,unknown,2,2025-04-21T10:25:57.740+03:00,2025-04-20T21:57:49.637+03:00,1464,1.041328,0,0,1097.988,1,4,2025-04-21T10:25:37.107+03:00,766913168.1489851,0,-47.68,100.3037,1,0.75,2025-04-21T10:26:06.344+03:00,92.00000000000001,1.533333333333333,2025-04-21T09:28:58.093+03:00,0.01174319131481236,0
2025-04-21T10:26:09.794+03:00,1745220366.649838,40.9535311799476,29.14097193321444,92.49437,-1,-1,-1,-1,30,28.42579423228661,-9999,11870.685737125,-0.6708526611328125,0.6724700927734375,-0.2801055908203125,11870.680700125,-2.198537127059973,-1.182938480650839,-0.7481385667805123,-0.01652743108570576,-0.02796780690550804,-0.002283276524394751,0.01092606782913208,-0.007500410079956055,-0.003858178853988647,XArbitraryZVertical,-0.6001731416424262,0.03446572910009378,-0.5958449908594247,0.5325156038275668,-0.67851322889328,0.6802756190299988,-0.2772086262702942,0,0,0,-1,-1,11858.64064875,unknown,2,2025-04-21T10:25:57.740+03:00,2025-04-20T21:57:49.637+03:00,1464,1.041328,0,0,1097.988,1,4,2025-04-21T10:25:37.107+03:00,766913168.1489851,0,-47.68,100.3037,1,0.75,2025-04-21T10:26:06.344+03:00,92.00000000000001,1.533333333333333,2025-04-21T09:28:58.093+03:00,0.01174319131481236,0
2025-04-21T10:26:09.804+03:00,1745220366.649838,40.9535311799476,29.14097193321444,92.49437,-1,-1,-1,-1,30,28.42579423228661,-9999,11870.695813125,-0.67169189453125,0.6731109619140625,-0.281158447265625,11870.690775125,-2.198813900703189,-1.183458101878749,-0.7481886494974695,-0.02367322333157063,-0.03541160747408867,-0.003021771088242531,0.009588956832885742,-0.00808638334274292,-0.003903210163116455,XArbitraryZVertical,-0.6003273917210217,0.03442995978540585,-0.5957501414364593,0.5324502925533032,-0.678625762462616,0.6803122758865356,-0.2768431901931763,0,0,0,-1,-1,11858.64064875,unknown,2,2025-04-21T10:25:57.740+03:00,2025-04-20T21:57:49.637+03:00,1464,1.041328,0,0,1097.988,1,4,2025-04-21T10:25:37.107+03:00,766913168.1489851,0,-47.68,100.3037,1,0.75,2025-04-21T10:26:06.344+03:00,92.00000000000001,1.533333333333333,2025-04-21T09:28:58.093+03:00,0.01174319131481236,0
2025-04-21T10:26:09.814+03:00,1745220366.649838,40.9535311799476,29.14097193321444,92.49437,-1,-1,-1,-1,30,28.42579423228661,-9999,11870.705888125,-0.677764892578125,0.675079345703125,-0.2865753173828125,11870.700851125,-2.199059641149714,-1.183919689141861,-0.7482545008674221,-0.01815302297472954,-0.0227219108492136,0.001599079696461558,0.007325351238250732,-0.007127523422241211,-0.003638297319412231,XArbitraryZVertical,-0.6004662064830008,0.03440653651425962,-0.5956603761282468,0.5323957719211584,-0.6787120699882507,0.6803605556488037,-0.2765130400657654,0,0,0,-1,-1,11858.64064875,unknown,2,2025-04-21T10:25:57.740+03:00,2025-04-20T21:57:49.637+03:00,1464,1.041328,0,0,1097.988,1,4,2025-04-21T10:25:37.107+03:00,766913168.1489851,0,-47.68,100.3037,1,0.75,2025-04-21T10:26:06.344+03:00,92.00000000000001,1.533333333333333,2025-04-21T09:28:58.093+03:00,0.01174319131481236,0
2025-04-21T10:26:09.824+03:00,1745220366.649838,40.9535311799476,29.14097193321444,92.49437,-1,-1,-1,-1,30,28.42579423228661,-9999,11870.715964125,-0.68585205078125,0.678985595703125,-0.2857208251953125,11870.710926125,-2.19917769039763,-1.184172172995598,-0.7483081406910546,-0.003533868119120598,-0.01705869846045971,0.003934938460588455,0.005331933498382568,-0.006754875183105469,-0.006844639778137207,XArbitraryZVertical,-0.6005439095319398,0.03439573528267594,-0.5956023788982905,0.5323736505916195,-0.6787480115890503,0.6803998947143555,-0.2763278782367706,0,0,0,-1,-1,11858.64064875,unknown,2,2025-04-21T10:25:57.740+03:00,2025-04-20T21:57:49.637+03:00,1464,1.041328,0,0,1097.988,1,4,2025-04-21T10:25:37.107+03:00,766913168.1489851,0,-47.68,100.3037,1,0.75,2025-04-21T10:26:06.344+03:00,92.00000000000001,1.533333333333333,2025-04-21T09:28:58.093+03:00,0.01174319131481236,0
2025-04-21T10:26:09.834+03:00,1745220366.649838,40.9535311799476,29.14097193321444,92.49437,-1,-1,-1,-1,30,28.42579423228661,-9999,11870.726039125,-0.675201416015625,0.6767120361328125,-0.285064697265625,11870.721002125,-2.199040635722889,-1.184242910488722,-0.748327183597523,0.01987398602068424,-0.01857456937432289,0.005794623866677284,-0.004899203777313232,-0.00289309024810791,-0.01152098178863525,XArbitraryZVertical,-0.6005689391531994,0.0343431888501563,-0.5955398283954592,0.5324187703131221,-0.678755521774292,0.6804138422012329,-0.2762749791145325,0,0,0,-1,-1,11858.64064875,unknown,2,2025-04-21T10:25:57.740+03:00,2025-04-20T21:57:49.637+03:00,1464,1.041328,0,0,1097.988,1,4,2025-04-21T10:25:37.107+03:00,766913168.1489851,0,-47.68,100.3037,1,0.75,2025-04-21T10:26:06.344+03:00,92.00000000000001,1.533333333333333,2025-04-21T09:28:58.093+03:00,0.01174319131481236,0
2025-04-21T10:26:09.844+03:00,1745220366.649838,40.9535311799476,29.14097193321444,92.49437,-1,-1,-1,-1,30,28.42579423228661,-9999,11870.736115125,-0.6688079833984375,0.6790008544921875,-0.28851318359375,11870.731077125,-2.198674081910959,-1.184124216845363,-0.7483050232382147,0.03166619688272476,-0.01116405799984932,0.00728599401190877,-0.003712654113769531,-0.001305282115936279,-0.008474558591842651,XArbitraryZVertical,-0.600538024850252,0.03425610496407205,-0.595483425213725,0.5325222333378232,-0.6787366271018982,0.6803975701332092,-0.2763611972332001,0,0,0,-1,-1,11858.64064875,unknown,2,2025-04-21T10:25:57.740+03:00,2025-04-20T21:57:49.637+03:00,1464,1.041328,0,0,1097.988,1,4,2025-04-21T10:25:37.107+03:00,766913168.1489851,0,-47.68,100.3037,1,0.75,2025-04-21T10:26:06.344+03:00,92.00000000000001,1.533333333333333,2025-04-21T09:28:58.093+03:00,0.01174319131481236,0
2025-04-21T10:26:09.855+03:00,1745220366.649838,40.9535311799476,29.14097193321444,92.49437,-1,-1,-1,-1,30,28.42579423228661,-9999,11870.746190125,-0.6715240478515625,0.686767578125,-0.2950592041015625,11870.741153125,-2.198194128120323,-1.183937363231862,-0.7482497093780651,0.0361190028488636,-0.01904142275452614,0.009206665679812431,0.008264064788818359,-0.003355145454406738,-0.009859353303909302,XArbitraryZVertical,-0.6004859115209982,0.03414013894102362,-0.5954257582185609,0.5326529731200971,-0.6787198781967163,0.680357038974762,-0.276502251625061,0,0,0,-1,-1,11858.64064875,unknown,2,2025-04-21T10:25:57.740+03:00,2025-04-20T21:57:49.637+03:00,1464,1.041328,0,0,1097.988,1,4,2025-04-21T10:25:37.107+03:00,766913168.1489851,0,-47.68,100.3037,1,0.75,2025-04-21T10:26:06.344+03:00,92.00000000000001,1.533333333333333,2025-04-21T09:28:58.093+03:00,0.01174319131481236,0
2025-04-21T10:26:09.865+03:00,1745220366.649838,40.9535311799476,29.14097193321444,92.49437,-1,-1,-1,-1,30,28.42579423228661,-9999,11870.756266125,-0.6706390380859375,0.6907806396484375,-0.2915496826171875,11870.751228125,-2.197804397201907,-1.183949765818789,-0.7482110999888314,0.01903549022972584,-0.03713320568203926,0.007289789151400328,0.009115695953369141,0.002166271209716797,-0.01466444134712219,XArbitraryZVertical,-0.6004929831399005,0.03400477563477154,-0.5953279516191613,0.532762898930904,-0.6787475347518921,0.6803287267684937,-0.276503711938858,0,0,0,-1,-1,11858.64064875,unknown,2,2025-04-21T10:25:57.740+03:00,2025-04-20T21:57:49.637+03:00,1464,1.041328,0,0,1097.988,1,4,2025-04-21T10:25:37.107+03:00,766913168.1489851,0,-47.68,100.3037,1,0.75,2025-04-21T10:26:06.344+03:00,92.00000000000001,1.533333333333333,2025-04-21T09:28:58.093+03:00,0.01174319131481236,0
2025-04-21T10:26:09.875+03:00,1745220366.649838,40.9535311799476,29.14097193321444,92.49437,-1,-1,-1,-1,30,28.42579423228661,-9999,11870.766341125,-0.67767333984375,0.6787261962890625,-0.2770233154296875,11870.761304125,-2.197675582351139,-1.184263115557711,-0.7482400671960771,-0.007552977651357651,-0.04199933260679245,0.004198391456156969,0.007703959941864014,0.01082736253738403,-0.02030140161514282,XArbitraryZVertical,-0.6005908758877826,0.03389390175060795,-0.5951922635884321,0.5328112957499158,-0.6788159608840942,0.6803500056266785,-0.2762835919857025,0,0,0,-1,-1,11858.64064875,unknown,2,2025-04-21T10:25:57.740+03:00,2025-04-20T21:57:49.637+03:00,1464,1.041328,0,0,1097.988,1,4,2025-04-21T10:25:37.107+03:00,766913168.1489851,0,-47.68,100.3037,1,0.75,2025-04-21T10:26:06.344+03:00,92.00000000000001,1.533333333333333,2025-04-21T09:28:58.093+03:00,0.01174319131481236,0
2025-04-21T10:26:09.885+03:00,1745220366.649838,40.9535311799476,29.14097193321444,92.49437,-1,-1,-1,-1,30,28.42579423228661,-9999,11870.776417125,-0.68389892578125,0.675384521484375,-0.269805908203125,11870.771379125,-2.197856169750685,-1.184809702450794,-0.7483673827323833,-0.02892757579684258,-0.04417307674884796,0.008537978865206242,0.005409479141235352,0.004645764827728271,-0.008345484733581543,XArbitraryZVertical,-0.6007612437776695,0.03385223229192658,-0.5950439600223058,0.5327874909976651,-0.6788865923881531,0.680443286895752,-0.2758799195289612,0,0,0,-1,-1,11858.64064875,unknown,2,2025-04-21T10:25:57.740+03:00,2025-04-20T21:57:49.637+03:00,1464,1.041328,0,0,1097.988,1,4,2025-04-21T10:25:37.107+03:00,766913168.1489851,0,-47.68,100.3037,1,0.75,2025-04-21T10:26:06.344+03:00,92.00000000000001,1.533333333333333,2025-04-21T09:28:58.093+03:00,0.01174319131481236,0
2025-04-21T10:26:09.895+03:00,1745220366.649838,40.9535311799476,29.14097193321444,92.49437,-1,-1,-1,-1,30,28.42579423228661,-9999,11870.786492125,-0.6816253662109375,0.6816558837890625,-0.2653961181640625,11870.781455125,-2.198213706639132,-1.185502737261098,-0.7485717008339221,-0.03284401819109917,-0.04701893031597137,0.009047442115843296,-0.003027498722076416,-0.00439983606338501,0.00239264965057373,XArbitraryZVertical,-0.6009786224833382,0.03385477344334642,-0.5948792673014721,0.5327260944871334,-0.6789488196372986,0.6805930137634277,-0.2753570973873138,0,0,0,-1,-1,11858.64064875,unknown,2,2025-04-21T10:25:57.740+03:00,2025-04-20T21:57:49.637+03:00,1464,1.041328,0,0,1097.988,1,4,2025-04-21T10:25:37.107+03:00,766913168.1489851,0,-47.68,100.3037,1,0.75,2025-04-21T10:26:06.344+03:00,92.00000000000001,1.533333333333333,2025-04-21T09:28:58.093+03:00,0.01174319131481236,0
2025-04-21T10:26:09.905+03:00,1745220366.649838,40.9535311799476,29.14097193321444,92.49437,-1,-1,-1,-1,30,28.42579423228661,-9999,11870.796568125,-0.6781158447265625,0.6884918212890625,-0.272064208984375,11870.791530125,-2.198516403495333,-1.186161634115219,-0.7487231869790716,-0.01858738623559475,-0.04541204124689102,0.004574363119900227,-0.004635453224182129,-0.002298295497894287,0.008147448301315308,XArbitraryZVertical,-0.6011822328591,0.03382936249368503,-0.5947235084903699,0.5326718800641371,-0.6790345311164856,0.6807039976119995,-0.2748709917068481,0,0,0,-1,-1,11858.64064875,unknown,2,2025-04-21T10:25:57.740+03:00,2025-04-20T21:57:49.637+03:00,1464,1.041328,0,0,1097.988,1,4,2025-04-21T10:25:37.107+03:00,766913168.1489851,0,-47.68,100.3037,1,0.75,2025-04-21T10:26:06.344+03:00,92.00000000000001,1.533333333333333,2025-04-21T09:28:58.093+03:00,0.01174319131481236,0
2025-04-21T10:26:09.915+03:00,1745220366.649838,40.9535311799476,29.14097193321444,92.49437,-1,-1,-1,-1,30,28.42579423228661,-9999,11870.806644125,-0.677642822265625,0.6900787353515625,-0.28106689453125,11870.801606125,-2.198571709080034,-1.186619589724639,-0.7487517534911838,0.00349368155002594,-0.04000689089298248,-0.002673695795238018,-0.0001330971717834473,0.005249142646789551,0.007783353328704834,XArbitraryZVertical,-0.601319857560237,0.03373513883315086,-0.5945933795461148,0.5326678577769297,-0.6791423559188843,0.6807249188423157,-0.2745527327060699,0,0,0,-1,-1,11858.64064875,unknown,2,2025-04-21T10:25:57.740+03:00,2025-04-20T21:57:49.637+03:00,1464,1.041328,0,0,1097.988,1,4,2025-04-21T10:25:37.107+03:00,766913168.1489851,0,-47.68,100.3037,1,0.75,2025-04-21T10:26:06.344+03:00,92.00000000000001,1.533333333333333,2025-04-21T09:28:58.093+03:00,0.01174319131481236,0
2025-04-21T10:26:09.925+03:00,1745220366.649838,40.9535311799476,29.14097193321444,92.49437,-1,-1,-1,-1,30,28.42579423228661,-9999,11870.816719125,-0.6743927001953125,0.6876678466796875,-0.2827301025390625,11870.811681125,-2.198412764720306,-1.186916229655613,-0.7486427692237358,0.02105529792606831,-0.04192177206277847,-0.00652812235057354,0.001451432704925537,0.009464144706726074,-0.003346145153045654,XArbitraryZVertical,-0.6014015419156302,0.03356582603221345,-0.5944894389264392,0.5327023286728978,-0.6792925596237183,0.6806450486183167,-0.2743790447711945,0,0,0,-1,-1,11858.64064875,unknown,2,2025-04-21T10:25:57.740+03:00,2025-04-20T21:57:49.637+03:00,1464,1.041328,0,0,1097.988,1,4,2025-04-21T10:25:37.107+03:00,766913168.1489851,0,-47.68,100.3037,1,0.75,2025-04-21T10:26:06.344+03:00,92.00000000000001,1.533333333333333,2025-04-21T09:28:58.093+03:00,0.01174319131481236,0
2025-04-21T10:26:09.935+03:00,1745220366.649838,40.9535311799476,29.14097193321444,92.49437,-1,-1,-1,-1,30,28.42579423228661,-9999,11870.826795125,-0.66912841796875,0.68402099609375,-0.28076171875,11870.821757125,-2.198139584361909,-1.187122945204433,-0.7484430577611924,0.0275049414485693,-0.04098966717720032,-0.01565104722976685,0.002473294734954834,0.009579956531524658,-0.008257448673248291,XArbitraryZVertical,-0.6014507407226947,0.03335072280941818,-0.5944050523892975,0.53275440309613,-0.6794752478599548,0.6804987192153931,-0.274289458990097,0,0,0,-1,-1,11858.64064875,unknown,2,2025-04-21T10:25:57.740+03:00,2025-04-20T21:57:49.637+03:00,1464,1.041328,0,0,1097.988,1,4,2025-04-21T10:25:37.107+03:00,766913168.1489851,0,-47.68,100.3037,1,0.75,2025-04-21T10:26:06.344+03:00,92.00000000000001,1.533333333333333,2025-04-21T09:28:58.093+03:00,0.01174319131481236,0
2025-04-21T10:26:09.945+03:00,1745220366.649838,40.9535311799476,29.14097193321444,92.49437,-1,-1,-1,-1,30,28.42579423228661,-9999,11870.836870125,-0.6717681884765625,0.684600830078125,-0.2789306640625,11870.831832125,-2.197892986239941,-1.18732013757797,-0.7481985806879905,0.01550134271383286,-0.03906333446502686,-0.01908475905656815,0.008052825927734375,0.004342257976531982,-0.007871448993682861,XArbitraryZVertical,-0.6014928304532522,0.03312864372131611,-0.5943420055506783,0.5327911279481629,-0.6796836256980896,0.6803195476531982,-0.2742177248001099,0,0,0,-1,-1,11858.64064875,unknown,2,2025-04-21T10:25:57.740+03:00,2025-04-20T21:57:49.637+03:00,1464,1.041328,0,0,1097.988,1,4,2025-04-21T10:25:37.107+03:00,766913168.1489851,0,-47.68,100.3037,1,0.75,2025-04-21T10:26:06.344+03:00,92.00000000000001,1.533333333333333,2025-04-21T09:28:58.093+03:00,0.01174319131481236,0
2025-04-21T10:26:09.955+03:00,1745220366.649838,40.9535311799476,29.14097193321444,92.49437,-1,-1,-1,-1,30,28.42579423228661,-9999,11870.846946125,-0.68035888671875,0.6663665771484375,-0.27471923828125,11870.841908125,-2.197878565558052,-1.187610210549141,-0.7480031689155926,-0.002873670542612672,-0.02642743475735188,-0.02019689604640007,0.01149046421051025,0.005950331687927246,-0.005424916744232178,XArbitraryZVertical,-0.6015627962867548,0.03297081823288216,-0.5943003879895942,0.5327683217585543,-0.6798864006996155,0.680176317691803,-0.2740702629089355,0,0,0,-1,-1,11858.64064875,unknown,2,2025-04-21T10:25:57.740+03:00,2025-04-20T21:57:49.637+03:00,1464,1.041328,0,0,1097.988,1,4,2025-04-21T10:25:37.107+03:00,766913168.1489851,0,-47.68,100.3037,1,0.75,2025-04-21T10:26:06.344+03:00,92.00000000000001,1.533333333333333,2025-04-21T09:28:58.093+03:00,0.01174319131481236,0
2025-04-21T10:26:09.965+03:00,1745220366.649838,40.9535311799476,29.14097193321444,92.49437,-1,-1,-1,-1,30,28.42579423228661,-9999,11870.857021125,-0.6917877197265625,0.6622467041015625,-0.26971435546875,11870.851983125,-2.198054447122531,-1.187864304098488,-0.7478712042021994,-0.008733291178941727,-0.006219766568392515,-0.01595108397305012,0.004227578639984131,-0.003031909465789795,-0.00350421667098999,XArbitraryZVertical,-0.6016242800930945,0.03290456261457284,-0.5943042295092225,0.5326987126685493,-0.6800392866134644,0.6800795793533325,-0.2739310264587402,0,0,0,-1,-1,11858.64064875,unknown,2,2025-04-21T10:25:57.740+03:00,2025-04-20T21:57:49.637+03:00,1464,1.041328,0,0,1097.988,1,4,2025-04-21T10:25:37.107+03:00,766913168.1489851,0,-47.68,100.3037,1,0.75,2025-04-21T10:26:06.344+03:00,92.00000000000001,1.533333333333333,2025-04-21T09:28:58.093+03:00,0.01174319131481236,0
2025-04-21T10:26:09.975+03:00,1745220366.649838,40.9535311799476,29.14097193321444,92.49437,-1,-1,-1,-1,30,28.42579423228661,-9999,11870.867097125,-0.6945648193359375,0.674530029296875,-0.264892578125,11870.862059125,-2.198228138457594,-1.18795397828776,-0.7477351797650136,-0.002683121245354414,0.006473391316831112,-0.01694764010608196,-0.005931198596954346,-0.01909118890762329,0.001459002494812012,XArbitraryZVertical,-0.6016366086926846,0.03287986309346855,-0.5943579692221249,0.5326263752149436,-0.6801496744155884,0.6799798607826233,-0.2739046216011047,0,0,0,-1,-1,11858.64064875,unknown,2,2025-04-21T10:25:57.740+03:00,2025-04-20T21:57:49.637+03:00,1464,1.041328,0,0,1097.988,1,4,2025-04-21T10:25:37.107+03:00,766913168.1489851,0,-47.68,100.3037,1,0.75,2025-04-21T10:26:06.344+03:00,92.00000000000001,1.533333333333333,2025-04-21T09:28:58.093+03:00,0.01174319131481236,0
2025-04-21T10:26:09.986+03:00,1745220366.649838,40.9535311799476,29.14097193321444,92.49437,-1,-1,-1,-1,30,28.42579423228661,-9999,11870.877172125,-0.686798095703125,0.6793212890625,-0.2683563232421875,11870.872134125,-2.198323345703691,-1.187967112113886,-0.7475422789303796,0.007918390445411205,0.005974315106868744,-0.0239699948579073,-0.01427459716796875,-0.01183921098709106,0.006702274084091187,XArbitraryZVertical,-0.6016227069837579,0.03282978462514333,-0.5944281668345264,0.5325667658311015,-0.6802748441696167,0.6798384189605713,-0.2739446461200714,0,0,0,-1,-1,11858.64064875,unknown,2,2025-04-21T10:25:57.740+03:00,2025-04-20T21:57:49.637+03:00,1464,1.041328,0,0,1097.988,1,4,2025-04-21T10:25:37.107+03:00,766913168.1489851,0,-47.68,100.3037,1,0.75,2025-04-21T10:26:06.344+03:00,92.00000000000001,1.533333333333333,2025-04-21T09:28:58.093+03:00,0.01174319131481236,0
2025-04-21T10:26:09.996+03:00,1745220366.649838,40.9535311799476,29.14097193321444,92.49437,-1,-1,-1,-1,30,28.42579423228661,-9999,11870.887248125,-0.6844482421875,0.6808929443359375,-0.2738800048828125,11870.882210125,-2.198334233131049,-1.187926475452321,-0.7472566267192189,0.01410837564617395,0.006214532069861889,-0.02933227084577084,-0.01094704866409302,-0.001116394996643066,0.008435189723968506,XArbitraryZVertical,-0.6015863710110784,0.0327324370942305,-0.5945156303382914,0.5325162285428597,-0.6804438829421997,0.6796289086341858,-0.2740448415279388,0,0,0,-1,-1,11858.64064875,unknown,2,2025-04-21T10:25:57.740+03:00,2025-04-20T21:57:49.637+03:00,1464,1.041328,0,0,1097.988,1,4,2025-04-21T10:25:37.107+03:00,766913168.1489851,0,-47.68,100.3037,1,0.75,2025-04-21T10:26:06.344+03:00,92.00000000000001,1.533333333333333,2025-04-21T09:28:58.093+03:00,0.01174319131481236,0
2025-04-21T10:26:10.006+03:00,1745220366.649838,40.9535311799476,29.14097193321444,92.49437,-1,-1,-1,-1,30,28.42579423228661,-9999,11870.897323125,-0.6898193359375,0.68731689453125,-0.2785186767578125,11870.892285125,-2.19822256811606,-1.187777206531767,-0.7468737341602921,0.02670952305197716,0.006600823719054461,-0.03513629734516144,-0.004337966442108154,0.000614166259765625,0.002972960472106934,XArbitraryZVertical,-0.601511529032517,0.03258924455323605,-0.5946276828668617,0.5324844279419513,-0.6806442737579346,0.6793479919433594,-0.2742436528205872,0,0,0,-1,-1,11858.64064875,unknown,2,2025-04-21T10:25:57.740+03:00,2025-04-20T21:57:49.637+03:00,1464,1.041328,0,0,1097.988,1,4,2025-04-21T10:25:37.107+03:00,766913168.1489851,0,-47.68,100.3037,1,0.75,2025-04-21T10:26:06.344+03:00,92.00000000000001,1.533333333333333,2025-04-21T09:28:58.093+03:00,0.01174319131481236,0
2025-04-21T10:26:10.016+03:00,1745220366.649838,40.9535311799476,29.14097193321444,92.49437,-1,-1,-1,-1,30,28.42579423228661,-9999,11870.907399125,-0.6918792724609375,0.689361572265625,-0.2810516357421875,11870.902361125,-2.198062385817976,-1.187596522422657,-0.7464476450604945,0.02601576969027519,0.007952910847961903,-0.03909961506724358,-0.00607222318649292,0.0051078200340271,-0.001861780881881714,XArbitraryZVertical,-0.6014244142486004,0.03242293846136158,-0.5947472321574305,0.5324595452563511,-0.6808632016181946,0.6790352463722229,-0.2744748592376709,0,0,0,-1,-1,11858.64064875,unknown,2,2025-04-21T10:25:57.740+03:00,2025-04-20T21:57:49.637+03:00,1464,1.041328,0,0,1097.988,1,4,2025-04-21T10:25:37.107+03:00,766913168.1489851,0,-47.68,100.3037,1,0.75,2025-04-21T10:26:06.344+03:00,92.00000000000001,1.533333333333333,2025-04-21T09:28:58.093+03:00,0.01174319131481236,0
2025-04-21T10:26:10.026+03:00,1745220366.649838,40.9535311799476,29.14097193321444,92.49437,-1,-1,-1,-1,30,28.42579423228661,-9999,11870.917474125,-0.6955718994140625,0.682861328125,-0.2767181396484375,11870.912436125,-2.197887346416382,-1.187328476567256,-0.745962763271302,0.03140833601355553,0.01754395291209221,-0.04214696958661079,-0.01034188270568848,0.01054507493972778,-0.005737036466598511,XArbitraryZVertical,-0.6013065129770159,0.03225251074292929,-0.5949038888969398,0.5324280627396708,-0.6810948848724365,0.6786792278289795,-0.2747805118560791,0,0,0,-1,-1,11858.64064875,unknown,2,2025-04-21T10:25:57.740+03:00,2025-04-20T21:57:49.637+03:00,1464,1.041328,0,0,1097.988,1,4,2025-04-21T10:25:37.107+03:00,766913168.1489851,0,-47.68,100.3037,1,0.75,2025-04-21T10:26:06.344+03:00,92.00000000000001,1.533333333333333,2025-04-21T09:28:58.093+03:00,0.01174319131481236,0
2025-04-21T10:26:10.036+03:00,1745220366.649838,40.9535311799476,29.14097193321444,92.49437,-1,-1,-1,-1,30,28.42579423228661,-9999,11870.927550125,-0.6959381103515625,0.6794281005859375,-0.2789459228515625,11870.922512125,-2.197659659691972,-1.18694124305091,-0.745505734380974,0.03479773923754692,0.02431823499500751,-0.03668322786688805,-0.01138150691986084,0.008210420608520508,-0.003541409969329834,XArbitraryZVertical,-0.6011562606589125,0.0321088716151731,-0.5950752275730982,0.5324148950016635,-0.6812759041786194,0.6783434748649597,-0.2751603424549103,0,0,0,-1,-1,11858.64064875,unknown,2,2025-04-21T10:25:57.740+03:00,2025-04-20T21:57:49.637+03:00,1464,1.041328,0,0,1097.988,1,4,2025-04-21T10:25:37.107+03:00,766913168.1489851,0,-47.68,100.3037,1,0.75,2025-04-21T10:26:06.344+03:00,92.00000000000001,1.533333333333333,2025-04-21T09:28:58.093+03:00,0.01174319131481236,0
2025-04-21T10:26:10.046+03:00,1745220366.649838,40.9535311799476,29.14097193321444,92.49437,-1,-1,-1,-1,30,28.42579423228661,-9999,11870.937625125,-0.688873291015625,0.6769256591796875,-0.28436279296875,11870.932587125,-2.197440030663504,-1.18653378234715,-0.745039979102544,0.02944378927350044,0.02648851275444031,-0.03723593428730965,-0.01545804738998413,0.002586543560028076,-0.001222789287567139,XArbitraryZVertical,-0.6009989886250298,0.0319696221717793,-0.595256963694903,0.5323976659958223,-0.6814565658569336,0.6780012249946594,-0.2755563259124756,0,0,0,-1,-1,11858.64064875,unknown,2,2025-04-21T10:25:57.740+03:00,2025-04-20T21:57:49.637+03:00,1464,1.041328,0,0,1097.988,1,4,2025-04-21T10:25:37.107+03:00,766913168.1489851,0,-47.68,100.3037,1,0.75,2025-04-21T10:26:06.344+03:00,92.00000000000001,1.533333333333333,2025-04-21T09:28:58.093+03:00,0.01174319131481236,0
2025-04-21T10:26:10.056+03:00,1745220366.649838,40.9535311799476,29.14097193321444,92.49437,-1,-1,-1,-1,30,28.42579423228661,-9999,11870.947701125,-0.68536376953125,0.67279052734375,-0.2860260009765625,11870.942663125,-2.197434775956562,-1.18622687227875,-0.744620014939432,-0.007595188450068235,0.03495177254080772,-0.03347768262028694,-0.01161670684814453,0.0001334547996520996,-0.005698144435882568,XArbitraryZVertical,-0.6008720052489661,0.03188587798031982,-0.5954539239161155,0.5323257625463563,-0.681635856628418,0.6776924133300781,-0.2758722603321075,0,0,0,-1,-1,11858.64064875,unknown,2,2025-04-21T10:25:57.740+03:00,2025-04-20T21:57:49.637+03:00,1464,1.041328,0,0,1097.988,1,4,2025-04-21T10:25:37.107+03:00,766913168.1489851,0,-47.68,100.3037,1,0.75,2025-04-21T10:26:06.344+03:00,92.00000000000001,1.533333333333333,2025-04-21T09:28:58.093+03:00,0.01174319131481236,0
2025-04-21T10:26:10.066+03:00,1745220366.649838,40.9535311799476,29.14097193321444,92.49437,-1,-1,-1,-1,30,28.42579423228661,-9999,11870.957776125,-0.6843414306640625,0.657745361328125,-0.280242919921875,11870.952738125,-2.198171351546851,-1.186319869605847,-0.7444233440053287,-0.07522396743297577,0.04553577303886414,-0.03858891874551773,-0.004601001739501953,-0.002025961875915527,-0.01009079813957214,XArbitraryZVertical,-0.600871204033111,0.03200566050098529,-0.5956717210361795,0.5320758149759053,-0.6817851066589355,0.677547812461853,-0.2758588790893555,0,0,0,-1,-1,11858.64064875,unknown,2,2025-04-21T10:25:57.740+03:00,2025-04-20T21:57:49.637+03:00,1464,1.041328,0,0,1097.988,1,4,2025-04-21T10:25:37.107+03:00,766913168.1489851,0,-47.68,100.3037,1,0.75,2025-04-21T10:26:06.344+03:00,92.00000000000001,1.533333333333333,2025-04-21T09:28:58.093+03:00,0.01174319131481236,0
2025-04-21T10:26:10.083+03:00,1745220366.649838,40.9535311799476,29.14097193321444,92.49437,-1,-1,-1,-1,30,28.42579423228661,-9999,11870.967852125,-0.6810150146484375,0.642333984375,-0.280303955078125,11870.962814125,-2.199548897251483,-1.186813376790683,-0.7444714511705048,-0.1068985387682915,0.0445309616625309,-0.02498176321387291,-0.003259241580963135,-0.01098769903182983,-0.008639007806777954,XArbitraryZVertical,-0.6010001421860948,0.03230709447691742,-0.5958776376212046,0.5316812682670775,-0.6818909645080566,0.6775831580162048,-0.275510162115097,0,0,0,-1,-1,11858.64064875,unknown,2,2025-04-21T10:25:57.740+03:00,2025-04-20T21:57:49.637+03:00,1464,1.041328,0,0,1097.988,1,4,2025-04-21T10:25:37.107+03:00,766913168.1489851,0,-47.68,100.3037,1,0.75,2025-04-21T10:26:06.344+03:00,92.00000000000001,1.533333333333333,2025-04-21T09:28:58.093+03:00,0.01174319131481236,0
2025-04-21T10:26:10.086+03:00,1745220366.649838,40.9535311799476,29.14097193321444,92.49437,-1,-1,-1,-1,30,28.42579423228661,-9999,11870.977927625,-0.6839752197265625,0.64691162109375,-0.29071044921875,11870.972889125,-2.201002535192028,-1.187214366599553,-0.744640037766489,-0.1025803610682487,0.07307245582342148,-0.02136659063398838,-0.0009202361106872559,-0.0285983681678772,-0.002775430679321289,XArbitraryZVertical,-0.601110269102732,0.03270324725196135,-0.596100736249528,0.5312821423588564,-0.6818952560424805,0.6777071356773376,-0.2751938700675964,0,0,0,-1,-1,11858.64064875,unknown,2,2025-04-21T10:25:57.740+03:00,2025-04-20T21:57:49.637+03:00,1464,1.041328,0,0,1097.988,1,4,2025-04-21T10:25:37.107+03:00,766913168.1489851,0,-47.68,100.3037,1,0.75,2025-04-21T10:26:06.344+03:00,92.00000000000001,1.533333333333333,2025-04-21T09:28:58.093+03:00,0.01174319131481236,0
2025-04-21T10:26:10.097+03:00,1745220366.649838,40.9535311799476,29.14097193321444,92.49437,-1,-1,-1,-1,30,28.42579423228661,-9999,11870.988003625,-0.696044921875,0.6551361083984375,-0.3099517822265625,11870.982965625,-2.202248811854542,-1.187109118807132,-0.7447800396155491,-0.0685638040304184,0.1218322739005089,-0.02313572727143764,0.001450002193450928,-0.0353693962097168,-0.009865045547485352,XArbitraryZVertical,-0.6010701414282299,0.03316038286332305,-0.5964280130371413,0.5309318308478653,-0.6817783117294312,0.6778101325035095,-0.2752301394939423,0,0,0,-1,-1,11858.64064875,unknown,2,2025-04-21T10:25:57.740+03:00,2025-04-20T21:57:49.637+03:00,1464,1.041328,0,0,1097.988,1,4,2025-04-21T10:25:37.107+03:00,766913168.1489851,0,-47.68,100.3037,1,0.75,2025-04-21T10:26:06.344+03:00,92.00000000000001,1.533333333333333,2025-04-21T09:28:58.093+03:00,0.01174319131481236,0
2025-04-21T10:26:10.106+03:00,1745220366.649838,40.9535311799476,29.14097193321444,92.49437,-1,-1,-1,-1,30,28.42579423228661,-9999,11870.998078625,-0.7017059326171875,0.6627960205078125,-0.3407440185546875,11870.993040625,-2.202722960512423,-1.185689553226713,-0.7446300534689967,0.01726335473358631,0.2300446331501007,-0.02919421903789043,-0.009238362312316895,-0.02596640586853027,-0.02317199110984802,XArbitraryZVertical,-0.6006260569197133,0.03362101109632192,-0.5970182558382935,0.5307421303946378,-0.6814812421798706,0.6776998043060303,-0.2762359380722046,0,0,0,-1,-1,11858.64064875,unknown,2,2025-04-21T10:25:57.740+03:00,2025-04-20T21:57:49.637+03:00,1464,1.041328,0,0,1097.988,1,4,2025-04-21T10:25:37.107+03:00,766913168.1489851,0,-47.68,100.3037,1,0.75,2025-04-21T10:26:06.344+03:00,92.00000000000001,1.533333333333333,2025-04-21T09:28:58.093+03:00,0.01174319131481236,0
2025-04-21T10:26:10.117+03:00,1745220366.649838,40.9535311799476,29.14097193321444,92.49437,-1,-1,-1,-1,30,28.42579423228661,-9999,11871.008154625,-0.7187652587890625,0.6879119873046875,-0.3964691162109375,11871.003116625,-2.20226309990987,-1.18247578213378,-0.7441265959541898,0.05879934877157211,0.3433458805084229,-0.03984339907765388,-0.01648211479187012,-0.01895862817764282,-0.04368132352828979,XArbitraryZVertical,-0.5996312611289369,0.03413928136661241,-0.5979874123363617,0.5307426775531753,-0.6809055209159851,0.6773295402526855,-0.2785537242889404,0,0,0,-1,-1,11858.64064875,unknown,2,2025-04-21T10:25:57.740+03:00,2025-04-20T21:57:49.637+03:00,1464,1.041328,0,0,1097.988,1,4,2025-04-21T10:25:37.107+03:00,766913168.1489851,0,-47.68,100.3037,1,0.75,2025-04-21T10:26:06.344+03:00,92.00000000000001,1.533333333333333,2025-04-21T09:28:58.093+03:00,0.01174319131481236,0
2025-04-21T10:26:10.127+03:00,1745220366.649838,40.9535311799476,29.14097193321444,92.49437,-1,-1,-1,-1,30,28.42579423228661,-9999,11871.018229625,-0.714752197265625,0.703277587890625,-0.4080352783203125,11871.013192625,-2.202747474232174,-1.179210569401401,-0.7437591786189646,-0.09321708232164383,0.3547788560390472,-0.04787842184305191,-0.02990633249282837,-0.004085540771484375,-0.08672893047332764,XArbitraryZVertical,-0.5986144406960143,0.03500703627969388,-0.599186666079115,0.5304814201727367,-0.6802223920822144,0.6770591735839844,-0.2808705270290375,0,0,0,-1,-1,11858.64064875,unknown,2,2025-04-21T10:25:57.740+03:00,2025-04-20T21:57:49.637+03:00,1464,1.041328,0,0,1097.988,1,4,2025-04-21T10:25:37.107+03:00,766913168.1489851,0,-47.68,100.3037,1,0.75,2025-04-21T10:26:06.344+03:00,92.00000000000001,1.533333333333333,2025-04-21T09:28:58.093+03:00,0.01174319131481236,0
2025-04-21T10:26:10.137+03:00,1745220366.649838,40.9535311799476,29.14097193321444,92.49437,-1,-1,-1,-1,30,28.42579423228661,-9999,11871.028305625,-0.6860198974609375,0.66790771484375,-0.39117431640625,11871.023267625,-2.204968946245726,-1.177776750261843,-0.7438595586708477,-0.2628364562988281,0.2328707873821259,-0.06993605196475983,-0.04080945253372192,0.02406930923461914,-0.1308238506317139,XArbitraryZVertical,-0.5981535514369004,0.03609098425927562,-0.600179275871348,0.5298062027775413,-0.6797562837600708,0.6771330237388611,-0.2818195521831512,0,0,0,-1,-1,11858.64064875,unknown,2,2025-04-21T10:25:57.740+03:00,2025-04-20T21:57:49.637+03:00,1464,1.041328,0,0,1097.988,1,4,2025-04-21T10:25:37.107+03:00,766913168.1489851,0,-47.68,100.3037,1,0.75,2025-04-21T10:26:06.344+03:00,92.00000000000001,1.533333333333333,2025-04-21T09:28:58.093+03:00,0.01174319131481236,0
2025-04-21T10:26:10.147+03:00,1745220366.649838,40.9535311799476,29.14097193321444,92.49437,-1,-1,-1,-1,30,28.42579423228661,-9999,11871.038380625,-0.67578125,0.618011474609375,-0.3641204833984375,11871.033343625,-2.211048839643199,-1.179931296854538,-0.7444922676584091,-0.6123652458190918,0.1561828553676605,-0.1397757530212402,-0.0227779746055603,0.01359409093856812,-0.1144775152206421,XArbitraryZVertical,-0.598741722939105,0.0375879826249634,-0.6009834194824543,0.5281233646276456,-0.6799654960632324,0.6775984764099121,-0.2801909744739532,0,0,0,-1,-1,11858.64064875,unknown,2,2025-04-21T10:25:57.740+03:00,2025-04-20T21:57:49.637+03:00,1464,1.041328,0,0,1097.988,1,4,2025-04-21T10:25:37.107+03:00,766913168.1489851,0,-47.68,100.3037,1,0.75,2025-04-21T10:26:06.344+03:00,92.00000000000001,1.533333333333333,2025-04-21T09:28:58.093+03:00,0.01174319131481236,0
2025-04-21T10:26:10.157+03:00,1745220366.649838,40.9535311799476,29.14097193321444,92.49437,-1,-1,-1,-1,30,28.42579423228661,-9999,11871.048456625,-0.7076263427734375,0.5395050048828125,-0.3209686279296875,11871.043418625,-2.221096870741845,-1.185654310086164,-0.7457882718920748,-0.8308131694793701,0.05867946892976761,-0.1855704039335251,0.007556378841400146,-0.0352710485458374,-0.1112573742866516,XArbitraryZVertical,-0.6003744053645375,0.03959982039669033,-0.601588932762864,0.5254266470000962,-0.6807435750961304,0.6785510778427124,-0.2759648561477661,0,0,0,-1,-1,11858.64064875,unknown,2,2025-04-21T10:25:57.740+03:00,2025-04-20T21:57:49.637+03:00,1464,1.041328,0,0,1097.988,1,4,2025-04-21T10:25:37.107+03:00,766913168.1489851,0,-47.68,100.3037,1,0.75,2025-04-21T10:26:06.344+03:00,92.00000000000001,1.533333333333333,2025-04-21T09:28:58.093+03:00,0.01174319131481236,0
2025-04-21T10:26:10.167+03:00,1745220366.649838,40.9535311799476,29.14097193321444,92.49437,-1,-1,-1,-1,30,28.42579423228661,-9999,11871.058531625,-0.700531005859375,0.5467071533203125,-0.3428955078125,11871.053494625,-2.233327254699383,-1.193947215725409,-0.7469338885186992,-0.8816595673561096,-0.05117219686508179,-0.2558733224868774,-0.01024991273880005,-0.09809327125549316,-0.06434199213981628,XArbitraryZVertical,-0.6027116072006791,0.04155463885400151,-0.6020104639847946,0.5221066406299343,-0.682285487651825,0.6793920993804932,-0.2700238525867462,0,0,0,-1,-1,11858.64064875,unknown,2,2025-04-21T10:25:57.740+03:00,2025-04-20T21:57:49.637+03:00,1464,1.041328,0,0,1097.988,1,4,2025-04-21T10:25:37.107+03:00,766913168.1489851,0,-47.68,100.3037,1,0.75,2025-04-21T10:26:06.344+03:00,92.00000000000001,1.533333333333333,2025-04-21T09:28:58.093+03:00,0.01174319131481236,0
2025-04-21T10:26:10.177+03:00,1745220366.649838,40.9535311799476,29.14097193321444,92.49437,-1,-1,-1,-1,30,28.42579423228661,-9999,11871.068607625,-0.6798858642578125,0.6329803466796875,-0.390228271484375,11871.063569625,-2.245321302843728,-1.203203738891804,-0.7473751618021197,-0.7603722810745239,-0.1650870442390442,-0.30320143699646,-0.02460014820098877,-0.1570871472358704,-0.06317794322967529,XArbitraryZVertical,-0.6052781297010267,0.04294059644565069,-0.6022256467523351,0.5187664657125534,-0.6844757199287415,0.6797158718109131,-0.2635889947414398,0,0,0,-1,-1,11858.64064875,unknown,2,2025-04-21T10:25:57.740+03:00,2025-04-20T21:57:49.637+03:00,1464,1.041328,0,0,1097.988,1,4,2025-04-21T10:25:37.107+03:00,766913168.1489851,0,-47.68,100.3037,1,0.75,2025-04-21T10:26:06.344+03:00,92.00000000000001,1.533333333333333,2025-04-21T09:28:58.093+03:00,0.01174319131481236,0
2025-04-21T10:26:10.187+03:00,1745220366.649838,40.9535311799476,29.14097193321444,92.49437,-1,-1,-1,-1,30,28.42579423228661,-9999,11871.078682625,-0.671600341796875,0.6958465576171875,-0.425323486328125,11871.073645625,-2.2548075708908,-1.211588626654803,-0.7466437364300679,-0.4697058200836182,-0.2149059921503067,-0.3100866377353668,-0.002524316310882568,-0.08681774139404297,-0.1076615750789642,XArbitraryZVertical,-0.6075459442324712,0.04336223318995047,-0.6023197887941295,0.5159637130813266,-0.6871272325515747,0.6791791915893555,-0.2580152750015259,0,0,0,-1,-1,11858.64064875,unknown,2,2025-04-21T10:25:57.740+03:00,2025-04-20T21:57:49.637+03:00,1464,1.041328,0,0,1097.988,1,4,2025-04-21T10:25:37.107+03:00,766913168.1489851,0,-47.68,100.3037,1,0.75,2025-04-21T10:26:06.344+03:00,92.00000000000001,1.533333333333333,2025-04-21T09:28:58.093+03:00,0.01174319131481236,0
2025-04-21T10:26:10.197+03:00,1745220366.649838,40.9535311799476,29.14097193321444,92.49437,-1,-1,-1,-1,30,28.42579423228661,-9999,11871.088758625,-0.68505859375,0.744049072265625,-0.4220428466796875,11871.083720625,-2.261119316282273,-1.218093953262987,-0.7451487905409835,-0.3355972766876221,-0.2372027784585953,-0.2903198599815369,0.01713579893112183,-0.012859046459198,-0.15757817029953,XArbitraryZVertical,-0.6092649374869987,0.04302416600189058,-0.6023380001303225,0.5139397972306188,-0.6897431612014771,0.6780811548233032,-0.2538903057575226,0,0,0,-1,-1,11858.64064875,unknown,2,2025-04-21T10:25:57.740+03:00,2025-04-20T21:57:49.637+03:00,1464,1.041328,0,0,1097.988,1,4,2025-04-21T10:25:37.107+03:00,766913168.1489851,0,-47.68,100.3037,1,0.75,2025-04-21T10:26:06.344+03:00,92.00000000000001,1.533333333333333,2025-04-21T09:28:58.093+03:00,0.01174319131481236,0
2025-04-21T10:26:10.207+03:00,1745220366.649838,40.9535311799476,29.14097193321444,92.49437,-1,-1,-1,-1,30,28.42579423228661,-9999,11871.098833625,-0.69189453125,0.710052490234375,-0.402374267578125,11871.093796625,-2.266986309040257,-1.224339659291655,-0.743660171684718,-0.4073351323604584,-0.2910215258598328,-0.2994362711906433,0.01616239547729492,0.04890477657318115,-0.1791571974754333,XArbitraryZVertical,-0.6109194526338398,0.04263171465044423,-0.6023072340582076,0.5120409308229682,-0.6922640204429626,0.6769863367080688,-0.2499199211597443,0,0,0,-1,-1,11858.64064875,unknown,2,2025-04-21T10:25:57.740+03:00,2025-04-20T21:57:49.637+03:00,1464,1.041328,0,0,1097.988,1,4,2025-04-21T10:25:37.107+03:00,766913168.1489851,0,-47.68,100.3037,1,0.75,2025-04-21T10:26:06.344+03:00,92.00000000000001,1.533333333333333,2025-04-21T09:28:58.093+03:00,0.01174319131481236,0
2025-04-21T10:26:10.217+03:00,1745220366.649838,40.9535311799476,29.14097193321444,92.49437,-1,-1,-1,-1,30,28.42579423228661,-9999,11871.108909625,-0.6689605712890625,0.62872314453125,-0.4143218994140625,11871.103871625,-2.27492068480422,-1.233259564238343,-0.7427249002421886,-0.6091287136077881,-0.3907223045825958,-0.2247447073459625,0.002420783042907715,0.06222772598266602,-0.1653417348861694,XArbitraryZVertical,-0.6133745819193858,0.04241769361253259,-0.6018355188392545,0.5096728231953302,-0.6950629353523254,0.676297664642334,-0.2439447194337845,0,0,0,-1,-1,11858.64064875,unknown,2,2025-04-21T10:25:57.740+03:00,2025-04-20T21:57:49.637+03:00,1464,1.041328,0,0,1097.988,1,4,2025-04-21T10:25:37.107+03:00,766913168.1489851,0,-47.68,100.3037,1,0.75,2025-04-21T10:26:06.344+03:00,92.00000000000001,1.533333333333333,2025-04-21T09:28:58.093+03:00,0.01174319131481236,0
2025-04-21T10:26:10.227+03:00,1745220366.649838,40.9535311799476,29.14097193321444,92.49437,-1,-1,-1,-1,30,28.42579423228661,-9999,11871.118984625,-0.657562255859375,0.5818023681640625,-0.4581451416015625,11871.113947625,-2.282726455726278,-1.242277486816838,-0.7441165790919188,-0.6515790224075317,-0.4584404230117798,0.004263938870280981,0.01535850763320923,-0.006789982318878174,-0.1674221754074097,XArbitraryZVertical,-0.6160065057033586,0.04306395993385811,-0.6007051088789896,0.5077744039134687,-0.696342945098877,0.6773221492767334,-0.2373629659414291,0,0,0,-1,-1,11858.64064875,unknown,2,2025-04-21T10:25:57.740+03:00,2025-04-20T21:57:49.637+03:00,1464,1.041328,0,0,1097.988,1,4,2025-04-21T10:25:37.107+03:00,766913168.1489851,0,-47.68,100.3037,1,0.75,2025-04-21T10:26:06.344+03:00,92.00000000000001,1.533333333333333,2025-04-21T09:28:58.093+03:00,0.01174319131481236,0
2025-04-21T10:26:10.237+03:00,1745220366.649838,40.9535311799476,29.14097193321444,92.49437,-1,-1,-1,-1,30,28.42579423228661,-9999,11871.129060625,-0.660614013671875,0.60552978515625,-0.495513916015625,11871.124022625,-2.292338243093541,-1.253622305915929,-0.7461787036531877,-0.8521960377693176,-0.4887698292732239,-0.006530652288347483,0.03471386432647705,-0.08690357208251953,-0.2011180818080902,XArbitraryZVertical,-0.6193235736550785,0.04395866240630907,-0.5991267679376611,0.50552263312655,-0.6976624727249146,0.678837776184082,-0.2290118932723999,0,0,0,-1,-1,11858.64064875,unknown,2,2025-04-21T10:25:57.740+03:00,2025-04-20T21:57:49.637+03:00,1464,1.041328,0,0,1097.988,1,4,2025-04-21T10:25:37.107+03:00,766913168.1489851,0,-47.68,100.3037,1,0.75,2025-04-21T10:26:06.344+03:00,92.00000000000001,1.533333333333333,2025-04-21T09:28:58.093+03:00,0.01174319131481236,0
2025-04-21T10:26:10.248+03:00,1745220366.649838,40.9535311799476,29.14097193321444,92.49437,-1,-1,-1,-1,30,28.42579423228661,-9999,11871.139135625,-0.6720733642578125,0.5293121337890625,-0.46234130859375,11871.134098625,-2.305222357346068,-1.267650520439028,-0.7498683089682195,-1.142383098602295,-0.5463742613792419,0.1308204233646393,0.04647940397262573,-0.07820987701416016,-0.2677830159664154,XArbitraryZVertical,-0.6234345355619649,0.04585422724328476,-0.5971049115679676,0.5026853606045723,-0.6984111666679382,0.6815423965454102,-0.2184535413980484,0,0,0,-1,-1,11858.64064875,unknown,2,2025-04-21T10:25:57.740+03:00,2025-04-20T21:57:49.637+03:00,1464,1.041328,0,0,1097.988,1,4,2025-04-21T10:25:37.107+03:00,766913168.1489851,0,-47.68,100.3037,1,0.75,2025-04-21T10:26:06.344+03:00,92.00000000000001,1.533333333333333,2025-04-21T09:28:58.093+03:00,0.01174319131481236,0
2025-04-21T10:26:10.258+03:00,1745220366.649838,40.9535311799476,29.14097193321444,92.49437,-1,-1,-1,-1,30,28.42579423228661,-9999,11871.149211625,-0.63775634765625,0.5826568603515625,-0.4313812255859375,11871.144173625,-2.320725177894438,-1.284125295160204,-0.7551740358650376,-1.311200618743896,-0.6293160319328308,0.2150442153215408,0.0236777663230896,-0.120535135269165,-0.2771393656730652,XArbitraryZVertical,-0.6282428889822218,0.04862589698932403,-0.594525209299763,0.4994857653649185,-0.6984365582466125,0.6854153871536255,-0.2058927863836288,0,0,0,-1,-1,11858.64064875,unknown,2,2025-04-21T10:25:57.740+03:00,2025-04-20T21:57:49.637+03:00,1464,1.041328,0,0,1097.988,1,4,2025-04-21T10:25:37.107+03:00,766913168.1489851,0,-47.68,100.3037,1,0.75,2025-04-21T10:26:06.344+03:00,92.00000000000001,1.533333333333333,2025-04-21T09:28:58.093+03:00,0.01174319131481236,0
2025-04-21T10:26:10.268+03:00,1745220366.649838,40.9535311799476,29.14097193321444,92.49437,-1,-1,-1,-1,30,28.42579423228661,-9999,11871.159286625,-0.6201934814453125,0.6367034912109375,-0.3905487060546875,11871.154249625,-2.338205350139488,-1.302975835646865,-0.7613583117176278,-1.44780158996582,-0.7235075235366821,0.2751131355762482,0.04376500844955444,-0.1489203572273254,-0.2517783939838409,XArbitraryZVertical,-0.6336647858707334,0.05182761592390896,-0.5914056985985234,0.4960059969663534,-0.6980923414230347,0.6899053454399109,-0.191565677523613,0,0,0,-1,-1,11858.64064875,unknown,2,2025-04-21T10:25:57.740+03:00,2025-04-20T21:57:49.637+03:00,1464,1.041328,0,0,1097.988,1,4,2025-04-21T10:25:37.107+03:00,766913168.1489851,0,-47.68,100.3037,1,0.75,2025-04-21T10:26:06.344+03:00,92.00000000000001,1.533333333333333,2025-04-21T09:28:58.093+03:00,0.01174319131481236,0
2025-04-21T10:26:10.278+03:00,1745220366.649838,40.9535311799476,29.14097193321444,92.49437,-1,-1,-1,-1,30,28.42579423228661,-9999,11871.169362625,-0.6257476806640625,0.6262359619140625,-0.322357177734375,11871.164324625,-2.357596121088905,-1.324105486579821,-0.7681373818533698,-1.586336255073547,-0.799429178237915,0.3182544708251953,0.07080000638961792,-0.07457292079925537,-0.2403575778007507,XArbitraryZVertical,-0.6396247620383009,0.05537536768213758,-0.5878044135680903,0.4922394384273069,-0.6974326372146606,0.6947968602180481,-0.1756274700164795,0,0,0,-1,-1,11858.64064875,unknown,2,2025-04-21T10:25:57.740+03:00,2025-04-20T21:57:49.637+03:00,1464,1.041328,0,0,1097.988,1,4,2025-04-21T10:25:37.107+03:00,766913168.1489851,0,-47.68,100.3037,1,0.75,2025-04-21T10:26:06.344+03:00,92.00000000000001,1.533333333333333,2025-04-21T09:28:58.093+03:00,0.01174319131481236,0
2025-04-21T10:26:10.288+03:00,1745220366.649838,40.9535311799476,29.14097193321444,92.49437,-1,-1,-1,-1,30,28.42579423228661,-9999,11871.179437625,-0.6530303955078125,0.6403961181640625,-0.26470947265625,11871.174400625,-2.378567748977255,-1.346938503464912,-0.7751594094157213,-1.609829425811768,-0.8187445402145386,0.3493037521839142,0.07766604423522949,-0.06597989797592163,-0.198773980140686,XArbitraryZVertical,-0.6459182668889366,0.05919298179253044,-0.5838858585341775,0.4882243576628546,-0.6964861750602722,0.6998299360275269,-0.1585715711116791,0,0,0,-1,-1,11858.64064875,unknown,2,2025-04-21T10:25:57.740+03:00,2025-04-20T21:57:49.637+03:00,1464,1.041328,0,0,1097.988,1,4,2025-04-21T10:25:37.107+03:00,766913168.1489851,0,-47.68,100.3037,1,0.75,2025-04-21T10:26:06.344+03:00,92.00000000000001,1.533333333333333,2025-04-21T09:28:58.093+03:00,0.01174319131481236,0
2025-04-21T10:26:10.298+03:00,1745220366.649838,40.9535311799476,29.14097193321444,92.49437,-1,-1,-1,-1,30,28.42579423228661,-9999,11871.189513625,-0.676788330078125,0.6863555908203125,-0.2561492919921875,11871.184475625,-2.399731428555438,-1.369998352052156,-0.7821675373770344,-1.598060369491577,-0.8080615401268005,0.3692289888858795,0.05675232410430908,-0.07794189453125,-0.1472842693328857,XArbitraryZVertical,-0.652129830620332,0.06310745724080244,-0.579837231030066,0.4842859208351769,-0.6951342225074768,0.7048187255859375,-0.1414882689714432,0,0,0,-1,-1,11858.64064875,unknown,2,2025-04-21T10:25:57.740+03:00,2025-04-20T21:57:49.637+03:00,1464,1.041328,0,0,1097.988,1,4,2025-04-21T10:25:37.107+03:00,766913168.1489851,0,-47.68,100.3037,1,0.75,2025-04-21T10:26:06.344+03:00,92.00000000000001,1.533333333333333,2025-04-21T09:28:58.093+03:00,0.01174319131481236,0
2025-04-21T10:26:10.308+03:00,1745220366.649838,40.9535311799476,29.14097193321444,92.49437,-1,-1,-1,-1,30,28.42579423228661,-9999,11871.199589625,-0.69610595703125,0.7160491943359375,-0.2449951171875,11871.194551625,-2.41998568415087,-1.39240106634368,-0.7886224864057194,-1.427443265914917,-0.7922866940498352,0.3597318232059479,0.0275912880897522,-0.04690748453140259,-0.1320850998163223,XArbitraryZVertical,-0.6580324674266916,0.06676561887496639,-0.575816436236244,0.4805944935335998,-0.6936374306678772,0.7093830704689026,-0.1250712424516678,0,0,0,-1,-1,11858.64064875,unknown,2,2025-04-21T10:25:57.740+03:00,2025-04-20T21:57:49.637+03:00,1464,1.041328,0,0,1097.988,1,4,2025-04-21T10:25:37.107+03:00,766913168.1489851,0,-47.68,100.3037,1,0.75,2025-04-21T10:26:06.344+03:00,92.00000000000001,1.533333333333333,2025-04-21T09:28:58.093+03:00,0.01174319131481236,0
2025-04-21T10:26:10.318+03:00,1745220366.649838,40.9535311799476,29.14097193321444,92.49437,-1,-1,-1,-1,30,28.42579423228661,-9999,11871.209664625,-0.7013702392578125,0.7272186279296875,-0.22259521484375,11871.204626625,-2.438365727465558,-1.413323909287278,-0.7943706080058968,-1.289893627166748,-0.7609120011329651,0.3283150494098663,0.004731476306915283,-0.007764756679534912,-0.1425353288650513,XArbitraryZVertical,-0.6634441007059148,0.06997528224758175,-0.5719157081787986,0.4773444990080369,-0.692063570022583,0.7134227156639099,-0.1098907738924026,0,0,0,-1,-1,11858.64064875,unknown,2,2025-04-21T10:25:57.740+03:00,2025-04-20T21:57:49.637+03:00,1464,1.041328,0,0,1097.988,1,4,2025-04-21T10:25:37.107+03:00,766913168.1489851,0,-47.68,100.3037,1,0.75,2025-04-21T10:26:06.344+03:00,92.00000000000001,1.533333333333333,2025-04-21T09:28:58.093+03:00,0.01174319131481236,0
2025-04-21T10:26:10.328+03:00,1745220366.649838,40.9535311799476,29.14097193321444,92.49437,-1,-1,-1,-1,30,28.42579423228661,-9999,11871.219740625,-0.7004241943359375,0.744171142578125,-0.1631927490234375,11871.214702625,-2.454898970173871,-1.432463123436158,-0.7992805595848039,-1.135202169418335,-0.6909527778625488,0.3018293380737305,-0.009999394416809082,0.00360417366027832,-0.1409645676612854,XArbitraryZVertical,-0.668308868957837,0.07274891947205757,-0.5682960889355272,0.474457876413606,-0.6905620098114014,0.7168546915054321,-0.09614170342683792,0,0,0,-1,-1,11858.64064875,unknown,2,2025-04-21T10:25:57.740+03:00,2025-04-20T21:57:49.637+03:00,1464,1.041328,0,0,1097.988,1,4,2025-04-21T10:25:37.107+03:00,766913168.1489851,0,-47.68,100.3037,1,0.75,2025-04-21T10:26:06.344+03:00,92.00000000000001,1.533333333333333,2025-04-21T09:28:58.093+03:00,0.01174319131481236,0
2025-04-21T10:26:10.338+03:00,1745220366.649838,40.9535311799476,29.14097193321444,92.49437,-1,-1,-1,-1,30,28.42579423228661,-9999,11871.229815625,-0.6868438720703125,0.7591400146484375,-0.0774383544921875,11871.224777625,-2.469568730893951,-1.449685907323685,-0.8035613923262646,-0.973436713218689,-0.6363102793693542,0.281732589006424,-0.01137650012969971,0.01686149835586548,-0.1124564409255981,XArbitraryZVertical,-0.6726199915338933,0.07517169591164059,-0.5649685661958035,0.471955561658045,-0.6890628933906555,0.7198327779769897,-0.08386312425136566,0,0,0,-1,-1,11858.64064875,unknown,2,2025-04-21T10:25:57.740+03:00,2025-04-20T21:57:49.637+03:00,1464,1.041328,0,0,1097.988,1,4,2025-04-21T10:25:37.107+03:00,766913168.1489851,0,-47.68,100.3037,1,0.75,2025-04-21T10:26:06.344+03:00,92.00000000000001,1.533333333333333,2025-04-21T09:28:58.093+03:00,0.01174319131481236,0
2025-04-21T10:26:10.348+03:00,1745220366.649838,40.9535311799476,29.14097193321444,92.49437,-1,-1,-1,-1,30,28.42579423228661,-9999,11871.239891625,-0.6749114990234375,0.7601318359375,0.0081787109375,11871.234853625,-2.48221819608437,-1.465089355389605,-0.8070918857304953,-0.853702187538147,-0.6070923209190369,0.210791602730751,-0.008044183254241943,0.0284227728843689,-0.04980116337537766,XArbitraryZVertical,-0.6764384683994061,0.07710694673025295,-0.5619105261199675,0.4698317688574453,-0.687741219997406,0.7222789525985718,-0.07297103106975555,0,0,0,-1,-1,11858.64064875,unknown,2,2025-04-21T10:25:57.740+03:00,2025-04-20T21:57:49.637+03:00,1464,1.041328,0,0,1097.988,1,4,2025-04-21T10:25:37.107+03:00,766913168.1489851,0,-47.68,100.3037,1,0.75,2025-04-21T10:26:06.344+03:00,92.00000000000001,1.533333333333333,2025-04-21T09:28:58.093+03:00,0.01174319131481236,0
2025-04-21T10:26:10.358+03:00,1745220366.649838,40.9535311799476,29.14097193321444,92.49437,-1,-1,-1,-1,30,28.42579423228661,-9999,11871.249966625,-0.6993408203125,0.720001220703125,0.0651397705078125,11871.244928625,-2.494331252280414,-1.479682974388372,-0.8095858021799825,-0.8335750699043274,-0.5442180037498474,0.1295193880796432,0.009385824203491211,0.04171496629714966,0.02974289655685425,XArbitraryZVertical,-0.6800177228674831,0.07870477528608552,-0.5592093337642872,0.4676176901065242,-0.6869370341300964,0.7240015268325806,-0.06276290863752365,0,0,0,-1,-1,11858.64064875,unknown,2,2025-04-21T10:25:57.740+03:00,2025-04-20T21:57:49.637+03:00,1464,1.041328,0,0,1097.988,1,4,2025-04-21T10:25:37.107+03:00,766913168.1489851,0,-47.68,100.3037,1,0.75,2025-04-21T10:26:06.344+03:00,92.00000000000001,1.533333333333333,2025-04-21T09:28:58.093+03:00,0.01174319131481236,0
2025-04-21T10:26:10.368+03:00,1745220366.649838,40.9535311799476,29.14097193321444,92.49437,-1,-1,-1,-1,30,28.42579423228661,-9999,11871.260042625,-0.7193756103515625,0.6968841552734375,0.0583343505859375,11871.255004625,-2.505924853996661,-1.493191172343866,-0.8115315672465491,-0.7861324548721313,-0.4705630540847778,0.1281676739454269,0.003424584865570068,0.01730293035507202,0.09742104262113571,XArbitraryZVertical,-0.6832873599370515,0.0802118829156767,-0.556850928294055,0.4654046394399279,-0.6863164305686951,0.725342333316803,-0.05336887389421463,0,0,0,-1,-1,11858.64064875,unknown,2,2025-04-21T10:25:57.740+03:00,2025-04-20T21:57:49.637+03:00,1464,1.041328,0,0,1097.988,1,4,2025-04-21T10:25:37.107+03:00,766913168.1489851,0,-47.68,100.3037,1,0.75,2025-04-21T10:26:06.344+03:00,92.00000000000001,1.533333333333333,2025-04-21T09:28:58.093+03:00,0.01174319131481236,0
2025-04-21T10:26:10.379+03:00,1745220366.649838,40.9535311799476,29.14097193321444,92.49437,-1,-1,-1,-1,30,28.42579423228661,-9999,11871.270117625,-0.7086181640625,0.739166259765625,0.0404815673828125,11871.265079625,-2.516924352287137,-1.505565320312575,-0.8134707918005953,-0.7389178276062012,-0.4010007679462433,0.151438906788826,-0.02827149629592896,-0.02522945404052734,0.1137198805809021,XArbitraryZVertical,-0.6862343103867954,0.08180553549370179,-0.5547134493799933,0.4633393007192023,-0.6855193376541138,0.7266759276390076,-0.04478065297007561,0,0,0,-1,-1,11858.64064875,unknown,2,2025-04-21T10:25:57.740+03:00,2025-04-20T21:57:49.637+03:00,1464,1.041328,0,0,1097.988,1,4,2025-04-21T10:25:37.107+03:00,766913168.1489851,0,-47.68,100.3037,1,0.75,2025-04-21T10:26:06.344+03:00,92.00000000000001,1.533333333333333,2025-04-21T09:28:58.093+03:00,0.01174319131481236,0
2025-04-21T10:26:10.389+03:00,1745220366.649838,40.9535311799476,29.14097193321444,92.49437,-1,-1,-1,-1,30,28.42579423228661,-9999,11871.280193625,-0.6988067626953125,0.7737579345703125,0.0345306396484375,11871.275155625,-2.527180531382397,-1.516856652980604,-0.8155288533609206,-0.6932149529457092,-0.3652248084545135,0.1606930643320084,-0.0317152738571167,-0.01644885540008545,0.08387762308120728,XArbitraryZVertical,-0.6888801459512438,0.08346095551974192,-0.5527229799682721,0.4614929376797907,-0.6844865083694458,0.7280882000923157,-0.03695682808756828,0,0,0,-1,-1,11858.64064875,unknown,2,2025-04-21T10:25:57.740+03:00,2025-04-20T21:57:49.637+03:00,1464,1.041328,0,0,1097.988,1,4,2025-04-21T10:25:37.107+03:00,766913168.1489851,0,-47.68,100.3037,1,0.75,2025-04-21T10:26:06.344+03:00,92.00000000000001,1.533333333333333,2025-04-21T09:28:58.093+03:00,0.01174319131481236,0
2025-04-21T10:26:10.399+03:00,1745220366.649838,40.9535311799476,29.14097193321444,92.49437,-1,-1,-1,-1,30,28.42579423228661,-9999,11871.290268625,-0.6950531005859375,0.762054443359375,0.043121337890625,11871.285230625,-2.537720745853711,-1.528107578041169,-0.8173325429690754,-0.7587804198265076,-0.3420550525188446,0.1308568716049194,-0.01939612627029419,0.03437894582748413,0.06607794761657715,XArbitraryZVertical,-0.6914840262831841,0.08515348285823429,-0.5508487914186766,0.4595261962452697,-0.6835457682609558,0.7293234467506409,-0.02919745072722435,0,0,0,-1,-1,11858.64064875,unknown,2,2025-04-21T10:25:57.740+03:00,2025-04-20T21:57:49.637+03:00,1464,1.041328,0,0,1097.988,1,4,2025-04-21T10:25:37.107+03:00,766913168.1489851,0,-47.68,100.3037,1,0.75,2025-04-21T10:26:06.344+03:00,92.00000000000001,1.533333333333333,2025-04-21T09:28:58.093+03:00,0.01174319131481236,0
2025-04-21T10:26:10.409+03:00,1745220366.649838,40.9535311799476,29.14097193321444,92.49437,-1,-1,-1,-1,30,28.42579423228661,-9999,11871.300344625,-0.6946563720703125,0.7502288818359375,0.055816650390625,11871.295306625,-2.549007279269528,-1.539606485430296,-0.8188182328507215,-0.775909960269928,-0.3103134632110596,0.1107280924916267,-0.01255989074707031,0.03992456197738647,0.05731260776519775,XArbitraryZVertical,-0.694109197389905,0.08695685694131602,-0.5491099332480679,0.4573065357151528,-0.6827526092529297,0.7303391098976135,-0.02130185440182686,0,0,0,-1,-1,11858.64064875,unknown,2,2025-04-21T10:25:57.740+03:00,2025-04-20T21:57:49.637+03:00,1464,1.041328,0,0,1097.988,1,4,2025-04-21T10:25:37.107+03:00,766913168.1489851,0,-47.68,100.3037,1,0.75,2025-04-21T10:26:06.344+03:00,92.00000000000001,1.533333333333333,2025-04-21T09:28:58.093+03:00,0.01174319131481236,0
2025-04-21T10:26:10.419+03:00,1745220366.649838,40.9535311799476,29.14097193321444,92.49437,-1,-1,-1,-1,30,28.42579423228661,-9999,11871.310419625,-0.6771240234375,0.7696533203125,0.0500946044921875,11871.305381625,-2.560093370791173,-1.550772057253674,-0.8200615375459827,-0.7306841611862183,-0.3048771619796753,0.09710788726806641,-0.01402080059051514,0.02325242757797241,0.06514233350753784,XArbitraryZVertical,-0.6966360355955673,0.08870542009249981,-0.5474714874571226,0.4550873064241046,-0.6820393204689026,0.7311878204345703,-0.01365916430950165,0,0,0,-1,-1,11858.64064875,unknown,2,2025-04-21T10:25:57.740+03:00,2025-04-20T21:57:49.637+03:00,1464,1.041328,0,0,1097.988,1,4,2025-04-21T10:25:37.107+03:00,766913168.1489851,0,-47.68,100.3037,1,0.75,2025-04-21T10:26:06.344+03:00,92.00000000000001,1.533333333333333,2025-04-21T09:28:58.093+03:00,0.01174319131481236,0
2025-04-21T10:26:10.429+03:00,1745220366.649838,40.9535311799476,29.14097193321444,92.49437,-1,-1,-1,-1,30,28.42579423228661,-9999,11871.320495625,-0.665679931640625,0.8166351318359375,0.068389892578125,11871.315457625,-2.57068549669042,-1.561598119420512,-0.8209773323209433,-0.7013499736785889,-0.2988461554050446,0.06371185183525085,-0.005274832248687744,0.0220634937286377,0.06058984994888306,XArbitraryZVertical,-0.6990834030897447,0.09026694549692606,-0.5458900025912405,0.4529220606926512,-0.6814774870872498,0.7318122386932373,-0.006268548313528299,0,0,0,-1,-1,11858.64064875,unknown,2,2025-04-21T10:25:57.740+03:00,2025-04-20T21:57:49.637+03:00,1464,1.041328,0,0,1097.988,1,4,2025-04-21T10:25:37.107+03:00,766913168.1489851,0,-47.68,100.3037,1,0.75,2025-04-21T10:26:06.344+03:00,92.00000000000001,1.533333333333333,2025-04-21T09:28:58.093+03:00,0.01174319131481236,0
2025-04-21T10:26:10.439+03:00,1745220366.649838,40.9535311799476,29.14097193321444,92.49437,-1,-1,-1,-1,30,28.42579423228661,-9999,11871.330570625,-0.679351806640625,0.848480224609375,0.125244140625,11871.325532625,-2.580997741620041,-1.571956284046511,-0.8215378843536302,-0.69440096616745,-0.2572473287582397,0.03630419820547104,0.01329457759857178,0.06040835380554199,0.05200541019439697,XArbitraryZVertical,-0.7014127365409365,0.09173436643431622,-0.5444662218622067,0.4507343403294121,-0.6810954213142395,0.7321941256523132,0.000790041929576546,0,0,0,-1,-1,11858.64064875,unknown,2,2025-04-21T10:25:57.740+03:00,2025-04-20T21:57:49.637+03:00,1464,1.041328,0,0,1097.988,1,4,2025-04-21T10:25:37.107+03:00,766913168.1489851,0,-47.68,100.3037,1,0.75,2025-04-21T10:26:06.344+03:00,92.00000000000001,1.533333333333333,2025-04-21T09:28:58.093+03:00,0.01174319131481236,0
2025-04-21T10:26:10.449+03:00,1745220366.649838,40.9535311799476,29.14097193321444,92.49437,-1,-1,-1,-1,30,28.42579423228661,-9999,11871.340646625,-0.68817138671875,0.849609375,0.1707763671875,11871.335608625,-2.590611088756772,-1.581494530586459,-0.8216427210720799,-0.5840305089950562,-0.238213986158371,-0.01442036684602499,0.009318888187408447,0.1033667325973511,0.088173508644104,XArbitraryZVertical,-0.7035575226827148,0.09300313901429377,-0.5432538550214554,0.4485894144530012,-0.6809802055358887,0.7322655320167542,0.007285543251782656,0,0,0,-1,-1,11858.64064875,unknown,2,2025-04-21T10:25:57.740+03:00,2025-04-20T21:57:49.637+03:00,1464,1.041328,0,0,1097.988,1,4,2025-04-21T10:25:37.107+03:00,766913168.1489851,0,-47.68,100.3037,1,0.75,2025-04-21T10:26:06.344+03:00,92.00000000000001,1.533333333333333,2025-04-21T09:28:58.093+03:00,0.01174319131481236,0
2025-04-21T10:26:10.459+03:00,1745220366.649838,40.9535311799476,29.14097193321444,92.49437,-1,-1,-1,-1,30,28.42579423228661,-9999,11871.350721625,-0.6945953369140625,0.8096923828125,0.1738128662109375,11871.345684625,-2.598161842538969,-1.589319996092504,-0.8211088387706773,-0.4441764950752258,-0.217255175113678,-0.0823429599404335,-0.003887534141540527,0.1227580904960632,0.1388067007064819,XArbitraryZVertical,-0.7053554629510361,0.09372521514134854,-0.5423066905163442,0.446757885943785,-0.6812930107116699,0.7319018244743347,0.01262149028480053,0,0,0,-1,-1,11858.64064875,unknown,2,2025-04-21T10:25:57.740+03:00,2025-04-20T21:57:49.637+03:00,1464,1.041328,0,0,1097.988,1,4,2025-04-21T10:25:37.107+03:00,766913168.1489851,0,-47.68,100.3037,1,0.75,2025-04-21T10:26:06.344+03:00,92.00000000000001,1.533333333333333,2025-04-21T09:28:58.093+03:00,0.01174319131481236,0
2025-04-21T10:26:10.469+03:00,1745220366.649838,40.9535311799476,29.14097193321444,92.49437,-1,-1,-1,-1,30,28.42579423228661,-9999,11871.360797625,-0.7197723388671875,0.81549072265625,0.15771484375,11871.355759625,-2.603976380716518,-1.595522494388615,-0.8197143053429796,-0.344889372587204,-0.1655579656362534,-0.172924816608429,-0.007292628288269043,0.09903562068939209,0.1613657474517822,XArbitraryZVertical,-0.7068357636113265,0.0939110399586609,-0.5417228375438509,0.445084569317943,-0.6822214126586914,0.7309508919715881,0.01687216013669968,0,0,0,-1,-1,11858.64064875,unknown,2,2025-04-21T10:25:57.740+03:00,2025-04-20T21:57:49.637+03:00,1464,1.041328,0,0,1097.988,1,4,2025-04-21T10:25:37.107+03:00,766913168.1489851,0,-47.68,100.3037,1,0.75,2025-04-21T10:26:06.344+03:00,92.00000000000001,1.533333333333333,2025-04-21T09:28:58.093+03:00,0.01174319131481236,0
2025-04-21T10:26:10.479+03:00,1745220366.649838,40.9535311799476,29.14097193321444,92.49437,-1,-1,-1,-1,30,28.42579423228661,-9999,11871.370872625,-0.7353668212890625,0.840606689453125,0.1471710205078125,11871.365835625,-2.608347802776477,-1.60008045078848,-0.8176783732281749,-0.2613428235054016,-0.1055545434355736,-0.2153875976800919,-0.0215613842010498,0.07390671968460083,0.1450293064117432,XArbitraryZVertical,-0.7079727325957267,0.09373969037393727,-0.5415313253445662,0.4435439468675555,-0.6836234927177429,0.7295600175857544,0.02002503909170628,0,0,0,-1,-1,11858.64064875,unknown,2,2025-04-21T10:25:57.740+03:00,2025-04-20T21:57:49.637+03:00,1464,1.041328,0,0,1097.988,1,4,2025-04-21T10:25:37.107+03:00,766913168.1489851,0,-47.68,100.3037,1,0.75,2025-04-21T10:26:06.344+03:00,92.00000000000001,1.533333333333333,2025-04-21T09:28:58.093+03:00,0.01174319131481236,0
2025-04-21T10:26:10.489+03:00,1745220366.649838,40.9535311799476,29.14097193321444,92.49437,-1,-1,-1,-1,30,28.42579423228661,-9999,11871.380948625,-0.720855712890625,0.839019775390625,0.150390625,11871.375910625,-2.611777007545523,-1.603500203797351,-0.8152589910611096,-0.2321536689996719,-0.07892519980669022,-0.257855623960495,-0.04585742950439453,0.1042042374610901,0.1295266151428223,XArbitraryZVertical,-0.70886806534886,0.09336092158526875,-0.5416112026148334,0.4420939499026953,-0.6853131651878357,0.7279031872749329,0.02242039144039154,0,0,0,-1,-1,11858.64064875,unknown,2,2025-04-21T10:25:57.740+03:00,2025-04-20T21:57:49.637+03:00,1464,1.041328,0,0,1097.988,1,4,2025-04-21T10:25:37.107+03:00,766913168.1489851,0,-47.68,100.3037,1,0.75,2025-04-21T10:26:06.344+03:00,92.00000000000001,1.533333333333333,2025-04-21T09:28:58.093+03:00,0.01174319131481236,0
2025-04-21T10:26:10.500+03:00,1745220366.649838,40.9535311799476,29.14097193321444,92.49437,-1,-1,-1,-1,30,28.42579423228661,-9999,11871.391023625,-0.704925537109375,0.8192291259765625,0.1633148193359375,11871.385986625,-2.614970498217337,-1.606426452497495,-0.812485128995439,-0.2206754386425018,-0.04169287160038948,-0.2806459069252014,-0.04362088441848755,0.1162561178207397,0.121239185333252,XArbitraryZVertical,-0.7096620061464939,0.09289024482690146,-0.5418855002576234,0.4405806352989831,-0.6872597932815552,0.7259984016418457,0.02449752017855644,0,0,0,-1,-1,11858.64064875,unknown,2,2025-04-21T10:25:57.740+03:00,2025-04-20T21:57:49.637+03:00,1464,1.041328,0,0,1097.988,1,4,2025-04-21T10:25:37.107+03:00,766913168.1489851,0,-47.68,100.3037,1,0.75,2025-04-21T10:26:06.344+03:00,92.00000000000001,1.533333333333333,2025-04-21T09:28:58.093+03:00,0.01174319131481236,0
