loggingTime(txt),locationTimestamp_since1970(s),locationLatitude(WGS84),locationLongitude(WGS84),locationAltitude(m),locationSpeed(m/s),locationSpeedAccuracy(m/s),locationCourse(°),locationCourseAccuracy(°),locationVerticalAccuracy(m),locationHorizontalAccuracy(m),locationFloor(Z),accelerometerTimestamp_sinceReboot(s),accelerometerAccelerationX(G),accelerometerAccelerationY(G),accelerometerAccelerationZ(G),motionTimestamp_sinceReboot(s),motionYaw(rad),motionRoll(rad),motionPitch(rad),motionRotationRateX(rad/s),motionRotationRateY(rad/s),motionRotationRateZ(rad/s),motionUserAccelerationX(G),motionUserAccelerationY(G),motionUserAccelerationZ(G),motionAttitudeReferenceFrame(txt),motionQuaternionX(R),motionQuaternionY(R),motionQuaternionZ(R),motionQuaternionW(R),motionGravityX(G),motionGravityY(G),motionGravityZ(G),motionMagneticFieldX(µT),motionMagneticFieldY(µT),motionMagneticFieldZ(µT),motionHeading(°),motionMagneticFieldCalibrationAccuracy(Z),activityTimestamp_sinceReboot(s),activity(txt),activityActivityConfidence(Z),activityActivityStartDate(txt),pedometerStartDate(txt),pedometerNumberofSteps(N),pedometerAverageActivePace(s/m),pedometerCurrentPace(s/m),pedometerCurrentCadence(steps/s),pedometerDistance(m),pedometerFloorAscended(N),pedometerFloorDescended(N),pedometerEndDate(txt),altimeterTimestamp_sinceReboot(s),altimeterReset(bool),altimeterRelativeAltitude(m),altimeterPressure(kPa),batteryState(N),batteryLevel(R),heartRateBPMTimestamp(txt),heartRateBPM(N),heartRateBPS(R),heartRateVariabilityTimestamp(txt),heartRateVariability(ms),label
2025-04-22T11:59:06.680+03:00,1745312342.454455,40.95222556299963,29.14028007482035,75.7154,-1,-1,-1,-1,30,17.58087778887199,-9999,29007.10278454167,-0.966064453125,0.646575927734375,-0.35369873046875,29007.09524454167,-0.5189504713421701,-1.16632685074489,-0.7038382137921499,0.1363700479269028,0.4061403870582581,0.06442876905202866,-0.02206593751907349,0.06491798162460327,-0.1104322671890259,XArbitraryZVertical,-0.4107253099023232,-0.4257907586893729,-0.01758156298857729,0.8060383432936885,-0.700849711894989,0.6471485495567322,-0.3000138998031616,0,0,0,-1,-1,29005.72874525,unknown,2,2025-04-22T11:59:05.284+03:00,2025-04-21T17:08:51.449+03:00,7184,0.9570276,0,0,5997.434,5,20,2025-04-22T11:58:03.382+03:00,767005145.3888587,0,-20.29,100.4445,1,0.9,2025-04-22T11:59:05.251+03:00,94,1.566666666666667,2025-04-22T09:54:17.825+03:00,0.02225348692287972,0
2025-04-22T11:59:06.681+03:00,1745312342.454455,40.95222556299963,29.14028007482035,75.7154,-1,-1,-1,-1,30,17.58087778887199,-9999,29007.11285954167,-0.731658935546875,0.6870574951171875,-0.316070556640625,29007.10532054167,-0.516830577412746,-1.161238543364581,-0.7037455072343015,0.1494762599468231,0.2761589586734772,0.02572104893624783,-0.2714255452156067,-0.008726537227630615,-0.06956887245178223,XArbitraryZVertical,-0.4101969480330157,-0.4241915277025248,-0.01779742647722483,0.8071451066498641,-0.6993691325187683,0.6470778584480286,-0.303600013256073,0,0,0,-1,-1,29005.72874525,unknown,2,2025-04-22T11:59:05.284+03:00,2025-04-21T17:08:51.449+03:00,7184,0.9570276,0,0,5997.434,5,20,2025-04-22T11:58:03.382+03:00,767005145.3888587,0,-20.29,100.4445,1,0.9,2025-04-22T11:59:05.251+03:00,94,1.566666666666667,2025-04-22T09:54:17.825+03:00,0.02225348692287972,0
2025-04-22T11:59:06.683+03:00,1745312342.454455,40.95222556299963,29.14028007482035,75.7154,-1,-1,-1,-1,30,17.58087778887199,-9999,29007.12293554167,-0.56085205078125,0.6442108154296875,-0.2835845947265625,29007.11539554167,-0.5154822072711491,-1.159419605573535,-0.7030436620508894,0.08722260594367981,-0.0871586799621582,-0.07550323754549026,-0.134294867515564,0.03518939018249512,-0.02296504378318787,XArbitraryZVertical,-0.4096454121470651,-0.4238680053533429,-0.01782629731651506,0.8075943186006891,-0.6992316842079163,0.6465426087379456,-0.3050531148910522,0,0,0,-1,-1,29005.72874525,unknown,2,2025-04-22T11:59:05.284+03:00,2025-04-21T17:08:51.449+03:00,7184,0.9570276,0,0,5997.434,5,20,2025-04-22T11:58:03.382+03:00,767005145.3888587,0,-20.29,100.4445,1,0.9,2025-04-22T11:59:05.251+03:00,94,1.566666666666667,2025-04-22T09:54:17.825+03:00,0.02225348692287972,0
2025-04-22T11:59:06.693+03:00,1745312342.454455,40.95222556299963,29.14028007482035,75.7154,-1,-1,-1,-1,30,17.58087778887199,-9999,29007.13301054167,-0.5740203857421875,0.61932373046875,-0.274200439453125,29007.12547154167,-0.515320247446806,-1.161278837982658,-0.7018494568848116,0.03229091316461563,-0.2603424489498138,-0.1245703846216202,0.09824103116989136,0.01783609390258789,0.008374959230422974,XArbitraryZVertical,-0.4092028499981745,-0.4248801689126588,-0.0177212688789508,0.8072890483809677,-0.7005053758621216,0.6456311345100403,-0.3040597438812256,0,0,0,-1,-1,29005.72874525,unknown,2,2025-04-22T11:59:05.284+03:00,2025-04-21T17:08:51.449+03:00,7184,0.9570276,0,0,5997.434,5,20,2025-04-22T11:58:03.382+03:00,767005145.3888587,0,-20.29,100.4445,1,0.9,2025-04-22T11:59:05.251+03:00,94,1.566666666666667,2025-04-22T09:54:17.825+03:00,0.02225348692287972,0
2025-04-22T11:59:06.703+03:00,1745312342.454455,40.95222556299963,29.14028007482035,75.7154,-1,-1,-1,-1,30,17.58087778887199,-9999,29007.14308654167,-0.7013702392578125,0.6182098388671875,-0.285858154296875,29007.13554654167,-0.5156969358829574,-1.163677050495581,-0.7007736380557208,-0.0004395338473841548,-0.1354923248291016,-0.08779396116733551,0.1520653963088989,-0.02133524417877197,0.02930787205696106,XArbitraryZVertical,-0.4089217813246483,-0.4259766216961577,-0.01769036140622635,0.8068542644675896,-0.7018700838088989,0.6448091864585876,-0.3026537895202637,0,0,0,-1,-1,29005.72874525,unknown,2,2025-04-22T11:59:05.284+03:00,2025-04-21T17:08:51.449+03:00,7184,0.9570276,0,0,5997.434,5,20,2025-04-22T11:58:03.382+03:00,767005145.3888587,0,-20.29,100.4445,1,0.9,2025-04-22T11:59:05.251+03:00,94,1.566666666666667,2025-04-22T09:54:17.825+03:00,0.02225348692287972,0
2025-04-22T11:59:06.713+03:00,1745312342.454455,40.95222556299963,29.14028007482035,75.7154,-1,-1,-1,-1,30,17.58087778887199,-9999,29007.15316154167,-0.7879180908203125,0.608154296875,-0.293914794921875,29007.14562254167,-0.5162210538150288,-1.164236083482471,-0.7003979697825441,-0.04037123918533325,0.08541182428598404,-0.01290960051119328,0.05228298902511597,-0.02580869197845459,0.02057310938835144,XArbitraryZVertical,-0.4089049067605461,-0.4261668422457109,-0.01789503747466245,0.8067579437293022,-0.7022616863250732,0.6445220112800598,-0.3023571968078613,0,0,0,-1,-1,29005.72874525,unknown,2,2025-04-22T11:59:05.284+03:00,2025-04-21T17:08:51.449+03:00,7184,0.9570276,0,0,5997.434,5,20,2025-04-22T11:58:03.382+03:00,767005145.3888587,0,-20.29,100.4445,1,0.9,2025-04-22T11:59:05.251+03:00,94,1.566666666666667,2025-04-22T09:54:17.825+03:00,0.02225348692287972,0
2025-04-22T11:59:06.723+03:00,1745312342.454455,40.95222556299963,29.14028007482035,75.7154,-1,-1,-1,-1,30,17.58087778887199,-9999,29007.16323754167,-0.7631378173828125,0.60260009765625,-0.3009490966796875,29007.15569754167,-0.5168975270198396,-1.163227665675663,-0.7007070237471585,-0.0795452669262886,0.1768629103899002,0.01967936754226685,-0.06647604703903198,-0.03230112791061401,0.0121537446975708,XArbitraryZVertical,-0.4091496363228677,-0.4255625236467899,-0.01828572693479201,0.8069440485172327,-0.701773464679718,0.6447582840919495,-0.3029862344264984,0,0,0,-1,-1,29005.72874525,unknown,2,2025-04-22T11:59:05.284+03:00,2025-04-21T17:08:51.449+03:00,7184,0.9570276,0,0,5997.434,5,20,2025-04-22T11:58:03.382+03:00,767005145.3888587,0,-20.29,100.4445,1,0.9,2025-04-22T11:59:05.251+03:00,94,1.566666666666667,2025-04-22T09:54:17.825+03:00,0.02225348692287972,0
2025-04-22T11:59:06.733+03:00,1745312342.454455,40.95222556299963,29.14028007482035,75.7154,-1,-1,-1,-1,30,17.58087778887199,-9999,29007.17331254167,-0.6858367919921875,0.6112060546875,-0.305267333984375,29007.16577354167,-0.5178593818111085,-1.162372917711763,-0.7012329437581826,-0.09430930018424988,0.1033508777618408,0.01342520117759705,-0.08248847723007202,-0.04242295026779175,0.004470497369766235,XArbitraryZVertical,-0.4095331063984698,-0.4249200281689836,-0.01869833740143756,0.807078585990132,-0.7012028694152832,0.6451601982116699,-0.3034512102603912,0,0,0,-1,-1,29005.72874525,unknown,2,2025-04-22T11:59:05.284+03:00,2025-04-21T17:08:51.449+03:00,7184,0.9570276,0,0,5997.434,5,20,2025-04-22T11:58:03.382+03:00,767005145.3888587,0,-20.29,100.4445,1,0.9,2025-04-22T11:59:05.251+03:00,94,1.566666666666667,2025-04-22T09:54:17.825+03:00,0.02225348692287972,0
2025-04-22T11:59:06.743+03:00,1745312342.454455,40.95222556299963,29.14028007482035,75.7154,-1,-1,-1,-1,30,17.58087778887199,-9999,29007.18338854167,-0.639404296875,0.6264801025390625,-0.312103271484375,29007.17584854167,-0.5190528364258279,-1.162654382912415,-0.7016829399244164,-0.1054388508200645,-0.0003059394657611847,-0.002598340390250087,-0.01299798488616943,-0.03916555643081665,-0.0002976655960083008,XArbitraryZVertical,-0.4099490472675495,-0.4247028050887051,-0.01899356874997322,0.8069749229106479,-0.7010217905044556,0.6455039381980896,-0.3031386137008667,0,0,0,-1,-1,29005.72874525,unknown,2,2025-04-22T11:59:05.284+03:00,2025-04-21T17:08:51.449+03:00,7184,0.9570276,0,0,5997.434,5,20,2025-04-22T11:58:03.382+03:00,767005145.3888587,0,-20.29,100.4445,1,0.9,2025-04-22T11:59:05.251+03:00,94,1.566666666666667,2025-04-22T09:54:17.825+03:00,0.02225348692287972,0
2025-04-22T11:59:06.753+03:00,1745312342.454455,40.95222556299963,29.14028007482035,75.7154,-1,-1,-1,-1,30,17.58087778887199,-9999,29007.19346354167,-0.653594970703125,0.6409912109375,-0.321868896484375,29007.18592454167,-0.5203082743585309,-1.163698317485339,-0.702083953325177,-0.1015024334192276,-0.03491078689694405,-0.0003455724217928946,0.05160969495773315,-0.02563214302062988,-0.007128924131393433,XArbitraryZVertical,-0.4103679810209581,-0.4247894654478177,-0.01917115765293175,0.8067120546362251,-0.7011000514030457,0.6458101868629456,-0.3023040592670441,0,0,0,-1,-1,29005.72874525,unknown,2,2025-04-22T11:59:05.284+03:00,2025-04-21T17:08:51.449+03:00,7184,0.9570276,0,0,5997.434,5,20,2025-04-22T11:58:03.382+03:00,767005145.3888587,0,-20.29,100.4445,1,0.9,2025-04-22T11:59:05.251+03:00,94,1.566666666666667,2025-04-22T09:54:17.825+03:00,0.02225348692287972,0
2025-04-22T11:59:06.763+03:00,1745312342.454455,40.95222556299963,29.14028007482035,75.7154,-1,-1,-1,-1,30,17.58087778887199,-9999,29007.20353954167,-0.689208984375,0.650665283203125,-0.32928466796875,29007.19599954167,-0.5214610222531935,-1.164639966056354,-0.7024870790380787,-0.08999824523925781,-0.001833129208534956,0.003932063467800617,0.05873489379882812,-0.009948670864105225,-0.01662012934684753,XArbitraryZVertical,-0.4107648590280136,-0.4248550460603102,-0.01932728694116106,0.8064717465849017,-0.7011451125144958,0.6461179256439209,-0.3015408515930176,0,0,0,-1,-1,29005.72874525,unknown,2,2025-04-22T11:59:05.284+03:00,2025-04-21T17:08:51.449+03:00,7184,0.9570276,0,0,5997.434,5,20,2025-04-22T11:58:03.382+03:00,767005145.3888587,0,-20.29,100.4445,1,0.9,2025-04-22T11:59:05.251+03:00,94,1.566666666666667,2025-04-22T09:54:17.825+03:00,0.02225348692287972,0
2025-04-22T11:59:06.773+03:00,1745312342.454455,40.95222556299963,29.14028007482035,75.7154,-1,-1,-1,-1,30,17.58087778887199,-9999,29007.21361454167,-0.7022705078125,0.6558990478515625,-0.33013916015625,29007.20607554167,-0.5223514818429007,-1.165101957074336,-0.7028740141002463,-0.06770306080579758,0.02330285124480724,0.009669311344623566,0.02480047941207886,0.001001834869384766,-0.02595385909080505,XArbitraryZVertical,-0.4110955647469269,-0.4247838432958493,-0.01948055023521363,0.8063371314208775,-0.7010546922683716,0.6464132070541382,-0.3011182546615601,0,0,0,-1,-1,29005.72874525,unknown,2,2025-04-22T11:59:05.284+03:00,2025-04-21T17:08:51.449+03:00,7184,0.9570276,0,0,5997.434,5,20,2025-04-22T11:58:03.382+03:00,767005145.3888587,0,-20.29,100.4445,1,0.9,2025-04-22T11:59:05.251+03:00,94,1.566666666666667,2025-04-22T09:54:17.825+03:00,0.02225348692287972,0
2025-04-22T11:59:06.784+03:00,1745312342.454455,40.95222556299963,29.14028007482035,75.7154,-1,-1,-1,-1,30,17.58087778887199,-9999,29007.22369054167,-0.69476318359375,0.6634368896484375,-0.32757568359375,29007.21615054167,-0.5229808659876276,-1.165366911450132,-0.7031402062882444,-0.03931509703397751,0.0014489502646029,0.0004258787957951427,-0.0002870559692382812,0.00763469934463501,-0.03011375665664673,XArbitraryZVertical,-0.4113260934151591,-0.4247099383983015,-0.01960351370047744,0.8062555403945748,-0.7009763717651367,0.6466162800788879,-0.3008646368980408,0,0,0,-1,-1,29005.72874525,unknown,2,2025-04-22T11:59:05.284+03:00,2025-04-21T17:08:51.449+03:00,7184,0.9570276,0,0,5997.434,5,20,2025-04-22T11:58:03.382+03:00,767005145.3888587,0,-20.29,100.4445,1,0.9,2025-04-22T11:59:05.251+03:00,94,1.566666666666667,2025-04-22T09:54:17.825+03:00,0.02225348692287972,0
2025-04-22T11:59:06.794+03:00,1745312342.454455,40.95222556299963,29.14028007482035,75.7154,-1,-1,-1,-1,30,17.58087778887199,-9999,29007.23376554167,-0.6902923583984375,0.66552734375,-0.3249969482421875,29007.22622654167,-0.5232815112979554,-1.165704122647703,-0.7031923985865238,-0.00874626636505127,-0.02756592258810997,-0.01156260725110769,0.002545058727264404,0.01462912559509277,-0.0277542769908905,XArbitraryZVertical,-0.4114117808380834,-0.4247739603970867,-0.01964033445361404,0.8061770684049451,-0.7010465860366821,0.6466560959815979,-0.3006148636341095,0,0,0,-1,-1,29005.72874525,unknown,2,2025-04-22T11:59:05.284+03:00,2025-04-21T17:08:51.449+03:00,7184,0.9570276,0,0,5997.434,5,20,2025-04-22T11:58:03.382+03:00,767005145.3888587,0,-20.29,100.4445,1,0.9,2025-04-22T11:59:05.251+03:00,94,1.566666666666667,2025-04-22T09:54:17.825+03:00,0.02225348692287972,0
2025-04-22T11:59:06.804+03:00,1745312342.454455,40.95222556299963,29.14028007482035,75.7154,-1,-1,-1,-1,30,17.58087778887199,-9999,29007.24384154167,-0.700225830078125,0.6636810302734375,-0.3212432861328125,29007.23630154167,-0.5233321286979349,-1.165985983287033,-0.7030746615900292,0.01131645869463682,-0.02007438614964485,-0.01169559918344021,0.01049709320068359,0.01864051818847656,-0.02532786130905151,XArbitraryZVertical,-0.4113835699900327,-0.424899879496251,-0.0196365696044073,0.8061253169320843,-0.7012014389038086,0.6465662717819214,-0.3004473149776459,0,0,0,-1,-1,29005.72874525,unknown,2,2025-04-22T11:59:05.284+03:00,2025-04-21T17:08:51.449+03:00,7184,0.9570276,0,0,5997.434,5,20,2025-04-22T11:58:03.382+03:00,767005145.3888587,0,-20.29,100.4445,1,0.9,2025-04-22T11:59:05.251+03:00,94,1.566666666666667,2025-04-22T09:54:17.825+03:00,0.02225348692287972,0
2025-04-22T11:59:06.814+03:00,1745312342.454455,40.95222556299963,29.14028007482035,75.7154,-1,-1,-1,-1,30,17.58087778887199,-9999,29007.25391654167,-0.713714599609375,0.6582183837890625,-0.314727783203125,29007.24637754167,-0.5231604722755846,-1.16597161721305,-0.7028886385620522,0.02252543717622757,0.005029903259128332,-0.006598840933293104,0.006269752979278564,0.01898074150085449,-0.02255436778068542,XArbitraryZVertical,-0.4112811310592957,-0.4249652750042051,-0.01962365615217599,0.8061433455634396,-0.7013075351715088,0.6464243531227112,-0.3005046844482422,0,0,0,-1,-1,29005.72874525,unknown,2,2025-04-22T11:59:05.284+03:00,2025-04-21T17:08:51.449+03:00,7184,0.9570276,0,0,5997.434,5,20,2025-04-22T11:58:03.382+03:00,767005145.3888587,0,-20.29,100.4445,1,0.9,2025-04-22T11:59:05.251+03:00,94,1.566666666666667,2025-04-22T09:54:17.825+03:00,0.02225348692287972,0
2025-04-22T11:59:06.824+03:00,1745312342.454455,40.95222556299963,29.14028007482035,75.7154,-1,-1,-1,-1,30,17.58087778887199,-9999,29007.26399254167,-0.7108612060546875,0.64532470703125,-0.31134033203125,29007.25645254167,-0.522906994112471,-1.165674459750525,-0.7027470925029318,0.02157921530306339,0.02065600082278252,-0.003903988283127546,-0.008460164070129395,0.01455694437026978,-0.01613008975982666,XArbitraryZVertical,-0.4111741962616045,-0.4249249132043245,-0.01962321161510143,0.8062192801102955,-0.7013024091720581,0.6463163495063782,-0.3007491827011108,0,0,0,-1,-1,29005.72874525,unknown,2,2025-04-22T11:59:05.284+03:00,2025-04-21T17:08:51.449+03:00,7184,0.9570276,0,0,5997.434,5,20,2025-04-22T11:58:03.382+03:00,767005145.3888587,0,-20.29,100.4445,1,0.9,2025-04-22T11:59:05.251+03:00,94,1.566666666666667,2025-04-22T09:54:17.825+03:00,0.02225348692287972,0
2025-04-22T11:59:06.834+03:00,1745312342.454455,40.95222556299963,29.14028007482035,75.7154,-1,-1,-1,-1,30,17.58087778887199,-9999,29007.27406754167,-0.6999359130859375,0.632293701171875,-0.309600830078125,29007.26652854167,-0.5228026527553725,-1.165420721527918,-0.7026766318626849,-0.0005077107925899327,0.0163709744811058,-0.004816653672605753,-0.01299601793289185,0.004814624786376953,-0.01236364245414734,XArbitraryZVertical,-0.4111245744252525,-0.4248576603462308,-0.01965352164273952,0.8062793101483894,-0.7012679576873779,0.6462625861167908,-0.3009451031684875,0,0,0,-1,-1,29005.72874525,unknown,2,2025-04-22T11:59:05.284+03:00,2025-04-21T17:08:51.449+03:00,7184,0.9570276,0,0,5997.434,5,20,2025-04-22T11:58:03.382+03:00,767005145.3888587,0,-20.29,100.4445,1,0.9,2025-04-22T11:59:05.251+03:00,94,1.566666666666667,2025-04-22T09:54:17.825+03:00,0.02225348692287972,0
2025-04-22T11:59:06.844+03:00,1745312342.454455,40.95222556299963,29.14028007482035,75.7154,-1,-1,-1,-1,30,17.58087778887199,-9999,29007.28414354167,-0.69183349609375,0.628631591796875,-0.3110198974609375,29007.27660354167,-0.5229528044032867,-1.165421514217043,-0.7026786794254564,-0.02129841037094593,0.001716731116175652,-0.005475752986967564,-0.003414452075958252,-0.009530246257781982,-0.008794128894805908,XArbitraryZVertical,-0.4111572162445887,-0.4248267170631941,-0.01971329074452184,0.8062774768000643,-0.7012669444084167,0.6462641358375549,-0.3009440004825592,0,0,0,-1,-1,29005.72874525,unknown,2,2025-04-22T11:59:05.284+03:00,2025-04-21T17:08:51.449+03:00,7184,0.9570276,0,0,5997.434,5,20,2025-04-22T11:58:03.382+03:00,767005145.3888587,0,-20.29,100.4445,1,0.9,2025-04-22T11:59:05.251+03:00,94,1.566666666666667,2025-04-22T09:54:17.825+03:00,0.02225348692287972,0
2025-04-22T11:59:06.854+03:00,1745312342.454455,40.95222556299963,29.14028007482035,75.7154,-1,-1,-1,-1,30,17.58087778887199,-9999,29007.29421854167,-0.6951904296875,0.63043212890625,-0.3116455078125,29007.28667954167,-0.5233299573522087,-1.165680706604394,-0.7027406962351336,-0.0381423681974411,-0.005230923648923635,-0.006252597086131573,0.007704555988311768,-0.01745110750198364,-0.009373188018798828,XArbitraryZVertical,-0.4112618603550922,-0.424841698549669,-0.01979424923530531,0.8062142081268855,-0.7013080716133118,0.6463114619255066,-0.3007464408874512,0,0,0,-1,-1,29005.72874525,unknown,2,2025-04-22T11:59:05.284+03:00,2025-04-21T17:08:51.449+03:00,7184,0.9570276,0,0,5997.434,5,20,2025-04-22T11:58:03.382+03:00,767005145.3888587,0,-20.29,100.4445,1,0.9,2025-04-22T11:59:05.251+03:00,94,1.566666666666667,2025-04-22T09:54:17.825+03:00,0.02225348692287972,0
2025-04-22T11:59:06.864+03:00,1745312342.454455,40.95222556299963,29.14028007482035,75.7154,-1,-1,-1,-1,30,17.58087778887199,-9999,29007.30429454167,-0.7008514404296875,0.6329498291015625,-0.310272216796875,29007.29675454167,-0.5238403030192176,-1.165967178547899,-0.7028893523299107,-0.04449201375246048,0.008514583110809326,0.003268936183303595,0.008404195308685303,-0.01696944236755371,-0.01083266735076904,XArbitraryZVertical,-0.4114257528854988,-0.4248235243643131,-0.01989839856745001,0.8061375650479213,-0.7013058066368103,0.6464248895645142,-0.3005076348781586,0,0,0,-1,-1,29005.72874525,unknown,2,2025-04-22T11:59:05.284+03:00,2025-04-21T17:08:51.449+03:00,7184,0.9570276,0,0,5997.434,5,20,2025-04-22T11:58:03.382+03:00,767005145.3888587,0,-20.29,100.4445,1,0.9,2025-04-22T11:59:05.251+03:00,94,1.566666666666667,2025-04-22T09:54:17.825+03:00,0.02225348692287972,0
2025-04-22T11:59:06.874+03:00,1745312342.454455,40.95222556299963,29.14028007482035,75.7154,-1,-1,-1,-1,30,17.58087778887199,-9999,29007.31436954167,-0.7021026611328125,0.6359405517578125,-0.3092803955078125,29007.30683054167,-0.5243593482289231,-1.166121139357425,-0.703126551544485,-0.04923883080482483,0.02452337741851807,0.006672455929219723,0.002190768718719482,-0.0148158073425293,-0.01087892055511475,XArbitraryZVertical,-0.4116214843323915,-0.4247329845210926,-0.02000788241270839,0.8060826434341885,-0.7012110948562622,0.6466058492660522,-0.3003392815589905,0,0,0,-1,-1,29005.72874525,unknown,2,2025-04-22T11:59:05.284+03:00,2025-04-21T17:08:51.449+03:00,7184,0.9570276,0,0,5997.434,5,20,2025-04-22T11:58:03.382+03:00,767005145.3888587,0,-20.29,100.4445,1,0.9,2025-04-22T11:59:05.251+03:00,94,1.566666666666667,2025-04-22T09:54:17.825+03:00,0.02225348692287972,0
2025-04-22T11:59:06.884+03:00,1745312342.454455,40.95222556299963,29.14028007482035,75.7154,-1,-1,-1,-1,30,17.58087778887199,-9999,29007.32444554167,-0.6927642822265625,0.6388702392578125,-0.308990478515625,29007.31690554167,-0.5248506601158998,-1.166132025861613,-0.7034125578750526,-0.04443781822919846,0.02702927775681019,0.007706627715379,-0.002263784408569336,-0.01161599159240723,-0.008975744247436523,XArbitraryZVertical,-0.4118271228762631,-0.4245809770891615,-0.02012160239279609,0.8060548487456884,-0.7010443806648254,0.6468240022659302,-0.3002588152885437,0,0,0,-1,-1,29005.72874525,unknown,2,2025-04-22T11:59:05.284+03:00,2025-04-21T17:08:51.449+03:00,7184,0.9570276,0,0,5997.434,5,20,2025-04-22T11:58:03.382+03:00,767005145.3888587,0,-20.29,100.4445,1,0.9,2025-04-22T11:59:05.251+03:00,94,1.566666666666667,2025-04-22T09:54:17.825+03:00,0.02225348692287972,0
2025-04-22T11:59:06.895+03:00,1745312342.454455,40.95222556299963,29.14028007482035,75.7154,-1,-1,-1,-1,30,17.58087778887199,-9999,29007.33452054167,-0.68408203125,0.6426849365234375,-0.3092498779296875,29007.32698154167,-0.5252231419648458,-1.166115426896211,-0.703662560947391,-0.03231989964842796,0.009458007290959358,0.004564630798995495,0.004143953323364258,-0.009349942207336426,-0.008203804492950439,XArbitraryZVertical,-0.4119944483240909,-0.424449251526624,-0.02020343095347414,0.8060367150803774,-0.7008907794952393,0.6470146179199219,-0.3002068102359772,0,0,0,-1,-1,29005.72874525,unknown,2,2025-04-22T11:59:05.284+03:00,2025-04-21T17:08:51.449+03:00,7184,0.9570276,0,0,5997.434,5,20,2025-04-22T11:58:03.382+03:00,767005145.3888587,0,-20.29,100.4445,1,0.9,2025-04-22T11:59:05.251+03:00,94,1.566666666666667,2025-04-22T09:54:17.825+03:00,0.02225348692287972,0
2025-04-22T11:59:06.905+03:00,1745312342.454455,40.95222556299963,29.14028007482035,75.7154,-1,-1,-1,-1,30,17.58087778887199,-9999,29007.34459654167,-0.6846771240234375,0.64813232421875,-0.3099517822265625,29007.33705654167,-0.5255101819401758,-1.166275148323307,-0.7037748352741856,-0.02338925749063492,-0.008096484467387199,-0.003336036112159491,0.01411962509155273,-0.006170094013214111,-0.009305626153945923,XArbitraryZVertical,-0.4120966755449395,-0.4244327751404558,-0.02025400748285021,0.8059919097034005,-0.700872004032135,0.6471002697944641,-0.3000662922859192,0,0,0,-1,-1,29005.72874525,unknown,2,2025-04-22T11:59:05.284+03:00,2025-04-21T17:08:51.449+03:00,7184,0.9570276,0,0,5997.434,5,20,2025-04-22T11:58:03.382+03:00,767005145.3888587,0,-20.29,100.4445,1,0.9,2025-04-22T11:59:05.251+03:00,94,1.566666666666667,2025-04-22T09:54:17.825+03:00,0.02225348692287972,0
2025-04-22T11:59:06.914+03:00,1745312342.454455,40.95222556299963,29.14028007482035,75.7154,-1,-1,-1,-1,30,17.58087778887199,-9999,29007.35467154167,-0.692718505859375,0.6453857421875,-0.31005859375,29007.34713254167,-0.5257824007342194,-1.16652912991565,-0.7038019290171226,-0.0224267914891243,-0.01065045595169067,-0.004814622923731804,0.01761293411254883,-0.0005298256874084473,-0.01052814722061157,XArbitraryZVertical,-0.4121666157933901,-0.424473787979688,-0.02030358403171952,0.8059332718350518,-0.7009320259094238,0.6471208930015564,-0.2998813688755035,0,0,0,-1,-1,29005.72874525,unknown,2,2025-04-22T11:59:05.284+03:00,2025-04-21T17:08:51.449+03:00,7184,0.9570276,0,0,5997.434,5,20,2025-04-22T11:58:03.382+03:00,767005145.3888587,0,-20.29,100.4445,1,0.9,2025-04-22T11:59:05.251+03:00,94,1.566666666666667,2025-04-22T09:54:17.825+03:00,0.02225348692287972,0
2025-04-22T11:59:06.925+03:00,1745312342.454455,40.95222556299963,29.14028007482035,75.7154,-1,-1,-1,-1,30,17.58087778887199,-9999,29007.36474754167,-0.703857421875,0.643798828125,-0.3095550537109375,29007.35720754167,-0.5260575931116617,-1.166722321755816,-0.7038157164844471,-0.02369125932455063,0.004314911086112261,-0.0009513084078207612,0.012032151222229,-0.000402987003326416,-0.01033139228820801,XArbitraryZVertical,-0.4122318610845423,-0.4244922510512572,-0.02037070190836646,0.8058884868420764,-0.7009817361831665,0.6471313834190369,-0.2997424304485321,0,0,0,-1,-1,29005.72874525,unknown,2,2025-04-22T11:59:05.284+03:00,2025-04-21T17:08:51.449+03:00,7184,0.9570276,0,0,5997.434,5,20,2025-04-22T11:58:03.382+03:00,767005145.3888587,0,-20.29,100.4445,1,0.9,2025-04-22T11:59:05.251+03:00,94,1.566666666666667,2025-04-22T09:54:17.825+03:00,0.02225348692287972,0
2025-04-22T11:59:06.935+03:00,1745312342.454455,40.95222556299963,29.14028007482035,75.7154,-1,-1,-1,-1,30,17.58087778887199,-9999,29007.37482354167,-0.710479736328125,0.643890380859375,-0.30780029296875,29007.36728354167,-0.5263164057895581,-1.166731544634148,-0.7038765153585052,-0.02528516203165054,0.02033622190356255,0.004297781735658646,0.00185161828994751,-0.00276869535446167,-0.009590387344360352,XArbitraryZVertical,-0.4123083763575122,-0.4244308498178696,-0.0204556377678838,0.8058795399309602,-0.7009483575820923,0.6471777558326721,-0.2997205257415771,0,0,0,-1,-1,29005.72874525,unknown,2,2025-04-22T11:59:05.284+03:00,2025-04-21T17:08:51.449+03:00,7184,0.9570276,0,0,5997.434,5,20,2025-04-22T11:58:03.382+03:00,767005145.3888587,0,-20.29,100.4445,1,0.9,2025-04-22T11:59:05.251+03:00,94,1.566666666666667,2025-04-22T09:54:17.825+03:00,0.02225348692287972,0
2025-04-22T11:59:06.945+03:00,1745312342.454455,40.95222556299963,29.14028007482035,75.7154,-1,-1,-1,-1,30,17.58087778887199,-9999,29007.38489854167,-0.7052764892578125,0.63922119140625,-0.3066558837890625,29007.37735954167,-0.5265563393542817,-1.166611828038923,-0.7039771209458331,-0.02800491452217102,0.02967899106442928,0.003577996045351028,-0.008620202541351318,-0.002601325511932373,-0.008845478296279907,XArbitraryZVertical,-0.4123936756357435,-0.4243136601063132,-0.02054807488741195,0.8058951326755933,-0.7008523941040039,0.647254467010498,-0.2997787594795227,0,0,0,-1,-1,29005.72874525,unknown,2,2025-04-22T11:59:05.284+03:00,2025-04-21T17:08:51.449+03:00,7184,0.9570276,0,0,5997.434,5,20,2025-04-22T11:58:03.382+03:00,767005145.3888587,0,-20.29,100.4445,1,0.9,2025-04-22T11:59:05.251+03:00,94,1.566666666666667,2025-04-22T09:54:17.825+03:00,0.02225348692287972,0
2025-04-22T11:59:06.955+03:00,1745312342.454455,40.95222556299963,29.14028007482035,75.7154,-1,-1,-1,-1,30,17.58087778887199,-9999,29007.39497454167,-0.6974334716796875,0.6367034912109375,-0.3028411865234375,29007.38743454167,-0.5268446649618337,-1.166494422358973,-0.7040824602857867,-0.03232403099536896,0.02383628115057945,0.004247781354933977,-0.007268428802490234,-0.006053805351257324,-0.007325142621994019,XArbitraryZVertical,-0.4124908527095956,-0.4241864948623832,-0.02065824436292601,0.8059095615942974,-0.7007545828819275,0.6473347544670105,-0.2998342216014862,0,0,0,-1,-1,29005.72874525,unknown,2,2025-04-22T11:59:05.284+03:00,2025-04-21T17:08:51.449+03:00,7184,0.9570276,0,0,5997.434,5,20,2025-04-22T11:58:03.382+03:00,767005145.3888587,0,-20.29,100.4445,1,0.9,2025-04-22T11:59:05.251+03:00,94,1.566666666666667,2025-04-22T09:54:17.825+03:00,0.02225348692287972,0
2025-04-22T11:59:06.965+03:00,1745312342.454455,40.95222556299963,29.14028007482035,75.7154,-1,-1,-1,-1,30,17.58087778887199,-9999,29007.40504954167,-0.692169189453125,0.6331939697265625,-0.3000640869140625,29007.39751054167,-0.527295374530747,-1.166585522535216,-0.7042499762511175,-0.04759346321225166,0.01083080098032951,0.006515096873044968,0.0002121925354003906,-0.009889304637908936,-0.004501998424530029,XArbitraryZVertical,-0.4126465887969432,-0.4240977761205645,-0.02077297942592209,0.8058735821150934,-0.7006821632385254,0.6474624276161194,-0.299727737903595,0,0,0,-1,-1,29005.72874525,unknown,2,2025-04-22T11:59:05.284+03:00,2025-04-21T17:08:51.449+03:00,7184,0.9570276,0,0,5997.434,5,20,2025-04-22T11:58:03.382+03:00,767005145.3888587,0,-20.29,100.4445,1,0.9,2025-04-22T11:59:05.251+03:00,94,1.566666666666667,2025-04-22T09:54:17.825+03:00,0.02225348692287972,0
2025-04-22T11:59:06.975+03:00,1745312342.454455,40.95222556299963,29.14028007482035,75.7154,-1,-1,-1,-1,30,17.58087778887199,-9999,29007.41512554167,-0.6937713623046875,0.6291961669921875,-0.2997589111328125,29007.40758554167,-0.5279571805727727,-1.166887065504143,-0.7045190495965594,-0.06862658262252808,0.01163560803979635,0.005560353398323059,0.007268190383911133,-0.01323765516281128,-0.001058578491210938,XArbitraryZVertical,-0.4128851305684052,-0.4240305247636174,-0.02090014924116997,0.8057835102973385,-0.7006123065948486,0.6476674675941467,-0.2994479537010193,0,0,0,-1,-1,29005.72874525,unknown,2,2025-04-22T11:59:05.284+03:00,2025-04-21T17:08:51.449+03:00,7184,0.9570276,0,0,5997.434,5,20,2025-04-22T11:58:03.382+03:00,767005145.3888587,0,-20.29,100.4445,1,0.9,2025-04-22T11:59:05.251+03:00,94,1.566666666666667,2025-04-22T09:54:17.825+03:00,0.02225348692287972,0
2025-04-22T11:59:06.985+03:00,1745312342.454455,40.95222556299963,29.14028007482035,75.7154,-1,-1,-1,-1,30,17.58087778887199,-9999,29007.42520054167,-0.70086669921875,0.6322174072265625,-0.299560546875,29007.41766154167,-0.5287957950429708,-1.167208245369189,-0.704875542032746,-0.07857520878314972,0.02350039035081863,0.006534471176564693,0.008998334407806396,-0.01791900396347046,-0.000733494758605957,XArbitraryZVertical,-0.4131921824208858,-0.4239175560615396,-0.0210692992148859,0.8056811767984248,-0.7004961371421814,0.6479390263557434,-0.2991322576999664,0,0,0,-1,-1,29005.72874525,unknown,2,2025-04-22T11:59:05.284+03:00,2025-04-21T17:08:51.449+03:00,7184,0.9570276,0,0,5997.434,5,20,2025-04-22T11:58:03.382+03:00,767005145.3888587,0,-20.29,100.4445,1,0.9,2025-04-22T11:59:05.251+03:00,94,1.566666666666667,2025-04-22T09:54:17.825+03:00,0.02225348692287972,0
2025-04-22T11:59:06.995+03:00,1745312342.454455,40.95222556299963,29.14028007482035,75.7154,-1,-1,-1,-1,30,17.58087778887199,-9999,29007.43527654167,-0.701751708984375,0.63800048828125,-0.2970733642578125,29007.42773654167,-0.5296366367279006,-1.167431639915765,-0.7053039863090846,-0.0762002021074295,0.03075217828154564,0.01372979953885078,0.001653432846069336,-0.01794010400772095,-0.0007395148277282715,XArbitraryZVertical,-0.4135239788402209,-0.4237505421959368,-0.02123877414517066,0.8055943999460168,-0.7003076076507568,0.6482653021812439,-0.2988668084144592,0,0,0,-1,-1,29005.72874525,unknown,2,2025-04-22T11:59:05.284+03:00,2025-04-21T17:08:51.449+03:00,7184,0.9570276,0,0,5997.434,5,20,2025-04-22T11:58:03.382+03:00,767005145.3888587,0,-20.29,100.4445,1,0.9,2025-04-22T11:59:05.251+03:00,94,1.566666666666667,2025-04-22T09:54:17.825+03:00,0.02225348692287972,0
2025-04-22T11:59:07.005+03:00,1745312342.454455,40.95222556299963,29.14028007482035,75.7154,-1,-1,-1,-1,30,17.58087778887199,-9999,29007.44535154167,-0.699859619140625,0.644744873046875,-0.29461669921875,29007.43781254167,-0.5304058212139311,-1.167552431249112,-0.7057241728467514,-0.06771857291460037,0.03513973578810692,0.01187117956578732,-0.00171971321105957,-0.01339244842529297,0.000472724437713623,XArbitraryZVertical,-0.413836513179307,-0.4235583971307722,-0.02140284520149594,0.805530549326206,-0.7000930309295654,0.6485852003097534,-0.2986752390861511,0,0,0,-1,-1,29005.72874525,unknown,2,2025-04-22T11:59:05.284+03:00,2025-04-21T17:08:51.449+03:00,7184,0.9570276,0,0,5997.434,5,20,2025-04-22T11:58:03.382+03:00,767005145.3888587,0,-20.29,100.4445,1,0.9,2025-04-22T11:59:05.251+03:00,94,1.566666666666667,2025-04-22T09:54:17.825+03:00,0.02225348692287972,0
2025-04-22T11:59:07.016+03:00,1745312342.454455,40.95222556299963,29.14028007482035,75.7154,-1,-1,-1,-1,30,17.58087778887199,-9999,29007.45542754167,-0.6971282958984375,0.6451568603515625,-0.2919921875,29007.44788754167,-0.5310825889351947,-1.167570838521651,-0.7060533563599194,-0.05962948873639107,0.03802180662751198,0.009969149716198444,-0.0006442070007324219,-0.006135642528533936,0.002573311328887939,XArbitraryZVertical,-0.4140961412752734,-0.4233616718605474,-0.02157700383917627,0.8054958795640671,-0.6999020576477051,0.6488357186317444,-0.2985785603523254,0,0,0,-1,-1,29005.72874525,unknown,2,2025-04-22T11:59:05.284+03:00,2025-04-21T17:08:51.449+03:00,7184,0.9570276,0,0,5997.434,5,20,2025-04-22T11:58:03.382+03:00,767005145.3888587,0,-20.29,100.4445,1,0.9,2025-04-22T11:59:05.251+03:00,94,1.566666666666667,2025-04-22T09:54:17.825+03:00,0.02225348692287972,0
2025-04-22T11:59:07.028+03:00,1745312342.454455,40.95222556299963,29.14028007482035,75.7154,-1,-1,-1,-1,30,17.58087778887199,-9999,29007.46550254167,-0.6978759765625,0.6436767578125,-0.28887939453125,29007.45796354167,-0.5317573881433263,-1.167571347831436,-0.7063444420472972,-0.06001225113868713,0.04525568708777428,0.008635139092803001,0.002462923526763916,-0.003641068935394287,0.005291223526000977,XArbitraryZVertical,-0.4143416003148798,-0.4231654325673104,-0.02176502721977532,0.8054677589240127,-0.6997285485267639,0.6490572094917297,-0.298504114151001,0,0,0,-1,-1,29005.72874525,unknown,2,2025-04-22T11:59:05.284+03:00,2025-04-21T17:08:51.449+03:00,7184,0.9570276,0,0,5997.434,5,20,2025-04-22T11:58:03.382+03:00,767005145.3888587,0,-20.29,100.4445,1,0.9,2025-04-22T11:59:05.251+03:00,94,1.566666666666667,2025-04-22T09:54:17.825+03:00,0.02225348692287972,0
2025-04-22T11:59:07.042+03:00,1745312342.454455,40.95222556299963,29.14028007482035,75.7154,-1,-1,-1,-1,30,17.58087778887199,-9999,29007.47557854167,-0.6978759765625,0.639251708984375,-0.2890167236328125,29007.46803854167,-0.5325607334541581,-1.167579850316487,-0.7066673775710086,-0.08011911809444427,0.05399565026164055,0.008704381063580513,0.001814901828765869,-0.005244672298431396,0.008498936891555786,XArbitraryZVertical,-0.4146254564095417,-0.4229394286425213,-0.02199399850414499,0.8054342420955466,-0.6995383501052856,0.6493028402328491,-0.2984159290790558,0,0,0,-1,-1,29005.72874525,unknown,2,2025-04-22T11:59:05.284+03:00,2025-04-21T17:08:51.449+03:00,7184,0.9570276,0,0,5997.434,5,20,2025-04-22T11:58:03.382+03:00,767005145.3888587,0,-20.29,100.4445,1,0.9,2025-04-22T11:59:05.251+03:00,94,1.566666666666667,2025-04-22T09:54:17.825+03:00,0.02225348692287972,0
2025-04-22T11:59:07.052+03:00,1745312342.454455,40.95222556299963,29.14028007482035,75.7154,-1,-1,-1,-1,30,17.58087778887199,-9999,29007.48565354167,-0.700164794921875,0.6310577392578125,-0.2929229736328125,29007.47811454167,-0.5336495568188717,-1.167684633920618,-0.7070709910804944,-0.1064079105854034,0.06538711488246918,0.009064741432666779,0.001131892204284668,-0.007703185081481934,0.009451895952224731,XArbitraryZVertical,-0.4149991221930254,-0.4226770344099249,-0.02229463924678242,0.8053710931928988,-0.6993282437324524,0.6496097445487976,-0.2982397079467773,0,0,0,-1,-1,29005.72874525,unknown,2,2025-04-22T11:59:05.284+03:00,2025-04-21T17:08:51.449+03:00,7184,0.9570276,0,0,5997.434,5,20,2025-04-22T11:58:03.382+03:00,767005145.3888587,0,-20.29,100.4445,1,0.9,2025-04-22T11:59:05.251+03:00,94,1.566666666666667,2025-04-22T09:54:17.825+03:00,0.02225348692287972,0
2025-04-22T11:59:07.056+03:00,1745312342.454455,40.95222556299963,29.14028007482035,75.7154,-1,-1,-1,-1,30,17.58087778887199,-9999,29007.49572954167,-0.701141357421875,0.6331787109375,-0.298583984375,29007.48818954167,-0.5350317357245821,-1.167857016326679,-0.7076068634025733,-0.1274977475404739,0.07555960118770599,0.01181392185389996,0.0001305937767028809,-0.0168842077255249,0.007272243499755859,XArbitraryZVertical,-0.4154817833712093,-0.4223547767248012,-0.02266135023264855,0.8052811560614802,-0.6990594267845154,0.6500170230865479,-0.2979826629161835,0,0,0,-1,-1,29005.72874525,unknown,2,2025-04-22T11:59:05.284+03:00,2025-04-21T17:08:51.449+03:00,7184,0.9570276,0,0,5997.434,5,20,2025-04-22T11:58:03.382+03:00,767005145.3888587,0,-20.29,100.4445,1,0.9,2025-04-22T11:59:05.251+03:00,94,1.566666666666667,2025-04-22T09:54:17.825+03:00,0.02225348692287972,0
2025-04-22T11:59:07.074+03:00,1745312342.454455,40.95222556299963,29.14028007482035,75.7154,-1,-1,-1,-1,30,17.58087778887199,-9999,29007.50580454167,-0.70111083984375,0.640594482421875,-0.3026885986328125,29007.49826554167,-0.5365331627577331,-1.168050898773454,-0.7082007797125492,-0.131278783082962,0.07463321834802628,0.01229588780552149,-0.001998066902160645,-0.01980739831924438,0.001354783773422241,XArbitraryZVertical,-0.4160100461189689,-0.4220044891332599,-0.02305468376668193,0.805180815907511,-0.6987618207931519,0.6504682302474976,-0.2976956963539124,0,0,0,-1,-1,29005.72874525,unknown,2,2025-04-22T11:59:05.284+03:00,2025-04-21T17:08:51.449+03:00,7184,0.9570276,0,0,5997.434,5,20,2025-04-22T11:58:03.382+03:00,767005145.3888587,0,-20.29,100.4445,1,0.9,2025-04-22T11:59:05.251+03:00,94,1.566666666666667,2025-04-22T09:54:17.825+03:00,0.02225348692287972,0
2025-04-22T11:59:07.076+03:00,1745312342.454455,40.95222556299963,29.14028007482035,75.7154,-1,-1,-1,-1,30,17.58087778887199,-9999,29007.51588054167,-0.698486328125,0.646240234375,-0.3016815185546875,29007.50834054167,-0.5380079740413201,-1.168290015865459,-0.7087523854399551,-0.1217611655592918,0.06639153510332108,0.01089000515639782,-0.003081083297729492,-0.01198655366897583,-0.004308730363845825,XArbitraryZVertical,-0.4165179546017656,-0.4216856541176602,-0.02343990458382767,0.8050741345357196,-0.6985027194023132,0.650887131690979,-0.2973880171775818,0,0,0,-1,-1,29005.72874525,unknown,2,2025-04-22T11:59:05.284+03:00,2025-04-21T17:08:51.449+03:00,7184,0.9570276,0,0,5997.434,5,20,2025-04-22T11:58:03.382+03:00,767005145.3888587,0,-20.29,100.4445,1,0.9,2025-04-22T11:59:05.251+03:00,94,1.566666666666667,2025-04-22T09:54:17.825+03:00,0.02225348692287972,0
2025-04-22T11:59:07.086+03:00,1745312342.454455,40.95222556299963,29.14028007482035,75.7154,-1,-1,-1,-1,30,17.58087778887199,-9999,29007.52595554167,-0.6973419189453125,0.6512603759765625,-0.3001556396484375,29007.51841654167,-0.5393826998160068,-1.168503927296431,-0.7092761426088708,-0.1124243959784508,0.06895162910223007,0.01240534335374832,-0.001103460788726807,-0.00774538516998291,-0.004805237054824829,XArbitraryZVertical,-0.4169943509642414,-0.4213824507169736,-0.02379793885851482,0.8049757994250123,-0.6982525587081909,0.6512846350669861,-0.297105073928833,0,0,0,-1,-1,29005.72874525,unknown,2,2025-04-22T11:59:05.284+03:00,2025-04-21T17:08:51.449+03:00,7184,0.9570276,0,0,5997.434,5,20,2025-04-22T11:58:03.382+03:00,767005145.3888587,0,-20.29,100.4445,1,0.9,2025-04-22T11:59:05.251+03:00,94,1.566666666666667,2025-04-22T09:54:17.825+03:00,0.02225348692287972,0
2025-04-22T11:59:07.096+03:00,1745312342.454455,40.95222556299963,29.14028007482035,75.7154,-1,-1,-1,-1,30,17.58087778887199,-9999,29007.53603154167,-0.696807861328125,0.6506195068359375,-0.2959442138671875,29007.52849154167,-0.540685980739474,-1.168612903293903,-0.7097998927305198,-0.113872617483139,0.07883276045322418,0.01177417393773794,0.0005069971084594727,-0.001611948013305664,-0.004282534122467041,XArbitraryZVertical,-0.4174541553409791,-0.4210514329140089,-0.02414895575228883,0.8049002513155626,-0.697970986366272,0.6516820192337036,-0.296895444393158,0,0,0,-1,-1,29005.72874525,unknown,2,2025-04-22T11:59:05.284+03:00,2025-04-21T17:08:51.449+03:00,7184,0.9570276,0,0,5997.434,5,20,2025-04-22T11:58:03.382+03:00,767005145.3888587,0,-20.29,100.4445,1,0.9,2025-04-22T11:59:05.251+03:00,94,1.566666666666667,2025-04-22T09:54:17.825+03:00,0.02225348692287972,0
2025-04-22T11:59:07.106+03:00,1745312342.454455,40.95222556299963,29.14028007482035,75.7154,-1,-1,-1,-1,30,17.58087778887199,-9999,29007.54610654167,-0.692901611328125,0.647857666015625,-0.2931671142578125,29007.53856754167,-0.5420729739856559,-1.16872174558506,-0.7103528329309842,-0.1246154829859734,0.07821976393461227,0.008122081868350506,5.507469177246094e-05,-0.0006731748580932617,-0.001218914985656738,XArbitraryZVertical,-0.4179414924564787,-0.4206966636992368,-0.0245251909041832,0.8048215475228281,-0.69767165184021,0.6521012783050537,-0.2966784536838531,0,0,0,-1,-1,29005.72874525,unknown,2,2025-04-22T11:59:05.284+03:00,2025-04-21T17:08:51.449+03:00,7184,0.9570276,0,0,5997.434,5,20,2025-04-22T11:58:03.382+03:00,767005145.3888587,0,-20.29,100.4445,1,0.9,2025-04-22T11:59:05.251+03:00,94,1.566666666666667,2025-04-22T09:54:17.825+03:00,0.02225348692287972,0
2025-04-22T11:59:07.116+03:00,1745312342.454455,40.95222556299963,29.14028007482035,75.7154,-1,-1,-1,-1,30,17.58087778887199,-9999,29007.55618254167,-0.689849853515625,0.64617919921875,-0.294647216796875,29007.54864254167,-0.5436423914472284,-1.169010392638555,-0.7108970481065602,-0.1351767778396606,0.06986569613218307,0.00212384364567697,0.003094613552093506,-0.00309985876083374,0.002820193767547607,XArbitraryZVertical,-0.4184660291649014,-0.4203772824313635,-0.02493958078959098,0.8047031481744148,-0.6974305510520935,0.6525138020515442,-0.2963382601737976,0,0,0,-1,-1,29005.72874525,unknown,2,2025-04-22T11:59:05.284+03:00,2025-04-21T17:08:51.449+03:00,7184,0.9570276,0,0,5997.434,5,20,2025-04-22T11:58:03.382+03:00,767005145.3888587,0,-20.29,100.4445,1,0.9,2025-04-22T11:59:05.251+03:00,94,1.566666666666667,2025-04-22T09:54:17.825+03:00,0.02225348692287972,0
2025-04-22T11:59:07.126+03:00,1745312342.454455,40.95222556299963,29.14028007482035,75.7154,-1,-1,-1,-1,30,17.58087778887199,-9999,29007.56625754167,-0.688995361328125,0.648895263671875,-0.2954254150390625,29007.55871854167,-0.5454037705939276,-1.16953530627072,-0.7114198211358059,-0.1435783803462982,0.05779185146093369,-0.003460471983999014,0.006689608097076416,-0.005693137645721436,0.001969844102859497,XArbitraryZVertical,-0.4190260392203242,-0.4201163559886669,-0.02538764589332439,0.804533989917383,-0.6972719430923462,0.6529098749160767,-0.295838862657547,0,0,0,-1,-1,29005.72874525,unknown,2,2025-04-22T11:59:05.284+03:00,2025-04-21T17:08:51.449+03:00,7184,0.9570276,0,0,5997.434,5,20,2025-04-22T11:58:03.382+03:00,767005145.3888587,0,-20.29,100.4445,1,0.9,2025-04-22T11:59:05.251+03:00,94,1.566666666666667,2025-04-22T09:54:17.825+03:00,0.02225348692287972,0
2025-04-22T11:59:07.136+03:00,1745312342.454455,40.95222556299963,29.14028007482035,75.7154,-1,-1,-1,-1,30,17.58087778887199,-9999,29007.57633354167,-0.6955108642578125,0.64886474609375,-0.296630859375,29007.56879354167,-0.5472510591919558,-1.170211660700533,-0.7118806245481201,-0.1508080661296844,0.05390869826078415,-0.008019537664949894,0.008733391761779785,-0.006484568119049072,0.0002363622188568115,XArbitraryZVertical,-0.4195840807694493,-0.4199098569470754,-0.02585597696818975,0.8043360098380165,-0.6971947550773621,0.6532588005065918,-0.2952498197555542,0,0,0,-1,-1,29005.72874525,unknown,2,2025-04-22T11:59:05.284+03:00,2025-04-21T17:08:51.449+03:00,7184,0.9570276,0,0,5997.434,5,20,2025-04-22T11:58:03.382+03:00,767005145.3888587,0,-20.29,100.4445,1,0.9,2025-04-22T11:59:05.251+03:00,94,1.566666666666667,2025-04-22T09:54:17.825+03:00,0.02225348692287972,0
2025-04-22T11:59:07.146+03:00,1745312342.454455,40.95222556299963,29.14028007482035,75.7154,-1,-1,-1,-1,30,17.58087778887199,-9999,29007.58640854167,-0.70794677734375,0.64971923828125,-0.295654296875,29007.57886954167,-0.5491412185532464,-1.17086587451296,-0.7123172985112041,-0.1486168205738068,0.06495042890310287,-0.009759513661265373,0.004528403282165527,-0.004953622817993164,-0.001749992370605469,XArbitraryZVertical,-0.4201422338235802,-0.4196894732542797,-0.02635267275089103,0.804143447690969,-0.6971248388290405,0.6535893678665161,-0.294682502746582,0,0,0,-1,-1,29005.72874525,unknown,2,2025-04-22T11:59:05.284+03:00,2025-04-21T17:08:51.449+03:00,7184,0.9570276,0,0,5997.434,5,20,2025-04-22T11:58:03.382+03:00,767005145.3888587,0,-20.29,100.4445,1,0.9,2025-04-22T11:59:05.251+03:00,94,1.566666666666667,2025-04-22T09:54:17.825+03:00,0.02225348692287972,0
2025-04-22T11:59:07.156+03:00,1745312342.454455,40.95222556299963,29.14028007482035,75.7154,-1,-1,-1,-1,30,17.58087778887199,-9999,29007.59648454167,-0.7160797119140625,0.6513519287109375,-0.29388427734375,29007.58894454167,-0.5509580141439825,-1.171288264590458,-0.7127756966650729,-0.1460250318050385,0.08758516609668732,-0.005904854275286198,-0.005953490734100342,-0.004980087280273438,-0.00136759877204895,XArbitraryZVertical,-0.4206892711355173,-0.4193862460318878,-0.02686194244376658,0.803998752339914,-0.6969730854034424,0.6539362668991089,-0.2942714393138885,0,0,0,-1,-1,29005.72874525,unknown,2,2025-04-22T11:59:05.284+03:00,2025-04-21T17:08:51.449+03:00,7184,0.9570276,0,0,5997.434,5,20,2025-04-22T11:58:03.382+03:00,767005145.3888587,0,-20.29,100.4445,1,0.9,2025-04-22T11:59:05.251+03:00,94,1.566666666666667,2025-04-22T09:54:17.825+03:00,0.02225348692287972,0
2025-04-22T11:59:07.167+03:00,1745312342.454455,40.95222556299963,29.14028007482035,75.7154,-1,-1,-1,-1,30,17.58087778887199,-9999,29007.60655954167,-0.7135467529296875,0.6498260498046875,-0.2914886474609375,29007.59902054167,-0.5527658437932746,-1.171447369654937,-0.7132910963582999,-0.1498530507087708,0.1127469763159752,-0.0007104920805431902,-0.01804286241531372,-0.003493070602416992,-0.0003583431243896484,XArbitraryZVertical,-0.4212504070183224,-0.4189670194923503,-0.02740630713535778,0.8039051651540923,-0.6967093348503113,0.6543260812759399,-0.2940294742584229,0,0,0,-1,-1,29005.72874525,unknown,2,2025-04-22T11:59:05.284+03:00,2025-04-21T17:08:51.449+03:00,7184,0.9570276,0,0,5997.434,5,20,2025-04-22T11:58:03.382+03:00,767005145.3888587,0,-20.29,100.4445,1,0.9,2025-04-22T11:59:05.251+03:00,94,1.566666666666667,2025-04-22T09:54:17.825+03:00,0.02225348692287972,0
2025-04-22T11:59:07.177+03:00,1745312342.454455,40.95222556299963,29.14028007482035,75.7154,-1,-1,-1,-1,30,17.58087778887199,-9999,29007.61663554167,-0.704376220703125,0.656005859375,-0.290863037109375,29007.60909554167,-0.5545812812240912,-1.1713997305269,-0.7138847176494014,-0.1488016396760941,0.1278284639120102,0.005330356303602457,-0.01917773485183716,-0.004521667957305908,0.001598954200744629,XArbitraryZVertical,-0.4218370709988328,-0.4184467628009693,-0.02797456104905719,0.8038489770209952,-0.6963374018669128,0.6547748446464539,-0.2939115762710571,0,0,0,-1,-1,29005.72874525,unknown,2,2025-04-22T11:59:05.284+03:00,2025-04-21T17:08:51.449+03:00,7184,0.9570276,0,0,5997.434,5,20,2025-04-22T11:58:03.382+03:00,767005145.3888587,0,-20.29,100.4445,1,0.9,2025-04-22T11:59:05.251+03:00,94,1.566666666666667,2025-04-22T09:54:17.825+03:00,0.02225348692287972,0
2025-04-22T11:59:07.187+03:00,1745312342.454455,40.95222556299963,29.14028007482035,75.7154,-1,-1,-1,-1,30,17.58087778887199,-9999,29007.62671054167,-0.6910858154296875,0.6603240966796875,-0.2918701171875,29007.61917154167,-0.5563857702334011,-1.171299495142653,-0.714504826539474,-0.1491615772247314,0.1264259070158005,0.005961858201771975,-0.01204359531402588,-0.001663863658905029,0.002975612878799438,XArbitraryZVertical,-0.4224293583584173,-0.4179016165978898,-0.02854175044820875,0.8038015209764453,-0.6959336400032043,0.655243456363678,-0.2938233613967896,0,0,0,-1,-1,29005.72874525,unknown,2,2025-04-22T11:59:05.284+03:00,2025-04-21T17:08:51.449+03:00,7184,0.9570276,0,0,5997.434,5,20,2025-04-22T11:58:03.382+03:00,767005145.3888587,0,-20.29,100.4445,1,0.9,2025-04-22T11:59:05.251+03:00,94,1.566666666666667,2025-04-22T09:54:17.825+03:00,0.02225348692287972,0
2025-04-22T11:59:07.197+03:00,1745312342.454455,40.95222556299963,29.14028007482035,75.7154,-1,-1,-1,-1,30,17.58087778887199,-9999,29007.63678654167,-0.6821746826171875,0.6616058349609375,-0.2920684814453125,29007.62924654167,-0.558207312585702,-1.17126367464985,-0.7151213603725215,-0.1502643823623657,0.1144028007984161,0.0006424603052437305,-0.0009670853614807129,0.003180623054504395,0.002370297908782959,XArbitraryZVertical,-0.4230241876968331,-0.417378708873498,-0.02910319971390743,0.803740284698059,-0.6955508589744568,0.6557090282440186,-0.293691098690033,0,0,0,-1,-1,29005.72874525,unknown,2,2025-04-22T11:59:05.284+03:00,2025-04-21T17:08:51.449+03:00,7184,0.9570276,0,0,5997.434,5,20,2025-04-22T11:58:03.382+03:00,767005145.3888587,0,-20.29,100.4445,1,0.9,2025-04-22T11:59:05.251+03:00,94,1.566666666666667,2025-04-22T09:54:17.825+03:00,0.02225348692287972,0
2025-04-22T11:59:07.207+03:00,1745312342.454455,40.95222556299963,29.14028007482035,75.7154,-1,-1,-1,-1,30,17.58087778887199,-9999,29007.64686154167,-0.6816253662109375,0.66229248046875,-0.2953643798828125,29007.63932254167,-0.5600775570617987,-1.171414115900649,-0.7156609569177527,-0.1504258364439011,0.1001617461442947,-0.0109387282282114,0.01065284013748169,0.005428314208984375,0.001960217952728271,XArbitraryZVertical,-0.4236045151331453,-0.4169350100501855,-0.02966691121322011,0.8036442968389698,-0.695268988609314,0.6561163663864136,-0.2934488356113434,0,0,0,-1,-1,29005.72874525,unknown,2,2025-04-22T11:59:05.284+03:00,2025-04-21T17:08:51.449+03:00,7184,0.9570276,0,0,5997.434,5,20,2025-04-22T11:58:03.382+03:00,767005145.3888587,0,-20.29,100.4445,1,0.9,2025-04-22T11:59:05.251+03:00,94,1.566666666666667,2025-04-22T09:54:17.825+03:00,0.02225348692287972,0
2025-04-22T11:59:07.217+03:00,1745312342.454455,40.95222556299963,29.14028007482035,75.7154,-1,-1,-1,-1,30,17.58087778887199,-9999,29007.65693754167,-0.6898345947265625,0.662841796875,-0.2978057861328125,29007.64939754167,-0.561937692518847,-1.171655014536752,-0.7161045590550473,-0.1433692574501038,0.0949225127696991,-0.01251638494431973,0.0142548680305481,0.005246222019195557,-0.001082241535186768,XArbitraryZVertical,-0.4241501277426953,-0.4165483702136193,-0.03023500470422383,0.8035359427508204,-0.6950715184211731,0.6564510464668274,-0.2931682467460632,0,0,0,-1,-1,29005.72874525,unknown,2,2025-04-22T11:59:05.284+03:00,2025-04-21T17:08:51.449+03:00,7184,0.9570276,0,0,5997.434,5,20,2025-04-22T11:58:03.382+03:00,767005145.3888587,0,-20.29,100.4445,1,0.9,2025-04-22T11:59:05.251+03:00,94,1.566666666666667,2025-04-22T09:54:17.825+03:00,0.02225348692287972,0
2025-04-22T11:59:07.227+03:00,1745312342.454455,40.95222556299963,29.14028007482035,75.7154,-1,-1,-1,-1,30,17.58087778887199,-9999,29007.66701379167,-0.7044219970703125,0.6659698486328125,-0.30047607421875,29007.65947354167,-0.5636849463853213,-1.171772825283233,-0.7165069221661443,-0.1304418742656708,0.1097303479909897,-0.01109166070818901,0.009849667549133301,0.005034208297729492,-0.00393715500831604,XArbitraryZVertical,-0.4246557055766296,-0.416143862918013,-0.03079550822808399,0.8034570749486381,-0.694862425327301,0.6567545533180237,-0.2929836213588715,0,0,0,-1,-1,29005.72874525,unknown,2,2025-04-22T11:59:05.284+03:00,2025-04-21T17:08:51.449+03:00,7184,0.9570276,0,0,5997.434,5,20,2025-04-22T11:58:03.382+03:00,767005145.3888587,0,-20.29,100.4445,1,0.9,2025-04-22T11:59:05.251+03:00,94,1.566666666666667,2025-04-22T09:54:17.825+03:00,0.02225348692287972,0
2025-04-22T11:59:07.237+03:00,1745312342.454455,40.95222556299963,29.14028007482035,75.7154,-1,-1,-1,-1,30,17.58087778887199,-9999,29007.67708879167,-0.7102203369140625,0.66644287109375,-0.297943115234375,29007.66954979167,-0.5652846910615875,-1.171617027582798,-0.7168910060107202,-0.1227048560976982,0.1300888806581497,-0.005493163131177425,-0.005549848079681396,0.007415056228637695,-0.007039695978164673,XArbitraryZVertical,-0.4251194628247632,-0.4156639239245691,-0.03136017088900341,0.8034385303441336,-0.6945844888687134,0.6570441126823425,-0.2929939031600952,0,0,0,-1,-1,29005.72874525,unknown,2,2025-04-22T11:59:05.284+03:00,2025-04-21T17:08:51.449+03:00,7184,0.9570276,0,0,5997.434,5,20,2025-04-22T11:58:03.382+03:00,767005145.3888587,0,-20.29,100.4445,1,0.9,2025-04-22T11:59:05.251+03:00,94,1.566666666666667,2025-04-22T09:54:17.825+03:00,0.02225348692287972,0
2025-04-22T11:59:07.247+03:00,1745312342.454455,40.95222556299963,29.14028007482035,75.7154,-1,-1,-1,-1,30,17.58087778887199,-9999,29007.68716479167,-0.7041168212890625,0.6626129150390625,-0.294708251953125,29007.67962479167,-0.5668309108335943,-1.171318245833072,-0.7172469349456112,-0.1199251860380173,0.1347024142742157,-0.007359173614531755,-0.01485556364059448,0.01004588603973389,-0.006343305110931396,XArbitraryZVertical,-0.4255595875242775,-0.41514313295265,-0.03194187454072006,0.803451884804731,-0.6942813992500305,0.6573123931884766,-0.2931104302406311,0,0,0,-1,-1,29005.72874525,unknown,2,2025-04-22T11:59:05.284+03:00,2025-04-21T17:08:51.449+03:00,7184,0.9570276,0,0,5997.434,5,20,2025-04-22T11:58:03.382+03:00,767005145.3888587,0,-20.29,100.4445,1,0.9,2025-04-22T11:59:05.251+03:00,94,1.566666666666667,2025-04-22T09:54:17.825+03:00,0.02225348692287972,0
2025-04-22T11:59:07.257+03:00,1745312342.454455,40.95222556299963,29.14028007482035,75.7154,-1,-1,-1,-1,30,17.58087778887199,-9999,29007.69723979167,-0.6939697265625,0.6572723388671875,-0.2923431396484375,29007.68970079167,-0.5684279272456428,-1.171081367809775,-0.7176202872520392,-0.1313674598932266,0.1270713955163956,-0.005477117840200663,-0.01347267627716064,0.006956934928894043,-0.002215564250946045,XArbitraryZVertical,-0.4260167707754938,-0.4146324122380288,-0.03252581937965631,0.8034498754327223,-0.6939858198165894,0.6575937271118164,-0.2931793332099915,0,0,0,-1,-1,29005.72874525,unknown,2,2025-04-22T11:59:05.284+03:00,2025-04-21T17:08:51.449+03:00,7184,0.9570276,0,0,5997.434,5,20,2025-04-22T11:58:03.382+03:00,767005145.3888587,0,-20.29,100.4445,1,0.9,2025-04-22T11:59:05.251+03:00,94,1.566666666666667,2025-04-22T09:54:17.825+03:00,0.02225348692287972,0
2025-04-22T11:59:07.267+03:00,1745312342.454455,40.95222556299963,29.14028007482035,75.7154,-1,-1,-1,-1,30,17.58087778887199,-9999,29007.70731579167,-0.686767578125,0.650970458984375,-0.2890472412109375,29007.69977579167,-0.5701731084619517,-1.171011557174693,-0.7180546425874986,-0.1423474699258804,0.1167531758546829,-0.006455463357269764,-0.004311203956604004,0.0009382367134094238,0.0009717941284179688,XArbitraryZVertical,-0.4265280380559349,-0.4141443526307753,-0.03311604584350278,0.8034062006948743,-0.6937021017074585,0.6579208970069885,-0.293116569519043,0,0,0,-1,-1,29005.72874525,unknown,2,2025-04-22T11:59:05.284+03:00,2025-04-21T17:08:51.449+03:00,7184,0.9570276,0,0,5997.434,5,20,2025-04-22T11:58:03.382+03:00,767005145.3888587,0,-20.29,100.4445,1,0.9,2025-04-22T11:59:05.251+03:00,94,1.566666666666667,2025-04-22T09:54:17.825+03:00,0.02225348692287972,0
2025-04-22T11:59:07.277+03:00,1745312342.454455,40.95222556299963,29.14028007482035,75.7154,-1,-1,-1,-1,30,17.58087778887199,-9999,29007.71739079167,-0.6865081787109375,0.6489410400390625,-0.2872314453125,29007.70985179167,-0.572057716941599,-1.17110639853734,-0.7185573415135923,-0.1571668982505798,0.1118100807070732,-0.008342579007148743,0.005055427551269531,-0.004719853401184082,0.002089530229568481,XArbitraryZVertical,-0.4270940766516295,-0.4136781723279229,-0.03370729732285557,0.8033210609437744,-0.693425178527832,0.6582993865013123,-0.2929220497608185,0,0,0,-1,-1,29005.72874525,unknown,2,2025-04-22T11:59:05.284+03:00,2025-04-21T17:08:51.449+03:00,7184,0.9570276,0,0,5997.434,5,20,2025-04-22T11:58:03.382+03:00,767005145.3888587,0,-20.29,100.4445,1,0.9,2025-04-22T11:59:05.251+03:00,94,1.566666666666667,2025-04-22T09:54:17.825+03:00,0.02225348692287972,0
2025-04-22T11:59:07.287+03:00,1745312342.454455,40.95222556299963,29.14028007482035,75.7154,-1,-1,-1,-1,30,17.58087778887199,-9999,29007.72746679167,-0.69268798828125,0.6461029052734375,-0.2863311767578125,29007.71992679167,-0.5741026611516369,-1.171304248695866,-0.7191486731348751,-0.1672433018684387,0.1180817559361458,-0.006170005537569523,0.00696718692779541,-0.009895026683807373,0.005127310752868652,XArbitraryZVertical,-0.4277251566207328,-0.4132002973696043,-0.03431511875727982,0.8032055451978917,-0.6931244134902954,0.6587443947792053,-0.2926334142684937,0,0,0,-1,-1,29005.72874525,unknown,2,2025-04-22T11:59:05.284+03:00,2025-04-21T17:08:51.449+03:00,7184,0.9570276,0,0,5997.434,5,20,2025-04-22T11:58:03.382+03:00,767005145.3888587,0,-20.29,100.4445,1,0.9,2025-04-22T11:59:05.251+03:00,94,1.566666666666667,2025-04-22T09:54:17.825+03:00,0.02225348692287972,0
2025-04-22T11:59:07.298+03:00,1745312342.454455,40.95222556299963,29.14028007482035,75.7154,-1,-1,-1,-1,30,17.58087778887199,-9999,29007.73754179167,-0.69927978515625,0.6468048095703125,-0.2867584228515625,29007.73000279167,-0.5762584415909364,-1.171458736773726,-0.7198440181072433,-0.1801801323890686,0.1301163136959076,0.001931863138452172,0.003568947315216064,-0.01240164041519165,0.005955934524536133,XArbitraryZVertical,-0.4284137733252502,-0.4126591286318811,-0.03494633647428131,0.8030895459377524,-0.6927474737167358,0.6592674255371094,-0.292348176240921,0,0,0,-1,-1,29005.72874525,unknown,2,2025-04-22T11:59:05.284+03:00,2025-04-21T17:08:51.449+03:00,7184,0.9570276,0,0,5997.434,5,20,2025-04-22T11:58:03.382+03:00,767005145.3888587,0,-20.29,100.4445,1,0.9,2025-04-22T11:59:05.251+03:00,94,1.566666666666667,2025-04-22T09:54:17.825+03:00,0.02225348692287972,0
2025-04-22T11:59:07.308+03:00,1745312342.454455,40.95222556299963,29.14028007482035,75.7154,-1,-1,-1,-1,30,17.58087778887199,-9999,29007.74761779167,-0.6972808837890625,0.6507720947265625,-0.288726806640625,29007.74007779167,-0.5784900062851224,-1.171501565802616,-0.7206340808123093,-0.1865156590938568,0.145212322473526,0.007232419215142727,-0.005016326904296875,-0.01406359672546387,0.005845725536346436,XArbitraryZVertical,-0.4291480399312313,-0.4120364229587167,-0.03560422143512281,0.8029883081448127,-0.6922798156738281,0.6598612666130066,-0.2921158969402313,0,0,0,-1,-1,29005.72874525,unknown,2,2025-04-22T11:59:05.284+03:00,2025-04-21T17:08:51.449+03:00,7184,0.9570276,0,0,5997.434,5,20,2025-04-22T11:58:03.382+03:00,767005145.3888587,0,-20.29,100.4445,1,0.9,2025-04-22T11:59:05.251+03:00,94,1.566666666666667,2025-04-22T09:54:17.825+03:00,0.02225348692287972,0
2025-04-22T11:59:07.318+03:00,1745312342.454455,40.95222556299963,29.14028007482035,75.7154,-1,-1,-1,-1,30,17.58087778887199,-9999,29007.75769279167,-0.689422607421875,0.6508636474609375,-0.2881622314453125,29007.75015379167,-0.5807429085662549,-1.171538517703661,-0.7214198139781217,-0.1882150173187256,0.1392071545124054,0.005733858328312635,-0.008230090141296387,-0.01042717695236206,0.003543287515640259,XArbitraryZVertical,-0.4298841820017435,-0.4114064638149463,-0.03627297014305601,0.8028875321969845,-0.6918125748634338,0.6604514122009277,-0.2918886244297028,0,0,0,-1,-1,29005.72874525,unknown,2,2025-04-22T11:59:05.284+03:00,2025-04-21T17:08:51.449+03:00,7184,0.9570276,0,0,5997.434,5,20,2025-04-22T11:58:03.382+03:00,767005145.3888587,0,-20.29,100.4445,1,0.9,2025-04-22T11:59:05.251+03:00,94,1.566666666666667,2025-04-22T09:54:17.825+03:00,0.02225348692287972,0
2025-04-22T11:59:07.328+03:00,1745312342.454455,40.95222556299963,29.14028007482035,75.7154,-1,-1,-1,-1,30,17.58087778887199,-9999,29007.76776879167,-0.6844635009765625,0.6514739990234375,-0.2882080078125,29007.76022879167,-0.5831209932252687,-1.171753381028837,-0.7221686857182993,-0.2010444104671478,0.1322628259658813,-0.0009254423785023391,-0.001726269721984863,-0.01076036691665649,0.003812789916992188,XArbitraryZVertical,-0.4306355758075016,-0.4108273526534725,-0.03696421836380422,0.8027499505628204,-0.6914194822311401,0.6610135436058044,-0.2915477752685547,0,0,0,-1,-1,29005.72874525,unknown,2,2025-04-22T11:59:05.284+03:00,2025-04-21T17:08:51.449+03:00,7184,0.9570276,0,0,5997.434,5,20,2025-04-22T11:58:03.382+03:00,767005145.3888587,0,-20.29,100.4445,1,0.9,2025-04-22T11:59:05.251+03:00,94,1.566666666666667,2025-04-22T09:54:17.825+03:00,0.02225348692287972,0
2025-04-22T11:59:07.338+03:00,1745312342.454455,40.95222556299963,29.14028007482035,75.7154,-1,-1,-1,-1,30,17.58087778887199,-9999,29007.77784379167,-0.6850738525390625,0.651519775390625,-0.288330078125,29007.77030479167,-0.5856928216151585,-1.172085376043951,-0.7229374936005712,-0.2094900906085968,0.1417567282915115,9.614619193598628e-05,0.00485992431640625,-0.009765386581420898,0.002363502979278564,XArbitraryZVertical,-0.4314349505323211,-0.4102480601260247,-0.03770179091272305,0.8025826613720409,-0.691047728061676,0.6615902781486511,-0.2911208271980286,0,0,0,-1,-1,29005.72874525,unknown,2,2025-04-22T11:59:05.284+03:00,2025-04-21T17:08:51.449+03:00,7184,0.9570276,0,0,5997.434,5,20,2025-04-22T11:58:03.382+03:00,767005145.3888587,0,-20.29,100.4445,1,0.9,2025-04-22T11:59:05.251+03:00,94,1.566666666666667,2025-04-22T09:54:17.825+03:00,0.02225348692287972,0
2025-04-22T11:59:07.348+03:00,1745312342.454455,40.95222556299963,29.14028007482035,75.7154,-1,-1,-1,-1,30,17.58087778887199,-9999,29007.78791979167,-0.6836090087890625,0.660614013671875,-0.2926788330078125,29007.78037979167,-0.5882834272585029,-1.172366433580776,-0.7237380714097437,-0.2095708400011063,0.1445164978504181,-0.0002769959974102676,0.005780875682830811,-0.01170831918716431,0.002986013889312744,XArbitraryZVertical,-0.4322472008862292,-0.4096362436225851,-0.03844822421088772,0.8024227027281093,-0.6906411051750183,0.6621903777122498,-0.2907209992408752,0,0,0,-1,-1,29005.72874525,unknown,2,2025-04-22T11:59:05.284+03:00,2025-04-21T17:08:51.449+03:00,7184,0.9570276,0,0,5997.434,5,20,2025-04-22T11:58:03.382+03:00,767005145.3888587,0,-20.29,100.4445,1,0.9,2025-04-22T11:59:05.251+03:00,94,1.566666666666667,2025-04-22T09:54:17.825+03:00,0.02225348692287972,0
2025-04-22T11:59:07.358+03:00,1745312342.454455,40.95222556299963,29.14028007482035,75.7154,-1,-1,-1,-1,30,17.58087778887199,-9999,29007.79799479167,-0.68353271484375,0.6659393310546875,-0.2928009033203125,29007.79045579167,-0.5908180671588766,-1.172569867686293,-0.724519196165529,-0.2016327679157257,0.1472904533147812,-0.001028540078550577,0.005393505096435547,-0.006327271461486816,-0.0001627504825592041,XArbitraryZVertical,-0.4330388123196032,-0.4090079283941276,-0.03919420660102396,0.8022802429736994,-0.6902231574058533,0.662775456905365,-0.2903797924518585,0,0,0,-1,-1,29005.72874525,unknown,2,2025-04-22T11:59:05.284+03:00,2025-04-21T17:08:51.449+03:00,7184,0.9570276,0,0,5997.434,5,20,2025-04-22T11:58:03.382+03:00,767005145.3888587,0,-20.29,100.4445,1,0.9,2025-04-22T11:59:05.251+03:00,94,1.566666666666667,2025-04-22T09:54:17.825+03:00,0.02225348692287972,0
2025-04-22T11:59:07.368+03:00,1745312342.454455,40.95222556299963,29.14028007482035,75.7154,-1,-1,-1,-1,30,17.58087778887199,-9999,29007.80807079167,-0.6859893798828125,0.66119384765625,-0.2900238037109375,29007.80053079167,-0.5933020329562064,-1.172700488552647,-0.7252518118522975,-0.1949379146099091,0.1526198834180832,-0.002263747621327639,0.006295979022979736,0.00205075740814209,-0.003767609596252441,XArbitraryZVertical,-0.4338008742679844,-0.4083700635995446,-0.03994944997090634,0.8021563150235155,-0.6898134350776672,0.6633238792419434,-0.2901013791561127,0,0,0,-1,-1,29005.72874525,unknown,2,2025-04-22T11:59:05.284+03:00,2025-04-21T17:08:51.449+03:00,7184,0.9570276,0,0,5997.434,5,20,2025-04-22T11:58:03.382+03:00,767005145.3888587,0,-20.29,100.4445,1,0.9,2025-04-22T11:59:05.251+03:00,94,1.566666666666667,2025-04-22T09:54:17.825+03:00,0.02225348692287972,0
2025-04-22T11:59:07.378+03:00,1745312342.454455,40.95222556299963,29.14028007482035,75.7154,-1,-1,-1,-1,30,17.58087778887199,-9999,29007.81814579167,-0.6905059814453125,0.6556854248046875,-0.28875732421875,29007.81060679167,-0.5957490452189269,-1.172770442391334,-0.7259409578980662,-0.2006221562623978,0.158612534403801,-0.006210552528500557,0.003743112087249756,0.0001313090324401855,-0.002040117979049683,XArbitraryZVertical,-0.4345383379008496,-0.4077236027251183,-0.04071531219725262,0.8020473479384003,-0.689411997795105,0.6638394594192505,-0.2898758053779602,0,0,0,-1,-1,29005.72874525,unknown,2,2025-04-22T11:59:05.284+03:00,2025-04-21T17:08:51.449+03:00,7184,0.9570276,0,0,5997.434,5,20,2025-04-22T11:58:03.382+03:00,767005145.3888587,0,-20.29,100.4445,1,0.9,2025-04-22T11:59:05.251+03:00,94,1.566666666666667,2025-04-22T09:54:17.825+03:00,0.02225348692287972,0
2025-04-22T11:59:07.388+03:00,1745312342.454455,40.95222556299963,29.14028007482035,75.7154,-1,-1,-1,-1,30,17.58087778887199,-9999,29007.82822179167,-0.6953887939453125,0.6486663818359375,-0.2859649658203125,29007.82068179167,-0.5983957061154419,-1.172907119451369,-0.7266279404858513,-0.2158995866775513,0.1642680913209915,-0.01054388098418713,0.0003409981727600098,-0.00611954927444458,0.0009238123893737793,XArbitraryZVertical,-0.4353159702771043,-0.4070596727953052,-0.04154720767986518,0.8019203396138529,-0.689031183719635,0.66435307264328,-0.2896048724651337,0,0,0,-1,-1,29005.72874525,unknown,2,2025-04-22T11:59:05.284+03:00,2025-04-21T17:08:51.449+03:00,7184,0.9570276,0,0,5997.434,5,20,2025-04-22T11:58:03.382+03:00,767005145.3888587,0,-20.29,100.4445,1,0.9,2025-04-22T11:59:05.251+03:00,94,1.566666666666667,2025-04-22T09:54:17.825+03:00,0.02225348692287972,0
2025-04-22T11:59:07.398+03:00,1745312342.454455,40.95222556299963,29.14028007482035,75.7154,-1,-1,-1,-1,30,17.58087778887199,-9999,29007.83829679167,-0.70556640625,0.64459228515625,-0.2861328125,29007.83075779167,-0.6012012487910557,-1.173116836524982,-0.7273102085120121,-0.2263548970222473,0.1690758913755417,-0.01398122310638428,-0.004151463508605957,-0.013175368309021,0.002648353576660156,XArbitraryZVertical,-0.4361247904609046,-0.4063899552944376,-0.04242789599294289,0.8017744210739113,-0.6886738538742065,0.6648628711700439,-0.289284735918045,0,0,0,-1,-1,29005.72874525,unknown,2,2025-04-22T11:59:05.284+03:00,2025-04-21T17:08:51.449+03:00,7184,0.9570276,0,0,5997.434,5,20,2025-04-22T11:58:03.382+03:00,767005145.3888587,0,-20.29,100.4445,1,0.9,2025-04-22T11:59:05.251+03:00,94,1.566666666666667,2025-04-22T09:54:17.825+03:00,0.02225348692287972,0
2025-04-22T11:59:07.408+03:00,1745312342.454455,40.95222556299963,29.14028007482035,75.7154,-1,-1,-1,-1,30,17.58087778887199,-9999,29007.84837279167,-0.721771240234375,0.6434783935546875,-0.2894744873046875,29007.84083279167,-0.6042011737723459,-1.173281753133821,-0.7280436694188414,-0.2441200315952301,0.1989831924438477,-0.0135967954993248,-0.01242715120315552,-0.02090990543365479,0.003597170114517212,XArbitraryZVertical,-0.4369884520104453,-0.4056475445429956,-0.04338101526491622,0.8016291434608914,-0.6882718205451965,0.665410578250885,-0.2889823317527771,0,0,0,-1,-1,29005.72874525,unknown,2,2025-04-22T11:59:05.284+03:00,2025-04-21T17:08:51.449+03:00,7184,0.9570276,0,0,5997.434,5,20,2025-04-22T11:58:03.382+03:00,767005145.3888587,0,-20.29,100.4445,1,0.9,2025-04-22T11:59:05.251+03:00,94,1.566666666666667,2025-04-22T09:54:17.825+03:00,0.02225348692287972,0
2025-04-22T11:59:07.418+03:00,1745312342.454455,40.95222556299963,29.14028007482035,75.7154,-1,-1,-1,-1,30,17.58087778887199,-9999,29007.85844779167,-0.7324676513671875,0.6418609619140625,-0.29034423828125,29007.85090879167,-0.6073301696318558,-1.173143467641234,-0.7289216719470827,-0.2538938224315643,0.2405266463756561,-0.003016856033354998,-0.02756285667419434,-0.02135145664215088,0.0002464056015014648,XArbitraryZVertical,-0.4379195862919771,-0.404723199275647,-0.0444097550309428,0.8015318830524351,-0.6876928806304932,0.6660656929016113,-0.2888511419296265,0,0,0,-1,-1,29005.72874525,unknown,2,2025-04-22T11:59:05.284+03:00,2025-04-21T17:08:51.449+03:00,7184,0.9570276,0,0,5997.434,5,20,2025-04-22T11:58:03.382+03:00,767005145.3888587,0,-20.29,100.4445,1,0.9,2025-04-22T11:59:05.251+03:00,94,1.566666666666667,2025-04-22T09:54:17.825+03:00,0.02225348692287972,0
2025-04-22T11:59:07.429+03:00,1745312342.454455,40.95222556299963,29.14028007482035,75.7154,-1,-1,-1,-1,30,17.58087778887199,-9999,29007.86852379167,-0.73211669921875,0.6461639404296875,-0.289703369140625,29007.86098379167,-0.6104859638112422,-1.17271695694735,-0.7298172071213442,-0.251834899187088,0.2620551884174347,-0.006665620021522045,-0.04354089498519897,-0.02441483736038208,-0.00167536735534668,XArbitraryZVertical,-0.4388537135413988,-0.4036717738844602,-0.04550718366331494,0.8014895632534803,-0.687019407749176,0.6667333841323853,-0.2889130413532257,0,0,0,-1,-1,29005.72874525,unknown,2,2025-04-22T11:59:05.284+03:00,2025-04-21T17:08:51.449+03:00,7184,0.9570276,0,0,5997.434,5,20,2025-04-22T11:58:03.382+03:00,767005145.3888587,0,-20.29,100.4445,1,0.9,2025-04-22T11:59:05.251+03:00,94,1.566666666666667,2025-04-22T09:54:17.825+03:00,0.02225348692287972,0
2025-04-22T11:59:07.439+03:00,1745312342.454455,40.95222556299963,29.14028007482035,75.7154,-1,-1,-1,-1,30,17.58087778887199,-9999,29007.87859879167,-0.7242279052734375,0.6458740234375,-0.289825439453125,29007.87105979167,-0.6137190233732007,-1.172206019918122,-0.7306814905112234,-0.2575191557407379,0.2694582343101501,-0.01858965680003166,-0.04716485738754272,-0.02254098653793335,-0.0007546544075012207,XArbitraryZVertical,-0.4397885024453041,-0.4025741379502248,-0.04666337290679656,0.801462793724554,-0.6863403916358948,0.6673772931098938,-0.2890402674674988,0,0,0,-1,-1,29005.72874525,unknown,2,2025-04-22T11:59:05.284+03:00,2025-04-21T17:08:51.449+03:00,7184,0.9570276,0,0,5997.434,5,20,2025-04-22T11:58:03.382+03:00,767005145.3888587,0,-20.29,100.4445,1,0.9,2025-04-22T11:59:05.251+03:00,94,1.566666666666667,2025-04-22T09:54:17.825+03:00,0.02225348692287972,0
2025-04-22T11:59:07.449+03:00,1745312342.454455,40.95222556299963,29.14028007482035,75.7154,-1,-1,-1,-1,30,17.58087778887199,-9999,29007.88867479167,-0.724456787109375,0.6409759521484375,-0.289306640625,29007.88113479167,-0.6171394573516213,-1.171726059633404,-0.731494933659411,-0.2659997045993805,0.2823207676410675,-0.02779846824705601,-0.04139542579650879,-0.02088832855224609,-0.0005447566509246826,XArbitraryZVertical,-0.4407419738937929,-0.4014563719099674,-0.04790276602164267,0.8014265248870156,-0.6857010722160339,0.6679828763008118,-0.2891585826873779,0,0,0,-1,-1,29005.72874525,unknown,2,2025-04-22T11:59:05.284+03:00,2025-04-21T17:08:51.449+03:00,7184,0.9570276,0,0,5997.434,5,20,2025-04-22T11:58:03.382+03:00,767005145.3888587,0,-20.29,100.4445,1,0.9,2025-04-22T11:59:05.251+03:00,94,1.566666666666667,2025-04-22T09:54:17.825+03:00,0.02225348692287972,0
2025-04-22T11:59:07.459+03:00,1745312342.454455,40.95222556299963,29.14028007482035,75.7154,-1,-1,-1,-1,30,17.58087778887199,-9999,29007.89874979167,-0.7283935546875,0.6436920166015625,-0.2918853759765625,29007.89121079167,-0.6206333655375545,-1.171186036665409,-0.7322366593879163,-0.2673291563987732,0.2886193990707397,-0.03850144892930984,-0.03808677196502686,-0.02664333581924438,-4.690885543823242e-05,XArbitraryZVertical,-0.441681708330564,-0.4003114517756571,-0.04920592515830959,0.8014029607760325,-0.6850882768630981,0.6685346961021423,-0.2893360257148743,0,0,0,-1,-1,29005.72874525,unknown,2,2025-04-22T11:59:05.284+03:00,2025-04-21T17:08:51.449+03:00,7184,0.9570276,0,0,5997.434,5,20,2025-04-22T11:58:03.382+03:00,767005145.3888587,0,-20.29,100.4445,1,0.9,2025-04-22T11:59:05.251+03:00,94,1.566666666666667,2025-04-22T09:54:17.825+03:00,0.02225348692287972,0
2025-04-22T11:59:07.469+03:00,1745312342.454455,40.95222556299963,29.14028007482035,75.7154,-1,-1,-1,-1,30,17.58087778887199,-9999,29007.90882579167,-0.7346954345703125,0.6473236083984375,-0.2983245849609375,29007.90128579167,-0.6241165735187486,-1.170581413873164,-0.7328399933765601,-0.2560018002986908,0.2811256647109985,-0.04234032705426216,-0.04186826944351196,-0.0272444486618042,-0.0005681514739990234,XArbitraryZVertical,-0.4425680111005811,-0.3991704644427403,-0.05055958313976101,0.8013988810355199,-0.684541642665863,0.6689832210540771,-0.289592981338501,0,0,0,-1,-1,29005.72874525,unknown,2,2025-04-22T11:59:05.284+03:00,2025-04-21T17:08:51.449+03:00,7184,0.9570276,0,0,5997.434,5,20,2025-04-22T11:58:03.382+03:00,767005145.3888587,0,-20.29,100.4445,1,0.9,2025-04-22T11:59:05.251+03:00,94,1.566666666666667,2025-04-22T09:54:17.825+03:00,0.02225348692287972,0
2025-04-22T11:59:07.479+03:00,1745312342.454455,40.95222556299963,29.14028007482035,75.7154,-1,-1,-1,-1,30,17.58087778887199,-9999,29007.91890179167,-0.743927001953125,0.647735595703125,-0.299652099609375,29007.91136179167,-0.6278309944774114,-1.170057213952899,-0.7333671814894763,-0.2937835454940796,0.2993185222148895,-0.08073405176401138,-0.04826539754867554,-0.02394360303878784,-0.006511449813842773,XArbitraryZVertical,-0.4434739378132379,-0.398024834361875,-0.05201049680292887,0.8013750813864056,-0.6840649843215942,0.6693750023841858,-0.2898142039775848,0,0,0,-1,-1,29005.72874525,unknown,2,2025-04-22T11:59:05.284+03:00,2025-04-21T17:08:51.449+03:00,7184,0.9570276,0,0,5997.434,5,20,2025-04-22T11:58:03.382+03:00,767005145.3888587,0,-20.29,100.4445,1,0.9,2025-04-22T11:59:05.251+03:00,94,1.566666666666667,2025-04-22T09:54:17.825+03:00,0.02225348692287972,0
2025-04-22T11:59:07.489+03:00,1745312342.454455,40.95222556299963,29.14028007482035,75.7154,-1,-1,-1,-1,30,17.58087778887199,-9999,29007.92897679167,-0.7601776123046875,0.629638671875,-0.2922821044921875,29007.92143779167,-0.6323996619135466,-1.170183473491499,-0.7337682390063881,-0.3659198582172394,0.2756171226501465,-0.1065540984272957,-0.05630391836166382,-0.02006059885025024,-0.01121920347213745,XArbitraryZVertical,-0.4445214046401413,-0.3969750538621455,-0.05369598206872685,0.8012041853062141,-0.6838541626930237,0.6696729063987732,-0.2896230518817902,0,0,0,-1,-1,29005.72874525,unknown,2,2025-04-22T11:59:05.284+03:00,2025-04-21T17:08:51.449+03:00,7184,0.9570276,0,0,5997.434,5,20,2025-04-22T11:58:03.382+03:00,767005145.3888587,0,-20.29,100.4445,1,0.9,2025-04-22T11:59:05.251+03:00,94,1.566666666666667,2025-04-22T09:54:17.825+03:00,0.02225348692287972,0
2025-04-22T11:59:07.499+03:00,1745312342.454455,40.95222556299963,29.14028007482035,75.7154,-1,-1,-1,-1,30,17.58087778887199,-9999,29007.93905279167,-0.7859649658203125,0.6230010986328125,-0.2825927734375,29007.93151279167,-0.6381643499886376,-1.171265717805358,-0.734328386994234,-0.4562534689903259,0.282864898443222,-0.1314152479171753,-0.06936752796173096,-0.03304976224899292,-0.006658107042312622,XArbitraryZVertical,-0.4458834567267084,-0.3960044602061441,-0.05560045679904402,0.8007976392090878,-0.6838214993476868,0.6700887680053711,-0.2887368202209473,0,0,0,-1,-1,29005.72874525,unknown,2,2025-04-22T11:59:05.284+03:00,2025-04-21T17:08:51.449+03:00,7184,0.9570276,0,0,5997.434,5,20,2025-04-22T11:58:03.382+03:00,767005145.3888587,0,-20.29,100.4445,1,0.9,2025-04-22T11:59:05.251+03:00,94,1.566666666666667,2025-04-22T09:54:17.825+03:00,0.02225348692287972,0
2025-04-22T11:59:07.509+03:00,1745312342.454455,40.95222556299963,29.14028007482035,75.7154,-1,-1,-1,-1,30,17.58087778887199,-9999,29007.94912779167,-0.8253631591796875,0.6145477294921875,-0.274932861328125,29007.94158879167,-0.645273036777075,-1.173090008283403,-0.7349689765000216,-0.5673044919967651,0.3046505153179169,-0.1515903472900391,-0.09040176868438721,-0.04562526941299438,0.001708567142486572,XArbitraryZVertical,-0.4475572133096585,-0.3950079206893033,-0.05785111957365448,0.8001965120132464,-0.6839513182640076,0.6705641150474548,-0.2873225808143616,0,0,0,-1,-1,29005.72874525,unknown,2,2025-04-22T11:59:05.284+03:00,2025-04-21T17:08:51.449+03:00,7184,0.9570276,0,0,5997.434,5,20,2025-04-22T11:58:03.382+03:00,767005145.3888587,0,-20.29,100.4445,1,0.9,2025-04-22T11:59:05.251+03:00,94,1.566666666666667,2025-04-22T09:54:17.825+03:00,0.02225348692287972,0
2025-04-22T11:59:07.519+03:00,1745312342.454455,40.95222556299963,29.14028007482035,75.7154,-1,-1,-1,-1,30,17.58087778887199,-9999,29007.95920379167,-0.8615875244140625,0.60357666015625,-0.25799560546875,29007.95166379167,-0.6540128250792225,-1.175555033228244,-0.7359289029107657,-0.7013754844665527,0.3588865995407104,-0.1649556905031204,-0.1255682706832886,-0.05237966775894165,0.005968779325485229,XArbitraryZVertical,-0.4496765975701263,-0.3938236776942403,-0.06051220883778326,0.7993947651689969,-0.6840630173683167,0.6712759733200073,-0.2853877246379852,0,0,0,-1,-1,29005.72874525,unknown,2,2025-04-22T11:59:05.284+03:00,2025-04-21T17:08:51.449+03:00,7184,0.9570276,0,0,5997.434,5,20,2025-04-22T11:58:03.382+03:00,767005145.3888587,0,-20.29,100.4445,1,0.9,2025-04-22T11:59:05.251+03:00,94,1.566666666666667,2025-04-22T09:54:17.825+03:00,0.02225348692287972,0
2025-04-22T11:59:07.529+03:00,1745312342.454455,40.95222556299963,29.14028007482035,75.7154,-1,-1,-1,-1,30,17.58087778887199,-9999,29007.96927879167,-0.87530517578125,0.5944061279296875,-0.25665283203125,29007.96173979167,-0.6647523768215023,-1.178592782830348,-0.7375105744104719,-0.8644855618476868,0.4687848687171936,-0.1523163318634033,-0.1656187176704407,-0.0639728307723999,0.01912355422973633,XArbitraryZVertical,-0.4524108774260169,-0.3922668368477426,-0.06365277432697716,0.7983729421279346,-0.6839448809623718,0.6724474430084229,-0.2829022407531738,0,0,0,-1,-1,29005.72874525,unknown,2,2025-04-22T11:59:05.284+03:00,2025-04-21T17:08:51.449+03:00,7184,0.9570276,0,0,5997.434,5,20,2025-04-22T11:58:03.382+03:00,767005145.3888587,0,-20.29,100.4445,1,0.9,2025-04-22T11:59:05.251+03:00,94,1.566666666666667,2025-04-22T09:54:17.825+03:00,0.02225348692287972,0
2025-04-22T11:59:07.539+03:00,1745312342.454455,40.95222556299963,29.14028007482035,75.7154,-1,-1,-1,-1,30,17.58087778887199,-9999,29007.97935479167,-0.863067626953125,0.6002044677734375,-0.265960693359375,29007.97181479167,-0.6772508498373477,-1.1818928754529,-0.7396070860684472,-0.9853358268737793,0.543114185333252,-0.1638552844524384,-0.1905005574226379,-0.07718086242675781,0.02629372477531433,XArbitraryZVertical,-0.4556617460390716,-0.3902795959978536,-0.06727196551453776,0.7972004039876393,-0.6835685968399048,0.673997700214386,-0.2801084220409393,0,0,0,-1,-1,29005.72874525,unknown,2,2025-04-22T11:59:05.284+03:00,2025-04-21T17:08:51.449+03:00,7184,0.9570276,0,0,5997.434,5,20,2025-04-22T11:58:03.382+03:00,767005145.3888587,0,-20.29,100.4445,1,0.9,2025-04-22T11:59:05.251+03:00,94,1.566666666666667,2025-04-22T09:54:17.825+03:00,0.02225348692287972,0
2025-04-22T11:59:07.549+03:00,1745312342.454455,40.95222556299963,29.14028007482035,75.7154,-1,-1,-1,-1,30,17.58087778887199,-9999,29007.98942979167,-0.82904052734375,0.6120452880859375,-0.2716217041015625,29007.98189079167,-0.6912191677086371,-1.185852629604625,-0.7419550694906784,-1.095116138458252,0.5358963012695312,-0.176171287894249,-0.1870963573455811,-0.08004266023635864,0.01259851455688477,XArbitraryZVertical,-0.4592931266161989,-0.3881334491690747,-0.07123565843025571,0.7958188579917251,-0.6832039356231689,0.6757304072380066,-0.276804506778717,0,0,0,-1,-1,29005.72874525,unknown,2,2025-04-22T11:59:05.284+03:00,2025-04-21T17:08:51.449+03:00,7184,0.9570276,0,0,5997.434,5,20,2025-04-22T11:58:03.382+03:00,767005145.3888587,0,-20.29,100.4445,1,0.9,2025-04-22T11:59:05.251+03:00,94,1.566666666666667,2025-04-22T09:54:17.825+03:00,0.02225348692287972,0
2025-04-22T11:59:07.560+03:00,1745312342.454455,40.95222556299963,29.14028007482035,75.7154,-1,-1,-1,-1,30,17.58087778887199,-9999,29007.99950579167,-0.79022216796875,0.6210784912109375,-0.28485107421875,29007.99196579167,-0.7068151234598993,-1.191296331107569,-0.744457671388504,-1.198879837989807,0.4739165604114532,-0.2156981974840164,-0.1610801219940186,-0.06827455759048462,0.005226701498031616,XArbitraryZVertical,-0.4633321298483342,-0.3861300243963972,-0.07543669678001602,0.794062996395433,-0.6831276416778564,0.677573025226593,-0.2724538743495941,0,0,0,-1,-1,29005.72874525,unknown,2,2025-04-22T11:59:05.284+03:00,2025-04-21T17:08:51.449+03:00,7184,0.9570276,0,0,5997.434,5,20,2025-04-22T11:58:03.382+03:00,767005145.3888587,0,-20.29,100.4445,1,0.9,2025-04-22T11:59:05.251+03:00,94,1.566666666666667,2025-04-22T09:54:17.825+03:00,0.02225348692287972,0
2025-04-22T11:59:07.581+03:00,1745312342.454455,40.95222556299963,29.14028007482035,75.7154,-1,-1,-1,-1,30,17.58087778887199,-9999,29008.00958079167,-0.7753753662109375,0.6381683349609375,-0.26629638671875,29008.00204179167,-0.7237277979668967,-1.19828230697913,-0.7468389785029939,-1.259105920791626,0.4256802797317505,-0.2486196905374527,-0.1191942691802979,-0.06263870000839233,-0.01747420430183411,XArbitraryZVertical,-0.4676346842137599,-0.3844142508493216,-0.0798069225330121,0.7919433008580128,-0.6835095286369324,0.6793224811553955,-0.2670869827270508,0,0,0,-1,-1,29005.72874525,unknown,2,2025-04-22T11:59:05.284+03:00,2025-04-21T17:08:51.449+03:00,7184,0.9570276,0,0,5997.434,5,20,2025-04-22T11:58:03.382+03:00,767005145.3888587,0,-20.29,100.4445,1,0.9,2025-04-22T11:59:05.251+03:00,94,1.566666666666667,2025-04-22T09:54:17.825+03:00,0.02225348692287972,0
2025-04-22T11:59:07.584+03:00,1745312342.454455,40.95222556299963,29.14028007482035,75.7154,-1,-1,-1,-1,30,17.58087778887199,-9999,29008.01965679167,-0.7695770263671875,0.656585693359375,-0.2540435791015625,29008.01211679167,-0.7413443520890707,-1.206123211811538,-0.7490265010620809,-1.282636761665344,0.4002667963504791,-0.2698131203651428,-0.09447842836380005,-0.04957860708236694,-0.01214182376861572,XArbitraryZVertical,-0.472038624257793,-0.3828643219371979,-0.08427474773913925,0.7896151806176946,-0.6841928362846375,0.6809261441230774,-0.2611888945102692,0,0,0,-1,-1,29005.72874525,unknown,2,2025-04-22T11:59:05.284+03:00,2025-04-21T17:08:51.449+03:00,7184,0.9570276,0,0,5997.434,5,20,2025-04-22T11:58:03.382+03:00,767005145.3888587,0,-20.29,100.4445,1,0.9,2025-04-22T11:59:05.251+03:00,94,1.566666666666667,2025-04-22T09:54:17.825+03:00,0.02225348692287972,0
2025-04-22T11:59:07.590+03:00,1745312342.454455,40.95222556299963,29.14028007482035,75.7154,-1,-1,-1,-1,30,17.58087778887199,-9999,29008.02973179167,-0.76422119140625,0.68231201171875,-0.2397308349609375,29008.02219279167,-0.7590273374152351,-1.214229013142482,-0.7509871763307716,-1.245278835296631,0.3856980204582214,-0.2746476531028748,-0.08655613660812378,-0.03238224983215332,-0.003392279148101807,XArbitraryZVertical,-0.4763911548208407,-0.381402022841547,-0.08873258320451778,0.787216869548052,-0.6850350499153137,0.6823607087135315,-0.2551679313182831,0,0,0,-1,-1,29005.72874525,unknown,2,2025-04-22T11:59:05.284+03:00,2025-04-21T17:08:51.449+03:00,7184,0.9570276,0,0,5997.434,5,20,2025-04-22T11:58:03.382+03:00,767005145.3888587,0,-20.29,100.4445,1,0.9,2025-04-22T11:59:05.251+03:00,94,1.566666666666667,2025-04-22T09:54:17.825+03:00,0.02225348692287972,0
2025-04-22T11:59:07.600+03:00,1745312342.454455,40.95222556299963,29.14028007482035,75.7154,-1,-1,-1,-1,30,17.58087778887199,-9999,29008.03980779167,-0.7645416259765625,0.7144927978515625,-0.24053955078125,29008.03226779167,-0.7757618508504638,-1.221736116425757,-0.7524186464213066,-1.130151510238647,0.3882226943969727,-0.2996424734592438,-0.07947486639022827,-0.01342368125915527,0.005802631378173828,XArbitraryZVertical,-0.4803679459768039,-0.3800061826007835,-0.09308063619756575,0.7849700443252291,-0.686012864112854,0.6834064722061157,-0.2496838718652725,0,0,0,-1,-1,29005.72874525,unknown,2,2025-04-22T11:59:05.284+03:00,2025-04-21T17:08:51.449+03:00,7184,0.9570276,0,0,5997.434,5,20,2025-04-22T11:58:03.382+03:00,767005145.3888587,0,-20.29,100.4445,1,0.9,2025-04-22T11:59:05.251+03:00,94,1.566666666666667,2025-04-22T09:54:17.825+03:00,0.02225348692287972,0
2025-04-22T11:59:07.610+03:00,1745312342.454455,40.95222556299963,29.14028007482035,75.7154,-1,-1,-1,-1,30,17.58087778887199,-9999,29008.04988279167,-0.7717132568359375,0.72003173828125,-0.231414794921875,29008.04234379167,-0.7911549630969974,-1.228349295869724,-0.7530869135742639,-1.013029336929321,0.386566549539566,-0.3340245485305786,-0.07594978809356689,0.02104651927947998,0.00554734468460083,XArbitraryZVertical,-0.4838106458990887,-0.3787256621794016,-0.0973168821530742,0.782958143595324,-0.6872185468673706,0.683894157409668,-0.2449882626533508,0,0,0,-1,-1,29005.72874525,unknown,2,2025-04-22T11:59:05.284+03:00,2025-04-21T17:08:51.449+03:00,7184,0.9570276,0,0,5997.434,5,20,2025-04-22T11:58:03.382+03:00,767005145.3888587,0,-20.29,100.4445,1,0.9,2025-04-22T11:59:05.251+03:00,94,1.566666666666667,2025-04-22T09:54:17.825+03:00,0.02225348692287972,0
2025-04-22T11:59:07.620+03:00,1745312342.454455,40.95222556299963,29.14028007482035,75.7154,-1,-1,-1,-1,30,17.58087778887199,-9999,29008.05995879167,-0.781219482421875,0.7284698486328125,-0.2115020751953125,29008.05241879167,-0.8051879655181107,-1.234120078860107,-0.7529236376340466,-0.8897532224655151,0.3706957101821899,-0.36918705701828,-0.08066767454147339,0.03547835350036621,0.003674328327178955,XArbitraryZVertical,-0.4867005008887532,-0.3776174966624611,-0.1014540326430342,0.7811751489484686,-0.6887262463569641,0.683775007724762,-0.2410552948713303,0,0,0,-1,-1,29005.72874525,unknown,2,2025-04-22T11:59:05.284+03:00,2025-04-21T17:08:51.449+03:00,7184,0.9570276,0,0,5997.434,5,20,2025-04-22T11:58:03.382+03:00,767005145.3888587,0,-20.29,100.4445,1,0.9,2025-04-22T11:59:05.251+03:00,94,1.566666666666667,2025-04-22T09:54:17.825+03:00,0.02225348692287972,0
2025-04-22T11:59:07.630+03:00,1745312342.454455,40.95222556299963,29.14028007482035,75.7154,-1,-1,-1,-1,30,17.58087778887199,-9999,29008.07003379167,-0.7989501953125,0.7449188232421875,-0.2000579833984375,29008.06249479167,-0.8175337413362941,-1.238823798593955,-0.7520768781096561,-0.744681179523468,0.3780125975608826,-0.3720504343509674,-0.08666938543319702,0.04050630331039429,0.01912963390350342,XArbitraryZVertical,-0.4890124598698591,-0.3766509703967916,-0.1053839177484788,0.7796762759373153,-0.6903997659683228,0.6831569075584412,-0.2380017191171646,0,0,0,-1,-1,29005.72874525,unknown,2,2025-04-22T11:59:05.284+03:00,2025-04-21T17:08:51.449+03:00,7184,0.9570276,0,0,5997.434,5,20,2025-04-22T11:58:03.382+03:00,767005145.3888587,0,-20.29,100.4445,1,0.9,2025-04-22T11:59:05.251+03:00,94,1.566666666666667,2025-04-22T09:54:17.825+03:00,0.02225348692287972,0
2025-04-22T11:59:07.640+03:00,1745312342.454455,40.95222556299963,29.14028007482035,75.7154,-1,-1,-1,-1,30,17.58087778887199,-9999,29008.08010979167,-0.8218536376953125,0.762725830078125,-0.2170562744140625,29008.07256979167,-0.8281386189206078,-1.241907978552265,-0.7508871727266566,-0.6366180777549744,0.4594435393810272,-0.3525049686431885,-0.09952849149703979,0.05555099248886108,0.03400039672851562,XArbitraryZVertical,-0.4908101500111887,-0.3755510645942532,-0.1091254472777408,0.778561712586866,-0.6918991208076477,0.6822876334190369,-0.2361335903406143,0,0,0,-1,-1,29005.72874525,unknown,2,2025-04-22T11:59:05.284+03:00,2025-04-21T17:08:51.449+03:00,7184,0.9570276,0,0,5997.434,5,20,2025-04-22T11:58:03.382+03:00,767005145.3888587,0,-20.29,100.4445,1,0.9,2025-04-22T11:59:05.251+03:00,94,1.566666666666667,2025-04-22T09:54:17.825+03:00,0.02225348692287972,0
2025-04-22T11:59:07.650+03:00,1745312342.454455,40.95222556299963,29.14028007482035,75.7154,-1,-1,-1,-1,30,17.58087778887199,-9999,29008.09018479167,-0.831207275390625,0.767608642578125,-0.22412109375,29008.08264579167,-0.8372870654289136,-1.242909596806201,-0.7494191803271433,-0.5261544585227966,0.5754545331001282,-0.3489374220371246,-0.1204395294189453,0.07484394311904907,0.02690041065216064,XArbitraryZVertical,-0.4921355388812719,-0.3740604552151051,-0.112891121922403,0.777905489648704,-0.6930828094482422,0.6812136769294739,-0.2357627749443054,0,0,0,-1,-1,29005.72874525,unknown,2,2025-04-22T11:59:05.284+03:00,2025-04-21T17:08:51.449+03:00,7184,0.9570276,0,0,5997.434,5,20,2025-04-22T11:58:03.382+03:00,767005145.3888587,0,-20.29,100.4445,1,0.9,2025-04-22T11:59:05.251+03:00,94,1.566666666666667,2025-04-22T09:54:17.825+03:00,0.02225348692287972,0
2025-04-22T11:59:07.660+03:00,1745312342.454455,40.95222556299963,29.14028007482035,75.7154,-1,-1,-1,-1,30,17.58087778887199,-9999,29008.10026079167,-0.8110504150390625,0.76287841796875,-0.194580078125,29008.09272079167,-0.8449954531478983,-1.241941087296546,-0.7476510117096448,-0.430789053440094,0.6567056775093079,-0.3492633700370789,-0.1361920237541199,0.08788865804672241,0.01050414144992828,XArbitraryZVertical,-0.4929841410762475,-0.3722302800572799,-0.1166719034134862,0.7776880827806291,-0.6939929127693176,0.6799181699752808,-0.2368225157260895,0,0,0,-1,-1,29005.72874525,unknown,2,2025-04-22T11:59:05.284+03:00,2025-04-21T17:08:51.449+03:00,7184,0.9570276,0,0,5997.434,5,20,2025-04-22T11:58:03.382+03:00,767005145.3888587,0,-20.29,100.4445,1,0.9,2025-04-22T11:59:05.251+03:00,94,1.566666666666667,2025-04-22T09:54:17.825+03:00,0.02225348692287972,0
2025-04-22T11:59:07.670+03:00,1745312342.454455,40.95222556299963,29.14028007482035,75.7154,-1,-1,-1,-1,30,17.58087778887199,-9999,29008.11033579167,-0.77166748046875,0.7489166259765625,-0.1401214599609375,29008.10279679167,-0.8521275443568637,-1.239753364325836,-0.7457186759165498,-0.4447154104709625,0.7418539524078369,-0.3445965349674225,-0.1281921863555908,0.08585840463638306,0.03059110045433044,XArbitraryZVertical,-0.4935952906611414,-0.3701084995302172,-0.1205794818690681,0.7777170103129493,-0.6947143077850342,0.6784999370574951,-0.2387667745351791,0,0,0,-1,-1,29005.72874525,unknown,2,2025-04-22T11:59:05.284+03:00,2025-04-21T17:08:51.449+03:00,7184,0.9570276,0,0,5997.434,5,20,2025-04-22T11:58:03.382+03:00,767005145.3888587,0,-20.29,100.4445,1,0.9,2025-04-22T11:59:05.251+03:00,94,1.566666666666667,2025-04-22T09:54:17.825+03:00,0.02225348692287972,0
2025-04-22T11:59:07.680+03:00,1745312342.454455,40.95222556299963,29.14028007482035,75.7154,-1,-1,-1,-1,30,17.58087778887199,-9999,29008.12041179167,-0.725433349609375,0.7198944091796875,-0.0918731689453125,29008.11287179167,-0.8597579295317926,-1.236939770691797,-0.7440650568291991,-0.4977381229400635,0.8426690101623535,-0.3353444337844849,-0.09217828512191772,0.07883435487747192,0.07816971838474274,XArbitraryZVertical,-0.4943317386674791,-0.367548936476122,-0.1247500497038133,0.7778053530292285,-0.695098876953125,0.6772842407226562,-0.2410878241062164,0,0,0,-1,-1,29005.72874525,unknown,2,2025-04-22T11:59:05.284+03:00,2025-04-21T17:08:51.449+03:00,7184,0.9570276,0,0,5997.434,5,20,2025-04-22T11:58:03.382+03:00,767005145.3888587,0,-20.29,100.4445,1,0.9,2025-04-22T11:59:05.251+03:00,94,1.566666666666667,2025-04-22T09:54:17.825+03:00,0.02225348692287972,0
2025-04-22T11:59:07.691+03:00,1745312342.454455,40.95222556299963,29.14028007482035,75.7154,-1,-1,-1,-1,30,17.58087778887199,-9999,29008.13048679167,-0.6920928955078125,0.7008056640625,-0.0646820068359375,29008.12294779167,-0.8679628292540017,-1.233571622318829,-0.7424371969503722,-0.5255255699157715,0.9284781813621521,-0.3611366152763367,-0.04773473739624023,0.05470329523086548,0.137514665722847,XArbitraryZVertical,-0.4951298552235634,-0.364623592655918,-0.1292741173688154,0.7779358067920759,-0.6953224539756775,0.6760857105255127,-0.2437921315431595,0,0,0,-1,-1,29005.72874525,unknown,2,2025-04-22T11:59:05.284+03:00,2025-04-21T17:08:51.449+03:00,7184,0.9570276,0,0,5997.434,5,20,2025-04-22T11:58:03.382+03:00,767005145.3888587,0,-20.29,100.4445,1,0.9,2025-04-22T11:59:05.251+03:00,94,1.566666666666667,2025-04-22T09:54:17.825+03:00,0.02225348692287972,0
2025-04-22T11:59:07.701+03:00,1745312342.454455,40.95222556299963,29.14028007482035,75.7154,-1,-1,-1,-1,30,17.58087778887199,-9999,29008.14056279167,-0.6672210693359375,0.68060302734375,-0.0687713623046875,29008.13302279167,-0.876681114262344,-1.229795168965027,-0.7408251605036164,-0.5752773880958557,0.9870898127555847,-0.3618130683898926,-0.00603872537612915,0.03155422210693359,0.1740264892578125,XArbitraryZVertical,-0.4959790980120406,-0.3614063238180489,-0.1340953495682363,0.7780800187342791,-0.6954230666160583,0.6748970150947571,-0.2467804104089737,0,0,0,-1,-1,29005.72874525,unknown,2,2025-04-22T11:59:05.284+03:00,2025-04-21T17:08:51.449+03:00,7184,0.9570276,0,0,5997.434,5,20,2025-04-22T11:58:03.382+03:00,767005145.3888587,0,-20.29,100.4445,1,0.9,2025-04-22T11:59:05.251+03:00,94,1.566666666666667,2025-04-22T09:54:17.825+03:00,0.02225348692287972,0
2025-04-22T11:59:07.711+03:00,1745312342.454455,40.95222556299963,29.14028007482035,75.7154,-1,-1,-1,-1,30,17.58087778887199,-9999,29008.15063879167,-0.64599609375,0.6413726806640625,-0.1054229736328125,29008.14309879167,-0.8861851733751778,-1.2261208643192,-0.7394889172433576,-0.6481529474258423,1.009101152420044,-0.3536408841609955,0.01768648624420166,0.01722109317779541,0.1884964406490326,XArbitraryZVertical,-0.4970362353756422,-0.3579605333451065,-0.1391139380706062,0.7781173171251807,-0.6953599452972412,0.67391037940979,-0.2496384680271149,0,0,0,-1,-1,29005.72874525,unknown,2,2025-04-22T11:59:05.284+03:00,2025-04-21T17:08:51.449+03:00,7184,0.9570276,0,0,5997.434,5,20,2025-04-22T11:58:03.382+03:00,767005145.3888587,0,-20.29,100.4445,1,0.9,2025-04-22T11:59:05.251+03:00,94,1.566666666666667,2025-04-22T09:54:17.825+03:00,0.02225348692287972,0
2025-04-22T11:59:07.721+03:00,1745312342.454455,40.95222556299963,29.14028007482035,75.7154,-1,-1,-1,-1,30,17.58087778887199,-9999,29008.16071379167,-0.6418609619140625,0.6190948486328125,-0.13287353515625,29008.15317479167,-0.8966917372432444,-1.222896759655635,-0.7387331203855653,-0.7482348084449768,1.032816052436829,-0.3139392733573914,0.04410529136657715,-0.0165984034538269,0.1606829762458801,XArbitraryZVertical,-0.4984523047998986,-0.3542865791704478,-0.1442344793410718,0.7779605923224477,-0.6950300335884094,0.6733518242835999,-0.2520526349544525,0,0,0,-1,-1,29005.72874525,unknown,2,2025-04-22T11:59:05.284+03:00,2025-04-21T17:08:51.449+03:00,7184,0.9570276,0,0,5997.434,5,20,2025-04-22T11:58:03.382+03:00,767005145.3888587,0,-20.29,100.4445,1,0.9,2025-04-22T11:59:05.251+03:00,94,1.566666666666667,2025-04-22T09:54:17.825+03:00,0.02225348692287972,0
2025-04-22T11:59:07.731+03:00,1745312342.454455,40.95222556299963,29.14028007482035,75.7154,-1,-1,-1,-1,30,17.58087778887199,-9999,29008.17078979167,-0.6318359375,0.6305389404296875,-0.1632843017578125,29008.16324979167,-0.9082725787877861,-1.219866906810986,-0.7388469017674995,-0.8582771420478821,1.124130010604858,-0.2389483898878098,0.0514756441116333,-0.04967212677001953,0.1303211152553558,XArbitraryZVertical,-0.5003034656521531,-0.350187060224565,-0.1494600675613589,0.7776419248812889,-0.694191038608551,0.6734359264373779,-0.2541309297084808,0,0,0,-1,-1,29005.72874525,unknown,2,2025-04-22T11:59:05.284+03:00,2025-04-21T17:08:51.449+03:00,7184,0.9570276,0,0,5997.434,5,20,2025-04-22T11:58:03.382+03:00,767005145.3888587,0,-20.29,100.4445,1,0.9,2025-04-22T11:59:05.251+03:00,94,1.566666666666667,2025-04-22T09:54:17.825+03:00,0.02225348692287972,0
2025-04-22T11:59:07.741+03:00,1745312342.454455,40.95222556299963,29.14028007482035,75.7154,-1,-1,-1,-1,30,17.58087778887199,-9999,29008.18086479167,-0.594757080078125,0.667510986328125,-0.192962646484375,29008.17332579167,-0.9205589656360967,-1.216394846183363,-0.7401347546342328,-0.905350387096405,1.199306845664978,-0.1533325612545013,0.05549728870391846,-0.05234777927398682,0.1054206490516663,XArbitraryZVertical,-0.5025591202262718,-0.345420125537691,-0.1547142961682095,0.7772919138590827,-0.6924906969070435,0.6743873953819275,-0.2562385499477386,0,0,0,-1,-1,29005.72874525,unknown,2,2025-04-22T11:59:05.284+03:00,2025-04-21T17:08:51.449+03:00,7184,0.9570276,0,0,5997.434,5,20,2025-04-22T11:58:03.382+03:00,767005145.3888587,0,-20.29,100.4445,1,0.9,2025-04-22T11:59:05.251+03:00,94,1.566666666666667,2025-04-22T09:54:17.825+03:00,0.02225348692287972,0
2025-04-22T11:59:07.751+03:00,1745312342.454455,40.95222556299963,29.14028007482035,75.7154,-1,-1,-1,-1,30,17.58087778887199,-9999,29008.19094079167,-0.525482177734375,0.7124786376953125,-0.2352294921875,29008.18340079167,-0.9326368784115758,-1.212417365392344,-0.7420201196558297,-0.8769739866256714,1.19733464717865,-0.1133254170417786,0.07684028148651123,-0.02415186166763306,0.07604926824569702,XArbitraryZVertical,-0.5048754955233261,-0.3403358910947826,-0.1598354278018792,0.7769973013893108,-0.6902741193771362,0.675778329372406,-0.2585444450378418,0,0,0,-1,-1,29005.72874525,unknown,2,2025-04-22T11:59:05.284+03:00,2025-04-21T17:08:51.449+03:00,7184,0.9570276,0,0,5997.434,5,20,2025-04-22T11:58:03.382+03:00,767005145.3888587,0,-20.29,100.4445,1,0.9,2025-04-22T11:59:05.251+03:00,94,1.566666666666667,2025-04-22T09:54:17.825+03:00,0.02225348692287972,0
2025-04-22T11:59:07.761+03:00,1745312342.454455,40.95222556299963,29.14028007482035,75.7154,-1,-1,-1,-1,30,17.58087778887199,-9999,29008.20101579167,-0.452362060546875,0.757415771484375,-0.303253173828125,29008.19347679167,-0.9439047525204204,-1.208485067237302,-0.7438370304781774,-0.7815188765525818,1.104266405105591,-0.1347492188215256,0.1341935992240906,0.01802808046340942,0.04600793123245239,XArbitraryZVertical,-0.5069963296539215,-0.3354759694463628,-0.1646548117737177,0.7767235051677328,-0.6881029009819031,0.6771164536476135,-0.2608211934566498,0,0,0,-1,-1,29005.72874525,unknown,2,2025-04-22T11:59:05.284+03:00,2025-04-21T17:08:51.449+03:00,7184,0.9570276,0,0,5997.434,5,20,2025-04-22T11:58:03.382+03:00,767005145.3888587,0,-20.29,100.4445,1,0.9,2025-04-22T11:59:05.251+03:00,94,1.566666666666667,2025-04-22T09:54:17.825+03:00,0.02225348692287972,0
2025-04-22T11:59:07.771+03:00,1745312342.454455,40.95222556299963,29.14028007482035,75.7154,-1,-1,-1,-1,30,17.58087778887199,-9999,29008.21109179167,-0.4143218994140625,0.75787353515625,-0.3763580322265625,29008.20355179167,-0.9536301791648488,-1.204373484630868,-0.7450982735836355,-0.6294962763786316,1.029114961624146,-0.1272935569286346,0.2085961103439331,0.06515038013458252,-0.01445960998535156,XArbitraryZVertical,-0.5086448533016891,-0.3310731762057262,-0.1690926730104117,0.7765812810544687,-0.6862267255783081,0.6780440211296082,-0.2633419334888458,0,0,0,-1,-1,29005.72874525,unknown,2,2025-04-22T11:59:05.284+03:00,2025-04-21T17:08:51.449+03:00,7184,0.9570276,0,0,5997.434,5,20,2025-04-22T11:58:03.382+03:00,767005145.3888587,0,-20.29,100.4445,1,0.9,2025-04-22T11:59:05.251+03:00,94,1.566666666666667,2025-04-22T09:54:17.825+03:00,0.02225348692287972,0
2025-04-22T11:59:07.781+03:00,1745312342.454455,40.95222556299963,29.14028007482035,75.7154,-1,-1,-1,-1,30,17.58087778887199,-9999,29008.22116679167,-0.399871826171875,0.7335052490234375,-0.4416046142578125,29008.21362779167,-0.9613955880107826,-1.199662527445966,-0.7460757757440011,-0.4984605014324188,0.9485780000686646,-0.09890853613615036,0.2600440979003906,0.08477210998535156,-0.08083668351173401,XArbitraryZVertical,-0.5098063535960939,-0.3270043562938286,-0.1730114856312685,0.776680421033102,-0.6843604445457458,0.6787621974945068,-0.2663312554359436,0,0,0,-1,-1,29005.72874525,unknown,2,2025-04-22T11:59:05.284+03:00,2025-04-21T17:08:51.449+03:00,7184,0.9570276,0,0,5997.434,5,20,2025-04-22T11:58:03.382+03:00,767005145.3888587,0,-20.29,100.4445,1,0.9,2025-04-22T11:59:05.251+03:00,94,1.566666666666667,2025-04-22T09:54:17.825+03:00,0.02225348692287972,0
2025-04-22T11:59:07.792+03:00,1745312342.454455,40.95222556299963,29.14028007482035,75.7154,-1,-1,-1,-1,30,17.58087778887199,-9999,29008.23124279167,-0.39093017578125,0.719207763671875,-0.459686279296875,29008.22370279167,-0.9676483178045459,-1.19476696544888,-0.7469636680808622,-0.4311979711055756,0.8612789511680603,-0.07259230315685272,0.2782519459724426,0.06370419263839722,-0.1523417234420776,XArbitraryZVertical,-0.510655362304686,-0.323268586427313,-0.1764206495597641,0.7769197560859687,-0.6824877858161926,0.6794139742851257,-0.2694570422172546,0,0,0,-1,-1,29005.72874525,unknown,2,2025-04-22T11:59:05.284+03:00,2025-04-21T17:08:51.449+03:00,7184,0.9570276,0,0,5997.434,5,20,2025-04-22T11:58:03.382+03:00,767005145.3888587,0,-20.29,100.4445,1,0.9,2025-04-22T11:59:05.251+03:00,94,1.566666666666667,2025-04-22T09:54:17.825+03:00,0.02225348692287972,0
2025-04-22T11:59:07.801+03:00,1745312342.454455,40.95222556299963,29.14028007482035,75.7154,-1,-1,-1,-1,30,17.58087778887199,-9999,29008.24131779167,-0.3842315673828125,0.7115478515625,-0.444244384765625,29008.23377879167,-0.9735264949949134,-1.190611712515999,-0.7480399143908316,-0.4520670473575592,0.7643819451332092,-0.04700252413749695,0.285525918006897,0.04139995574951172,-0.1859124898910522,XArbitraryZVertical,-0.5115459858169701,-0.3198611551569428,-0.1794414474242468,0.7770523062128621,-0.6806827783584595,0.6802032589912415,-0.27201908826828,0,0,0,-1,-1,29005.72874525,unknown,2,2025-04-22T11:59:05.284+03:00,2025-04-21T17:08:51.449+03:00,7184,0.9570276,0,0,5997.434,5,20,2025-04-22T11:58:03.382+03:00,767005145.3888587,0,-20.29,100.4445,1,0.9,2025-04-22T11:59:05.251+03:00,94,1.566666666666667,2025-04-22T09:54:17.825+03:00,0.02225348692287972,0
2025-04-22T11:59:07.812+03:00,1745312342.454455,40.95222556299963,29.14028007482035,75.7154,-1,-1,-1,-1,30,17.58087778887199,-9999,29008.25139379167,-0.3933563232421875,0.67950439453125,-0.4232330322265625,29008.24385379167,-0.979992445085313,-1.187658134003677,-0.7495637737247303,-0.5317649841308594,0.6990746855735779,-0.02033039927482605,0.2927752137184143,0.0351719856262207,-0.1785843074321747,XArbitraryZVertical,-0.5127534139268694,-0.3166444328482341,-0.182250626819274,0.7769200402752937,-0.6789140701293945,0.681319534778595,-0.2736404836177826,0,0,0,-1,-1,29005.72874525,unknown,2,2025-04-22T11:59:05.284+03:00,2025-04-21T17:08:51.449+03:00,7184,0.9570276,0,0,5997.434,5,20,2025-04-22T11:58:03.382+03:00,767005145.3888587,0,-20.29,100.4445,1,0.9,2025-04-22T11:59:05.251+03:00,94,1.566666666666667,2025-04-22T09:54:17.825+03:00,0.02225348692287972,0
2025-04-22T11:59:07.822+03:00,1745312342.454455,40.95222556299963,29.14028007482035,75.7154,-1,-1,-1,-1,30,17.58087778887199,-9999,29008.26146879167,-0.42010498046875,0.6373138427734375,-0.416595458984375,29008.25392979167,-0.9873978612800735,-1.186095909250582,-0.7516410153706093,-0.6231068968772888,0.6130471229553223,0.004454309120774269,0.2899349927902222,0.01015442609786987,-0.1563881933689117,XArbitraryZVertical,-0.514382377382554,-0.3135701620234067,-0.1849022674953963,0.7764634418275461,-0.6771724820137024,0.6828385591506958,-0.2741690576076508,0,0,0,-1,-1,29005.72874525,unknown,2,2025-04-22T11:59:05.284+03:00,2025-04-21T17:08:51.449+03:00,7184,0.9570276,0,0,5997.434,5,20,2025-04-22T11:58:03.382+03:00,767005145.3888587,0,-20.29,100.4445,1,0.9,2025-04-22T11:59:05.251+03:00,94,1.566666666666667,2025-04-22T09:54:17.825+03:00,0.02225348692287972,0
2025-04-22T11:59:07.832+03:00,1745312342.454455,40.95222556299963,29.14028007482035,75.7154,-1,-1,-1,-1,30,17.58087778887199,-9999,29008.27154479167,-0.4574432373046875,0.5948944091796875,-0.413726806640625,29008.26400479167,-0.9959360263743724,-1.186198168848951,-0.7544027425611186,-0.7270563244819641,0.5263493657112122,0.0410613901913166,0.2669111490249634,-0.03141134977340698,-0.1439671516418457,XArbitraryZVertical,-0.5165258779581612,-0.3106531457843866,-0.1873573629008709,0.7756241491415695,-0.6754500269889832,0.6848535537719727,-0.2733912765979767,0,0,0,-1,-1,29005.72874525,unknown,2,2025-04-22T11:59:05.284+03:00,2025-04-21T17:08:51.449+03:00,7184,0.9570276,0,0,5997.434,5,20,2025-04-22T11:58:03.382+03:00,767005145.3888587,0,-20.29,100.4445,1,0.9,2025-04-22T11:59:05.251+03:00,94,1.566666666666667,2025-04-22T09:54:17.825+03:00,0.02225348692287972,0
2025-04-22T11:59:07.842+03:00,1745312342.454455,40.95222556299963,29.14028007482035,75.7154,-1,-1,-1,-1,30,17.58087778887199,-9999,29008.28161979167,-0.4962005615234375,0.58251953125,-0.412811279296875,29008.27408079167,-1.005098900595744,-1.187608721938332,-0.7578936780125772,-0.7338932156562805,0.437637060880661,0.1064561009407043,0.2316731810569763,-0.07693493366241455,-0.1446254849433899,XArbitraryZVertical,-0.5190828226845082,-0.3078662875734822,-0.1894908873283107,0.7745092467563581,-0.6736134886741638,0.6873931884765625,-0.2715427577495575,0,0,0,-1,-1,29005.72874525,unknown,2,2025-04-22T11:59:05.284+03:00,2025-04-21T17:08:51.449+03:00,7184,0.9570276,0,0,5997.434,5,20,2025-04-22T11:58:03.382+03:00,767005145.3888587,0,-20.29,100.4445,1,0.9,2025-04-22T11:59:05.251+03:00,94,1.566666666666667,2025-04-22T09:54:17.825+03:00,0.02225348692287972,0
2025-04-22T11:59:07.852+03:00,1745312342.454455,40.95222556299963,29.14028007482035,75.7154,-1,-1,-1,-1,30,17.58087778887199,-9999,29008.29169579167,-0.5350341796875,0.6359710693359375,-0.4438323974609375,29008.28415579167,-1.01255110945294,-1.188697315950454,-0.7617535235933314,-0.512060284614563,0.3634968996047974,0.2154224812984467,0.1892181634902954,-0.1102049946784973,-0.1406130194664001,XArbitraryZVertical,-0.5214353660954726,-0.3052805208645376,-0.1909269702208923,0.7735992077173292,-0.6714416742324829,0.690191388130188,-0.2698179185390472,0,0,0,-1,-1,29005.72874525,unknown,2,2025-04-22T11:59:05.284+03:00,2025-04-21T17:08:51.449+03:00,7184,0.9570276,0,0,5997.434,5,20,2025-04-22T11:58:03.382+03:00,767005145.3888587,0,-20.29,100.4445,1,0.9,2025-04-22T11:59:05.251+03:00,94,1.566666666666667,2025-04-22T09:54:17.825+03:00,0.02225348692287972,0
2025-04-22T11:59:07.862+03:00,1745312342.454455,40.95222556299963,29.14028007482035,75.7154,-1,-1,-1,-1,30,17.58087778887199,-9999,29008.30177079167,-0.5604705810546875,0.711761474609375,-0.4994964599609375,29008.29423179167,-1.014973075669632,-1.187160567885305,-0.7655662581987058,-0.08268680423498154,0.2690617442131042,0.3491067588329315,0.1479360461235046,-0.08314329385757446,-0.1586195826530457,XArbitraryZVertical,-0.5227456373097631,-0.3029946093325745,-0.1911135812692751,0.7735675711587749,-0.6685811877250671,0.6929453611373901,-0.2698625326156616,0,0,0,-1,-1,29005.72874525,unknown,2,2025-04-22T11:59:05.284+03:00,2025-04-21T17:08:51.449+03:00,7184,0.9570276,0,0,5997.434,5,20,2025-04-22T11:58:03.382+03:00,767005145.3888587,0,-20.29,100.4445,1,0.9,2025-04-22T11:59:05.251+03:00,94,1.566666666666667,2025-04-22T09:54:17.825+03:00,0.02225348692287972,0
2025-04-22T11:59:07.872+03:00,1745312342.454455,40.95222556299963,29.14028007482035,75.7154,-1,-1,-1,-1,30,17.58087778887199,-9999,29008.31184679167,-0.5662994384765625,0.7497406005859375,-0.5536041259765625,29008.30430679167,-1.011258823529285,-1.182482242246875,-0.7688120658497022,0.3109660148620605,0.1380041986703873,0.443385899066925,0.1115609407424927,-0.009994626045227051,-0.2042145431041718,XArbitraryZVertical,-0.5226661185128173,-0.3012523222390392,-0.1899194247114272,0.7745951227976894,-0.6652260422706604,0.6952819228172302,-0.2721343338489532,0,0,0,-1,-1,29005.72874525,unknown,2,2025-04-22T11:59:05.284+03:00,2025-04-21T17:08:51.449+03:00,7184,0.9570276,0,0,5997.434,5,20,2025-04-22T11:58:03.382+03:00,767005145.3888587,0,-20.29,100.4445,1,0.9,2025-04-22T11:59:05.251+03:00,94,1.566666666666667,2025-04-22T09:54:17.825+03:00,0.02225348692287972,0
2025-04-22T11:59:07.882+03:00,1745312342.454455,40.95222556299963,29.14028007482035,75.7154,-1,-1,-1,-1,30,17.58087778887199,-9999,29008.32192179167,-0.56463623046875,0.715667724609375,-0.5864105224609375,29008.31438279167,-1.003570344534555,-1.176550237064954,-0.7715730418731775,0.4630929529666901,-0.02417298778891563,0.4762580990791321,0.09575468301773071,0.04593074321746826,-0.2615737915039062,XArbitraryZVertical,-0.5217420722088335,-0.3001942183215247,-0.187656345866107,0.7761789049505242,-0.6618252396583557,0.6972636580467224,-0.275337278842926,0,0,0,-1,-1,29005.72874525,unknown,2,2025-04-22T11:59:05.284+03:00,2025-04-21T17:08:51.449+03:00,7184,0.9570276,0,0,5997.434,5,20,2025-04-22T11:58:03.382+03:00,767005145.3888587,0,-20.29,100.4445,1,0.9,2025-04-22T11:59:05.251+03:00,94,1.566666666666667,2025-04-22T09:54:17.825+03:00,0.02225348692287972,0
2025-04-22T11:59:07.892+03:00,1745312342.454455,40.95222556299963,29.14028007482035,75.7154,-1,-1,-1,-1,30,17.58087778887199,-9999,29008.33199779167,-0.5869598388671875,0.667510986328125,-0.5902557373046875,29008.32445779167,-0.9955970892202807,-1.171963470478373,-0.7743413416923796,0.3345754742622375,-0.1718897521495819,0.4608951210975647,0.09435153007507324,0.03496170043945312,-0.297881156206131,XArbitraryZVertical,-0.5209172677932442,-0.2997257167316412,-0.18492335122237,0.7775687065002902,-0.658774197101593,0.6992453932762146,-0.2776193916797638,0,0,0,-1,-1,29005.72874525,unknown,2,2025-04-22T11:59:05.284+03:00,2025-04-21T17:08:51.449+03:00,7184,0.9570276,0,0,5997.434,5,20,2025-04-22T11:58:03.382+03:00,767005145.3888587,0,-20.29,100.4445,1,0.9,2025-04-22T11:59:05.251+03:00,94,1.566666666666667,2025-04-22T09:54:17.825+03:00,0.02225348692287972,0
2025-04-22T11:59:07.902+03:00,1745312342.454455,40.95222556299963,29.14028007482035,75.7154,-1,-1,-1,-1,30,17.58087778887199,-9999,29008.34207279167,-0.6409149169921875,0.6519622802734375,-0.5612335205078125,29008.33453379167,-0.9908986408777981,-1.170989959282149,-0.7777620247400217,0.001097110100090504,-0.2796361744403839,0.4271443486213684,0.08178776502609253,-0.0186118483543396,-0.3165900111198425,XArbitraryZVertical,-0.5211133625723714,-0.2996279572680852,-0.1823232249294259,0.7780887821732391,-0.65629643201828,0.701686680316925,-0.2773278951644897,0,0,0,-1,-1,29005.72874525,unknown,2,2025-04-22T11:59:05.284+03:00,2025-04-21T17:08:51.449+03:00,7184,0.9570276,0,0,5997.434,5,20,2025-04-22T11:58:03.382+03:00,767005145.3888587,0,-20.29,100.4445,1,0.9,2025-04-22T11:59:05.251+03:00,94,1.566666666666667,2025-04-22T09:54:17.825+03:00,0.02225348692287972,0
2025-04-22T11:59:07.912+03:00,1745312342.454455,40.95222556299963,29.14028007482035,75.7154,-1,-1,-1,-1,30,17.58087778887199,-9999,29008.35214879167,-0.69580078125,0.6894989013671875,-0.5520782470703125,29008.34460879167,-0.9910052181720863,-1.174283041402021,-0.7823341985474904,-0.3570338785648346,-0.3531985580921173,0.3985569179058075,0.03538918495178223,-0.05228817462921143,-0.298006683588028,XArbitraryZVertical,-0.5227485638202299,-0.299620312850315,-0.1801318187899637,0.7775049758138822,-0.6542398929595947,0.7049369215965271,-0.2739232182502747,0,0,0,-1,-1,29005.72874525,unknown,2,2025-04-22T11:59:05.284+03:00,2025-04-21T17:08:51.449+03:00,7184,0.9570276,0,0,5997.434,5,20,2025-04-22T11:58:03.382+03:00,767005145.3888587,0,-20.29,100.4445,1,0.9,2025-04-22T11:59:05.251+03:00,94,1.566666666666667,2025-04-22T09:54:17.825+03:00,0.02225348692287972,0
2025-04-22T11:59:07.922+03:00,1745312342.454455,40.95222556299963,29.14028007482035,75.7154,-1,-1,-1,-1,30,17.58087778887199,-9999,29008.36222479167,-0.741912841796875,0.7723236083984375,-0.584808349609375,29008.35468479167,-0.9954296744961068,-1.181135630323735,-0.7875984798966125,-0.6026625633239746,-0.3779174983501434,0.3275964558124542,-0.02380830049514771,-0.04041773080825806,-0.2827154099941254,XArbitraryZVertical,-0.5255375027362565,-0.2996669490085822,-0.178467796719643,0.7759890806938027,-0.6526595950126648,0.708660900592804,-0.2680200934410095,0,0,0,-1,-1,29005.72874525,unknown,2,2025-04-22T11:59:05.284+03:00,2025-04-21T17:08:51.449+03:00,7184,0.9570276,0,0,5997.434,5,20,2025-04-22T11:58:03.382+03:00,767005145.3888587,0,-20.29,100.4445,1,0.9,2025-04-22T11:59:05.251+03:00,94,1.566666666666667,2025-04-22T09:54:17.825+03:00,0.02225348692287972,0
2025-04-22T11:59:07.932+03:00,1745312342.454455,40.95222556299963,29.14028007482035,75.7154,-1,-1,-1,-1,30,17.58087778887199,-9999,29008.37229979167,-0.7701568603515625,0.8712310791015625,-0.638092041015625,29008.36476079167,-1.00271265975976,-1.190137138909556,-0.7928307117454251,-0.7141696214675903,-0.3834531307220459,0.2591039538383484,-0.07452559471130371,0.02580088376998901,-0.3061718046665192,XArbitraryZVertical,-0.5289179851055449,-0.2997818094504662,-0.177332638476998,0.773905433813786,-0.6515944004058838,0.7123427987098694,-0.2607532739639282,0,0,0,-1,-1,29005.72874525,unknown,2,2025-04-22T11:59:05.284+03:00,2025-04-21T17:08:51.449+03:00,7184,0.9570276,0,0,5997.434,5,20,2025-04-22T11:58:03.382+03:00,767005145.3888587,0,-20.29,100.4445,1,0.9,2025-04-22T11:59:05.251+03:00,94,1.566666666666667,2025-04-22T09:54:17.825+03:00,0.02225348692287972,0
2025-04-22T11:59:07.942+03:00,1745312342.454455,40.95222556299963,29.14028007482035,75.7154,-1,-1,-1,-1,30,17.58087778887199,-9999,29008.38237579167,-0.7556915283203125,0.96600341796875,-0.6782379150390625,29008.37483579167,-1.010971958677671,-1.200024320106016,-0.7975723212938538,-0.6846109628677368,-0.4182611703872681,0.1924343705177307,-0.1126866936683655,0.1175586581230164,-0.365611344575882,XArbitraryZVertical,-0.5323648702545527,-0.3000864783410231,-0.1764572585199942,0.7716206675948188,-0.6509851217269897,0.7156625986099243,-0.2530714869499207,0,0,0,-1,-1,29005.72874525,unknown,2,2025-04-22T11:59:05.284+03:00,2025-04-21T17:08:51.449+03:00,7184,0.9570276,0,0,5997.434,5,20,2025-04-22T11:58:03.382+03:00,767005145.3888587,0,-20.29,100.4445,1,0.9,2025-04-22T11:59:05.251+03:00,94,1.566666666666667,2025-04-22T09:54:17.825+03:00,0.02225348692287972,0
2025-04-22T11:59:07.952+03:00,1745312342.454455,40.95222556299963,29.14028007482035,75.7154,-1,-1,-1,-1,30,17.58087778887199,-9999,29008.39245079167,-0.71234130859375,1.030029296875,-0.712066650390625,29008.38491179167,-1.018394125698015,-1.209975609255078,-0.8012081056620044,-0.5176704525947571,-0.5096558332443237,0.1092332154512405,-0.1150349378585815,0.2147859930992126,-0.419653058052063,XArbitraryZVertical,-0.5353669522986374,-0.3009183681102967,-0.175547774945692,0.7694239987213281,-0.651032567024231,0.7181972861289978,-0.2456607222557068,0,0,0,-1,-1,29005.72874525,unknown,2,2025-04-22T11:59:05.284+03:00,2025-04-21T17:08:51.449+03:00,7184,0.9570276,0,0,5997.434,5,20,2025-04-22T11:58:03.382+03:00,767005145.3888587,0,-20.29,100.4445,1,0.9,2025-04-22T11:59:05.251+03:00,94,1.566666666666667,2025-04-22T09:54:17.825+03:00,0.02225348692287972,0
2025-04-22T11:59:07.962+03:00,1745312342.454455,40.95222556299963,29.14028007482035,75.7154,-1,-1,-1,-1,30,17.58087778887199,-9999,29008.40252679167,-0.667449951171875,1.06146240234375,-0.7470550537109375,29008.39498679167,-1.023403230021043,-1.21937765156047,-0.8031542645131188,-0.2608141303062439,-0.6463508009910583,0.01342093944549561,-0.07788902521133423,0.2900170087814331,-0.4602172374725342,XArbitraryZVertical,-0.53748118485969,-0.3026389289966988,-0.1743522309524808,0.7675446918058659,-0.6519998908042908,0.7195501327514648,-0.2390473037958145,0,0,0,-1,-1,29005.72874525,unknown,2,2025-04-22T11:59:05.284+03:00,2025-04-21T17:08:51.449+03:00,7184,0.9570276,0,0,5997.434,5,20,2025-04-22T11:58:03.382+03:00,767005145.3888587,0,-20.29,100.4445,1,0.9,2025-04-22T11:59:05.251+03:00,94,1.566666666666667,2025-04-22T09:54:17.825+03:00,0.02225348692287972,0
2025-04-22T11:59:07.973+03:00,1745312342.454455,40.95222556299963,29.14028007482035,75.7154,-1,-1,-1,-1,30,17.58087778887199,-9999,29008.41260179167,-0.6383056640625,1.061233520507812,-0.762603759765625,29008.40506279167,-1.025033102807247,-1.227786062350981,-0.803264549134806,0.03711263462901115,-0.7948630452156067,-0.06900575757026672,-0.02907133102416992,0.333885669708252,-0.5014249682426453,XArbitraryZVertical,-0.5384886138414567,-0.3053932705099188,-0.17268127596433,0.7661239956167282,-0.6539120078086853,0.7196267247200012,-0.2335299253463745,0,0,0,-1,-1,29005.72874525,unknown,2,2025-04-22T11:59:05.284+03:00,2025-04-21T17:08:51.449+03:00,7184,0.9570276,0,0,5997.434,5,20,2025-04-22T11:58:03.382+03:00,767005145.3888587,0,-20.29,100.4445,1,0.9,2025-04-22T11:59:05.251+03:00,94,1.566666666666667,2025-04-22T09:54:17.825+03:00,0.02225348692287972,0
2025-04-22T11:59:07.983+03:00,1745312342.454455,40.95222556299963,29.14028007482035,75.7154,-1,-1,-1,-1,30,17.58087778887199,-9999,29008.42267779167,-0.6300048828125,1.028106689453125,-0.7463531494140625,29008.41513779167,-1.023634974932741,-1.235518941713226,-0.801743466644933,0.2365858554840088,-0.9328485727310181,-0.1497574299573898,0.009972214698791504,0.345883309841156,-0.5312902927398682,XArbitraryZVertical,-0.5385232200666098,-0.3091595124712495,-0.1705353325522035,0.7650690766578714,-0.6567312479019165,0.7185696959495544,-0.2288262695074081,0,0,0,-1,-1,29008.30807679167,unknown,2,2025-04-22T11:59:07.863+03:00,2025-04-21T17:08:51.449+03:00,7184,0.9570276,0,0,5997.434,5,20,2025-04-22T11:58:03.382+03:00,767005147.9652482,0,-20.23,100.446,1,0.9,2025-04-22T11:59:05.251+03:00,94,1.566666666666667,2025-04-22T09:54:17.825+03:00,0.02225348692287972,0
2025-04-22T11:59:07.993+03:00,1745312342.454455,40.95222556299963,29.14028007482035,75.7154,-1,-1,-1,-1,30,17.58087778887199,-9999,29008.43275279167,-0.63092041015625,0.9537811279296875,-0.704742431640625,29008.42521379167,-1.020304772100523,-1.243043174544199,-0.7991167667040843,0.3518553376197815,-1.036192655563354,-0.1940621137619019,0.02932918071746826,0.3297376036643982,-0.5325796008110046,XArbitraryZVertical,-0.5379280097684791,-0.3136731148121521,-0.1680536895878138,0.764199196006234,-0.6602190732955933,0.7167404294013977,-0.2244852632284164,0,0,0,-1,-1,29008.30807679167,unknown,2,2025-04-22T11:59:07.863+03:00,2025-04-21T17:08:51.449+03:00,7184,0.9570276,0,0,5997.434,5,20,2025-04-22T11:58:03.382+03:00,767005147.9652482,0,-20.23,100.446,1,0.9,2025-04-22T11:59:05.251+03:00,94,1.566666666666667,2025-04-22T09:54:17.825+03:00,0.02225348692287972,0
2025-04-22T11:59:08.003+03:00,1745312342.454455,40.95222556299963,29.14028007482035,75.7154,-1,-1,-1,-1,30,17.58087778887199,-9999,29008.44282879167,-0.6410980224609375,0.879486083984375,-0.626922607421875,29008.43528879167,-1.016305751783976,-1.251210307706327,-0.7959620578741973,0.3599798381328583,-1.151657223701477,-0.2204412519931793,0.03433674573898315,0.2697768211364746,-0.5038225650787354,XArbitraryZVertical,-0.5371203608209473,-0.3187541309415937,-0.1653150758481503,0.7632616219930592,-0.6641737818717957,0.7145369648933411,-0.2197950482368469,0,0,0,-1,-1,29008.30807679167,unknown,2,2025-04-22T11:59:07.863+03:00,2025-04-21T17:08:51.449+03:00,7184,0.9570276,0,0,5997.434,5,20,2025-04-22T11:58:03.382+03:00,767005147.9652482,0,-20.23,100.446,1,0.9,2025-04-22T11:59:05.251+03:00,94,1.566666666666667,2025-04-22T09:54:17.825+03:00,0.02225348692287972,0
2025-04-22T11:59:08.013+03:00,1745312342.454455,40.95222556299963,29.14028007482035,75.7154,-1,-1,-1,-1,30,17.58087778887199,-9999,29008.45290379167,-0.664276123046875,0.814727783203125,-0.513824462890625,29008.44536479167,-1.013035461359995,-1.260888199897901,-0.7929388280665959,0.2398409247398376,-1.228021740913391,-0.2043300569057465,0.03361952304840088,0.1937395930290222,-0.4473316073417664,XArbitraryZVertical,-0.5365687134222399,-0.324170597064723,-0.1624160412409655,0.7619897246349793,-0.6683240532875061,0.7124186754226685,-0.2140148729085922,0,0,0,-1,-1,29008.30807679167,unknown,2,2025-04-22T11:59:07.863+03:00,2025-04-21T17:08:51.449+03:00,7184,0.9570276,0,0,5997.434,5,20,2025-04-22T11:58:03.382+03:00,767005147.9652482,0,-20.23,100.446,1,0.9,2025-04-22T11:59:05.251+03:00,94,1.566666666666667,2025-04-22T09:54:17.825+03:00,0.02225348692287972,0
2025-04-22T11:59:08.023+03:00,1745312342.454455,40.95222556299963,29.14028007482035,75.7154,-1,-1,-1,-1,30,17.58087778887199,-9999,29008.46297979167,-0.688262939453125,0.7741851806640625,-0.365631103515625,29008.45543979167,-1.012530488333755,-1.27322834627551,-0.7908808540453743,-0.07142642885446548,-1.291544318199158,-0.1634851545095444,0.01714777946472168,0.1265054941177368,-0.3537860512733459,XArbitraryZVertical,-0.5369243066487561,-0.3295781795960729,-0.1595587648623009,0.7600206827718426,-0.6723144054412842,0.7109729647636414,-0.2061810195446014,0,0,0,-1,-1,29008.30807679167,unknown,2,2025-04-22T11:59:07.863+03:00,2025-04-21T17:08:51.449+03:00,7184,0.9570276,0,0,5997.434,5,20,2025-04-22T11:58:03.382+03:00,767005147.9652482,0,-20.23,100.446,1,0.9,2025-04-22T11:59:05.251+03:00,94,1.566666666666667,2025-04-22T09:54:17.825+03:00,0.02225348692287972,0
