loggingTime(txt),locationTimestamp_since1970(s),locationLatitude(WGS84),locationLongitude(WGS84),locationAltitude(m),locationSpeed(m/s),locationSpeedAccuracy(m/s),locationCourse(°),locationCourseAccuracy(°),locationVerticalAccuracy(m),locationHorizontalAccuracy(m),locationFloor(Z),accelerometerTimestamp_sinceReboot(s),accelerometerAccelerationX(G),accelerometerAccelerationY(G),accelerometerAccelerationZ(G),motionTimestamp_sinceReboot(s),motionYaw(rad),motionRoll(rad),motionPitch(rad),motionRotationRateX(rad/s),motionRotationRateY(rad/s),motionRotationRateZ(rad/s),motionUserAccelerationX(G),motionUserAccelerationY(G),motionUserAccelerationZ(G),motionAttitudeReferenceFrame(txt),motionQuaternionX(R),motionQuaternionY(R),motionQuaternionZ(R),motionQuaternionW(R),motionGravityX(G),motionGravityY(G),motionGravityZ(G),motionMagneticFieldX(µT),motionMagneticFieldY(µT),motionMagneticFieldZ(µT),motionHeading(°),motionMagneticFieldCalibrationAccuracy(Z),activityTimestamp_sinceReboot(s),activity(txt),activityActivityConfidence(Z),activityActivityStartDate(txt),pedometerStartDate(txt),pedometerNumberofSteps(N),pedometerAverageActivePace(s/m),pedometerCurrentPace(s/m),pedometerCurrentCadence(steps/s),pedometerDistance(m),pedometerFloorAscended(N),pedometerFloorDescended(N),pedometerEndDate(txt),altimeterTimestamp_sinceReboot(s),altimeterReset(bool),altimeterRelativeAltitude(m),altimeterPressure(kPa),batteryState(N),batteryLevel(R),heartRateBPMTimestamp(txt),heartRateBPM(N),heartRateBPS(R),heartRateVariabilityTimestamp(txt),heartRateVariability(ms),label
2025-04-22T12:20:47.841+03:00,1745313647.224662,40.95219657099274,29.14025835744745,76.12379,-1,-1,-1,-1,30,22.47268558134142,-9999,29970.07476329167,-0.8171234130859375,0.4123077392578125,-0.203369140625,29970.06468729167,-0.2996991736902836,-1.288934516000807,-0.4734946801666618,-0.0437099002301693,-0.2021753042936325,-0.01428639329969883,0.09576660394668579,-0.001363664865493774,0.02406284213066101,XArbitraryZVertical,-0.2725835162972794,-0.5494785580508859,0.02331138519277497,0.7894480428491593,-0.8548609614372253,0.4559992551803589,-0.2475430816411972,0,0,0,-1,-1,29965.0025325,unknown,2,2025-04-22T12:20:42.742+03:00,2025-04-21T17:08:51.449+03:00,7264,0.976367,0,0,6055.744,5,20,2025-04-22T12:20:40.163+03:00,767006414.4773123,0,-20.82999,100.4528,1,0.85,2025-04-22T12:20:02.679+03:00,82,1.366666666666667,2025-04-22T09:54:17.825+03:00,0.02225348692287972,0
2025-04-22T12:20:47.843+03:00,1745313647.224662,40.95219657099274,29.14025835744745,76.12379,-1,-1,-1,-1,30,22.47268558134142,-9999,29970.08484029167,-0.998321533203125,0.4176025390625,-0.24591064453125,29970.07476329167,-0.3001642640168681,-1.289894841946515,-0.4735353318264923,-0.0275007039308548,0.05620471388101578,0.006014018785208464,0.1114737987518311,-0.0385856032371521,0.06127680838108063,XArbitraryZVertical,-0.2727153695789633,-0.549788973985648,0.02327110119586925,0.7891873665017797,-0.855080246925354,0.4560354351997375,-0.2467168271541595,0,0,0,-1,-1,29965.0025325,unknown,2,2025-04-22T12:20:42.742+03:00,2025-04-21T17:08:51.449+03:00,7264,0.976367,0,0,6055.744,5,20,2025-04-22T12:20:40.163+03:00,767006414.4773123,0,-20.82999,100.4528,1,0.85,2025-04-22T12:20:02.679+03:00,82,1.366666666666667,2025-04-22T09:54:17.825+03:00,0.02225348692287972,0
2025-04-22T12:20:47.844+03:00,1745313647.224662,40.95219657099274,29.14025835744745,76.12379,-1,-1,-1,-1,30,22.47268558134142,-9999,29970.09491629167,-0.9190521240234375,0.446258544921875,-0.24664306640625,29970.08484029167,-0.3003519108045334,-1.289029636649346,-0.4736674776732892,-0.01125755067914724,0.1173042878508568,0.01803845725953579,-0.1023904085159302,-0.04384544491767883,0.01051661372184753,XArbitraryZVertical,-0.2728263403482724,-0.5494050398214742,0.0231190715156267,0.7894207900367265,-0.854808509349823,0.4561530351638794,-0.2474397867918015,0,0,0,-1,-1,29965.0025325,unknown,2,2025-04-22T12:20:42.742+03:00,2025-04-21T17:08:51.449+03:00,7264,0.976367,0,0,6055.744,5,20,2025-04-22T12:20:40.163+03:00,767006414.4773123,0,-20.82999,100.4528,1,0.85,2025-04-22T12:20:02.679+03:00,82,1.366666666666667,2025-04-22T09:54:17.825+03:00,0.02225348692287972,0
2025-04-22T12:20:47.852+03:00,1745313647.224662,40.95219657099274,29.14025835744745,76.12379,-1,-1,-1,-1,30,22.47268558134142,-9999,29970.10499329167,-0.7926788330078125,0.4551849365234375,-0.2424468994140625,29970.09491629167,-0.3004236697570812,-1.288450053323017,-0.4737432092996846,-0.01218652818351984,-0.006695224437862635,0.009648268111050129,-0.1153234839439392,-0.02064314484596252,4.656612873077393e-05,XArbitraryZVertical,-0.2728810272224858,-0.5491567774702196,0.0230345911419865,0.7895771138157482,-0.8546318411827087,0.456220418214798,-0.2479255646467209,0,0,0,-1,-1,29965.0025325,unknown,2,2025-04-22T12:20:42.742+03:00,2025-04-21T17:08:51.449+03:00,7264,0.976367,0,0,6055.744,5,20,2025-04-22T12:20:40.163+03:00,767006414.4773123,0,-20.82999,100.4528,1,0.85,2025-04-22T12:20:02.679+03:00,82,1.366666666666667,2025-04-22T09:54:17.825+03:00,0.02225348692287972,0
2025-04-22T12:20:47.865+03:00,1745313647.224662,40.95219657099274,29.14025835744745,76.12379,-1,-1,-1,-1,30,22.47268558134142,-9999,29970.11506929167,-0.7960205078125,0.4493255615234375,-0.2490692138671875,29970.10499329167,-0.3005606697704822,-1.289001286720708,-0.4739471777613581,-0.02215607091784477,-0.07855529338121414,0.01050074584782124,0.02598947286605835,-0.001400113105773926,0.004203468561172485,XArbitraryZVertical,-0.2729884791470428,-0.5493295931611906,0.02311745172381273,0.7894174277592407,-0.8546791076660156,0.456401914358139,-0.2474285811185837,0,0,0,-1,-1,29965.0025325,unknown,2,2025-04-22T12:20:42.742+03:00,2025-04-21T17:08:51.449+03:00,7264,0.976367,0,0,6055.744,5,20,2025-04-22T12:20:40.163+03:00,767006414.4773123,0,-20.82999,100.4528,1,0.85,2025-04-22T12:20:02.679+03:00,82,1.366666666666667,2025-04-22T09:54:17.825+03:00,0.02225348692287972,0
2025-04-22T12:20:47.870+03:00,1745313647.224662,40.95219657099274,29.14025835744745,76.12379,-1,-1,-1,-1,30,22.47268558134142,-9999,29970.12514629167,-0.8739013671875,0.450286865234375,-0.2563018798828125,29970.11506929167,-0.300776165929684,-1.289640985229682,-0.4741706591939139,-0.02248364128172398,-0.02771102823317051,0.01217680610716343,0.07612895965576172,-0.004925519227981567,0.00190386176109314,XArbitraryZVertical,-0.2731237812002451,-0.5495240541082057,0.02318745238542276,0.7892330643412049,-0.8547390103340149,0.4566007554531097,-0.2468534260988235,0,0,0,-1,-1,29965.0025325,unknown,2,2025-04-22T12:20:42.742+03:00,2025-04-21T17:08:51.449+03:00,7264,0.976367,0,0,6055.744,5,20,2025-04-22T12:20:40.163+03:00,767006414.4773123,0,-20.82999,100.4528,1,0.85,2025-04-22T12:20:02.679+03:00,82,1.366666666666667,2025-04-22T09:54:17.825+03:00,0.02225348692287972,0
2025-04-22T12:20:47.880+03:00,1745313647.224662,40.95219657099274,29.14025835744745,76.12379,-1,-1,-1,-1,30,22.47268558134142,-9999,29970.13522229167,-0.8900909423828125,0.458648681640625,-0.2545623779296875,29970.12514629167,-0.3009410366481529,-1.289618640041763,-0.4743425261018747,-0.02040397934615612,0.03067345172166824,0.01309612952172756,0.007932782173156738,-0.007809668779373169,-0.00707070529460907,XArbitraryZVertical,-0.273233511798211,-0.5494707126981412,0.0231713819696992,0.7892327468415937,-0.8546581864356995,0.456753671169281,-0.246850773692131,0,0,0,-1,-1,29965.0025325,unknown,2,2025-04-22T12:20:42.742+03:00,2025-04-21T17:08:51.449+03:00,7264,0.976367,0,0,6055.744,5,20,2025-04-22T12:20:40.163+03:00,767006414.4773123,0,-20.82999,100.4528,1,0.85,2025-04-22T12:20:02.679+03:00,82,1.366666666666667,2025-04-22T09:54:17.825+03:00,0.02225348692287972,0
2025-04-22T12:20:47.890+03:00,1745313647.224662,40.95219657099274,29.14025835744745,76.12379,-1,-1,-1,-1,30,22.47268558134142,-9999,29970.14529929167,-0.8444366455078125,0.461029052734375,-0.2449951171875,29970.13522229167,-0.3011020213596332,-1.289397382691602,-0.4745455877336043,-0.02020850032567978,0.01007123850286007,0.01403942052274942,-0.040108323097229,-0.0007270872592926025,-0.008952021598815918,XArbitraryZVertical,-0.2733561248490512,-0.5493353936256233,0.02313911251345643,0.7892854563448077,-0.8545144200325012,0.4569343030452728,-0.2470141053199768,0,0,0,-1,-1,29965.0025325,unknown,2,2025-04-22T12:20:42.742+03:00,2025-04-21T17:08:51.449+03:00,7264,0.976367,0,0,6055.744,5,20,2025-04-22T12:20:40.163+03:00,767006414.4773123,0,-20.82999,100.4528,1,0.85,2025-04-22T12:20:02.679+03:00,82,1.366666666666667,2025-04-22T09:54:17.825+03:00,0.02225348692287972,0
2025-04-22T12:20:47.900+03:00,1745313647.224662,40.95219657099274,29.14025835744745,76.12379,-1,-1,-1,-1,30,22.47268558134142,-9999,29970.15537529167,-0.825439453125,0.4635162353515625,-0.2390289306640625,29970.14529929167,-0.3012759605197784,-1.289546952341382,-0.4747289669980717,-0.0165338721126318,-0.02435651049017906,0.008171678520739079,-0.008428871631622314,0.003931581974029541,-0.002282440662384033,XArbitraryZVertical,-0.2734706515923341,-0.5493471456525256,0.02314645820133239,0.7892373801447998,-0.8544708490371704,0.4570974111557007,-0.2468630373477936,0,0,0,-1,-1,29965.0025325,unknown,2,2025-04-22T12:20:42.742+03:00,2025-04-21T17:08:51.449+03:00,7264,0.976367,0,0,6055.744,5,20,2025-04-22T12:20:40.163+03:00,767006414.4773123,0,-20.82999,100.4528,1,0.85,2025-04-22T12:20:02.679+03:00,82,1.366666666666667,2025-04-22T09:54:17.825+03:00,0.02225348692287972,0
2025-04-22T12:20:47.910+03:00,1745313647.224662,40.95219657099274,29.14025835744745,76.12379,-1,-1,-1,-1,30,22.47268558134142,-9999,29970.16545229167,-0.85382080078125,0.4619293212890625,-0.2437744140625,29970.15537529167,-0.301401859100043,-1.28982723017023,-0.4748220373430279,-0.00670580891892314,-0.01083277817815542,0.002355034928768873,0.0291208028793335,0.005603551864624023,0.00738447904586792,XArbitraryZVertical,-0.2735367353425234,-0.5494285953083788,0.02316329186876654,0.7891573113080229,-0.8544991612434387,0.4571801722049713,-0.2466117441654205,0,0,0,-1,-1,29965.0025325,unknown,2,2025-04-22T12:20:42.742+03:00,2025-04-21T17:08:51.449+03:00,7264,0.976367,0,0,6055.744,5,20,2025-04-22T12:20:40.163+03:00,767006414.4773123,0,-20.82999,100.4528,1,0.85,2025-04-22T12:20:02.679+03:00,82,1.366666666666667,2025-04-22T09:54:17.825+03:00,0.02225348692287972,0
2025-04-22T12:20:47.920+03:00,1745313647.224662,40.95219657099274,29.14025835744745,76.12379,-1,-1,-1,-1,30,22.47268558134142,-9999,29970.17552829167,-0.8735809326171875,0.45623779296875,-0.2462158203125,29970.16545229167,-0.3014251402688782,-1.28981569211538,-0.4748115508887822,0.001773429568856955,0.02152809128165245,0.004873319994658232,0.01386380195617676,0.005734950304031372,0.004862725734710693,XArbitraryZVertical,-0.273539338275911,-0.5494221994828589,0.02314933760444284,0.7891613239085825,-0.8545010089874268,0.457170844078064,-0.2466229498386383,0,0,0,-1,-1,29965.0025325,unknown,2,2025-04-22T12:20:42.742+03:00,2025-04-21T17:08:51.449+03:00,7264,0.976367,0,0,6055.744,5,20,2025-04-22T12:20:40.163+03:00,767006414.4773123,0,-20.82999,100.4528,1,0.85,2025-04-22T12:20:02.679+03:00,82,1.366666666666667,2025-04-22T09:54:17.825+03:00,0.02225348692287972,0
2025-04-22T12:20:47.930+03:00,1745313647.224662,40.95219657099274,29.14025835744745,76.12379,-1,-1,-1,-1,30,22.47268558134142,-9999,29970.18560529167,-0.8601837158203125,0.4467010498046875,-0.2445068359375,29970.17552829167,-0.3014331603853146,-1.289574522712445,-0.4748248078838576,-0.007907959632575512,0.02621632069349289,0.007633952889591455,-0.01554423570632935,0.002061009407043457,0.001557543873786926,XArbitraryZVertical,-0.273549307841396,-0.5493242464471642,0.02311723573969846,0.7892268678900267,-0.8544355034828186,0.4571826457977295,-0.2468272894620895,0,0,0,-1,-1,29965.0025325,unknown,2,2025-04-22T12:20:42.742+03:00,2025-04-21T17:08:51.449+03:00,7264,0.976367,0,0,6055.744,5,20,2025-04-22T12:20:40.163+03:00,767006414.4773123,0,-20.82999,100.4528,1,0.85,2025-04-22T12:20:02.679+03:00,82,1.366666666666667,2025-04-22T09:54:17.825+03:00,0.02225348692287972,0
2025-04-22T12:20:47.940+03:00,1745313647.224662,40.95219657099274,29.14025835744745,76.12379,-1,-1,-1,-1,30,22.47268558134142,-9999,29970.19568129167,-0.839202880859375,0.443878173828125,-0.2437896728515625,29970.18560529167,-0.3016325572409511,-1.289501473937895,-0.474959711090157,-0.02739244513213634,0.005135269835591316,0.00834182184189558,-0.01408040523529053,-0.007031083106994629,0.001160383224487305,XArbitraryZVertical,-0.2736552712108634,-0.5492508408542026,0.02306940004260967,0.7892426875597239,-0.8543583154678345,0.4573026299476624,-0.2468726187944412,0,0,0,-1,-1,29965.0025325,unknown,2,2025-04-22T12:20:42.742+03:00,2025-04-21T17:08:51.449+03:00,7264,0.976367,0,0,6055.744,5,20,2025-04-22T12:20:40.163+03:00,767006414.4773123,0,-20.82999,100.4528,1,0.85,2025-04-22T12:20:02.679+03:00,82,1.366666666666667,2025-04-22T09:54:17.825+03:00,0.02225348692287972,0
2025-04-22T12:20:47.951+03:00,1745313647.224662,40.95219657099274,29.14025835744745,76.12379,-1,-1,-1,-1,30,22.47268558134142,-9999,29970.20575829167,-0.842529296875,0.448211669921875,-0.2445831298828125,29970.19568129167,-0.3019712251565452,-1.289694733179048,-0.4751622342114201,-0.03875508904457092,-0.01043916214257479,0.007555655669420958,0.009636282920837402,-0.01365038752555847,0.002663254737854004,XArbitraryZVertical,-0.2738216567662238,-0.5492547644096377,0.02302354738319174,0.7891836127565747,-0.8543170094490051,0.4574827253818512,-0.246681809425354,0,0,0,-1,-1,29965.0025325,unknown,2,2025-04-22T12:20:42.742+03:00,2025-04-21T17:08:51.449+03:00,7264,0.976367,0,0,6055.744,5,20,2025-04-22T12:20:40.163+03:00,767006414.4773123,0,-20.82999,100.4528,1,0.85,2025-04-22T12:20:02.679+03:00,82,1.366666666666667,2025-04-22T09:54:17.825+03:00,0.02225348692287972,0
2025-04-22T12:20:47.960+03:00,1745313647.224662,40.95219657099274,29.14025835744745,76.12379,-1,-1,-1,-1,30,22.47268558134142,-9999,29970.21583429167,-0.857879638671875,0.4525604248046875,-0.2456207275390625,29970.20575829167,-0.302385444876597,-1.289966026037134,-0.4753361073511164,-0.04102916270494461,-0.003015068359673023,0.009160743094980717,0.01646268367767334,-0.01098212599754333,0.002684116363525391,XArbitraryZVertical,-0.2739971962337479,-0.5492827537057777,0.02294993276516057,0.7891053641656561,-0.8543074727058411,0.4576373100280762,-0.246427983045578,0,0,0,-1,-1,29965.0025325,unknown,2,2025-04-22T12:20:42.742+03:00,2025-04-21T17:08:51.449+03:00,7264,0.976367,0,0,6055.744,5,20,2025-04-22T12:20:40.163+03:00,767006414.4773123,0,-20.82999,100.4528,1,0.85,2025-04-22T12:20:02.679+03:00,82,1.366666666666667,2025-04-22T09:54:17.825+03:00,0.02225348692287972,0
2025-04-22T12:20:47.970+03:00,1745313647.224662,40.95219657099274,29.14025835744745,76.12379,-1,-1,-1,-1,30,22.47268558134142,-9999,29970.22591129167,-0.859527587890625,0.456634521484375,-0.244598388671875,29970.21583429167,-0.3028098332692682,-1.290141406849618,-0.4755185747647823,-0.04057615995407104,0.008126532658934593,0.006518887355923653,0.001029551029205322,-0.006002128124237061,0.000466465950012207,XArbitraryZVertical,-0.2741798348756618,-0.5492703393917118,0.0228618135783306,0.7890531380949413,-0.8542704582214355,0.4577995538711548,-0.246255025267601,0,0,0,-1,-1,29965.0025325,unknown,2,2025-04-22T12:20:42.742+03:00,2025-04-21T17:08:51.449+03:00,7264,0.976367,0,0,6055.744,5,20,2025-04-22T12:20:40.163+03:00,767006414.4773123,0,-20.82999,100.4528,1,0.85,2025-04-22T12:20:02.679+03:00,82,1.366666666666667,2025-04-22T09:54:17.825+03:00,0.02225348692287972,0
2025-04-22T12:20:47.980+03:00,1745313647.224662,40.95219657099274,29.14025835744745,76.12379,-1,-1,-1,-1,30,22.47268558134142,-9999,29970.23598729167,-0.8515777587890625,0.46197509765625,-0.2411956787109375,29970.22591129167,-0.3032069540795588,-1.290265019242193,-0.4756680866256715,-0.03212089091539383,0.001214563846588135,0.001341169467195868,-0.00623852014541626,-0.003602117300033569,0.001120090484619141,XArbitraryZVertical,-0.2743432815152117,-0.5492454226254586,0.02276740936539303,0.7890163675509134,-0.8542351126670837,0.4579324722290039,-0.2461304664611816,0,0,0,-1,-1,29965.0025325,unknown,2,2025-04-22T12:20:42.742+03:00,2025-04-21T17:08:51.449+03:00,7264,0.976367,0,0,6055.744,5,20,2025-04-22T12:20:40.163+03:00,767006414.4773123,0,-20.82999,100.4528,1,0.85,2025-04-22T12:20:02.679+03:00,82,1.366666666666667,2025-04-22T09:54:17.825+03:00,0.02225348692287972,0
2025-04-22T12:20:47.990+03:00,1745313647.224662,40.95219657099274,29.14025835744745,76.12379,-1,-1,-1,-1,30,22.47268558134142,-9999,29970.24606429167,-0.84906005859375,0.46240234375,-0.2404632568359375,29970.23598729167,-0.3035265957856377,-1.290420396248709,-0.4757834551819728,-0.02809019386768341,0.0007743434980511665,0.002001633401960135,-0.0009410381317138672,0.002154648303985596,0.003643006086349487,XArbitraryZVertical,-0.2744723640664304,-0.5492480219587881,0.02269762450521411,0.7889715572803072,-0.8542224168777466,0.45803502202034,-0.2459830641746521,0,0,0,-1,-1,29965.0025325,unknown,2,2025-04-22T12:20:42.742+03:00,2025-04-21T17:08:51.449+03:00,7264,0.976367,0,0,6055.744,5,20,2025-04-22T12:20:40.163+03:00,767006414.4773123,0,-20.82999,100.4528,1,0.85,2025-04-22T12:20:02.679+03:00,82,1.366666666666667,2025-04-22T09:54:17.825+03:00,0.02225348692287972,0
2025-04-22T12:20:48.001+03:00,1745313647.224662,40.95219657099274,29.14025835744745,76.12379,-1,-1,-1,-1,30,22.47268558134142,-9999,29970.25614029167,-0.8558197021484375,0.4630126953125,-0.243804931640625,29970.24606429167,-0.3038240087347764,-1.290534485957203,-0.4758676902157509,-0.02521957270801067,0.006169641390442848,-0.004423775244504213,0.004817783832550049,0.004368722438812256,0.006220430135726929,XArbitraryZVertical,-0.2745841345070503,-0.5492413460440784,0.02262145090179703,0.7889396705420967,-0.8542135953903198,0.4581099152565002,-0.2458750009536743,0,0,0,-1,-1,29965.0025325,unknown,2,2025-04-22T12:20:42.742+03:00,2025-04-21T17:08:51.449+03:00,7264,0.976367,0,0,6055.744,5,20,2025-04-22T12:20:40.163+03:00,767006414.4773123,0,-20.82999,100.4528,1,0.85,2025-04-22T12:20:02.679+03:00,82,1.366666666666667,2025-04-22T09:54:17.825+03:00,0.02225348692287972,0
2025-04-22T12:20:48.011+03:00,1745313647.224662,40.95219657099274,29.14025835744745,76.12379,-1,-1,-1,-1,30,22.47268558134142,-9999,29970.26621729167,-0.8573150634765625,0.458221435546875,-0.245635986328125,29970.25614029167,-0.3041129522111037,-1.29059284391528,-0.4758530809039715,-0.02298131957650185,0.012735266238451,-0.004265783354640007,0.00131380558013916,0.005327671766281128,0.002510368824005127,XArbitraryZVertical,-0.2746573828320818,-0.5492265756852799,0.02251106572569133,0.7889275790746069,-0.8542343378067017,0.4580969214439392,-0.2458269745111465,0,0,0,-1,-1,29965.0025325,unknown,2,2025-04-22T12:20:42.742+03:00,2025-04-21T17:08:51.449+03:00,7264,0.976367,0,0,6055.744,5,20,2025-04-22T12:20:40.163+03:00,767006414.4773123,0,-20.82999,100.4528,1,0.85,2025-04-22T12:20:02.679+03:00,82,1.366666666666667,2025-04-22T09:54:17.825+03:00,0.02225348692287972,0
2025-04-22T12:20:48.021+03:00,1745313647.224662,40.95219657099274,29.14025835744745,76.12379,-1,-1,-1,-1,30,22.47268558134142,-9999,29970.27629329167,-0.85418701171875,0.4528045654296875,-0.24774169921875,29970.26621729167,-0.3043573557258821,-1.290573591254282,-0.4758193385855383,-0.01994711346924305,0.01535508409142494,-0.002639091107994318,-0.003650426864624023,0.001970231533050537,0.001340866088867188,XArbitraryZVertical,-0.2747121350306462,-0.5491897650241926,0.02240179271051682,0.7889372175548162,-0.8542444109916687,0.4580669403076172,-0.245847687125206,0,0,0,-1,-1,29965.0025325,unknown,2,2025-04-22T12:20:42.742+03:00,2025-04-21T17:08:51.449+03:00,7264,0.976367,0,0,6055.744,5,20,2025-04-22T12:20:40.163+03:00,767006414.4773123,0,-20.82999,100.4528,1,0.85,2025-04-22T12:20:02.679+03:00,82,1.366666666666667,2025-04-22T09:54:17.825+03:00,0.02225348692287972,0
2025-04-22T12:20:48.031+03:00,1745313647.224662,40.95219657099274,29.14025835744745,76.12379,-1,-1,-1,-1,30,22.47268558134142,-9999,29970.28637029167,-0.852508544921875,0.4476776123046875,-0.2484893798828125,29970.27629329167,-0.3046162735104062,-1.290515999428774,-0.4757980480705878,-0.0269149411469698,0.01506539806723595,-0.003561576828360558,-0.0007102489471435547,-0.003168314695358276,-0.0009875893592834473,XArbitraryZVertical,-0.2747759272205795,-0.5491342221217266,0.02228528608597981,0.7889569834515834,-0.8542396426200867,0.4580479860305786,-0.2458995878696442,0,0,0,-1,-1,29965.0025325,unknown,2,2025-04-22T12:20:42.742+03:00,2025-04-21T17:08:51.449+03:00,7264,0.976367,0,0,6055.744,5,20,2025-04-22T12:20:40.163+03:00,767006414.4773123,0,-20.82999,100.4528,1,0.85,2025-04-22T12:20:02.679+03:00,82,1.366666666666667,2025-04-22T09:54:17.825+03:00,0.02225348692287972,0
2025-04-22T12:20:48.041+03:00,1745313647.224662,40.95219657099274,29.14025835744745,76.12379,-1,-1,-1,-1,30,22.47268558134142,-9999,29970.29644629167,-0.851104736328125,0.44305419921875,-0.244110107421875,29970.28637029167,-0.3049401972677725,-1.29048050331635,-0.4758737004090409,-0.0356873944401741,0.01533650793135166,0.003510713577270508,0.00110924243927002,-0.009400129318237305,-0.001928195357322693,XArbitraryZVertical,-0.2748934843468337,-0.549065953158114,0.02217557542508441,0.788966573825856,-0.8541975021362305,0.4581152498722076,-0.2459203004837036,0,0,0,-1,-1,29965.0025325,unknown,2,2025-04-22T12:20:42.742+03:00,2025-04-21T17:08:51.449+03:00,7264,0.976367,0,0,6055.744,5,20,2025-04-22T12:20:40.163+03:00,767006414.4773123,0,-20.82999,100.4528,1,0.85,2025-04-22T12:20:02.679+03:00,82,1.366666666666667,2025-04-22T09:54:17.825+03:00,0.02225348692287972,0
2025-04-22T12:20:48.051+03:00,1745313647.224662,40.95219657099274,29.14025835744745,76.12379,-1,-1,-1,-1,30,22.47268558134142,-9999,29970.30652329167,-0.8511810302734375,0.444122314453125,-0.2399749755859375,29970.29644629167,-0.3053993066034842,-1.290518034546098,-0.4759976403224231,-0.05091201886534691,0.01463010441511869,0.003865779377520084,0.002727150917053223,-0.01355385780334473,-0.0006789565086364746,XArbitraryZVertical,-0.275065306154407,-0.5490016340907914,0.0220371761554199,0.7889554090733347,-0.8541523218154907,0.4582253992557526,-0.2458725720643997,0,0,0,-1,-1,29965.0025325,unknown,2,2025-04-22T12:20:42.742+03:00,2025-04-21T17:08:51.449+03:00,7264,0.976367,0,0,6055.744,5,20,2025-04-22T12:20:40.163+03:00,767006414.4773123,0,-20.82999,100.4528,1,0.85,2025-04-22T12:20:02.679+03:00,82,1.366666666666667,2025-04-22T09:54:17.825+03:00,0.02225348692287972,0
2025-04-22T12:20:48.061+03:00,1745313647.224662,40.95219657099274,29.14025835744745,76.12379,-1,-1,-1,-1,30,22.47268558134142,-9999,29970.31659929167,-0.8495330810546875,0.448211669921875,-0.236114501953125,29970.30652329167,-0.3060134422788026,-1.290677988724713,-0.476170867089602,-0.06396710127592087,0.01186920516192913,0.007503923960030079,0.002384960651397705,-0.01489794254302979,0.005128651857376099,XArbitraryZVertical,-0.2752967074430195,-0.5489578499464866,0.02186943607311482,0.7889098708342477,-0.85411536693573,0.4583793878555298,-0.245714008808136,0,0,0,-1,-1,29970.16168229167,unknown,2,2025-04-22T12:20:47.902+03:00,2025-04-21T17:08:51.449+03:00,7264,0.976367,0,0,6055.744,5,20,2025-04-22T12:20:40.163+03:00,767006447.992437,0,-20.97,100.456,1,0.85,2025-04-22T12:20:02.679+03:00,82,1.366666666666667,2025-04-22T09:54:17.825+03:00,0.02225348692287972,0
2025-04-22T12:20:48.071+03:00,1745313647.224662,40.95219657099274,29.14025835744745,76.12379,-1,-1,-1,-1,30,22.47268558134142,-9999,29970.32667629167,-0.8541259765625,0.4537200927734375,-0.2379608154296875,29970.31659929167,-0.3067443823904932,-1.290911732337464,-0.476426005408789,-0.07115077972412109,0.01235756278038025,0.002365987282246351,0.004481494426727295,-0.01236289739608765,0.008284151554107666,XArbitraryZVertical,-0.2755899016689466,-0.5489163814435798,0.02169069087188513,0.7888412533650339,-0.8540602922439575,0.4586061239242554,-0.2454820275306702,0,0,0,-1,-1,29970.16168229167,unknown,2,2025-04-22T12:20:47.902+03:00,2025-04-21T17:08:51.449+03:00,7264,0.976367,0,0,6055.744,5,20,2025-04-22T12:20:40.163+03:00,767006447.992437,0,-20.97,100.456,1,0.85,2025-04-22T12:20:02.679+03:00,82,1.366666666666667,2025-04-22T09:54:17.825+03:00,0.02225348692287972,0
2025-04-22T12:20:48.081+03:00,1745313647.224662,40.95219657099274,29.14025835744745,76.12379,-1,-1,-1,-1,30,22.47268558134142,-9999,29970.33675229167,-0.8583984375,0.4606781005859375,-0.2389373779296875,29970.32667629167,-0.3075407354698981,-1.291141232133376,-0.4766916681446288,-0.07223229110240936,0.01953504793345928,0.000895123346708715,0.002818405628204346,-0.007548332214355469,0.00864960253238678,XArbitraryZVertical,-0.2759050105459767,-0.5488626955786036,0.02148884747271046,0.7887738716290119,-0.8539993166923523,0.4588421881198883,-0.245252326130867,0,0,0,-1,-1,29970.16168229167,unknown,2,2025-04-22T12:20:47.902+03:00,2025-04-21T17:08:51.449+03:00,7264,0.976367,0,0,6055.744,5,20,2025-04-22T12:20:40.163+03:00,767006447.992437,0,-20.97,100.456,1,0.85,2025-04-22T12:20:02.679+03:00,82,1.366666666666667,2025-04-22T09:54:17.825+03:00,0.02225348692287972,0
2025-04-22T12:20:48.091+03:00,1745313647.224662,40.95219657099274,29.14025835744745,76.12379,-1,-1,-1,-1,30,22.47268558134142,-9999,29970.34682929167,-0.858245849609375,0.4605255126953125,-0.2396087646484375,29970.33675229167,-0.3083419678986041,-1.291307307060541,-0.476913267934728,-0.07201237976551056,0.02240187302231789,-0.006695584859699011,-0.002670705318450928,-0.000176846981048584,0.006404519081115723,XArbitraryZVertical,-0.2762056534301469,-0.5487888491190979,0.02126298655394303,0.7887262245981429,-0.8539423942565918,0.4590390622615814,-0.2450824677944183,0,0,0,-1,-1,29970.16168229167,unknown,2,2025-04-22T12:20:47.902+03:00,2025-04-21T17:08:51.449+03:00,7264,0.976367,0,0,6055.744,5,20,2025-04-22T12:20:40.163+03:00,767006447.992437,0,-20.97,100.456,1,0.85,2025-04-22T12:20:02.679+03:00,82,1.366666666666667,2025-04-22T09:54:17.825+03:00,0.02225348692287972,0
2025-04-22T12:20:48.101+03:00,1745313647.224662,40.95219657099274,29.14025835744745,76.12379,-1,-1,-1,-1,30,22.47268558134142,-9999,29970.35690629167,-0.8586578369140625,0.457550048828125,-0.239410400390625,29970.34682929167,-0.3091855958085165,-1.291453049828832,-0.4770388767189179,-0.07967615872621536,0.02846216224133968,-0.01124506257474422,-0.004185736179351807,0.002046167850494385,0.005287587642669678,XArbitraryZVertical,-0.2764823644303297,-0.5487134384716387,0.02098853374927277,0.7886891328889002,-0.8539227247238159,0.459150642156601,-0.2449421286582947,0,0,0,-1,-1,29970.16168229167,unknown,2,2025-04-22T12:20:47.902+03:00,2025-04-21T17:08:51.449+03:00,7264,0.976367,0,0,6055.744,5,20,2025-04-22T12:20:40.163+03:00,767006447.992437,0,-20.97,100.456,1,0.85,2025-04-22T12:20:02.679+03:00,82,1.366666666666667,2025-04-22T09:54:17.825+03:00,0.02225348692287972,0
2025-04-22T12:20:48.111+03:00,1745313647.224662,40.95219657099274,29.14025835744745,76.12379,-1,-1,-1,-1,30,22.47268558134142,-9999,29970.36698229167,-0.86126708984375,0.4497222900390625,-0.2389678955078125,29970.35690629167,-0.3101145061497159,-1.291533928778902,-0.477118666544837,-0.08581241220235825,0.03925215825438499,-0.01322835218161345,-0.003529787063598633,0.0004036426544189453,0.005757749080657959,XArbitraryZVertical,-0.2767660730036888,-0.5486064757226039,0.02065763325025603,0.7886727346724843,-0.8539072871208191,0.4592215418815613,-0.2448629438877106,0,0,0,-1,-1,29970.16168229167,unknown,2,2025-04-22T12:20:47.902+03:00,2025-04-21T17:08:51.449+03:00,7264,0.976367,0,0,6055.744,5,20,2025-04-22T12:20:40.163+03:00,767006447.992437,0,-20.97,100.456,1,0.85,2025-04-22T12:20:02.679+03:00,82,1.366666666666667,2025-04-22T09:54:17.825+03:00,0.02225348692287972,0
2025-04-22T12:20:48.122+03:00,1745313647.224662,40.95219657099274,29.14025835744745,76.12379,-1,-1,-1,-1,30,22.47268558134142,-9999,29970.37705929167,-0.859649658203125,0.446533203125,-0.238433837890625,29970.36698229167,-0.3111205543605958,-1.291574689910104,-0.4771708996109078,-0.09661579132080078,0.04382800310850143,-0.01408269442617893,-0.006747305393218994,-0.006661802530288696,0.006357192993164062,XArbitraryZVertical,-0.277061046143207,-0.548476453931016,0.0202824217763089,0.7886692802007209,-0.8538941144943237,0.4592679440975189,-0.2448215186595917,0,0,0,-1,-1,29970.16168229167,unknown,2,2025-04-22T12:20:47.902+03:00,2025-04-21T17:08:51.449+03:00,7264,0.976367,0,0,6055.744,5,20,2025-04-22T12:20:40.163+03:00,767006447.992437,0,-20.97,100.456,1,0.85,2025-04-22T12:20:02.679+03:00,82,1.366666666666667,2025-04-22T09:54:17.825+03:00,0.02225348692287972,0
2025-04-22T12:20:48.132+03:00,1745313647.224662,40.95219657099274,29.14025835744745,76.12379,-1,-1,-1,-1,30,22.47268558134142,-9999,29970.38713529167,-0.858306884765625,0.441741943359375,-0.236175537109375,29970.37705929167,-0.3122984413208124,-1.291646776715417,-0.477237493833563,-0.1129105389118195,0.04671147465705872,-0.01340941339731216,-0.006133437156677246,-0.011985182762146,0.006241410970687866,XArbitraryZVertical,-0.2774080678892828,-0.5483329084264988,0.01984811885927144,0.7886582707251043,-0.8538824915885925,0.4593271017074585,-0.2447515726089478,0,0,0,-1,-1,29970.16168229167,unknown,2,2025-04-22T12:20:47.902+03:00,2025-04-21T17:08:51.449+03:00,7264,0.976367,0,0,6055.744,5,20,2025-04-22T12:20:40.163+03:00,767006447.992437,0,-20.97,100.456,1,0.85,2025-04-22T12:20:02.679+03:00,82,1.366666666666667,2025-04-22T09:54:17.825+03:00,0.02225348692287972,0
2025-04-22T12:20:48.142+03:00,1745313647.224662,40.95219657099274,29.14025835744745,76.12379,-1,-1,-1,-1,30,22.47268558134142,-9999,29970.39721229167,-0.85723876953125,0.4367828369140625,-0.2347869873046875,29970.38713529167,-0.3136997827014505,-1.291823128876007,-0.4773707303896632,-0.1349982768297195,0.05095229297876358,-0.01174973137676716,-0.005508244037628174,-0.01564362645149231,0.007813453674316406,XArbitraryZVertical,-0.2778400908510394,-0.5481905094575918,0.01936048834898238,0.7886172222233128,-0.8538666963577271,0.45944544672966,-0.2445840984582901,0,0,0,-1,-1,29970.16168229167,unknown,2,2025-04-22T12:20:47.902+03:00,2025-04-21T17:08:51.449+03:00,7264,0.976367,0,0,6055.744,5,20,2025-04-22T12:20:40.163+03:00,767006447.992437,0,-20.97,100.456,1,0.85,2025-04-22T12:20:02.679+03:00,82,1.366666666666667,2025-04-22T09:54:17.825+03:00,0.02225348692287972,0
2025-04-22T12:20:48.152+03:00,1745313647.224662,40.95219657099274,29.14025835744745,76.12379,-1,-1,-1,-1,30,22.47268558134142,-9999,29970.40728829167,-0.857391357421875,0.4379425048828125,-0.2332305908203125,29970.39721229167,-0.3153574237901619,-1.292063860945523,-0.4776079184458281,-0.1581241488456726,0.05709373950958252,-0.01292608305811882,-0.003524720668792725,-0.02102702856063843,0.009820997714996338,XArbitraryZVertical,-0.2783802999311031,-0.5480238373920397,0.01881237252312368,0.7885558625322132,-0.8538208603858948,0.4596560895442963,-0.2443485707044601,0,0,0,-1,-1,29970.16168229167,unknown,2,2025-04-22T12:20:47.902+03:00,2025-04-21T17:08:51.449+03:00,7264,0.976367,0,0,6055.744,5,20,2025-04-22T12:20:40.163+03:00,767006447.992437,0,-20.97,100.456,1,0.85,2025-04-22T12:20:02.679+03:00,82,1.366666666666667,2025-04-22T09:54:17.825+03:00,0.02225348692287972,0
2025-04-22T12:20:48.162+03:00,1745313647.224662,40.95219657099274,29.14025835744745,76.12379,-1,-1,-1,-1,30,22.47268558134142,-9999,29970.41736529167,-0.8590850830078125,0.446044921875,-0.2315216064453125,29970.40728829167,-0.3172215699597052,-1.292361167662359,-0.477879831765897,-0.1754442900419235,0.06413780152797699,-0.01799780689179897,-0.003206074237823486,-0.02378618717193604,0.009929537773132324,XArbitraryZVertical,-0.2789893687482448,-0.5478455623627203,0.0182014303159046,0.7884788171971208,-0.8537732362747192,0.4598975479602814,-0.2440603375434875,0,0,0,-1,-1,29970.16168229167,unknown,2,2025-04-22T12:20:47.902+03:00,2025-04-21T17:08:51.449+03:00,7264,0.976367,0,0,6055.744,5,20,2025-04-22T12:20:40.163+03:00,767006447.992437,0,-20.97,100.456,1,0.85,2025-04-22T12:20:02.679+03:00,82,1.366666666666667,2025-04-22T09:54:17.825+03:00,0.02225348692287972,0
2025-04-22T12:20:48.172+03:00,1745313647.224662,40.95219657099274,29.14025835744745,76.12379,-1,-1,-1,-1,30,22.47268558134142,-9999,29970.42744129167,-0.8599853515625,0.4440765380859375,-0.2284698486328125,29970.41736529167,-0.3193044344143344,-1.292639409974272,-0.4781913471859277,-0.1880845874547958,0.07921089231967926,-0.02384524419903755,-0.004710376262664795,-0.01721161603927612,0.01114793121814728,XArbitraryZVertical,-0.2796730962329215,-0.5476232807542825,0.01751384264786753,0.788406509711688,-0.8537032008171082,0.4601741433143616,-0.2437833994626999,0,0,0,-1,-1,29970.16168229167,unknown,2,2025-04-22T12:20:47.902+03:00,2025-04-21T17:08:51.449+03:00,7264,0.976367,0,0,6055.744,5,20,2025-04-22T12:20:40.163+03:00,767006447.992437,0,-20.97,100.456,1,0.85,2025-04-22T12:20:02.679+03:00,82,1.366666666666667,2025-04-22T09:54:17.825+03:00,0.02225348692287972,0
2025-04-22T12:20:48.182+03:00,1745313647.224662,40.95219657099274,29.14025835744745,76.12379,-1,-1,-1,-1,30,22.47268558134142,-9999,29970.43751829167,-0.8618621826171875,0.440032958984375,-0.2254180908203125,29970.42744129167,-0.3215143635447518,-1.292860652731777,-0.4784776220223663,-0.1988818347454071,0.08685204386711121,-0.02767513692378998,-0.006354868412017822,-0.014841228723526,0.01409673690795898,XArbitraryZVertical,-0.2803824865682649,-0.5473632003639142,0.01676068490583158,0.788351548912496,-0.8536304235458374,0.4604282975196838,-0.2435583770275116,0,0,0,-1,-1,29970.16168229167,unknown,2,2025-04-22T12:20:47.902+03:00,2025-04-21T17:08:51.449+03:00,7264,0.976367,0,0,6055.744,5,20,2025-04-22T12:20:40.163+03:00,767006447.992437,0,-20.97,100.456,1,0.85,2025-04-22T12:20:02.679+03:00,82,1.366666666666667,2025-04-22T09:54:17.825+03:00,0.02225348692287972,0
2025-04-22T12:20:48.192+03:00,1745313647.224662,40.95219657099274,29.14025835744745,76.12379,-1,-1,-1,-1,30,22.47268558134142,-9999,29970.44759429167,-0.865875244140625,0.440185546875,-0.2238616943359375,29970.43751829167,-0.3238909147772109,-1.293024722354592,-0.4787423443409545,-0.2141368240118027,0.1023914441466331,-0.03263081237673759,-0.007210314273834229,-0.02003532648086548,0.01668508350849152,XArbitraryZVertical,-0.2811296550694522,-0.5470591126162889,0.01592743458090165,0.7883138118037007,-0.8535531759262085,0.4606632888317108,-0.2433848828077316,0,0,0,-1,-1,29970.16168229167,unknown,2,2025-04-22T12:20:47.902+03:00,2025-04-21T17:08:51.449+03:00,7264,0.976367,0,0,6055.744,5,20,2025-04-22T12:20:40.163+03:00,767006447.992437,0,-20.97,100.456,1,0.85,2025-04-22T12:20:02.679+03:00,82,1.366666666666667,2025-04-22T09:54:17.825+03:00,0.02225348692287972,0
2025-04-22T12:20:48.206+03:00,1745313647.224662,40.95219657099274,29.14025835744745,76.12379,-1,-1,-1,-1,30,22.47268558134142,-9999,29970.45767129167,-0.8692626953125,0.4353790283203125,-0.22601318359375,29970.44759429167,-0.3264572732390973,-1.293132586547395,-0.4789485845556685,-0.2365832775831223,0.1209624707698822,-0.040861576795578,-0.01139527559280396,-0.02125594019889832,0.01938986778259277,XArbitraryZVertical,-0.2819070862146585,-0.5467129060787589,0.01499378577357254,0.7882947071162492,-0.8534880876541138,0.460846334695816,-0.2432667911052704,0,0,0,-1,-1,29970.16168229167,unknown,2,2025-04-22T12:20:47.902+03:00,2025-04-21T17:08:51.449+03:00,7264,0.976367,0,0,6055.744,5,20,2025-04-22T12:20:40.163+03:00,767006447.992437,0,-20.97,100.456,1,0.85,2025-04-22T12:20:02.679+03:00,82,1.366666666666667,2025-04-22T09:54:17.825+03:00,0.02225348692287972,0
2025-04-22T12:20:48.212+03:00,1745313647.224662,40.95219657099274,29.14025835744745,76.12379,-1,-1,-1,-1,30,22.47268558134142,-9999,29970.46774729167,-0.86993408203125,0.42462158203125,-0.2234954833984375,29970.45767129167,-0.3293583265207051,-1.293240276975288,-0.4791611840826748,-0.268770694732666,0.1308654993772507,-0.04286104813218117,-0.01524758338928223,-0.02240586280822754,0.01753160357475281,XArbitraryZVertical,-0.282777862620184,-0.5463173602408915,0.01393020779660532,0.7882766261815106,-0.853420078754425,0.4610349833965302,-0.2431480437517166,0,0,0,-1,-1,29970.16168229167,unknown,2,2025-04-22T12:20:47.902+03:00,2025-04-21T17:08:51.449+03:00,7264,0.976367,0,0,6055.744,5,20,2025-04-22T12:20:40.163+03:00,767006447.992437,0,-20.97,100.456,1,0.85,2025-04-22T12:20:02.679+03:00,82,1.366666666666667,2025-04-22T09:54:17.825+03:00,0.02225348692287972,0
2025-04-22T12:20:48.242+03:00,1745313647.224662,40.95219657099274,29.14025835744745,76.12379,-1,-1,-1,-1,30,22.47268558134142,-9999,29970.47782429167,-0.8690032958984375,0.42401123046875,-0.2232818603515625,29970.46774729167,-0.3326383292415032,-1.293432342174595,-0.4793873833935169,-0.3001779019832611,0.1420912593603134,-0.0490502342581749,-0.01603364944458008,-0.03371506929397583,0.01866663992404938,XArbitraryZVertical,-0.2837560502220174,-0.5458981074717547,0.01273352417972058,0.788235682113109,-0.8533663153648376,0.4612357020378113,-0.2429555207490921,0,0,0,-1,-1,29970.16168229167,unknown,2,2025-04-22T12:20:47.902+03:00,2025-04-21T17:08:51.449+03:00,7264,0.976367,0,0,6055.744,5,20,2025-04-22T12:20:40.163+03:00,767006447.992437,0,-20.97,100.456,1,0.85,2025-04-22T12:20:02.679+03:00,82,1.366666666666667,2025-04-22T09:54:17.825+03:00,0.02225348692287972,0
2025-04-22T12:20:48.243+03:00,1745313647.224662,40.95219657099274,29.14025835744745,76.12379,-1,-1,-1,-1,30,22.47268558134142,-9999,29970.48790029167,-0.8667449951171875,0.4267578125,-0.2218780517578125,29970.47782429167,-0.3362682841868734,-1.293693691742569,-0.4796006764273186,-0.32773157954216,0.1464332044124603,-0.0564742237329483,-0.01679718494415283,-0.03903120756149292,0.01989680528640747,XArbitraryZVertical,-0.2848238224297044,-0.5454563128243785,0.0114049943684147,0.7881768536245607,-0.8533352613449097,0.4614249467849731,-0.2427055984735489,0,0,0,-1,-1,29970.16168229167,unknown,2,2025-04-22T12:20:47.902+03:00,2025-04-21T17:08:51.449+03:00,7264,0.976367,0,0,6055.744,5,20,2025-04-22T12:20:40.163+03:00,767006447.992437,0,-20.97,100.456,1,0.85,2025-04-22T12:20:02.679+03:00,82,1.366666666666667,2025-04-22T09:54:17.825+03:00,0.02225348692287972,0
2025-04-22T12:20:48.244+03:00,1745313647.224662,40.95219657099274,29.14025835744745,76.12379,-1,-1,-1,-1,30,22.47268558134142,-9999,29970.49797729167,-0.8636932373046875,0.4251251220703125,-0.2157440185546875,29970.48790029167,-0.3402659004160589,-1.29412090185649,-0.4798345007958292,-0.3622104525566101,0.1443189233541489,-0.06279097497463226,-0.01427978277206421,-0.03514930605888367,0.01919752359390259,XArbitraryZVertical,-0.2859978997998703,-0.5450224280610688,0.009961883482945268,0.7880712983064336,-0.853334903717041,0.4616323709487915,-0.2423115074634552,0,0,0,-1,-1,29970.16168229167,unknown,2,2025-04-22T12:20:47.902+03:00,2025-04-21T17:08:51.449+03:00,7264,0.976367,0,0,6055.744,5,20,2025-04-22T12:20:40.163+03:00,767006447.992437,0,-20.97,100.456,1,0.85,2025-04-22T12:20:02.679+03:00,82,1.366666666666667,2025-04-22T09:54:17.825+03:00,0.02225348692287972,0
2025-04-22T12:20:48.253+03:00,1745313647.224662,40.95219657099274,29.14025835744745,76.12379,-1,-1,-1,-1,30,22.47268558134142,-9999,29970.50805329167,-0.8658294677734375,0.4255218505859375,-0.2114105224609375,29970.49797729167,-0.344610621840547,-1.294721830682976,-0.4801003953440676,-0.3896372616291046,0.1451338529586792,-0.07108139991760254,-0.0109260082244873,-0.03567510843276978,0.02327461540699005,XArbitraryZVertical,-0.2872769359649532,-0.5446001841980312,0.008417223480891188,0.7879159859070153,-0.8533622622489929,0.4618682265281677,-0.2417652010917664,0,0,0,-1,-1,29970.16168229167,unknown,2,2025-04-22T12:20:47.902+03:00,2025-04-21T17:08:51.449+03:00,7264,0.976367,0,0,6055.744,5,20,2025-04-22T12:20:40.163+03:00,767006447.992437,0,-20.97,100.456,1,0.85,2025-04-22T12:20:02.679+03:00,82,1.366666666666667,2025-04-22T09:54:17.825+03:00,0.02225348692287972,0
2025-04-22T12:20:48.263+03:00,1745313647.224662,40.95219657099274,29.14025835744745,76.12379,-1,-1,-1,-1,30,22.47268558134142,-9999,29970.51813029167,-0.872650146484375,0.430694580078125,-0.21240234375,29970.50805329167,-0.3493283097769259,-1.295466824519963,-0.4803688699409372,-0.4187336266040802,0.155290886759758,-0.0830371305346489,-0.01094180345535278,-0.03675234317779541,0.02834239602088928,XArbitraryZVertical,-0.2886573234860373,-0.5441774509230567,0.006747992341884271,0.7877196979586225,-0.8534228801727295,0.462106317281723,-0.241095706820488,0,0,0,-1,-1,29970.16168229167,unknown,2,2025-04-22T12:20:47.902+03:00,2025-04-21T17:08:51.449+03:00,7264,0.976367,0,0,6055.744,5,20,2025-04-22T12:20:40.163+03:00,767006447.992437,0,-20.97,100.456,1,0.85,2025-04-22T12:20:02.679+03:00,82,1.366666666666667,2025-04-22T09:54:17.825+03:00,0.02225348692287972,0
2025-04-22T12:20:48.273+03:00,1745313647.224662,40.95219657099274,29.14025835744745,76.12379,-1,-1,-1,-1,30,22.47268558134142,-9999,29970.52820629167,-0.8752593994140625,0.43646240234375,-0.2122039794921875,29970.51813029167,-0.3543311191714359,-1.296230972571855,-0.4805669542387067,-0.4386080801486969,0.1695448607206345,-0.09407570213079453,-0.01598811149597168,-0.03381529450416565,0.02914547920227051,XArbitraryZVertical,-0.2900887752897743,-0.5437271161904175,0.004948862547168784,0.7875181051911584,-0.8535186648368835,0.4622819721698761,-0.2404186576604843,0,0,0,-1,-1,29970.16168229167,unknown,2,2025-04-22T12:20:47.902+03:00,2025-04-21T17:08:51.449+03:00,7264,0.976367,0,0,6055.744,5,20,2025-04-22T12:20:40.163+03:00,767006447.992437,0,-20.97,100.456,1,0.85,2025-04-22T12:20:02.679+03:00,82,1.366666666666667,2025-04-22T09:54:17.825+03:00,0.02225348692287972,0
2025-04-22T12:20:48.283+03:00,1745313647.224662,40.95219657099274,29.14025835744745,76.12379,-1,-1,-1,-1,30,22.47268558134142,-9999,29970.53828329167,-0.8770599365234375,0.43280029296875,-0.2084197998046875,29970.52820629167,-0.3595328517383116,-1.296845854870889,-0.48082957240292,-0.4607037901878357,0.1859547197818756,-0.1048164963722229,-0.02140474319458008,-0.02818876504898071,0.02646678686141968,XArbitraryZVertical,-0.2915976832356663,-0.5431761406379655,0.003070471457620649,0.7873506131852351,-0.8535494208335876,0.4625148475170135,-0.239860936999321,0,0,0,-1,-1,29970.16168229167,unknown,2,2025-04-22T12:20:47.902+03:00,2025-04-21T17:08:51.449+03:00,7264,0.976367,0,0,6055.744,5,20,2025-04-22T12:20:40.163+03:00,767006447.992437,0,-20.97,100.456,1,0.85,2025-04-22T12:20:02.679+03:00,82,1.366666666666667,2025-04-22T09:54:17.825+03:00,0.02225348692287972,0
2025-04-22T12:20:48.293+03:00,1745313647.224662,40.95219657099274,29.14025835744745,76.12379,-1,-1,-1,-1,30,22.47268558134142,-9999,29970.54835929167,-0.8766937255859375,0.4234161376953125,-0.206390380859375,29970.53828329167,-0.3650914375405978,-1.297455435202841,-0.4810618513135825,-0.4939977526664734,0.2026573419570923,-0.1141656190156937,-0.02281171083450317,-0.0269756019115448,0.0303119421005249,XArbitraryZVertical,-0.2931912754807278,-0.5425708112196743,0.001042539561898062,0.7871814533454095,-0.8535920381546021,0.4627207815647125,-0.2393115758895874,0,0,0,-1,-1,29970.16168229167,unknown,2,2025-04-22T12:20:47.902+03:00,2025-04-21T17:08:51.449+03:00,7264,0.976367,0,0,6055.744,5,20,2025-04-22T12:20:40.163+03:00,767006447.992437,0,-20.97,100.456,1,0.85,2025-04-22T12:20:02.679+03:00,82,1.366666666666667,2025-04-22T09:54:17.825+03:00,0.02225348692287972,0
2025-04-22T12:20:48.316+03:00,1745313647.224662,40.95219657099274,29.14025835744745,76.12379,-1,-1,-1,-1,30,22.47268558134142,-9999,29970.55843629167,-0.8777008056640625,0.4136810302734375,-0.205230712890625,29970.54835929167,-0.3710807956239261,-1.298065063123768,-0.4813071965408144,-0.5318828821182251,0.2240254729986191,-0.1220352649688721,-0.02347725629806519,-0.03526505827903748,0.03204980492591858,XArbitraryZVertical,-0.2949052195520277,-0.5418954139738831,-0.001149861364563049,0.7870061901176344,-0.8536282777786255,0.4629382491111755,-0.2387605458498001,0,0,0,-1,-1,29970.16168229167,unknown,2,2025-04-22T12:20:47.902+03:00,2025-04-21T17:08:51.449+03:00,7264,0.976367,0,0,6055.744,5,20,2025-04-22T12:20:40.163+03:00,767006447.992437,0,-20.97,100.456,1,0.85,2025-04-22T12:20:02.679+03:00,82,1.366666666666667,2025-04-22T09:54:17.825+03:00,0.02225348692287972,0
2025-04-22T12:20:48.318+03:00,1745313647.224662,40.95219657099274,29.14025835744745,76.12379,-1,-1,-1,-1,30,22.47268558134142,-9999,29970.56851329167,-0.8810577392578125,0.41387939453125,-0.202667236328125,29970.55843629167,-0.3775027427227746,-1.29865164962508,-0.4816052452100283,-0.5684251189231873,0.249738022685051,-0.1252893805503845,-0.02340930700302124,-0.04593569040298462,0.03328187763690948,XArbitraryZVertical,-0.2967539702401568,-0.5411337569575605,-0.003498638928428611,0.7868283736850339,-0.8536352515220642,0.4632024168968201,-0.238222673535347,0,0,0,-1,-1,29970.16168229167,unknown,2,2025-04-22T12:20:47.902+03:00,2025-04-21T17:08:51.449+03:00,7264,0.976367,0,0,6055.744,5,20,2025-04-22T12:20:40.163+03:00,767006447.992437,0,-20.97,100.456,1,0.85,2025-04-22T12:20:02.679+03:00,82,1.366666666666667,2025-04-22T09:54:17.825+03:00,0.02225348692287972,0
2025-04-22T12:20:48.323+03:00,1745313647.224662,40.95219657099274,29.14025835744745,76.12379,-1,-1,-1,-1,30,22.47268558134142,-9999,29970.57858929167,-0.882354736328125,0.420684814453125,-0.2024993896484375,29970.56851329167,-0.3842956778613443,-1.299146157926508,-0.4819487626412117,-0.6007396578788757,0.2751666605472565,-0.1311025172472,-0.02709180116653442,-0.05110764503479004,0.03423614799976349,XArbitraryZVertical,-0.2987173648963937,-0.5402675539007631,-0.005991963010424136,0.7866656274447827,-0.8535996079444885,0.4635068476200104,-0.2377578169107437,0,0,0,-1,-1,29970.16168229167,unknown,2,2025-04-22T12:20:47.902+03:00,2025-04-21T17:08:51.449+03:00,7264,0.976367,0,0,6055.744,5,20,2025-04-22T12:20:40.163+03:00,767006447.992437,0,-20.97,100.456,1,0.85,2025-04-22T12:20:02.679+03:00,82,1.366666666666667,2025-04-22T09:54:17.825+03:00,0.02225348692287972,0
2025-04-22T12:20:48.333+03:00,1745313647.224662,40.95219657099274,29.14025835744745,76.12379,-1,-1,-1,-1,30,22.47268558134142,-9999,29970.58866629167,-0.8798370361328125,0.4226226806640625,-0.200653076171875,29970.57858929167,-0.3914523773042607,-1.299616167914346,-0.4823358625387669,-0.6324383616447449,0.2927582561969757,-0.132891058921814,-0.02898412942886353,-0.04594218730926514,0.0350838303565979,XArbitraryZVertical,-0.3007921128170615,-0.5393235018592124,-0.008617544839113759,0.7864985164784045,-0.853538453578949,0.463849812746048,-0.237308531999588,0,0,0,-1,-1,29970.16168229167,unknown,2,2025-04-22T12:20:47.902+03:00,2025-04-21T17:08:51.449+03:00,7264,0.976367,0,0,6055.744,5,20,2025-04-22T12:20:40.163+03:00,767006447.992437,0,-20.97,100.456,1,0.85,2025-04-22T12:20:02.679+03:00,82,1.366666666666667,2025-04-22T09:54:17.825+03:00,0.02225348692287972,0
2025-04-22T12:20:48.343+03:00,1745313647.224662,40.95219657099274,29.14025835744745,76.12379,-1,-1,-1,-1,30,22.47268558134142,-9999,29970.59874229167,-0.881103515625,0.4247894287109375,-0.2017974853515625,29970.58866629167,-0.3989625082124055,-1.300084840025441,-0.4827283468141885,-0.6618375778198242,0.3076700866222382,-0.1420864313840866,-0.02784299850463867,-0.04171222448348999,0.03501653671264648,XArbitraryZVertical,-0.3029609446070353,-0.5383166135600451,-0.01137943563658528,0.7863207627778419,-0.8534740805625916,0.4641974866390228,-0.2368597835302353,0,0,0,-1,-1,29970.16168229167,unknown,2,2025-04-22T12:20:47.902+03:00,2025-04-21T17:08:51.449+03:00,7264,0.976367,0,0,6055.744,5,20,2025-04-22T12:20:40.163+03:00,767006447.992437,0,-20.97,100.456,1,0.85,2025-04-22T12:20:02.679+03:00,82,1.366666666666667,2025-04-22T09:54:17.825+03:00,0.02225348692287972,0
2025-04-22T12:20:48.354+03:00,1745313647.224662,40.95219657099274,29.14025835744745,76.12379,-1,-1,-1,-1,30,22.47268558134142,-9999,29970.60881929167,-0.88623046875,0.431060791015625,-0.202239990234375,29970.59874229167,-0.4067714402565475,-1.300484779146762,-0.4831154860395567,-0.6814245581626892,0.3346575796604156,-0.1500200778245926,-0.02645671367645264,-0.04086488485336304,0.03474926948547363,XArbitraryZVertical,-0.3052042045440758,-0.5372291710692669,-0.01426962511224845,0.7861498316463962,-0.8533955216407776,0.4645403623580933,-0.2364704161882401,0,0,0,-1,-1,29970.16168229167,unknown,2,2025-04-22T12:20:47.902+03:00,2025-04-21T17:08:51.449+03:00,7264,0.976367,0,0,6055.744,5,20,2025-04-22T12:20:40.163+03:00,767006447.992437,0,-20.97,100.456,1,0.85,2025-04-22T12:20:02.679+03:00,82,1.366666666666667,2025-04-22T09:54:17.825+03:00,0.02225348692287972,0
2025-04-22T12:20:48.363+03:00,1745313647.224662,40.95219657099274,29.14025835744745,76.12379,-1,-1,-1,-1,30,22.47268558134142,-9999,29970.61889529167,-0.8878173828125,0.4361724853515625,-0.2043304443359375,29970.60881929167,-0.4148200897909278,-1.30075256152793,-0.4834656004808202,-0.701465368270874,0.3537133038043976,-0.1616242825984955,-0.0308380126953125,-0.03630742430686951,0.03443154692649841,XArbitraryZVertical,-0.3074932252213288,-0.5360491533866532,-0.01728446519885125,0.7860027027813014,-0.8533018827438354,0.4648503661155701,-0.2361984401941299,0,0,0,-1,-1,29970.16168229167,unknown,2,2025-04-22T12:20:47.902+03:00,2025-04-21T17:08:51.449+03:00,7264,0.976367,0,0,6055.744,5,20,2025-04-22T12:20:40.163+03:00,767006447.992437,0,-20.97,100.456,1,0.85,2025-04-22T12:20:02.679+03:00,82,1.366666666666667,2025-04-22T09:54:17.825+03:00,0.02225348692287972,0
2025-04-22T12:20:48.374+03:00,1745313647.224662,40.95219657099274,29.14025835744745,76.12379,-1,-1,-1,-1,30,22.47268558134142,-9999,29970.62897229167,-0.883758544921875,0.433135986328125,-0.201507568359375,29970.61889529167,-0.4231727228020846,-1.301011627880327,-0.4837923062950581,-0.7287581562995911,0.3653878569602966,-0.1691325008869171,-0.03453958034515381,-0.0298217236995697,0.03255255520343781,XArbitraryZVertical,-0.3098503207452288,-0.5348124249082207,-0.02042634882607076,0.7858441657854842,-0.8532166481018066,0.4651395976543427,-0.2359368950128555,0,0,0,-1,-1,29970.16168229167,unknown,2,2025-04-22T12:20:47.902+03:00,2025-04-21T17:08:51.449+03:00,7264,0.976367,0,0,6055.744,5,20,2025-04-22T12:20:40.163+03:00,767006447.992437,0,-20.97,100.456,1,0.85,2025-04-22T12:20:02.679+03:00,82,1.366666666666667,2025-04-22T09:54:17.825+03:00,0.02225348692287972,0
2025-04-22T12:20:48.384+03:00,1745313647.224662,40.95219657099274,29.14025835744745,76.12379,-1,-1,-1,-1,30,22.47268558134142,-9999,29970.63904829167,-0.8824310302734375,0.4276580810546875,-0.2014923095703125,29970.62897229167,-0.4318820552392781,-1.301295894709875,-0.4840825634375413,-0.7632109522819519,0.381279468536377,-0.1785283982753754,-0.03188669681549072,-0.03033807873725891,0.0323655754327774,XArbitraryZVertical,-0.3122846947518823,-0.5335251430016902,-0.0237145667749716,0.7856631684535047,-0.8531535267829895,0.465396523475647,-0.2356583774089813,0,0,0,-1,-1,29970.16168229167,unknown,2,2025-04-22T12:20:47.902+03:00,2025-04-21T17:08:51.449+03:00,7264,0.976367,0,0,6055.744,5,20,2025-04-22T12:20:40.163+03:00,767006447.992437,0,-20.97,100.456,1,0.85,2025-04-22T12:20:02.679+03:00,82,1.366666666666667,2025-04-22T09:54:17.825+03:00,0.02225348692287972,0
2025-04-22T12:20:48.394+03:00,1745313647.224662,40.95219657099274,29.14025835744745,76.12379,-1,-1,-1,-1,30,22.47268558134142,-9999,29970.64912529167,-0.883148193359375,0.4280853271484375,-0.204833984375,29970.63904829167,-0.4409663802746478,-1.30160923746049,-0.4843860561031756,-0.7940719127655029,0.3954408466815948,-0.1865323930978775,-0.02995014190673828,-0.03591674566268921,0.0353718101978302,XArbitraryZVertical,-0.3148186464745698,-0.5321771211261105,-0.02714019179414181,0.7854552369175114,-0.8530910611152649,0.4656651318073273,-0.2353534698486328,0,0,0,-1,-1,29970.16168229167,unknown,2,2025-04-22T12:20:47.902+03:00,2025-04-21T17:08:51.449+03:00,7264,0.976367,0,0,6055.744,5,20,2025-04-22T12:20:40.163+03:00,767006447.992437,0,-20.97,100.456,1,0.85,2025-04-22T12:20:02.679+03:00,82,1.366666666666667,2025-04-22T09:54:17.825+03:00,0.02225348692287972,0
2025-04-22T12:20:48.404+03:00,1745313647.224662,40.95219657099274,29.14025835744745,76.12379,-1,-1,-1,-1,30,22.47268558134142,-9999,29970.65920129167,-0.8828582763671875,0.4321441650390625,-0.20477294921875,29970.64912529167,-0.4504264868213323,-1.301956943148799,-0.4847147021299338,-0.8265007138252258,0.409591019153595,-0.1927034705877304,-0.02931398153305054,-0.03845053911209106,0.03118932247161865,XArbitraryZVertical,-0.3174560314467632,-0.5307669613196684,-0.0306987494574969,0.7852169421063174,-0.8530254364013672,0.4659559428691864,-0.2350161969661713,0,0,0,-1,-1,29970.16168229167,unknown,2,2025-04-22T12:20:47.902+03:00,2025-04-21T17:08:51.449+03:00,7264,0.976367,0,0,6055.744,5,20,2025-04-22T12:20:40.163+03:00,767006447.992437,0,-20.97,100.456,1,0.85,2025-04-22T12:20:02.679+03:00,82,1.366666666666667,2025-04-22T09:54:17.825+03:00,0.02225348692287972,0
2025-04-22T12:20:48.414+03:00,1745313647.224662,40.95219657099274,29.14025835744745,76.12379,-1,-1,-1,-1,30,22.47268558134142,-9999,29970.66927829167,-0.879058837890625,0.429931640625,-0.2054901123046875,29970.65920129167,-0.4602846706882029,-1.302347427607219,-0.4850631973358085,-0.8617334961891174,0.4234586358070374,-0.201294019818306,-0.03111839294433594,-0.03471529483795166,0.03015702962875366,XArbitraryZVertical,-0.3202003047719204,-0.5292936384106618,-0.03439887111201134,0.78494377960029,-0.8529605269432068,0.4662642776966095,-0.2346400171518326,0,0,0,-1,-1,29970.16168229167,unknown,2,2025-04-22T12:20:47.902+03:00,2025-04-21T17:08:51.449+03:00,7264,0.976367,0,0,6055.744,5,20,2025-04-22T12:20:40.163+03:00,767006447.992437,0,-20.97,100.456,1,0.85,2025-04-22T12:20:02.679+03:00,82,1.366666666666667,2025-04-22T09:54:17.825+03:00,0.02225348692287972,0
2025-04-22T12:20:48.424+03:00,1745313647.224662,40.95219657099274,29.14025835744745,76.12379,-1,-1,-1,-1,30,22.47268558134142,-9999,29970.67935429167,-0.8792877197265625,0.4256439208984375,-0.2027740478515625,29970.66927829167,-0.4705251761120282,-1.302812651353281,-0.4854257144589387,-0.8915966153144836,0.4324848651885986,-0.2050719857215881,-0.02789181470870972,-0.03566157817840576,0.02921181917190552,XArbitraryZVertical,-0.3230450641993666,-0.5277714393614823,-0.03823057735626544,0.7846257472509898,-0.8529065251350403,0.4665849506855011,-0.2341983914375305,0,0,0,-1,-1,29970.16168229167,unknown,2,2025-04-22T12:20:47.902+03:00,2025-04-21T17:08:51.449+03:00,7264,0.976367,0,0,6055.744,5,20,2025-04-22T12:20:40.163+03:00,767006447.992437,0,-20.97,100.456,1,0.85,2025-04-22T12:20:02.679+03:00,82,1.366666666666667,2025-04-22T09:54:17.825+03:00,0.02225348692287972,0
2025-04-22T12:20:48.434+03:00,1745313647.224662,40.95219657099274,29.14025835744745,76.12379,-1,-1,-1,-1,30,22.47268558134142,-9999,29970.68943129167,-0.8812408447265625,0.428436279296875,-0.2029266357421875,29970.67935429167,-0.4811109687436235,-1.30330819416148,-0.4858175846800212,-0.9227449297904968,0.4521227478981018,-0.2120370864868164,-0.02557188272476196,-0.04023477435112,0.02909174561500549,XArbitraryZVertical,-0.3259844895116192,-0.5261847753594132,-0.04218129820264544,0.7842732254536675,-0.8528461456298828,0.4669314920902252,-0.2337273955345154,0,0,0,-1,-1,29970.16168229167,unknown,2,2025-04-22T12:20:47.902+03:00,2025-04-21T17:08:51.449+03:00,7264,0.976367,0,0,6055.744,5,20,2025-04-22T12:20:40.163+03:00,767006447.992437,0,-20.97,100.456,1,0.85,2025-04-22T12:20:02.679+03:00,82,1.366666666666667,2025-04-22T09:54:17.825+03:00,0.02225348692287972,0
2025-04-22T12:20:48.444+03:00,1745313647.224662,40.95219657099274,29.14025835744745,76.12379,-1,-1,-1,-1,30,22.47268558134142,-9999,29970.69950829167,-0.8836822509765625,0.4285125732421875,-0.204833984375,29970.68943129167,-0.4920646970582135,-1.303708870626729,-0.4862118687301057,-0.9527435898780823,0.4831698834896088,-0.2192518562078476,-0.02811259031295776,-0.03989681601524353,0.03077657520771027,XArbitraryZVertical,-0.3290112944408086,-0.5244836184339297,-0.04628831390071209,0.7839169356769806,-0.8527619242668152,0.4672801196575165,-0.2333370000123978,0,0,0,-1,-1,29970.16168229167,unknown,2,2025-04-22T12:20:47.902+03:00,2025-04-21T17:08:51.449+03:00,7264,0.976367,0,0,6055.744,5,20,2025-04-22T12:20:40.163+03:00,767006447.992437,0,-20.97,100.456,1,0.85,2025-04-22T12:20:02.679+03:00,82,1.366666666666667,2025-04-22T09:54:17.825+03:00,0.02225348692287972,0
2025-04-22T12:20:48.454+03:00,1745313647.224662,40.95219657099274,29.14025835744745,76.12379,-1,-1,-1,-1,30,22.47268558134142,-9999,29970.70958429167,-0.878448486328125,0.4278106689453125,-0.20513916015625,29970.69950829167,-0.503365023456735,-1.304034822969665,-0.4866182022350037,-0.979102611541748,0.5022393465042114,-0.2264427244663239,-0.03085958957672119,-0.03819608688354492,0.0291668176651001,XArbitraryZVertical,-0.3321220989654114,-0.5226762124203649,-0.05053715071514328,0.7835498843170217,-0.852654755115509,0.4676393270492554,-0.2330089807510376,0,0,0,-1,-1,29970.16168229167,unknown,2,2025-04-22T12:20:47.902+03:00,2025-04-21T17:08:51.449+03:00,7264,0.976367,0,0,6055.744,5,20,2025-04-22T12:20:40.163+03:00,767006447.992437,0,-20.97,100.456,1,0.85,2025-04-22T12:20:02.679+03:00,82,1.366666666666667,2025-04-22T09:54:17.825+03:00,0.02225348692287972,0
2025-04-22T12:20:48.464+03:00,1745313647.224662,40.95219657099274,29.14025835744745,76.12379,-1,-1,-1,-1,30,22.47268558134142,-9999,29970.71966129167,-0.8754119873046875,0.43316650390625,-0.2049560546875,29970.70958429167,-0.5149725796492221,-1.304323097136333,-0.4870356158742469,-1.007776021957397,0.5186548233032227,-0.2311927378177643,-0.02792912721633911,-0.04022812843322754,0.02789303660392761,XArbitraryZVertical,-0.3353058112375797,-0.5207822304961031,-0.05490646762621305,0.7831610106511966,-0.8525335788726807,0.4680082499980927,-0.2327117621898651,0,0,0,-1,-1,29970.16168229167,unknown,2,2025-04-22T12:20:47.902+03:00,2025-04-21T17:08:51.449+03:00,7264,0.976367,0,0,6055.744,5,20,2025-04-22T12:20:40.163+03:00,767006447.992437,0,-20.97,100.456,1,0.85,2025-04-22T12:20:02.679+03:00,82,1.366666666666667,2025-04-22T09:54:17.825+03:00,0.02225348692287972,0
2025-04-22T12:20:48.474+03:00,1745313647.224662,40.95219657099274,29.14025835744745,76.12379,-1,-1,-1,-1,30,22.47268558134142,-9999,29970.72973729167,-0.87420654296875,0.4346923828125,-0.205291748046875,29970.71966129167,-0.52691563404546,-1.304587093332253,-0.4874807595574756,-1.035007953643799,0.5369549989700317,-0.237189918756485,-0.02326220273971558,-0.0377223789691925,0.02804040908813477,XArbitraryZVertical,-0.3385747940923635,-0.5187978265695397,-0.05939974945615527,0.7827436057747349,-0.8523938655853271,0.4684015810489655,-0.2324318438768387,0,0,0,-1,-1,29970.16168229167,unknown,2,2025-04-22T12:20:47.902+03:00,2025-04-21T17:08:51.449+03:00,7264,0.976367,0,0,6055.744,5,20,2025-04-22T12:20:40.163+03:00,767006447.992437,0,-20.97,100.456,1,0.85,2025-04-22T12:20:02.679+03:00,82,1.366666666666667,2025-04-22T09:54:17.825+03:00,0.02225348692287972,0
2025-04-22T12:20:48.484+03:00,1745313647.224662,40.95219657099274,29.14025835744745,76.12379,-1,-1,-1,-1,30,22.47268558134142,-9999,29970.73981429167,-0.8713836669921875,0.4323577880859375,-0.2026214599609375,29970.72973729167,-0.5392074251217217,-1.304851341280394,-0.4879234345897115,-1.070806741714478,0.5527315139770508,-0.2443322539329529,-0.02300423383712769,-0.03353580832481384,0.02705873548984528,XArbitraryZVertical,-0.3419212147723384,-0.5167338283484262,-0.06402709409559493,0.7822892536098894,-0.85225510597229,0.4687926471233368,-0.232152059674263,0,0,0,-1,-1,29970.16168229167,unknown,2,2025-04-22T12:20:47.902+03:00,2025-04-21T17:08:51.449+03:00,7264,0.976367,0,0,6055.744,5,20,2025-04-22T12:20:40.163+03:00,767006447.992437,0,-20.97,100.456,1,0.85,2025-04-22T12:20:02.679+03:00,82,1.366666666666667,2025-04-22T09:54:17.825+03:00,0.02225348692287972,0
2025-04-22T12:20:48.495+03:00,1745313647.224662,40.95219657099274,29.14025835744745,76.12379,-1,-1,-1,-1,30,22.47268558134142,-9999,29970.74989029167,-0.8746185302734375,0.43524169921875,-0.2007293701171875,29970.73981429167,-0.5518777232814185,-1.305124016479194,-0.4883682113091471,-1.096821904182434,0.5707181692123413,-0.2542227208614349,-0.01998370885848999,-0.03661423921585083,0.02823635935783386,XArbitraryZVertical,-0.3453534231443008,-0.5145858293266401,-0.06879690131345939,0.7817923123111851,-0.8521170020103455,0.469185471534729,-0.231864869594574,0,0,0,-1,-1,29970.16168229167,unknown,2,2025-04-22T12:20:47.902+03:00,2025-04-21T17:08:51.449+03:00,7264,0.976367,0,0,6055.744,5,20,2025-04-22T12:20:40.163+03:00,767006447.992437,0,-20.97,100.456,1,0.85,2025-04-22T12:20:02.679+03:00,82,1.366666666666667,2025-04-22T09:54:17.825+03:00,0.02225348692287972,0
2025-04-22T12:20:48.505+03:00,1745313647.224662,40.95219657099274,29.14025835744745,76.12379,-1,-1,-1,-1,30,22.47268558134142,-9999,29970.75996729167,-0.8802490234375,0.435333251953125,-0.197998046875,29970.74989029167,-0.5648881887808855,-1.305387586312279,-0.4887576716749808,-1.124225497245789,0.5917795300483704,-0.2667116224765778,-0.0211976170539856,-0.03569161891937256,0.02941341698169708,XArbitraryZVertical,-0.3488394991155494,-0.5123620111582219,-0.07371457713256825,0.7812568208849828,-0.8520017266273499,0.469529390335083,-0.2315923422574997,0,0,0,-1,-1,29970.16168229167,unknown,2,2025-04-22T12:20:47.902+03:00,2025-04-21T17:08:51.449+03:00,7264,0.976367,0,0,6055.744,5,20,2025-04-22T12:20:40.163+03:00,767006447.992437,0,-20.97,100.456,1,0.85,2025-04-22T12:20:02.679+03:00,82,1.366666666666667,2025-04-22T09:54:17.825+03:00,0.02225348692287972,0
2025-04-22T12:20:48.515+03:00,1745313647.224662,40.95219657099274,29.14025835744745,76.12379,-1,-1,-1,-1,30,22.47268558134142,-9999,29970.77004329167,-0.882781982421875,0.4326019287109375,-0.1970062255859375,29970.75996729167,-0.5782522574246701,-1.305600050634381,-0.4891376101359223,-1.154599785804749,0.6144858598709106,-0.2746990919113159,-0.02684438228607178,-0.03369244933128357,0.03173382580280304,XArbitraryZVertical,-0.3523960770632055,-0.5100340516857391,-0.07877812638483975,0.7806895254047703,-0.8518787026405334,0.4698647856712341,-0.2313645482063293,0,0,0,-1,-1,29970.16168229167,unknown,2,2025-04-22T12:20:47.902+03:00,2025-04-21T17:08:51.449+03:00,7264,0.976367,0,0,6055.744,5,20,2025-04-22T12:20:40.163+03:00,767006447.992437,0,-20.97,100.456,1,0.85,2025-04-22T12:20:02.679+03:00,82,1.366666666666667,2025-04-22T09:54:17.825+03:00,0.02225348692287972,0
2025-04-22T12:20:48.525+03:00,1745313647.224662,40.95219657099274,29.14025835744745,76.12379,-1,-1,-1,-1,30,22.47268558134142,-9999,29970.780122,-0.8848876953125,0.43402099609375,-0.1981353759765625,29970.77004329167,-0.5919303590965154,-1.305755793330276,-0.4895017890165758,-1.176588654518127,0.6339607834815979,-0.2809146344661713,-0.03033041954040527,-0.03695881366729736,0.03375363349914551,XArbitraryZVertical,-0.3560088871859635,-0.5076062836454019,-0.08397485938447119,0.7800908831716818,-0.8517496585845947,0.4701862335205078,-0.2311870604753494,0,0,0,-1,-1,29970.16168229167,unknown,2,2025-04-22T12:20:47.902+03:00,2025-04-21T17:08:51.449+03:00,7264,0.976367,0,0,6055.744,5,20,2025-04-22T12:20:40.163+03:00,767006447.992437,0,-20.97,100.456,1,0.85,2025-04-22T12:20:02.679+03:00,82,1.366666666666667,2025-04-22T09:54:17.825+03:00,0.02225348692287972,0
2025-04-22T12:20:48.535+03:00,1745313647.224662,40.95219657099274,29.14025835744745,76.12379,-1,-1,-1,-1,30,22.47268558134142,-9999,29970.790198,-0.88189697265625,0.440399169921875,-0.203125,29970.780122,-0.6055930489545703,-1.305709124566183,-0.4898074944756157,-1.15821099281311,0.6543229818344116,-0.2867374420166016,-0.0331960916519165,-0.03765583038330078,0.03364884853363037,XArbitraryZVertical,-0.3595718528693291,-0.5050876368672582,-0.08921554023093999,0.7795095108294587,-0.8516000509262085,0.4704560339450836,-0.2311891168355942,0,0,0,-1,-1,29970.16168229167,unknown,2,2025-04-22T12:20:47.902+03:00,2025-04-21T17:08:51.449+03:00,7264,0.976367,0,0,6055.744,5,20,2025-04-22T12:20:40.163+03:00,767006447.992437,0,-20.97,100.456,1,0.85,2025-04-22T12:20:02.679+03:00,82,1.366666666666667,2025-04-22T09:54:17.825+03:00,0.02225348692287972,0
2025-04-22T12:20:48.545+03:00,1745313647.224662,40.95219657099274,29.14025835744745,76.12379,-1,-1,-1,-1,30,22.47268558134142,-9999,29970.800275,-0.876983642578125,0.44964599609375,-0.194183349609375,29970.790198,-0.6194054717567961,-1.305508931266142,-0.4900785662624098,-1.183430671691895,0.6743448972702026,-0.2957983016967773,-0.03222107887268066,-0.03310376405715942,0.02873522043228149,XArbitraryZVertical,-0.3631354253443143,-0.502463515109403,-0.09454914381317529,0.77892455421968,-0.8514306545257568,0.4706951975822449,-0.231326162815094,0,0,0,-1,-1,29970.16168229167,unknown,2,2025-04-22T12:20:47.902+03:00,2025-04-21T17:08:51.449+03:00,7264,0.976367,0,0,6055.744,5,20,2025-04-22T12:20:40.163+03:00,767006447.992437,0,-20.97,100.456,1,0.85,2025-04-22T12:20:02.679+03:00,82,1.366666666666667,2025-04-22T09:54:17.825+03:00,0.02225348692287972,0
2025-04-22T12:20:48.556+03:00,1745313647.224662,40.95219657099274,29.14025835744745,76.12379,-1,-1,-1,-1,30,22.47268558134142,-9999,29970.810352,-0.8763885498046875,0.4438934326171875,-0.208038330078125,29970.800275,-0.6333244351550643,-1.305159639730038,-0.4902576900623902,-1.181702494621277,0.6951467990875244,-0.3076430261135101,-0.02730214595794678,-0.0234808623790741,0.03544965386390686,XArbitraryZVertical,-0.3666674929272208,-0.4997541760963097,-0.09997625167168238,0.778335072687118,-0.851268470287323,0.4708532392978668,-0.2316014319658279,0,0,0,-1,-1,29970.16168229167,unknown,2,2025-04-22T12:20:47.902+03:00,2025-04-21T17:08:51.449+03:00,7264,0.976367,0,0,6055.744,5,20,2025-04-22T12:20:40.163+03:00,767006447.992437,0,-20.97,100.456,1,0.85,2025-04-22T12:20:02.679+03:00,82,1.366666666666667,2025-04-22T09:54:17.825+03:00,0.02225348692287972,0
2025-04-22T12:20:48.565+03:00,1745313647.224662,40.95219657099274,29.14025835744745,76.12379,-1,-1,-1,-1,30,22.47268558134142,-9999,29970.820428,-0.8765716552734375,0.449005126953125,-0.215576171875,29970.810352,-0.6473636992095259,-1.30466569920596,-0.4903401878622307,-1.194019675254822,0.7164896130561829,-0.3246262669563293,-0.02533316612243652,-0.02448442578315735,0.03073295950889587,XArbitraryZVertical,-0.3701686930022463,-0.4969600733647055,-0.1055032203011886,0.77773702496872,-0.8511164784431458,0.4709260165691376,-0.2320116460323334,0,0,0,-1,-1,29970.16168229167,unknown,2,2025-04-22T12:20:47.902+03:00,2025-04-21T17:08:51.449+03:00,7264,0.976367,0,0,6055.744,5,20,2025-04-22T12:20:40.163+03:00,767006447.992437,0,-20.97,100.456,1,0.85,2025-04-22T12:20:02.679+03:00,82,1.366666666666667,2025-04-22T09:54:17.825+03:00,0.02225348692287972,0
2025-04-22T12:20:48.575+03:00,1745313647.224662,40.95219657099274,29.14025835744745,76.12379,-1,-1,-1,-1,30,22.47268558134142,-9999,29970.830505,-0.8768768310546875,0.458526611328125,-0.2154083251953125,29970.820428,-0.661582965305582,-1.304088832902392,-0.490299170654484,-1.203450202941895,0.7275558114051819,-0.3389446437358856,-0.02535688877105713,-0.02592840790748596,0.01783174276351929,XArbitraryZVertical,-0.3736465039096353,-0.4940996393868378,-0.1111504108466223,0.7771096276324944,-0.8510010838508606,0.4708898365497589,-0.2325076758861542,0,0,0,-1,-1,29970.16168229167,unknown,2,2025-04-22T12:20:47.902+03:00,2025-04-21T17:08:51.449+03:00,7264,0.976367,0,0,6055.744,5,20,2025-04-22T12:20:40.163+03:00,767006447.992437,0,-20.97,100.456,1,0.85,2025-04-22T12:20:02.679+03:00,82,1.366666666666667,2025-04-22T09:54:17.825+03:00,0.02225348692287972,0
2025-04-22T12:20:48.585+03:00,1745313647.224662,40.95219657099274,29.14025835744745,76.12379,-1,-1,-1,-1,30,22.47268558134142,-9999,29970.840581,-0.880126953125,0.458465576171875,-0.22021484375,29970.830505,-0.6759630688888432,-1.303415198449365,-0.4901321420016698,-1.216630220413208,0.7500728368759155,-0.3554562330245972,-0.02610921859741211,-0.01522195339202881,0.01844102144241333,XArbitraryZVertical,-0.3770933811717567,-0.4911718130445884,-0.116913691199737,0.776454753494961,-0.8509201407432556,0.4707424640655518,-0.2331016659736633,0,0,0,-1,-1,29970.16168229167,unknown,2,2025-04-22T12:20:47.902+03:00,2025-04-21T17:08:51.449+03:00,7264,0.976367,0,0,6055.744,5,20,2025-04-22T12:20:40.163+03:00,767006447.992437,0,-20.97,100.456,1,0.85,2025-04-22T12:20:02.679+03:00,82,1.366666666666667,2025-04-22T09:54:17.825+03:00,0.02225348692287972,0
2025-04-22T12:20:48.595+03:00,1745313647.224662,40.95219657099274,29.14025835744745,76.12379,-1,-1,-1,-1,30,22.47268558134142,-9999,29970.850658,-0.8890838623046875,0.4507904052734375,-0.2264862060546875,29970.840581,-0.6905525484617453,-1.302611620803389,-0.4898721083807542,-1.235998630523682,0.7779271006584167,-0.3694657981395721,-0.02691131830215454,-0.01007914543151855,0.01537302136421204,XArbitraryZVertical,-0.3805290598718658,-0.4881482601081447,-0.1228079613748587,0.7757752152865287,-0.8508506417274475,0.4705130457878113,-0.2338178157806396,0,0,0,-1,-1,29970.16168229167,unknown,2,2025-04-22T12:20:47.902+03:00,2025-04-21T17:08:51.449+03:00,7264,0.976367,0,0,6055.744,5,20,2025-04-22T12:20:40.163+03:00,767006447.992437,0,-20.97,100.456,1,0.85,2025-04-22T12:20:02.679+03:00,82,1.366666666666667,2025-04-22T09:54:17.825+03:00,0.02225348692287972,0
2025-04-22T12:20:48.605+03:00,1745313647.224662,40.95219657099274,29.14025835744745,76.12379,-1,-1,-1,-1,30,22.47268558134142,-9999,29970.860734,-0.888275146484375,0.44622802734375,-0.22662353515625,29970.850658,-0.705370375366086,-1.301654243742237,-0.4895495582901525,-1.254741907119751,0.7962586879730225,-0.3802526593208313,-0.03496968746185303,-0.01676777005195618,0.01035317778587341,XArbitraryZVertical,-0.3839650252128485,-0.4850098395129082,-0.1288357503471766,0.7750726954720952,-0.8507726192474365,0.4702284038066864,-0.2346726357936859,0,0,0,-1,-1,29970.16168229167,unknown,2,2025-04-22T12:20:47.902+03:00,2025-04-21T17:08:51.449+03:00,7264,0.976367,0,0,6055.744,5,20,2025-04-22T12:20:40.163+03:00,767006447.992437,0,-20.97,100.456,1,0.85,2025-04-22T12:20:02.679+03:00,82,1.366666666666667,2025-04-22T09:54:17.825+03:00,0.02225348692287972,0
2025-04-22T12:20:48.615+03:00,1745313647.224662,40.95219657099274,29.14025835744745,76.12379,-1,-1,-1,-1,30,22.47268558134142,-9999,29970.870811,-0.8807220458984375,0.4513092041015625,-0.228485107421875,29970.860734,-0.7204104829306169,-1.300607903955517,-0.489192038828606,-1.272322416305542,0.8100800514221191,-0.3894003331661224,-0.03900575637817383,-0.02350178360939026,0.00878557562828064,XArbitraryZVertical,-0.3874110042587611,-0.481776858344214,-0.1349738087212754,0.7743292683993912,-0.8506885170936584,0.4699128568172455,-0.2356075495481491,0,0,0,-1,-1,29970.16168229167,unknown,2,2025-04-22T12:20:47.902+03:00,2025-04-21T17:08:51.449+03:00,7264,0.976367,0,0,6055.744,5,20,2025-04-22T12:20:40.163+03:00,767006447.992437,0,-20.97,100.456,1,0.85,2025-04-22T12:20:02.679+03:00,82,1.366666666666667,2025-04-22T09:54:17.825+03:00,0.02225348692287972,0
2025-04-22T12:20:48.626+03:00,1745313647.224662,40.95219657099274,29.14025835744745,76.12379,-1,-1,-1,-1,30,22.47268558134142,-9999,29970.880887,-0.871124267578125,0.4549407958984375,-0.230438232421875,29970.870811,-0.7357775414486055,-1.299596894587147,-0.4888479641528093,-1.30279004573822,0.8174176216125488,-0.393959641456604,-0.03301560878753662,-0.02043625712394714,0.008834376931190491,XArbitraryZVertical,-0.3909150603640572,-0.4784663350054064,-0.1412231831121712,0.7735058533295351,-0.8506055474281311,0.4696091115474701,-0.236510768532753,0,0,0,-1,-1,29970.16168229167,unknown,2,2025-04-22T12:20:47.902+03:00,2025-04-21T17:08:51.449+03:00,7264,0.976367,0,0,6055.744,5,20,2025-04-22T12:20:40.163+03:00,767006447.992437,0,-20.97,100.456,1,0.85,2025-04-22T12:20:02.679+03:00,82,1.366666666666667,2025-04-22T09:54:17.825+03:00,0.02225348692287972,0
2025-04-22T12:20:48.636+03:00,1745313647.224662,40.95219657099274,29.14025835744745,76.12379,-1,-1,-1,-1,30,22.47268558134142,-9999,29970.890964,-0.8732147216796875,0.451690673828125,-0.2346954345703125,29970.880887,-0.7515246622600606,-1.298700405949183,-0.4885628300359426,-1.331046462059021,0.8278843760490417,-0.402666836977005,-0.02313506603240967,-0.01487445831298828,0.006947293877601624,XArbitraryZVertical,-0.3945092516146189,-0.4750872114871735,-0.1475737596163853,0.7725777655289424,-0.8505220413208008,0.4693573415279388,-0.2373091876506805,0,0,0,-1,-1,29970.16168229167,unknown,2,2025-04-22T12:20:47.902+03:00,2025-04-21T17:08:51.449+03:00,7264,0.976367,0,0,6055.744,5,20,2025-04-22T12:20:40.163+03:00,767006447.992437,0,-20.97,100.456,1,0.85,2025-04-22T12:20:02.679+03:00,82,1.366666666666667,2025-04-22T09:54:17.825+03:00,0.02225348692287972,0
2025-04-22T12:20:48.646+03:00,1745313647.224662,40.95219657099274,29.14025835744745,76.12379,-1,-1,-1,-1,30,22.47268558134142,-9999,29970.90104,-0.8803253173828125,0.4566192626953125,-0.2468414306640625,29970.890964,-0.7676356731148848,-1.297798166725841,-0.4882212021893381,-1.370691299438477,0.8522853255271912,-0.4230860769748688,-0.02115046977996826,-0.01608335971832275,0.006109774112701416,XArbitraryZVertical,-0.3981409192964835,-0.4716184386800162,-0.1540773036382933,0.7715698357814375,-0.8504620790481567,0.4690556526184082,-0.2381197065114975,0,0,0,-1,-1,29970.16168229167,unknown,2,2025-04-22T12:20:47.902+03:00,2025-04-21T17:08:51.449+03:00,7264,0.976367,0,0,6055.744,5,20,2025-04-22T12:20:40.163+03:00,767006447.992437,0,-20.97,100.456,1,0.85,2025-04-22T12:20:02.679+03:00,82,1.366666666666667,2025-04-22T09:54:17.825+03:00,0.02225348692287972,0
2025-04-22T12:20:48.656+03:00,1745313647.224662,40.95219657099274,29.14025835744745,76.12379,-1,-1,-1,-1,30,22.47268558134142,-9999,29970.911117,-0.879180908203125,0.479949951171875,-0.2553253173828125,29970.90104,-0.7843395890550265,-1.296854153521055,-0.4878466580293223,-1.43825626373291,0.9023508429527283,-0.4395605623722076,-0.02770686149597168,-0.01660701632499695,-0.003507435321807861,XArbitraryZVertical,-0.4018667321226315,-0.4679937557610523,-0.1608209229775931,0.7704683669294025,-0.8504059314727783,0.4687248468399048,-0.2389699518680573,0,0,0,-1,-1,29970.16168229167,unknown,2,2025-04-22T12:20:47.902+03:00,2025-04-21T17:08:51.449+03:00,7264,0.976367,0,0,6055.744,5,20,2025-04-22T12:20:40.163+03:00,767006447.992437,0,-20.97,100.456,1,0.85,2025-04-22T12:20:02.679+03:00,82,1.366666666666667,2025-04-22T09:54:17.825+03:00,0.02225348692287972,0
2025-04-22T12:20:48.666+03:00,1745313647.224662,40.95219657099274,29.14025835744745,76.12379,-1,-1,-1,-1,30,22.47268558134142,-9999,29970.921194,-0.865966796875,0.486785888671875,-0.2609405517578125,29970.911117,-0.8018858523858066,-1.295403904689675,-0.4876451230652231,-1.505004405975342,0.9963007569313049,-0.4378582537174225,-0.03098469972610474,0.001805305480957031,-0.01111409068107605,XArbitraryZVertical,-0.4057692808950982,-0.4639363561726788,-0.1679302983325304,0.7693593017945884,-0.850149393081665,0.4685468077659607,-0.2402286976575851,0,0,0,-1,-1,29970.16168229167,unknown,2,2025-04-22T12:20:47.902+03:00,2025-04-21T17:08:51.449+03:00,7264,0.976367,0,0,6055.744,5,20,2025-04-22T12:20:40.163+03:00,767006447.992437,0,-20.97,100.456,1,0.85,2025-04-22T12:20:02.679+03:00,82,1.366666666666667,2025-04-22T09:54:17.825+03:00,0.02225348692287972,0
2025-04-22T12:20:48.676+03:00,1745313647.224662,40.95219657099274,29.14025835744745,76.12379,-1,-1,-1,-1,30,22.47268558134142,-9999,29970.93127,-0.8577880859375,0.48126220703125,-0.25347900390625,29970.921194,-0.8201652745687951,-1.29369690092949,-0.4873968088969879,-1.556847095489502,1.034273386001587,-0.4844983220100403,-0.02151834964752197,0.01925179362297058,-0.01819157600402832,XArbitraryZVertical,-0.4097620534129611,-0.4596078377178291,-0.1753809112228818,0.7681778883878155,-0.849850058555603,0.4683274030685425,-0.2417113929986954,0,0,0,-1,-1,29970.16168229167,unknown,2,2025-04-22T12:20:47.902+03:00,2025-04-21T17:08:51.449+03:00,7264,0.976367,0,0,6055.744,5,20,2025-04-22T12:20:40.163+03:00,767006447.992437,0,-20.97,100.456,1,0.85,2025-04-22T12:20:02.679+03:00,82,1.366666666666667,2025-04-22T09:54:17.825+03:00,0.02225348692287972,0
2025-04-22T12:20:48.686+03:00,1745313647.224662,40.95219657099274,29.14025835744745,76.12379,-1,-1,-1,-1,30,22.47268558134142,-9999,29970.941347,-0.87835693359375,0.488922119140625,-0.2478485107421875,29970.93127,-0.8391849345470325,-1.292572702122964,-0.487145791391607,-1.63213574886322,0.9932125210762024,-0.4685055017471313,-0.008631467819213867,0.0133243203163147,-0.01528143882751465,XArbitraryZVertical,-0.41393016342844,-0.4553156901066863,-0.1829876706722832,0.7667234521178163,-0.8496906757354736,0.4681056141853333,-0.2426988780498505,0,0,0,-1,-1,29970.16168229167,unknown,2,2025-04-22T12:20:47.902+03:00,2025-04-21T17:08:51.449+03:00,7264,0.976367,0,0,6055.744,5,20,2025-04-22T12:20:40.163+03:00,767006447.992437,0,-20.97,100.456,1,0.85,2025-04-22T12:20:02.679+03:00,82,1.366666666666667,2025-04-22T09:54:17.825+03:00,0.02225348692287972,0
2025-04-22T12:20:48.696+03:00,1745313647.224662,40.95219657099274,29.14025835744745,76.12379,-1,-1,-1,-1,30,22.47268558134142,-9999,29970.951423,-0.910797119140625,0.4794769287109375,-0.25738525390625,29970.941347,-0.8590138735405979,-1.29124249074989,-0.4873105981112322,-1.726589918136597,1.127621412277222,-0.4600166082382202,-0.01874905824661255,0.01734435558319092,-0.004391849040985107,XArbitraryZVertical,-0.4183502151193452,-0.4506431839670658,-0.1908080980743138,0.7651770644943429,-0.8492928743362427,0.4682512283325195,-0.2438076436519623,0,0,0,-1,-1,29970.16168229167,unknown,2,2025-04-22T12:20:47.902+03:00,2025-04-21T17:08:51.449+03:00,7264,0.976367,0,0,6055.744,5,20,2025-04-22T12:20:40.163+03:00,767006447.992437,0,-20.97,100.456,1,0.85,2025-04-22T12:20:02.679+03:00,82,1.366666666666667,2025-04-22T09:54:17.825+03:00,0.02225348692287972,0
2025-04-22T12:20:48.706+03:00,1745313647.224662,40.95219657099274,29.14025835744745,76.12379,-1,-1,-1,-1,30,22.47268558134142,-9999,29970.9615,-0.910858154296875,0.45947265625,-0.2628173828125,29970.951423,-0.8793716257314148,-1.289590756021034,-0.4876704535961805,-1.733347415924072,1.088002562522888,-0.4532407522201538,-0.05088526010513306,0.0184759795665741,-0.008361458778381348,XArbitraryZVertical,-0.4228665129745761,-0.4456481136968012,-0.1988261964212377,0.7635769169029176,-0.8487271070480347,0.4685691893100739,-0.2451633363962173,0,0,0,-1,-1,29970.16168229167,unknown,2,2025-04-22T12:20:47.902+03:00,2025-04-21T17:08:51.449+03:00,7264,0.976367,0,0,6055.744,5,20,2025-04-22T12:20:40.163+03:00,767006447.992437,0,-20.97,100.456,1,0.85,2025-04-22T12:20:02.679+03:00,82,1.366666666666667,2025-04-22T09:54:17.825+03:00,0.02225348692287972,0
2025-04-22T12:20:48.716+03:00,1745313647.224662,40.95219657099274,29.14025835744745,76.12379,-1,-1,-1,-1,30,22.47268558134142,-9999,29970.971576,-0.8906707763671875,0.467803955078125,-0.26678466796875,29970.9615,-0.8996287650924512,-1.288199180291487,-0.488306506638217,-1.694724917411804,1.072838544845581,-0.4109106063842773,-0.068206787109375,-0.004470497369766235,-0.01696835458278656,XArbitraryZVertical,-0.4274168958789936,-0.440663476480386,-0.2066535051929022,0.7618560467748311,-0.8480986952781677,0.4691309928894043,-0.2462610006332397,0,0,0,-1,-1,29970.16168229167,unknown,2,2025-04-22T12:20:47.902+03:00,2025-04-21T17:08:51.449+03:00,7264,0.976367,0,0,6055.744,5,20,2025-04-22T12:20:40.163+03:00,767006447.992437,0,-20.97,100.456,1,0.85,2025-04-22T12:20:02.679+03:00,82,1.366666666666667,2025-04-22T09:54:17.825+03:00,0.02225348692287972,0
2025-04-22T12:20:48.726+03:00,1745313647.224662,40.95219657099274,29.14025835744745,76.12379,-1,-1,-1,-1,30,22.47268558134142,-9999,29970.981653,-0.8813323974609375,0.4887237548828125,-0.3016204833984375,29970.971576,-0.9188068302963417,-1.286290608420082,-0.4891748212148773,-1.573324799537659,1.097373723983765,-0.3642235100269318,-0.04952311515808105,-0.007571756839752197,-0.01457957923412323,XArbitraryZVertical,-0.4316925632353342,-0.4356135257739127,-0.2140974380254524,0.7602923715240947,-0.8472357988357544,0.4698976576328278,-0.2477647811174393,0,0,0,-1,-1,29970.16168229167,unknown,2,2025-04-22T12:20:47.902+03:00,2025-04-21T17:08:51.449+03:00,7264,0.976367,0,0,6055.744,5,20,2025-04-22T12:20:40.163+03:00,767006447.992437,0,-20.97,100.456,1,0.85,2025-04-22T12:20:02.679+03:00,82,1.366666666666667,2025-04-22T09:54:17.825+03:00,0.02225348692287972,0
2025-04-22T12:20:48.736+03:00,1745313647.224662,40.95219657099274,29.14025835744745,76.12379,-1,-1,-1,-1,30,22.47268558134142,-9999,29970.99173,-0.85687255859375,0.502410888671875,-0.3473663330078125,29970.981653,-0.9363912837131394,-1.283239107248151,-0.4900157897115235,-1.435771942138672,1.148959636688232,-0.3497267365455627,-0.0390504002571106,0.009172648191452026,-0.03562140464782715,XArbitraryZVertical,-0.435432589127545,-0.4304416942411338,-0.2211832484067391,0.759075940528732,-0.8460966348648071,0.4706398248672485,-0.2502368092536926,0,0,0,-1,-1,29970.16168229167,unknown,2,2025-04-22T12:20:47.902+03:00,2025-04-21T17:08:51.449+03:00,7264,0.976367,0,0,6055.744,5,20,2025-04-22T12:20:40.163+03:00,767006447.992437,0,-20.97,100.456,1,0.85,2025-04-22T12:20:02.679+03:00,82,1.366666666666667,2025-04-22T09:54:17.825+03:00,0.02225348692287972,0
2025-04-22T12:20:48.746+03:00,1745313647.224662,40.95219657099274,29.14025835744745,76.12379,-1,-1,-1,-1,30,22.47268558134142,-9999,29971.001806,-0.829925537109375,0.4781494140625,-0.3528900146484375,29970.99173,-0.9527680334556071,-1.279433293250163,-0.4906576443549926,-1.35949981212616,1.139411687850952,-0.3402807712554932,-0.0240325927734375,0.02983146905899048,-0.07718291878700256,XArbitraryZVertical,-0.4387096930767248,-0.4252642369792325,-0.2280324075287646,0.7580800169980312,-0.8448486924171448,0.4712060391902924,-0.2533682584762573,0,0,0,-1,-1,29970.16168229167,unknown,2,2025-04-22T12:20:47.902+03:00,2025-04-21T17:08:51.449+03:00,7264,0.976367,0,0,6055.744,5,20,2025-04-22T12:20:40.163+03:00,767006447.992437,0,-20.97,100.456,1,0.85,2025-04-22T12:20:02.679+03:00,82,1.366666666666667,2025-04-22T09:54:17.825+03:00,0.02225348692287972,0
2025-04-22T12:20:48.757+03:00,1745313647.224662,40.95219657099274,29.14025835744745,76.12379,-1,-1,-1,-1,30,22.47268558134142,-9999,29971.011883,-0.8356781005859375,0.464141845703125,-0.3519287109375,29971.001806,-0.9685360325146666,-1.275239198813147,-0.4912783630952575,-1.318830490112305,1.163952112197876,-0.3442622423171997,0.006844043731689453,0.0191369354724884,-0.101192831993103,XArbitraryZVertical,-0.4417502969906174,-0.4200530803301452,-0.2347416267840431,0.757171343696676,-0.843498706817627,0.4717534482479095,-0.2568241655826569,0,0,0,-1,-1,29970.16168229167,unknown,2,2025-04-22T12:20:47.902+03:00,2025-04-21T17:08:51.449+03:00,7264,0.976367,0,0,6055.744,5,20,2025-04-22T12:20:40.163+03:00,767006447.992437,0,-20.97,100.456,1,0.85,2025-04-22T12:20:02.679+03:00,82,1.366666666666667,2025-04-22T09:54:17.825+03:00,0.02225348692287972,0
2025-04-22T12:20:48.767+03:00,1745313647.224662,40.95219657099274,29.14025835744745,76.12379,-1,-1,-1,-1,30,22.47268558134142,-9999,29971.021959,-0.8563232421875,0.4859771728515625,-0.394073486328125,29971.011883,-0.9839699809641035,-1.270809796036618,-0.4918915457193104,-1.291966915130615,1.156878232955933,-0.3267402350902557,0.01279163360595703,-0.009632408618927002,-0.08455944061279297,XArbitraryZVertical,-0.4446347922950024,-0.4148056796144301,-0.2413786291851112,0.756288624375008,-0.842076301574707,0.4722940325737,-0.260472297668457,0,0,0,-1,-1,29970.16168229167,unknown,2,2025-04-22T12:20:47.902+03:00,2025-04-21T17:08:51.449+03:00,7264,0.976367,0,0,6055.744,5,20,2025-04-22T12:20:40.163+03:00,767006447.992437,0,-20.97,100.456,1,0.85,2025-04-22T12:20:02.679+03:00,82,1.366666666666667,2025-04-22T09:54:17.825+03:00,0.02225348692287972,0
2025-04-22T12:20:48.777+03:00,1745313647.224662,40.95219657099274,29.14025835744745,76.12379,-1,-1,-1,-1,30,22.47268558134142,-9999,29971.032036,-0.8770904541015625,0.4989776611328125,-0.420166015625,29971.021959,-0.9990033425920967,-1.26625389776508,-0.4927489085927841,-1.274870634078979,1.156294107437134,-0.2928589582443237,-0.008764147758483887,0.003711134195327759,-0.1141572296619415,XArbitraryZVertical,-0.4474408842996231,-0.4095173196312328,-0.247819523512667,0.7554320102565321,-0.8404941558837891,0.4730495512485504,-0.264184445142746,0,0,0,-1,-1,29970.16168229167,unknown,2,2025-04-22T12:20:47.902+03:00,2025-04-21T17:08:51.449+03:00,7264,0.976367,0,0,6055.744,5,20,2025-04-22T12:20:40.163+03:00,767006447.992437,0,-20.97,100.456,1,0.85,2025-04-22T12:20:02.679+03:00,82,1.366666666666667,2025-04-22T09:54:17.825+03:00,0.02225348692287972,0
2025-04-22T12:20:48.787+03:00,1745313647.224662,40.95219657099274,29.14025835744745,76.12379,-1,-1,-1,-1,30,22.47268558134142,-9999,29971.042112,-0.88946533203125,0.5146484375,-0.4513092041015625,29971.032036,-1.013738511679917,-1.261689256684058,-0.4939659413062753,-1.252214312553406,1.131765842437744,-0.2527014017105103,-0.0309135913848877,0.02065986394882202,-0.1435645520687103,XArbitraryZVertical,-0.4502404536479105,-0.4041807549252141,-0.2540433227809002,0.7545749128422036,-0.8387304544448853,0.4741214513778687,-0.2678428888320923,0,0,0,-1,-1,29970.16168229167,unknown,2,2025-04-22T12:20:47.902+03:00,2025-04-21T17:08:51.449+03:00,7264,0.976367,0,0,6055.744,5,20,2025-04-22T12:20:40.163+03:00,767006447.992437,0,-20.97,100.456,1,0.85,2025-04-22T12:20:02.679+03:00,82,1.366666666666667,2025-04-22T09:54:17.825+03:00,0.02225348692287972,0
2025-04-22T12:20:48.797+03:00,1745313647.224662,40.95219657099274,29.14025835744745,76.12379,-1,-1,-1,-1,30,22.47268558134142,-9999,29971.052189,-0.8808441162109375,0.5367889404296875,-0.47735595703125,29971.042112,-1.028086421099411,-1.257348308869561,-0.4955880604586637,-1.229274392127991,1.075828075408936,-0.2112323194742203,-0.05095964670181274,0.03249216079711914,-0.1674158871173859,XArbitraryZVertical,-0.4530606255040029,-0.3988912079535624,-0.2599512500895637,0.7536889565965821,-0.8368271589279175,0.475549042224884,-0.2712437510490417,0,0,0,-1,-1,29970.16168229167,unknown,2,2025-04-22T12:20:47.902+03:00,2025-04-21T17:08:51.449+03:00,7264,0.976367,0,0,6055.744,5,20,2025-04-22T12:20:40.163+03:00,767006447.992437,0,-20.97,100.456,1,0.85,2025-04-22T12:20:02.679+03:00,82,1.366666666666667,2025-04-22T09:54:17.825+03:00,0.02225348692287972,0
2025-04-22T12:20:48.817+03:00,1745313647.224662,40.95219657099274,29.14025835744745,76.12379,-1,-1,-1,-1,30,22.47268558134142,-9999,29971.062265,-0.873748779296875,0.5589447021484375,-0.5062408447265625,29971.052189,-1.041872548806049,-1.253490485636184,-0.4974881412647705,-1.166958808898926,0.9909368753433228,-0.1776056438684464,-0.05055290460586548,0.0512072741985321,-0.1952948272228241,XArbitraryZVertical,-0.4558659278837957,-0.3938177650960449,-0.2654563889680365,0.7527460452031934,-0.8349145650863647,0.4772196710109711,-0.2741876542568207,0,0,0,-1,-1,29970.16168229167,unknown,2,2025-04-22T12:20:47.902+03:00,2025-04-21T17:08:51.449+03:00,7264,0.976367,0,0,6055.744,5,20,2025-04-22T12:20:40.163+03:00,767006447.992437,0,-20.97,100.456,1,0.85,2025-04-22T12:20:02.679+03:00,82,1.366666666666667,2025-04-22T09:54:17.825+03:00,0.02225348692287972,0
2025-04-22T12:20:48.822+03:00,1745313647.224662,40.95219657099274,29.14025835744745,76.12379,-1,-1,-1,-1,30,22.47268558134142,-9999,29971.072342,-0.8736572265625,0.574493408203125,-0.5513458251953125,29971.062265,-1.05452546581215,-1.25004327355953,-0.4993450804273333,-1.039227962493896,0.8954028487205505,-0.1642517894506454,-0.04174059629440308,0.0723881721496582,-0.2159220576286316,XArbitraryZVertical,-0.4584449954717232,-0.3891478477909492,-0.2704544595254254,0.7518287235545251,-0.8331220746040344,0.4788506925106049,-0.2767842710018158,0,0,0,-1,-1,29970.16168229167,unknown,2,2025-04-22T12:20:47.902+03:00,2025-04-21T17:08:51.449+03:00,7264,0.976367,0,0,6055.744,5,20,2025-04-22T12:20:40.163+03:00,767006447.992437,0,-20.97,100.456,1,0.85,2025-04-22T12:20:02.679+03:00,82,1.366666666666667,2025-04-22T09:54:17.825+03:00,0.02225348692287972,0
2025-04-22T12:20:48.827+03:00,1745313647.224662,40.95219657099274,29.14025835744745,76.12379,-1,-1,-1,-1,30,22.47268558134142,-9999,29971.082419,-0.8770294189453125,0.591339111328125,-0.5935516357421875,29971.072342,-1.065689628298508,-1.246889949479089,-0.5009439780413872,-0.9067003130912781,0.7930256128311157,-0.1503133326768875,-0.04168117046356201,0.08897525072097778,-0.254113495349884,XArbitraryZVertical,-0.4606595050299027,-0.3849803111183824,-0.2749017481609892,0.7510072592179221,-0.8315182328224182,0.4802537560462952,-0.2791659533977509,0,0,0,-1,-1,29970.16168229167,unknown,2,2025-04-22T12:20:47.902+03:00,2025-04-21T17:08:51.449+03:00,7264,0.976367,0,0,6055.744,5,20,2025-04-22T12:20:40.163+03:00,767006447.992437,0,-20.97,100.456,1,0.85,2025-04-22T12:20:02.679+03:00,82,1.366666666666667,2025-04-22T09:54:17.825+03:00,0.02225348692287972,0
2025-04-22T12:20:48.837+03:00,1745313647.224662,40.95219657099274,29.14025835744745,76.12379,-1,-1,-1,-1,30,22.47268558134142,-9999,29971.092495,-0.879058837890625,0.5931854248046875,-0.62457275390625,29971.082419,-1.075572395543726,-1.244276244210637,-0.5022753820328664,-0.8127104043960571,0.6674522757530212,-0.149193599820137,-0.04552251100540161,0.1046383082866669,-0.2976023554801941,XArbitraryZVertical,-0.4625924471069701,-0.3813682130565231,-0.2788221189816571,0.7502164402914266,-0.8301793932914734,0.4814211428165436,-0.2811330258846283,0,0,0,-1,-1,29970.16168229167,unknown,2,2025-04-22T12:20:47.902+03:00,2025-04-21T17:08:51.449+03:00,7264,0.976367,0,0,6055.744,5,20,2025-04-22T12:20:40.163+03:00,767006447.992437,0,-20.97,100.456,1,0.85,2025-04-22T12:20:02.679+03:00,82,1.366666666666667,2025-04-22T09:54:17.825+03:00,0.02225348692287972,0
2025-04-22T12:20:48.847+03:00,1745313647.224662,40.95219657099274,29.14025835744745,76.12379,-1,-1,-1,-1,30,22.47268558134142,-9999,29971.102572,-0.87982177734375,0.5896759033203125,-0.6547698974609375,29971.092495,-1.084801981874114,-1.242759335818397,-0.5033882341618163,-0.7882274389266968,0.5105851292610168,-0.1578390300273895,-0.05002814531326294,0.112131804227829,-0.3308789432048798,XArbitraryZVertical,-0.4644669352302803,-0.3783660399127277,-0.2823065178942023,0.7492746865704438,-0.8292442560195923,0.4823962450027466,-0.2822192013263702,0,0,0,-1,-1,29970.16168229167,unknown,2,2025-04-22T12:20:47.902+03:00,2025-04-21T17:08:51.449+03:00,7264,0.976367,0,0,6055.744,5,20,2025-04-22T12:20:40.163+03:00,767006447.992437,0,-20.97,100.456,1,0.85,2025-04-22T12:20:02.679+03:00,82,1.366666666666667,2025-04-22T09:54:17.825+03:00,0.02225348692287972,0
2025-04-22T12:20:48.857+03:00,1745313647.224662,40.95219657099274,29.14025835744745,76.12379,-1,-1,-1,-1,30,22.47268558134142,-9999,29971.112648,-0.8741607666015625,0.59454345703125,-0.663055419921875,29971.102572,-1.09402018667265,-1.242924403504189,-0.5044012640366602,-0.7891813516616821,0.3301725387573242,-0.1645715981721878,-0.05132961273193359,0.1072011291980743,-0.3627590537071228,XArbitraryZVertical,-0.4665318615108743,-0.3760127728246583,-0.2854212074043807,0.7479954232732903,-0.8288278579711914,0.4832833409309387,-0.281924843788147,0,0,0,-1,-1,29970.16168229167,unknown,2,2025-04-22T12:20:47.902+03:00,2025-04-21T17:08:51.449+03:00,7264,0.976367,0,0,6055.744,5,20,2025-04-22T12:20:40.163+03:00,767006447.992437,0,-20.97,100.456,1,0.85,2025-04-22T12:20:02.679+03:00,82,1.366666666666667,2025-04-22T09:54:17.825+03:00,0.02225348692287972,0
2025-04-22T12:20:48.867+03:00,1745313647.224662,40.95219657099274,29.14025835744745,76.12379,-1,-1,-1,-1,30,22.47268558134142,-9999,29971.122725,-0.86761474609375,0.60546875,-0.64776611328125,29971.112648,-1.103081694057192,-1.24494212734737,-0.5053107281315959,-0.7556127309799194,0.141822874546051,-0.1687897741794586,-0.04815798997879028,0.107259601354599,-0.3828986287117004,XArbitraryZVertical,-0.4687918214391498,-0.3744044410839552,-0.2880677049040057,0.7463728913210572,-0.8289782404899597,0.4840793609619141,-0.2801110744476318,0,0,0,-1,-1,29970.16168229167,unknown,2,2025-04-22T12:20:47.902+03:00,2025-04-21T17:08:51.449+03:00,7264,0.976367,0,0,6055.744,5,20,2025-04-22T12:20:40.163+03:00,767006447.992437,0,-20.97,100.456,1,0.85,2025-04-22T12:20:02.679+03:00,82,1.366666666666667,2025-04-22T09:54:17.825+03:00,0.02225348692287972,0
2025-04-22T12:20:48.877+03:00,1745313647.224662,40.95219657099274,29.14025835744745,76.12379,-1,-1,-1,-1,30,22.47268558134142,-9999,29971.132801,-0.8668670654296875,0.611083984375,-0.616119384765625,29971.122725,-1.111448426892525,-1.248411495730654,-0.505921362170893,-0.6471189260482788,-0.0265309140086174,-0.1770526021718979,-0.03964394330978394,0.1171318590641022,-0.3781338036060333,XArbitraryZVertical,-0.4710386349343578,-0.3735676321519225,-0.2901917012648149,0.7445525578071848,-0.8296644687652588,0.4846135973930359,-0.2771396636962891,0,0,0,-1,-1,29970.16168229167,unknown,2,2025-04-22T12:20:47.902+03:00,2025-04-21T17:08:51.449+03:00,7264,0.976367,0,0,6055.744,5,20,2025-04-22T12:20:40.163+03:00,767006447.992437,0,-20.97,100.456,1,0.85,2025-04-22T12:20:02.679+03:00,82,1.366666666666667,2025-04-22T09:54:17.825+03:00,0.02225348692287972,0
2025-04-22T12:20:48.887+03:00,1745313647.224662,40.95219657099274,29.14025835744745,76.12379,-1,-1,-1,-1,30,22.47268558134142,-9999,29971.142878,-0.858795166015625,0.6076202392578125,-0.5712738037109375,29971.132801,-1.118439309163237,-1.252839700774751,-0.5060237243253025,-0.5155478715896606,-0.1764538437128067,-0.1866762042045593,-0.03621369600296021,0.1262280941009521,-0.3564963638782501,XArbitraryZVertical,-0.4730187163762202,-0.3735365366136469,-0.2917157900786759,0.7427149407890667,-0.8308364152908325,0.4847031235694885,-0.2734475135803223,0,0,0,-1,-1,29970.16168229167,unknown,2,2025-04-22T12:20:47.902+03:00,2025-04-21T17:08:51.449+03:00,7264,0.976367,0,0,6055.744,5,20,2025-04-22T12:20:40.163+03:00,767006447.992437,0,-20.97,100.456,1,0.85,2025-04-22T12:20:02.679+03:00,82,1.366666666666667,2025-04-22T09:54:17.825+03:00,0.02225348692287972,0
2025-04-22T12:20:48.898+03:00,1745313647.224662,40.95219657099274,29.14025835744745,76.12379,-1,-1,-1,-1,30,22.47268558134142,-9999,29971.152955,-0.8404083251953125,0.6043243408203125,-0.5200042724609375,29971.142878,-1.124229893635338,-1.258156099861092,-0.5056068019814033,-0.4211083054542542,-0.3213056921958923,-0.2046166658401489,-0.03071904182434082,0.1240293383598328,-0.3202820122241974,XArbitraryZVertical,-0.4747559851367681,-0.3742491039777545,-0.292726616078647,0.7408476969264393,-0.8324705958366394,0.4843384027481079,-0.2690887153148651,0,0,0,-1,-1,29970.16168229167,unknown,2,2025-04-22T12:20:47.902+03:00,2025-04-21T17:08:51.449+03:00,7264,0.976367,0,0,6055.744,5,20,2025-04-22T12:20:40.163+03:00,767006447.992437,0,-20.97,100.456,1,0.85,2025-04-22T12:20:02.679+03:00,82,1.366666666666667,2025-04-22T09:54:17.825+03:00,0.02225348692287972,0
2025-04-22T12:20:48.908+03:00,1745313647.224662,40.95219657099274,29.14025835744745,76.12379,-1,-1,-1,-1,30,22.47268558134142,-9999,29971.163031,-0.8192291259765625,0.59710693359375,-0.46807861328125,29971.152955,-1.129356687093024,-1.26458550368492,-0.5047740725408382,-0.3899655938148499,-0.4622803628444672,-0.2243557423353195,-0.01418709754943848,0.1227744221687317,-0.2754389643669128,XArbitraryZVertical,-0.4764166033498803,-0.375634142503684,-0.2933401513241533,0.7388353486127964,-0.8345677852630615,0.4836097061634064,-0.2638524174690247,0,0,0,-1,-1,29970.16168229167,unknown,2,2025-04-22T12:20:47.902+03:00,2025-04-21T17:08:51.449+03:00,7264,0.976367,0,0,6055.744,5,20,2025-04-22T12:20:40.163+03:00,767006447.992437,0,-20.97,100.456,1,0.85,2025-04-22T12:20:02.679+03:00,82,1.366666666666667,2025-04-22T09:54:17.825+03:00,0.02225348692287972,0
2025-04-22T12:20:48.918+03:00,1745313647.224662,40.95219657099274,29.14025835744745,76.12379,-1,-1,-1,-1,30,22.47268558134142,-9999,29971.173108,-0.8146209716796875,0.582763671875,-0.423828125,29971.163031,-1.134582930747614,-1.272484256980977,-0.5037053567191913,-0.4269455671310425,-0.6016751527786255,-0.2466436624526978,0.01058131456375122,0.1179423630237579,-0.2300685942173004,XArbitraryZVertical,-0.4782504655602322,-0.3775903745125342,-0.2936990392228293,0.7365072358430091,-0.8371195197105408,0.4826740026473999,-0.2574039995670319,0,0,0,-1,-1,29970.16168229167,unknown,2,2025-04-22T12:20:47.902+03:00,2025-04-21T17:08:51.449+03:00,7264,0.976367,0,0,6055.744,5,20,2025-04-22T12:20:40.163+03:00,767006447.992437,0,-20.97,100.456,1,0.85,2025-04-22T12:20:02.679+03:00,82,1.366666666666667,2025-04-22T09:54:17.825+03:00,0.02225348692287972,0
2025-04-22T12:20:48.928+03:00,1745313647.224662,40.95219657099274,29.14025835744745,76.12379,-1,-1,-1,-1,30,22.47268558134142,-9999,29971.183184,-0.826385498046875,0.564361572265625,-0.390899658203125,29971.173108,-1.140607545858483,-1.282071786451833,-0.5025374587588879,-0.5067943334579468,-0.7249385118484497,-0.2750481367111206,0.0262763500213623,0.1082538068294525,-0.1888125538825989,XArbitraryZVertical,-0.4804641490623152,-0.3799879576558097,-0.2939624153636094,0.7337229836971177,-0.8400886058807373,0.4816508293151855,-0.249526709318161,0,0,0,-1,-1,29970.16168229167,unknown,2,2025-04-22T12:20:47.902+03:00,2025-04-21T17:08:51.449+03:00,7264,0.976367,0,0,6055.744,5,20,2025-04-22T12:20:40.163+03:00,767006447.992437,0,-20.97,100.456,1,0.85,2025-04-22T12:20:02.679+03:00,82,1.366666666666667,2025-04-22T09:54:17.825+03:00,0.02225348692287972,0
2025-04-22T12:20:48.938+03:00,1745313647.224662,40.95219657099274,29.14025835744745,76.12379,-1,-1,-1,-1,30,22.47268558134142,-9999,29971.193261,-0.8383941650390625,0.557647705078125,-0.3430023193359375,29971.183184,-1.147421034148236,-1.293145577678618,-0.5012848906492997,-0.5573111176490784,-0.823280394077301,-0.2939807772636414,0.02238065004348755,0.09015634655952454,-0.1634348034858704,XArbitraryZVertical,-0.4830341169859846,-0.3827416039857954,-0.2941626985298542,0.7305170809767959,-0.8433797955513,0.4805527329444885,-0.240373820066452,0,0,0,-1,-1,29970.16168229167,unknown,2,2025-04-22T12:20:47.902+03:00,2025-04-21T17:08:51.449+03:00,7264,0.976367,0,0,6055.744,5,20,2025-04-22T12:20:40.163+03:00,767006447.992437,0,-20.97,100.456,1,0.85,2025-04-22T12:20:02.679+03:00,82,1.366666666666667,2025-04-22T09:54:17.825+03:00,0.02225348692287972,0
2025-04-22T12:20:48.948+03:00,1745313647.224662,40.95219657099274,29.14025835744745,76.12379,-1,-1,-1,-1,30,22.47268558134142,-9999,29971.203337,-0.8361663818359375,0.5662841796875,-0.2800140380859375,29971.193261,-1.154454170270532,-1.305207192207077,-0.4997743308790568,-0.5313618183135986,-0.9033675193786621,-0.3204770982265472,0.01160526275634766,0.07817593216896057,-0.132357656955719,XArbitraryZVertical,-0.4857325726835854,-0.385845446346235,-0.2942566845309781,0.7270489219789025,-0.8469171524047852,0.4792274832725525,-0.2303743213415146,0,0,0,-1,-1,29970.16168229167,unknown,2,2025-04-22T12:20:47.902+03:00,2025-04-21T17:08:51.449+03:00,7264,0.976367,0,0,6055.744,5,20,2025-04-22T12:20:40.163+03:00,767006447.992437,0,-20.97,100.456,1,0.85,2025-04-22T12:20:02.679+03:00,82,1.366666666666667,2025-04-22T09:54:17.825+03:00,0.02225348692287972,0
2025-04-22T12:20:48.958+03:00,1745313647.224662,40.95219657099274,29.14025835744745,76.12379,-1,-1,-1,-1,30,22.47268558134142,-9999,29971.213414,-0.81201171875,0.5796661376953125,-0.209259033203125,29971.203337,-1.160860481763881,-1.317582652798943,-0.4978219121412418,-0.4468460977077484,-0.9468454122543335,-0.3390085101127625,0.01074838638305664,0.08414769172668457,-0.08463865518569946,XArbitraryZVertical,-0.4882472236055628,-0.3893066775522742,-0.2941538845415597,0.723552597720703,-0.8506073355674744,0.4775129556655884,-0.2201099246740341,0,0,0,-1,-1,29970.16168229167,unknown,2,2025-04-22T12:20:47.902+03:00,2025-04-21T17:08:51.449+03:00,7264,0.976367,0,0,6055.744,5,20,2025-04-22T12:20:40.163+03:00,767006447.992437,0,-20.97,100.456,1,0.85,2025-04-22T12:20:02.679+03:00,82,1.366666666666667,2025-04-22T09:54:17.825+03:00,0.02225348692287972,0
2025-04-22T12:20:48.968+03:00,1745313647.224662,40.95219657099274,29.14025835744745,76.12379,-1,-1,-1,-1,30,22.47268558134142,-9999,29971.223491,-0.781494140625,0.5683441162109375,-0.1257476806640625,29971.213414,-1.166252925876204,-1.329803946887991,-0.4953470274936739,-0.3484036922454834,-0.9753361940383911,-0.3651394546031952,0.03087723255157471,0.1005448698997498,-0.02686735987663269,XArbitraryZVertical,-0.4904106455616073,-0.3930745117378285,-0.2938578217654841,0.7201648679647358,-0.8543789386749268,0.4753369987010956,-0.2099796533584595,0,0,0,-1,-1,29970.16168229167,unknown,2,2025-04-22T12:20:47.902+03:00,2025-04-21T17:08:51.449+03:00,7264,0.976367,0,0,6055.744,5,20,2025-04-22T12:20:40.163+03:00,767006447.992437,0,-20.97,100.456,1,0.85,2025-04-22T12:20:02.679+03:00,82,1.366666666666667,2025-04-22T09:54:17.825+03:00,0.02225348692287972,0
2025-04-22T12:20:48.978+03:00,1745313647.224662,40.95219657099274,29.14025835744745,76.12379,-1,-1,-1,-1,30,22.47268558134142,-9999,29971.233567,-0.7559661865234375,0.5305023193359375,-0.0372772216796875,29971.223491,-1.17062928657899,-1.341738594882323,-0.4923321866165298,-0.2661369144916534,-0.9885628819465637,-0.3910554349422455,0.06532329320907593,0.1041912436485291,0.041309654712677,XArbitraryZVertical,-0.4921959997380151,-0.3971104996371692,-0.2934130095543054,0.7169066239111517,-0.8582156896591187,0.4726823568344116,-0.2000927031040192,0,0,0,-1,-1,29970.16168229167,unknown,2,2025-04-22T12:20:47.902+03:00,2025-04-21T17:08:51.449+03:00,7264,0.976367,0,0,6055.744,5,20,2025-04-22T12:20:40.163+03:00,767006447.992437,0,-20.97,100.456,1,0.85,2025-04-22T12:20:02.679+03:00,82,1.366666666666667,2025-04-22T09:54:17.825+03:00,0.02225348692287972,0
2025-04-22T12:20:48.988+03:00,1745313647.224662,40.95219657099274,29.14025835744745,76.12379,-1,-1,-1,-1,30,22.47268558134142,-9999,29971.243644,-0.7523345947265625,0.4855194091796875,0.0594329833984375,29971.233567,-1.17449301274012,-1.353472014747335,-0.4889097913507318,-0.2587027251720428,-0.9810149669647217,-0.4194804131984711,0.0981629490852356,0.07638716697692871,0.1199376732110977,XArbitraryZVertical,-0.4937501254590093,-0.401288300096409,-0.2929452026749204,0.7136956632829624,-0.8620789051055908,0.469663679599762,-0.1903570294380188,0,0,0,-1,-1,29970.16168229167,unknown,2,2025-04-22T12:20:47.902+03:00,2025-04-21T17:08:51.449+03:00,7264,0.976367,0,0,6055.744,5,20,2025-04-22T12:20:40.163+03:00,767006447.992437,0,-20.97,100.456,1,0.85,2025-04-22T12:20:02.679+03:00,82,1.366666666666667,2025-04-22T09:54:17.825+03:00,0.02225348692287972,0
2025-04-22T12:20:48.998+03:00,1745313647.224662,40.95219657099274,29.14025835744745,76.12379,-1,-1,-1,-1,30,22.47268558134142,-9999,29971.25372,-0.7602386474609375,0.45068359375,0.1421051025390625,29971.243644,-1.178531889989902,-1.365009808282578,-0.4852657672018872,-0.2847928404808044,-0.9356194734573364,-0.4338161647319794,0.115582287311554,0.03602832555770874,0.2039704322814941,XArbitraryZVertical,-0.4952628005453347,-0.4053904896731699,-0.2926446205354753,0.7104451937742717,-0.865887463092804,0.4664434492588043,-0.1807466149330139,0,0,0,-1,-1,29970.16168229167,unknown,2,2025-04-22T12:20:47.902+03:00,2025-04-21T17:08:51.449+03:00,7264,0.976367,0,0,6055.744,5,20,2025-04-22T12:20:40.163+03:00,767006447.992437,0,-20.97,100.456,1,0.85,2025-04-22T12:20:02.679+03:00,82,1.366666666666667,2025-04-22T09:54:17.825+03:00,0.02225348692287972,0
2025-04-22T12:20:49.008+03:00,1745313647.224662,40.95219657099274,29.14025835744745,76.12379,-1,-1,-1,-1,30,22.47268558134142,-9999,29971.263797,-0.7496795654296875,0.4468231201171875,0.198455810546875,29971.25372,-1.182744424315087,-1.376118877942282,-0.4815274904656937,-0.2897574901580811,-0.8811037540435791,-0.438512921333313,0.1116577982902527,-0.001890987157821655,0.2863054275512695,XArbitraryZVertical,-0.4967362763419836,-0.4093003561001686,-0.2925295683149482,0.7072147324540204,-0.8695465922355652,0.4631335139274597,-0.1714525818824768,0,0,0,-1,-1,29970.16168229167,unknown,2,2025-04-22T12:20:47.902+03:00,2025-04-21T17:08:51.449+03:00,7264,0.976367,0,0,6055.744,5,20,2025-04-22T12:20:40.163+03:00,767006447.992437,0,-20.97,100.456,1,0.85,2025-04-22T12:20:02.679+03:00,82,1.366666666666667,2025-04-22T09:54:17.825+03:00,0.02225348692287972,0
2025-04-22T12:20:49.019+03:00,1745313647.224662,40.95219657099274,29.14025835744745,76.12379,-1,-1,-1,-1,30,22.47268558134142,-9999,29971.273873,-0.728790283203125,0.4622650146484375,0.234771728515625,29971.263797,-1.186590529147281,-1.386526056980406,-0.4776477632012321,-0.2258461564779282,-0.8296352624893188,-0.4448035657405853,0.1166350245475769,-0.0146690309047699,0.3428519368171692,XArbitraryZVertical,-0.4980079173319598,-0.4130703834933995,-0.2924927058525612,0.7041370245282449,-0.8730436563491821,0.4596914649009705,-0.1627219468355179,0,0,0,-1,-1,29970.16168229167,unknown,2,2025-04-22T12:20:47.902+03:00,2025-04-21T17:08:51.449+03:00,7264,0.976367,0,0,6055.744,5,20,2025-04-22T12:20:40.163+03:00,767006447.992437,0,-20.97,100.456,1,0.85,2025-04-22T12:20:02.679+03:00,82,1.366666666666667,2025-04-22T09:54:17.825+03:00,0.02225348692287972,0
2025-04-22T12:20:49.029+03:00,1745313647.224662,40.95219657099274,29.14025835744745,76.12379,-1,-1,-1,-1,30,22.47268558134142,-9999,29971.28395,-0.7111663818359375,0.4729461669921875,0.261383056640625,29971.273873,-1.189467694768738,-1.395845005972786,-0.4734822725693103,-0.1184222251176834,-0.7595565319061279,-0.4593854546546936,0.1406823992729187,0.0001731216907501221,0.3780860900878906,XArbitraryZVertical,-0.4988558782682753,-0.4167580394565886,-0.2924669802761835,0.701369050758186,-0.8764001131057739,0.4559882283210754,-0.1549111008644104,0,0,0,-1,-1,29970.16168229167,unknown,2,2025-04-22T12:20:47.902+03:00,2025-04-21T17:08:51.449+03:00,7264,0.976367,0,0,6055.744,5,20,2025-04-22T12:20:40.163+03:00,767006447.992437,0,-20.97,100.456,1,0.85,2025-04-22T12:20:02.679+03:00,82,1.366666666666667,2025-04-22T09:54:17.825+03:00,0.02225348692287972,0
2025-04-22T12:20:49.039+03:00,1745313647.224662,40.95219657099274,29.14025835744745,76.12379,-1,-1,-1,-1,30,22.47268558134142,-9999,29971.294027,-0.693328857421875,0.4752197265625,0.296905517578125,29971.28395,-1.190801174571261,-1.403621305443428,-0.4689277704050666,0.04977471008896828,-0.6662349700927734,-0.4714527726173401,0.162652313709259,0.01736912131309509,0.3995339274406433,XArbitraryZVertical,-0.4990612456919227,-0.4203809982922151,-0.2924028991893646,0.6990838405850849,-0.8796170353889465,0.451930046081543,-0.1484353840351105,0,0,0,-1,-1,29970.16168229167,unknown,2,2025-04-22T12:20:47.902+03:00,2025-04-21T17:08:51.449+03:00,7264,0.976367,0,0,6055.744,5,20,2025-04-22T12:20:40.163+03:00,767006447.992437,0,-20.97,100.456,1,0.85,2025-04-22T12:20:02.679+03:00,82,1.366666666666667,2025-04-22T09:54:17.825+03:00,0.02225348692287972,0
2025-04-22T12:20:49.049+03:00,1745313647.224662,40.95219657099274,29.14025835744745,76.12379,-1,-1,-1,-1,30,22.47268558134142,-9999,29971.304103,-0.682159423828125,0.476287841796875,0.3394317626953125,29971.294027,-1.189877836320165,-1.409336747663701,-0.4638593930693835,0.2860876619815826,-0.5451474189758301,-0.4904320538043976,0.1825509071350098,0.02790811657905579,0.4257085919380188,XArbitraryZVertical,-0.4983567697782183,-0.4239747075665399,-0.2922260846165574,0.6974882158673154,-0.8827004432678223,0.4474030137062073,-0.1437719613313675,0,0,0,-1,-1,29970.16168229167,unknown,2,2025-04-22T12:20:47.902+03:00,2025-04-21T17:08:51.449+03:00,7264,0.976367,0,0,6055.744,5,20,2025-04-22T12:20:40.163+03:00,767006447.992437,0,-20.97,100.456,1,0.85,2025-04-22T12:20:02.679+03:00,82,1.366666666666667,2025-04-22T09:54:17.825+03:00,0.02225348692287972,0
2025-04-22T12:20:49.059+03:00,1745313647.224662,40.95219657099274,29.14025835744745,76.12379,-1,-1,-1,-1,30,22.47268558134142,-9999,29971.31418,-0.672149658203125,0.475311279296875,0.390045166015625,29971.304103,-1.186223807997898,-1.412502327086745,-0.4582775534696478,0.5233604907989502,-0.4030106067657471,-0.4995826184749603,0.2000871896743774,0.03318175673484802,0.4635882973670959,XArbitraryZVertical,-0.4965584443345354,-0.4274874096220742,-0.291896719540804,0.6967642979172969,-0.8856034874916077,0.4424040615558624,-0.1413684487342834,0,0,0,-1,-1,29970.16168229167,unknown,2,2025-04-22T12:20:47.902+03:00,2025-04-21T17:08:51.449+03:00,7264,0.976367,0,0,6055.744,5,20,2025-04-22T12:20:40.163+03:00,767006447.992437,0,-20.97,100.456,1,0.85,2025-04-22T12:20:02.679+03:00,82,1.366666666666667,2025-04-22T09:54:17.825+03:00,0.02225348692287972,0
2025-04-22T12:20:49.069+03:00,1745313647.224662,40.95219657099274,29.14025835744745,76.12379,-1,-1,-1,-1,30,22.47268558134142,-9999,29971.324256,-0.66192626953125,0.4580535888671875,0.437774658203125,29971.31418,-1.180414152916929,-1.413288855924496,-0.4523013607823415,0.674822211265564,-0.2596060335636139,-0.5066059231758118,0.212177574634552,0.03983086347579956,0.5107128620147705,XArbitraryZVertical,-0.4938328218630305,-0.4307982372616257,-0.2915324443223213,0.6968147213522136,-0.8883096575737,0.4370366334915161,-0.1410840451717377,0,0,0,-1,-1,29970.16168229167,unknown,2,2025-04-22T12:20:47.902+03:00,2025-04-21T17:08:51.449+03:00,7264,0.976367,0,0,6055.744,5,20,2025-04-22T12:20:40.163+03:00,767006447.992437,0,-20.97,100.456,1,0.85,2025-04-22T12:20:02.679+03:00,82,1.366666666666667,2025-04-22T09:54:17.825+03:00,0.02225348692287972,0
2025-04-22T12:20:49.079+03:00,1745313647.224662,40.95219657099274,29.14025835744745,76.12379,-1,-1,-1,-1,30,22.47268558134142,-9999,29971.334333,-0.6548309326171875,0.415985107421875,0.46875,29971.324256,-1.173586444948717,-1.412196109954176,-0.4461488087331386,0.7034092545509338,-0.1134606897830963,-0.5034608840942383,0.225250780582428,0.03643137216567993,0.565251886844635,XArbitraryZVertical,-0.4905471416101227,-0.4337339943685292,-0.2913300151422765,0.6973988097101437,-0.8907933831214905,0.4314945340156555,-0.1424766480922699,0,0,0,-1,-1,29970.16168229167,unknown,2,2025-04-22T12:20:47.902+03:00,2025-04-21T17:08:51.449+03:00,7264,0.976367,0,0,6055.744,5,20,2025-04-22T12:20:40.163+03:00,767006447.992437,0,-20.97,100.456,1,0.85,2025-04-22T12:20:02.679+03:00,82,1.366666666666667,2025-04-22T09:54:17.825+03:00,0.02225348692287972,0
2025-04-22T12:20:49.089+03:00,1745313647.224662,40.95219657099274,29.14025835744745,76.12379,-1,-1,-1,-1,30,22.47268558134142,-9999,29971.344409,-0.6497039794921875,0.346405029296875,0.501739501953125,29971.334333,-1.16725064457066,-1.409892661259581,-0.4402103903174118,0.585869312286377,0.0321740135550499,-0.4766231775283813,0.2363601922988892,0.008821845054626465,0.6023640632629395,XArbitraryZVertical,-0.4872293796904838,-0.4360498453018531,-0.2915226305821055,0.6981994835719159,-0.8929763436317444,0.4261298179626465,-0.144936129450798,0,0,0,-1,-1,29970.16168229167,unknown,2,2025-04-22T12:20:47.902+03:00,2025-04-21T17:08:51.449+03:00,7264,0.976367,0,0,6055.744,5,20,2025-04-22T12:20:40.163+03:00,767006447.992437,0,-20.97,100.456,1,0.85,2025-04-22T12:20:02.679+03:00,82,1.366666666666667,2025-04-22T09:54:17.825+03:00,0.02225348692287972,0
2025-04-22T12:20:49.099+03:00,1745313647.224662,40.95219657099274,29.14025835744745,76.12379,-1,-1,-1,-1,30,22.47268558134142,-9999,29971.354486,-0.641326904296875,0.2723846435546875,0.53466796875,29971.344409,-1.162865632954903,-1.4069751475853,-0.4348734219020609,0.3552601337432861,0.1785459369421005,-0.4365280568599701,0.2426812052726746,-0.04563963413238525,0.6371826529502869,XArbitraryZVertical,-0.4843943489047586,-0.4375012293837399,-0.2923508840826504,0.6989174750202318,-0.8947807550430298,0.4212956130504608,-0.1479095816612244,0,0,0,-1,-1,29970.16168229167,unknown,2,2025-04-22T12:20:47.902+03:00,2025-04-21T17:08:51.449+03:00,7264,0.976367,0,0,6055.744,5,20,2025-04-22T12:20:40.163+03:00,767006447.992437,0,-20.97,100.456,1,0.85,2025-04-22T12:20:02.679+03:00,82,1.366666666666667,2025-04-22T09:54:17.825+03:00,0.02225348692287972,0
2025-04-22T12:20:49.109+03:00,1745313647.224662,40.95219657099274,29.14025835744745,76.12379,-1,-1,-1,-1,30,22.47268558134142,-9999,29971.364563,-0.628143310546875,0.237823486328125,0.5569915771484375,29971.354486,-1.161024208937171,-1.403670371624614,-0.4304304178589469,0.1275356113910675,0.3256514966487885,-0.3753661811351776,0.250372052192688,-0.1201124787330627,0.6736365556716919,XArbitraryZVertical,-0.482291997023603,-0.4379572780848007,-0.2938776560055436,0.6994452734922303,-0.896124005317688,0.4172619879245758,-0.1511757075786591,0,0,0,-1,-1,29970.16168229167,unknown,2,2025-04-22T12:20:47.902+03:00,2025-04-21T17:08:51.449+03:00,7264,0.976367,0,0,6055.744,5,20,2025-04-22T12:20:40.163+03:00,767006447.992437,0,-20.97,100.456,1,0.85,2025-04-22T12:20:02.679+03:00,82,1.366666666666667,2025-04-22T09:54:17.825+03:00,0.02225348692287972,0
2025-04-22T12:20:49.119+03:00,1745313647.224662,40.95219657099274,29.14025835744745,76.12379,-1,-1,-1,-1,30,22.47268558134142,-9999,29971.374639,-0.6093902587890625,0.252899169921875,0.570953369140625,29971.364563,-1.160853800839814,-1.399609134980219,-0.4269090084042606,0.04018639773130417,0.4659000039100647,-0.3054524064064026,0.2636289596557617,-0.1690489649772644,0.7051119804382324,XArbitraryZVertical,-0.4806887972080577,-0.4375005121817599,-0.295880421248928,0.6999901865434474,-0.8969449400901794,0.4140592217445374,-0.1550631672143936,0,0,0,-1,-1,29970.16168229167,unknown,2,2025-04-22T12:20:47.902+03:00,2025-04-21T17:08:51.449+03:00,7264,0.976367,0,0,6055.744,5,20,2025-04-22T12:20:40.163+03:00,767006447.992437,0,-20.97,100.456,1,0.85,2025-04-22T12:20:02.679+03:00,82,1.366666666666667,2025-04-22T09:54:17.825+03:00,0.02225348692287972,0
2025-04-22T12:20:49.129+03:00,1745313647.224662,40.95219657099274,29.14025835744745,76.12379,-1,-1,-1,-1,30,22.47268558134142,-9999,29971.384716,-0.5891265869140625,0.3052978515625,0.6067657470703125,29971.374639,-1.160504858541079,-1.394015767117379,-0.4241274143817924,0.1414517611265182,0.6157662272453308,-0.2280279397964478,0.2801437973976135,-0.1706658601760864,0.7254345417022705,XArbitraryZVertical,-0.4790150476282254,-0.4363539821642829,-0.2979545172739213,0.700972703398718,-0.8971938490867615,0.4115256667137146,-0.1602795720100403,0,0,0,-1,-1,29970.16168229167,unknown,2,2025-04-22T12:20:47.902+03:00,2025-04-21T17:08:51.449+03:00,7264,0.976367,0,0,6055.744,5,20,2025-04-22T12:20:40.163+03:00,767006447.992437,0,-20.97,100.456,1,0.85,2025-04-22T12:20:02.679+03:00,82,1.366666666666667,2025-04-22T09:54:17.825+03:00,0.02225348692287972,0
2025-04-22T12:20:49.139+03:00,1745313647.224662,40.95219657099274,29.14025835744745,76.12379,-1,-1,-1,-1,30,22.47268558134142,-9999,29971.394792,-0.56866455078125,0.356353759765625,0.6682891845703125,29971.384716,-1.157714022552774,-1.385799212630151,-0.4216658611902065,0.4487535655498505,0.7923148274421692,-0.1627311259508133,0.3002821207046509,-0.1252234876155853,0.7574160695075989,XArbitraryZVertical,-0.4764968061298323,-0.4347814548075017,-0.2996911785930826,0.7029231787328971,-0.8968396782875061,0.4092809557914734,-0.167831763625145,0,0,0,-1,-1,29970.16168229167,unknown,2,2025-04-22T12:20:47.902+03:00,2025-04-21T17:08:51.449+03:00,7264,0.976367,0,0,6055.744,5,20,2025-04-22T12:20:40.163+03:00,767006447.992437,0,-20.97,100.456,1,0.85,2025-04-22T12:20:02.679+03:00,82,1.366666666666667,2025-04-22T09:54:17.825+03:00,0.02225348692287972,0
2025-04-22T12:20:49.149+03:00,1745313647.224662,40.95219657099274,29.14025835744745,76.12379,-1,-1,-1,-1,30,22.47268558134142,-9999,29971.404869,-0.544769287109375,0.391845703125,0.78558349609375,29971.394792,-1.151917248483973,-1.374313964469098,-0.419263532462044,0.6561807990074158,1.024090528488159,-0.1101185157895088,0.3188189268112183,-0.07032656669616699,0.8200206756591797,XArbitraryZVertical,-0.4728424932644826,-0.4327398908412722,-0.3011072476979512,0.7060386140065891,-0.8958147764205933,0.4070878922939301,-0.1783123314380646,0,0,0,-1,-1,29970.16168229167,unknown,2,2025-04-22T12:20:47.902+03:00,2025-04-21T17:08:51.449+03:00,7264,0.976367,0,0,6055.744,5,20,2025-04-22T12:20:40.163+03:00,767006447.992437,0,-20.97,100.456,1,0.85,2025-04-22T12:20:02.679+03:00,82,1.366666666666667,2025-04-22T09:54:17.825+03:00,0.02225348692287972,0
2025-04-22T12:20:49.160+03:00,1745313647.224662,40.95219657099274,29.14025835744745,76.12379,-1,-1,-1,-1,30,22.47268558134142,-9999,29971.414946,-0.5283660888671875,0.35333251953125,0.943634033203125,29971.404869,-1.144434876029847,-1.359508201641717,-0.4169121648575045,0.744520366191864,1.32134473323822,-0.07131832093000412,0.3398261666297913,-0.02037188410758972,0.9241927862167358,XArbitraryZVertical,-0.468328888029989,-0.4298722750131297,-0.3026544595833596,0.710125495831834,-0.8940101861953735,0.4049390554428101,-0.1917557567358017,0,0,0,-1,-1,29970.16168229167,unknown,2,2025-04-22T12:20:47.902+03:00,2025-04-21T17:08:51.449+03:00,7264,0.976367,0,0,6055.744,5,20,2025-04-22T12:20:40.163+03:00,767006447.992437,0,-20.97,100.456,1,0.85,2025-04-22T12:20:02.679+03:00,82,1.366666666666667,2025-04-22T09:54:17.825+03:00,0.02225348692287972,0
2025-04-22T12:20:49.170+03:00,1745313647.224662,40.95219657099274,29.14025835744745,76.12379,-1,-1,-1,-1,30,22.47268558134142,-9999,29971.425022,-0.5299224853515625,0.2982177734375,1.0804443359375,29971.414946,-1.13722665057064,-1.341458742342014,-0.414972871492843,0.5904335975646973,1.690032243728638,-0.01702924817800522,0.358329713344574,-0.02770748734474182,1.093917608261108,XArbitraryZVertical,-0.4634900806012623,-0.4256264426648453,-0.3048747203695282,0.7148918796887551,-0.8911665678024292,0.4031651020050049,-0.2080381512641907,0,0,0,-1,-1,29970.16168229167,unknown,2,2025-04-22T12:20:47.902+03:00,2025-04-21T17:08:51.449+03:00,7264,0.976367,0,0,6055.744,5,20,2025-04-22T12:20:40.163+03:00,767006447.992437,0,-20.97,100.456,1,0.85,2025-04-22T12:20:02.679+03:00,82,1.366666666666667,2025-04-22T09:54:17.825+03:00,0.02225348692287972,0
2025-04-22T12:20:49.180+03:00,1745313647.224662,40.95219657099274,29.14025835744745,76.12379,-1,-1,-1,-1,30,22.47268558134142,-9999,29971.435099,-0.5572662353515625,0.2424468994140625,1.15576171875,29971.425022,-1.132931660425307,-1.320546835060221,-0.4142110875769294,0.1613975763320923,2.12884521484375,0.06208381429314613,0.3605669736862183,-0.0857413113117218,1.258471965789795,XArbitraryZVertical,-0.4591554648449168,-0.4193144631394616,-0.3083849049967928,0.7198959946375272,-0.886918842792511,0.4024678468704224,-0.2267032861709595,0,0,0,-1,-1,29970.16168229167,unknown,2,2025-04-22T12:20:47.902+03:00,2025-04-21T17:08:51.449+03:00,7264,0.976367,0,0,6055.744,5,20,2025-04-22T12:20:40.163+03:00,767006447.992437,0,-20.97,100.456,1,0.85,2025-04-22T12:20:02.679+03:00,82,1.366666666666667,2025-04-22T09:54:17.825+03:00,0.02225348692287972,0
2025-04-22T12:20:49.190+03:00,1745313647.224662,40.95219657099274,29.14025835744745,76.12379,-1,-1,-1,-1,30,22.47268558134142,-9999,29971.445175,-0.6048736572265625,0.1766357421875,1.140472412109375,29971.435099,-1.13455403365926,-1.297251856254565,-0.4157753836020949,-0.5603867173194885,2.632642030715942,0.149901807308197,0.3362501263618469,-0.139022171497345,1.387465476989746,XArbitraryZVertical,-0.4563277075536216,-0.4101217677885353,-0.31384075979481,0.7246165625885879,-0.8807905316352844,0.4038993716239929,-0.2471303194761276,0,0,0,-1,-1,29970.16168229167,unknown,2,2025-04-22T12:20:47.902+03:00,2025-04-21T17:08:51.449+03:00,7264,0.976367,0,0,6055.744,5,20,2025-04-22T12:20:40.163+03:00,767006447.992437,0,-20.97,100.456,1,0.85,2025-04-22T12:20:02.679+03:00,82,1.366666666666667,2025-04-22T09:54:17.825+03:00,0.02225348692287972,0
