loggingTime(txt),locationTimestamp_since1970(s),locationLatitude(WGS84),locationLongitude(WGS84),locationAltitude(m),locationSpeed(m/s),locationSpeedAccuracy(m/s),locationCourse(°),locationCourseAccuracy(°),locationVerticalAccuracy(m),locationHorizontalAccuracy(m),locationFloor(Z),accelerometerTimestamp_sinceReboot(s),accelerometerAccelerationX(G),accelerometerAccelerationY(G),accelerometerAccelerationZ(G),motionTimestamp_sinceReboot(s),motionYaw(rad),motionRoll(rad),motionPitch(rad),motionRotationRateX(rad/s),motionRotationRateY(rad/s),motionRotationRateZ(rad/s),motionUserAccelerationX(G),motionUserAccelerationY(G),motionUserAccelerationZ(G),motionAttitudeReferenceFrame(txt),motionQuaternionX(R),motionQuaternionY(R),motionQuaternionZ(R),motionQuaternionW(R),motionGravityX(G),motionGravityY(G),motionGravityZ(G),motionMagneticFieldX(µT),motionMagneticFieldY(µT),motionMagneticFieldZ(µT),motionHeading(°),motionMagneticFieldCalibrationAccuracy(Z),activityTimestamp_sinceReboot(s),activity(txt),activityActivityConfidence(Z),activityActivityStartDate(txt),pedometerStartDate(txt),pedometerNumberofSteps(N),pedometerAverageActivePace(s/m),pedometerCurrentPace(s/m),pedometerCurrentCadence(steps/s),pedometerDistance(m),pedometerFloorAscended(N),pedometerFloorDescended(N),pedometerEndDate(txt),altimeterTimestamp_sinceReboot(s),altimeterReset(bool),altimeterRelativeAltitude(m),altimeterPressure(kPa),batteryState(N),batteryLevel(R),heartRateBPMTimestamp(txt),heartRateBPM(N),heartRateBPS(R),heartRateVariabilityTimestamp(txt),heartRateVariability(ms),label
2025-04-22T10:57:49.765+03:00,1745308667.519363,40.95227670218328,29.14031054922987,76.52189,-1,-1,-1,-1,30,30.11905621221268,-9999,27184.973499375,-0.654296875,0.6608428955078125,-0.1649169921875,27184.963424375,-1.334136612243086,-1.295264616368091,-0.7683308144902806,0.04833459481596947,0.01260847132652998,0.01100755762308836,-0.0376962423324585,0.008310914039611816,-0.007907480001449585,XArbitraryZVertical,0.5808720208332172,0.2545052166333695,0.2798072923593736,-0.7207790566602157,-0.6919485330581665,0.6949359178543091,-0.1956295818090439,0,0,0,-1,-1,27179.74554866667,unknown,2,2025-04-22T10:57:44.491+03:00,2025-04-21T17:08:51.449+03:00,7097,0.9377078,0,0,5930.618,5,20,2025-04-22T10:57:29.015+03:00,767001149.8999774,0,-21.11,100.4558,1,0.95,2025-04-22T10:52:28.061+03:00,85,1.416666666666667,2025-04-22T09:54:17.825+03:00,0.02225348692287972,0
2025-04-22T10:57:49.768+03:00,1745308667.519363,40.95227670218328,29.14031054922987,76.52189,-1,-1,-1,-1,30,30.11905621221268,-9999,27184.983575375,-0.63323974609375,0.6595458984375,-0.171783447265625,27184.973499375,-1.333873744934383,-1.295438114459442,-0.7683167138144685,-0.002184505574405193,-0.06132993474602699,0.002419928554445505,-0.05933552980422974,-0.01496386528015137,0.009873703122138977,XArbitraryZVertical,0.5808597039473581,0.2546485845231222,0.2796665869752207,-0.7207929894133577,-0.691991925239563,0.6949257850646973,-0.1955122053623199,0,0,0,-1,-1,27179.74554866667,unknown,2,2025-04-22T10:57:44.491+03:00,2025-04-21T17:08:51.449+03:00,7097,0.9377078,0,0,5930.618,5,20,2025-04-22T10:57:29.015+03:00,767001149.8999774,0,-21.11,100.4558,1,0.95,2025-04-22T10:52:28.061+03:00,85,1.416666666666667,2025-04-22T09:54:17.825+03:00,0.02225348692287972,0
2025-04-22T10:57:49.769+03:00,1745308667.519363,40.95227670218328,29.14031054922987,76.52189,-1,-1,-1,-1,30,30.11905621221268,-9999,27184.993651375,-0.7227783203125,0.6904754638671875,-0.1941986083984375,27184.983575375,-1.333841581723677,-1.295706569509679,-0.7684232252837448,0.005803646054118872,0.01586365327239037,0.01910702884197235,0.05026483535766602,-0.03777599334716797,0.03220504522323608,XArbitraryZVertical,0.5809165993498658,0.2547208864959914,0.2795437990489768,-0.7207692807243635,-0.6919732689857483,0.6950023770332336,-0.1953063458204269,0,0,0,-1,-1,27179.74554866667,unknown,2,2025-04-22T10:57:44.491+03:00,2025-04-21T17:08:51.449+03:00,7097,0.9377078,0,0,5930.618,5,20,2025-04-22T10:57:29.015+03:00,767001149.8999774,0,-21.11,100.4558,1,0.95,2025-04-22T10:52:28.061+03:00,85,1.416666666666667,2025-04-22T09:54:17.825+03:00,0.02225348692287972,0
2025-04-22T10:57:49.771+03:00,1745308667.519363,40.95227670218328,29.14031054922987,76.52189,-1,-1,-1,-1,30,30.11905621221268,-9999,27185.003726375,-0.7191009521484375,0.687347412109375,-0.1988525390625,27184.993651375,-1.333601370619274,-1.295168993662774,-0.7686549622939804,0.01144668459892273,0.04286257922649384,0.03169915452599525,0.04919606447219849,-0.03167128562927246,0.0203871876001358,XArbitraryZVertical,0.5808619970000729,0.2545233066380543,0.2795409861569998,-0.7208841247149748,-0.6917130947113037,0.6951689720153809,-0.1956344544887543,0,0,0,-1,-1,27179.74554866667,unknown,2,2025-04-22T10:57:44.491+03:00,2025-04-21T17:08:51.449+03:00,7097,0.9377078,0,0,5930.618,5,20,2025-04-22T10:57:29.015+03:00,767001149.8999774,0,-21.11,100.4558,1,0.95,2025-04-22T10:52:28.061+03:00,85,1.416666666666667,2025-04-22T09:54:17.825+03:00,0.02225348692287972,0
2025-04-22T10:57:49.775+03:00,1745308667.519363,40.95227670218328,29.14031054922987,76.52189,-1,-1,-1,-1,30,30.11905621221268,-9999,27185.013802375,-0.6609344482421875,0.6837615966796875,-0.1910858154296875,27185.003726375,-1.333495071071611,-1.294936202009398,-0.7689100712732669,-0.005587026476860046,-0.01054511778056622,0.02015588246285915,-0.03884983062744141,-0.003107070922851562,-7.897615432739258e-06,XArbitraryZVertical,0.5808722201519834,0.2543892497395309,0.2794906170558537,-0.7209426975008681,-0.6914967894554138,0.6953523755073547,-0.1957471519708633,0,0,0,-1,-1,27179.74554866667,unknown,2,2025-04-22T10:57:44.491+03:00,2025-04-21T17:08:51.449+03:00,7097,0.9377078,0,0,5930.618,5,20,2025-04-22T10:57:29.015+03:00,767001469.7401165,0,-20.97,100.4566,1,0.95,2025-04-22T10:52:28.061+03:00,85,1.416666666666667,2025-04-22T09:54:17.825+03:00,0.02225348692287972,0
2025-04-22T10:57:49.778+03:00,1745308667.519363,40.95227670218328,29.14031054922987,76.52189,-1,-1,-1,-1,30,30.11905621221268,-9999,27185.023878375,-0.6695556640625,0.69427490234375,-0.1914520263671875,27185.013802375,-1.333576698358447,-1.295225579261758,-0.7690695307238091,-0.01449769735336304,-0.02626016549766064,0.01692759990692139,-0.02016210556030273,-0.008867442607879639,-0.002465993165969849,XArbitraryZVertical,0.5809581926694899,0.2544192268567871,0.2793862117098105,-0.7209033301187273,-0.6914467811584473,0.695466935634613,-0.1955168694257736,0,0,0,-1,-1,27179.74554866667,unknown,2,2025-04-22T10:57:44.491+03:00,2025-04-21T17:08:51.449+03:00,7097,0.9377078,0,0,5930.618,5,20,2025-04-22T10:57:29.015+03:00,767001469.7401165,0,-20.97,100.4566,1,0.95,2025-04-22T10:52:28.061+03:00,85,1.416666666666667,2025-04-22T09:54:17.825+03:00,0.02225348692287972,0
2025-04-22T10:57:49.788+03:00,1745308667.519363,40.95227670218328,29.14031054922987,76.52189,-1,-1,-1,-1,30,30.11905621221268,-9999,27185.033953375,-0.7001190185546875,0.70489501953125,-0.194183349609375,27185.023878375,-1.333593671168151,-1.295332787141032,-0.7692716943739619,-6.269855657592416e-05,0.006092048715800047,0.01772315055131912,0.03314453363418579,-0.01200342178344727,0.004928961396217346,XArbitraryZVertical,0.5810199096988745,0.2543887275783807,0.2792980426272875,-0.7208984830322481,-0.6913323402404785,0.6956121921539307,-0.1954044848680496,0,0,0,-1,-1,27179.74554866667,unknown,2,2025-04-22T10:57:44.491+03:00,2025-04-21T17:08:51.449+03:00,7097,0.9377078,0,0,5930.618,5,20,2025-04-22T10:57:29.015+03:00,767001469.7401165,0,-20.97,100.4566,1,0.95,2025-04-22T10:52:28.061+03:00,85,1.416666666666667,2025-04-22T09:54:17.825+03:00,0.02225348692287972,0
2025-04-22T10:57:49.794+03:00,1745308667.519363,40.95227670218328,29.14031054922987,76.52189,-1,-1,-1,-1,30,30.11905621221268,-9999,27185.044029375,-0.6904144287109375,0.707366943359375,-0.1902313232421875,27185.033953375,-1.333470547192202,-1.295154039852088,-0.7694758567035148,0.004944843240082264,0.005481918808072805,0.01510792691260576,0.01658517122268677,0.0003469586372375488,0.002953946590423584,XArbitraryZVertical,0.5810242430750762,0.2542953036071294,0.279241905654995,-0.7209498358271017,-0.6911609768867493,0.6957588791847229,-0.1954894512891769,0,0,0,-1,-1,27179.74554866667,unknown,2,2025-04-22T10:57:44.491+03:00,2025-04-21T17:08:51.449+03:00,7097,0.9377078,0,0,5930.618,5,20,2025-04-22T10:57:29.015+03:00,767001469.7401165,0,-20.97,100.4566,1,0.95,2025-04-22T10:52:28.061+03:00,85,1.416666666666667,2025-04-22T09:54:17.825+03:00,0.02225348692287972,0
2025-04-22T10:57:49.804+03:00,1745308667.519363,40.95227670218328,29.14031054922987,76.52189,-1,-1,-1,-1,30,30.11905621221268,-9999,27185.054105375,-0.6756591796875,0.7024078369140625,-0.1881561279296875,27185.044029375,-1.333376668545858,-1.295082358526506,-0.7695704589843541,0.001897920621559024,-0.008033623918890953,0.008420996367931366,-0.01057666540145874,0.0105939507484436,0.001612305641174316,XArbitraryZVertical,0.5810231777382794,0.2542666698215673,0.2791993213096607,-0.720977232690858,-0.6910834908485413,0.6958268284797668,-0.1955210566520691,0,0,0,-1,-1,27179.74554866667,unknown,2,2025-04-22T10:57:44.491+03:00,2025-04-21T17:08:51.449+03:00,7097,0.9377078,0,0,5930.618,5,20,2025-04-22T10:57:29.015+03:00,767001469.7401165,0,-20.97,100.4566,1,0.95,2025-04-22T10:52:28.061+03:00,85,1.416666666666667,2025-04-22T09:54:17.825+03:00,0.02225348692287972,0
2025-04-22T10:57:49.814+03:00,1745308667.519363,40.95227670218328,29.14031054922987,76.52189,-1,-1,-1,-1,30,30.11905621221268,-9999,27185.064180375,-0.6905670166015625,0.6978607177734375,-0.1887969970703125,27185.054105375,-1.333394585489748,-1.295197082989213,-0.7696303116881857,-0.006419131066650152,-0.007509780116379261,0.005633465480059385,0.002665519714355469,0.01073402166366577,0.00597718358039856,XArbitraryZVertical,0.5810546964444242,0.2542837762721746,0.2791537213715007,-0.720963377344803,-0.6910657286643982,0.6958698034286499,-0.1954303979873657,0,0,0,-1,-1,27184.904238375,unknown,2,2025-04-22T10:57:49.650+03:00,2025-04-21T17:08:51.449+03:00,7097,0.9377078,0,0,5930.618,5,20,2025-04-22T10:57:29.015+03:00,767001469.7401165,0,-20.97,100.4566,1,0.95,2025-04-22T10:52:28.061+03:00,85,1.416666666666667,2025-04-22T09:54:17.825+03:00,0.02225348692287972,0
2025-04-22T10:57:49.824+03:00,1745308667.519363,40.95227670218328,29.14031054922987,76.52189,-1,-1,-1,-1,30,30.11905621221268,-9999,27185.074256375,-0.7026824951171875,0.6984405517578125,-0.197479248046875,27185.064180375,-1.333455217752927,-1.29522687482962,-0.7697414685843219,-0.004579419735819101,0.009566142223775387,0.009723281487822533,0.01477348804473877,0.005389928817749023,0.007598817348480225,XArbitraryZVertical,0.5810910333535775,0.254241639703713,0.2791322478182032,-0.7209573419389713,-0.6909972429275513,0.6959496140480042,-0.1953887939453125,0,0,0,-1,-1,27184.904238375,unknown,2,2025-04-22T10:57:49.650+03:00,2025-04-21T17:08:51.449+03:00,7097,0.9377078,0,0,5930.618,5,20,2025-04-22T10:57:29.015+03:00,767001469.7401165,0,-20.97,100.4566,1,0.95,2025-04-22T10:52:28.061+03:00,85,1.416666666666667,2025-04-22T09:54:17.825+03:00,0.02225348692287972,0
2025-04-22T10:57:49.834+03:00,1745308667.519363,40.95227670218328,29.14031054922987,76.52189,-1,-1,-1,-1,30,30.11905621221268,-9999,27185.084332375,-0.6975250244140625,0.69482421875,-0.1958770751953125,27185.074256375,-1.333471983240351,-1.295135413312871,-0.7698780855223799,-0.00547397555783391,0.01039891317486763,0.01595614291727543,-0.001601696014404297,0.002102792263031006,0.006034016609191895,XArbitraryZVertical,0.5811104858616489,0.2541604436582351,0.2791222318950722,-0.7209742301364048,-0.690887987613678,0.6960477232933044,-0.1954261511564255,0,0,0,-1,-1,27184.904238375,unknown,2,2025-04-22T10:57:49.650+03:00,2025-04-21T17:08:51.449+03:00,7097,0.9377078,0,0,5930.618,5,20,2025-04-22T10:57:29.015+03:00,767001469.7401165,0,-20.97,100.4566,1,0.95,2025-04-22T10:52:28.061+03:00,85,1.416666666666667,2025-04-22T09:54:17.825+03:00,0.02225348692287972,0
2025-04-22T10:57:49.844+03:00,1745308667.519363,40.95227670218328,29.14031054922987,76.52189,-1,-1,-1,-1,30,30.11905621221268,-9999,27185.094407375,-0.6907196044921875,0.6943359375,-0.1939697265625,27185.084332375,-1.333485099695775,-1.295039681738909,-0.7700153420036027,-0.002528253011405468,0.01068280544131994,0.01529701147228479,-0.01246976852416992,0.00208050012588501,-0.002119839191436768,XArbitraryZVertical,0.5811290384661582,0.2540785383010661,0.2791119183614347,-0.7209921495444835,-0.6907773613929749,0.6961462497711182,-0.1954662799835205,0,0,0,-1,-1,27184.904238375,unknown,2,2025-04-22T10:57:49.650+03:00,2025-04-21T17:08:51.449+03:00,7097,0.9377078,0,0,5930.618,5,20,2025-04-22T10:57:29.015+03:00,767001469.7401165,0,-20.97,100.4566,1,0.95,2025-04-22T10:52:28.061+03:00,85,1.416666666666667,2025-04-22T09:54:17.825+03:00,0.02225348692287972,0
2025-04-22T10:57:49.854+03:00,1745308667.519363,40.95227670218328,29.14031054922987,76.52189,-1,-1,-1,-1,30,30.11905621221268,-9999,27185.104483375,-0.6879425048828125,0.7001190185546875,-0.1967315673828125,27185.094407375,-1.333448952362548,-1.294874273280091,-0.7701313501933362,0.002344799228012562,0.01688690483570099,0.0103033185005188,-0.005652308464050293,-0.001298666000366211,0.0005968809127807617,XArbitraryZVertical,0.5811269255404607,0.2539925757222697,0.2791107291271442,-0.7210246157095954,-0.6906673312187195,0.6962295174598694,-0.1955585330724716,0,0,0,-1,-1,27184.904238375,unknown,2,2025-04-22T10:57:49.650+03:00,2025-04-21T17:08:51.449+03:00,7097,0.9377078,0,0,5930.618,5,20,2025-04-22T10:57:29.015+03:00,767001469.7401165,0,-20.97,100.4566,1,0.95,2025-04-22T10:52:28.061+03:00,85,1.416666666666667,2025-04-22T09:54:17.825+03:00,0.02225348692287972,0
2025-04-22T10:57:49.865+03:00,1745308667.519363,40.95227670218328,29.14031054922987,76.52189,-1,-1,-1,-1,30,30.11905621221268,-9999,27185.114559375,-0.68377685546875,0.70404052734375,-0.1937713623046875,27185.104483375,-1.333353169965558,-1.294628404531497,-0.7702289724287529,0.007899153977632523,0.01641958765685558,0.007455766666680574,0.0008717775344848633,-0.001704394817352295,0.001587450504302979,XArbitraryZVertical,0.5811019654316527,0.2539007652624627,0.2791171569923456,-0.7210745888812484,-0.6905538439750671,0.6962996125221252,-0.1957098096609116,0,0,0,-1,-1,27184.904238375,unknown,2,2025-04-22T10:57:49.650+03:00,2025-04-21T17:08:51.449+03:00,7097,0.9377078,0,0,5930.618,5,20,2025-04-22T10:57:29.015+03:00,767001469.7401165,0,-20.97,100.4566,1,0.95,2025-04-22T10:52:28.061+03:00,85,1.416666666666667,2025-04-22T09:54:17.825+03:00,0.02225348692287972,0
2025-04-22T10:57:49.875+03:00,1745308667.519363,40.95227670218328,29.14031054922987,76.52189,-1,-1,-1,-1,30,30.11905621221268,-9999,27185.124634375,-0.681304931640625,0.702056884765625,-0.1906585693359375,27185.114559375,-1.333169703438297,-1.294365819281879,-0.7702501675771899,0.01593071594834328,0.01113001629710197,0.00193796306848526,0.003384768962860107,0.00488734245300293,-0.0009361356496810913,XArbitraryZVertical,0.5810467577648426,0.2538525955545908,0.2791206141282352,-0.7211345630574768,-0.6904880404472351,0.696314811706543,-0.1958870440721512,0,0,0,-1,-1,27184.904238375,unknown,2,2025-04-22T10:57:49.650+03:00,2025-04-21T17:08:51.449+03:00,7097,0.9377078,0,0,5930.618,5,20,2025-04-22T10:57:29.015+03:00,767001469.7401165,0,-20.97,100.4566,1,0.95,2025-04-22T10:52:28.061+03:00,85,1.416666666666667,2025-04-22T09:54:17.825+03:00,0.02225348692287972,0
2025-04-22T10:57:49.885+03:00,1745308667.519363,40.95227670218328,29.14031054922987,76.52189,-1,-1,-1,-1,30,30.11905621221268,-9999,27185.134710375,-0.6823883056640625,0.703033447265625,-0.193267822265625,27185.124634375,-1.332954368499471,-1.294106205305254,-0.770239473588,0.01421743724495173,0.01167776249349117,0.003650475526228547,0.007735669612884521,0.00741279125213623,0.003517627716064453,XArbitraryZVertical,0.5809808042493335,0.2538249757712603,0.2791217666019237,-0.7211970554530392,-0.6904444098472595,0.6963071227073669,-0.1960683763027191,0,0,0,-1,-1,27184.904238375,unknown,2,2025-04-22T10:57:49.650+03:00,2025-04-21T17:08:51.449+03:00,7097,0.9377078,0,0,5930.618,5,20,2025-04-22T10:57:29.015+03:00,767001469.7401165,0,-20.97,100.4566,1,0.95,2025-04-22T10:52:28.061+03:00,85,1.416666666666667,2025-04-22T09:54:17.825+03:00,0.02225348692287972,0
2025-04-22T10:57:49.895+03:00,1745308667.519363,40.95227670218328,29.14031054922987,76.52189,-1,-1,-1,-1,30,30.11905621221268,-9999,27185.144786375,-0.683074951171875,0.697113037109375,-0.1959381103515625,27185.134710375,-1.332812161749076,-1.293911922943052,-0.7702469540286041,0.007102003786712885,0.01032514311373234,0.0009614817681722343,0.009050548076629639,0.006003618240356445,0.005740761756896973,XArbitraryZVertical,0.580937309662065,0.2537938285711716,0.2791245654223933,-0.7212419297284698,-0.6904012560844421,0.6963124871253967,-0.1962010711431503,0,0,0,-1,-1,27184.904238375,unknown,2,2025-04-22T10:57:49.650+03:00,2025-04-21T17:08:51.449+03:00,7097,0.9377078,0,0,5930.618,5,20,2025-04-22T10:57:29.015+03:00,767001469.7401165,0,-20.97,100.4566,1,0.95,2025-04-22T10:52:28.061+03:00,85,1.416666666666667,2025-04-22T09:54:17.825+03:00,0.02225348692287972,0
2025-04-22T10:57:49.905+03:00,1745308667.519363,40.95227670218328,29.14031054922987,76.52189,-1,-1,-1,-1,30,30.11905621221268,-9999,27185.154862375,-0.6843719482421875,0.6904296875,-0.19500732421875,27185.144786375,-1.33282580176564,-1.293858038539951,-0.7702903412845895,-0.006426987703889608,0.003233811119571328,0.0004502214142121375,0.007881760597229004,0.006918489933013916,0.002901092171669006,XArbitraryZVertical,0.5809410955088212,0.2537566537643571,0.2791315879708973,-0.7212492370693079,-0.6903616189956665,0.6963436603546143,-0.1962300091981888,0,0,0,-1,-1,27184.904238375,unknown,2,2025-04-22T10:57:49.650+03:00,2025-04-21T17:08:51.449+03:00,7097,0.9377078,0,0,5930.618,5,20,2025-04-22T10:57:29.015+03:00,767001469.7401165,0,-20.97,100.4566,1,0.95,2025-04-22T10:52:28.061+03:00,85,1.416666666666667,2025-04-22T09:54:17.825+03:00,0.02225348692287972,0
2025-04-22T10:57:49.915+03:00,1745308667.519363,40.95227670218328,29.14031054922987,76.52189,-1,-1,-1,-1,30,30.11905621221268,-9999,27185.164937375,-0.6886749267578125,0.6924285888671875,-0.1920013427734375,27185.154862375,-1.332939559067299,-1.293937344904323,-0.7703104082474452,-0.008531417697668076,0.00119196530431509,-0.0002701636694837362,0.007258296012878418,0.0003734230995178223,0.0002637803554534912,XArbitraryZVertical,0.5809710000624276,0.2537458663714662,0.2791433390944302,-0.7212244563237489,-0.6903638243675232,0.6963580250740051,-0.1961714625358582,0,0,0,-1,-1,27184.904238375,unknown,2,2025-04-22T10:57:49.650+03:00,2025-04-21T17:08:51.449+03:00,7097,0.9377078,0,0,5930.618,5,20,2025-04-22T10:57:29.015+03:00,767001469.7401165,0,-20.97,100.4566,1,0.95,2025-04-22T10:52:28.061+03:00,85,1.416666666666667,2025-04-22T09:54:17.825+03:00,0.02225348692287972,0
2025-04-22T10:57:49.925+03:00,1745308667.519363,40.95227670218328,29.14031054922987,76.52189,-1,-1,-1,-1,30,30.11905621221268,-9999,27185.175013375,-0.6954345703125,0.7028656005859375,-0.1942901611328125,27185.164937375,-1.333036664863578,-1.293960818725755,-0.7703006492281002,-0.0004890706622973084,0.007964783348143101,-0.002022723201662302,0.005728304386138916,-0.006547152996063232,0.00192791223526001,XArbitraryZVertical,0.5809844405252044,0.2537292257951456,0.2791745875669336,-0.7212073955229015,-0.6903749704360962,0.6963510513305664,-0.1961571127176285,0,0,0,-1,-1,27184.904238375,unknown,2,2025-04-22T10:57:49.650+03:00,2025-04-21T17:08:51.449+03:00,7097,0.9377078,0,0,5930.618,5,20,2025-04-22T10:57:29.015+03:00,767001469.7401165,0,-20.97,100.4566,1,0.95,2025-04-22T10:52:28.061+03:00,85,1.416666666666667,2025-04-22T09:54:17.825+03:00,0.02225348692287972,0
2025-04-22T10:57:49.935+03:00,1745308667.519363,40.95227670218328,29.14031054922987,76.52189,-1,-1,-1,-1,30,30.11905621221268,-9999,27185.185089375,-0.6975555419921875,0.704559326171875,-0.19573974609375,27185.175013375,-1.333066087389057,-1.293855841526824,-0.7702631513974293,-0.002615604782477021,0.01692845113575459,-0.002959623467177153,0.0008193850517272949,-0.002812385559082031,0.00425054132938385,XArbitraryZVertical,0.5809653123957385,0.2536946512384423,0.2792273178821061,-0.7212143908514173,-0.69037926197052,0.6963241100311279,-0.1962366551160812,0,0,0,-1,-1,27184.904238375,unknown,2,2025-04-22T10:57:49.650+03:00,2025-04-21T17:08:51.449+03:00,7097,0.9377078,0,0,5930.618,5,20,2025-04-22T10:57:29.015+03:00,767001469.7401165,0,-20.97,100.4566,1,0.95,2025-04-22T10:52:28.061+03:00,85,1.416666666666667,2025-04-22T09:54:17.825+03:00,0.02225348692287972,0
2025-04-22T10:57:49.945+03:00,1745308667.519363,40.95227670218328,29.14031054922987,76.52189,-1,-1,-1,-1,30,30.11905621221268,-9999,27185.195164375,-0.695587158203125,0.6993408203125,-0.1933441162109375,27185.185089375,-1.333081008778689,-1.29367438286177,-0.7702259954390527,0.002468702616170049,0.02077758498489857,-0.004524596966803074,-0.005401551723480225,0.007620871067047119,0.0009038746356964111,XArbitraryZVertical,0.5809335976981334,0.2536367695602951,0.279297095050189,-0.721233454716982,-0.6903687715530396,0.6962974667549133,-0.196369081735611,0,0,0,-1,-1,27184.904238375,unknown,2,2025-04-22T10:57:49.650+03:00,2025-04-21T17:08:51.449+03:00,7097,0.9377078,0,0,5930.618,5,20,2025-04-22T10:57:29.015+03:00,767001469.7401165,0,-20.97,100.4566,1,0.95,2025-04-22T10:52:28.061+03:00,85,1.416666666666667,2025-04-22T09:54:17.825+03:00,0.02225348692287972,0
2025-04-22T10:57:49.955+03:00,1745308667.519363,40.95227670218328,29.14031054922987,76.52189,-1,-1,-1,-1,30,30.11905621221268,-9999,27185.205240375,-0.693756103515625,0.696533203125,-0.1927490234375,27185.195164375,-1.333135670840016,-1.293468853127326,-0.7701917960526267,-0.01244366727769375,0.0252546239644289,-0.007209063041955233,-0.006380319595336914,0.007645368576049805,0.0003504157066345215,XArbitraryZVertical,0.5809042853986602,0.2535576241838879,0.2793871692068022,-0.7212499830184352,-0.6903512477874756,0.6962729096412659,-0.1965174823999405,0,0,0,-1,-1,27184.904238375,unknown,2,2025-04-22T10:57:49.650+03:00,2025-04-21T17:08:51.449+03:00,7097,0.9377078,0,0,5930.618,5,20,2025-04-22T10:57:29.015+03:00,767001469.7401165,0,-20.97,100.4566,1,0.95,2025-04-22T10:52:28.061+03:00,85,1.416666666666667,2025-04-22T09:54:17.825+03:00,0.02225348692287972,0
2025-04-22T10:57:49.965+03:00,1745308667.519363,40.95227670218328,29.14031054922987,76.52189,-1,-1,-1,-1,30,30.11905621221268,-9999,27185.215316375,-0.6899566650390625,0.693328857421875,-0.1956024169921875,27185.205240375,-1.333208783576468,-1.293257936991815,-0.7701769555551004,0.000178783549927175,0.02511573955416679,-0.002927565714344382,-0.005664229393005371,0.0026664137840271,0.003123342990875244,XArbitraryZVertical,0.5808808322944802,0.253465011827418,0.2794793997381771,-0.7212656350004411,-0.6903196573257446,0.6962622404098511,-0.1966658979654312,0,0,0,-1,-1,27184.904238375,unknown,2,2025-04-22T10:57:49.650+03:00,2025-04-21T17:08:51.449+03:00,7097,0.9377078,0,0,5930.618,5,20,2025-04-22T10:57:29.015+03:00,767001469.7401165,0,-20.97,100.4566,1,0.95,2025-04-22T10:52:28.061+03:00,85,1.416666666666667,2025-04-22T09:54:17.825+03:00,0.02225348692287972,0
2025-04-22T10:57:49.975+03:00,1745308667.519363,40.95227670218328,29.14031054922987,76.52189,-1,-1,-1,-1,30,30.11905621221268,-9999,27185.225391375,-0.6822662353515625,0.6971588134765625,-0.1990966796875,27185.215316375,-1.33321523633472,-1.293013806322112,-0.7701828653131914,0.00308003113605082,0.02473091334104538,-0.001914232852868736,-0.003961563110351562,0.0004953742027282715,0.003885775804519653,XArbitraryZVertical,0.5808488759467532,0.253373167521117,0.2795507363552445,-0.7212958944677149,-0.6902675032615662,0.6962665319442749,-0.1968332380056381,0,0,0,-1,-1,27184.904238375,unknown,2,2025-04-22T10:57:49.650+03:00,2025-04-21T17:08:51.449+03:00,7097,0.9377078,0,0,5930.618,5,20,2025-04-22T10:57:29.015+03:00,767001469.7401165,0,-20.97,100.4566,1,0.95,2025-04-22T10:52:28.061+03:00,85,1.416666666666667,2025-04-22T09:54:17.825+03:00,0.02225348692287972,0
2025-04-22T10:57:49.986+03:00,1745308667.519363,40.95227670218328,29.14031054922987,76.52189,-1,-1,-1,-1,30,30.11905621221268,-9999,27185.235467375,-0.6820526123046875,0.699951171875,-0.1973724365234375,27185.225391375,-1.333175333667876,-1.292790038516222,-0.7701574756718588,0.005857375450432301,0.01758239045739174,-0.004973705392330885,0.001702964305877686,-0.004186034202575684,0.0008102655410766602,XArbitraryZVertical,0.580806894422049,0.2533121677732654,0.2796093045203181,-0.7213285255587011,-0.6902406215667725,0.6962482929229736,-0.1969925910234451,0,0,0,-1,-1,27184.904238375,unknown,2,2025-04-22T10:57:49.650+03:00,2025-04-21T17:08:51.449+03:00,7097,0.9377078,0,0,5930.618,5,20,2025-04-22T10:57:29.015+03:00,767001469.7401165,0,-20.97,100.4566,1,0.95,2025-04-22T10:52:28.061+03:00,85,1.416666666666667,2025-04-22T09:54:17.825+03:00,0.02225348692287972,0
2025-04-22T10:57:50.009+03:00,1745308667.519363,40.95227670218328,29.14031054922987,76.52189,-1,-1,-1,-1,30,30.11905621221268,-9999,27185.245543375,-0.685516357421875,0.69732666015625,-0.193389892578125,27185.235467375,-1.333103906764599,-1.292533120663844,-0.7701038536440964,0.007469386793673038,0.02547759562730789,-0.004583286121487617,0.008661568164825439,0.002123832702636719,-0.001748770475387573,XArbitraryZVertical,0.5807500703245871,0.2532572966314592,0.2796749006098008,-0.7213681528890847,-0.6902259588241577,0.6962097883224487,-0.1971801966428757,0,0,0,-1,-1,27184.904238375,unknown,2,2025-04-22T10:57:49.650+03:00,2025-04-21T17:08:51.449+03:00,7097,0.9377078,0,0,5930.618,5,20,2025-04-22T10:57:29.015+03:00,767001469.7401165,0,-20.97,100.4566,1,0.95,2025-04-22T10:52:28.061+03:00,85,1.416666666666667,2025-04-22T09:54:17.825+03:00,0.02225348692287972,0
2025-04-22T10:57:50.012+03:00,1745308667.519363,40.95227670218328,29.14031054922987,76.52189,-1,-1,-1,-1,30,30.11905621221268,-9999,27185.255618375,-0.6876678466796875,0.69964599609375,-0.194580078125,27185.245543375,-1.333031427319112,-1.292217626968044,-0.7700324578611371,0.00621510436758399,0.02997734025120735,-0.005292052868753672,0.00739586353302002,0.003639817237854004,0.001259759068489075,XArbitraryZVertical,0.5806810262180754,0.2531871885689377,0.2797626076385541,-0.7214142691656308,-0.6902113556861877,0.6961585283279419,-0.1974115818738937,0,0,0,-1,-1,27184.904238375,unknown,2,2025-04-22T10:57:49.650+03:00,2025-04-21T17:08:51.449+03:00,7097,0.9377078,0,0,5930.618,5,20,2025-04-22T10:57:29.015+03:00,767001469.7401165,0,-20.97,100.4566,1,0.95,2025-04-22T10:52:28.061+03:00,85,1.416666666666667,2025-04-22T09:54:17.825+03:00,0.02225348692287972,0
2025-04-22T10:57:50.016+03:00,1745308667.519363,40.95227670218328,29.14031054922987,76.52189,-1,-1,-1,-1,30,30.11905621221268,-9999,27185.265694375,-0.68682861328125,0.6950225830078125,-0.194915771484375,27185.255618375,-1.332953182401569,-1.291872633748329,-0.7699891620863474,0.00658927857875824,0.02995550259947777,-0.002374560106545687,0.003969192504882812,0.001626253128051758,0.004008620977401733,XArbitraryZVertical,0.5806133091517663,0.2530991885003305,0.2798480282090661,-0.7214664755470677,-0.6901721358299255,0.6961274743080139,-0.197657972574234,0,0,0,-1,-1,27184.904238375,unknown,2,2025-04-22T10:57:49.650+03:00,2025-04-21T17:08:51.449+03:00,7097,0.9377078,0,0,5930.618,5,20,2025-04-22T10:57:29.015+03:00,767001469.7401165,0,-20.97,100.4566,1,0.95,2025-04-22T10:52:28.061+03:00,85,1.416666666666667,2025-04-22T09:54:17.825+03:00,0.02225348692287972,0
2025-04-22T10:57:50.026+03:00,1745308667.519363,40.95227670218328,29.14031054922987,76.52189,-1,-1,-1,-1,30,30.11905621221268,-9999,27185.275770375,-0.683807373046875,0.69256591796875,-0.1936187744140625,27185.265694375,-1.33294074740709,-1.291582341038153,-0.769956208158153,0.0003981614718213677,0.02740572765469551,-0.004712848924100399,0.00251471996307373,0.003206312656402588,0.002979367971420288,XArbitraryZVertical,0.5805638282556572,0.2530085430173226,0.279938091126043,-0.7215031454751183,-0.6901367902755737,0.6961038112640381,-0.1978646367788315,0,0,0,-1,-1,27184.904238375,unknown,2,2025-04-22T10:57:49.650+03:00,2025-04-21T17:08:51.449+03:00,7097,0.9377078,0,0,5930.618,5,20,2025-04-22T10:57:29.015+03:00,767001469.7401165,0,-20.97,100.4566,1,0.95,2025-04-22T10:52:28.061+03:00,85,1.416666666666667,2025-04-22T09:54:17.825+03:00,0.02225348692287972,0
2025-04-22T10:57:50.036+03:00,1745308667.519363,40.95227670218328,29.14031054922987,76.52189,-1,-1,-1,-1,30,30.11905621221268,-9999,27185.285845375,-0.6844482421875,0.6906585693359375,-0.1944732666015625,27185.275770375,-1.332992827102,-1.291387710376145,-0.7699241964785029,-0.004611244425177574,0.02159444242715836,-0.002552492544054985,0.00371849536895752,-0.001561939716339111,0.003867506980895996,XArbitraryZVertical,0.5805360412628626,0.2529334423756848,0.2800234231474203,-0.7215188495214842,-0.6901198625564575,0.6960808038711548,-0.1980051547288895,0,0,0,-1,-1,27184.904238375,unknown,2,2025-04-22T10:57:49.650+03:00,2025-04-21T17:08:51.449+03:00,7097,0.9377078,0,0,5930.618,5,20,2025-04-22T10:57:29.015+03:00,767001469.7401165,0,-20.97,100.4566,1,0.95,2025-04-22T10:52:28.061+03:00,85,1.416666666666667,2025-04-22T09:54:17.825+03:00,0.02225348692287972,0
2025-04-22T10:57:50.046+03:00,1745308667.519363,40.95227670218328,29.14031054922987,76.52189,-1,-1,-1,-1,30,30.11905621221268,-9999,27185.295921375,-0.6875,0.687957763671875,-0.194183349609375,27185.285845375,-1.333071502887375,-1.291220711360994,-0.7698971812878281,-0.004981623496860266,0.02376551739871502,-0.004158212337642908,0.006465315818786621,-0.002961575984954834,0.004399895668029785,XArbitraryZVertical,0.5805166362061267,0.2528589348362761,0.2801087006514573,-0.7215274665875986,-0.6901048421859741,0.6960614323616028,-0.1981255859136581,0,0,0,-1,-1,27184.904238375,unknown,2,2025-04-22T10:57:49.650+03:00,2025-04-21T17:08:51.449+03:00,7097,0.9377078,0,0,5930.618,5,20,2025-04-22T10:57:29.015+03:00,767001469.7401165,0,-20.97,100.4566,1,0.95,2025-04-22T10:52:28.061+03:00,85,1.416666666666667,2025-04-22T09:54:17.825+03:00,0.02225348692287972,0
2025-04-22T10:57:50.056+03:00,1745308667.519363,40.95227670218328,29.14031054922987,76.52189,-1,-1,-1,-1,30,30.11905621221268,-9999,27185.305997375,-0.6864013671875,0.6945953369140625,-0.1944427490234375,27185.295921375,-1.333183220601114,-1.291080113182138,-0.7698600565514033,-0.01095962151885033,0.02073430828750134,-0.005302838981151581,0.005699336528778076,-0.005620479583740234,0.003558039665222168,XArbitraryZVertical,0.580502858848709,0.252787575101215,0.2802013885033537,-0.7215275611709034,-0.6901018023490906,0.6960347890853882,-0.1982297450304031,0,0,0,-1,-1,27184.904238375,unknown,2,2025-04-22T10:57:49.650+03:00,2025-04-21T17:08:51.449+03:00,7097,0.9377078,0,0,5930.618,5,20,2025-04-22T10:57:29.015+03:00,767001469.7401165,0,-20.97,100.4566,1,0.95,2025-04-22T10:52:28.061+03:00,85,1.416666666666667,2025-04-22T09:54:17.825+03:00,0.02225348692287972,0
2025-04-22T10:57:50.069+03:00,1745308667.519363,40.95227670218328,29.14031054922987,76.52189,-1,-1,-1,-1,30,30.11905621221268,-9999,27185.316072375,-0.6887359619140625,0.6959075927734375,-0.1955413818359375,27185.305997375,-1.333349619236382,-1.290979990153761,-0.7698159398172295,-0.0112821301445365,0.02208346500992775,-0.009468821808695793,0.002748847007751465,-0.007404625415802002,0.004505336284637451,XArbitraryZVertical,0.5805000978625859,0.2527171794679345,0.2803042446199425,-0.7215145073514959,-0.690111517906189,0.6960030794143677,-0.1983073204755783,0,0,0,-1,-1,27184.904238375,unknown,2,2025-04-22T10:57:49.650+03:00,2025-04-21T17:08:51.449+03:00,7097,0.9377078,0,0,5930.618,5,20,2025-04-22T10:57:29.015+03:00,767001469.7401165,0,-20.97,100.4566,1,0.95,2025-04-22T10:52:28.061+03:00,85,1.416666666666667,2025-04-22T09:54:17.825+03:00,0.02225348692287972,0
2025-04-22T10:57:50.077+03:00,1745308667.519363,40.95227670218328,29.14031054922987,76.52189,-1,-1,-1,-1,30,30.11905621221268,-9999,27185.326148375,-0.68902587890625,0.69781494140625,-0.198028564453125,27185.316072375,-1.333465731740923,-1.290820549518181,-0.7697503774115207,-0.003386656520888209,0.02481773309409618,-0.01026803627610207,0.004012167453765869,-0.0006436705589294434,0.00464320182800293,XArbitraryZVertical,0.5804779536599135,0.2526467485906022,0.2804128154003529,-0.7215147251395925,-0.6901236176490784,0.6959559917449951,-0.1984299272298813,0,0,0,-1,-1,27184.904238375,unknown,2,2025-04-22T10:57:49.650+03:00,2025-04-21T17:08:51.449+03:00,7097,0.9377078,0,0,5930.618,5,20,2025-04-22T10:57:29.015+03:00,767001469.7401165,0,-20.97,100.4566,1,0.95,2025-04-22T10:52:28.061+03:00,85,1.416666666666667,2025-04-22T09:54:17.825+03:00,0.02225348692287972,0
2025-04-22T10:57:50.102+03:00,1745308667.519363,40.95227670218328,29.14031054922987,76.52189,-1,-1,-1,-1,30,30.11905621221268,-9999,27185.336224375,-0.6882781982421875,0.6985321044921875,-0.197357177734375,27185.326148375,-1.333516464009147,-1.290619089085807,-0.7696729275249676,0.002861385699361563,0.02324140816926956,-0.01173730194568634,0.001628339290618896,0.0001291036605834961,0.002050578594207764,XArbitraryZVertical,0.5804389859634996,0.2525839494836129,0.2805137346280272,-0.7215288314413137,-0.6901354193687439,0.6959003806114197,-0.1985838711261749,0,0,0,-1,-1,27184.904238375,unknown,2,2025-04-22T10:57:49.650+03:00,2025-04-21T17:08:51.449+03:00,7097,0.9377078,0,0,5930.618,5,20,2025-04-22T10:57:29.015+03:00,767001469.7401165,0,-20.97,100.4566,1,0.95,2025-04-22T10:52:28.061+03:00,85,1.416666666666667,2025-04-22T09:54:17.825+03:00,0.02225348692287972,0
2025-04-22T10:57:50.103+03:00,1745308667.519363,40.95227670218328,29.14031054922987,76.52189,-1,-1,-1,-1,30,30.11905621221268,-9999,27185.346299375,-0.6874847412109375,0.6916351318359375,-0.1998748779296875,27185.336224375,-1.333563250808144,-1.290413919952501,-0.7695776173717869,-0.001459326827898622,0.02495515160262585,-0.01116445660591125,0.0007206201553344727,0.00297468900680542,0.0008372664451599121,XArbitraryZVertical,0.5803950052127759,0.2525266680397175,0.2806199050878631,-0.7215430484890701,-0.690158486366272,0.6958319544792175,-0.1987438350915909,0,0,0,-1,-1,27184.904238375,unknown,2,2025-04-22T10:57:49.650+03:00,2025-04-21T17:08:51.449+03:00,7097,0.9377078,0,0,5930.618,5,20,2025-04-22T10:57:29.015+03:00,767001469.7401165,0,-20.97,100.4566,1,0.95,2025-04-22T10:52:28.061+03:00,85,1.416666666666667,2025-04-22T09:54:17.825+03:00,0.02225348692287972,0
2025-04-22T10:57:50.107+03:00,1745308667.519363,40.95227670218328,29.14031054922987,76.52189,-1,-1,-1,-1,30,30.11905621221268,-9999,27185.356375375,-0.6873626708984375,0.6869049072265625,-0.1979217529296875,27185.346299375,-1.333678817721847,-1.290237107135774,-0.7694793287679458,-0.005989763420075178,0.02587434276938438,-0.01099794264882803,0.001941382884979248,0.002175569534301758,0.001725882291793823,XArbitraryZVertical,0.5803630282812161,0.2524605852064838,0.280743563315199,-0.7215438239632093,-0.6901891231536865,0.6957613229751587,-0.1988848149776459,0,0,0,-1,-1,27184.904238375,unknown,2,2025-04-22T10:57:49.650+03:00,2025-04-21T17:08:51.449+03:00,7097,0.9377078,0,0,5930.618,5,20,2025-04-22T10:57:29.015+03:00,767001469.7401165,0,-20.97,100.4566,1,0.95,2025-04-22T10:52:28.061+03:00,85,1.416666666666667,2025-04-22T09:54:17.825+03:00,0.02225348692287972,0
2025-04-22T10:57:50.117+03:00,1745308667.519363,40.95227670218328,29.14031054922987,76.52189,-1,-1,-1,-1,30,30.11905621221268,-9999,27185.366451375,-0.6866302490234375,0.6876373291015625,-0.1911468505859375,27185.356375375,-1.333818838873533,-1.290080349087515,-0.7694225335516023,-0.008034804835915565,0.02633586898446083,-0.00751079898327589,0.003412902355194092,-0.004894375801086426,-0.001283034682273865,XArbitraryZVertical,0.5803461869148157,0.2523813741601571,0.2808571992184011,-0.7215407147514087,-0.6901956796646118,0.6957205533981323,-0.1990038901567459,0,0,0,-1,-1,27184.904238375,unknown,2,2025-04-22T10:57:49.650+03:00,2025-04-21T17:08:51.449+03:00,7097,0.9377078,0,0,5930.618,5,20,2025-04-22T10:57:29.015+03:00,767001469.7401165,0,-20.97,100.4566,1,0.95,2025-04-22T10:52:28.061+03:00,85,1.416666666666667,2025-04-22T09:54:17.825+03:00,0.02225348692287972,0
2025-04-22T10:57:50.127+03:00,1745308667.519363,40.95227670218328,29.14031054922987,76.52189,-1,-1,-1,-1,30,30.11905621221268,-9999,27185.376527375,-0.68798828125,0.689300537109375,-0.1950531005859375,27185.366451375,-1.33402836925922,-1.289966598745211,-0.7693813042552864,-0.01385847292840481,0.02848969958722591,-0.009855112992227077,0.002868473529815674,-0.008969366550445557,0.002236634492874146,XArbitraryZVertical,0.5803475228612991,0.2522926404846549,0.2809786521286864,-0.7215233944190925,-0.6902006268501282,0.695690929889679,-0.1990903466939926,0,0,0,-1,-1,27184.904238375,unknown,2,2025-04-22T10:57:49.650+03:00,2025-04-21T17:08:51.449+03:00,7097,0.9377078,0,0,5930.618,5,20,2025-04-22T10:57:29.015+03:00,767001469.7401165,0,-20.97,100.4566,1,0.95,2025-04-22T10:52:28.061+03:00,85,1.416666666666667,2025-04-22T09:54:17.825+03:00,0.02225348692287972,0
2025-04-22T10:57:50.137+03:00,1745308667.519363,40.95227670218328,29.14031054922987,76.52189,-1,-1,-1,-1,30,30.11905621221268,-9999,27185.386602375,-0.6872406005859375,0.6966094970703125,-0.197357177734375,27185.376527375,-1.334265085267786,-1.289853178728938,-0.7693372036430587,-0.01580151543021202,0.02412664145231247,-0.008565876632928848,0.003684163093566895,-0.007518529891967773,0.007999718189239502,XArbitraryZVertical,0.5803516634182621,0.2521970748033903,0.2811107317388497,-0.7215020809350343,-0.6902076005935669,0.6956592798233032,-0.199177160859108,0,0,0,-1,-1,27184.904238375,unknown,2,2025-04-22T10:57:49.650+03:00,2025-04-21T17:08:51.449+03:00,7097,0.9377078,0,0,5930.618,5,20,2025-04-22T10:57:29.015+03:00,767001469.7401165,0,-20.97,100.4566,1,0.95,2025-04-22T10:52:28.061+03:00,85,1.416666666666667,2025-04-22T09:54:17.825+03:00,0.02225348692287972,0
2025-04-22T10:57:50.147+03:00,1745308667.519363,40.95227670218328,29.14031054922987,76.52189,-1,-1,-1,-1,30,30.11905621221268,-9999,27185.396678375,-0.686187744140625,0.699859619140625,-0.1949462890625,27185.386602375,-1.334525944477972,-1.2897891806723,-0.7692896440585751,-0.01505309902131557,0.0262958537787199,-0.01013631001114845,0.00216209888458252,-0.005500674247741699,0.003322869539260864,XArbitraryZVertical,0.5803650143063391,0.2521134322194804,0.2812382535401197,-0.7214709303829779,-0.6902267336845398,0.6956250667572021,-0.1992305368185043,0,0,0,-1,-1,27184.904238375,unknown,2,2025-04-22T10:57:49.650+03:00,2025-04-21T17:08:51.449+03:00,7097,0.9377078,0,0,5930.618,5,20,2025-04-22T10:57:29.015+03:00,767001469.7401165,0,-20.97,100.4566,1,0.95,2025-04-22T10:52:28.061+03:00,85,1.416666666666667,2025-04-22T09:54:17.825+03:00,0.02225348692287972,0
2025-04-22T10:57:50.157+03:00,1745308667.519363,40.95227670218328,29.14031054922987,76.52189,-1,-1,-1,-1,30,30.11905621221268,-9999,27185.406754375,-0.688201904296875,0.70098876953125,-0.1923980712890625,27185.396678375,-1.334704073760968,-1.289669946330709,-0.7692060639976732,-0.007056159432977438,0.02690598368644714,-0.01154245901852846,0.00346064567565918,0.001807272434234619,0.002353161573410034,XArbitraryZVertical,0.5803522119352993,0.2520452926125379,0.2813631538160537,-0.7214563361761325,-0.690258800983429,0.6955650448799133,-0.1993289589881897,0,0,0,-1,-1,27184.904238375,unknown,2,2025-04-22T10:57:49.650+03:00,2025-04-21T17:08:51.449+03:00,7097,0.9377078,0,0,5930.618,5,20,2025-04-22T10:57:29.015+03:00,767001469.7401165,0,-20.97,100.4566,1,0.95,2025-04-22T10:52:28.061+03:00,85,1.416666666666667,2025-04-22T09:54:17.825+03:00,0.02225348692287972,0
2025-04-22T10:57:50.167+03:00,1745308667.519363,40.95227670218328,29.14031054922987,76.52189,-1,-1,-1,-1,30,30.11905621221268,-9999,27185.416829375,-0.68682861328125,0.697540283203125,-0.188446044921875,27185.406754375,-1.334846589329642,-1.289493507744369,-0.7691466585447408,-0.005966793745756149,0.02920176088809967,-0.006432052701711655,0.003724634647369385,0.004215061664581299,0.004561632871627808,XArbitraryZVertical,0.5803321871388418,0.2519591931713734,0.2814842908990018,-0.7214553065592432,-0.6902633905410767,0.6955223679542542,-0.1994622349739075,0,0,0,-1,-1,27184.904238375,unknown,2,2025-04-22T10:57:49.650+03:00,2025-04-21T17:08:51.449+03:00,7097,0.9377078,0,0,5930.618,5,20,2025-04-22T10:57:29.015+03:00,767001469.7401165,0,-20.97,100.4566,1,0.95,2025-04-22T10:52:28.061+03:00,85,1.416666666666667,2025-04-22T09:54:17.825+03:00,0.02225348692287972,0
2025-04-22T10:57:50.177+03:00,1745308667.519363,40.95227670218328,29.14031054922987,76.52189,-1,-1,-1,-1,30,30.11905621221268,-9999,27185.426905375,-0.6836700439453125,0.688568115234375,-0.1936187744140625,27185.416829375,-1.334948726478818,-1.289275444606848,-0.7691226021257478,-0.00834845844656229,0.03162310644984245,-0.004778762347996235,0.00278162956237793,0.005468308925628662,0.007890641689300537,XArbitraryZVertical,0.5803090532503064,0.2518585181840128,0.2815918804556553,-0.7214670357625435,-0.6902358531951904,0.6955050826072693,-0.1996173858642578,0,0,0,-1,-1,27184.904238375,unknown,2,2025-04-22T10:57:49.650+03:00,2025-04-21T17:08:51.449+03:00,7097,0.9377078,0,0,5930.618,5,20,2025-04-22T10:57:29.015+03:00,767001469.7401165,0,-20.97,100.4566,1,0.95,2025-04-22T10:52:28.061+03:00,85,1.416666666666667,2025-04-22T09:54:17.825+03:00,0.02225348692287972,0
2025-04-22T10:57:50.187+03:00,1745308667.519363,40.95227670218328,29.14031054922987,76.52189,-1,-1,-1,-1,30,30.11905621221268,-9999,27185.436981375,-0.6826171875,0.692291259765625,-0.201171875,27185.426905375,-1.335069749602033,-1.289051326860846,-0.7690829695421769,-0.009052731096744537,0.03087329491972923,-0.008739481680095196,0.003877222537994385,0.0009648799896240234,0.01131832599639893,XArbitraryZVertical,0.5802839616469688,0.2517551542366381,0.2817129125429018,-0.7214760452648293,-0.6902176141738892,0.6954765915870667,-0.1997797340154648,0,0,0,-1,-1,27184.904238375,unknown,2,2025-04-22T10:57:49.650+03:00,2025-04-21T17:08:51.449+03:00,7097,0.9377078,0,0,5930.618,5,20,2025-04-22T10:57:29.015+03:00,767001469.7401165,0,-20.97,100.4566,1,0.95,2025-04-22T10:52:28.061+03:00,85,1.416666666666667,2025-04-22T09:54:17.825+03:00,0.02225348692287972,0
2025-04-22T10:57:50.198+03:00,1745308667.519363,40.95227670218328,29.14031054922987,76.52189,-1,-1,-1,-1,30,30.11905621221268,-9999,27185.447056375,-0.68634033203125,0.6912689208984375,-0.2027740478515625,27185.436981375,-1.335239977745646,-1.288867897009316,-0.7690520197034051,-0.01343709323555231,0.02943305857479572,-0.003160958411172032,0.00630265474319458,-0.007084786891937256,0.00585097074508667,XArbitraryZVertical,0.5802726989478131,0.2516494284268681,0.2818371772184312,-0.7214734480824434,-0.6902015805244446,0.6954543590545654,-0.1999123245477676,0,0,0,-1,-1,27184.904238375,unknown,2,2025-04-22T10:57:49.650+03:00,2025-04-21T17:08:51.449+03:00,7097,0.9377078,0,0,5930.618,5,20,2025-04-22T10:57:29.015+03:00,767001469.7401165,0,-20.97,100.4566,1,0.95,2025-04-22T10:52:28.061+03:00,85,1.416666666666667,2025-04-22T09:54:17.825+03:00,0.02225348692287972,0
2025-04-22T10:57:50.207+03:00,1745308667.519363,40.95227670218328,29.14031054922987,76.52189,-1,-1,-1,-1,30,30.11905621221268,-9999,27185.457132375,-0.685821533203125,0.6877288818359375,-0.2010955810546875,27185.447056375,-1.335490971535361,-1.288767483302556,-0.7690585939869231,-0.02342388033866882,0.02449961937963963,-0.003029098734259605,0.00743788480758667,-0.002969563007354736,-0.001771479845046997,XArbitraryZVertical,0.5802915594557247,0.2515383106163326,0.2819548228974916,-0.7214510971532642,-0.6901772022247314,0.6954590678215027,-0.1999803632497787,0,0,0,-1,-1,27184.904238375,unknown,2,2025-04-22T10:57:49.650+03:00,2025-04-21T17:08:51.449+03:00,7097,0.9377078,0,0,5930.618,5,20,2025-04-22T10:57:29.015+03:00,767001469.7401165,0,-20.97,100.4566,1,0.95,2025-04-22T10:52:28.061+03:00,85,1.416666666666667,2025-04-22T09:54:17.825+03:00,0.02225348692287972,0
2025-04-22T10:57:50.217+03:00,1745308667.519363,40.95227670218328,29.14031054922987,76.52189,-1,-1,-1,-1,30,30.11905621221268,-9999,27185.467208375,-0.685638427734375,0.686279296875,-0.2014312744140625,27185.457132375,-1.335861890306478,-1.288830858989441,-0.7691210164763763,-0.03268209472298622,0.01904386654496193,0.002523325849324465,0.003533065319061279,-0.005196511745452881,-0.002773329615592957,XArbitraryZVertical,0.5803609732495429,0.251433658020267,0.2820507461071311,-0.7213941653684071,-0.6901480555534363,0.6955039501190186,-0.1999245136976242,0,0,0,-1,-1,27184.904238375,unknown,2,2025-04-22T10:57:49.650+03:00,2025-04-21T17:08:51.449+03:00,7097,0.9377078,0,0,5930.618,5,20,2025-04-22T10:57:29.015+03:00,767001469.7401165,0,-20.97,100.4566,1,0.95,2025-04-22T10:52:28.061+03:00,85,1.416666666666667,2025-04-22T09:54:17.825+03:00,0.02225348692287972,0
2025-04-22T10:57:50.227+03:00,1745308667.519363,40.95227670218328,29.14031054922987,76.52189,-1,-1,-1,-1,30,30.11905621221268,-9999,27185.477283375,-0.6855010986328125,0.6931304931640625,-0.2021942138671875,27185.467208375,-1.336241173885929,-1.288945224701825,-0.7692302879460486,-0.02809393405914307,0.01223742589354515,0.004772399086505175,0.0040321946144104,-0.00815892219543457,-0.001210212707519531,XArbitraryZVertical,0.5804489356324428,0.2513300882923385,0.282120318074282,-0.7213322701331493,-0.6900978684425354,0.6955824494361877,-0.1998244374990463,0,0,0,-1,-1,27184.904238375,unknown,2,2025-04-22T10:57:49.650+03:00,2025-04-21T17:08:51.449+03:00,7097,0.9377078,0,0,5930.618,5,20,2025-04-22T10:57:29.015+03:00,767001469.7401165,0,-20.97,100.4566,1,0.95,2025-04-22T10:52:28.061+03:00,85,1.416666666666667,2025-04-22T09:54:17.825+03:00,0.02225348692287972,0
2025-04-22T10:57:50.238+03:00,1745308667.519363,40.95227670218328,29.14031054922987,76.52189,-1,-1,-1,-1,30,30.11905621221268,-9999,27185.487359375,-0.6846923828125,0.69744873046875,-0.19793701171875,27185.477283375,-1.336577650805692,-1.289058655447176,-0.7693655765823424,-0.02393993549048901,0.01239215582609177,0.003793420502915978,0.004773139953613281,-0.009034335613250732,-0.002459034323692322,XArbitraryZVertical,0.580537140063905,0.2512302713252432,0.2821665663913764,-0.7212778886094785,-0.690030038356781,0.6956796646118164,-0.1997199654579163,0,0,0,-1,-1,27184.904238375,unknown,2,2025-04-22T10:57:49.650+03:00,2025-04-21T17:08:51.449+03:00,7097,0.9377078,0,0,5930.618,5,20,2025-04-22T10:57:29.015+03:00,767001469.7401165,0,-20.97,100.4566,1,0.95,2025-04-22T10:52:28.061+03:00,85,1.416666666666667,2025-04-22T09:54:17.825+03:00,0.02225348692287972,0
2025-04-22T10:57:50.248+03:00,1745308667.519363,40.95227670218328,29.14031054922987,76.52189,-1,-1,-1,-1,30,30.11905621221268,-9999,27185.497435375,-0.682159423828125,0.6948089599609375,-0.192962646484375,27185.487359375,-1.336881771863488,-1.289140043510786,-0.7694657945464803,-0.01988300867378712,0.01344583556056023,0.001008087070658803,0.004569828510284424,-0.001339614391326904,-0.001451238989830017,XArbitraryZVertical,0.5806089583116335,0.2511394612175835,0.2822213944486241,-0.721230247504277,-0.6899793148040771,0.6957516074180603,-0.1996444165706635,0,0,0,-1,-1,27184.904238375,unknown,2,2025-04-22T10:57:49.650+03:00,2025-04-21T17:08:51.449+03:00,7097,0.9377078,0,0,5930.618,5,20,2025-04-22T10:57:29.015+03:00,767001469.7401165,0,-20.97,100.4566,1,0.95,2025-04-22T10:52:28.061+03:00,85,1.416666666666667,2025-04-22T09:54:17.825+03:00,0.02225348692287972,0
2025-04-22T10:57:50.258+03:00,1745308667.519363,40.95227670218328,29.14031054922987,76.52189,-1,-1,-1,-1,30,30.11905621221268,-9999,27185.507510375,-0.680389404296875,0.695831298828125,-0.1904754638671875,27185.497435375,-1.33715188431637,-1.289202511908558,-0.7695445100958704,-0.01892746612429619,0.01434545125812292,0.001294643152505159,0.005613088607788086,0.0009537339210510254,0.002732425928115845,XArbitraryZVertical,0.5806690462941895,0.2510585563907346,0.2822761692993354,-0.7211886580173402,-0.6899392604827881,0.6958081722259521,-0.1995861232280731,0,0,0,-1,-1,27184.904238375,unknown,2,2025-04-22T10:57:49.650+03:00,2025-04-21T17:08:51.449+03:00,7097,0.9377078,0,0,5930.618,5,20,2025-04-22T10:57:29.015+03:00,767001469.7401165,0,-20.97,100.4566,1,0.95,2025-04-22T10:52:28.061+03:00,85,1.416666666666667,2025-04-22T09:54:17.825+03:00,0.02225348692287972,0
2025-04-22T10:57:50.268+03:00,1745308667.519363,40.95227670218328,29.14031054922987,76.52189,-1,-1,-1,-1,30,30.11905621221268,-9999,27185.517586375,-0.6824493408203125,0.696563720703125,-0.1952056884765625,27185.507510375,-1.337393394825973,-1.289244282732807,-0.7696127451154084,-0.0156856682151556,0.0138218067586422,-0.0007479014457203448,0.007528960704803467,-0.0009110569953918457,0.007420599460601807,XArbitraryZVertical,0.5807203004990158,0.2509818098886283,0.2823298918049356,-0.7211531142999161,-0.6899020075798035,0.6958571672439575,-0.1995441317558289,0,0,0,-1,-1,27184.904238375,unknown,2,2025-04-22T10:57:49.650+03:00,2025-04-21T17:08:51.449+03:00,7097,0.9377078,0,0,5930.618,5,20,2025-04-22T10:57:29.015+03:00,767001469.7401165,0,-20.97,100.4566,1,0.95,2025-04-22T10:52:28.061+03:00,85,1.416666666666667,2025-04-22T09:54:17.825+03:00,0.02225348692287972,0
2025-04-22T10:57:50.278+03:00,1745308667.519363,40.95227670218328,29.14031054922987,76.52189,-1,-1,-1,-1,30,30.11905621221268,-9999,27185.527662375,-0.6880645751953125,0.6933746337890625,-0.1968994140625,27185.517586375,-1.337570022476294,-1.289220792495085,-0.7696302329453665,-0.01276364643126726,0.01358664967119694,-0.003066715784370899,0.009770870208740234,0.0001445412635803223,0.008776247501373291,XArbitraryZVertical,0.5807430132106782,0.2509164810191054,0.2823949434686961,-0.7211320697979654,-0.6898856163024902,0.6958697438240051,-0.1995569467544556,0,0,0,-1,-1,27184.904238375,unknown,2,2025-04-22T10:57:49.650+03:00,2025-04-21T17:08:51.449+03:00,7097,0.9377078,0,0,5930.618,5,20,2025-04-22T10:57:29.015+03:00,767001469.7401165,0,-20.97,100.4566,1,0.95,2025-04-22T10:52:28.061+03:00,85,1.416666666666667,2025-04-22T09:54:17.825+03:00,0.02225348692287972,0
2025-04-22T10:57:50.288+03:00,1745308667.519363,40.95227670218328,29.14031054922987,76.52189,-1,-1,-1,-1,30,30.11905621221268,-9999,27185.537737375,-0.6953582763671875,0.688751220703125,-0.19537353515625,27185.527662375,-1.337794948753344,-1.289194223975645,-0.7696673372524955,-0.02254716865718365,0.01989448070526123,2.208497608080506e-05,0.006948411464691162,0.0004230141639709473,0.003431513905525208,XArbitraryZVertical,0.5807756739315514,0.2508297690584693,0.2824721873271085,-0.7211056545571948,-0.6898554563522339,0.6958963871002197,-0.1995680928230286,0,0,0,-1,-1,27184.904238375,unknown,2,2025-04-22T10:57:49.650+03:00,2025-04-21T17:08:51.449+03:00,7097,0.9377078,0,0,5930.618,5,20,2025-04-22T10:57:29.015+03:00,767001469.7401165,0,-20.97,100.4566,1,0.95,2025-04-22T10:52:28.061+03:00,85,1.416666666666667,2025-04-22T09:54:17.825+03:00,0.02225348692287972,0
2025-04-22T10:57:50.298+03:00,1745308667.519363,40.95227670218328,29.14031054922987,76.52189,-1,-1,-1,-1,30,30.11905621221268,-9999,27185.547813375,-0.69439697265625,0.68402099609375,-0.19512939453125,27185.537737375,-1.338169941916662,-1.289244018778355,-0.7697392098742146,-0.03215878456830978,0.02228866145014763,0.001366448705084622,0.0005168914794921875,-0.002954959869384766,0.003581643104553223,XArbitraryZVertical,0.5808455625862582,0.2507159773429577,0.2825705646135939,-0.72105044391172,-0.6898174285888672,0.6959480047225952,-0.1995198577642441,0,0,0,-1,-1,27184.904238375,unknown,2,2025-04-22T10:57:49.650+03:00,2025-04-21T17:08:51.449+03:00,7097,0.9377078,0,0,5930.618,5,20,2025-04-22T10:57:29.015+03:00,767001469.7401165,0,-20.97,100.4566,1,0.95,2025-04-22T10:52:28.061+03:00,85,1.416666666666667,2025-04-22T09:54:17.825+03:00,0.02225348692287972,0
2025-04-22T10:57:50.308+03:00,1745308667.519363,40.95227670218328,29.14031054922987,76.52189,-1,-1,-1,-1,30,30.11905621221268,-9999,27185.557889375,-0.687896728515625,0.6902313232421875,-0.196685791015625,27185.547813375,-1.338561266239852,-1.289282825080294,-0.7698173497528685,-0.02999902702867985,0.01900571584701538,1.952174352481961e-05,-0.005814194679260254,-0.008244812488555908,0.004485815763473511,XArbitraryZVertical,0.5809173074647658,0.2505914616070098,0.2826760499162629,-0.7209946223932845,-0.6897730231285095,0.6960040926933289,-0.1994780004024506,0,0,0,-1,-1,27184.904238375,unknown,2,2025-04-22T10:57:49.650+03:00,2025-04-21T17:08:51.449+03:00,7097,0.9377078,0,0,5930.618,5,20,2025-04-22T10:57:29.015+03:00,767001469.7401165,0,-20.97,100.4566,1,0.95,2025-04-22T10:52:28.061+03:00,85,1.416666666666667,2025-04-22T09:54:17.825+03:00,0.02225348692287972,0
2025-04-22T10:57:50.319+03:00,1745308667.519363,40.95227670218328,29.14031054922987,76.52189,-1,-1,-1,-1,30,30.11905621221268,-9999,27185.567965375,-0.68865966796875,0.6952667236328125,-0.1986236572265625,27185.557889375,-1.338903707445854,-1.289369333413027,-0.7698709449392631,-0.02371023781597614,0.01084659062325954,-0.002695837523788214,-0.004245877265930176,-0.01106041669845581,0.00394284725189209,XArbitraryZVertical,0.5809842567925376,0.2505061095575275,0.2827576645566946,-0.7209383197760898,-0.6897544264793396,0.6960425972938538,-0.1994079649448395,0,0,0,-1,-1,27184.904238375,unknown,2,2025-04-22T10:57:49.650+03:00,2025-04-21T17:08:51.449+03:00,7097,0.9377078,0,0,5930.618,5,20,2025-04-22T10:57:29.015+03:00,767001469.7401165,0,-20.97,100.4566,1,0.95,2025-04-22T10:52:28.061+03:00,85,1.416666666666667,2025-04-22T09:54:17.825+03:00,0.02225348692287972,0
2025-04-22T10:57:50.328+03:00,1745308667.519363,40.95227670218328,29.14031054922987,76.52189,-1,-1,-1,-1,30,30.11905621221268,-9999,27185.578040375,-0.697235107421875,0.6966400146484375,-0.1978759765625,27185.567965375,-1.339198787473173,-1.289420559573596,-0.7699027777956498,-0.01757298223674297,0.02022171765565872,-0.001581837073899806,0.002868890762329102,-0.005193352699279785,0.00182613730430603,XArbitraryZVertical,0.5810354638313699,0.2504287262948173,0.282839238816624,-0.7208919517594751,-0.6897433400154114,0.6960654258728027,-0.1993664801120758,0,0,0,-1,-1,27184.904238375,unknown,2,2025-04-22T10:57:49.650+03:00,2025-04-21T17:08:51.449+03:00,7097,0.9377078,0,0,5930.618,5,20,2025-04-22T10:57:29.015+03:00,767001469.7401165,0,-20.97,100.4566,1,0.95,2025-04-22T10:52:28.061+03:00,85,1.416666666666667,2025-04-22T09:54:17.825+03:00,0.02225348692287972,0
2025-04-22T10:57:50.338+03:00,1745308667.519363,40.95227670218328,29.14031054922987,76.52189,-1,-1,-1,-1,30,30.11905621221268,-9999,27185.58811641667,-0.69287109375,0.7002716064453125,-0.1943511962890625,27185.578040375,-1.339355981584773,-1.289283899936737,-0.7699196991475407,-0.008880425244569778,0.02504896186292171,-0.003045776626095176,0.0001447796821594238,-0.00114673376083374,0.001001536846160889,XArbitraryZVertical,0.5810395623228829,0.250328388517237,0.2829303057131736,-0.7208877130318809,-0.6897047162055969,0.6960775852203369,-0.1994574517011642,0,0,0,-1,-1,27184.904238375,unknown,2,2025-04-22T10:57:49.650+03:00,2025-04-21T17:08:51.449+03:00,7097,0.9377078,0,0,5930.618,5,20,2025-04-22T10:57:29.015+03:00,767001469.7401165,0,-20.97,100.4566,1,0.95,2025-04-22T10:52:28.061+03:00,85,1.416666666666667,2025-04-22T09:54:17.825+03:00,0.02225348692287972,0
2025-04-22T10:57:50.349+03:00,1745308667.519363,40.95227670218328,29.14031054922987,76.52189,-1,-1,-1,-1,30,30.11905621221268,-9999,27185.59819241667,-0.680572509765625,0.6996002197265625,-0.1952972412109375,27185.58811641667,-1.339542024966695,-1.289184322888465,-0.7699278586274447,-0.0136131951585412,0.0191824845969677,-0.004850234836339951,-0.007769346237182617,0.001197218894958496,0.002091005444526672,XArbitraryZVertical,0.5810505612054448,0.2502358391702669,0.2830237412315338,-0.7208742822666437,-0.6896793842315674,0.6960834264755249,-0.1995245367288589,0,0,0,-1,-1,27184.904238375,unknown,2,2025-04-22T10:57:49.650+03:00,2025-04-21T17:08:51.449+03:00,7097,0.9377078,0,0,5930.618,5,20,2025-04-22T10:57:29.015+03:00,767001469.7401165,0,-20.97,100.4566,1,0.95,2025-04-22T10:52:28.061+03:00,85,1.416666666666667,2025-04-22T09:54:17.825+03:00,0.02225348692287972,0
2025-04-22T10:57:50.358+03:00,1745308667.519363,40.95227670218328,29.14031054922987,76.52189,-1,-1,-1,-1,30,30.11905621221268,-9999,27185.60826741667,-0.6825103759765625,0.693450927734375,-0.1937408447265625,27185.59819241667,-1.339756483393492,-1.28920069609589,-0.7699450882252902,-0.01549658365547657,0.01342446357011795,-0.001961770234629512,-0.002330183982849121,0.004450321197509766,0.005219697952270508,XArbitraryZVertical,0.5810835001828126,0.2501739517087738,0.2830909196570862,-0.7208428424592214,-0.6896711587905884,0.6960958242416382,-0.1995099186897278,0,0,0,-1,-1,27184.904238375,unknown,2,2025-04-22T10:57:49.650+03:00,2025-04-21T17:08:51.449+03:00,7097,0.9377078,0,0,5930.618,5,20,2025-04-22T10:57:29.015+03:00,767001469.7401165,0,-20.97,100.4566,1,0.95,2025-04-22T10:52:28.061+03:00,85,1.416666666666667,2025-04-22T09:54:17.825+03:00,0.02225348692287972,0
2025-04-22T10:57:50.369+03:00,1745308667.519363,40.95227670218328,29.14031054922987,76.52189,-1,-1,-1,-1,30,30.11905621221268,-9999,27185.61834341667,-0.688720703125,0.6899566650390625,-0.1963958740234375,27185.60826741667,-1.339964102130929,-1.289170732806598,-0.7700053215820304,-0.01293275691568851,0.01933295279741287,0.003563489997759461,0.0093575119972229,0.003323674201965332,0.004328429698944092,XArbitraryZVertical,0.5811184963181367,0.2500836443078153,0.2831556907862772,-0.7208205197929527,-0.6896248459815979,0.6961390376091003,-0.1995189338922501,0,0,0,-1,-1,27184.904238375,unknown,2,2025-04-22T10:57:49.650+03:00,2025-04-21T17:08:51.449+03:00,7097,0.9377078,0,0,5930.618,5,20,2025-04-22T10:57:29.015+03:00,767001469.7401165,0,-20.97,100.4566,1,0.95,2025-04-22T10:52:28.061+03:00,85,1.416666666666667,2025-04-22T09:54:17.825+03:00,0.02225348692287972,0
2025-04-22T10:57:50.379+03:00,1745308667.519363,40.95227670218328,29.14031054922987,76.52189,-1,-1,-1,-1,30,30.11905621221268,-9999,27185.62841941667,-0.686798095703125,0.6903839111328125,-0.197418212890625,27185.61834341667,-1.340069250380118,-1.289054092837161,-0.7700754650880812,-0.005692421458661556,0.01767060719430447,0.006802958901971579,0.006464540958404541,-0.002998054027557373,0.00521928071975708,XArbitraryZVertical,0.581130560185576,0.2499887366055258,0.2832056531930801,-0.7208241298237785,-0.689554750919342,0.6961894035339355,-0.199585810303688,0,0,0,-1,-1,27184.904238375,unknown,2,2025-04-22T10:57:49.650+03:00,2025-04-21T17:08:51.449+03:00,7097,0.9377078,0,0,5930.618,5,20,2025-04-22T10:57:29.015+03:00,767001469.7401165,0,-20.97,100.4566,1,0.95,2025-04-22T10:52:28.061+03:00,85,1.416666666666667,2025-04-22T09:54:17.825+03:00,0.02225348692287972,0
2025-04-22T10:57:50.389+03:00,1745308667.519363,40.95227670218328,29.14031054922987,76.52189,-1,-1,-1,-1,30,30.11905621221268,-9999,27185.63849441667,-0.6831512451171875,0.69189453125,-0.193359375,27185.62841941667,-1.340181060377245,-1.288961346511098,-0.7701399794130008,-0.01183959655463696,0.01846656017005444,0.007358594797551632,-0.0002347826957702637,-0.006721794605255127,0.003287091851234436,XArbitraryZVertical,0.5811456329721011,0.2499022452599031,0.2832527786412632,-0.7208233940892101,-0.6894930005073547,0.696235716342926,-0.1996372491121292,0,0,0,-1,-1,27184.904238375,unknown,2,2025-04-22T10:57:49.650+03:00,2025-04-21T17:08:51.449+03:00,7097,0.9377078,0,0,5930.618,5,20,2025-04-22T10:57:29.015+03:00,767001469.7401165,0,-20.97,100.4566,1,0.95,2025-04-22T10:52:28.061+03:00,85,1.416666666666667,2025-04-22T09:54:17.825+03:00,0.02225348692287972,0
2025-04-22T10:57:50.399+03:00,1745308667.519363,40.95227670218328,29.14031054922987,76.52189,-1,-1,-1,-1,30,30.11905621221268,-9999,27185.64857041667,-0.68658447265625,0.6868133544921875,-0.18646240234375,27185.63849441667,-1.340271775011705,-1.288854950137883,-0.7702196121219728,-0.006861882284283638,0.01989934034645557,0.01039539743214846,0.003932774066925049,-0.005542874336242676,0.002826184034347534,XArbitraryZVertical,0.5811593887320428,0.2498122330981275,0.2832916462868946,-0.7208283454788668,-0.6894186735153198,0.6962928771972656,-0.1996952295303345,0,0,0,-1,-1,27184.904238375,unknown,2,2025-04-22T10:57:49.650+03:00,2025-04-21T17:08:51.449+03:00,7097,0.9377078,0,0,5930.618,5,20,2025-04-22T10:57:29.015+03:00,767001469.7401165,0,-20.97,100.4566,1,0.95,2025-04-22T10:52:28.061+03:00,85,1.416666666666667,2025-04-22T09:54:17.825+03:00,0.02225348692287972,0
2025-04-22T10:57:50.409+03:00,1745308667.519363,40.95227670218328,29.14031054922987,76.52189,-1,-1,-1,-1,30,30.11905621221268,-9999,27185.65864641667,-0.6861114501953125,0.6880645751953125,-0.1907958984375,27185.64857041667,-1.340313278164123,-1.288654119862944,-0.7703508724235576,-0.00786416232585907,0.02665538154542446,0.01438754145056009,0.00523906946182251,-0.005392968654632568,0.007638931274414062,XArbitraryZVertical,0.5811650744333026,0.2496859296722322,0.2833240345145323,-0.7208546913776014,-0.6892906427383423,0.6963871121406555,-0.1998081803321838,0,0,0,-1,-1,27184.904238375,unknown,2,2025-04-22T10:57:49.650+03:00,2025-04-21T17:08:51.449+03:00,7097,0.9377078,0,0,5930.618,5,20,2025-04-22T10:57:29.015+03:00,767001469.7401165,0,-20.97,100.4566,1,0.95,2025-04-22T10:52:28.061+03:00,85,1.416666666666667,2025-04-22T09:54:17.825+03:00,0.02225348692287972,0
2025-04-22T10:57:50.419+03:00,1745308667.519363,40.95227670218328,29.14031054922987,76.52189,-1,-1,-1,-1,30,30.11905621221268,-9999,27185.66872241667,-0.6836090087890625,0.6923370361328125,-0.1997833251953125,27185.65864641667,-1.340363514220142,-1.288416524623555,-0.7705084268534318,-0.009923851117491722,0.02415254153311253,0.01345144025981426,0.002507507801055908,-0.00996166467666626,0.01424188911914825,XArbitraryZVertical,0.581172383184561,0.2495355098097294,0.2833621225086587,-0.7208859207230495,-0.6891377568244934,0.6965001821517944,-0.1999413818120956,0,0,0,-1,-1,27184.904238375,unknown,2,2025-04-22T10:57:49.650+03:00,2025-04-21T17:08:51.449+03:00,7097,0.9377078,0,0,5930.618,5,20,2025-04-22T10:57:29.015+03:00,767001469.7401165,0,-20.97,100.4566,1,0.95,2025-04-22T10:52:28.061+03:00,85,1.416666666666667,2025-04-22T09:54:17.825+03:00,0.02225348692287972,0
2025-04-22T10:57:50.429+03:00,1745308667.519363,40.95227670218328,29.14031054922987,76.52189,-1,-1,-1,-1,30,30.11905621221268,-9999,27185.67879741667,-0.6820220947265625,0.69024658203125,-0.20074462890625,27185.66872241667,-1.340522524725649,-1.288305223567323,-0.770682587922057,-0.01758190430700779,0.0219076294451952,0.01476444583386183,0.003360629081726074,-0.007385790348052979,0.007097840309143066,XArbitraryZVertical,0.5812147902633348,0.2493937190484198,0.283397564297445,-0.7208869015934639,-0.6889990568161011,0.6966251134872437,-0.1999842822551727,0,0,0,-1,-1,27184.904238375,unknown,2,2025-04-22T10:57:49.650+03:00,2025-04-21T17:08:51.449+03:00,7097,0.9377078,0,0,5930.618,5,20,2025-04-22T10:57:29.015+03:00,767001469.7401165,0,-20.97,100.4566,1,0.95,2025-04-22T10:52:28.061+03:00,85,1.416666666666667,2025-04-22T09:54:17.825+03:00,0.02225348692287972,0
2025-04-22T10:57:50.439+03:00,1745308667.519363,40.95227670218328,29.14031054922987,76.52189,-1,-1,-1,-1,30,30.11905621221268,-9999,27185.68887341667,-0.683990478515625,0.6905364990234375,-0.195556640625,27185.67879741667,-1.340714268187095,-1.288251814388932,-0.7708847760268409,-0.01678242348134518,0.01621512323617935,0.01257479470223188,0.005854427814483643,-0.004555344581604004,-0.0003203749656677246,XArbitraryZVertical,0.581275634809353,0.2492543403645427,0.283419252371945,-0.7208775524240927,-0.6888531446456909,0.6967701315879822,-0.1999818235635757,0,0,0,-1,-1,27184.904238375,unknown,2,2025-04-22T10:57:49.650+03:00,2025-04-21T17:08:51.449+03:00,7097,0.9377078,0,0,5930.618,5,20,2025-04-22T10:57:29.015+03:00,767001469.7401165,0,-20.97,100.4566,1,0.95,2025-04-22T10:52:28.061+03:00,85,1.416666666666667,2025-04-22T09:54:17.825+03:00,0.02225348692287972,0
2025-04-22T10:57:50.449+03:00,1745308667.519363,40.95227670218328,29.14031054922987,76.52189,-1,-1,-1,-1,30,30.11905621221268,-9999,27185.69894941667,-0.685882568359375,0.691070556640625,-0.1963653564453125,27185.68887341667,-1.340915402150089,-1.288247044961445,-0.7710778686641696,-0.01528925448656082,0.01237903907895088,0.01275638863444328,0.006639778614044189,-0.006204426288604736,1.156330108642578e-05,XArbitraryZVertical,0.5813425513383139,0.249132605427881,0.2834329760182576,-0.72086022013741,-0.6887228488922119,0.6969086527824402,-0.1999475657939911,0,0,0,-1,-1,27184.904238375,unknown,2,2025-04-22T10:57:49.650+03:00,2025-04-21T17:08:51.449+03:00,7097,0.9377078,0,0,5930.618,5,20,2025-04-22T10:57:29.015+03:00,767001469.7401165,0,-20.97,100.4566,1,0.95,2025-04-22T10:52:28.061+03:00,85,1.416666666666667,2025-04-22T09:54:17.825+03:00,0.02225348692287972,0
2025-04-22T10:57:50.459+03:00,1745308667.519363,40.95227670218328,29.14031054922987,76.52189,-1,-1,-1,-1,30,30.11905621221268,-9999,27185.70902441667,-0.68621826171875,0.69085693359375,-0.1937255859375,27185.69894941667,-1.341093000282284,-1.288258597824607,-0.7712644584545507,-0.01777132228016853,0.01344350446015596,0.0138528123497963,0.005037009716033936,-0.006353497505187988,0.004560232162475586,XArbitraryZVertical,0.5814073703459981,0.2490256857969756,0.2834355251005892,-0.7208438909431059,-0.6886003017425537,0.6970424652099609,-0.1999033540487289,0,0,0,-1,-1,27184.904238375,unknown,2,2025-04-22T10:57:49.650+03:00,2025-04-21T17:08:51.449+03:00,7097,0.9377078,0,0,5930.618,5,20,2025-04-22T10:57:29.015+03:00,767001469.7401165,0,-20.97,100.4566,1,0.95,2025-04-22T10:52:28.061+03:00,85,1.416666666666667,2025-04-22T09:54:17.825+03:00,0.02225348692287972,0
2025-04-22T10:57:50.469+03:00,1745308667.519363,40.95227670218328,29.14031054922987,76.52189,-1,-1,-1,-1,30,30.11905621221268,-9999,27185.71910041667,-0.6875762939453125,0.6916656494140625,-0.1916961669921875,27185.70902441667,-1.341297748030245,-1.288284927612028,-0.7714124638785897,-0.01980764232575893,0.01088467333465815,0.01071144826710224,0.002089858055114746,-0.005956113338470459,0.003948807716369629,XArbitraryZVertical,0.5814691513683155,0.248928487650621,0.2834555787365018,-0.7208197561769283,-0.6885064840316772,0.6971485614776611,-0.1998564749956131,0,0,0,-1,-1,27184.904238375,unknown,2,2025-04-22T10:57:49.650+03:00,2025-04-21T17:08:51.449+03:00,7097,0.9377078,0,0,5930.618,5,20,2025-04-22T10:57:29.015+03:00,767001469.7401165,0,-20.97,100.4566,1,0.95,2025-04-22T10:52:28.061+03:00,85,1.416666666666667,2025-04-22T09:54:17.825+03:00,0.02225348692287972,0
2025-04-22T10:57:50.479+03:00,1745308667.519363,40.95227670218328,29.14031054922987,76.52189,-1,-1,-1,-1,30,30.11905621221268,-9999,27185.72917641667,-0.683349609375,0.6916656494140625,-0.1934814453125,27185.71910041667,-1.341540820755292,-1.288324249999683,-0.7715974083899174,-0.02562957815825939,0.01290201768279076,0.01367394812405109,0.001516163349151611,-0.005783438682556152,0.006449252367019653,XArbitraryZVertical,0.5815456281942077,0.2488130668458197,0.2834741822481407,-0.7207906543933188,-0.6883906126022339,0.6972811222076416,-0.1997934728860855,0,0,0,-1,-1,27184.904238375,unknown,2,2025-04-22T10:57:49.650+03:00,2025-04-21T17:08:51.449+03:00,7097,0.9377078,0,0,5930.618,5,20,2025-04-22T10:57:29.015+03:00,767001469.7401165,0,-20.97,100.4566,1,0.95,2025-04-22T10:52:28.061+03:00,85,1.416666666666667,2025-04-22T09:54:17.825+03:00,0.02225348692287972,0
2025-04-22T10:57:50.501+03:00,1745308667.519363,40.95227670218328,29.14031054922987,76.52189,-1,-1,-1,-1,30,30.11905621221268,-9999,27185.73925141667,-0.6846160888671875,0.691986083984375,-0.1973876953125,27185.72917641667,-1.341784049342091,-1.288370966946059,-0.7717949727848059,-0.01666118204593658,0.01336214505136013,0.0155079010874033,0.0009049177169799805,-0.00548255443572998,0.007889300584793091,XArbitraryZVertical,0.5816259468759137,0.2486961928847932,0.2834867214068332,-0.7207612450914301,-0.6882676482200623,0.6974227428436279,-0.1997229158878326,0,0,0,-1,-1,27184.904238375,unknown,2,2025-04-22T10:57:49.650+03:00,2025-04-21T17:08:51.449+03:00,7097,0.9377078,0,0,5930.618,5,20,2025-04-22T10:57:29.015+03:00,767001469.7401165,0,-20.97,100.4566,1,0.95,2025-04-22T10:52:28.061+03:00,85,1.416666666666667,2025-04-22T09:54:17.825+03:00,0.02225348692287972,0
2025-04-22T10:57:50.504+03:00,1745308667.519363,40.95227670218328,29.14031054922987,76.52189,-1,-1,-1,-1,30,30.11905621221268,-9999,27185.74932741667,-0.689788818359375,0.6991729736328125,-0.2001190185546875,27185.73925141667,-1.34181935446454,-1.288272403452898,-0.7719525519230955,0.006344533991068602,0.0184469185769558,0.01754042506217957,0.005662441253662109,-0.00564122200012207,0.00566825270652771,XArbitraryZVertical,0.581651001815082,0.2486001771613335,0.2834790400470409,-0.720777188675008,-0.6881424188613892,0.6975356936454773,-0.1997601240873337,0,0,0,-1,-1,27184.904238375,unknown,2,2025-04-22T10:57:49.650+03:00,2025-04-21T17:08:51.449+03:00,7097,0.9377078,0,0,5930.618,5,20,2025-04-22T10:57:29.015+03:00,767001469.7401165,0,-20.97,100.4566,1,0.95,2025-04-22T10:52:28.061+03:00,85,1.416666666666667,2025-04-22T09:54:17.825+03:00,0.02225348692287972,0
2025-04-22T10:57:50.511+03:00,1745308667.519363,40.95227670218328,29.14031054922987,76.52189,-1,-1,-1,-1,30,30.11905621221268,-9999,27185.75940341667,-0.6921844482421875,0.706939697265625,-0.2025909423828125,27185.74932741667,-1.34149550052831,-1.287801321158892,-0.7721022463234005,0.03083649463951588,0.03217331692576408,0.0231359601020813,0.002996087074279785,-0.005092382431030273,0.002072244882583618,XArbitraryZVertical,0.5815769130051084,0.2484768380536085,0.2834526829677183,-0.720889841370012,-0.6879479289054871,0.6976429224014282,-0.2000551074743271,0,0,0,-1,-1,27184.904238375,unknown,2,2025-04-22T10:57:49.650+03:00,2025-04-21T17:08:51.449+03:00,7097,0.9377078,0,0,5930.618,5,20,2025-04-22T10:57:29.015+03:00,767001469.7401165,0,-20.97,100.4566,1,0.95,2025-04-22T10:52:28.061+03:00,85,1.416666666666667,2025-04-22T09:54:17.825+03:00,0.02225348692287972,0
2025-04-22T10:57:50.520+03:00,1745308667.519363,40.95227670218328,29.14031054922987,76.52189,-1,-1,-1,-1,30,30.11905621221268,-9999,27185.76947841667,-0.686004638671875,0.705718994140625,-0.2003631591796875,27185.75940341667,-1.340980397276418,-1.287072464940244,-0.7722330683115203,0.0336887389421463,0.03601306304335594,0.02277296967804432,-0.002181410789489746,0.002992630004882812,6.088614463806152e-05,XArbitraryZVertical,0.5814384361749052,0.248322147650822,0.2834381647728205,-0.7210605118505967,-0.6877142786979675,0.6977366209030151,-0.2005309164524078,0,0,0,-1,-1,27184.904238375,unknown,2,2025-04-22T10:57:49.650+03:00,2025-04-21T17:08:51.449+03:00,7097,0.9377078,0,0,5930.618,5,20,2025-04-22T10:57:29.015+03:00,767001469.7401165,0,-20.97,100.4566,1,0.95,2025-04-22T10:52:28.061+03:00,85,1.416666666666667,2025-04-22T09:54:17.825+03:00,0.02225348692287972,0
2025-04-22T10:57:50.530+03:00,1745308667.519363,40.95227670218328,29.14031054922987,76.52189,-1,-1,-1,-1,30,30.11905621221268,-9999,27185.77955441667,-0.6832122802734375,0.700469970703125,-0.1940155029296875,27185.76947841667,-1.340582691908971,-1.286494152933778,-0.7723469980227434,0.02015808597207069,0.02826519496738911,0.01702750101685524,-0.004616796970367432,0.009319722652435303,-0.001852601766586304,XArbitraryZVertical,0.5813321843822313,0.2481929416841789,0.283427425351672,-0.72119491242596,-0.6875219345092773,0.6978182792663574,-0.2009063065052032,0,0,0,-1,-1,27184.904238375,unknown,2,2025-04-22T10:57:49.650+03:00,2025-04-21T17:08:51.449+03:00,7097,0.9377078,0,0,5930.618,5,20,2025-04-22T10:57:29.015+03:00,767001469.7401165,0,-20.97,100.4566,1,0.95,2025-04-22T10:52:28.061+03:00,85,1.416666666666667,2025-04-22T09:54:17.825+03:00,0.02225348692287972,0
2025-04-22T10:57:50.540+03:00,1745308667.519363,40.95227670218328,29.14031054922987,76.52189,-1,-1,-1,-1,30,30.11905621221268,-9999,27185.78963041667,-0.688385009765625,0.691314697265625,-0.1955718994140625,27185.77955441667,-1.340420604097007,-1.286101491267742,-0.772460533047485,-0.0005021867109462619,0.02957333996891975,0.01329800952225924,0.001819968223571777,0.007544636726379395,0.001248478889465332,XArbitraryZVertical,0.5812814693085098,0.2480622260531901,0.2834477214353232,-0.7212727071707598,-0.6873668432235718,0.6978995800018311,-0.201153963804245,0,0,0,-1,-1,27184.904238375,unknown,2,2025-04-22T10:57:49.650+03:00,2025-04-21T17:08:51.449+03:00,7097,0.9377078,0,0,5930.618,5,20,2025-04-22T10:57:29.015+03:00,767001469.7401165,0,-20.97,100.4566,1,0.95,2025-04-22T10:52:28.061+03:00,85,1.416666666666667,2025-04-22T09:54:17.825+03:00,0.02225348692287972,0
2025-04-22T10:57:50.550+03:00,1745308667.519363,40.95227670218328,29.14031054922987,76.52189,-1,-1,-1,-1,30,30.11905621221268,-9999,27185.79970641667,-0.6902923583984375,0.684112548828125,-0.206573486328125,27185.78963041667,-1.340377968523279,-1.285778342881237,-0.772589531623922,0.002387742511928082,0.03219934925436974,0.01602501980960369,0.003957390785217285,0.001104593276977539,0.008220195770263672,XArbitraryZVertical,0.5812587874805815,0.2479169785099044,0.2834861325863668,-0.7213258739882956,-0.6872154474258423,0.6979919672012329,-0.2013507932424545,0,0,0,-1,-1,27184.904238375,unknown,2,2025-04-22T10:57:49.650+03:00,2025-04-21T17:08:51.449+03:00,7097,0.9377078,0,0,5930.618,5,20,2025-04-22T10:57:29.015+03:00,767001469.7401165,0,-20.97,100.4566,1,0.95,2025-04-22T10:52:28.061+03:00,85,1.416666666666667,2025-04-22T09:54:17.825+03:00,0.02225348692287972,0
2025-04-22T10:57:50.560+03:00,1745308667.519363,40.95227670218328,29.14031054922987,76.52189,-1,-1,-1,-1,30,30.11905621221268,-9999,27185.80978141667,-0.6897430419921875,0.691925048828125,-0.219512939453125,27185.79970641667,-1.340158594474814,-1.285325328398204,-0.7727094578133679,0.02069883979856968,0.02976229228079319,0.01907167583703995,-0.002119481563568115,-0.007465183734893799,0.005028903484344482,XArbitraryZVertical,0.5811938482681878,0.247779075169926,0.2835013007149614,-0.7214195508102637,-0.6870437860488892,0.6980778574943542,-0.201638475060463,0,0,0,-1,-1,27184.904238375,unknown,2,2025-04-22T10:57:49.650+03:00,2025-04-21T17:08:51.449+03:00,7097,0.9377078,0,0,5930.618,5,20,2025-04-22T10:57:29.015+03:00,767001469.7401165,0,-20.97,100.4566,1,0.95,2025-04-22T10:52:28.061+03:00,85,1.416666666666667,2025-04-22T09:54:17.825+03:00,0.02225348692287972,0
2025-04-22T10:57:50.570+03:00,1745308667.519363,40.95227670218328,29.14031054922987,76.52189,-1,-1,-1,-1,30,30.11905621221268,-9999,27185.81985741667,-0.691009521484375,0.6933135986328125,-0.22332763671875,27185.80978141667,-1.339662672075825,-1.284692166728459,-0.7727891049576504,0.05083064362406731,0.02476513385772705,0.01947208307683468,-0.004329979419708252,-0.01380884647369385,-0.005461812019348145,XArbitraryZVertical,0.5810602231555382,0.2476693937318974,0.2834816052537743,-0.7215726165581841,-0.6868626475334167,0.6981348395347595,-0.2020577788352966,0,0,0,-1,-1,27184.904238375,unknown,2,2025-04-22T10:57:49.650+03:00,2025-04-21T17:08:51.449+03:00,7097,0.9377078,0,0,5930.618,5,20,2025-04-22T10:57:29.015+03:00,767001469.7401165,0,-20.97,100.4566,1,0.95,2025-04-22T10:52:28.061+03:00,85,1.416666666666667,2025-04-22T09:54:17.825+03:00,0.02225348692287972,0
2025-04-22T10:57:50.581+03:00,1745308667.519363,40.95227670218328,29.14031054922987,76.52189,-1,-1,-1,-1,30,30.11905621221268,-9999,27185.82993341667,-0.693695068359375,0.6794586181640625,-0.2248077392578125,27185.81985741667,-1.338708325032122,-1.283933196277699,-0.7727948276825241,0.07907453179359436,-0.0007873624563217163,0.02363620139658451,-0.003190398216247559,-0.004428863525390625,-0.01772861182689667,XArbitraryZVertical,0.5808357716228854,0.2476708888393937,0.2833558914188927,-0.7218021046472225,-0.6867052316665649,0.698138952255249,-0.2025778740644455,0,0,0,-1,-1,27184.904238375,unknown,2,2025-04-22T10:57:49.650+03:00,2025-04-21T17:08:51.449+03:00,7097,0.9377078,0,0,5930.618,5,20,2025-04-22T10:57:29.015+03:00,767001469.7401165,0,-20.97,100.4566,1,0.95,2025-04-22T10:52:28.061+03:00,85,1.416666666666667,2025-04-22T09:54:17.825+03:00,0.02225348692287972,0
2025-04-22T10:57:50.591+03:00,1745308667.519363,40.95227670218328,29.14031054922987,76.52189,-1,-1,-1,-1,30,30.11905621221268,-9999,27185.84000841667,-0.6939544677734375,0.68218994140625,-0.2223663330078125,27185.82993341667,-1.337381105028761,-1.283138314567754,-0.7728503076979244,0.1015571355819702,-0.02157606370747089,0.03991100937128067,-0.004914700984954834,-0.00684887170791626,-0.02062702178955078,XArbitraryZVertical,0.5805710894303673,0.2477516413574017,0.283090333962924,-0.7220914711606884,-0.6865068078041077,0.6981786489486694,-0.2031126618385315,0,0,0,-1,-1,27184.904238375,unknown,2,2025-04-22T10:57:49.650+03:00,2025-04-21T17:08:51.449+03:00,7097,0.9377078,0,0,5930.618,5,20,2025-04-22T10:57:29.015+03:00,767001469.7401165,0,-20.97,100.4566,1,0.95,2025-04-22T10:52:28.061+03:00,85,1.416666666666667,2025-04-22T09:54:17.825+03:00,0.02225348692287972,0
2025-04-22T10:57:50.600+03:00,1745308667.519363,40.95227670218328,29.14031054922987,76.52189,-1,-1,-1,-1,30,30.11905621221268,-9999,27185.85008441667,-0.6898193359375,0.6828765869140625,-0.2305755615234375,27185.84000841667,-1.335715747814896,-1.282374622986345,-0.772886178349359,0.1269863396883011,-0.05715988948941231,0.03588617593050003,-0.008252501487731934,-0.01934099197387695,-0.02113223075866699,XArbitraryZVertical,0.5802646093620303,0.2479477545687198,0.2826994231444044,-0.7224236283053745,-0.6863275766372681,0.6982043385505676,-0.2036297917366028,0,0,0,-1,-1,27184.904238375,unknown,2,2025-04-22T10:57:49.650+03:00,2025-04-21T17:08:51.449+03:00,7097,0.9377078,0,0,5930.618,5,20,2025-04-22T10:57:29.015+03:00,767001469.7401165,0,-20.97,100.4566,1,0.95,2025-04-22T10:52:28.061+03:00,85,1.416666666666667,2025-04-22T09:54:17.825+03:00,0.02225348692287972,0
2025-04-22T10:57:50.610+03:00,1745308667.519363,40.95227670218328,29.14031054922987,76.52189,-1,-1,-1,-1,30,30.11905621221268,-9999,27185.86016041667,-0.6798095703125,0.67767333984375,-0.2501983642578125,27185.85008441667,-1.333641105402083,-1.281832136780587,-0.7727935448782841,0.1723416298627853,-0.1264635324478149,0.0342482328414917,-0.007675468921661377,-0.01553624868392944,-0.01846796274185181,XArbitraryZVertical,0.5799100188048647,0.2483829858499569,0.2821360241903646,-0.7227790385036551,-0.6862790584564209,0.6981380581855774,-0.2040205299854279,0,0,0,-1,-1,27184.904238375,unknown,2,2025-04-22T10:57:49.650+03:00,2025-04-21T17:08:51.449+03:00,7097,0.9377078,0,0,5930.618,5,20,2025-04-22T10:57:29.015+03:00,767001469.7401165,0,-20.97,100.4566,1,0.95,2025-04-22T10:52:28.061+03:00,85,1.416666666666667,2025-04-22T09:54:17.825+03:00,0.02225348692287972,0
2025-04-22T10:57:50.621+03:00,1745308667.519363,40.95227670218328,29.14031054922987,76.52189,-1,-1,-1,-1,30,30.11905621221268,-9999,27185.87023541667,-0.676025390625,0.697601318359375,-0.297760009765625,27185.86016041667,-1.330665319839935,-1.281356705681977,-0.7724692836939683,0.2545864582061768,-0.1837928742170334,0.02161313034594059,-0.002962768077850342,-0.01536506414413452,-0.02736970782279968,XArbitraryZVertical,0.5794008139482625,0.2491766693692309,0.2812988933073468,-0.7232403390969923,-0.6863988637924194,0.6979058384895325,-0.2044113725423813,0,0,0,-1,-1,27184.904238375,unknown,2,2025-04-22T10:57:49.650+03:00,2025-04-21T17:08:51.449+03:00,7097,0.9377078,0,0,5930.618,5,20,2025-04-22T10:57:29.015+03:00,767001469.7401165,0,-20.97,100.4566,1,0.95,2025-04-22T10:52:28.061+03:00,85,1.416666666666667,2025-04-22T09:54:17.825+03:00,0.02225348692287972,0
2025-04-22T10:57:50.631+03:00,1745308667.519363,40.95227670218328,29.14031054922987,76.52189,-1,-1,-1,-1,30,30.11905621221268,-9999,27185.88031141667,-0.6801300048828125,0.742828369140625,-0.3565826416015625,27185.87023541667,-1.326684482282316,-1.280494969674221,-0.7718511679774619,0.3111738264560699,-0.187334880232811,0.02375377900898457,0.007634818553924561,-0.01930147409439087,-0.04945150017738342,XArbitraryZVertical,0.5786449465629167,0.2502137169523895,0.2803004433650584,-0.7238748518555602,-0.6866357326507568,0.6974630355834961,-0.2051262408494949,0,0,0,-1,-1,27184.904238375,unknown,2,2025-04-22T10:57:49.650+03:00,2025-04-21T17:08:51.449+03:00,7097,0.9377078,0,0,5930.618,5,20,2025-04-22T10:57:29.015+03:00,767001469.7401165,0,-20.97,100.4566,1,0.95,2025-04-22T10:52:28.061+03:00,85,1.416666666666667,2025-04-22T09:54:17.825+03:00,0.02225348692287972,0
2025-04-22T10:57:50.641+03:00,1745308667.519363,40.95227670218328,29.14031054922987,76.52189,-1,-1,-1,-1,30,30.11905621221268,-9999,27185.89038741667,-0.68878173828125,0.7497100830078125,-0.383880615234375,27185.88031141667,-1.322331152633508,-1.279130295815227,-0.7711992665182987,0.3239902853965759,-0.1458012759685516,0.03075895644724369,0.009986758232116699,0.005534052848815918,-0.09968400001525879,XArbitraryZVertical,0.5777623561281838,0.2511847635364606,0.2793211918605397,-0.7246215941732708,-0.6867903470993042,0.6969956755638123,-0.206193745136261,0,0,0,-1,-1,27184.904238375,unknown,2,2025-04-22T10:57:49.650+03:00,2025-04-21T17:08:51.449+03:00,7097,0.9377078,0,0,5930.618,5,20,2025-04-22T10:57:29.015+03:00,767001469.7401165,0,-20.97,100.4566,1,0.95,2025-04-22T10:52:28.061+03:00,85,1.416666666666667,2025-04-22T09:54:17.825+03:00,0.02225348692287972,0
2025-04-22T10:57:50.651+03:00,1745308667.519363,40.95227670218328,29.14031054922987,76.52189,-1,-1,-1,-1,30,30.11905621221268,-9999,27185.90046341667,-0.7160491943359375,0.7147216796875,-0.3998870849609375,27185.89038741667,-1.318044867575889,-1.277206902296511,-0.7708052581942121,0.2721171379089355,-0.06674434244632721,0.07761418074369431,0.006403267383575439,0.05047911405563354,-0.1548635363578796,XArbitraryZVertical,0.5768664657973722,0.2518495230812711,0.2784450213913935,-0.7254413782223729,-0.6866553425788879,0.6967130899429321,-0.2075937986373901,0,0,0,-1,-1,27184.904238375,unknown,2,2025-04-22T10:57:49.650+03:00,2025-04-21T17:08:51.449+03:00,7097,0.9377078,0,0,5930.618,5,20,2025-04-22T10:57:29.015+03:00,767001469.7401165,0,-20.97,100.4566,1,0.95,2025-04-22T10:52:28.061+03:00,85,1.416666666666667,2025-04-22T09:54:17.825+03:00,0.02225348692287972,0
2025-04-22T10:57:50.661+03:00,1745308667.519363,40.95227670218328,29.14031054922987,76.52189,-1,-1,-1,-1,30,30.11905621221268,-9999,27185.91053841667,-0.730743408203125,0.7152557373046875,-0.41986083984375,27185.90046341667,-1.314195866984856,-1.274777891087544,-0.7712342048231348,0.2441057711839676,0.01776601560413837,0.1658841222524643,-0.005894124507904053,0.04948478937149048,-0.1767362207174301,XArbitraryZVertical,0.5761409729540418,0.2519417655318602,0.2776149528754022,-0.7263034561275474,-0.6858630776405334,0.6970207691192627,-0.209173858165741,0,0,0,-1,-1,27184.904238375,unknown,2,2025-04-22T10:57:49.650+03:00,2025-04-21T17:08:51.449+03:00,7097,0.9377078,0,0,5930.618,5,20,2025-04-22T10:57:29.015+03:00,767001469.7401165,0,-20.97,100.4566,1,0.95,2025-04-22T10:52:28.061+03:00,85,1.416666666666667,2025-04-22T09:54:17.825+03:00,0.02225348692287972,0
2025-04-22T10:57:50.671+03:00,1745308667.519363,40.95227670218328,29.14031054922987,76.52189,-1,-1,-1,-1,30,30.11905621221268,-9999,27185.92061441667,-0.711639404296875,0.7634429931640625,-0.42901611328125,27185.91053841667,-1.309999930580498,-1.271675469800707,-0.7726433566488128,0.2612942159175873,0.01817733980715275,0.2691762149333954,-0.03547030687332153,0.01392912864685059,-0.1903562247753143,XArbitraryZVertical,0.5755027318761494,0.2515772246803983,0.2765457119200278,-0.7273429449854525,-0.6842714548110962,0.6980304718017578,-0.2110110074281693,0,0,0,-1,-1,27184.904238375,unknown,2,2025-04-22T10:57:49.650+03:00,2025-04-21T17:08:51.449+03:00,7097,0.9377078,0,0,5930.618,5,20,2025-04-22T10:57:29.015+03:00,767001469.7401165,0,-20.97,100.4566,1,0.95,2025-04-22T10:52:28.061+03:00,85,1.416666666666667,2025-04-22T09:54:17.825+03:00,0.02225348692287972,0
2025-04-22T10:57:50.681+03:00,1745308667.519363,40.95227670218328,29.14031054922987,76.52189,-1,-1,-1,-1,30,30.11905621221268,-9999,27185.93069041667,-0.700439453125,0.8272857666015625,-0.449493408203125,27185.92061441667,-1.304220394689326,-1.268020592839956,-0.7741006069163743,0.4310600757598877,-0.1271838396787643,0.245139867067337,-0.04737997055053711,0.0205463171005249,-0.2092478722333908,XArbitraryZVertical,0.5746041514467142,0.2514489096185411,0.275040571769348,-0.7286673344855447,-0.6825241446495056,0.6990732550621033,-0.2132070362567902,0,0,0,-1,-1,27184.904238375,unknown,2,2025-04-22T10:57:49.650+03:00,2025-04-21T17:08:51.449+03:00,7097,0.9377078,0,0,5930.618,5,20,2025-04-22T10:57:29.015+03:00,767001469.7401165,0,-20.97,100.4566,1,0.95,2025-04-22T10:52:28.061+03:00,85,1.416666666666667,2025-04-22T09:54:17.825+03:00,0.02225348692287972,0
2025-04-22T10:57:50.691+03:00,1745308667.519363,40.95227670218328,29.14031054922987,76.52189,-1,-1,-1,-1,30,30.11905621221268,-9999,27185.94076541667,-0.694854736328125,0.8655548095703125,-0.507598876953125,27185.93069041667,-1.29621040346105,-1.264011184151691,-0.7755486536654919,0.6260786056518555,-0.1015911400318146,0.4322118759155273,-0.02869820594787598,0.0717272162437439,-0.2135786414146423,XArbitraryZVertical,0.5733794404049001,0.2518294049914201,0.2728204873247563,-0.7303334604436805,-0.6806982159614563,0.7001079320907593,-0.2156359404325485,0,0,0,-1,-1,27184.904238375,unknown,2,2025-04-22T10:57:49.650+03:00,2025-04-21T17:08:51.449+03:00,7097,0.9377078,0,0,5930.618,5,20,2025-04-22T10:57:29.015+03:00,767001469.7401165,0,-20.97,100.4566,1,0.95,2025-04-22T10:52:28.061+03:00,85,1.416666666666667,2025-04-22T09:54:17.825+03:00,0.02225348692287972,0
2025-04-22T10:57:50.701+03:00,1745308667.519363,40.95227670218328,29.14031054922987,76.52189,-1,-1,-1,-1,30,30.11905621221268,-9999,27185.95084141667,-0.6382293701171875,0.8592376708984375,-0.59820556640625,27185.94076541667,-1.286094299318879,-1.257557222706743,-0.7780634622764271,0.5202059745788574,-0.04517606645822525,0.3931446373462677,-0.02431970834732056,0.1325710415840149,-0.2346508353948593,XArbitraryZVertical,0.5718122097223518,0.2515752871827168,0.2701889547173221,-0.7326243686062254,-0.6776150465011597,0.701901376247406,-0.219481348991394,0,0,0,-1,-1,27184.904238375,unknown,2,2025-04-22T10:57:49.650+03:00,2025-04-21T17:08:51.449+03:00,7097,0.9377078,0,0,5930.618,5,20,2025-04-22T10:57:29.015+03:00,767001469.7401165,0,-20.97,100.4566,1,0.95,2025-04-22T10:52:28.061+03:00,85,1.416666666666667,2025-04-22T09:54:17.825+03:00,0.02225348692287972,0
2025-04-22T10:57:50.711+03:00,1745308667.519363,40.95227670218328,29.14031054922987,76.52189,-1,-1,-1,-1,30,30.11905621221268,-9999,27185.96091741667,-0.584686279296875,0.7568817138671875,-0.6092681884765625,27185.95084141667,-1.276501922139123,-1.252387637778063,-0.7794466584531577,0.6442201137542725,-0.2965317964553833,0.3182214200496674,-0.0136449933052063,0.1643929481506348,-0.2975407242774963,XArbitraryZVertical,0.570232518602327,0.2519846148333594,0.2677181618625932,-0.7346193193361085,-0.6755487322807312,0.7028859257698059,-0.2226772606372833,0,0,0,-1,-1,27184.904238375,unknown,2,2025-04-22T10:57:49.650+03:00,2025-04-21T17:08:51.449+03:00,7097,0.9377078,0,0,5930.618,5,20,2025-04-22T10:57:29.015+03:00,767001469.7401165,0,-20.97,100.4566,1,0.95,2025-04-22T10:52:28.061+03:00,85,1.416666666666667,2025-04-22T09:54:17.825+03:00,0.02225348692287972,0
2025-04-22T10:57:50.721+03:00,1745308667.519363,40.95227670218328,29.14031054922987,76.52189,-1,-1,-1,-1,30,30.11905621221268,-9999,27185.97099241667,-0.5792694091796875,0.67620849609375,-0.595672607421875,27185.96091741667,-1.267303051559296,-1.250187315164008,-0.7807345364914704,0.5162208676338196,-0.545660138130188,0.3204563558101654,0.0430024266242981,0.1493326425552368,-0.3795922100543976,XArbitraryZVertical,0.5690806844517421,0.2533936040487427,0.2645640311505754,-0.7361689747749947,-0.6741975545883179,0.7038013935089111,-0.2238777130842209,0,0,0,-1,-1,27184.904238375,unknown,2,2025-04-22T10:57:49.650+03:00,2025-04-21T17:08:51.449+03:00,7097,0.9377078,0,0,5930.618,5,20,2025-04-22T10:57:29.015+03:00,767001469.7401165,0,-20.97,100.4566,1,0.95,2025-04-22T10:52:28.061+03:00,85,1.416666666666667,2025-04-22T09:54:17.825+03:00,0.02225348692287972,0
2025-04-22T10:57:50.731+03:00,1745308667.519363,40.95227670218328,29.14031054922987,76.52189,-1,-1,-1,-1,30,30.11905621221268,-9999,27185.98106841667,-0.65509033203125,0.6568450927734375,-0.5789031982421875,27185.97099241667,-1.259793673003006,-1.251685260788497,-0.7820950769434543,0.3963842391967773,-0.7955095767974854,0.2816835641860962,0.09456640481948853,0.03647398948669434,-0.3856332898139954,XArbitraryZVertical,0.5686437708946168,0.2556576044825101,0.2609510346834089,-0.7370128443638014,-0.6736222505569458,0.7047672867774963,-0.2225669026374817,0,0,0,-1,-1,27184.904238375,unknown,2,2025-04-22T10:57:49.650+03:00,2025-04-21T17:08:51.449+03:00,7097,0.9377078,0,0,5930.618,5,20,2025-04-22T10:57:29.015+03:00,767001469.7401165,0,-20.97,100.4566,1,0.95,2025-04-22T10:52:28.061+03:00,85,1.416666666666667,2025-04-22T09:54:17.825+03:00,0.02225348692287972,0
2025-04-22T10:57:50.741+03:00,1745308667.519363,40.95227670218328,29.14031054922987,76.52189,-1,-1,-1,-1,30,30.11905621221268,-9999,27185.99114441667,-0.707672119140625,0.6422882080078125,-0.6005401611328125,27185.98106841667,-1.254235945124994,-1.256700715914691,-0.7840601478856188,0.2122189402580261,-0.9750537872314453,0.3280009925365448,0.08738255500793457,-0.03393417596817017,-0.3732227385044098,XArbitraryZVertical,0.5690441616832307,0.258476457064895,0.2568667149256261,-0.7371554634774123,-0.6734116673469543,0.7061600089073181,-0.2187573313713074,0,0,0,-1,-1,27184.904238375,unknown,2,2025-04-22T10:57:49.650+03:00,2025-04-21T17:08:51.449+03:00,7097,0.9377078,0,0,5930.618,5,20,2025-04-22T10:57:29.015+03:00,767001469.7401165,0,-20.97,100.4566,1,0.95,2025-04-22T10:52:28.061+03:00,85,1.416666666666667,2025-04-22T09:54:17.825+03:00,0.02225348692287972,0
2025-04-22T10:57:50.752+03:00,1745308667.519363,40.95227670218328,29.14031054922987,76.52189,-1,-1,-1,-1,30,30.11905621221268,-9999,27186.00122041667,-0.7133026123046875,0.6268157958984375,-0.5900421142578125,27185.99114441667,-1.251779402609233,-1.265680481827702,-0.7870929773001548,-0.0668010488152504,-1.159852743148804,0.3532514274120331,0.008965790271759033,-0.05321395397186279,-0.3680973947048187,XArbitraryZVertical,0.570584164775954,0.2615437453396863,0.2524593164967762,-0.7364053734007265,-0.6733030080795288,0.7083041667938232,-0.2120571583509445,0,0,0,-1,-1,27184.904238375,unknown,2,2025-04-22T10:57:49.650+03:00,2025-04-21T17:08:51.449+03:00,7097,0.9377078,0,0,5930.618,5,20,2025-04-22T10:57:29.015+03:00,767001469.7401165,0,-20.97,100.4566,1,0.95,2025-04-22T10:52:28.061+03:00,85,1.416666666666667,2025-04-22T09:54:17.825+03:00,0.02225348692287972,0
2025-04-22T10:57:50.762+03:00,1745308667.519363,40.95227670218328,29.14031054922987,76.52189,-1,-1,-1,-1,30,30.11905621221268,-9999,27186.01129541667,-0.6737823486328125,0.63336181640625,-0.5725860595703125,27186.00122041667,-1.252972634271797,-1.279373921168752,-0.7911260749129306,-0.3117567300796509,-1.391444206237793,0.357923150062561,-0.03745943307876587,-0.07102411985397339,-0.39909428358078,XArbitraryZVertical,0.5733968677851801,0.2649875096235169,0.247720149402537,-0.7345967014297812,-0.6734018325805664,0.7111454010009766,-0.2019952982664108,0,0,0,-1,-1,27184.904238375,unknown,2,2025-04-22T10:57:49.650+03:00,2025-04-21T17:08:51.449+03:00,7097,0.9377078,0,0,5930.618,5,20,2025-04-22T10:57:29.015+03:00,767001469.7401165,0,-20.97,100.4566,1,0.95,2025-04-22T10:52:28.061+03:00,85,1.416666666666667,2025-04-22T09:54:17.825+03:00,0.02225348692287972,0
2025-04-22T10:57:50.772+03:00,1745308667.519363,40.95227670218328,29.14031054922987,76.52189,-1,-1,-1,-1,30,30.11905621221268,-9999,27186.02137141667,-0.6432342529296875,0.6576690673828125,-0.5406341552734375,27186.01129541667,-1.256725569604136,-1.297095106847516,-0.7953907105601139,-0.41115602850914,-1.590787410736084,0.307486355304718,-0.03645408153533936,-0.08796238899230957,-0.3985746502876282,XArbitraryZVertical,0.577053291177193,0.2690815472915726,0.2426564207360442,-0.7319305706362538,-0.6739494204521179,0.7141371369361877,-0.1892092376947403,0,0,0,-1,-1,27184.904238375,unknown,2,2025-04-22T10:57:49.650+03:00,2025-04-21T17:08:51.449+03:00,7097,0.9377078,0,0,5930.618,5,20,2025-04-22T10:57:29.015+03:00,767001469.7401165,0,-20.97,100.4566,1,0.95,2025-04-22T10:52:28.061+03:00,85,1.416666666666667,2025-04-22T09:54:17.825+03:00,0.02225348692287972,0
2025-04-22T10:57:50.782+03:00,1745308667.519363,40.95227670218328,29.14031054922987,76.52189,-1,-1,-1,-1,30,30.11905621221268,-9999,27186.03144741667,-0.63140869140625,0.710235595703125,-0.454376220703125,27186.02137141667,-1.261266162364608,-1.317116498049536,-0.7991764278085248,-0.3955216705799103,-1.733887791633606,0.2559052109718323,0.005928337574005127,-0.08123838901519775,-0.3961679935455322,XArbitraryZVertical,0.5809286143520918,0.2739021842058594,0.2373177003749371,-0.7288208150352758,-0.6749805212020874,0.7167820334434509,-0.1749990731477737,0,0,0,-1,-1,27184.904238375,unknown,2,2025-04-22T10:57:49.650+03:00,2025-04-21T17:08:51.449+03:00,7097,0.9377078,0,0,5930.618,5,20,2025-04-22T10:57:29.015+03:00,767001469.7401165,0,-20.97,100.4566,1,0.95,2025-04-22T10:52:28.061+03:00,85,1.416666666666667,2025-04-22T09:54:17.825+03:00,0.02225348692287972,0
2025-04-22T10:57:50.792+03:00,1745308667.519363,40.95227670218328,29.14031054922987,76.52189,-1,-1,-1,-1,30,30.11905621221268,-9999,27186.04152241667,-0.6230316162109375,0.7664947509765625,-0.3570709228515625,27186.03144741667,-1.266424381312353,-1.33932686151675,-0.8026926118624651,-0.4486424326896667,-1.940419554710388,0.2538301944732666,0.03529775142669678,-0.05663198232650757,-0.3739235997200012,XArbitraryZVertical,0.5850250241106311,0.27937881190785,0.2315947510791127,-0.7252978477314229,-0.6762431263923645,0.7192294597625732,-0.1593863964080811,0,0,0,-1,-1,27184.904238375,unknown,2,2025-04-22T10:57:49.650+03:00,2025-04-21T17:08:51.449+03:00,7097,0.9377078,0,0,5930.618,5,20,2025-04-22T10:57:29.015+03:00,767001469.7401165,0,-20.97,100.4566,1,0.95,2025-04-22T10:52:28.061+03:00,85,1.416666666666667,2025-04-22T09:54:17.825+03:00,0.02225348692287972,0
2025-04-22T10:57:50.802+03:00,1745308667.519363,40.95227670218328,29.14031054922987,76.52189,-1,-1,-1,-1,30,30.11905621221268,-9999,27186.05159841667,-0.625213623046875,0.7743377685546875,-0.3293914794921875,27186.04152241667,-1.271612933792809,-1.363254841689968,-0.8059470423358693,-0.3941645324230194,-2.046570062637329,0.2141802459955215,0.04703009128570557,-0.002630054950714111,-0.2978889346122742,XArbitraryZVertical,0.5891964264225307,0.28549694586242,0.2253983969872911,-0.7214808127553446,-0.6775689721107483,0.7214867472648621,-0.1426781266927719,0,0,0,-1,-1,27184.904238375,unknown,2,2025-04-22T10:57:49.650+03:00,2025-04-21T17:08:51.449+03:00,7097,0.9377078,0,0,5930.618,5,20,2025-04-22T10:57:29.015+03:00,767001469.7401165,0,-20.97,100.4566,1,0.95,2025-04-22T10:52:28.061+03:00,85,1.416666666666667,2025-04-22T09:54:17.825+03:00,0.02225348692287972,0
2025-04-22T10:57:50.812+03:00,1745308667.519363,40.95227670218328,29.14031054922987,76.52189,-1,-1,-1,-1,30,30.11905621221268,-9999,27186.06167441667,-0.643524169921875,0.77264404296875,-0.2518463134765625,27186.05159841667,-1.276313013252219,-1.387192677489759,-0.8083242393642949,-0.3227783441543579,-2.019448280334473,0.1232237815856934,0.05692470073699951,0.04737699031829834,-0.2238851338624954,XArbitraryZVertical,0.5930387954633323,0.2919795940803232,0.2192420686337702,-0.7176251794469665,-0.6791019439697266,0.7231307029724121,-0.1261058002710342,0,0,0,-1,-1,27184.904238375,unknown,2,2025-04-22T10:57:49.650+03:00,2025-04-21T17:08:51.449+03:00,7097,0.9377078,0,0,5930.618,5,20,2025-04-22T10:57:29.015+03:00,767001469.7401165,0,-20.97,100.4566,1,0.95,2025-04-22T10:52:28.061+03:00,85,1.416666666666667,2025-04-22T09:54:17.825+03:00,0.02225348692287972,0
2025-04-22T10:57:50.822+03:00,1745308667.519363,40.95227670218328,29.14031054922987,76.52189,-1,-1,-1,-1,30,30.11905621221268,-9999,27186.07175041667,-0.61798095703125,0.78717041015625,-0.1122589111328125,27186.06167441667,-1.280251176754404,-1.410173789245069,-0.8099010197839888,-0.2813896238803864,-1.971016526222229,0.1036463528871536,0.05311506986618042,0.04891324043273926,-0.2151089310646057,XArbitraryZVertical,0.5964313610798337,0.2985418115209257,0.2133014153826861,-0.7138941390282909,-0.6806938052177429,0.7242189049720764,-0.110284835100174,0,0,0,-1,-1,27184.904238375,unknown,2,2025-04-22T10:57:49.650+03:00,2025-04-21T17:08:51.449+03:00,7097,0.9377078,0,0,5930.618,5,20,2025-04-22T10:57:29.015+03:00,767001469.7401165,0,-20.97,100.4566,1,0.95,2025-04-22T10:52:28.061+03:00,85,1.416666666666667,2025-04-22T09:54:17.825+03:00,0.02225348692287972,0
2025-04-22T10:57:50.832+03:00,1745308667.519363,40.95227670218328,29.14031054922987,76.52189,-1,-1,-1,-1,30,30.11905621221268,-9999,27186.08182541667,-0.575469970703125,0.767578125,-0.010650634765625,27186.07175041667,-1.285202859669246,-1.433198083456293,-0.8115256729223934,-0.4541228711605072,-1.889339566230774,0.1108008995652199,0.03778201341629028,0.04873991012573242,-0.1408981084823608,XArbitraryZVertical,0.599929467167814,0.3047509502303329,0.2076421875220307,-0.7099972868727032,-0.6818860173225403,0.7253382802009583,-0.09442298859357834,0,0,0,-1,-1,27184.904238375,unknown,2,2025-04-22T10:57:49.650+03:00,2025-04-21T17:08:51.449+03:00,7097,0.9377078,0,0,5930.618,5,20,2025-04-22T10:57:29.015+03:00,767001469.7401165,0,-20.97,100.4566,1,0.95,2025-04-22T10:52:28.061+03:00,85,1.416666666666667,2025-04-22T09:54:17.825+03:00,0.02225348692287972,0
2025-04-22T10:57:50.842+03:00,1745308667.519363,40.95227670218328,29.14031054922987,76.52189,-1,-1,-1,-1,30,30.11905621221268,-9999,27186.09190141667,-0.57049560546875,0.68017578125,0.07171630859375,27186.08182541667,-1.292969647163112,-1.457546212101446,-0.8133892526753713,-0.6397329568862915,-1.818207859992981,0.1246573328971863,0.07129508256912231,0.06099289655685425,-0.01903862506151199,XArbitraryZVertical,0.603987158802791,0.310449604981835,0.2024440407806989,-0.7055756293106773,-0.6826385259628296,0.7266198992729187,-0.07764110714197159,0,0,0,-1,-1,27184.904238375,unknown,2,2025-04-22T10:57:49.650+03:00,2025-04-21T17:08:51.449+03:00,7097,0.9377078,0,0,5930.618,5,20,2025-04-22T10:57:29.015+03:00,767001469.7401165,0,-20.97,100.4566,1,0.95,2025-04-22T10:52:28.061+03:00,85,1.416666666666667,2025-04-22T09:54:17.825+03:00,0.02225348692287972,0
2025-04-22T10:57:50.852+03:00,1745308667.519363,40.95227670218328,29.14031054922987,76.52189,-1,-1,-1,-1,30,30.11905621221268,-9999,27186.10197741667,-0.6171417236328125,0.6038360595703125,0.1674957275390625,27186.09190141667,-1.302594361424134,-1.482352782747129,-0.8150917114271813,-0.6862601041793823,-1.720771789550781,0.0614914707839489,0.1098483204841614,0.03216010332107544,0.05909550189971924,XArbitraryZVertical,0.6083012007119293,0.3157242620746425,0.1977412020087815,-0.7008467899473846,-0.6831210851669312,0.727788507938385,-0.06057567894458771,0,0,0,-1,-1,27184.904238375,unknown,2,2025-04-22T10:57:49.650+03:00,2025-04-21T17:08:51.449+03:00,7097,0.9377078,0,0,5930.618,5,20,2025-04-22T10:57:29.015+03:00,767001469.7401165,0,-20.97,100.4566,1,0.95,2025-04-22T10:52:28.061+03:00,85,1.416666666666667,2025-04-22T09:54:17.825+03:00,0.02225348692287972,0
2025-04-22T10:57:50.862+03:00,1745308667.519363,40.95227670218328,29.14031054922987,76.52189,-1,-1,-1,-1,30,30.11905621221268,-9999,27186.11205241667,-0.6748199462890625,0.608245849609375,0.19635009765625,27186.10197741667,-1.312653749841536,-1.50663136897107,-0.8161081225773964,-0.6710638403892517,-1.634883999824524,0.04887501150369644,0.1107602715492249,-0.06073027849197388,0.1284146308898926,XArbitraryZVertical,0.6124652122962404,0.3208161131574381,0.1935029375880963,-0.6960745536405835,-0.6836515069007874,0.7284851670265198,-0.04392677173018456,0,0,0,-1,-1,27184.904238375,unknown,2,2025-04-22T10:57:49.650+03:00,2025-04-21T17:08:51.449+03:00,7097,0.9377078,0,0,5930.618,5,20,2025-04-22T10:57:29.015+03:00,767001469.7401165,0,-20.97,100.4566,1,0.95,2025-04-22T10:52:28.061+03:00,85,1.416666666666667,2025-04-22T09:54:17.825+03:00,0.02225348692287972,0
2025-04-22T10:57:50.872+03:00,1745308667.519363,40.95227670218328,29.14031054922987,76.52189,-1,-1,-1,-1,30,30.11905621221268,-9999,27186.12212841667,-0.6792755126953125,0.6395111083984375,0.162353515625,27186.11205241667,-1.322387575997498,-1.52956820735874,-0.8171538687865876,-0.6903784871101379,-1.518238425254822,0.1033990755677223,0.05792427062988281,-0.1298971772193909,0.2043365240097046,XArbitraryZVertical,0.6164218998560226,0.3254563759948259,0.1894795487799066,-0.6915197486568843,-0.6837177276611328,0.7292011976242065,-0.02820437774062157,0,0,0,-1,-1,27184.904238375,unknown,2,2025-04-22T10:57:49.650+03:00,2025-04-21T17:08:51.449+03:00,7097,0.9377078,0,0,5930.618,5,20,2025-04-22T10:57:29.015+03:00,767001469.7401165,0,-20.97,100.4566,1,0.95,2025-04-22T10:52:28.061+03:00,85,1.416666666666667,2025-04-22T09:54:17.825+03:00,0.02225348692287972,0
2025-04-22T10:57:50.883+03:00,1745308667.519363,40.95227670218328,29.14031054922987,76.52189,-1,-1,-1,-1,30,30.11905621221268,-9999,27186.13220441667,-0.650115966796875,0.6354522705078125,0.1630401611328125,27186.12212841667,-1.33258422090005,-1.551838680808769,-0.8187867657316685,-0.7199320793151855,-1.418503046035767,0.1706529557704926,0.005815207958221436,-0.1176925897598267,0.2062476277351379,XArbitraryZVertical,0.6204636744100022,0.3294695105266576,0.1855528393255852,-0.687055213016213,-0.6829850673675537,0.7303175926208496,-0.01294934097677469,0,0,0,-1,-1,27184.904238375,unknown,2,2025-04-22T10:57:49.650+03:00,2025-04-21T17:08:51.449+03:00,7097,0.9377078,0,0,5930.618,5,20,2025-04-22T10:57:29.015+03:00,767001469.7401165,0,-20.97,100.4566,1,0.95,2025-04-22T10:52:28.061+03:00,85,1.416666666666667,2025-04-22T09:54:17.825+03:00,0.02225348692287972,0
2025-04-22T10:57:50.893+03:00,1745308667.519363,40.95227670218328,29.14031054922987,76.52189,-1,-1,-1,-1,30,30.11905621221268,-9999,27186.14228041667,-0.6115570068359375,0.6326446533203125,0.181304931640625,27186.13220441667,-1.34418779287958,-1.574304609610844,-0.8207035355730037,-0.8654093146324158,-1.370421886444092,0.197634294629097,0.004334151744842529,-0.09034466743469238,0.1574898958206177,XArbitraryZVertical,0.6247715980897321,0.3329508332038599,0.1818778855001364,-0.6824401151356928,-0.6817022562026978,0.7316256165504456,0.002391614252701402,0,0,0,-1,-1,27184.904238375,unknown,2,2025-04-22T10:57:49.650+03:00,2025-04-21T17:08:51.449+03:00,7097,0.9377078,0,0,5930.618,5,20,2025-04-22T10:57:29.015+03:00,767001469.7401165,0,-20.97,100.4566,1,0.95,2025-04-22T10:52:28.061+03:00,85,1.416666666666667,2025-04-22T09:54:17.825+03:00,0.02225348692287972,0
2025-04-22T10:57:50.903+03:00,1745308667.519363,40.95227670218328,29.14031054922987,76.52189,-1,-1,-1,-1,30,30.11905621221268,-9999,27186.15235541667,-0.570281982421875,0.662841796875,0.185333251953125,27186.14228041667,-1.358173103677353,-1.598472552541643,-0.8226147602172414,-1.012211799621582,-1.394531488418579,0.2039153575897217,0.0346301794052124,-0.09942823648452759,0.1458163261413574,XArbitraryZVertical,0.6295976079995574,0.3361841972536699,0.1783985429725124,-0.6773188972136894,-0.6800464391708374,0.732927143573761,0.01882592588663101,0,0,0,-1,-1,27184.904238375,unknown,2,2025-04-22T10:57:49.650+03:00,2025-04-21T17:08:51.449+03:00,7097,0.9377078,0,0,5930.618,5,20,2025-04-22T10:57:29.015+03:00,767001469.7401165,0,-20.97,100.4566,1,0.95,2025-04-22T10:52:28.061+03:00,85,1.416666666666667,2025-04-22T09:54:17.825+03:00,0.02225348692287972,0
2025-04-22T10:57:50.913+03:00,1745308667.519363,40.95227670218328,29.14031054922987,76.52189,-1,-1,-1,-1,30,30.11905621221268,-9999,27186.16243141667,-0.56451416015625,0.6826629638671875,0.206695556640625,27186.15235541667,-1.374902656284745,-1.624828087373541,-0.8241674577017971,-1.235711336135864,-1.395095467567444,0.1989291906356812,0.07194530963897705,-0.09888148307800293,0.1462281942367554,XArbitraryZVertical,0.6349932127104909,0.3392978303495835,0.1751738943148851,-0.6715464258888018,-0.6781769394874573,0.7339826226234436,0.03667879477143288,0,0,0,-1,-1,27184.904238375,unknown,2,2025-04-22T10:57:49.650+03:00,2025-04-21T17:08:51.449+03:00,7097,0.9377078,0,0,5930.618,5,20,2025-04-22T10:57:29.015+03:00,767001469.7401165,0,-20.97,100.4566,1,0.95,2025-04-22T10:52:28.061+03:00,85,1.416666666666667,2025-04-22T09:54:17.825+03:00,0.02225348692287972,0
2025-04-22T10:57:50.923+03:00,1745308667.519363,40.95227670218328,29.14031054922987,76.52189,-1,-1,-1,-1,30,30.11905621221268,-9999,27186.17250741667,-0.57220458984375,0.6908416748046875,0.273590087890625,27186.16243141667,-1.395145183317917,-1.653500414979048,-0.8253609882636476,-1.450965642929077,-1.337641954421997,0.2242771536111832,0.1094294786453247,-0.06873148679733276,0.1289485692977905,XArbitraryZVertical,0.641108467127332,0.342047813546199,0.1723788021763625,-0.6650327627669531,-0.6759729981422424,0.7347927093505859,0.05603354796767235,0,0,0,-1,-1,27184.904238375,unknown,2,2025-04-22T10:57:49.650+03:00,2025-04-21T17:08:51.449+03:00,7097,0.9377078,0,0,5930.618,5,20,2025-04-22T10:57:29.015+03:00,767001469.7401165,0,-20.97,100.4566,1,0.95,2025-04-22T10:52:28.061+03:00,85,1.416666666666667,2025-04-22T09:54:17.825+03:00,0.02225348692287972,0
2025-04-22T10:57:50.933+03:00,1745308667.519363,40.95227670218328,29.14031054922987,76.52189,-1,-1,-1,-1,30,30.11905621221268,-9999,27186.18258241667,-0.559295654296875,0.7166900634765625,0.316558837890625,27186.17250741667,-1.418393509658633,-1.683773010516356,-0.825980304485452,-1.635565042495728,-1.284338116645813,0.1945225298404694,0.1077498197555542,-0.05207675695419312,0.1363056898117065,XArbitraryZVertical,0.6477760827058991,0.3443756777404172,0.1700992817166216,-0.657919268118197,-0.673515260219574,0.7352126240730286,0.07641692459583282,0,0,0,-1,-1,27184.904238375,unknown,2,2025-04-22T10:57:49.650+03:00,2025-04-21T17:08:51.449+03:00,7097,0.9377078,0,0,5930.618,5,20,2025-04-22T10:57:29.015+03:00,767001469.7401165,0,-20.97,100.4566,1,0.95,2025-04-22T10:52:28.061+03:00,85,1.416666666666667,2025-04-22T09:54:17.825+03:00,0.02225348692287972,0
2025-04-22T10:57:50.943+03:00,1745308667.519363,40.95227670218328,29.14031054922987,76.52189,-1,-1,-1,-1,30,30.11905621221268,-9999,27186.19265841667,-0.57183837890625,0.7474365234375,0.319244384765625,27186.18258241667,-1.443261959766974,-1.714687171295218,-0.8252279878268604,-1.703409671783447,-1.214576601982117,0.08087825030088425,0.100257396697998,-0.042014479637146,0.1839266121387482,XArbitraryZVertical,0.6545915008426928,0.3466247897906006,0.1684284647545226,-0.6503792267141758,-0.6713787913322449,0.734702467918396,0.09727755934000015,0,0,0,-1,-1,27184.904238375,unknown,2,2025-04-22T10:57:49.650+03:00,2025-04-21T17:08:51.449+03:00,7097,0.9377078,0,0,5930.618,5,20,2025-04-22T10:57:29.015+03:00,767001469.7401165,0,-20.97,100.4566,1,0.95,2025-04-22T10:52:28.061+03:00,85,1.416666666666667,2025-04-22T09:54:17.825+03:00,0.02225348692287972,0
2025-04-22T10:57:50.953+03:00,1745308667.519363,40.95227670218328,29.14031054922987,76.52189,-1,-1,-1,-1,30,30.11905621221268,-9999,27186.20273441667,-0.6193389892578125,0.7802276611328125,0.312286376953125,27186.19265841667,-1.46794239455313,-1.744553127405415,-0.8227606132120387,-1.63458776473999,-1.121567845344543,-0.03596221655607224,0.1115776896476746,-0.01268965005874634,0.2005348205566406,XArbitraryZVertical,0.661093840964099,0.3489308317875905,0.1674393799328691,-0.6427800879052238,-0.6699578762054443,0.733026385307312,0.1175955832004547,0,0,0,-1,-1,27184.904238375,unknown,2,2025-04-22T10:57:49.650+03:00,2025-04-21T17:08:51.449+03:00,7097,0.9377078,0,0,5930.618,5,20,2025-04-22T10:57:29.015+03:00,767001469.7401165,0,-20.97,100.4566,1,0.95,2025-04-22T10:52:28.061+03:00,85,1.416666666666667,2025-04-22T09:54:17.825+03:00,0.02225348692287972,0
2025-04-22T10:57:50.963+03:00,1745308667.519363,40.95227670218328,29.14031054922987,76.52189,-1,-1,-1,-1,30,30.11905621221268,-9999,27186.21281041667,-0.649810791015625,0.807159423828125,0.2982330322265625,27186.20273441667,-1.490042510624876,-1.771664735101762,-0.8189954104033758,-1.42698609828949,-1.056026935577393,-0.1416393667459488,0.09166300296783447,0.02108085155487061,0.1823856830596924,XArbitraryZVertical,0.6668055203389393,0.351428694678332,0.1668074922395732,-0.6356440980484345,-0.6692234873771667,0.7304601073265076,0.1362634599208832,0,0,0,-1,-1,27184.904238375,unknown,2,2025-04-22T10:57:49.650+03:00,2025-04-21T17:08:51.449+03:00,7097,0.9377078,0,0,5930.618,5,20,2025-04-22T10:57:29.015+03:00,767001469.7401165,0,-20.97,100.4566,1,0.95,2025-04-22T10:52:28.061+03:00,85,1.416666666666667,2025-04-22T09:54:17.825+03:00,0.02225348692287972,0
2025-04-22T10:57:50.973+03:00,1745308667.519363,40.95227670218328,29.14031054922987,76.52189,-1,-1,-1,-1,30,30.11905621221268,-9999,27186.22288541667,-0.652130126953125,0.820648193359375,0.2772369384765625,27186.21281041667,-1.508428328028756,-1.79537764368375,-0.8141826786735156,-1.208733439445496,-0.9878543615341187,-0.2639149725437164,0.04416298866271973,0.0569843053817749,0.1580389887094498,XArbitraryZVertical,0.6715157858817554,0.3542648445127515,0.1663543370524677,-0.6291972468834637,-0.6692240834236145,0.7271648049354553,0.1528740674257278,0,0,0,-1,-1,27184.904238375,unknown,2,2025-04-22T10:57:49.650+03:00,2025-04-21T17:08:51.449+03:00,7097,0.9377078,0,0,5930.618,5,20,2025-04-22T10:57:29.015+03:00,767001469.7401165,0,-20.97,100.4566,1,0.95,2025-04-22T10:52:28.061+03:00,85,1.416666666666667,2025-04-22T09:54:17.825+03:00,0.02225348692287972,0
2025-04-22T10:57:50.984+03:00,1745308667.519363,40.95227670218328,29.14031054922987,76.52189,-1,-1,-1,-1,30,30.11905621221268,-9999,27186.23296141667,-0.636260986328125,0.82672119140625,0.2542572021484375,27186.22288541667,-1.522890284554607,-1.815560757419778,-0.8087171198072864,-0.958275318145752,-0.9445052742958069,-0.3344714343547821,0.01877111196517944,0.08696162700653076,0.1295194774866104,XArbitraryZVertical,0.6752180358747222,0.3574009362769872,0.1659792632480661,-0.6235351235879455,-0.6698484420776367,0.7234020233154297,0.1673096567392349,0,0,0,-1,-1,27184.904238375,unknown,2,2025-04-22T10:57:49.650+03:00,2025-04-21T17:08:51.449+03:00,7097,0.9377078,0,0,5930.618,5,20,2025-04-22T10:57:29.015+03:00,767001469.7401165,0,-20.97,100.4566,1,0.95,2025-04-22T10:52:28.061+03:00,85,1.416666666666667,2025-04-22T09:54:17.825+03:00,0.02225348692287972,0
2025-04-22T10:57:51.001+03:00,1745308667.519363,40.95227670218328,29.14031054922987,76.52189,-1,-1,-1,-1,30,30.11905621221268,-9999,27186.24303741667,-0.6283416748046875,0.8024139404296875,0.2452239990234375,27186.23296141667,-1.533255568415571,-1.832255383170857,-0.8031118171439161,-0.6857447028160095,-0.8586092591285706,-0.3776986300945282,0.01982176303863525,0.1022107601165771,0.09410655498504639,XArbitraryZVertical,0.6779241777638222,0.3607988506528795,0.1654883297451085,-0.6187540317303273,-0.6708685755729675,0.719520628452301,0.17951400578022,0,0,0,-1,-1,27184.904238375,unknown,2,2025-04-22T10:57:49.650+03:00,2025-04-21T17:08:51.449+03:00,7097,0.9377078,0,0,5930.618,5,20,2025-04-22T10:57:29.015+03:00,767001469.7401165,0,-20.97,100.4566,1,0.95,2025-04-22T10:52:28.061+03:00,85,1.416666666666667,2025-04-22T09:54:17.825+03:00,0.02225348692287972,0
2025-04-22T10:57:51.004+03:00,1745308667.519363,40.95227670218328,29.14031054922987,76.52189,-1,-1,-1,-1,30,30.11905621221268,-9999,27186.25311241667,-0.6478729248046875,0.76617431640625,0.22906494140625,27186.24303741667,-1.539787697813064,-1.84522102174608,-0.7978357152763821,-0.4953316450119019,-0.7985485792160034,-0.3858188986778259,0.03798967599868774,0.1106456518173218,0.06384387612342834,XArbitraryZVertical,0.6796877877068849,0.3641923283371408,0.1649249518411086,-0.6149701082166489,-0.67212975025177,0.7158465385437012,0.1892230808734894,0,0,0,-1,-1,27184.904238375,unknown,2,2025-04-22T10:57:49.650+03:00,2025-04-21T17:08:51.449+03:00,7097,0.9377078,0,0,5930.618,5,20,2025-04-22T10:57:29.015+03:00,767001469.7401165,0,-20.97,100.4566,1,0.95,2025-04-22T10:52:28.061+03:00,85,1.416666666666667,2025-04-22T09:54:17.825+03:00,0.02225348692287972,0
2025-04-22T10:57:51.014+03:00,1745308667.519363,40.95227670218328,29.14031054922987,76.52189,-1,-1,-1,-1,30,30.11905621221268,-9999,27186.26318841667,-0.636474609375,0.70880126953125,0.2370147705078125,27186.25311241667,-1.54428736598147,-1.856546500322305,-0.7930317952511303,-0.3772780299186707,-0.8079716563224792,-0.3651196360588074,0.04326075315475464,0.08524537086486816,0.04416845738887787,XArbitraryZVertical,0.6810052740948227,0.3675959702875933,0.1641109166233985,-0.6116963952294653,-0.6732350587844849,0.7124839425086975,0.1977899670600891,0,0,0,-1,-1,27184.904238375,unknown,2,2025-04-22T10:57:49.650+03:00,2025-04-21T17:08:51.449+03:00,7097,0.9377078,0,0,5930.618,5,20,2025-04-22T10:57:29.015+03:00,767001469.7401165,0,-20.97,100.4566,1,0.95,2025-04-22T10:52:28.061+03:00,85,1.416666666666667,2025-04-22T09:54:17.825+03:00,0.02225348692287972,0
2025-04-22T10:57:51.024+03:00,1745308667.519363,40.95227670218328,29.14031054922987,76.52189,-1,-1,-1,-1,30,30.11905621221268,-9999,27186.27326441667,-0.6268768310546875,0.644927978515625,0.242828369140625,27186.26318841667,-1.547889948790062,-1.867783936309786,-0.7882453617761785,-0.385394275188446,-0.9040318727493286,-0.4010014832019806,0.02476340532302856,0.05276918411254883,0.02327583730220795,XArbitraryZVertical,0.6821623625333885,0.371246144575488,0.1630327671603464,-0.6084825283145225,-0.6742232441902161,0.7091171741485596,0.2063383758068085,0,0,0,-1,-1,27184.904238375,unknown,2,2025-04-22T10:57:49.650+03:00,2025-04-21T17:08:51.449+03:00,7097,0.9377078,0,0,5930.618,5,20,2025-04-22T10:57:29.015+03:00,767001469.7401165,0,-20.97,100.4566,1,0.95,2025-04-22T10:52:28.061+03:00,85,1.416666666666667,2025-04-22T09:54:17.825+03:00,0.02225348692287972,0
2025-04-22T10:57:51.034+03:00,1745308667.519363,40.95227670218328,29.14031054922987,76.52189,-1,-1,-1,-1,30,30.11905621221268,-9999,27186.28334041667,-0.6276702880859375,0.6096038818359375,0.250091552734375,27186.27326441667,-1.55188806536701,-1.880106589743599,-0.783107084584464,-0.4311712384223938,-0.964323103427887,-0.4000887274742126,0.04125672578811646,-0.006388306617736816,0.02172008156776428,XArbitraryZVertical,0.6834593677688988,0.3751690943316615,0.1618125852381808,-0.6049365116122358,-0.6750916242599487,0.7054848670959473,0.2157371193170547,0,0,0,-1,-1,27184.904238375,unknown,2,2025-04-22T10:57:49.650+03:00,2025-04-21T17:08:51.449+03:00,7097,0.9377078,0,0,5930.618,5,20,2025-04-22T10:57:29.015+03:00,767001469.7401165,0,-20.97,100.4566,1,0.95,2025-04-22T10:52:28.061+03:00,85,1.416666666666667,2025-04-22T09:54:17.825+03:00,0.02225348692287972,0
2025-04-22T10:57:51.044+03:00,1745308667.519363,40.95227670218328,29.14031054922987,76.52189,-1,-1,-1,-1,30,30.11905621221268,-9999,27186.29341541667,-0.652008056640625,0.5911865234375,0.2713623046875,27186.28334041667,-1.556548962661824,-1.893205052192554,-0.777747557167492,-0.5281744599342346,-0.9781526327133179,-0.3995504975318909,0.0495331883430481,-0.06207382678985596,0.01838481426239014,XArbitraryZVertical,0.6849353454042432,0.3791325146850867,0.1605868948525206,-0.6011105839954635,-0.6757844090461731,0.7016763687133789,0.2257557809352875,0,0,0,-1,-1,27184.904238375,unknown,2,2025-04-22T10:57:49.650+03:00,2025-04-21T17:08:51.449+03:00,7097,0.9377078,0,0,5930.618,5,20,2025-04-22T10:57:29.015+03:00,767001469.7401165,0,-20.97,100.4566,1,0.95,2025-04-22T10:52:28.061+03:00,85,1.416666666666667,2025-04-22T09:54:17.825+03:00,0.02225348692287972,0
2025-04-22T10:57:51.054+03:00,1745308667.519363,40.95227670218328,29.14031054922987,76.52189,-1,-1,-1,-1,30,30.11905621221268,-9999,27186.30349141667,-0.67230224609375,0.5914764404296875,0.3115997314453125,27186.29341541667,-1.562100767128405,-1.907014538987641,-0.7722736662875141,-0.5509734749794006,-0.9822381138801575,-0.3744704127311707,0.04722046852111816,-0.09203767776489258,0.01504340767860413,XArbitraryZVertical,0.6866412034944586,0.3829997387327592,0.1594034781695592,-0.5970139164125392,-0.6762183308601379,0.6977657079696655,0.2363298833370209,0,0,0,-1,-1,27184.904238375,unknown,2,2025-04-22T10:57:49.650+03:00,2025-04-21T17:08:51.449+03:00,7097,0.9377078,0,0,5930.618,5,20,2025-04-22T10:57:29.015+03:00,767001469.7401165,0,-20.97,100.4566,1,0.95,2025-04-22T10:52:28.061+03:00,85,1.416666666666667,2025-04-22T09:54:17.825+03:00,0.02225348692287972,0
2025-04-22T10:57:51.064+03:00,1745308667.519363,40.95227670218328,29.14031054922987,76.52189,-1,-1,-1,-1,30,30.11905621221268,-9999,27186.31356741667,-0.6700897216796875,0.5998382568359375,0.3705902099609375,27186.30349141667,-1.568058509538014,-1.920951060621657,-0.7669651560329988,-0.6133670806884766,-0.9534294009208679,-0.3316707611083984,0.02038401365280151,-0.1026753187179565,0.02930811047554016,XArbitraryZVertical,0.6884636877668312,0.3866739126355836,0.1582153920367128,-0.5928481292267949,-0.6763288974761963,0.693953275680542,0.2469979226589203,0,0,0,-1,-1,27184.904238375,unknown,2,2025-04-22T10:57:49.650+03:00,2025-04-21T17:08:51.449+03:00,7097,0.9377078,0,0,5930.618,5,20,2025-04-22T10:57:29.015+03:00,767001469.7401165,0,-20.97,100.4566,1,0.95,2025-04-22T10:52:28.061+03:00,85,1.416666666666667,2025-04-22T09:54:17.825+03:00,0.02225348692287972,0
2025-04-22T10:57:51.074+03:00,1745308667.519363,40.95227670218328,29.14031054922987,76.52189,-1,-1,-1,-1,30,30.11905621221268,-9999,27186.32364241667,-0.6455078125,0.604736328125,0.4818267822265625,27186.31356741667,-1.574775775020713,-1.934965557373965,-0.7618371119985536,-0.6309921145439148,-0.907101571559906,-0.2862915694713593,0.003509879112243652,-0.09839421510696411,0.05894967913627625,XArbitraryZVertical,0.6904695481722194,0.3900124423014801,0.1571352979440396,-0.5886004180368758,-0.6761172413825989,0.690251886844635,0.2577157914638519,0,0,0,-1,-1,27184.904238375,unknown,2,2025-04-22T10:57:49.650+03:00,2025-04-21T17:08:51.449+03:00,7097,0.9377078,0,0,5930.618,5,20,2025-04-22T10:57:29.015+03:00,767001469.7401165,0,-20.97,100.4566,1,0.95,2025-04-22T10:52:28.061+03:00,85,1.416666666666667,2025-04-22T09:54:17.825+03:00,0.02225348692287972,0
2025-04-22T10:57:51.084+03:00,1745308667.519363,40.95227670218328,29.14031054922987,76.52189,-1,-1,-1,-1,30,30.11905621221268,-9999,27186.33371841667,-0.606689453125,0.625518798828125,0.57818603515625,27186.32364241667,-1.581075083731055,-1.948029261649874,-0.7571242642236171,-0.5355082154273987,-0.8221083879470825,-0.2604232132434845,0.006947576999664307,-0.08550077676773071,0.1151672303676605,XArbitraryZVertical,0.6923665411354903,0.3930512654719465,0.1560893300334774,-0.5846154686806178,-0.6757097840309143,0.6868341565132141,0.2677214443683624,0,0,0,-1,-1,27184.904238375,unknown,2,2025-04-22T10:57:49.650+03:00,2025-04-21T17:08:51.449+03:00,7097,0.9377078,0,0,5930.618,5,20,2025-04-22T10:57:29.015+03:00,767001469.7401165,0,-20.97,100.4566,1,0.95,2025-04-22T10:52:28.061+03:00,85,1.416666666666667,2025-04-22T09:54:17.825+03:00,0.02225348692287972,0
