loggingTime(txt),locationTimestamp_since1970(s),locationLatitude(WGS84),locationLongitude(WGS84),locationAltitude(m),locationSpeed(m/s),locationSpeedAccuracy(m/s),locationCourse(°),locationCourseAccuracy(°),locationVerticalAccuracy(m),locationHorizontalAccuracy(m),locationFloor(Z),accelerometerTimestamp_sinceReboot(s),accelerometerAccelerationX(G),accelerometerAccelerationY(G),accelerometerAccelerationZ(G),motionTimestamp_sinceReboot(s),motionYaw(rad),motionRoll(rad),motionPitch(rad),motionRotationRateX(rad/s),motionRotationRateY(rad/s),motionRotationRateZ(rad/s),motionUserAccelerationX(G),motionUserAccelerationY(G),motionUserAccelerationZ(G),motionAttitudeReferenceFrame(txt),motionQuaternionX(R),motionQuaternionY(R),motionQuaternionZ(R),motionQuaternionW(R),motionGravityX(G),motionGravityY(G),motionGravityZ(G),motionMagneticFieldX(µT),motionMagneticFieldY(µT),motionMagneticFieldZ(µT),motionHeading(°),motionMagneticFieldCalibrationAccuracy(Z),activityTimestamp_sinceReboot(s),activity(txt),activityActivityConfidence(Z),activityActivityStartDate(txt),pedometerStartDate(txt),pedometerNumberofSteps(N),pedometerAverageActivePace(s/m),pedometerCurrentPace(s/m),pedometerCurrentCadence(steps/s),pedometerDistance(m),pedometerFloorAscended(N),pedometerFloorDescended(N),pedometerEndDate(txt),altimeterTimestamp_sinceReboot(s),altimeterReset(bool),altimeterRelativeAltitude(m),altimeterPressure(kPa),batteryState(N),batteryLevel(R),heartRateBPMTimestamp(txt),heartRateBPM(N),heartRateBPS(R),heartRateVariabilityTimestamp(txt),heartRateVariability(ms),label
2025-04-21T14:54:46.832+03:00,1745236486.436669,40.95228068713659,29.14029842710894,76.51794,-1,-1,-1,-1,30,25.18208350132768,-9999,17531.42214591667,-0.7385101318359375,0.592071533203125,-0.372314453125,17531.41460591667,2.598877370819346,-1.094935904254928,-0.6201252216815967,-0.148612767457962,0.03450114652514458,-0.01788255013525486,0.03929358720779419,0.03194564580917358,0.004917681217193604,XArbitraryZVertical,0.4077357380511025,-0.3838593399784181,0.8259456609142469,0.06494015162337799,-0.7233908772468567,0.5811370611190796,-0.3728071451187134,0,0,0,-1,-1,17521.93113075,unknown,2,2025-04-21T14:54:11.259+03:00,2025-04-20T21:57:49.637+03:00,6589,0.9558782,0,0,5416.758,5,6,2025-04-21T14:54:16.418+03:00,766929248.7788981,0,-46.07,100.2848,1,0.45,2025-04-21T14:52:54.481+03:00,95,1.583333333333333,2025-04-21T12:30:07.995+03:00,0.02023345852159405,0
2025-04-21T14:54:46.833+03:00,1745236486.436669,40.95228068713659,29.14029842710894,76.51794,-1,-1,-1,-1,30,25.18208350132768,-9999,17531.43222191667,-0.7165069580078125,0.6226654052734375,-0.378997802734375,17531.42468191667,2.598274115353404,-1.095491198380842,-0.6179807261545373,0.1201385259628296,-0.129642516374588,-0.2826934456825256,0.01057767868041992,0.02069169282913208,0.003651082515716553,XArbitraryZVertical,0.4082470318138945,-0.383206128980305,0.82593874541557,0.0656698530973268,-0.7247042655944824,0.5793905258178711,-0.3729748427867889,0,0,0,-1,-1,17521.93113075,unknown,2,2025-04-21T14:54:11.259+03:00,2025-04-20T21:57:49.637+03:00,6589,0.9558782,0,0,5416.758,5,6,2025-04-21T14:54:16.418+03:00,766929248.7788981,0,-46.07,100.2848,1,0.45,2025-04-21T14:52:54.481+03:00,95,1.583333333333333,2025-04-21T12:30:07.995+03:00,0.02023345852159405,0
2025-04-21T14:54:46.836+03:00,1745236486.436669,40.95228068713659,29.14029842710894,76.51794,-1,-1,-1,-1,30,25.18208350132768,-9999,17531.44229791667,-0.653045654296875,0.6949462890625,-0.3683013916015625,17531.43475791667,2.598713314049227,-1.096362152818756,-0.6158088971196,0.1490730345249176,-0.07178128510713577,-0.08249013125896454,-0.0201457142829895,0.01327741146087646,-0.004447698593139648,XArbitraryZVertical,0.4090931115326139,-0.3823402840477457,0.8259016806237524,0.06591646945923821,-0.726146399974823,0.5776190161705017,-0.3729174733161926,0,0,0,-1,-1,17521.93113075,unknown,2,2025-04-21T14:54:11.259+03:00,2025-04-20T21:57:49.637+03:00,6589,0.9558782,0,0,5416.758,5,6,2025-04-21T14:54:16.418+03:00,766929248.7788981,0,-46.07,100.2848,1,0.45,2025-04-21T14:52:54.481+03:00,95,1.583333333333333,2025-04-21T12:30:07.995+03:00,0.02023345852159405,0
2025-04-21T14:54:46.846+03:00,1745236486.436669,40.95228068713659,29.14029842710894,76.51794,-1,-1,-1,-1,30,25.18208350132768,-9999,17531.45237391667,-0.79486083984375,0.446563720703125,-0.3772430419921875,17531.44483391667,2.600383848037501,-1.095347233722222,-0.6143149684807115,0.1700515449047089,0.0504269190132618,-0.05419698357582092,0.07614338397979736,0.1241014003753662,-0.0007070600986480713,XArbitraryZVertical,0.4092690534816842,-0.3814110974873831,0.826251033669853,0.06582925736264958,-0.7265339493751526,0.5763988494873047,-0.3740488290786743,0,0,0,-1,-1,17521.93113075,unknown,2,2025-04-21T14:54:11.259+03:00,2025-04-20T21:57:49.637+03:00,6589,0.9558782,0,0,5416.758,5,6,2025-04-21T14:54:16.418+03:00,766929248.7788981,0,-46.07,100.2848,1,0.45,2025-04-21T14:52:54.481+03:00,95,1.583333333333333,2025-04-21T12:30:07.995+03:00,0.02023345852159405,0
2025-04-21T14:54:46.856+03:00,1745236486.436669,40.95228068713659,29.14029842710894,76.51794,-1,-1,-1,-1,30,25.18208350132768,-9999,17531.46244991667,-0.7369384765625,0.4523773193359375,-0.3648223876953125,17531.45490991667,2.601384853296663,-1.094299191966188,-0.6136220303887712,0.05102496966719627,0.02378831617534161,-0.02499252557754517,-0.01817834377288818,-0.02770650386810303,0.004586011171340942,XArbitraryZVertical,0.4091546187810259,-0.3809145823632584,0.8265386258735108,0.06580488475941733,-0.7264962792396545,0.5758324861526489,-0.3749931454658508,0,0,0,-1,-1,17521.93113075,unknown,2,2025-04-21T14:54:11.259+03:00,2025-04-20T21:57:49.637+03:00,6589,0.9558782,0,0,5416.758,5,6,2025-04-21T14:54:16.418+03:00,766929248.7788981,0,-46.07,100.2848,1,0.45,2025-04-21T14:52:54.481+03:00,95,1.583333333333333,2025-04-21T12:30:07.995+03:00,0.02023345852159405,0
2025-04-21T14:54:46.866+03:00,1745236486.436669,40.95228068713659,29.14029842710894,76.51794,-1,-1,-1,-1,30,25.18208350132768,-9999,17531.47252591667,-0.683502197265625,0.577362060546875,-0.36077880859375,17531.46498591667,2.601604269255801,-1.094115060615815,-0.6132555536959498,0.02593426220118999,-0.007217802572995424,-0.03094602189958096,-0.05649685859680176,-0.1713887453079224,0.0007883012294769287,XArbitraryZVertical,0.4091878325878336,-0.3807275298471465,0.8266048260080063,0.06584946462401763,-0.7266146540641785,0.575532853603363,-0.3752237260341644,0,0,0,-1,-1,17521.93113075,unknown,2,2025-04-21T14:54:11.259+03:00,2025-04-20T21:57:49.637+03:00,6589,0.9558782,0,0,5416.758,5,6,2025-04-21T14:54:16.418+03:00,766929248.7788981,0,-46.07,100.2848,1,0.45,2025-04-21T14:52:54.481+03:00,95,1.583333333333333,2025-04-21T12:30:07.995+03:00,0.02023345852159405,0
2025-04-21T14:54:46.876+03:00,1745236486.436669,40.95228068713659,29.14029842710894,76.51794,-1,-1,-1,-1,30,25.18208350132768,-9999,17531.48260191667,-0.719482421875,0.575347900390625,-0.3749542236328125,17531.47506191667,2.601650272919859,-1.094125074329651,-0.6129826504149746,0.01048027258366346,-0.003147893585264683,-0.02281775325536728,0.04194355010986328,-0.02747350931167603,0.01876688003540039,XArbitraryZVertical,0.4092509858953017,-0.380617082131027,0.8266201915239416,0.06590319963856964,-0.7267580032348633,0.5753096342086792,-0.3752885460853577,0,0,0,-1,-1,17521.93113075,unknown,2,2025-04-21T14:54:11.259+03:00,2025-04-20T21:57:49.637+03:00,6589,0.9558782,0,0,5416.758,5,6,2025-04-21T14:54:16.418+03:00,766929248.7788981,0,-46.07,100.2848,1,0.45,2025-04-21T14:52:54.481+03:00,95,1.583333333333333,2025-04-21T12:30:07.995+03:00,0.02023345852159405,0
2025-04-21T14:54:46.886+03:00,1745236486.436669,40.95228068713659,29.14029842710894,76.51794,-1,-1,-1,-1,30,25.18208350132768,-9999,17531.49267791667,-0.719879150390625,0.5589141845703125,-0.379180908203125,17531.48513791667,2.601652879983996,-1.09416395709812,-0.6128854780789076,0.00175895297434181,-0.008611635304987431,-0.01020289212465286,0.01893657445907593,0.006907761096954346,0.003932714462280273,XArbitraryZVertical,0.4092854468965985,-0.3805817355419894,0.8266179754452971,0.06592130198370724,-0.7268223166465759,0.5752301216125488,-0.3752859234809875,0,0,0,-1,-1,17521.93113075,unknown,2,2025-04-21T14:54:11.259+03:00,2025-04-20T21:57:49.637+03:00,6589,0.9558782,0,0,5416.758,5,6,2025-04-21T14:54:16.418+03:00,766929248.7788981,0,-46.07,100.2848,1,0.45,2025-04-21T14:52:54.481+03:00,95,1.583333333333333,2025-04-21T12:30:07.995+03:00,0.02023345852159405,0
2025-04-21T14:54:46.896+03:00,1745236486.436669,40.95228068713659,29.14029842710894,76.51794,-1,-1,-1,-1,30,25.18208350132768,-9999,17531.50275391667,-0.7086029052734375,0.5540008544921875,-0.3832244873046875,17531.49521391667,2.601641147422294,-1.094273106756469,-0.6129227441733361,-0.001268994528800249,-0.01189098507165909,-0.006065904162824154,0.002997756004333496,-0.01051771640777588,-0.002580404281616211,XArbitraryZVertical,0.4093214666396308,-0.3806015754228636,0.8265930744061621,0.06589517748648027,-0.7268441915512085,0.5752606391906738,-0.3751967549324036,0,0,0,-1,-1,17521.93113075,unknown,2,2025-04-21T14:54:11.259+03:00,2025-04-20T21:57:49.637+03:00,6589,0.9558782,0,0,5416.758,5,6,2025-04-21T14:54:16.418+03:00,766929248.7788981,0,-46.07,100.2848,1,0.45,2025-04-21T14:52:54.481+03:00,95,1.583333333333333,2025-04-21T12:30:07.995+03:00,0.02023345852159405,0
2025-04-21T14:54:46.906+03:00,1745236486.436669,40.95228068713659,29.14029842710894,76.51794,-1,-1,-1,-1,30,25.18208350132768,-9999,17531.51282991667,-0.712982177734375,0.5681915283203125,-0.388214111328125,17531.50528991667,2.601685614097561,-1.094374291100143,-0.6128835849060584,0.01239941362291574,-0.01543591730296612,-0.00670319888740778,0.01541531085968018,-0.02281481027603149,-0.0063973069190979,XArbitraryZVertical,0.4093789740412571,-0.3805812609801148,0.82657606325567,0.06586821081975053,-0.7269021272659302,0.5752285718917847,-0.3751335144042969,0,0,0,-1,-1,17521.93113075,unknown,2,2025-04-21T14:54:11.259+03:00,2025-04-20T21:57:49.637+03:00,6589,0.9558782,0,0,5416.758,5,6,2025-04-21T14:54:16.418+03:00,766929248.7788981,0,-46.07,100.2848,1,0.45,2025-04-21T14:52:54.481+03:00,95,1.583333333333333,2025-04-21T12:30:07.995+03:00,0.02023345852159405,0
2025-04-21T14:54:46.916+03:00,1745236486.436669,40.95228068713659,29.14029842710894,76.51794,-1,-1,-1,-1,30,25.18208350132768,-9999,17531.52290591667,-0.713470458984375,0.5791473388671875,-0.3787994384765625,17531.51536591667,2.601714240270813,-1.094608096076968,-0.6127835608912915,0.001476324978284538,-0.03234925493597984,-0.01132251787930727,0.01634764671325684,-0.01316577196121216,-0.01195773482322693,XArbitraryZVertical,0.4094994677084157,-0.3805459485113918,0.8265349525404705,0.0658392516512359,-0.7270409464836121,0.5751467943191528,-0.374989926815033,0,0,0,-1,-1,17521.93113075,unknown,2,2025-04-21T14:54:11.259+03:00,2025-04-20T21:57:49.637+03:00,6589,0.9558782,0,0,5416.758,5,6,2025-04-21T14:54:16.418+03:00,766929248.7788981,0,-46.07,100.2848,1,0.45,2025-04-21T14:52:54.481+03:00,95,1.583333333333333,2025-04-21T12:30:07.995+03:00,0.02023345852159405,0
2025-04-21T14:54:46.927+03:00,1745236486.436669,40.95228068713659,29.14029842710894,76.51794,-1,-1,-1,-1,30,25.18208350132768,-9999,17531.53298191667,-0.714996337890625,0.57196044921875,-0.369171142578125,17531.52544191667,2.601645789165501,-1.095007681791794,-0.6129218792980501,-0.00690171355381608,-0.04502882808446884,-0.01250522769987583,0.013039231300354,0.002147674560546875,-0.01028582453727722,XArbitraryZVertical,0.4096260972356975,-0.380624478663455,0.8264428318799307,0.06575364771200873,-0.7271199822425842,0.5752599239349365,-0.3746629357337952,0,0,0,-1,-1,17521.93113075,unknown,2,2025-04-21T14:54:11.259+03:00,2025-04-20T21:57:49.637+03:00,6589,0.9558782,0,0,5416.758,5,6,2025-04-21T14:54:16.418+03:00,766929248.7788981,0,-46.07,100.2848,1,0.45,2025-04-21T14:52:54.481+03:00,95,1.583333333333333,2025-04-21T12:30:07.995+03:00,0.02023345852159405,0
2025-04-21T14:54:46.937+03:00,1745236486.436669,40.95228068713659,29.14029842710894,76.51794,-1,-1,-1,-1,30,25.18208350132768,-9999,17531.54305791667,-0.719757080078125,0.5625762939453125,-0.3748626708984375,17531.53551791667,2.601419387513717,-1.095593135365912,-0.6128018674493305,-0.02067611552774906,-0.04182824119925499,-0.01020425651222467,0.01396071910858154,0.001376152038574219,0.004471957683563232,XArbitraryZVertical,0.4098470031239097,-0.3806455540157939,0.826322459496057,0.06576867319862578,-0.7274006605148315,0.5751617550849915,-0.3742688000202179,0,0,0,-1,-1,17521.93113075,unknown,2,2025-04-21T14:54:11.259+03:00,2025-04-20T21:57:49.637+03:00,6589,0.9558782,0,0,5416.758,5,6,2025-04-21T14:54:16.418+03:00,766929248.7788981,0,-46.07,100.2848,1,0.45,2025-04-21T14:52:54.481+03:00,95,1.583333333333333,2025-04-21T12:30:07.995+03:00,0.02023345852159405,0
2025-04-21T14:54:46.947+03:00,1745236486.436669,40.95228068713659,29.14029842710894,76.51794,-1,-1,-1,-1,30,25.18208350132768,-9999,17531.55313391667,-0.716644287109375,0.562408447265625,-0.3675994873046875,17531.54559391667,2.601025146097879,-1.096291417356564,-0.6124845928657674,-0.02824695035815239,-0.04602325335144997,-0.01226527709513903,0.008982598781585693,-0.01063233613967896,0.0007514357566833496,XArbitraryZVertical,0.4101189077991196,-0.3806315838385918,0.8261847174018109,0.06588554272624685,-0.7278242111206055,0.5749021768569946,-0.3738441467285156,0,0,0,-1,-1,17521.93113075,unknown,2,2025-04-21T14:54:11.259+03:00,2025-04-20T21:57:49.637+03:00,6589,0.9558782,0,0,5416.758,5,6,2025-04-21T14:54:16.418+03:00,766929248.7788981,0,-46.07,100.2848,1,0.45,2025-04-21T14:52:54.481+03:00,95,1.583333333333333,2025-04-21T12:30:07.995+03:00,0.02023345852159405,0
2025-04-21T14:54:46.957+03:00,1745236486.436669,40.95228068713659,29.14029842710894,76.51794,-1,-1,-1,-1,30,25.18208350132768,-9999,17531.56320991667,-0.7158203125,0.5672454833984375,-0.370452880859375,17531.55566991667,2.600707902527022,-1.096957240775048,-0.6125053553359145,-0.02066160179674625,-0.04983943328261375,-0.01045625936239958,0.008915543556213379,-0.01379263401031494,0.001802444458007812,XArbitraryZVertical,0.4103297280764412,-0.3807262917839968,0.8260364726237162,0.06588413281033768,-0.7280622720718384,0.5749191641807556,-0.3733540177345276,0,0,0,-1,-1,17521.93113075,unknown,2,2025-04-21T14:54:11.259+03:00,2025-04-20T21:57:49.637+03:00,6589,0.9558782,0,0,5416.758,5,6,2025-04-21T14:54:16.418+03:00,766929248.7788981,0,-46.07,100.2848,1,0.45,2025-04-21T14:52:54.481+03:00,95,1.583333333333333,2025-04-21T12:30:07.995+03:00,0.02023345852159405,0
2025-04-21T14:54:46.967+03:00,1745236486.436669,40.95228068713659,29.14029842710894,76.51794,-1,-1,-1,-1,30,25.18208350132768,-9999,17531.57328591667,-0.719268798828125,0.570709228515625,-0.3729705810546875,17531.56574591667,2.600374367280021,-1.097601260294681,-0.6125988147510905,-0.03613003715872765,-0.04479141160845757,-0.005493191536515951,0.01246494054794312,-0.009764432907104492,0.005871385335922241,XArbitraryZVertical,0.4105149272022867,-0.3808506227322715,0.8258880228385861,0.06587373014998993,-0.7282548546791077,0.5749956369400024,-0.3728605806827545,0,0,0,-1,-1,17521.93113075,unknown,2,2025-04-21T14:54:11.259+03:00,2025-04-20T21:57:49.637+03:00,6589,0.9558782,0,0,5416.758,5,6,2025-04-21T14:54:16.418+03:00,766929248.7788981,0,-46.07,100.2848,1,0.45,2025-04-21T14:52:54.481+03:00,95,1.583333333333333,2025-04-21T12:30:07.995+03:00,0.02023345852159405,0
2025-04-21T14:54:46.977+03:00,1745236486.436669,40.95228068713659,29.14029842710894,76.51794,-1,-1,-1,-1,30,25.18208350132768,-9999,17531.58336191667,-0.716796875,0.5663909912109375,-0.3752288818359375,17531.57582191667,2.599845345228646,-1.098404057886037,-0.6127471151092231,-0.05815757811069489,-0.05474284663796425,-0.005236862227320671,0.009926259517669678,-0.004758894443511963,-0.0006726086139678955,XArbitraryZVertical,0.4107183092874476,-0.3810406682965261,0.8256971278720615,0.06589845947277993,-0.7284778356552124,0.5751169919967651,-0.372236967086792,0,0,0,-1,-1,17521.93113075,unknown,2,2025-04-21T14:54:11.259+03:00,2025-04-20T21:57:49.637+03:00,6589,0.9558782,0,0,5416.758,5,6,2025-04-21T14:54:16.418+03:00,766929248.7788981,0,-46.07,100.2848,1,0.45,2025-04-21T14:52:54.481+03:00,95,1.583333333333333,2025-04-21T12:30:07.995+03:00,0.02023345852159405,0
2025-04-21T14:54:46.987+03:00,1745236486.436669,40.95228068713659,29.14029842710894,76.51794,-1,-1,-1,-1,30,25.18208350132768,-9999,17531.59343891667,-0.71771240234375,0.5679779052734375,-0.38726806640625,17531.58589791667,2.599092370611658,-1.099396116437551,-0.6129671849687981,-0.07319245487451553,-0.06017755717039108,-0.008778334595263004,0.01036548614501953,-0.006739377975463867,-0.001651346683502197,XArbitraryZVertical,0.4109436472729947,-0.3813096044303547,0.8254559408888558,0.06595986451415776,-0.728734016418457,0.5752969980239868,-0.3714566230773926,0,0,0,-1,-1,17521.93113075,unknown,2,2025-04-21T14:54:11.259+03:00,2025-04-20T21:57:49.637+03:00,6589,0.9558782,0,0,5416.758,5,6,2025-04-21T14:54:16.418+03:00,766929248.7788981,0,-46.07,100.2848,1,0.45,2025-04-21T14:52:54.481+03:00,95,1.583333333333333,2025-04-21T12:30:07.995+03:00,0.02023345852159405,0
2025-04-21T14:54:46.997+03:00,1745236486.436669,40.95228068713659,29.14029842710894,76.51794,-1,-1,-1,-1,30,25.18208350132768,-9999,17531.60351491667,-0.7194976806640625,0.5712432861328125,-0.3997650146484375,17531.59597491667,2.59833696763665,-1.100477719120368,-0.6131666046115659,-0.05864906311035156,-0.07367539405822754,-0.009715832769870758,0.01275503635406494,-0.009847402572631836,-0.01141813397407532,XArbitraryZVertical,0.4112089990418332,-0.381574417575836,0.8251974159445548,0.06601066865949431,-0.7290331721305847,0.5754600763320923,-0.3706162571907043,0,0,0,-1,-1,17521.93113075,unknown,2,2025-04-21T14:54:11.259+03:00,2025-04-20T21:57:49.637+03:00,6589,0.9558782,0,0,5416.758,5,6,2025-04-21T14:54:16.418+03:00,766929248.7788981,0,-46.07,100.2848,1,0.45,2025-04-21T14:52:54.481+03:00,95,1.583333333333333,2025-04-21T12:30:07.995+03:00,0.02023345852159405,0
2025-04-21T14:54:47.007+03:00,1745236486.436669,40.95228068713659,29.14029842710894,76.51794,-1,-1,-1,-1,30,25.18208350132768,-9999,17531.61359091667,-0.717987060546875,0.5696868896484375,-0.39630126953125,17531.60605091667,2.597614048204985,-1.101688147804271,-0.6133664946582602,-0.07545094937086105,-0.09595406800508499,-0.01550474669784307,0.01014024019241333,-0.005021274089813232,-0.02663511037826538,XArbitraryZVertical,0.411533397589804,-0.3818370476787724,0.8249130927911894,0.0660228439227676,-0.7293785214424133,0.5756235718727112,-0.3696814775466919,0,0,0,-1,-1,17521.93113075,unknown,2,2025-04-21T14:54:11.259+03:00,2025-04-20T21:57:49.637+03:00,6589,0.9558782,0,0,5416.758,5,6,2025-04-21T14:54:16.418+03:00,766929248.7788981,0,-46.07,100.2848,1,0.45,2025-04-21T14:52:54.481+03:00,95,1.583333333333333,2025-04-21T12:30:07.995+03:00,0.02023345852159405,0
2025-04-21T14:54:47.017+03:00,1745236486.436669,40.95228068713659,29.14029842710894,76.51794,-1,-1,-1,-1,30,25.18208350132768,-9999,17531.62366691667,-0.718994140625,0.562042236328125,-0.3922271728515625,17531.61612691667,2.59640584697188,-1.103431122982786,-0.6136693268969916,-0.135756641626358,-0.1135977730154991,-0.02812919393181801,0.01157385110855103,-0.005848705768585205,-0.03105252981185913,XArbitraryZVertical,0.4119651947280482,-0.3822553509049357,0.8244971480086186,0.06610478338914964,-0.729866087436676,0.5758711695671082,-0.3683310449123383,0,0,0,-1,-1,17521.93113075,unknown,2,2025-04-21T14:54:11.259+03:00,2025-04-20T21:57:49.637+03:00,6589,0.9558782,0,0,5416.758,5,6,2025-04-21T14:54:16.418+03:00,766929248.7788981,0,-46.07,100.2848,1,0.45,2025-04-21T14:52:54.481+03:00,95,1.583333333333333,2025-04-21T12:30:07.995+03:00,0.02023345852159405,0
2025-04-21T14:54:47.028+03:00,1745236486.436669,40.95228068713659,29.14029842710894,76.51794,-1,-1,-1,-1,30,25.18208350132768,-9999,17531.63374291667,-0.720794677734375,0.5517425537109375,-0.386993408203125,17531.62620291667,2.5943293822769,-1.105761776327665,-0.6141589012188065,-0.2248644083738327,-0.133545383810997,-0.02670147456228733,0.01220875978469849,-0.01041460037231445,-0.02619776129722595,XArbitraryZVertical,0.4124375039909736,-0.3829413263981183,0.8239203781960149,0.06637974636632983,-0.7304704189300537,0.5762713551521301,-0.3665024936199188,0,0,0,-1,-1,17521.93113075,unknown,2,2025-04-21T14:54:11.259+03:00,2025-04-20T21:57:49.637+03:00,6589,0.9558782,0,0,5416.758,5,6,2025-04-21T14:54:16.418+03:00,766929248.7788981,0,-46.07,100.2848,1,0.45,2025-04-21T14:52:54.481+03:00,95,1.583333333333333,2025-04-21T12:30:07.995+03:00,0.02023345852159405,0
2025-04-21T14:54:47.038+03:00,1745236486.436669,40.95228068713659,29.14029842710894,76.51794,-1,-1,-1,-1,30,25.18208350132768,-9999,17531.64381891667,-0.719696044921875,0.545501708984375,-0.3749847412109375,17531.63627891667,2.591416734406865,-1.108752216711159,-0.6150078377078958,-0.3031256496906281,-0.1535435914993286,-0.01694751344621181,0.01077282428741455,-0.0214536190032959,-0.0253061056137085,XArbitraryZVertical,0.4129522198778999,-0.3839548786370935,0.8231588883438183,0.06677142728900619,-0.7311249971389771,0.5769649147987366,-0.3640982210636139,0,0,0,-1,-1,17521.93113075,unknown,2,2025-04-21T14:54:11.259+03:00,2025-04-20T21:57:49.637+03:00,6589,0.9558782,0,0,5416.758,5,6,2025-04-21T14:54:16.418+03:00,766929248.7788981,0,-46.07,100.2848,1,0.45,2025-04-21T14:52:54.481+03:00,95,1.583333333333333,2025-04-21T12:30:07.995+03:00,0.02023345852159405,0
2025-04-21T14:54:47.047+03:00,1745236486.436669,40.95228068713659,29.14029842710894,76.51794,-1,-1,-1,-1,30,25.18208350132768,-9999,17531.65389491667,-0.72369384765625,0.5543365478515625,-0.366943359375,17531.64635491667,2.587902346700289,-1.11230894785774,-0.616318139678355,-0.3407942056655884,-0.1684077531099319,-0.00398138165473938,0.01153731346130371,-0.03141927719116211,-0.01805081963539124,XArbitraryZVertical,0.4134941703037725,-0.3852820557326232,0.8222337438620113,0.06717044158463974,-0.7317368388175964,0.5780346393585205,-0.3611606061458588,0,0,0,-1,-1,17521.93113075,unknown,2,2025-04-21T14:54:11.259+03:00,2025-04-20T21:57:49.637+03:00,6589,0.9558782,0,0,5416.758,5,6,2025-04-21T14:54:16.418+03:00,766929248.7788981,0,-46.07,100.2848,1,0.45,2025-04-21T14:52:54.481+03:00,95,1.583333333333333,2025-04-21T12:30:07.995+03:00,0.02023345852159405,0
2025-04-21T14:54:47.058+03:00,1745236486.436669,40.95228068713659,29.14029842710894,76.51794,-1,-1,-1,-1,30,25.18208350132768,-9999,17531.66397091667,-0.73004150390625,0.5636138916015625,-0.371002197265625,17531.65643091667,2.58400855254067,-1.116125801116473,-0.6178742967486653,-0.4040813744068146,-0.1794197261333466,-0.001589230494573712,0.01077389717102051,-0.03000277280807495,-0.01024025678634644,XArbitraryZVertical,0.4140180900440553,-0.3867870448271163,0.8212275893497242,0.06760163523518632,-0.7323010563850403,0.5793038010597229,-0.3579696118831635,0,0,0,-1,-1,17521.93113075,unknown,2,2025-04-21T14:54:11.259+03:00,2025-04-20T21:57:49.637+03:00,6589,0.9558782,0,0,5416.758,5,6,2025-04-21T14:54:16.418+03:00,766929248.7788981,0,-46.07,100.2848,1,0.45,2025-04-21T14:52:54.481+03:00,95,1.583333333333333,2025-04-21T12:30:07.995+03:00,0.02023345852159405,0
2025-04-21T14:54:47.068+03:00,1745236486.436669,40.95228068713659,29.14029842710894,76.51794,-1,-1,-1,-1,30,25.18208350132768,-9999,17531.67404691667,-0.735107421875,0.558685302734375,-0.3812408447265625,17531.66650691667,2.578686700429368,-1.120859980208273,-0.6198367739580931,-0.5849193334579468,-0.1934756189584732,-0.02059035189449787,0.005774199962615967,-0.01890605688095093,-0.01351961493492126,XArbitraryZVertical,0.4145573062328618,-0.3887678448032735,0.8199596989872739,0.06832061877977383,-0.7329623103141785,0.5809022784233093,-0.3540036082267761,0,0,0,-1,-1,17521.93113075,unknown,2,2025-04-21T14:54:11.259+03:00,2025-04-20T21:57:49.637+03:00,6589,0.9558782,0,0,5416.758,5,6,2025-04-21T14:54:16.418+03:00,766929248.7788981,0,-46.07,100.2848,1,0.45,2025-04-21T14:52:54.481+03:00,95,1.583333333333333,2025-04-21T12:30:07.995+03:00,0.02023345852159405,0
2025-04-21T14:54:47.078+03:00,1745236486.436669,40.95228068713659,29.14029842710894,76.51794,-1,-1,-1,-1,30,25.18208350132768,-9999,17531.68412291667,-0.7307281494140625,0.5458221435546875,-0.387603759765625,17531.67658291667,2.571462528487401,-1.126688593234126,-0.6224094693702479,-0.7504557967185974,-0.2118881195783615,-0.005240124650299549,9.500980377197266e-05,-0.02096766233444214,-0.02834397554397583,XArbitraryZVertical,0.4150447796302337,-0.3914035251127328,0.8183650889665725,0.06942320068676773,-0.7336612939834595,0.5829944610595703,-0.3490822315216064,0,0,0,-1,-1,17521.93113075,unknown,2,2025-04-21T14:54:11.259+03:00,2025-04-20T21:57:49.637+03:00,6589,0.9558782,0,0,5416.758,5,6,2025-04-21T14:54:16.418+03:00,766929248.7788981,0,-46.07,100.2848,1,0.45,2025-04-21T14:52:54.481+03:00,95,1.583333333333333,2025-04-21T12:30:07.995+03:00,0.02023345852159405,0
2025-04-21T14:54:47.088+03:00,1745236486.436669,40.95228068713659,29.14029842710894,76.51794,-1,-1,-1,-1,30,25.18208350132768,-9999,17531.69419891667,-0.72198486328125,0.5489959716796875,-0.3789520263671875,17531.68665891667,2.562973400655962,-1.133297036584691,-0.6256476106482829,-0.8524684309959412,-0.2399570345878601,0.01337350718677044,0.0002905130386352539,-0.03537535667419434,-0.04237863421440125,XArbitraryZVertical,0.4154539203519365,-0.3945703102123507,0.8165267033475914,0.07068419364385418,-0.7342382073402405,0.5856223106384277,-0.3434246182441711,0,0,0,-1,-1,17521.93113075,unknown,2,2025-04-21T14:54:11.259+03:00,2025-04-20T21:57:49.637+03:00,6589,0.9558782,0,0,5416.758,5,6,2025-04-21T14:54:16.418+03:00,766929248.7788981,0,-46.07,100.2848,1,0.45,2025-04-21T14:52:54.481+03:00,95,1.583333333333333,2025-04-21T12:30:07.995+03:00,0.02023345852159405,0
2025-04-21T14:54:47.099+03:00,1745236486.436669,40.95228068713659,29.14029842710894,76.51794,-1,-1,-1,-1,30,25.18208350132768,-9999,17531.70427491667,-0.7266693115234375,0.582000732421875,-0.35919189453125,17531.69673491667,2.553301803913417,-1.141539032537882,-0.629431276269967,-0.8673338890075684,-0.266971617937088,0.01991050317883492,0.01056700944900513,-0.04570120573043823,-0.04816094040870667,XArbitraryZVertical,0.416159954079067,-0.3982366666557328,0.8142759941833841,0.07192426429536228,-0.7350238561630249,0.5886850953102112,-0.3364368975162506,0,0,0,-1,-1,17521.93113075,unknown,2,2025-04-21T14:54:11.259+03:00,2025-04-20T21:57:49.637+03:00,6589,0.9558782,0,0,5416.758,5,6,2025-04-21T14:54:16.418+03:00,766929248.7788981,0,-46.07,100.2848,1,0.45,2025-04-21T14:52:54.481+03:00,95,1.583333333333333,2025-04-21T12:30:07.995+03:00,0.02023345852159405,0
2025-04-21T14:54:47.108+03:00,1745236486.436669,40.95228068713659,29.14029842710894,76.51794,-1,-1,-1,-1,30,25.18208350132768,-9999,17531.71435091667,-0.7344818115234375,0.6090240478515625,-0.350555419921875,17531.70681091667,2.543852541534432,-1.150037200035991,-0.6332709187605674,-0.8298123478889465,-0.3103917837142944,0.04361077025532722,0.01206332445144653,-0.02362382411956787,-0.036531001329422,XArbitraryZVertical,0.4169678317693469,-0.4018848883577256,0.8119735677903938,0.07297351819505896,-0.7357876300811768,0.5917845964431763,-0.3292527198791504,0,0,0,-1,-1,17521.93113075,unknown,2,2025-04-21T14:54:11.259+03:00,2025-04-20T21:57:49.637+03:00,6589,0.9558782,0,0,5416.758,5,6,2025-04-21T14:54:16.418+03:00,766929248.7788981,0,-46.07,100.2848,1,0.45,2025-04-21T14:52:54.481+03:00,95,1.583333333333333,2025-04-21T12:30:07.995+03:00,0.02023345852159405,0
2025-04-21T14:54:47.118+03:00,1745236486.436669,40.95228068713659,29.14029842710894,76.51794,-1,-1,-1,-1,30,25.18208350132768,-9999,17531.72442691667,-0.740966796875,0.617645263671875,-0.347320556640625,17531.71688691667,2.53486353792553,-1.158360473066061,-0.6371049141515454,-0.7866078019142151,-0.2910920679569244,0.0682050958275795,0.005354642868041992,0.005852282047271729,-0.0309288501739502,XArbitraryZVertical,0.4177634907783715,-0.4054269043955271,0.8097222525581333,0.07384030448406147,-0.7364184856414795,0.5948708057403564,-0.3222053945064545,0,0,0,-1,-1,17521.93113075,unknown,2,2025-04-21T14:54:11.259+03:00,2025-04-20T21:57:49.637+03:00,6589,0.9558782,0,0,5416.758,5,6,2025-04-21T14:54:16.418+03:00,766929248.7788981,0,-46.07,100.2848,1,0.45,2025-04-21T14:52:54.481+03:00,95,1.583333333333333,2025-04-21T12:30:07.995+03:00,0.02023345852159405,0
2025-04-21T14:54:47.139+03:00,1745236486.436669,40.95228068713659,29.14029842710894,76.51794,-1,-1,-1,-1,30,25.18208350132768,-9999,17531.73450291667,-0.7362213134765625,0.618072509765625,-0.34564208984375,17531.72696291667,2.526262384678457,-1.166596684219178,-0.6408824195471911,-0.7764142751693726,-0.3308988809585571,0.07197080552577972,-0.003105878829956055,0.01810938119888306,-0.03271827101707458,XArbitraryZVertical,0.4185810769106505,-0.4088621795508653,0.807504326369836,0.07455301667556638,-0.7369759082794189,0.5979030132293701,-0.3152432143688202,0,0,0,-1,-1,17521.93113075,unknown,2,2025-04-21T14:54:11.259+03:00,2025-04-20T21:57:49.637+03:00,6589,0.9558782,0,0,5416.758,5,6,2025-04-21T14:54:16.418+03:00,766929248.7788981,0,-46.07,100.2848,1,0.45,2025-04-21T14:52:54.481+03:00,95,1.583333333333333,2025-04-21T12:30:07.995+03:00,0.02023345852159405,0
2025-04-21T14:54:47.140+03:00,1745236486.436669,40.95228068713659,29.14029842710894,76.51794,-1,-1,-1,-1,30,25.18208350132768,-9999,17531.74457891667,-0.7338104248046875,0.60540771484375,-0.3262176513671875,17531.73703891667,2.517565712306078,-1.175011374071593,-0.6448457592485692,-0.7975867986679077,-0.296706348657608,0.11601173132658,-0.0006116628646850586,0.01830935478210449,-0.0396026074886322,XArbitraryZVertical,0.4193809496092685,-0.4123860808026296,0.8052357612955937,0.07518326939944017,-0.7374101281166077,0.6010751724243164,-0.3081146776676178,0,0,0,-1,-1,17521.93113075,unknown,2,2025-04-21T14:54:11.259+03:00,2025-04-20T21:57:49.637+03:00,6589,0.9558782,0,0,5416.758,5,6,2025-04-21T14:54:16.418+03:00,766929248.7788981,0,-46.07,100.2848,1,0.45,2025-04-21T14:52:54.481+03:00,95,1.583333333333333,2025-04-21T12:30:07.995+03:00,0.02023345852159405,0
2025-04-21T14:54:47.148+03:00,1745236486.436669,40.95228068713659,29.14029842710894,76.51794,-1,-1,-1,-1,30,25.18208350132768,-9999,17531.75465491667,-0.73724365234375,0.5964813232421875,-0.31378173828125,17531.74711491667,2.50892475508928,-1.183189075157661,-0.6490997304613634,-0.782023012638092,-0.295036256313324,0.1414891332387924,0.002973079681396484,0.006797432899475098,-0.03307786583900452,XArbitraryZVertical,0.4200038921489485,-0.4159859054875009,0.8030056826212766,0.07572384755374731,-0.7375311255455017,0.6044694781303406,-0.3011049032211304,0,0,0,-1,-1,17521.93113075,unknown,2,2025-04-21T14:54:11.259+03:00,2025-04-20T21:57:49.637+03:00,6589,0.9558782,0,0,5416.758,5,6,2025-04-21T14:54:16.418+03:00,766929248.7788981,0,-46.07,100.2848,1,0.45,2025-04-21T14:52:54.481+03:00,95,1.583333333333333,2025-04-21T12:30:07.995+03:00,0.02023345852159405,0
2025-04-21T14:54:47.158+03:00,1745236486.436669,40.95228068713659,29.14029842710894,76.51794,-1,-1,-1,-1,30,25.18208350132768,-9999,17531.76473191667,-0.75054931640625,0.5962066650390625,-0.29931640625,17531.75719091667,2.500204534366562,-1.191354175635307,-0.6533597675440697,-0.8303750157356262,-0.2588369250297546,0.1333582699298859,0.002978026866912842,-0.009942173957824707,-0.02331209182739258,XArbitraryZVertical,0.4205701429077939,-0.4195980150062548,0.8007757516722774,0.07626574458857543,-0.7375666499137878,0.6078576445579529,-0.2941165268421173,0,0,0,-1,-1,17521.93113075,unknown,2,2025-04-21T14:54:11.259+03:00,2025-04-20T21:57:49.637+03:00,6589,0.9558782,0,0,5416.758,5,6,2025-04-21T14:54:16.418+03:00,766929248.7788981,0,-46.07,100.2848,1,0.45,2025-04-21T14:52:54.481+03:00,95,1.583333333333333,2025-04-21T12:30:07.995+03:00,0.02023345852159405,0
2025-04-21T14:54:47.168+03:00,1745236486.436669,40.95228068713659,29.14029842710894,76.51794,-1,-1,-1,-1,30,25.18208350132768,-9999,17531.77480791667,-0.7457275390625,0.596160888671875,-0.2798614501953125,17531.76726791667,2.490554006706966,-1.199757971523133,-0.6579891394651207,-0.9129207134246826,-0.2467525601387024,0.1687988191843033,-0.008132100105285645,-0.0155036449432373,-0.01996982097625732,XArbitraryZVertical,0.4209229469044926,-0.4235347006633269,0.7984454627284001,0.07698757139059435,-0.7373818755149841,0.6115270256996155,-0.2868844568729401,0,0,0,-1,-1,17521.93113075,unknown,2,2025-04-21T14:54:11.259+03:00,2025-04-20T21:57:49.637+03:00,6589,0.9558782,0,0,5416.758,5,6,2025-04-21T14:54:16.418+03:00,766929248.7788981,0,-46.07,100.2848,1,0.45,2025-04-21T14:52:54.481+03:00,95,1.583333333333333,2025-04-21T12:30:07.995+03:00,0.02023345852159405,0
2025-04-21T14:54:47.178+03:00,1745236486.436669,40.95228068713659,29.14029842710894,76.51794,-1,-1,-1,-1,30,25.18208350132768,-9999,17531.78488391667,-0.7257232666015625,0.58734130859375,-0.2850189208984375,17531.77734391667,2.480420869415581,-1.208619511159163,-0.6629951324413322,-0.9203429818153381,-0.2782534956932068,0.1820183396339417,-0.01398396492004395,-0.01848018169403076,-0.00480690598487854,XArbitraryZVertical,0.4212348519122256,-0.4277099490030999,0.7959868206222133,0.07765589064524438,-0.7370231747627258,0.6154802441596985,-0.2792508006095886,0,0,0,-1,-1,17521.93113075,unknown,2,2025-04-21T14:54:11.259+03:00,2025-04-20T21:57:49.637+03:00,6589,0.9558782,0,0,5416.758,5,6,2025-04-21T14:54:16.418+03:00,766929248.7788981,0,-46.07,100.2848,1,0.45,2025-04-21T14:52:54.481+03:00,95,1.583333333333333,2025-04-21T12:30:07.995+03:00,0.02023345852159405,0
2025-04-21T14:54:47.188+03:00,1745236486.436669,40.95228068713659,29.14029842710894,76.51794,-1,-1,-1,-1,30,25.18208350132768,-9999,17531.79495991667,-0.721527099609375,0.591888427734375,-0.2770233154296875,17531.78741991667,2.470101500873424,-1.217846470679224,-0.6680394549344952,-0.9344353675842285,-0.291346400976181,0.1765804290771484,0.00475776195526123,-0.02844476699829102,-0.01149037480354309,XArbitraryZVertical,0.421599152693044,-0.431941226467066,0.7934450885717408,0.07826772432251287,-0.7366456389427185,0.6194480657577515,-0.2713618576526642,0,0,0,-1,-1,17521.93113075,unknown,2,2025-04-21T14:54:11.259+03:00,2025-04-20T21:57:49.637+03:00,6589,0.9558782,0,0,5416.758,5,6,2025-04-21T14:54:16.418+03:00,766929248.7788981,0,-46.07,100.2848,1,0.45,2025-04-21T14:52:54.481+03:00,95,1.583333333333333,2025-04-21T12:30:07.995+03:00,0.02023345852159405,0
2025-04-21T14:54:47.199+03:00,1745236486.436669,40.95228068713659,29.14029842710894,76.51794,-1,-1,-1,-1,30,25.18208350132768,-9999,17531.80503591667,-0.7252960205078125,0.6112823486328125,-0.2765655517578125,17531.79749591667,2.459425664199162,-1.227274967743353,-0.6728892691155332,-0.961689293384552,-0.262150913476944,0.1726111620664597,0.01395237445831299,-0.03589165210723877,-0.01903551816940308,XArbitraryZVertical,0.4219621376797936,-0.4361802534319882,0.79085696955953,0.07899325224607111,-0.736333966255188,0.6232480406761169,-0.2633894681930542,0,0,0,-1,-1,17521.93113075,unknown,2,2025-04-21T14:54:11.259+03:00,2025-04-20T21:57:49.637+03:00,6589,0.9558782,0,0,5416.758,5,6,2025-04-21T14:54:16.418+03:00,766929248.7788981,0,-46.07,100.2848,1,0.45,2025-04-21T14:52:54.481+03:00,95,1.583333333333333,2025-04-21T12:30:07.995+03:00,0.02023345852159405,0
2025-04-21T14:54:47.209+03:00,1745236486.436669,40.95228068713659,29.14029842710894,76.51794,-1,-1,-1,-1,30,25.18208350132768,-9999,17531.81511191667,-0.7255859375,0.6133575439453125,-0.2896575927734375,17531.80757191667,2.447998302749665,-1.23689354273856,-0.6776995612589241,-1.050329446792603,-0.2178910076618195,0.1245123371481895,0.01231372356414795,-0.02162563800811768,-0.01896736025810242,XArbitraryZVertical,0.4221965647773038,-0.4405625554025973,0.7882028778633441,0.07994231872939457,-0.7359922528266907,0.6270025968551636,-0.2553094029426575,0,0,0,-1,-1,17521.93113075,unknown,2,2025-04-21T14:54:11.259+03:00,2025-04-20T21:57:49.637+03:00,6589,0.9558782,0,0,5416.758,5,6,2025-04-21T14:54:16.418+03:00,766929248.7788981,0,-46.07,100.2848,1,0.45,2025-04-21T14:52:54.481+03:00,95,1.583333333333333,2025-04-21T12:30:07.995+03:00,0.02023345852159405,0
2025-04-21T14:54:47.219+03:00,1745236486.436669,40.95228068713659,29.14029842710894,76.51794,-1,-1,-1,-1,30,25.18208350132768,-9999,17531.82518791667,-0.7940826416015625,0.4879150390625,-0.2965240478515625,17531.81764791667,2.430138591248916,-1.246607950693244,-0.6806692963130536,-1.505900502204895,0.1014109402894974,-0.2010811418294907,0.01244151592254639,-0.01328569650650024,-0.03777067363262177,XArbitraryZVertical,0.4213989758865112,-0.4456973837349069,0.7853249410207188,0.08391244110585801,-0.7366693615913391,0.6293132901191711,-0.2475534975528717,0,0,0,-1,-1,17521.93113075,unknown,2,2025-04-21T14:54:11.259+03:00,2025-04-20T21:57:49.637+03:00,6589,0.9558782,0,0,5416.758,5,6,2025-04-21T14:54:16.418+03:00,766929248.7788981,0,-46.07,100.2848,1,0.45,2025-04-21T14:52:54.481+03:00,95,1.583333333333333,2025-04-21T12:30:07.995+03:00,0.02023345852159405,0
2025-04-21T14:54:47.229+03:00,1745236486.436669,40.95228068713659,29.14029842710894,76.51794,-1,-1,-1,-1,30,25.18208350132768,-9999,17531.83526391667,-0.7404327392578125,0.49578857421875,-0.245513916015625,17531.82772391667,2.412331604290976,-1.25790781389778,-0.6860360557749841,-1.464028716087341,-0.09908834099769592,0.2423604875802994,-0.01981633901596069,-0.07082259654998779,-0.05829250812530518,XArbitraryZVertical,0.4206167626917376,-0.4516594325799501,0.7820270158774237,0.08671164565620132,-0.7361956238746643,0.6334750056266785,-0.2381705939769745,0,0,0,-1,-1,17521.93113075,unknown,2,2025-04-21T14:54:11.259+03:00,2025-04-20T21:57:49.637+03:00,6589,0.9558782,0,0,5416.758,5,6,2025-04-21T14:54:16.418+03:00,766929248.7788981,0,-46.07,100.2848,1,0.45,2025-04-21T14:52:54.481+03:00,95,1.583333333333333,2025-04-21T12:30:07.995+03:00,0.02023345852159405,0
2025-04-21T14:54:47.239+03:00,1745236486.436669,40.95228068713659,29.14029842710894,76.51794,-1,-1,-1,-1,30,25.18208350132768,-9999,17531.84533991667,-0.6378173828125,0.764862060546875,-0.2420654296875,17531.83779991667,2.395203499900534,-1.27038348108945,-0.6918860114992846,-1.352849841117859,-0.2297066003084183,0.07781784981489182,-0.06533092260360718,-0.2130793333053589,-0.04218284785747528,XArbitraryZVertical,0.42024482052293,-0.4576687303028683,0.7784962142880503,0.08875316971861445,-0.7355570793151855,0.6379906535148621,-0.2278672456741333,0,0,0,-1,-1,17521.93113075,unknown,2,2025-04-21T14:54:11.259+03:00,2025-04-20T21:57:49.637+03:00,6589,0.9558782,0,0,5416.758,5,6,2025-04-21T14:54:16.418+03:00,766929248.7788981,0,-46.07,100.2848,1,0.45,2025-04-21T14:52:54.481+03:00,95,1.583333333333333,2025-04-21T12:30:07.995+03:00,0.02023345852159405,0
2025-04-21T14:54:47.249+03:00,1745236486.436669,40.95228068713659,29.14029842710894,76.51794,-1,-1,-1,-1,30,25.18208350132768,-9999,17531.85541591667,-0.702117919921875,0.7230987548828125,-0.25244140625,17531.84787591667,2.379632763125202,-1.283145222045944,-0.6962534215349865,-1.202203869819641,-0.3042575120925903,0.06935005635023117,0.09273618459701538,0.05292707681655884,-0.01531712710857391,XArbitraryZVertical,0.4205990597280171,-0.462884146907313,0.7750117526417838,0.09050623733379258,-0.7357262372970581,0.6413476467132568,-0.2176693975925446,0,0,0,-1,-1,17521.93113075,unknown,2,2025-04-21T14:54:11.259+03:00,2025-04-20T21:57:49.637+03:00,6589,0.9558782,0,0,5416.758,5,6,2025-04-21T14:54:16.418+03:00,766929248.7788981,0,-46.07,100.2848,1,0.45,2025-04-21T14:52:54.481+03:00,95,1.583333333333333,2025-04-21T12:30:07.995+03:00,0.02023345852159405,0
2025-04-21T14:54:47.259+03:00,1745236486.436669,40.95228068713659,29.14029842710894,76.51794,-1,-1,-1,-1,30,25.18208350132768,-9999,17531.86549191667,-0.7291717529296875,0.66583251953125,-0.2436981201171875,17531.85795191667,2.365087844327228,-1.295342487389448,-0.7002586504685498,-1.144900560379028,-0.2685492038726807,0.06979513913393021,0.05455887317657471,0.1145869493484497,-0.04595761001110077,XArbitraryZVertical,0.4209855872329562,-0.4677408693677437,0.7716982998784844,0.09203898805943124,-0.7358485460281372,0.6444154977798462,-0.2079792320728302,0,0,0,-1,-1,17521.93113075,unknown,2,2025-04-21T14:54:11.259+03:00,2025-04-20T21:57:49.637+03:00,6589,0.9558782,0,0,5416.758,5,6,2025-04-21T14:54:16.418+03:00,766929248.7788981,0,-46.07,100.2848,1,0.45,2025-04-21T14:52:54.481+03:00,95,1.583333333333333,2025-04-21T12:30:07.995+03:00,0.02023345852159405,0
2025-04-21T14:54:47.269+03:00,1745236486.436669,40.95228068713659,29.14029842710894,76.51794,-1,-1,-1,-1,30,25.18208350132768,-9999,17531.87556791667,-0.7526092529296875,0.65106201171875,-0.2481689453125,17531.86802791667,2.351232732332369,-1.306944569233256,-0.7038783491245738,-1.060711860656738,-0.2711923718452454,0.07040420174598694,0.01688486337661743,0.03089070320129395,-0.04643617570400238,XArbitraryZVertical,0.4213323342906741,-0.4723027197280263,0.7685476488617957,0.09350710042651189,-0.7359552383422852,0.6471791863441467,-0.1988184154033661,0,0,0,-1,-1,17521.93113075,unknown,2,2025-04-21T14:54:11.259+03:00,2025-04-20T21:57:49.637+03:00,6589,0.9558782,0,0,5416.758,5,6,2025-04-21T14:54:16.418+03:00,766929248.7788981,0,-46.07,100.2848,1,0.45,2025-04-21T14:52:54.481+03:00,95,1.583333333333333,2025-04-21T12:30:07.995+03:00,0.02023345852159405,0
2025-04-21T14:54:47.279+03:00,1745236486.436669,40.95228068713659,29.14029842710894,76.51794,-1,-1,-1,-1,30,25.18208350132768,-9999,17531.88564391667,-0.7427520751953125,0.650421142578125,-0.247222900390625,17531.87810391667,2.338731047430812,-1.317932372603639,-0.7073158333218797,-0.9124792218208313,-0.2920305728912354,0.09183838963508606,-0.01185029745101929,0.006316661834716797,-0.0567096471786499,XArbitraryZVertical,0.4217515283239345,-0.4764918294435601,0.7655917892822145,0.09460618819973347,-0.7359371781349182,0.6497958302497864,-0.1901623755693436,0,0,0,-1,-1,17521.93113075,unknown,2,2025-04-21T14:54:11.259+03:00,2025-04-20T21:57:49.637+03:00,6589,0.9558782,0,0,5416.758,5,6,2025-04-21T14:54:16.418+03:00,766929248.7788981,0,-46.07,100.2848,1,0.45,2025-04-21T14:52:54.481+03:00,95,1.583333333333333,2025-04-21T12:30:07.995+03:00,0.02023345852159405,0
2025-04-21T14:54:47.290+03:00,1745236486.436669,40.95228068713659,29.14029842710894,76.51794,-1,-1,-1,-1,30,25.18208350132768,-9999,17531.89571991667,-0.7395477294921875,0.661163330078125,-0.254425048828125,17531.88817991667,2.327869384554668,-1.328170588330021,-0.7102613232276153,-0.8339908123016357,-0.3210622072219849,0.06783159077167511,-0.01219987869262695,-0.004174411296844482,-0.06482160091400146,XArbitraryZVertical,0.4223488260177956,-0.4801487917881267,0.7628782346844962,0.0953692706505103,-0.7359843254089355,0.6520318984985352,-0.1821572184562683,0,0,0,-1,-1,17521.93113075,unknown,2,2025-04-21T14:54:11.259+03:00,2025-04-20T21:57:49.637+03:00,6589,0.9558782,0,0,5416.758,5,6,2025-04-21T14:54:16.418+03:00,766929248.7788981,0,-46.07,100.2848,1,0.45,2025-04-21T14:52:54.481+03:00,95,1.583333333333333,2025-04-21T12:30:07.995+03:00,0.02023345852159405,0
2025-04-21T14:54:47.300+03:00,1745236486.436669,40.95228068713659,29.14029842710894,76.51794,-1,-1,-1,-1,30,25.18208350132768,-9999,17531.90579591667,-0.737823486328125,0.66595458984375,-0.2384033203125,17531.89825591667,2.317472958391574,-1.338084988904692,-0.7130437031515181,-0.8149603605270386,-0.3197005391120911,0.1038866639137268,-0.002936184406280518,0.003224730491638184,-0.07796323299407959,XArbitraryZVertical,0.4229361784227426,-0.4836411435009393,0.7602571195124831,0.09604790611511538,-0.7359859347343445,0.65413898229599,-0.1744324713945389,0,0,0,-1,-1,17521.93113075,unknown,2,2025-04-21T14:54:11.259+03:00,2025-04-20T21:57:49.637+03:00,6589,0.9558782,0,0,5416.758,5,6,2025-04-21T14:54:16.418+03:00,766929248.7788981,0,-46.07,100.2848,1,0.45,2025-04-21T14:52:54.481+03:00,95,1.583333333333333,2025-04-21T12:30:07.995+03:00,0.02023345852159405,0
2025-04-21T14:54:47.310+03:00,1745236486.436669,40.95228068713659,29.14029842710894,76.51794,-1,-1,-1,-1,30,25.18208350132768,-9999,17531.91587454167,-0.7311248779296875,0.646453857421875,-0.2352142333984375,17531.90833191667,2.307271062729897,-1.348310616748644,-0.7159204860555324,-0.8105334043502808,-0.3726076781749725,0.1080459877848625,-0.005135118961334229,0.009596467018127441,-0.07961219549179077,XArbitraryZVertical,0.423629005131392,-0.487132050714106,0.7575792563796278,0.09651142962267337,-0.7358927130699158,0.6563121676445007,-0.1664816588163376,0,0,0,-1,-1,17521.93113075,unknown,2,2025-04-21T14:54:11.259+03:00,2025-04-20T21:57:49.637+03:00,6589,0.9558782,0,0,5416.758,5,6,2025-04-21T14:54:16.418+03:00,766929248.7788981,0,-46.07,100.2848,1,0.45,2025-04-21T14:52:54.481+03:00,95,1.583333333333333,2025-04-21T12:30:07.995+03:00,0.02023345852159405,0
2025-04-21T14:54:47.320+03:00,1745236486.436669,40.95228068713659,29.14029842710894,76.51794,-1,-1,-1,-1,30,25.18208350132768,-9999,17531.92595054167,-0.7340240478515625,0.619415283203125,-0.21600341796875,17531.91841054167,2.29696260781928,-1.35867777534363,-0.7189505823030262,-0.8189480304718018,-0.3567841351032257,0.1374586671590805,0.004110038280487061,-0.001185834407806396,-0.0768815279006958,XArbitraryZVertical,0.4242740675629288,-0.4906927197813682,0.7548666226837456,0.09689463462766724,-0.7356316447257996,0.6585953235626221,-0.1584243476390839,0,0,0,-1,-1,17521.93113075,unknown,2,2025-04-21T14:54:11.259+03:00,2025-04-20T21:57:49.637+03:00,6589,0.9558782,0,0,5416.758,5,6,2025-04-21T14:54:16.418+03:00,766929248.7788981,0,-46.07,100.2848,1,0.45,2025-04-21T14:52:54.481+03:00,95,1.583333333333333,2025-04-21T12:30:07.995+03:00,0.02023345852159405,0
2025-04-21T14:54:47.330+03:00,1745236486.436669,40.95228068713659,29.14029842710894,76.51794,-1,-1,-1,-1,30,25.18208350132768,-9999,17531.93602654167,-0.7342987060546875,0.63702392578125,-0.1870269775390625,17531.92848654167,2.286810418488324,-1.369026130350746,-0.721847465446446,-0.7922993898391724,-0.3649288713932037,0.1228387132287025,0.001915037631988525,-0.03442990779876709,-0.07606588304042816,XArbitraryZVertical,0.4249463748130534,-0.4941764649097716,0.7521678256613863,0.09722967190671335,-0.7353591918945312,0.6607725024223328,-0.1504203975200653,0,0,0,-1,-1,17521.93113075,unknown,2,2025-04-21T14:54:11.259+03:00,2025-04-20T21:57:49.637+03:00,6589,0.9558782,0,0,5416.758,5,6,2025-04-21T14:54:16.418+03:00,766929248.7788981,0,-46.07,100.2848,1,0.45,2025-04-21T14:52:54.481+03:00,95,1.583333333333333,2025-04-21T12:30:07.995+03:00,0.02023345852159405,0
2025-04-21T14:54:47.340+03:00,1745236486.436669,40.95228068713659,29.14029842710894,76.51794,-1,-1,-1,-1,30,25.18208350132768,-9999,17531.94610254167,-0.72216796875,0.6655426025390625,-0.1740570068359375,17531.93856254167,2.277032314206997,-1.379288549412892,-0.7248023906291327,-0.7297244071960449,-0.3884970545768738,0.1655007004737854,0.0008438229560852051,-0.03786563873291016,-0.05378007888793945,XArbitraryZVertical,0.4256280472440925,-0.4975880509747085,0.7495077117067399,0.09739095465775854,-0.7349441647529602,0.6629875302314758,-0.142493799328804,0,0,0,-1,-1,17521.93113075,unknown,2,2025-04-21T14:54:11.259+03:00,2025-04-20T21:57:49.637+03:00,6589,0.9558782,0,0,5416.758,5,6,2025-04-21T14:54:16.418+03:00,766929248.7788981,0,-46.07,100.2848,1,0.45,2025-04-21T14:52:54.481+03:00,95,1.583333333333333,2025-04-21T12:30:07.995+03:00,0.02023345852159405,0
2025-04-21T14:54:47.350+03:00,1745236486.436669,40.95228068713659,29.14029842710894,76.51794,-1,-1,-1,-1,30,25.18208350132768,-9999,17531.95617854167,-0.7139739990234375,0.672210693359375,-0.1817626953125,17531.94863854167,2.26871617111149,-1.388808620284748,-0.7278021893500813,-0.6007059812545776,-0.4244470596313477,0.180159792304039,0.005975604057312012,-0.008400619029998779,-0.04174977540969849,XArbitraryZVertical,0.4263518462799067,-0.5006585846144103,0.7470799013872028,0.09714237113819342,-0.734308123588562,0.6652302742004395,-0.1351301670074463,0,0,0,-1,-1,17521.93113075,unknown,2,2025-04-21T14:54:11.259+03:00,2025-04-20T21:57:49.637+03:00,6589,0.9558782,0,0,5416.758,5,6,2025-04-21T14:54:16.418+03:00,766929248.7788981,0,-46.07,100.2848,1,0.45,2025-04-21T14:52:54.481+03:00,95,1.583333333333333,2025-04-21T12:30:07.995+03:00,0.02023345852159405,0
2025-04-21T14:54:47.360+03:00,1745236486.436669,40.95228068713659,29.14029842710894,76.51794,-1,-1,-1,-1,30,25.18208350132768,-9999,17531.96625454167,-0.72625732421875,0.668487548828125,-0.191558837890625,17531.95871454167,2.261585555188478,-1.397743759131188,-0.7304820119527848,-0.5335956811904907,-0.3988311886787415,0.1641983985900879,0.01941782236099243,0.003822147846221924,-0.04807436466217041,XArbitraryZVertical,0.4272096527707566,-0.503352524894399,0.7448367439873202,0.09667638642370337,-0.7337275147438049,0.6672287583351135,-0.1282562911510468,0,0,0,-1,-1,17521.93113075,unknown,2,2025-04-21T14:54:11.259+03:00,2025-04-20T21:57:49.637+03:00,6589,0.9558782,0,0,5416.758,5,6,2025-04-21T14:54:16.418+03:00,766929248.7788981,0,-46.07,100.2848,1,0.45,2025-04-21T14:52:54.481+03:00,95,1.583333333333333,2025-04-21T12:30:07.995+03:00,0.02023345852159405,0
2025-04-21T14:54:47.370+03:00,1745236486.436669,40.95228068713659,29.14029842710894,76.51794,-1,-1,-1,-1,30,25.18208350132768,-9999,17531.97633054167,-0.72210693359375,0.6655731201171875,-0.1878662109375,17531.96879054167,2.255099398068952,-1.405996534699308,-0.73325852768225,-0.5147950649261475,-0.3890973329544067,0.2184379398822784,0.01160198450088501,0.001695632934570312,-0.06775929033756256,XArbitraryZVertical,0.4279292412834863,-0.5058956389229098,0.7427740210289621,0.09608833217936967,-0.7329307794570923,0.6692942380905151,-0.1218923330307007,0,0,0,-1,-1,17521.93113075,unknown,2,2025-04-21T14:54:11.259+03:00,2025-04-20T21:57:49.637+03:00,6589,0.9558782,0,0,5416.758,5,6,2025-04-21T14:54:16.418+03:00,766929248.7788981,0,-46.07,100.2848,1,0.45,2025-04-21T14:52:54.481+03:00,95,1.583333333333333,2025-04-21T12:30:07.995+03:00,0.02023345852159405,0
2025-04-21T14:54:47.380+03:00,1745236486.436669,40.95228068713659,29.14029842710894,76.51794,-1,-1,-1,-1,30,25.18208350132768,-9999,17531.98640654167,-0.717529296875,0.6710662841796875,-0.170562744140625,17531.97886654167,2.248748271992314,-1.414362567698008,-0.7361572562815952,-0.5242282152175903,-0.4284201562404633,0.1932974755764008,0.005290210247039795,-0.007260799407958984,-0.07483881711959839,XArbitraryZVertical,0.4286736123376317,-0.5084408584736706,0.7406977912205218,0.09536025150146317,-0.7320052981376648,0.6714451909065247,-0.1154536530375481,0,0,0,-1,-1,17521.93113075,unknown,2,2025-04-21T14:54:11.259+03:00,2025-04-20T21:57:49.637+03:00,6589,0.9558782,0,0,5416.758,5,6,2025-04-21T14:54:16.418+03:00,766929248.7788981,0,-46.07,100.2848,1,0.45,2025-04-21T14:52:54.481+03:00,95,1.583333333333333,2025-04-21T12:30:07.995+03:00,0.02023345852159405,0
2025-04-21T14:54:47.390+03:00,1745236486.436669,40.95228068713659,29.14029842710894,76.51794,-1,-1,-1,-1,30,25.18208350132768,-9999,17531.99648254167,-0.7227935791015625,0.6731414794921875,-0.1568603515625,17531.98894254167,2.241265162080119,-1.423551385010658,-0.7389804737082841,-0.6459863781929016,-0.3955980539321899,0.210722804069519,0.01556581258773804,-0.003170430660247803,-0.0693361759185791,XArbitraryZVertical,0.4294320563593772,-0.511239741032041,0.7383945753670554,0.09484460762232096,-0.7311572432518005,0.6735346913337708,-0.1084440723061562,0,0,0,-1,-1,17521.93113075,unknown,2,2025-04-21T14:54:11.259+03:00,2025-04-20T21:57:49.637+03:00,6589,0.9558782,0,0,5416.758,5,6,2025-04-21T14:54:16.418+03:00,766929248.7788981,0,-46.07,100.2848,1,0.45,2025-04-21T14:52:54.481+03:00,95,1.583333333333333,2025-04-21T12:30:07.995+03:00,0.02023345852159405,0
2025-04-21T14:54:47.421+03:00,1745236486.436669,40.95228068713659,29.14029842710894,76.51794,-1,-1,-1,-1,30,25.18208350132768,-9999,17532.00655854167,-0.7129364013671875,0.67041015625,-0.1587066650390625,17531.99901854167,2.232830570915254,-1.43340894497345,-0.7422157282085002,-0.6711257696151733,-0.4194671511650085,0.2469639033079147,0.005876660346984863,-0.005512535572052002,-0.06021564453840256,XArbitraryZVertical,0.4300598426144024,-0.5143756181084899,0.7359112471498681,0.09434396855487827,-0.7300282120704651,0.6759225130081177,-0.1009325087070465,0,0,0,-1,-1,17521.93113075,unknown,2,2025-04-21T14:54:11.259+03:00,2025-04-20T21:57:49.637+03:00,6589,0.9558782,0,0,5416.758,5,6,2025-04-21T14:54:16.418+03:00,766929248.7788981,0,-46.07,100.2848,1,0.45,2025-04-21T14:52:54.481+03:00,95,1.583333333333333,2025-04-21T12:30:07.995+03:00,0.02023345852159405,0
2025-04-21T14:54:47.423+03:00,1745236486.436669,40.95228068713659,29.14029842710894,76.51794,-1,-1,-1,-1,30,25.18208350132768,-9999,17532.01663454167,-0.714385986328125,0.656097412109375,-0.15185546875,17532.00909454167,2.223670931426675,-1.443747347470205,-0.745739746067496,-0.7460381388664246,-0.4057036638259888,0.2700870633125305,0.01321130990982056,-0.004092395305633545,-0.06338619440793991,XArbitraryZVertical,0.4305704450634719,-0.5177550832385031,0.7333003516358616,0.09385754042908168,-0.7286653518676758,0.6785153746604919,-0.09307753294706345,0,0,0,-1,-1,17521.93113075,unknown,2,2025-04-21T14:54:11.259+03:00,2025-04-20T21:57:49.637+03:00,6589,0.9558782,0,0,5416.758,5,6,2025-04-21T14:54:16.418+03:00,766929248.7788981,0,-46.07,100.2848,1,0.45,2025-04-21T14:52:54.481+03:00,95,1.583333333333333,2025-04-21T12:30:07.995+03:00,0.02023345852159405,0
2025-04-21T14:54:47.426+03:00,1745236486.436669,40.95228068713659,29.14029842710894,76.51794,-1,-1,-1,-1,30,25.18208350132768,-9999,17532.02671054167,-0.7118377685546875,0.654144287109375,-0.121368408203125,17532.01917054167,2.213609613319956,-1.454671854127823,-0.749581843011962,-0.8019173741340637,-0.4059391021728516,0.3117450177669525,0.01390922069549561,-0.02038317918777466,-0.0733482837677002,XArbitraryZVertical,0.430941848269794,-0.5214254924553248,0.7305339108141977,0.09340618589473247,-0.7270439863204956,0.6813327670097351,-0.08480916172266006,0,0,0,-1,-1,17521.93113075,unknown,2,2025-04-21T14:54:11.259+03:00,2025-04-20T21:57:49.637+03:00,6589,0.9558782,0,0,5416.758,5,6,2025-04-21T14:54:16.418+03:00,766929248.7788981,0,-46.07,100.2848,1,0.45,2025-04-21T14:52:54.481+03:00,95,1.583333333333333,2025-04-21T12:30:07.995+03:00,0.02023345852159405,0
2025-04-21T14:54:47.431+03:00,1745236486.436669,40.95228068713659,29.14029842710894,76.51794,-1,-1,-1,-1,30,25.18208350132768,-9999,17532.03678754167,-0.7136993408203125,0.669464111328125,-0.09320068359375,17532.02924654167,2.20289189662834,-1.466146659080804,-0.7537088868122863,-0.8267641067504883,-0.423282653093338,0.3306534588336945,0.01218444108963013,-0.03133285045623779,-0.05704259872436523,XArbitraryZVertical,0.4312255924072892,-0.5253200348911682,0.7276334714518747,0.09291315947719635,-0.7251666188240051,0.6843478083610535,-0.07616669684648514,0,0,0,-1,-1,17521.93113075,unknown,2,2025-04-21T14:54:11.259+03:00,2025-04-20T21:57:49.637+03:00,6589,0.9558782,0,0,5416.758,5,6,2025-04-21T14:54:16.418+03:00,766929248.7788981,0,-46.07,100.2848,1,0.45,2025-04-21T14:52:54.481+03:00,95,1.583333333333333,2025-04-21T12:30:07.995+03:00,0.02023345852159405,0
2025-04-21T14:54:47.441+03:00,1745236486.436669,40.95228068713659,29.14029842710894,76.51794,-1,-1,-1,-1,30,25.18208350132768,-9999,17532.04686354167,-0.7259521484375,0.699462890625,-0.07464599609375,17532.03932354167,2.192023390675673,-1.477959873651705,-0.7578767717623418,-0.810116171836853,-0.436991274356842,0.3338543176651001,0.01146900653839111,-0.02575993537902832,-0.03548384457826614,XArbitraryZVertical,0.4315367279576078,-0.5292551703495284,0.7246658795360609,0.09232751323253763,-0.7231695055961609,0.6873809099197388,-0.06733003258705139,0,0,0,-1,-1,17521.93113075,unknown,2,2025-04-21T14:54:11.259+03:00,2025-04-20T21:57:49.637+03:00,6589,0.9558782,0,0,5416.758,5,6,2025-04-21T14:54:16.418+03:00,766929248.7788981,0,-46.07,100.2848,1,0.45,2025-04-21T14:52:54.481+03:00,95,1.583333333333333,2025-04-21T12:30:07.995+03:00,0.02023345852159405,0
2025-04-21T14:54:47.451+03:00,1745236486.436669,40.95228068713659,29.14029842710894,76.51794,-1,-1,-1,-1,30,25.18208350132768,-9999,17532.05693954167,-0.743438720703125,0.7136077880859375,-0.0632171630859375,17532.04939954167,2.181448529129812,-1.489463121474324,-0.7619131085011309,-0.7744055986404419,-0.4105277359485626,0.3281024396419525,0.0003606677055358887,-0.002501845359802246,-0.0222737193107605,XArbitraryZVertical,0.431803947532195,-0.5330617389832502,0.7217882205453164,0.09171812233000236,-0.7211248278617859,0.6903069019317627,-0.05878106504678726,0,0,0,-1,-1,17521.93113075,unknown,2,2025-04-21T14:54:11.259+03:00,2025-04-20T21:57:49.637+03:00,6589,0.9558782,0,0,5416.758,5,6,2025-04-21T14:54:16.418+03:00,766929248.7788981,0,-46.07,100.2848,1,0.45,2025-04-21T14:52:54.481+03:00,95,1.583333333333333,2025-04-21T12:30:07.995+03:00,0.02023345852159405,0
2025-04-21T14:54:47.461+03:00,1745236486.436669,40.95228068713659,29.14029842710894,76.51794,-1,-1,-1,-1,30,25.18208350132768,-9999,17532.06701554167,-0.7517242431640625,0.7070159912109375,-0.069793701171875,17532.05947554167,2.171725553103558,-1.500373034435905,-0.7656373531496067,-0.6489094495773315,-0.4172442257404327,0.3112512826919556,-0.017037034034729,0.0186731219291687,-0.01538735628128052,XArbitraryZVertical,0.4321279581025792,-0.5365639704032411,0.719081828200412,0.09102647364509293,-0.7191537618637085,0.692996621131897,-0.05072906613349915,0,0,0,-1,-1,17521.93113075,unknown,2,2025-04-21T14:54:11.259+03:00,2025-04-20T21:57:49.637+03:00,6589,0.9558782,0,0,5416.758,5,6,2025-04-21T14:54:16.418+03:00,766929248.7788981,0,-46.07,100.2848,1,0.45,2025-04-21T14:52:54.481+03:00,95,1.583333333333333,2025-04-21T12:30:07.995+03:00,0.02023345852159405,0
2025-04-21T14:54:47.471+03:00,1745236486.436669,40.95228068713659,29.14029842710894,76.51794,-1,-1,-1,-1,30,25.18208350132768,-9999,17532.07709154167,-0.740203857421875,0.699005126953125,-0.0799407958984375,17532.06955154167,2.163492906464577,-1.510142574804449,-0.7691730267393119,-0.5967288017272949,-0.3904203176498413,0.3087247312068939,-0.03402531147003174,0.01611322164535522,-0.02088582515716553,XArbitraryZVertical,0.4324599642690206,-0.5396316324202552,0.7166947942535346,0.09013673201226846,-0.7171648740768433,0.6955413222312927,-0.04355216026306152,0,0,0,-1,-1,17521.93113075,unknown,2,2025-04-21T14:54:11.259+03:00,2025-04-20T21:57:49.637+03:00,6589,0.9558782,0,0,5416.758,5,6,2025-04-21T14:54:16.418+03:00,766929287.4628325,0,-45.8,100.2816,1,0.45,2025-04-21T14:52:54.481+03:00,95,1.583333333333333,2025-04-21T12:30:07.995+03:00,0.02023345852159405,0
2025-04-21T14:54:47.481+03:00,1745236486.436669,40.95228068713659,29.14029842710894,76.51794,-1,-1,-1,-1,30,25.18208350132768,-9999,17532.08716754167,-0.725799560546875,0.713104248046875,-0.0713348388671875,17532.07962754167,2.155541286144078,-1.519634371137589,-0.7725771666882661,-0.5619277358055115,-0.395688384771347,0.3075361251831055,-0.03074890375137329,0.001983106136322021,-0.04237305745482445,XArbitraryZVertical,0.4327764712357537,-0.5425805206496389,0.7143858861539659,0.08923848336272389,-0.7151769399642944,0.6979830861091614,-0.0366218090057373,0,0,0,-1,-1,17521.93113075,unknown,2,2025-04-21T14:54:11.259+03:00,2025-04-20T21:57:49.637+03:00,6589,0.9558782,0,0,5416.758,5,6,2025-04-21T14:54:16.418+03:00,766929287.4628325,0,-45.8,100.2816,1,0.45,2025-04-21T14:52:54.481+03:00,95,1.583333333333333,2025-04-21T12:30:07.995+03:00,0.02023345852159405,0
2025-04-21T14:54:47.491+03:00,1745236486.436669,40.95228068713659,29.14029842710894,76.51794,-1,-1,-1,-1,30,25.18208350132768,-9999,17532.09724354167,-0.717864990234375,0.72796630859375,-0.06512451171875,17532.08970354167,2.148348710145513,-1.528586722813727,-0.7759839720061107,-0.4917901158332825,-0.3732186853885651,0.3292987048625946,-0.01721984148025513,0.00586467981338501,-0.04379630088806152,XArbitraryZVertical,0.4330805045268544,-0.545327952232374,0.7122367396836737,0.0881897221369513,-0.7130963206291199,0.7004187107086182,-0.03011740185320377,0,0,0,-1,-1,17521.93113075,unknown,2,2025-04-21T14:54:11.259+03:00,2025-04-20T21:57:49.637+03:00,6589,0.9558782,0,0,5416.758,5,6,2025-04-21T14:54:16.418+03:00,766929287.4628325,0,-45.8,100.2816,1,0.45,2025-04-21T14:52:54.481+03:00,95,1.583333333333333,2025-04-21T12:30:07.995+03:00,0.02023345852159405,0
2025-04-21T14:54:47.501+03:00,1745236486.436669,40.95228068713659,29.14029842710894,76.51794,-1,-1,-1,-1,30,25.18208350132768,-9999,17532.10731954167,-0.71807861328125,0.7443389892578125,-0.0456085205078125,17532.09977954167,2.142280766870521,-1.536843404969755,-0.7794393594252257,-0.385351687669754,-0.4114471673965454,0.3195096552371979,-0.009439408779144287,0.01921069622039795,-0.04422837495803833,XArbitraryZVertical,0.4334092590059434,-0.5477985498417542,0.7102976815290605,0.08689170398415355,-0.7108975052833557,0.7028807401657104,-0.02414632588624954,0,0,0,-1,-1,17521.93113075,unknown,2,2025-04-21T14:54:11.259+03:00,2025-04-20T21:57:49.637+03:00,6589,0.9558782,0,0,5416.758,5,6,2025-04-21T14:54:16.418+03:00,766929287.4628325,0,-45.8,100.2816,1,0.45,2025-04-21T14:52:54.481+03:00,95,1.583333333333333,2025-04-21T12:30:07.995+03:00,0.02023345852159405,0
2025-04-21T14:54:47.511+03:00,1745236486.436669,40.95228068713659,29.14029842710894,76.51794,-1,-1,-1,-1,30,25.18208350132768,-9999,17532.11739554167,-0.731536865234375,0.7530364990234375,-0.0374755859375,17532.10985554167,2.137307692636615,-1.544307782618942,-0.7827406176977502,-0.3473590314388275,-0.3694365918636322,0.3158068060874939,-0.007589221000671387,0.03279656171798706,-0.03430765867233276,XArbitraryZVertical,0.4337822964789079,-0.5499491326116289,0.7085800276618417,0.08545856524427048,-0.7087346911430359,0.7052251100540161,-0.01877774111926556,0,0,0,-1,-1,17521.93113075,unknown,2,2025-04-21T14:54:11.259+03:00,2025-04-20T21:57:49.637+03:00,6589,0.9558782,0,0,5416.758,5,6,2025-04-21T14:54:16.418+03:00,766929287.4628325,0,-45.8,100.2816,1,0.45,2025-04-21T14:52:54.481+03:00,95,1.583333333333333,2025-04-21T12:30:07.995+03:00,0.02023345852159405,0
2025-04-21T14:54:47.522+03:00,1745236486.436669,40.95228068713659,29.14029842710894,76.51794,-1,-1,-1,-1,30,25.18208350132768,-9999,17532.12747154167,-0.72698974609375,0.757537841796875,-0.014801025390625,17532.11993154167,2.132543335798986,-1.551345120396862,-0.7859651148880789,-0.3247437179088593,-0.3677699863910675,0.2996079921722412,-0.02043294906616211,0.0426449179649353,-0.02539348788559437,XArbitraryZVertical,0.4340689318288878,-0.5520067528077737,0.706967538396348,0.08408128560269376,-0.7065721750259399,0.7075075507164001,-0.01374541409313679,0,0,0,-1,-1,17521.93113075,unknown,2,2025-04-21T14:54:11.259+03:00,2025-04-20T21:57:49.637+03:00,6589,0.9558782,0,0,5416.758,5,6,2025-04-21T14:54:16.418+03:00,766929287.4628325,0,-45.8,100.2816,1,0.45,2025-04-21T14:52:54.481+03:00,95,1.583333333333333,2025-04-21T12:30:07.995+03:00,0.02023345852159405,0
2025-04-21T14:54:47.531+03:00,1745236486.436669,40.95228068713659,29.14029842710894,76.51794,-1,-1,-1,-1,30,25.18208350132768,-9999,17532.13754754167,-0.72186279296875,0.753173828125,0.010711669921875,17532.13000754167,2.128172657754199,-1.557986293030803,-0.7890046149100961,-0.3112737238407135,-0.3420433104038239,0.2961650490760803,-0.0251200795173645,0.04724448919296265,-0.017708420753479,XArbitraryZVertical,0.4343633029686876,-0.553909719258118,0.7054565452117021,0.08272585394336067,-0.7044941782951355,0.709652304649353,-0.009025087580084801,0,0,0,-1,-1,17521.93113075,unknown,2,2025-04-21T14:54:11.259+03:00,2025-04-20T21:57:49.637+03:00,6589,0.9558782,0,0,5416.758,5,6,2025-04-21T14:54:16.418+03:00,766929287.4628325,0,-45.8,100.2816,1,0.45,2025-04-21T14:52:54.481+03:00,95,1.583333333333333,2025-04-21T12:30:07.995+03:00,0.02023345852159405,0
2025-04-21T14:54:47.541+03:00,1745236486.436669,40.95228068713659,29.14029842710894,76.51794,-1,-1,-1,-1,30,25.18208350132768,-9999,17532.14762454167,-0.7075653076171875,0.7716522216796875,0.0322418212890625,17532.14008354167,2.123396279105764,-1.564662918893024,-0.7918047618700509,-0.3352544903755188,-0.3225405514240265,0.2533250153064728,-0.0224267840385437,0.04203957319259644,0.007406532764434814,XArbitraryZVertical,0.4346127189513684,-0.5558392288461167,0.7039175156385977,0.0815755579488792,-0.7025488018989563,0.711622416973114,-0.004309072624891996,0,0,0,-1,-1,17521.93113075,unknown,2,2025-04-21T14:54:11.259+03:00,2025-04-20T21:57:49.637+03:00,6589,0.9558782,0,0,5416.758,5,6,2025-04-21T14:54:16.418+03:00,766929287.4628325,0,-45.8,100.2816,1,0.45,2025-04-21T14:52:54.481+03:00,95,1.583333333333333,2025-04-21T12:30:07.995+03:00,0.02023345852159405,0
2025-04-21T14:54:47.552+03:00,1745236486.436669,40.95228068713659,29.14029842710894,76.51794,-1,-1,-1,-1,30,25.18208350132768,-9999,17532.15770054167,-0.70318603515625,0.78662109375,0.036346435546875,17532.15016054167,2.118977836031232,-1.571008393043525,-0.7941483561164381,-0.2952524721622467,-0.2984935343265533,0.2152575254440308,-0.01167798042297363,0.04964178800582886,0.02333450317382812,XArbitraryZVertical,0.4349612651615937,-0.5575688438187821,0.7024519687019233,0.08054017308985695,-0.7008921504020691,0.7132669687271118,0.0001486355758970603,0,0,0,-1,-1,17521.93113075,unknown,2,2025-04-21T14:54:11.259+03:00,2025-04-20T21:57:49.637+03:00,6589,0.9558782,0,0,5416.758,5,6,2025-04-21T14:54:16.418+03:00,766929287.4628325,0,-45.8,100.2816,1,0.45,2025-04-21T14:52:54.481+03:00,95,1.583333333333333,2025-04-21T12:30:07.995+03:00,0.02023345852159405,0
2025-04-21T14:54:47.562+03:00,1745236486.436669,40.95228068713659,29.14029842710894,76.51794,-1,-1,-1,-1,30,25.18208350132768,-9999,17532.16777654167,-0.708587646484375,0.8018798828125,0.0367431640625,17532.16023654167,2.114820114933919,-1.576900330453089,-0.7960320995992148,-0.2673909068107605,-0.2911627590656281,0.1524665057659149,-0.003651440143585205,0.06872385740280151,0.03421247005462646,XArbitraryZVertical,0.4353421999148668,-0.5591173190955705,0.701080729014032,0.07969221355815236,-0.6995346546173096,0.7145859599113464,0.00427001528441906,0,0,0,-1,-1,17521.93113075,unknown,2,2025-04-21T14:54:11.259+03:00,2025-04-20T21:57:49.637+03:00,6589,0.9558782,0,0,5416.758,5,6,2025-04-21T14:54:16.418+03:00,766929287.4628325,0,-45.8,100.2816,1,0.45,2025-04-21T14:52:54.481+03:00,95,1.583333333333333,2025-04-21T12:30:07.995+03:00,0.02023345852159405,0
2025-04-21T14:54:47.572+03:00,1745236486.436669,40.95228068713659,29.14029842710894,76.51794,-1,-1,-1,-1,30,25.18208350132768,-9999,17532.17785254167,-0.71734619140625,0.799407958984375,0.0465240478515625,17532.17031254167,2.111184757153388,-1.582177263334367,-0.7972729582372108,-0.2394998669624329,-0.2405363470315933,0.1083762869238853,-0.006890356540679932,0.0800023078918457,0.02590787410736084,XArbitraryZVertical,0.4358260852458962,-0.5603849050499323,0.699839399898183,0.07905147958677035,-0.6986150145530701,0.7154535055160522,0.007951236329972744,0,0,0,-1,-1,17521.93113075,unknown,2,2025-04-21T14:54:11.259+03:00,2025-04-20T21:57:49.637+03:00,6589,0.9558782,0,0,5416.758,5,6,2025-04-21T14:54:16.418+03:00,766929287.4628325,0,-45.8,100.2816,1,0.45,2025-04-21T14:52:54.481+03:00,95,1.583333333333333,2025-04-21T12:30:07.995+03:00,0.02023345852159405,0
2025-04-21T14:54:47.582+03:00,1745236486.436669,40.95228068713659,29.14029842710894,76.51794,-1,-1,-1,-1,30,25.18208350132768,-9999,17532.18792854167,-0.7074737548828125,0.7911376953125,0.060760498046875,17532.18038854167,2.108293880151929,-1.586554896032516,-0.7981903849751247,-0.1489911377429962,-0.2279088348150253,0.06992550194263458,-0.01759821176528931,0.08680790662765503,0.03264093399047852,XArbitraryZVertical,0.4362892888056804,-0.5613832896484702,0.6988106942671863,0.07851114895873094,-0.6979169249534607,0.7160941362380981,0.01099908258765936,0,0,0,-1,-1,17521.93113075,unknown,2,2025-04-21T14:54:11.259+03:00,2025-04-20T21:57:49.637+03:00,6589,0.9558782,0,0,5416.758,5,6,2025-04-21T14:54:16.418+03:00,766929287.4628325,0,-45.8,100.2816,1,0.45,2025-04-21T14:52:54.481+03:00,95,1.583333333333333,2025-04-21T12:30:07.995+03:00,0.02023345852159405,0
2025-04-21T14:54:47.592+03:00,1745236486.436669,40.95228068713659,29.14029842710894,76.51794,-1,-1,-1,-1,30,25.18208350132768,-9999,17532.19800454167,-0.70745849609375,0.7809295654296875,0.06884765625,17532.19046454167,2.106906582130855,-1.589715793478394,-0.7985863566540881,-0.04861047863960266,-0.2032988369464874,0.01652033068239689,-0.01431888341903687,0.07708638906478882,0.04220485687255859,XArbitraryZVertical,0.4368926445107793,-0.5618938236462335,0.6980838515199838,0.07796827243745987,-0.6975951790809631,0.7163704633712769,0.0131997037678957,0,0,0,-1,-1,17521.93113075,unknown,2,2025-04-21T14:54:11.259+03:00,2025-04-20T21:57:49.637+03:00,6589,0.9558782,0,0,5416.758,5,6,2025-04-21T14:54:16.418+03:00,766929287.4628325,0,-45.8,100.2816,1,0.45,2025-04-21T14:52:54.481+03:00,95,1.583333333333333,2025-04-21T12:30:07.995+03:00,0.02023345852159405,0
2025-04-21T14:54:47.602+03:00,1745236486.436669,40.95228068713659,29.14029842710894,76.51794,-1,-1,-1,-1,30,25.18208350132768,-9999,17532.20808054167,-0.70855712890625,0.7773590087890625,0.0780792236328125,17532.20054054167,2.106739504566292,-1.591786382064946,-0.7985370886145388,0.02792524360120296,-0.1868147253990173,-0.02269035391509533,-0.008117437362670898,0.06837749481201172,0.05205118656158447,XArbitraryZVertical,0.437582003618802,-0.5620003676195237,0.6976224696014078,0.07746212677306795,-0.6976015567779541,0.7163361310958862,0.01464484632015228,0,0,0,-1,-1,17521.93113075,unknown,2,2025-04-21T14:54:11.259+03:00,2025-04-20T21:57:49.637+03:00,6589,0.9558782,0,0,5416.758,5,6,2025-04-21T14:54:16.418+03:00,766929287.4628325,0,-45.8,100.2816,1,0.45,2025-04-21T14:52:54.481+03:00,95,1.583333333333333,2025-04-21T12:30:07.995+03:00,0.02023345852159405,0
2025-04-21T14:54:47.612+03:00,1745236486.436669,40.95228068713659,29.14029842710894,76.51794,-1,-1,-1,-1,30,25.18208350132768,-9999,17532.21815654167,-0.7162628173828125,0.77447509765625,0.078887939453125,17532.21061654167,2.107531072341279,-1.592991456901224,-0.798134033889688,0.06155271083116531,-0.1637941002845764,-0.05768908560276031,-0.01007473468780518,0.06212800741195679,0.05857419967651367,XArbitraryZVertical,0.4383375218036848,-0.5617883672297422,0.6973711649737533,0.07698999195832321,-0.6978720426559448,0.7160547971725464,0.0154919046908617,0,0,0,-1,-1,17521.93113075,unknown,2,2025-04-21T14:54:11.259+03:00,2025-04-20T21:57:49.637+03:00,6589,0.9558782,0,0,5416.758,5,6,2025-04-21T14:54:16.418+03:00,766929287.4628325,0,-45.8,100.2816,1,0.45,2025-04-21T14:52:54.481+03:00,95,1.583333333333333,2025-04-21T12:30:07.995+03:00,0.02023345852159405,0
2025-04-21T14:54:47.622+03:00,1745236486.436669,40.95228068713659,29.14029842710894,76.51794,-1,-1,-1,-1,30,25.18208350132768,-9999,17532.22823254167,-0.7257080078125,0.764556884765625,0.074493408203125,17532.22069254167,2.108149903788968,-1.593935014151967,-0.7973243607090786,0.03945712745189667,-0.1204899027943611,-0.09565078467130661,-0.013630211353302,0.06144219636917114,0.06347179412841797,XArbitraryZVertical,0.4390668793295174,-0.5615177376299385,0.6971517011473897,0.07679547890545067,-0.6984364986419678,0.715489387512207,0.01616378873586655,0,0,0,-1,-1,17521.93113075,unknown,2,2025-04-21T14:54:11.259+03:00,2025-04-20T21:57:49.637+03:00,6589,0.9558782,0,0,5416.758,5,6,2025-04-21T14:54:16.418+03:00,766929287.4628325,0,-45.8,100.2816,1,0.45,2025-04-21T14:52:54.481+03:00,95,1.583333333333333,2025-04-21T12:30:07.995+03:00,0.02023345852159405,0
2025-04-21T14:54:47.632+03:00,1745236486.436669,40.95228068713659,29.14029842710894,76.51794,-1,-1,-1,-1,30,25.18208350132768,-9999,17532.23830854167,-0.724090576171875,0.7362213134765625,0.0661163330078125,17532.23076854167,2.108920430907491,-1.594570687189823,-0.7962893879888477,0.04435574635863304,-0.1127406358718872,-0.1132878288626671,-0.02396339178085327,0.05503976345062256,0.06029403209686279,XArbitraryZVertical,0.4397942038537644,-0.561153931617064,0.6969950243714698,0.0767143425852445,-0.6991658806800842,0.7147659659385681,0.01662535406649113,0,0,0,-1,-1,17521.93113075,unknown,2,2025-04-21T14:54:11.259+03:00,2025-04-20T21:57:49.637+03:00,6589,0.9558782,0,0,5416.758,5,6,2025-04-21T14:54:16.418+03:00,766929287.4628325,0,-45.8,100.2816,1,0.45,2025-04-21T14:52:54.481+03:00,95,1.583333333333333,2025-04-21T12:30:07.995+03:00,0.02023345852159405,0
2025-04-21T14:54:47.642+03:00,1745236486.436669,40.95228068713659,29.14029842710894,76.51794,-1,-1,-1,-1,30,25.18208350132768,-9999,17532.24838454167,-0.7191162109375,0.7181396484375,0.0694122314453125,17532.24084454167,2.10884349079137,-1.595536639171731,-0.7950898771466266,-0.06731519103050232,-0.07321565598249435,-0.1195697337388992,-0.02609854936599731,0.03524929285049438,0.05169343948364258,XArbitraryZVertical,0.4404444385491761,-0.5609542312817429,0.6967253365776519,0.07689449975085556,-0.7000061869621277,0.7139265537261963,0.01732190698385239,0,0,0,-1,-1,17521.93113075,unknown,2,2025-04-21T14:54:11.259+03:00,2025-04-20T21:57:49.637+03:00,6589,0.9558782,0,0,5416.758,5,6,2025-04-21T14:54:16.418+03:00,766929287.4628325,0,-45.8,100.2816,1,0.45,2025-04-21T14:52:54.481+03:00,95,1.583333333333333,2025-04-21T12:30:07.995+03:00,0.02023345852159405,0
2025-04-21T14:54:47.652+03:00,1745236486.436669,40.95228068713659,29.14029842710894,76.51794,-1,-1,-1,-1,30,25.18208350132768,-9999,17532.25846154167,-0.7197418212890625,0.71453857421875,0.063079833984375,17532.25092054167,2.10736599423543,-1.597296344317976,-0.7937203917003539,-0.1445359438657761,-0.06320377439260483,-0.1384033411741257,-0.02014857530593872,0.008041203022003174,0.04923045635223389,XArbitraryZVertical,0.4410254665735314,-0.5610582172603189,0.6962178918728537,0.07739984775317625,-0.7009512782096863,0.7129669189453125,0.01857957057654858,0,0,0,-1,-1,17521.93113075,unknown,2,2025-04-21T14:54:11.259+03:00,2025-04-20T21:57:49.637+03:00,6589,0.9558782,0,0,5416.758,5,6,2025-04-21T14:54:16.418+03:00,766929287.4628325,0,-45.8,100.2816,1,0.45,2025-04-21T14:52:54.481+03:00,95,1.583333333333333,2025-04-21T12:30:07.995+03:00,0.02023345852159405,0
2025-04-21T14:54:47.662+03:00,1745236486.436669,40.95228068713659,29.14029842710894,76.51794,-1,-1,-1,-1,30,25.18208350132768,-9999,17532.26853754167,-0.7163543701171875,0.70745849609375,0.0451812744140625,17532.26099754167,2.104900816369261,-1.599558100475647,-0.7923358986717245,-0.2090833187103271,-0.03930569812655449,-0.1219574213027954,-0.01635301113128662,0.00487750768661499,0.04815077781677246,XArbitraryZVertical,0.4415075601247733,-0.5613979944589355,0.6955584589960688,0.07811282272466084,-0.7018933892250061,0.7119954228401184,0.02019326761364937,0,0,0,-1,-1,17521.93113075,unknown,2,2025-04-21T14:54:11.259+03:00,2025-04-20T21:57:49.637+03:00,6589,0.9558782,0,0,5416.758,5,6,2025-04-21T14:54:16.418+03:00,766929287.4628325,0,-45.8,100.2816,1,0.45,2025-04-21T14:52:54.481+03:00,95,1.583333333333333,2025-04-21T12:30:07.995+03:00,0.02023345852159405,0
2025-04-21T14:54:47.672+03:00,1745236486.436669,40.95228068713659,29.14029842710894,76.51794,-1,-1,-1,-1,30,25.18208350132768,-9999,17532.27861354167,-0.70367431640625,0.7161712646484375,0.037322998046875,17532.27107354167,2.101754958413681,-1.602157768912938,-0.7910839850865196,-0.2344933301210403,-0.03908225893974304,-0.1124267652630806,-0.01733332872390747,-0.002772510051727295,0.02838432602584362,XArbitraryZVertical,0.4418776711352769,-0.561931519907643,0.6948011225811127,0.07891945383801433,-0.7027288675308228,0.711115837097168,0.02204581908881664,0,0,0,-1,-1,17521.93113075,unknown,2,2025-04-21T14:54:11.259+03:00,2025-04-20T21:57:49.637+03:00,6589,0.9558782,0,0,5416.758,5,6,2025-04-21T14:54:16.418+03:00,766929287.4628325,0,-45.8,100.2816,1,0.45,2025-04-21T14:52:54.481+03:00,95,1.583333333333333,2025-04-21T12:30:07.995+03:00,0.02023345852159405,0
2025-04-21T14:54:47.683+03:00,1745236486.436669,40.95228068713659,29.14029842710894,76.51794,-1,-1,-1,-1,30,25.18208350132768,-9999,17532.28868954167,-0.69903564453125,0.7215118408203125,0.0347137451171875,17532.28114954167,2.098300830675504,-1.605058453224282,-0.7898332772368595,-0.254340261220932,-0.04834872856736183,-0.1149049699306488,-0.004365801811218262,0.001784801483154297,0.01525294780731201,XArbitraryZVertical,0.4422634700825353,-0.5625480508467396,0.6939619208749498,0.07974650989976474,-0.7035505175590515,0.7102358937263489,0.0241145733743906,0,0,0,-1,-1,17521.93113075,unknown,2,2025-04-21T14:54:11.259+03:00,2025-04-20T21:57:49.637+03:00,6589,0.9558782,0,0,5416.758,5,6,2025-04-21T14:54:16.418+03:00,766929287.4628325,0,-45.8,100.2816,1,0.45,2025-04-21T14:52:54.481+03:00,95,1.583333333333333,2025-04-21T12:30:07.995+03:00,0.02023345852159405,0
2025-04-21T14:54:47.693+03:00,1745236486.436669,40.95228068713659,29.14029842710894,76.51794,-1,-1,-1,-1,30,25.18208350132768,-9999,17532.29876554167,-0.6963653564453125,0.718109130859375,0.03680419921875,17532.29122554167,2.094656078890914,-1.608108995403034,-0.788668550306771,-0.2592394053936005,-0.06360464543104172,-0.1108084991574287,0.004424929618835449,0.01154685020446777,0.008849382400512695,XArbitraryZVertical,0.4426214069058799,-0.5632335615256225,0.6930826255864331,0.08056465609859474,-0.7042998671531677,0.7094154953956604,0.0262915100902319,0,0,0,-1,-1,17521.93113075,unknown,2,2025-04-21T14:54:11.259+03:00,2025-04-20T21:57:49.637+03:00,6589,0.9558782,0,0,5416.758,5,6,2025-04-21T14:54:16.418+03:00,766929287.4628325,0,-45.8,100.2816,1,0.45,2025-04-21T14:52:54.481+03:00,95,1.583333333333333,2025-04-21T12:30:07.995+03:00,0.02023345852159405,0
2025-04-21T14:54:47.703+03:00,1745236486.436669,40.95228068713659,29.14029842710894,76.51794,-1,-1,-1,-1,30,25.18208350132768,-9999,17532.30884154167,-0.696807861328125,0.714202880859375,0.034210205078125,17532.30130154167,2.091114797544676,-1.611268535565356,-0.7873876473265032,-0.2528793811798096,-0.06707993894815445,-0.117800161242485,0.008312821388244629,0.01116853952407837,0.00757933035492897,XArbitraryZVertical,0.4430763589716129,-0.5638794492167324,0.6921738744793249,0.08135515051960367,-0.7051207423210144,0.7085121870040894,0.02855338715016842,0,0,0,-1,-1,17521.93113075,unknown,2,2025-04-21T14:54:11.259+03:00,2025-04-20T21:57:49.637+03:00,6589,0.9558782,0,0,5416.758,5,6,2025-04-21T14:54:16.418+03:00,766929287.4628325,0,-45.8,100.2816,1,0.45,2025-04-21T14:52:54.481+03:00,95,1.583333333333333,2025-04-21T12:30:07.995+03:00,0.02023345852159405,0
2025-04-21T14:54:47.713+03:00,1745236486.436669,40.95228068713659,29.14029842710894,76.51794,-1,-1,-1,-1,30,25.18208350132768,-9999,17532.31891754167,-0.6920928955078125,0.7178802490234375,0.0282440185546875,17532.31137754167,2.087481835682661,-1.614540407610573,-0.7860995493141711,-0.2653717398643494,-0.07206590473651886,-0.1157745569944382,0.009340345859527588,0.00788193941116333,0.006880525499582291,XArbitraryZVertical,0.4435439190874808,-0.564551927587754,0.6912322126632209,0.08214563546881429,-0.7059346437454224,0.7076025605201721,0.03090017475187778,0,0,0,-1,-1,17521.93113075,unknown,2,2025-04-21T14:54:11.259+03:00,2025-04-20T21:57:49.637+03:00,6589,0.9558782,0,0,5416.758,5,6,2025-04-21T14:54:16.418+03:00,766929287.4628325,0,-45.8,100.2816,1,0.45,2025-04-21T14:52:54.481+03:00,95,1.583333333333333,2025-04-21T12:30:07.995+03:00,0.02023345852159405,0
2025-04-21T14:54:47.723+03:00,1745236486.436669,40.95228068713659,29.14029842710894,76.51794,-1,-1,-1,-1,30,25.18208350132768,-9999,17532.32899354167,-0.686553955078125,0.725341796875,0.02984619140625,17532.32145354167,2.083750598073914,-1.618056527751986,-0.7849365734630974,-0.2554005980491638,-0.06683199852705002,-0.1016583442687988,0.01209348440170288,0.009024560451507568,-0.004948258399963379,XArbitraryZVertical,0.4440303408134895,-0.5652853669052528,0.6902351934234627,0.08285401905229497,-0.7066430449485779,0.7067803144454956,0.03342097997665405,0,0,0,-1,-1,17521.93113075,unknown,2,2025-04-21T14:54:11.259+03:00,2025-04-20T21:57:49.637+03:00,6589,0.9558782,0,0,5416.758,5,6,2025-04-21T14:54:16.418+03:00,766929287.4628325,0,-45.8,100.2816,1,0.45,2025-04-21T14:52:54.481+03:00,95,1.583333333333333,2025-04-21T12:30:07.995+03:00,0.02023345852159405,0
2025-04-21T14:54:47.733+03:00,1745236486.436669,40.95228068713659,29.14029842710894,76.51794,-1,-1,-1,-1,30,25.18208350132768,-9999,17532.33906954167,-0.6936492919921875,0.72943115234375,0.0447998046875,17532.33152954167,2.080094778985305,-1.621709476193035,-0.7835083980280697,-0.2123876214027405,-0.1245269849896431,-0.1555295586585999,0.0192912220954895,0.01774126291275024,-0.006649855524301529,XArbitraryZVertical,0.4446566964182537,-0.5659568251081111,0.6891922911906226,0.0835891027404229,-0.7075235843658447,0.7057692408561707,0.03605341166257858,0,0,0,-1,-1,17521.93113075,unknown,2,2025-04-21T14:54:11.259+03:00,2025-04-20T21:57:49.637+03:00,6589,0.9558782,0,0,5416.758,5,6,2025-04-21T14:54:16.418+03:00,766929287.4628325,0,-45.8,100.2816,1,0.45,2025-04-21T14:52:54.481+03:00,95,1.583333333333333,2025-04-21T12:30:07.995+03:00,0.02023345852159405,0
2025-04-21T14:54:47.743+03:00,1745236486.436669,40.95228068713659,29.14029842710894,76.51794,-1,-1,-1,-1,30,25.18208350132768,-9999,17532.34914654167,-0.7084808349609375,0.7196807861328125,0.07904052734375,17532.34160554167,2.077019696203316,-1.625214737964347,-0.7816886348961092,-0.218793585896492,-0.1003955453634262,-0.1812924444675446,0.02030426263809204,0.02478420734405518,-0.003157023340463638,XArbitraryZVertical,0.4455036354264527,-0.5664168281483253,0.6881797088249229,0.08430261890367727,-0.7086739540100098,0.7044788599014282,0.03860302641987801,0,0,0,-1,-1,17521.93113075,unknown,2,2025-04-21T14:54:11.259+03:00,2025-04-20T21:57:49.637+03:00,6589,0.9558782,0,0,5416.758,5,6,2025-04-21T14:54:16.418+03:00,766929287.4628325,0,-45.8,100.2816,1,0.45,2025-04-21T14:52:54.481+03:00,95,1.583333333333333,2025-04-21T12:30:07.995+03:00,0.02023345852159405,0
2025-04-21T14:54:47.753+03:00,1745236486.436669,40.95228068713659,29.14029842710894,76.51794,-1,-1,-1,-1,30,25.18208350132768,-9999,17532.35922254167,-0.709197998046875,0.7244110107421875,0.1013031005859375,17532.35168254167,2.073611534590707,-1.628581441142006,-0.77962676470688,-0.270290344953537,-0.07480310648679733,-0.19627645611763,0.005108952522277832,0.02005398273468018,0.02460121735930443,XArbitraryZVertical,0.4462739463375878,-0.5669001819813323,0.6871646636245351,0.08525426382768657,-0.7099887132644653,0.7030140161514282,0.04107250273227692,0,0,0,-1,-1,17521.93113075,unknown,2,2025-04-21T14:54:11.259+03:00,2025-04-20T21:57:49.637+03:00,6589,0.9558782,0,0,5416.758,5,6,2025-04-21T14:54:16.418+03:00,766929287.4628325,0,-45.8,100.2816,1,0.45,2025-04-21T14:52:54.481+03:00,95,1.583333333333333,2025-04-21T12:30:07.995+03:00,0.02023345852159405,0
2025-04-21T14:54:47.763+03:00,1745236486.436669,40.95228068713659,29.14029842710894,76.51794,-1,-1,-1,-1,30,25.18208350132768,-9999,17532.36929854167,-0.71099853515625,0.724334716796875,0.0961456298828125,17532.36175854167,2.069740505059119,-1.631912846071156,-0.777446345695754,-0.2994198501110077,-0.05027925223112106,-0.2181336134672165,0.001674771308898926,0.01957690715789795,0.05310272797942162,XArbitraryZVertical,0.4469315930524166,-0.5674660146975924,0.6861244761429169,0.0864147272918934,-0.7113762497901917,0.7014616727828979,0.04353105276823044,0,0,0,-1,-1,17521.93113075,unknown,2,2025-04-21T14:54:11.259+03:00,2025-04-20T21:57:49.637+03:00,6589,0.9558782,0,0,5416.758,5,6,2025-04-21T14:54:16.418+03:00,766929287.4628325,0,-45.8,100.2816,1,0.45,2025-04-21T14:52:54.481+03:00,95,1.583333333333333,2025-04-21T12:30:07.995+03:00,0.02023345852159405,0
2025-04-21T14:54:47.773+03:00,1745236486.436669,40.95228068713659,29.14029842710894,76.51794,-1,-1,-1,-1,30,25.18208350132768,-9999,17532.37937454167,-0.709503173828125,0.71771240234375,0.084747314453125,17532.37183454167,2.065748494849177,-1.635015385972325,-0.775304615016174,-0.3106267154216766,-0.02006302773952484,-0.2296254187822342,0.002286314964294434,0.02635401487350464,0.05479741096496582,XArbitraryZVertical,0.4474628529304197,-0.5680617144364651,0.6851259804583051,0.08766539094784949,-0.7127355337142944,0.699933648109436,0.04583423212170601,0,0,0,-1,-1,17521.93113075,unknown,2,2025-04-21T14:54:11.259+03:00,2025-04-20T21:57:49.637+03:00,6589,0.9558782,0,0,5416.758,5,6,2025-04-21T14:54:16.418+03:00,766929287.4628325,0,-45.8,100.2816,1,0.45,2025-04-21T14:52:54.481+03:00,95,1.583333333333333,2025-04-21T12:30:07.995+03:00,0.02023345852159405,0
2025-04-21T14:54:47.783+03:00,1745236486.436669,40.95228068713659,29.14029842710894,76.51794,-1,-1,-1,-1,30,25.18208350132768,-9999,17532.38945054167,-0.712158203125,0.7188568115234375,0.084197998046875,17532.38191054167,2.061513371731853,-1.637981808471185,-0.7726928272822811,-0.320276141166687,0.01605502888560295,-0.2467757761478424,0.003648281097412109,0.02169102430343628,0.04043006896972656,XArbitraryZVertical,0.4480078141208702,-0.5686162412870512,0.6841106428061834,0.089202599122159,-0.7144179344177246,0.6980659365653992,0.04807086288928986,0,0,0,-1,-1,17521.93113075,unknown,2,2025-04-21T14:54:11.259+03:00,2025-04-20T21:57:49.637+03:00,6589,0.9558782,0,0,5416.758,5,6,2025-04-21T14:54:16.418+03:00,766929287.4628325,0,-45.8,100.2816,1,0.45,2025-04-21T14:52:54.481+03:00,95,1.583333333333333,2025-04-21T12:30:07.995+03:00,0.02023345852159405,0
2025-04-21T14:54:47.793+03:00,1745236486.436669,40.95228068713659,29.14029842710894,76.51794,-1,-1,-1,-1,30,25.18208350132768,-9999,17532.39952654167,-0.71661376953125,0.7152099609375,0.090545654296875,17532.39198654167,2.057440150389199,-1.64057826895855,-0.7698970089627023,-0.2983399331569672,0.02771221846342087,-0.2632008194923401,0.005816042423248291,0.02183401584625244,0.03264092653989792,XArbitraryZVertical,0.4485215616256262,-0.5690862632385744,0.6831653201217985,0.09085260197779835,-0.7162346839904785,0.6960613131523132,0.05006153136491776,0,0,0,-1,-1,17521.93113075,unknown,2,2025-04-21T14:54:11.259+03:00,2025-04-20T21:57:49.637+03:00,6589,0.9558782,0,0,5416.758,5,6,2025-04-21T14:54:16.418+03:00,766929287.4628325,0,-45.8,100.2816,1,0.45,2025-04-21T14:52:54.481+03:00,95,1.583333333333333,2025-04-21T12:30:07.995+03:00,0.02023345852159405,0
2025-04-21T14:54:47.804+03:00,1745236486.436669,40.95228068713659,29.14029842710894,76.51794,-1,-1,-1,-1,30,25.18208350132768,-9999,17532.40960254167,-0.7271270751953125,0.711883544921875,0.0981597900390625,17532.40206254167,2.053871838042249,-1.642726094731274,-0.7669757153263955,-0.2485793083906174,0.03654592484235764,-0.2745508253574371,0.003108680248260498,0.02428537607192993,0.03580915555357933,XArbitraryZVertical,0.4490590102931425,-0.5694021872880973,0.6823274199479424,0.09250071444009178,-0.718150794506073,0.6939609050750732,0.0517456904053688,0,0,0,-1,-1,17521.93113075,unknown,2,2025-04-21T14:54:11.259+03:00,2025-04-20T21:57:49.637+03:00,6589,0.9558782,0,0,5416.758,5,6,2025-04-21T14:54:16.418+03:00,766929287.4628325,0,-45.8,100.2816,1,0.45,2025-04-21T14:52:54.481+03:00,95,1.583333333333333,2025-04-21T12:30:07.995+03:00,0.02023345852159405,0
2025-04-21T14:54:47.814+03:00,1745236486.436669,40.95228068713659,29.14029842710894,76.51794,-1,-1,-1,-1,30,25.18208350132768,-9999,17532.41967854167,-0.7440338134765625,0.712982177734375,0.10406494140625,17532.41213854167,2.051234314989241,-1.644033395349336,-0.7640215968512077,-0.1671736687421799,0.06330696493387222,-0.2807171046733856,-0.001494765281677246,0.01999145746231079,0.04199898242950439,XArbitraryZVertical,0.4495827468232796,-0.56946684169311,0.6817122616978114,0.09408078200301082,-0.7201238870620728,0.6918308734893799,0.05283426120877266,0,0,0,-1,-1,17521.93113075,unknown,2,2025-04-21T14:54:11.259+03:00,2025-04-20T21:57:49.637+03:00,6589,0.9558782,0,0,5416.758,5,6,2025-04-21T14:54:16.418+03:00,766929287.4628325,0,-45.8,100.2816,1,0.45,2025-04-21T14:52:54.481+03:00,95,1.583333333333333,2025-04-21T12:30:07.995+03:00,0.02023345852159405,0
2025-04-21T14:54:47.823+03:00,1745236486.436669,40.95228068713659,29.14029842710894,76.51794,-1,-1,-1,-1,30,25.18208350132768,-9999,17532.42975454167,-0.756317138671875,0.7108001708984375,0.103485107421875,17532.42221454167,2.049771347013956,-1.644149564631604,-0.761016536951475,-0.09722016006708145,0.1110758185386658,-0.2971525192260742,-0.01601701974868774,0.02312576770782471,0.04966723918914795,XArbitraryZVertical,0.4500485828945733,-0.5692023312629194,0.6814119831127333,0.09561708482470337,-0.7221879363059998,0.6896579265594482,0.05307004228234291,0,0,0,-1,-1,17521.93113075,unknown,2,2025-04-21T14:54:11.259+03:00,2025-04-20T21:57:49.637+03:00,6589,0.9558782,0,0,5416.758,5,6,2025-04-21T14:54:16.418+03:00,766929287.4628325,0,-45.8,100.2816,1,0.45,2025-04-21T14:52:54.481+03:00,95,1.583333333333333,2025-04-21T12:30:07.995+03:00,0.02023345852159405,0
2025-04-21T14:54:47.834+03:00,1745236486.436669,40.95228068713659,29.14029842710894,76.51794,-1,-1,-1,-1,30,25.18208350132768,-9999,17532.43983154167,-0.7599639892578125,0.7046051025390625,0.095855712890625,17532.43229054167,2.049027359565084,-1.643299211566585,-0.7578735558687811,-0.0640086755156517,0.1565732657909393,-0.3112390637397766,-0.02832496166229248,0.02375710010528564,0.051803108304739,XArbitraryZVertical,0.4504279218433218,-0.5687011687837756,0.6813512565739904,0.097231923536308,-0.7243911027908325,0.6873785853385925,0.05261266604065895,0,0,0,-1,-1,17521.93113075,unknown,2,2025-04-21T14:54:11.259+03:00,2025-04-20T21:57:49.637+03:00,6589,0.9558782,0,0,5416.758,5,6,2025-04-21T14:54:16.418+03:00,766929287.4628325,0,-45.8,100.2816,1,0.45,2025-04-21T14:52:54.481+03:00,95,1.583333333333333,2025-04-21T12:30:07.995+03:00,0.02023345852159405,0
2025-04-21T14:54:47.844+03:00,1745236486.436669,40.95228068713659,29.14029842710894,76.51794,-1,-1,-1,-1,30,25.18208350132768,-9999,17532.44990754167,-0.75384521484375,0.692596435546875,0.0847320556640625,17532.44236754167,2.04860717563354,-1.641790875637789,-0.7547173999750788,-0.04291617497801781,0.1939363330602646,-0.3041234910488129,-0.03301358222961426,0.02261966466903687,0.0482865571975708,XArbitraryZVertical,0.4506781904311369,-0.5680897596298203,0.6814517536563385,0.09892723457860335,-0.7266299724578857,0.6850828528404236,0.05167361348867416,0,0,0,-1,-1,17521.93113075,unknown,2,2025-04-21T14:54:11.259+03:00,2025-04-20T21:57:49.637+03:00,6589,0.9558782,0,0,5416.758,5,6,2025-04-21T14:54:16.418+03:00,766929287.4628325,0,-45.8,100.2816,1,0.45,2025-04-21T14:52:54.481+03:00,95,1.583333333333333,2025-04-21T12:30:07.995+03:00,0.02023345852159405,0
2025-04-21T14:54:47.854+03:00,1745236486.436669,40.95228068713659,29.14029842710894,76.51794,-1,-1,-1,-1,30,25.18208350132768,-9999,17532.45998354167,-0.7438812255859375,0.683746337890625,0.071441650390625,17532.45244354167,2.048575401968989,-1.639727188342942,-0.751697483564578,-0.009262606501579285,0.2146152555942535,-0.2912535071372986,-0.02837592363357544,0.01469075679779053,0.03803204745054245,XArbitraryZVertical,0.4508105395467298,-0.5673869689364582,0.6817050425701158,0.1005980345025582,-0.7287956476211548,0.6828798055648804,0.0503162294626236,0,0,0,-1,-1,17521.93113075,unknown,2,2025-04-21T14:54:11.259+03:00,2025-04-20T21:57:49.637+03:00,6589,0.9558782,0,0,5416.758,5,6,2025-04-21T14:54:16.418+03:00,766929287.4628325,0,-45.8,100.2816,1,0.45,2025-04-21T14:52:54.481+03:00,95,1.583333333333333,2025-04-21T12:30:07.995+03:00,0.02023345852159405,0
2025-04-21T14:54:47.864+03:00,1745236486.436669,40.95228068713659,29.14029842710894,76.51794,-1,-1,-1,-1,30,25.18208350132768,-9999,17532.47005954167,-0.7385406494140625,0.6826171875,0.065582275390625,17532.46251954167,2.048763739716362,-1.637297987382842,-0.7487860045301477,-0.004901346750557423,0.2399941831827164,-0.2817995250225067,-0.01698243618011475,0.004903554916381836,0.02778410911560059,XArbitraryZVertical,0.4508492223789672,-0.5666337329683964,0.6820590628689939,0.1022574180513133,-0.7308965921401978,0.6807500123977661,0.04867761582136154,0,0,0,-1,-1,17521.93113075,unknown,2,2025-04-21T14:54:11.259+03:00,2025-04-20T21:57:49.637+03:00,6589,0.9558782,0,0,5416.758,5,6,2025-04-21T14:54:16.418+03:00,766929287.4628325,0,-45.8,100.2816,1,0.45,2025-04-21T14:52:54.481+03:00,95,1.583333333333333,2025-04-21T12:30:07.995+03:00,0.02023345852159405,0
2025-04-21T14:54:47.874+03:00,1745236486.436669,40.95228068713659,29.14029842710894,76.51794,-1,-1,-1,-1,30,25.18208350132768,-9999,17532.48013554167,-0.7349395751953125,0.6826171875,0.0576019287109375,17532.47259554167,2.049131346255235,-1.634574995183602,-0.7460453212431012,0.02719213999807835,0.2419486790895462,-0.2580433189868927,-0.006494343280792236,0.003465175628662109,0.01989006996154785,XArbitraryZVertical,0.4507895080227495,-0.5658549213261754,0.6825003169368722,0.1038760682281426,-0.7328855395317078,0.6787398457527161,0.04680594429373741,0,0,0,-1,-1,17521.93113075,unknown,2,2025-04-21T14:54:11.259+03:00,2025-04-20T21:57:49.637+03:00,6589,0.9558782,0,0,5416.758,5,6,2025-04-21T14:54:16.418+03:00,766929287.4628325,0,-45.8,100.2816,1,0.45,2025-04-21T14:52:54.481+03:00,95,1.583333333333333,2025-04-21T12:30:07.995+03:00,0.02023345852159405,0
2025-04-21T14:54:47.884+03:00,1745236486.436669,40.95228068713659,29.14029842710894,76.51794,-1,-1,-1,-1,30,25.18208350132768,-9999,17532.49021154167,-0.730987548828125,0.67816162109375,0.042449951171875,17532.48267154167,2.049852763296869,-1.631679853919925,-0.7435582471035722,0.03638996556401253,0.2338532656431198,-0.2414315491914749,-0.002329230308532715,0.005614221096038818,0.01684356108307838,XArbitraryZVertical,0.4506987615188616,-0.5650344171466715,0.683016987076853,0.1053307967737056,-0.7347008585929871,0.6769112944602966,0.04478653147816658,0,0,0,-1,-1,17521.93113075,unknown,2,2025-04-21T14:54:11.259+03:00,2025-04-20T21:57:49.637+03:00,6589,0.9558782,0,0,5416.758,5,6,2025-04-21T14:54:16.418+03:00,766929287.4628325,0,-45.8,100.2816,1,0.45,2025-04-21T14:52:54.481+03:00,95,1.583333333333333,2025-04-21T12:30:07.995+03:00,0.02023345852159405,0
2025-04-21T14:54:47.894+03:00,1745236486.436669,40.95228068713659,29.14029842710894,76.51794,-1,-1,-1,-1,30,25.18208350132768,-9999,17532.50028754167,-0.733917236328125,0.662445068359375,0.030059814453125,17532.49274754167,2.050564569853883,-1.62873419907356,-0.7412525083860881,0.03951198980212212,0.2564834654331207,-0.2095330059528351,0.004101037979125977,0.005817770957946777,0.004955887794494629,XArbitraryZVertical,0.4505359499561553,-0.5642460165993376,0.6835576553469609,0.1067362635047132,-0.7363856434822083,0.6752123236656189,0.04271242022514343,0,0,0,-1,-1,17521.93113075,unknown,2,2025-04-21T14:54:11.259+03:00,2025-04-20T21:57:49.637+03:00,6589,0.9558782,0,0,5416.758,5,6,2025-04-21T14:54:16.418+03:00,766929287.4628325,0,-45.8,100.2816,1,0.45,2025-04-21T14:52:54.481+03:00,95,1.583333333333333,2025-04-21T12:30:07.995+03:00,0.02023345852159405,0
2025-04-21T14:54:47.913+03:00,1745236486.436669,40.95228068713659,29.14029842710894,76.51794,-1,-1,-1,-1,30,25.18208350132768,-9999,17532.51036354167,-0.7249603271484375,0.6479034423828125,-0.0066986083984375,17532.50282354167,2.051480017257676,-1.625434735712176,-0.739489332161906,0.07456717640161514,0.2666983008384705,-0.1412664651870728,0.004403114318847656,-0.004477322101593018,-0.00476408377289772,XArbitraryZVertical,0.4501568390048474,-0.5635002653565159,0.6842272242872443,0.1079776256801301,-0.7377099990844727,0.6739107370376587,0.04034745693206787,0,0,0,-1,-1,17521.93113075,unknown,2,2025-04-21T14:54:11.259+03:00,2025-04-20T21:57:49.637+03:00,6589,0.9558782,0,0,5416.758,5,6,2025-04-21T14:54:16.418+03:00,766929287.4628325,0,-45.8,100.2816,1,0.45,2025-04-21T14:52:54.481+03:00,95,1.583333333333333,2025-04-21T12:30:07.995+03:00,0.02023345852159405,0
2025-04-21T14:54:47.916+03:00,1745236486.436669,40.95228068713659,29.14029842710894,76.51794,-1,-1,-1,-1,30,25.18208350132768,-9999,17532.52043954167,-0.70648193359375,0.6392669677734375,-0.067962646484375,17532.51289954167,2.05310024546776,-1.62180927964099,-0.7384316790135196,0.1482110321521759,0.2298574596643448,-0.07624007016420364,0.007651805877685547,-0.02078527212142944,-0.02484595403075218,XArbitraryZVertical,0.4496662256623228,-0.562720878247835,0.685057755976507,0.108818131635404,-0.7385631203651428,0.6731289029121399,0.03770900145173073,0,0,0,-1,-1,17521.93113075,unknown,2,2025-04-21T14:54:11.259+03:00,2025-04-20T21:57:49.637+03:00,6589,0.9558782,0,0,5416.758,5,6,2025-04-21T14:54:16.418+03:00,766929287.4628325,0,-45.8,100.2816,1,0.45,2025-04-21T14:52:54.481+03:00,95,1.583333333333333,2025-04-21T12:30:07.995+03:00,0.02023345852159405,0
2025-04-21T14:54:47.924+03:00,1745236486.436669,40.95228068713659,29.14029842710894,76.51794,-1,-1,-1,-1,30,25.18208350132768,-9999,17532.53051654167,-0.698211669921875,0.620941162109375,-0.0831451416015625,17532.52297554167,2.055755975754559,-1.617918057503116,-0.7380752099380922,0.2415811419487,0.1821639090776443,-0.006568609736859798,0.02644991874694824,-0.02900558710098267,-0.08170604705810547,XArbitraryZVertical,0.4491782038876385,-0.5618380498530411,0.6860525017286123,0.1091276602256848,-0.7389438152313232,0.6728652715682983,0.03484610468149185,0,0,0,-1,-1,17521.93113075,unknown,2,2025-04-21T14:54:11.259+03:00,2025-04-20T21:57:49.637+03:00,6589,0.9558782,0,0,5416.758,5,6,2025-04-21T14:54:16.418+03:00,766929287.4628325,0,-45.8,100.2816,1,0.45,2025-04-21T14:52:54.481+03:00,95,1.583333333333333,2025-04-21T12:30:07.995+03:00,0.02023345852159405,0
2025-04-21T14:54:47.935+03:00,1745236486.436669,40.95228068713659,29.14029842710894,76.51794,-1,-1,-1,-1,30,25.18208350132768,-9999,17532.54059254167,-0.7049560546875,0.62396240234375,-0.06207275390625,17532.53305254167,2.059810392054302,-1.613601324445331,-0.7385399162994738,0.3423692584037781,0.1363759189844131,0.07420054078102112,0.03882366418838501,-0.04566091299057007,-0.1151082515716553,XArbitraryZVertical,0.4487048790709492,-0.560789821421259,0.6872735128166717,0.1087830980077725,-0.738774836063385,0.6732089519500732,0.03164258599281311,0,0,0,-1,-1,17521.93113075,unknown,2,2025-04-21T14:54:11.259+03:00,2025-04-20T21:57:49.637+03:00,6589,0.9558782,0,0,5416.758,5,6,2025-04-21T14:54:16.418+03:00,766929287.4628325,0,-45.8,100.2816,1,0.45,2025-04-21T14:52:54.481+03:00,95,1.583333333333333,2025-04-21T12:30:07.995+03:00,0.02023345852159405,0
2025-04-21T14:54:47.945+03:00,1745236486.436669,40.95228068713659,29.14029842710894,76.51794,-1,-1,-1,-1,30,25.18208350132768,-9999,17532.55066854167,-0.7184600830078125,0.646697998046875,-0.0385284423828125,17532.54312854167,2.064283227956929,-1.609359091545129,-0.7396822241964237,0.3062694668769836,0.1176532283425331,0.1331928223371506,0.03711432218551636,-0.0549585223197937,-0.09978306293487549,XArbitraryZVertical,0.4481815370036296,-0.5597969329365693,0.6885420847157646,0.1080302023857683,-0.7381336688995361,0.6740531921386719,0.02847859263420105,0,0,0,-1,-1,17521.93113075,unknown,2,2025-04-21T14:54:11.259+03:00,2025-04-20T21:57:49.637+03:00,6589,0.9558782,0,0,5416.758,5,6,2025-04-21T14:54:16.418+03:00,766929287.4628325,0,-45.8,100.2816,1,0.45,2025-04-21T14:52:54.481+03:00,95,1.583333333333333,2025-04-21T12:30:07.995+03:00,0.02023345852159405,0
2025-04-21T14:54:47.955+03:00,1745236486.436669,40.95228068713659,29.14029842710894,76.51794,-1,-1,-1,-1,30,25.18208350132768,-9999,17532.56074454167,-0.7240142822265625,0.6573486328125,-0.01800537109375,17532.55320454167,2.067959225422555,-1.605948079270429,-0.741369889929253,0.2821707725524902,0.0607670396566391,0.181840255856514,0.02352643013000488,-0.03755801916122437,-0.07346713542938232,XArbitraryZVertical,0.4475662220515073,-0.5591464836334463,0.6896117135445018,0.1071227288918929,-0.7370884418487549,0.6752988696098328,0.02592062577605247,0,0,0,-1,-1,17521.93113075,unknown,2,2025-04-21T14:54:11.259+03:00,2025-04-20T21:57:49.637+03:00,6589,0.9558782,0,0,5416.758,5,6,2025-04-21T14:54:16.418+03:00,766929287.4628325,0,-45.8,100.2816,1,0.45,2025-04-21T14:52:54.481+03:00,95,1.583333333333333,2025-04-21T12:30:07.995+03:00,0.02023345852159405,0
2025-04-21T14:54:47.965+03:00,1745236486.436669,40.95228068713659,29.14029842710894,76.51794,-1,-1,-1,-1,30,25.18208350132768,-9999,17532.57082054167,-0.7205352783203125,0.6361846923828125,0.003997802734375,17532.56328054167,2.071182016547119,-1.603119989947615,-0.7436766873245273,0.2219922542572021,0.02100271545350552,0.2292178124189377,0.01215022802352905,-0.0188412070274353,-0.04897796735167503,XArbitraryZVertical,0.4468508879384841,-0.5587638761946647,0.6905604224788556,0.1059883435336389,-0.7355999946594238,0.6769984364509583,0.02378557063639164,0,0,0,-1,-1,17521.93113075,unknown,2,2025-04-21T14:54:11.259+03:00,2025-04-20T21:57:49.637+03:00,6589,0.9558782,0,0,5416.758,5,6,2025-04-21T14:54:16.418+03:00,766929287.4628325,0,-45.8,100.2816,1,0.45,2025-04-21T14:52:54.481+03:00,95,1.583333333333333,2025-04-21T12:30:07.995+03:00,0.02023345852159405,0
2025-04-21T14:54:47.975+03:00,1745236486.436669,40.95228068713659,29.14029842710894,76.51794,-1,-1,-1,-1,30,25.18208350132768,-9999,17532.58089654167,-0.73052978515625,0.628143310546875,0.02813720703125,17532.57335654167,2.073552845042356,-1.601281366994161,-0.7462830625220183,0.1221753731369972,0.02269994840025902,0.2878720760345459,0.01276111602783203,-0.03447484970092773,-0.02918469719588757,XArbitraryZVertical,0.4461545921579601,-0.5586910333823362,0.6912559389500638,0.1047647782752046,-0.7338762879371643,0.6789144277572632,0.02237918227910995,0,0,0,-1,-1,17521.93113075,unknown,2,2025-04-21T14:54:11.259+03:00,2025-04-20T21:57:49.637+03:00,6589,0.9558782,0,0,5416.758,5,6,2025-04-21T14:54:16.418+03:00,766929287.4628325,0,-45.8,100.2816,1,0.45,2025-04-21T14:52:54.481+03:00,95,1.583333333333333,2025-04-21T12:30:07.995+03:00,0.02023345852159405,0
2025-04-21T14:54:47.985+03:00,1745236486.436669,40.95228068713659,29.14029842710894,76.51794,-1,-1,-1,-1,30,25.18208350132768,-9999,17532.59097254167,-0.7303466796875,0.6439361572265625,0.0257568359375,17532.58343254167,2.074244730005797,-1.600335253948165,-0.7495622836328378,0.01037794072180986,0.04011669009923935,0.3426701724529266,0.004815340042114258,-0.05317521095275879,0.0001552123576402664,XArbitraryZVertical,0.4451099571200128,-0.5591838796917803,0.6917010434112656,0.1036347559371346,-0.7316678166389465,0.6813184022903442,0.02161896973848343,0,0,0,-1,-1,17521.93113075,unknown,2,2025-04-21T14:54:11.259+03:00,2025-04-20T21:57:49.637+03:00,6589,0.9558782,0,0,5416.758,5,6,2025-04-21T14:54:16.418+03:00,766929287.4628325,0,-45.8,100.2816,1,0.45,2025-04-21T14:52:54.481+03:00,95,1.583333333333333,2025-04-21T12:30:07.995+03:00,0.02023345852159405,0
2025-04-21T14:54:47.995+03:00,1745236486.436669,40.95228068713659,29.14029842710894,76.51794,-1,-1,-1,-1,30,25.18208350132768,-9999,17532.60104854167,-0.735443115234375,0.658966064453125,-0.0015411376953125,17532.59350854167,2.07455254111406,-1.599834843130503,-0.7529528518530149,0.05220900848507881,0.02189454063773155,0.3333927989006042,-0.001424014568328857,-0.0477338433265686,0.008217932656407356,XArbitraryZVertical,0.4440799726327839,-0.5598087156724671,0.6920305573163629,0.102473795941759,-0.7293652892112732,0.6837963461875916,0.02118564024567604,0,0,0,-1,-1,17521.93113075,unknown,2,2025-04-21T14:54:11.259+03:00,2025-04-20T21:57:49.637+03:00,6589,0.9558782,0,0,5416.758,5,6,2025-04-21T14:54:16.418+03:00,766929287.4628325,0,-45.8,100.2816,1,0.45,2025-04-21T14:52:54.481+03:00,95,1.583333333333333,2025-04-21T12:30:07.995+03:00,0.02023345852159405,0
2025-04-21T14:54:48.005+03:00,1745236486.436669,40.95228068713659,29.14029842710894,76.51794,-1,-1,-1,-1,30,25.18208350132768,-9999,17532.61112554167,-0.7207183837890625,0.6775665283203125,-0.01123046875,17532.60358454167,2.075211947960056,-1.599226699001958,-0.7562327802945764,0.06745260953903198,0.004076863173395395,0.3114316761493683,-0.006556272506713867,-0.03205710649490356,-0.009951472282409668,XArbitraryZVertical,0.443140855311244,-0.5603260537478409,0.692392377610614,0.1012601632221215,-0.7271321415901184,0.6861859560012817,0.0206782091408968,0,0,0,-1,-1,17521.93113075,unknown,2,2025-04-21T14:54:11.259+03:00,2025-04-20T21:57:49.637+03:00,6589,0.9558782,0,0,5416.758,5,6,2025-04-21T14:54:16.418+03:00,766929287.4628325,0,-45.8,100.2816,1,0.45,2025-04-21T14:52:54.481+03:00,95,1.583333333333333,2025-04-21T12:30:07.995+03:00,0.02023345852159405,0
2025-04-21T14:54:48.015+03:00,1745236486.436669,40.95228068713659,29.14029842710894,76.51794,-1,-1,-1,-1,30,25.18208350132768,-9999,17532.62120154167,-0.7021636962890625,0.709228515625,0.005096435546875,17532.61366154167,2.07639095216834,-1.598519369735249,-0.7590720087561298,0.1162097677588463,-0.02562137693166733,0.2470960915088654,-0.00454026460647583,-0.02000534534454346,-0.03349184989929199,XArbitraryZVertical,0.4424350032999484,-0.5606301493647056,0.6927734437301951,0.1000495561053755,-0.7251960635185242,0.6882485151290894,0.02010979317128658,0,0,0,-1,-1,17521.93113075,unknown,2,2025-04-21T14:54:11.259+03:00,2025-04-20T21:57:49.637+03:00,6589,0.9558782,0,0,5416.758,5,6,2025-04-21T14:54:16.418+03:00,766929287.4628325,0,-45.8,100.2816,1,0.45,2025-04-21T14:52:54.481+03:00,95,1.583333333333333,2025-04-21T12:30:07.995+03:00,0.02023345852159405,0
2025-04-21T14:54:48.025+03:00,1745236486.436669,40.95228068713659,29.14029842710894,76.51794,-1,-1,-1,-1,30,25.18208350132768,-9999,17532.63127754167,-0.702117919921875,0.734375,0.0171661376953125,17532.62373754167,2.078122509764357,-1.597588635327609,-0.7612579742930934,0.1452516615390778,-0.02869772724807262,0.1821306049823761,0.01695215702056885,0.008241415023803711,-0.0204168576747179,XArbitraryZVertical,0.4419883387004302,-0.5606634838735786,0.6931907554012234,0.09894012504049811,-0.7237086892127991,0.6898327469825745,0.01939446665346622,0,0,0,-1,-1,17521.93113075,unknown,2,2025-04-21T14:54:11.259+03:00,2025-04-20T21:57:49.637+03:00,6589,0.9558782,0,0,5416.758,5,6,2025-04-21T14:54:16.418+03:00,766929287.4628325,0,-45.8,100.2816,1,0.45,2025-04-21T14:52:54.481+03:00,95,1.583333333333333,2025-04-21T12:30:07.995+03:00,0.02023345852159405,0
2025-04-21T14:54:48.035+03:00,1745236486.436669,40.95228068713659,29.14029842710894,76.51794,-1,-1,-1,-1,30,25.18208350132768,-9999,17532.64135354167,-0.70599365234375,0.7469635009765625,0.03094482421875,17532.63381354167,2.080010635540993,-1.596507573473781,-0.7628166558056115,0.1265791803598404,-0.01567593589425087,0.1204608455300331,0.02085614204406738,0.03432029485702515,-0.006362318992614746,XArbitraryZVertical,0.4417080032064067,-0.5605231936844441,0.693610829729925,0.09803941869483139,-0.7226536273956299,0.6909603476524353,0.01858442090451717,0,0,0,-1,-1,17521.93113075,unknown,2,2025-04-21T14:54:11.259+03:00,2025-04-20T21:57:49.637+03:00,6589,0.9558782,0,0,5416.758,5,6,2025-04-21T14:54:16.418+03:00,766929287.4628325,0,-45.8,100.2816,1,0.45,2025-04-21T14:52:54.481+03:00,95,1.583333333333333,2025-04-21T12:30:07.995+03:00,0.02023345852159405,0
2025-04-21T14:54:48.045+03:00,1745236486.436669,40.95228068713659,29.14029842710894,76.51794,-1,-1,-1,-1,30,25.18208350132768,-9999,17532.65142954167,-0.7067718505859375,0.735931396484375,0.04302978515625,17532.64388954167,2.081387808109754,-1.595590029969663,-0.7638143852779393,0.0743691697716713,0.004810097627341747,0.07401607930660248,0.01748251914978027,0.05355781316757202,0.007883070036768913,XArbitraryZVertical,0.4414973873474091,-0.5603857421478512,0.6939365179586617,0.09746720278399543,-0.7219808101654053,0.6916812062263489,0.0179042462259531,0,0,0,-1,-1,17521.93113075,unknown,2,2025-04-21T14:54:11.259+03:00,2025-04-20T21:57:49.637+03:00,6589,0.9558782,0,0,5416.758,5,6,2025-04-21T14:54:16.418+03:00,766929287.4628325,0,-45.8,100.2816,1,0.45,2025-04-21T14:52:54.481+03:00,95,1.583333333333333,2025-04-21T12:30:07.995+03:00,0.02023345852159405,0
2025-04-21T14:54:48.055+03:00,1745236486.436669,40.95228068713659,29.14029842710894,76.51794,-1,-1,-1,-1,30,25.18208350132768,-9999,17532.66150554167,-0.699493408203125,0.7213134765625,0.04931640625,17532.65396554167,2.082118095379511,-1.595005112856418,-0.7643312165511768,0.03414185717701912,0.004563755355775356,0.02800491452217102,0.01426678895950317,0.04894280433654785,0.02193999476730824,XArbitraryZVertical,0.4413548433660862,-0.5603057630506272,0.6941299013697803,0.09719568532394735,-0.7216337919235229,0.6920543909072876,0.01747329160571098,0,0,0,-1,-1,17521.93113075,unknown,2,2025-04-21T14:54:11.259+03:00,2025-04-20T21:57:49.637+03:00,6589,0.9558782,0,0,5416.758,5,6,2025-04-21T14:54:16.418+03:00,766929287.4628325,0,-45.8,100.2816,1,0.45,2025-04-21T14:52:54.481+03:00,95,1.583333333333333,2025-04-21T12:30:07.995+03:00,0.02023345852159405,0
2025-04-21T14:54:48.065+03:00,1745236486.436669,40.95228068713659,29.14029842710894,76.51794,-1,-1,-1,-1,30,25.18208350132768,-9999,17532.67158154167,-0.693695068359375,0.709014892578125,0.0538787841796875,17532.66404154167,2.082230988761164,-1.594956909239304,-0.7643750761479368,-0.02215743251144886,-0.01070714369416237,-0.0187692828476429,0.01863187551498413,0.03485774993896484,0.03070366382598877,XArbitraryZVertical,0.4413575028368469,-0.5602878202290372,0.694148460348783,0.09715457498076402,-0.7216042876243591,0.6920860409736633,0.0174377728253603,0,0,0,-1,-1,17521.93113075,unknown,2,2025-04-21T14:54:11.259+03:00,2025-04-20T21:57:49.637+03:00,6589,0.9558782,0,0,5416.758,5,6,2025-04-21T14:54:16.418+03:00,766929287.4628325,0,-45.8,100.2816,1,0.45,2025-04-21T14:52:54.481+03:00,95,1.583333333333333,2025-04-21T12:30:07.995+03:00,0.02023345852159405,0
2025-04-21T14:54:48.075+03:00,1745236486.436669,40.95228068713659,29.14029842710894,76.51794,-1,-1,-1,-1,30,25.18208350132768,-9999,17532.68165854167,-0.6977691650390625,0.695159912109375,0.0599212646484375,17532.67411754167,2.081689846332475,-1.595490494957714,-0.7639917902748765,-0.0489719994366169,-0.02521657571196556,-0.0516103208065033,0.02735626697540283,0.02201199531555176,0.03318071365356445,XArbitraryZVertical,0.441497948184597,-0.5603518905226377,0.6939831502071471,0.09732797034648646,-0.7218601107597351,0.691809356212616,0.01782935857772827,0,0,0,-1,-1,17521.93113075,unknown,2,2025-04-21T14:54:11.259+03:00,2025-04-20T21:57:49.637+03:00,6589,0.9558782,0,0,5416.758,5,6,2025-04-21T14:54:16.418+03:00,766929287.4628325,0,-45.8,100.2816,1,0.45,2025-04-21T14:52:54.481+03:00,95,1.583333333333333,2025-04-21T12:30:07.995+03:00,0.02023345852159405,0
2025-04-21T14:54:48.086+03:00,1745236486.436669,40.95228068713659,29.14029842710894,76.51794,-1,-1,-1,-1,30,25.18208350132768,-9999,17532.69173454167,-0.704833984375,0.68914794921875,0.0581207275390625,17532.68419454167,2.081077744527671,-1.596242903615213,-0.7631463960995626,-0.04580863565206528,-0.04239070415496826,-0.07942433655261993,0.02798795700073242,0.008203029632568359,0.04041993618011475,XArbitraryZVertical,0.4418232688781166,-0.5603444282854018,0.6937399824374584,0.09762728821646867,-0.7224307656288147,0.6911986470222473,0.01838735863566399,0,0,0,-1,-1,17521.93113075,unknown,2,2025-04-21T14:54:11.259+03:00,2025-04-20T21:57:49.637+03:00,6589,0.9558782,0,0,5416.758,5,6,2025-04-21T14:54:16.418+03:00,766929287.4628325,0,-45.8,100.2816,1,0.45,2025-04-21T14:52:54.481+03:00,95,1.583333333333333,2025-04-21T12:30:07.995+03:00,0.02023345852159405,0
2025-04-21T14:54:48.096+03:00,1745236486.436669,40.95228068713659,29.14029842710894,76.51794,-1,-1,-1,-1,30,25.18208350132768,-9999,17532.70181054167,-0.7179107666015625,0.6889801025390625,0.05810546875,17532.69427054167,2.080724256954871,-1.59678443820212,-0.7620643700738482,-0.03452987968921661,-0.04257126525044441,-0.1099460273981094,0.02150768041610718,0.0004252195358276367,0.0396430492401123,XArbitraryZVertical,0.4422137242323628,-0.5602196192389591,0.6935423100412232,0.097979446488176,-0.723167896270752,0.6904162764549255,0.01879799924790859,0,0,0,-1,-1,17521.93113075,unknown,2,2025-04-21T14:54:11.259+03:00,2025-04-20T21:57:49.637+03:00,6589,0.9558782,0,0,5416.758,5,6,2025-04-21T14:54:16.418+03:00,766929287.4628325,0,-45.8,100.2816,1,0.45,2025-04-21T14:52:54.481+03:00,95,1.583333333333333,2025-04-21T12:30:07.995+03:00,0.02023345852159405,0
2025-04-21T14:54:48.106+03:00,1745236486.436669,40.95228068713659,29.14029842710894,76.51794,-1,-1,-1,-1,30,25.18208350132768,-9999,17532.71188654167,-0.7312774658203125,0.6779937744140625,0.0631256103515625,17532.70434654167,2.080475645294246,-1.597330375313848,-0.7609190373067056,-0.01786108687520027,-0.05171063542366028,-0.1313962936401367,0.01162147521972656,7.933378219604492e-05,0.03797602653503418,XArbitraryZVertical,0.442652553444607,-0.5600585698837817,0.6933447573730762,0.09831643397744294,-0.7239475846290588,0.6895872950553894,0.01921376958489418,0,0,0,-1,-1,17521.93113075,unknown,2,2025-04-21T14:54:11.259+03:00,2025-04-20T21:57:49.637+03:00,6589,0.9558782,0,0,5416.758,5,6,2025-04-21T14:54:16.418+03:00,766929287.4628325,0,-45.8,100.2816,1,0.45,2025-04-21T14:52:54.481+03:00,95,1.583333333333333,2025-04-21T12:30:07.995+03:00,0.02023345852159405,0
2025-04-21T14:54:48.116+03:00,1745236486.436669,40.95228068713659,29.14029842710894,76.51794,-1,-1,-1,-1,30,25.18208350132768,-9999,17532.72196254167,-0.7418975830078125,0.6602325439453125,0.0716552734375,17532.71442254167,2.080486579718559,-1.597905431121317,-0.7598336997409555,0.004500144626945257,-0.06763447821140289,-0.1409953832626343,-0.002275049686431885,-0.005100429058074951,0.04132366180419922,XArbitraryZVertical,0.4431572413119651,-0.5598543000452507,0.6931564572175049,0.09853427073393799,-0.7246842980384827,0.6888008713722229,0.01965035498142242,0,0,0,-1,-1,17521.93113075,unknown,2,2025-04-21T14:54:11.259+03:00,2025-04-20T21:57:49.637+03:00,6589,0.9558782,0,0,5416.758,5,6,2025-04-21T14:54:16.418+03:00,766929287.4628325,0,-45.8,100.2816,1,0.45,2025-04-21T14:52:54.481+03:00,95,1.583333333333333,2025-04-21T12:30:07.995+03:00,0.02023345852159405,0
2025-04-21T14:54:48.126+03:00,1745236486.436669,40.95228068713659,29.14029842710894,76.51794,-1,-1,-1,-1,30,25.18208350132768,-9999,17532.73203854167,-0.7497406005859375,0.6464385986328125,0.098785400390625,17532.72449854167,2.080510537732767,-1.598601231717912,-0.7587089103013147,-0.009062202647328377,-0.06555847078561783,-0.1606988906860352,-0.0124860405921936,-0.02142024040222168,0.04783225059509277,XArbitraryZVertical,0.4437182484847518,-0.559644682456388,0.6929392236107689,0.09872758325767224,-0.7254443168640137,0.6879850625991821,0.02017610892653465,0,0,0,-1,-1,17521.93113075,unknown,2,2025-04-21T14:54:11.259+03:00,2025-04-20T21:57:49.637+03:00,6589,0.9558782,0,0,5416.758,5,6,2025-04-21T14:54:16.418+03:00,766929287.4628325,0,-45.8,100.2816,1,0.45,2025-04-21T14:52:54.481+03:00,95,1.583333333333333,2025-04-21T12:30:07.995+03:00,0.02023345852159405,0
2025-04-21T14:54:48.136+03:00,1745236486.436669,40.95228068713659,29.14029842710894,76.51794,-1,-1,-1,-1,30,25.18208350132768,-9999,17532.74211454167,-0.7488250732421875,0.6476898193359375,0.178070068359375,17532.73457454167,2.07978138876609,-1.59974359741863,-0.7572399696003113,-0.08680466562509537,-0.02155213430523872,-0.2033132016658783,-0.02132678031921387,-0.03646671772003174,0.0636979341506958,XArbitraryZVertical,0.44431868738751,-0.5595515419272198,0.6925652464088009,0.09917841779145771,-0.7264302372932434,0.6869182586669922,0.02103404887020588,0,0,0,-1,-1,17521.93113075,unknown,2,2025-04-21T14:54:11.259+03:00,2025-04-20T21:57:49.637+03:00,6589,0.9558782,0,0,5416.758,5,6,2025-04-21T14:54:16.418+03:00,766929287.4628325,0,-45.8,100.2816,1,0.45,2025-04-21T14:52:54.481+03:00,95,1.583333333333333,2025-04-21T12:30:07.995+03:00,0.02023345852159405,0
2025-04-21T14:54:48.146+03:00,1745236486.436669,40.95228068713659,29.14029842710894,76.51794,-1,-1,-1,-1,30,25.18208350132768,-9999,17532.75219054167,-0.72918701171875,0.644866943359375,0.28790283203125,17532.74465054167,2.078770339095384,-1.600542308989532,-0.7552587487953146,-0.03687066584825516,0.0264902263879776,-0.2565940022468567,-0.02343350648880005,-0.03951174020767212,0.1179326772689819,XArbitraryZVertical,0.4448635143288832,-0.5593959168438587,0.6922223826681122,0.1000033278293378,-0.7277718782424927,0.685477077960968,0.02165467664599419,0,0,0,-1,-1,17521.93113075,unknown,2,2025-04-21T14:54:11.259+03:00,2025-04-20T21:57:49.637+03:00,6589,0.9558782,0,0,5416.758,5,6,2025-04-21T14:54:16.418+03:00,766929287.4628325,0,-45.8,100.2816,1,0.45,2025-04-21T14:52:54.481+03:00,95,1.583333333333333,2025-04-21T12:30:07.995+03:00,0.02023345852159405,0
2025-04-21T14:54:48.156+03:00,1745236486.436669,40.95228068713659,29.14029842710894,76.51794,-1,-1,-1,-1,30,25.18208350132768,-9999,17532.76226754167,-0.71405029296875,0.61810302734375,0.377410888671875,17532.75472654167,2.078788214550238,-1.600134823286916,-0.7523553243751017,0.01475444622337818,0.06474360078573227,-0.3398715853691101,-0.008697271347045898,-0.03409886360168457,0.2285224199295044,XArbitraryZVertical,0.4455343886628955,-0.5587551487839872,0.6921441551571138,0.1011347168003255,-0.7297671437263489,0.68336021900177,0.02141641639173031,0,0,0,-1,-1,17521.93113075,unknown,2,2025-04-21T14:54:11.259+03:00,2025-04-20T21:57:49.637+03:00,6589,0.9558782,0,0,5416.758,5,6,2025-04-21T14:54:16.418+03:00,766929287.4628325,0,-45.8,100.2816,1,0.45,2025-04-21T14:52:54.481+03:00,95,1.583333333333333,2025-04-21T12:30:07.995+03:00,0.02023345852159405,0
2025-04-21T14:54:48.166+03:00,1745236486.436669,40.95228068713659,29.14029842710894,76.51794,-1,-1,-1,-1,30,25.18208350132768,-9999,17532.77234354167,-0.7308197021484375,0.6075897216796875,0.5606689453125,17532.76480354167,2.077938081028003,-1.59925277531687,-0.7485333939250517,-0.1621597409248352,0.2692862451076508,-0.4290077686309814,0.01643341779708862,-0.05268120765686035,0.3220638036727905,XArbitraryZVertical,0.4460528489760329,-0.5580862775051425,0.6920715159422669,0.1030217657187781,-0.7323909997940063,0.6805649399757385,0.02084687352180481,0,0,0,-1,-1,17521.93113075,unknown,2,2025-04-21T14:54:11.259+03:00,2025-04-20T21:57:49.637+03:00,6589,0.9558782,0,0,5416.758,5,6,2025-04-21T14:54:16.418+03:00,766929287.4628325,0,-45.8,100.2816,1,0.45,2025-04-21T14:52:54.481+03:00,95,1.583333333333333,2025-04-21T12:30:07.995+03:00,0.02023345852159405,0
2025-04-21T14:54:48.176+03:00,1745236486.436669,40.95228068713659,29.14029842710894,76.51794,-1,-1,-1,-1,30,25.18208350132768,-9999,17532.78241954167,-0.7344818115234375,0.5859222412109375,0.9284515380859375,17532.77487954167,2.076602480108972,-1.59601653162667,-0.7435112755396222,0.04408024251461029,0.5367216467857361,-0.5565204620361328,0.01314496994018555,-0.06690675020217896,0.4489971399307251,XArbitraryZVertical,0.4459529511492986,-0.557142021921926,0.6924233081332829,0.1061541664539287,-0.7358623147010803,0.6768767237663269,0.01856253482401371,0,0,0,-1,-1,17521.93113075,unknown,2,2025-04-21T14:54:11.259+03:00,2025-04-20T21:57:49.637+03:00,6589,0.9558782,0,0,5416.758,5,6,2025-04-21T14:54:16.418+03:00,766929287.4628325,0,-45.8,100.2816,1,0.45,2025-04-21T14:52:54.481+03:00,95,1.583333333333333,2025-04-21T12:30:07.995+03:00,0.02023345852159405,0
2025-04-21T14:54:48.186+03:00,1745236486.436669,40.95228068713659,29.14029842710894,76.51794,-1,-1,-1,-1,30,25.18208350132768,-9999,17532.79249554167,-0.730255126953125,0.5701904296875,1.229827880859375,17532.78495554167,2.081378398253439,-1.586074753135156,-0.7372702586945089,0.6363356113433838,0.8365041017532349,-0.6984118223190308,0.001831889152526855,-0.07485765218734741,0.7709161043167114,XArbitraryZVertical,0.4455595237075421,-0.554194775343038,0.6945250725570573,0.1094519970289489,-0.7402199506759644,0.6722695827484131,0.01131027657538652,0,0,0,-1,-1,17521.93113075,unknown,2,2025-04-21T14:54:11.259+03:00,2025-04-20T21:57:49.637+03:00,6589,0.9558782,0,0,5416.758,5,6,2025-04-21T14:54:16.418+03:00,766929287.4628325,0,-45.8,100.2816,1,0.45,2025-04-21T14:52:54.481+03:00,95,1.583333333333333,2025-04-21T12:30:07.995+03:00,0.02023345852159405,0
