loggingTime(txt),locationTimestamp_since1970(s),locationLatitude(WGS84),locationLongitude(WGS84),locationAltitude(m),locationSpeed(m/s),locationSpeedAccuracy(m/s),locationCourse(°),locationCourseAccuracy(°),locationVerticalAccuracy(m),locationHorizontalAccuracy(m),locationFloor(Z),accelerometerTimestamp_sinceReboot(s),accelerometerAccelerationX(G),accelerometerAccelerationY(G),accelerometerAccelerationZ(G),motionTimestamp_sinceReboot(s),motionYaw(rad),motionRoll(rad),motionPitch(rad),motionRotationRateX(rad/s),motionRotationRateY(rad/s),motionRotationRateZ(rad/s),motionUserAccelerationX(G),motionUserAccelerationY(G),motionUserAccelerationZ(G),motionAttitudeReferenceFrame(txt),motionQuaternionX(R),motionQuaternionY(R),motionQuaternionZ(R),motionQuaternionW(R),motionGravityX(G),motionGravityY(G),motionGravityZ(G),motionMagneticFieldX(µT),motionMagneticFieldY(µT),motionMagneticFieldZ(µT),motionHeading(°),motionMagneticFieldCalibrationAccuracy(Z),activityTimestamp_sinceReboot(s),activity(txt),activityActivityConfidence(Z),activityActivityStartDate(txt),pedometerStartDate(txt),pedometerNumberofSteps(N),pedometerAverageActivePace(s/m),pedometerCurrentPace(s/m),pedometerCurrentCadence(steps/s),pedometerDistance(m),pedometerFloorAscended(N),pedometerFloorDescended(N),pedometerEndDate(txt),altimeterTimestamp_sinceReboot(s),altimeterReset(bool),altimeterRelativeAltitude(m),altimeterPressure(kPa),batteryState(N),batteryLevel(R),heartRateBPMTimestamp(txt),heartRateBPM(N),heartRateBPS(R),heartRateVariabilityTimestamp(txt),heartRateVariability(ms),label
2025-04-21T16:46:41.747+03:00,1745243200.681371,40.9522196526657,29.14029648939994,76.2561,-1,-1,-1,-1,30,20.62944476133531,-9999,20443.9741745,0.932220458984375,-0.2840423583984375,-0.4144287109375,20443.9640975,-0.7572746195179199,1.053379834551303,0.333009520184143,0.06623367965221405,-0.03268077969551086,0.00386680499650538,-0.133823573589325,0.04643231630325317,-0.09166532754898071,XArbitraryZVertical,-0.3163730616010638,-0.4076479175983318,0.2377275011252406,-0.8229318405095204,0.8213540315628052,-0.3268886804580688,-0.4674625098705292,0,0,0,-1,-1,20441.144005625,unknown,2,2025-04-21T16:46:38.875+03:00,2025-04-20T21:57:49.637+03:00,6805,0.9866872,0,0,5579.851,5,6,2025-04-21T16:43:22.849+03:00,766936001.5555496,0,-38.75,100.1976,1,0.3,2025-04-21T16:46:36.105+03:00,79,1.316666666666667,2025-04-21T12:30:07.995+03:00,0.02023345852159405,0
2025-04-21T16:46:41.748+03:00,1745243200.681371,40.9522196526657,29.14029648939994,76.2561,-1,-1,-1,-1,30,20.62944476133531,-9999,20443.9842505,0.9722747802734375,-0.3866119384765625,-0.3941650390625,20443.9741745,-0.7582135366385525,1.0522025204791,0.3336264486120739,0.1037941053509712,-0.2307243496179581,-0.005780229810625315,-0.06185406446456909,0.08389577269554138,-0.06270730495452881,XArbitraryZVertical,-0.3166590527100005,-0.4068936930037225,0.2381418276435269,-0.8230752839863141,0.8206278085708618,-0.3274716734886169,-0.468329131603241,0,0,0,-1,-1,20441.144005625,unknown,2,2025-04-21T16:46:38.875+03:00,2025-04-20T21:57:49.637+03:00,6805,0.9866872,0,0,5579.851,5,6,2025-04-21T16:43:22.849+03:00,766936001.5555496,0,-38.75,100.1976,1,0.3,2025-04-21T16:46:36.105+03:00,79,1.316666666666667,2025-04-21T12:30:07.995+03:00,0.02023345852159405,0
2025-04-21T16:46:41.749+03:00,1745243200.681371,40.9522196526657,29.14029648939994,76.2561,-1,-1,-1,-1,30,20.62944476133531,-9999,20443.9943265,0.7930145263671875,-0.388641357421875,-0.470367431640625,20443.9842505,-0.7587987595977361,1.050325096869182,0.3337866141581061,0.01932269334793091,-0.1475947946310043,-0.01310602016746998,0.1363835334777832,0.03154164552688599,0.07033726572990417,XArbitraryZVertical,-0.316615188447426,-0.4059967730073822,0.2386388783421569,-0.8233910470798728,0.819701611995697,-0.3276229798793793,-0.4698428809642792,0,0,0,-1,-1,20441.144005625,unknown,2,2025-04-21T16:46:38.875+03:00,2025-04-20T21:57:49.637+03:00,6805,0.9866872,0,0,5579.851,5,6,2025-04-21T16:43:22.849+03:00,766936001.5555496,0,-38.75,100.1976,1,0.3,2025-04-21T16:46:36.105+03:00,79,1.316666666666667,2025-04-21T12:30:07.995+03:00,0.02023345852159405,0
2025-04-21T16:46:41.754+03:00,1745243200.681371,40.9522196526657,29.14029648939994,76.2561,-1,-1,-1,-1,30,20.62944476133531,-9999,20444.0044025,0.72943115234375,-0.3294219970703125,-0.485992431640625,20443.9943265,-0.7589017719809871,1.049866748007787,0.3337291174256339,-0.004769860301166773,0.04795341193675995,-0.008173312991857529,0.1339428424835205,-0.06737443804740906,0.06493920087814331,XArbitraryZVertical,-0.3165594595757221,-0.405803067766119,0.2387685809692282,-0.8234704407074842,0.819502592086792,-0.3275686800479889,-0.4702279567718506,0,0,0,-1,-1,20441.144005625,unknown,2,2025-04-21T16:46:38.875+03:00,2025-04-20T21:57:49.637+03:00,6805,0.9866872,0,0,5579.851,5,6,2025-04-21T16:43:22.849+03:00,766936001.5555496,0,-38.75,100.1976,1,0.3,2025-04-21T16:46:36.105+03:00,79,1.316666666666667,2025-04-21T12:30:07.995+03:00,0.02023345852159405,0
2025-04-21T16:46:41.764+03:00,1745243200.681371,40.9522196526657,29.14029648939994,76.2561,-1,-1,-1,-1,30,20.62944476133531,-9999,20444.0144795,0.7814178466796875,-0.305877685546875,-0.4874114990234375,20444.0044025,-0.7588512171836276,1.050756183026541,0.3336564807440114,-0.01257059164345264,0.1048121005296707,-0.001993214711546898,-0.04401648044586182,-0.05396950244903564,-0.00493091344833374,XArbitraryZVertical,-0.3166277464875635,-0.4061915274162049,0.2386255704065571,-0.8232939401698873,0.819940984249115,-0.32750004529953,-0.4695106148719788,0,0,0,-1,-1,20441.144005625,unknown,2,2025-04-21T16:46:38.875+03:00,2025-04-20T21:57:49.637+03:00,6805,0.9866872,0,0,5579.851,5,6,2025-04-21T16:43:22.849+03:00,766936001.5555496,0,-38.75,100.1976,1,0.3,2025-04-21T16:46:36.105+03:00,79,1.316666666666667,2025-04-21T12:30:07.995+03:00,0.02023345852159405,0
2025-04-21T16:46:41.774+03:00,1745243200.681371,40.9522196526657,29.14029648939994,76.2561,-1,-1,-1,-1,30,20.62944476133531,-9999,20444.0245555,0.85491943359375,-0.31732177734375,-0.467376708984375,20444.0144795,-0.7588619718922992,1.051379266664964,0.3336081631475722,0.007926694117486477,0.007362775504589081,-0.005730695091187954,-0.08893924951553345,0.003953009843826294,-0.0182972252368927,XArbitraryZVertical,-0.316685857018479,-0.4064557977938069,0.2385437336329865,-0.8231648846142765,0.8202471137046814,-0.3274543881416321,-0.4690074920654297,0,0,0,-1,-1,20441.144005625,unknown,2,2025-04-21T16:46:38.875+03:00,2025-04-20T21:57:49.637+03:00,6805,0.9866872,0,0,5579.851,5,6,2025-04-21T16:43:22.849+03:00,766936001.5555496,0,-38.75,100.1976,1,0.3,2025-04-21T16:46:36.105+03:00,79,1.316666666666667,2025-04-21T12:30:07.995+03:00,0.02023345852159405,0
2025-04-21T16:46:41.784+03:00,1745243200.681371,40.9522196526657,29.14029648939994,76.2561,-1,-1,-1,-1,30,20.62944476133531,-9999,20444.0346315,0.857696533203125,-0.3406524658203125,-0.45660400390625,20444.0245555,-0.7590167445567091,1.051050685735916,0.333604045072679,0.01593155600130558,-0.07214596122503281,-0.005386248230934143,-0.02834618091583252,0.02148145437240601,-0.01692840456962585,XArbitraryZVertical,-0.3166765295162079,-0.4062968590939231,0.2386605225067356,-0.8232131031423379,0.8200941681861877,-0.3274504840373993,-0.4692776799201965,0,0,0,-1,-1,20441.144005625,unknown,2,2025-04-21T16:46:38.875+03:00,2025-04-20T21:57:49.637+03:00,6805,0.9866872,0,0,5579.851,5,6,2025-04-21T16:43:22.849+03:00,766936001.5555496,0,-38.75,100.1976,1,0.3,2025-04-21T16:46:36.105+03:00,79,1.316666666666667,2025-04-21T12:30:07.995+03:00,0.02023345852159405,0
2025-04-21T16:46:41.794+03:00,1745243200.681371,40.9522196526657,29.14029648939994,76.2561,-1,-1,-1,-1,30,20.62944476133531,-9999,20444.0447085,0.8127593994140625,-0.3466949462890625,-0.4669647216796875,20444.0346315,-0.7591220921972404,1.050431954393856,0.3335861501274404,0.002263148780912161,-0.04563632607460022,-0.007906664162874222,0.03985607624053955,0.006175190210342407,0.004638969898223877,XArbitraryZVertical,-0.3166172314798855,-0.406029009666792,0.2388064384950251,-0.8233257999482895,0.8198087811470032,-0.3274335861206055,-0.4697879552841187,0,0,0,-1,-1,20441.144005625,unknown,2,2025-04-21T16:46:38.875+03:00,2025-04-20T21:57:49.637+03:00,6805,0.9866872,0,0,5579.851,5,6,2025-04-21T16:43:22.849+03:00,766936001.5555496,0,-38.75,100.1976,1,0.3,2025-04-21T16:46:36.105+03:00,79,1.316666666666667,2025-04-21T12:30:07.995+03:00,0.02023345852159405,0
2025-04-21T16:46:41.804+03:00,1745243200.681371,40.9522196526657,29.14029648939994,76.2561,-1,-1,-1,-1,30,20.62944476133531,-9999,20444.0547845,0.791778564453125,-0.32958984375,-0.4736785888671875,20444.0447085,-0.7591327483286868,1.050224798213789,0.3334759112139985,-0.005463147535920143,0.009240038692951202,-0.01111547369509935,0.03358972072601318,-0.01606947183609009,0.01346319913864136,XArbitraryZVertical,-0.3165526703696803,-0.4059637284852516,0.2388718618924065,-0.8233638436663452,0.819742739200592,-0.3273294270038605,-0.4699757099151611,0,0,0,-1,-1,20441.144005625,unknown,2,2025-04-21T16:46:38.875+03:00,2025-04-20T21:57:49.637+03:00,6805,0.9866872,0,0,5579.851,5,6,2025-04-21T16:43:22.849+03:00,766936001.5555496,0,-38.75,100.1976,1,0.3,2025-04-21T16:46:36.105+03:00,79,1.316666666666667,2025-04-21T12:30:07.995+03:00,0.02023345852159405,0
2025-04-21T16:46:41.814+03:00,1745243200.681371,40.9522196526657,29.14029648939994,76.2561,-1,-1,-1,-1,30,20.62944476133531,-9999,20444.0648605,0.80999755859375,-0.3111572265625,-0.46514892578125,20444.0547845,-0.7591421035173173,1.050354289958839,0.3333532059945121,-0.007294869516044855,0.01424465049058199,-0.004815233405679464,-0.01229751110076904,-0.01809278130531311,0.001505672931671143,XArbitraryZVertical,-0.3165232821791362,-0.4060396942407613,0.238886660546175,-0.8233334451184519,0.8198385238647461,-0.32721346616745,-0.4698895514011383,0,0,0,-1,-1,20441.144005625,unknown,2,2025-04-21T16:46:38.875+03:00,2025-04-20T21:57:49.637+03:00,6805,0.9866872,0,0,5579.851,5,6,2025-04-21T16:43:22.849+03:00,766936001.5555496,0,-38.75,100.1976,1,0.3,2025-04-21T16:46:36.105+03:00,79,1.316666666666667,2025-04-21T12:30:07.995+03:00,0.02023345852159405,0
2025-04-21T16:46:41.824+03:00,1745243200.681371,40.9522196526657,29.14029648939994,76.2561,-1,-1,-1,-1,30,20.62944476133531,-9999,20444.0749365,0.8284454345703125,-0.3167877197265625,-0.4582672119140625,20444.0648605,-0.7591784799241829,1.050360464681406,0.3333290008460179,0.01289528701454401,-0.02062764577567577,0.001236500451341271,-0.02756619453430176,0.0006679296493530273,-0.003500282764434814,XArbitraryZVertical,-0.3165221858844611,-0.4060412404677149,0.2389068598893885,-0.8233272445249987,0.8198482990264893,-0.3271906077861786,-0.4698884189128876,0,0,0,-1,-1,20441.144005625,unknown,2,2025-04-21T16:46:38.875+03:00,2025-04-20T21:57:49.637+03:00,6805,0.9866872,0,0,5579.851,5,6,2025-04-21T16:43:22.849+03:00,766936001.5555496,0,-38.75,100.1976,1,0.3,2025-04-21T16:46:36.105+03:00,79,1.316666666666667,2025-04-21T12:30:07.995+03:00,0.02023345852159405,0
2025-04-21T16:46:41.835+03:00,1745243200.681371,40.9522196526657,29.14029648939994,76.2561,-1,-1,-1,-1,30,20.62944476133531,-9999,20444.0850135,0.8230743408203125,-0.3338165283203125,-0.4630584716796875,20444.0749365,-0.7593409633087905,1.050120050203271,0.3333880259958169,0.01465776655822992,-0.04053717106580734,-0.006509836297482252,-0.006302952766418457,0.01677590608596802,0.006345927715301514,XArbitraryZVertical,-0.3165489272137218,-0.4059049408748461,0.2389966773802039,-0.8233580942903334,0.8197185397148132,-0.327246367931366,-0.4700759053230286,0,0,0,-1,-1,20441.144005625,unknown,2,2025-04-21T16:46:38.875+03:00,2025-04-20T21:57:49.637+03:00,6805,0.9866872,0,0,5579.851,5,6,2025-04-21T16:43:22.849+03:00,766936001.5555496,0,-38.75,100.1976,1,0.3,2025-04-21T16:46:36.105+03:00,79,1.316666666666667,2025-04-21T12:30:07.995+03:00,0.02023345852159405,0
2025-04-21T16:46:41.845+03:00,1745243200.681371,40.9522196526657,29.14029648939994,76.2561,-1,-1,-1,-1,30,20.62944476133531,-9999,20444.0950895,0.808074951171875,-0.33709716796875,-0.46990966796875,20444.0850135,-0.7594929805717856,1.049808588379446,0.3334015987641449,0.009905088692903519,-0.02659818902611732,-0.007296001072973013,0.009456992149353027,0.008732140064239502,0.0118480920791626,XArbitraryZVertical,-0.3165477127931002,-0.405749984094567,0.2391050819664359,-0.8234034701067267,0.8195682168006897,-0.3272592127323151,-0.4703289866447449,0,0,0,-1,-1,20441.144005625,unknown,2,2025-04-21T16:46:38.875+03:00,2025-04-20T21:57:49.637+03:00,6805,0.9866872,0,0,5579.851,5,6,2025-04-21T16:43:22.849+03:00,766936001.5555496,0,-38.75,100.1976,1,0.3,2025-04-21T16:46:36.105+03:00,79,1.316666666666667,2025-04-21T12:30:07.995+03:00,0.02023345852159405,0
2025-04-21T16:46:41.855+03:00,1745243200.681371,40.9522196526657,29.14029648939994,76.2561,-1,-1,-1,-1,30,20.62944476133531,-9999,20444.1051655,0.803070068359375,-0.3262786865234375,-0.473602294921875,20444.0950895,-0.7596062922967504,1.049689972629833,0.3333867087464784,0.007547392975538969,-0.002905640751123428,-0.005495704244822264,0.001299381256103516,-0.00852435827255249,0.006683468818664551,XArbitraryZVertical,-0.3165508558584372,-0.4056861449446823,0.2391743173961123,-0.8234135806901794,0.819516658782959,-0.3272451460361481,-0.4704286158084869,0,0,0,-1,-1,20441.144005625,unknown,2,2025-04-21T16:46:38.875+03:00,2025-04-20T21:57:49.637+03:00,6805,0.9866872,0,0,5579.851,5,6,2025-04-21T16:43:22.849+03:00,766936001.5555496,0,-38.75,100.1976,1,0.3,2025-04-21T16:46:36.105+03:00,79,1.316666666666667,2025-04-21T12:30:07.995+03:00,0.02023345852159405,0
2025-04-21T16:46:41.865+03:00,1745243200.681371,40.9522196526657,29.14029648939994,76.2561,-1,-1,-1,-1,30,20.62944476133531,-9999,20444.1152425,0.812042236328125,-0.320037841796875,-0.472198486328125,20444.1051655,-0.7597108057616202,1.049757122000162,0.3334283825038009,0.01537828519940376,0.007459781132638454,-9.50134708546102e-05,-0.01292628049850464,-0.009125828742980957,-0.0003974735736846924,XArbitraryZVertical,-0.3165959979771946,-0.4056890438471367,0.2391960357176365,-0.8233883846726315,0.8195363283157349,-0.3272845149040222,-0.4703667461872101,0,0,0,-1,-1,20441.144005625,unknown,2,2025-04-21T16:46:38.875+03:00,2025-04-20T21:57:49.637+03:00,6805,0.9866872,0,0,5579.851,5,6,2025-04-21T16:43:22.849+03:00,766936001.5555496,0,-38.75,100.1976,1,0.3,2025-04-21T16:46:36.105+03:00,79,1.316666666666667,2025-04-21T12:30:07.995+03:00,0.02023345852159405,0
2025-04-21T16:46:41.875+03:00,1745243200.681371,40.9522196526657,29.14029648939994,76.2561,-1,-1,-1,-1,30,20.62944476133531,-9999,20444.1253185,0.820892333984375,-0.323822021484375,-0.472015380859375,20444.1152425,-0.7598963738877715,1.04986463606568,0.3335302990781783,0.02434754557907581,0.001665275543928146,0.0008786382968537509,-0.01590812206268311,0.001544803380966187,-0.003477632999420166,XArbitraryZVertical,-0.3166853075651478,-0.4056838645449623,0.2392293094659956,-0.8233469373106006,0.8195579648017883,-0.3273808062076569,-0.4702620506286621,0,0,0,-1,-1,20441.144005625,unknown,2,2025-04-21T16:46:38.875+03:00,2025-04-20T21:57:49.637+03:00,6805,0.9866872,0,0,5579.851,5,6,2025-04-21T16:43:22.849+03:00,766936001.5555496,0,-38.75,100.1976,1,0.3,2025-04-21T16:46:36.105+03:00,79,1.316666666666667,2025-04-21T12:30:07.995+03:00,0.02023345852159405,0
2025-04-21T16:46:41.885+03:00,1745243200.681371,40.9522196526657,29.14029648939994,76.2561,-1,-1,-1,-1,30,20.62944476133531,-9999,20444.1353945,0.8199920654296875,-0.328155517578125,-0.4710540771484375,20444.1253185,-0.7601127456191301,1.049943140380373,0.3336508445606493,0.02392716519534588,-0.0004502064548432827,0.00238805147819221,-0.006725072860717773,0.00733494758605957,-0.002523988485336304,XArbitraryZVertical,-0.3167844772926158,-0.4056581811950739,0.239275077669432,-0.8233081759900318,0.8195606470108032,-0.3274947106838226,-0.4701780676841736,0,0,0,-1,-1,20441.144005625,unknown,2,2025-04-21T16:46:38.875+03:00,2025-04-20T21:57:49.637+03:00,6805,0.9866872,0,0,5579.851,5,6,2025-04-21T16:43:22.849+03:00,766936001.5555496,0,-38.75,100.1976,1,0.3,2025-04-21T16:46:36.105+03:00,79,1.316666666666667,2025-04-21T12:30:07.995+03:00,0.02023345852159405,0
2025-04-21T16:46:41.895+03:00,1745243200.681371,40.9522196526657,29.14029648939994,76.2561,-1,-1,-1,-1,30,20.62944476133531,-9999,20444.1454705,0.813720703125,-0.329681396484375,-0.468017578125,20444.1353945,-0.760308196151494,1.050033413649968,0.3337769128783341,0.02078756503760815,0.007772036828100681,0.0002122488222084939,0.001981139183044434,0.003028988838195801,-0.001138448715209961,XArbitraryZVertical,-0.3168829192273863,-0.4056395503386578,0.2393089417565401,-0.8232696361313018,0.8195672631263733,-0.3276138305664062,-0.4700835347175598,0,0,0,-1,-1,20441.144005625,unknown,2,2025-04-21T16:46:38.875+03:00,2025-04-20T21:57:49.637+03:00,6805,0.9866872,0,0,5579.851,5,6,2025-04-21T16:43:22.849+03:00,766936001.5555496,0,-38.75,100.1976,1,0.3,2025-04-21T16:46:36.105+03:00,79,1.316666666666667,2025-04-21T12:30:07.995+03:00,0.02023345852159405,0
2025-04-21T16:46:41.905+03:00,1745243200.681371,40.9522196526657,29.14029648939994,76.2561,-1,-1,-1,-1,30,20.62944476133531,-9999,20444.1555475,0.812347412109375,-0.3296051025390625,-0.4678497314453125,20444.1454705,-0.7604507058335722,1.050169585587479,0.3338891027946945,0.01161617040634155,0.01281819492578506,0.004289415199309587,-0.000400841236114502,-0.001259535551071167,-0.0008868575096130371,XArbitraryZVertical,-0.3169708309174475,-0.4056509191327684,0.2393172837885796,-0.8232277639020199,0.8195993900299072,-0.3277198374271393,-0.4699536561965942,0,0,0,-1,-1,20441.144005625,unknown,2,2025-04-21T16:46:38.875+03:00,2025-04-20T21:57:49.637+03:00,6805,0.9866872,0,0,5579.851,5,6,2025-04-21T16:43:22.849+03:00,766936001.5555496,0,-38.75,100.1976,1,0.3,2025-04-21T16:46:36.105+03:00,79,1.316666666666667,2025-04-21T12:30:07.995+03:00,0.02023345852159405,0
2025-04-21T16:46:41.915+03:00,1745243200.681371,40.9522196526657,29.14029648939994,76.2561,-1,-1,-1,-1,30,20.62944476133531,-9999,20444.1656235,0.8152313232421875,-0.3323211669921875,-0.4670562744140625,20444.1555475,-0.7605461806903796,1.050357557333629,0.3339349038552621,0.01178874261677265,0.01739536970853806,0.0008720469195395708,-0.00645756721496582,-0.001933395862579346,0.001835525035858154,XArbitraryZVertical,-0.3170301286904882,-0.4057041320440584,0.2393150524128326,-0.8231793445087902,0.8196746706962585,-0.3277631103992462,-0.4697920978069305,0,0,0,-1,-1,20441.144005625,unknown,2,2025-04-21T16:46:38.875+03:00,2025-04-20T21:57:49.637+03:00,6805,0.9866872,0,0,5579.851,5,6,2025-04-21T16:43:22.849+03:00,766936001.5555496,0,-38.75,100.1976,1,0.3,2025-04-21T16:46:36.105+03:00,79,1.316666666666667,2025-04-21T12:30:07.995+03:00,0.02023345852159405,0
2025-04-21T16:46:41.925+03:00,1745243200.681371,40.9522196526657,29.14029648939994,76.2561,-1,-1,-1,-1,30,20.62944476133531,-9999,20444.1756995,0.815826416015625,-0.33172607421875,-0.4672393798828125,20444.1656235,-0.7606525097402715,1.050574749628869,0.3339878262238184,0.01092481333762407,0.01569201052188873,0.001667666481807828,-0.007002294063568115,-0.001303553581237793,0.002518594264984131,XArbitraryZVertical,-0.3170978343874356,-0.4057662386661707,0.2393108212716444,-0.8231238774050771,0.8197616338729858,-0.3278130888938904,-0.4696054458618164,0,0,0,-1,-1,20441.144005625,unknown,2,2025-04-21T16:46:38.875+03:00,2025-04-20T21:57:49.637+03:00,6805,0.9866872,0,0,5579.851,5,6,2025-04-21T16:43:22.849+03:00,766936001.5555496,0,-38.75,100.1976,1,0.3,2025-04-21T16:46:36.105+03:00,79,1.316666666666667,2025-04-21T12:30:07.995+03:00,0.02023345852159405,0
2025-04-21T16:46:41.936+03:00,1745243200.681371,40.9522196526657,29.14029648939994,76.2561,-1,-1,-1,-1,30,20.62944476133531,-9999,20444.1857765,0.8157958984375,-0.33026123046875,-0.466827392578125,20444.1756995,-0.7607722263801984,1.050763612757898,0.3340790705145877,0.01612969674170017,0.008322512730956078,0.0005909503088332713,-0.004623591899871826,-0.00423857569694519,0.001784354448318481,XArbitraryZVertical,-0.3171794644170626,-0.405807000010552,0.2393067544172583,-0.8230734742305105,0.8198243379592896,-0.327899307012558,-0.4694357216358185,0,0,0,-1,-1,20441.144005625,unknown,2,2025-04-21T16:46:38.875+03:00,2025-04-20T21:57:49.637+03:00,6805,0.9866872,0,0,5579.851,5,6,2025-04-21T16:43:22.849+03:00,766936001.5555496,0,-38.75,100.1976,1,0.3,2025-04-21T16:46:36.105+03:00,79,1.316666666666667,2025-04-21T12:30:07.995+03:00,0.02023345852159405,0
2025-04-21T16:46:41.946+03:00,1745243200.681371,40.9522196526657,29.14029648939994,76.2561,-1,-1,-1,-1,30,20.62944476133531,-9999,20444.19585166667,0.8148040771484375,-0.332427978515625,-0.4684295654296875,20444.1857765,-0.7609021079386549,1.050883043206005,0.3341902941339794,0.01647930219769478,0.01135738380253315,-2.147688064724207e-05,-0.004175007343292236,-0.003385841846466064,0.002919524908065796,XArbitraryZVertical,-0.3172624348050878,-0.4058136263481477,0.2393127524103308,-0.8230364866711076,0.8198487162590027,-0.3280043601989746,-0.4693197011947632,0,0,0,-1,-1,20441.144005625,unknown,2,2025-04-21T16:46:38.875+03:00,2025-04-20T21:57:49.637+03:00,6805,0.9866872,0,0,5579.851,5,6,2025-04-21T16:43:22.849+03:00,766936001.5555496,0,-38.75,100.1976,1,0.3,2025-04-21T16:46:36.105+03:00,79,1.316666666666667,2025-04-21T12:30:07.995+03:00,0.02023345852159405,0
2025-04-21T16:46:41.956+03:00,1745243200.681371,40.9522196526657,29.14029648939994,76.2561,-1,-1,-1,-1,30,20.62944476133531,-9999,20444.20592766667,0.8161163330078125,-0.3347930908203125,-0.465576171875,20444.19585166667,-0.7610348584430027,1.05097871756109,0.3342488598851629,0.01296366285532713,0.006959440186619759,-0.003572269575670362,-0.003714919090270996,-0.002064019441604614,0.001992315053939819,XArbitraryZVertical,-0.3173231101222281,-0.405820391584772,0.2393371879369543,-0.8230026410337289,0.8198769688606262,-0.3280597031116486,-0.4692316949367523,0,0,0,-1,-1,20441.144005625,unknown,2,2025-04-21T16:46:38.875+03:00,2025-04-20T21:57:49.637+03:00,6805,0.9866872,0,0,5579.851,5,6,2025-04-21T16:43:22.849+03:00,766936001.5555496,0,-38.75,100.1976,1,0.3,2025-04-21T16:46:36.105+03:00,79,1.316666666666667,2025-04-21T12:30:07.995+03:00,0.02023345852159405,0
2025-04-21T16:46:41.966+03:00,1745243200.681371,40.9522196526657,29.14029648939994,76.2561,-1,-1,-1,-1,30,20.62944476133531,-9999,20444.21600366667,0.8175048828125,-0.334442138671875,-0.4633026123046875,20444.20592766667,-0.7611440415383937,1.051010725222901,0.3342660135250087,0.01025622710585594,-0.001496962271630764,-0.004046611953526735,-0.005693435668945312,-0.004718154668807983,0.001154541969299316,XArbitraryZVertical,-0.3173556046674222,-0.4058128572992274,0.2393726442859948,-0.822983559725488,0.819887101650238,-0.3280758857727051,-0.4692026972770691,0,0,0,-1,-1,20441.144005625,unknown,2,2025-04-21T16:46:38.875+03:00,2025-04-20T21:57:49.637+03:00,6805,0.9866872,0,0,5579.851,5,6,2025-04-21T16:43:22.849+03:00,766936001.5555496,0,-38.75,100.1976,1,0.3,2025-04-21T16:46:36.105+03:00,79,1.316666666666667,2025-04-21T12:30:07.995+03:00,0.02023345852159405,0
2025-04-21T16:46:41.977+03:00,1745243200.681371,40.9522196526657,29.14029648939994,76.2561,-1,-1,-1,-1,30,20.62944476133531,-9999,20444.22608066667,0.8172760009765625,-0.3306884765625,-0.4643402099609375,20444.21600366667,-0.7612507483271778,1.05101465049967,0.334278638070123,0.009918537922203541,-0.00556653831154108,-0.004609870258718729,-0.003494441509246826,-0.006674617528915405,0.004002690315246582,XArbitraryZVertical,-0.3173825205599713,-0.405795050829498,0.2394126955408208,-0.8229703320468413,0.8198853731155396,-0.3280878365039825,-0.4691974222660065,0,0,0,-1,-1,20441.144005625,unknown,2,2025-04-21T16:46:38.875+03:00,2025-04-20T21:57:49.637+03:00,6805,0.9866872,0,0,5579.851,5,6,2025-04-21T16:43:22.849+03:00,766936001.5555496,0,-38.75,100.1976,1,0.3,2025-04-21T16:46:36.105+03:00,79,1.316666666666667,2025-04-21T12:30:07.995+03:00,0.02023345852159405,0
2025-04-21T16:46:41.986+03:00,1745243200.681371,40.9522196526657,29.14029648939994,76.2561,-1,-1,-1,-1,30,20.62944476133531,-9999,20444.23615666667,0.8147125244140625,-0.329437255859375,-0.464202880859375,20444.22608066667,-0.7613364368404282,1.050957088050874,0.3342977402404586,0.01112355198711157,-0.008053731173276901,-0.001837153453379869,-0.002577006816864014,-0.006366640329360962,0.005679428577423096,XArbitraryZVertical,-0.3174002723227856,-0.4057539997826347,0.2394521954573666,-0.8229722611862751,0.8198529481887817,-0.3281058669090271,-0.4692415297031403,0,0,0,-1,-1,20441.144005625,unknown,2,2025-04-21T16:46:38.875+03:00,2025-04-20T21:57:49.637+03:00,6805,0.9866872,0,0,5579.851,5,6,2025-04-21T16:43:22.849+03:00,766936001.5555496,0,-38.75,100.1976,1,0.3,2025-04-21T16:46:36.105+03:00,79,1.316666666666667,2025-04-21T12:30:07.995+03:00,0.02023345852159405,0
2025-04-21T16:46:41.996+03:00,1745243200.681371,40.9522196526657,29.14029648939994,76.2561,-1,-1,-1,-1,30,20.62944476133531,-9999,20444.24623266667,0.8134002685546875,-0.3289794921875,-0.466888427734375,20444.23615666667,-0.7614146144207194,1.050934969342313,0.3343360582213423,0.007566900923848152,0.0005085980519652367,-0.001692810212261975,-0.002479434013366699,-0.0028667151927948,0.004897892475128174,XArbitraryZVertical,-0.3174280551669412,-0.4057249342365493,0.2394780537634186,-0.822968371445873,0.8198316693305969,-0.3281420767307281,-0.4692534208297729,0,0,0,-1,-1,20441.144005625,unknown,2,2025-04-21T16:46:38.875+03:00,2025-04-20T21:57:49.637+03:00,6805,0.9866872,0,0,5579.851,5,6,2025-04-21T16:43:22.849+03:00,766936001.5555496,0,-38.75,100.1976,1,0.3,2025-04-21T16:46:36.105+03:00,79,1.316666666666667,2025-04-21T12:30:07.995+03:00,0.02023345852159405,0
2025-04-21T16:46:42.006+03:00,1745243200.681371,40.9522196526657,29.14029648939994,76.2561,-1,-1,-1,-1,30,20.62944476133531,-9999,20444.25630866667,0.814300537109375,-0.3267669677734375,-0.4664764404296875,20444.24623266667,-0.7614909908077795,1.050991341287206,0.3343838900420247,0.01012619864195585,0.006715893745422363,-0.0002419200027361512,-0.005116760730743408,-0.000685274600982666,0.004553943872451782,XArbitraryZVertical,-0.3174685170582897,-0.4057265723617618,0.2394882669661849,-0.8229489322459461,0.8198444843292236,-0.3281872570514679,-0.4691993892192841,0,0,0,-1,-1,20441.144005625,unknown,2,2025-04-21T16:46:38.875+03:00,2025-04-20T21:57:49.637+03:00,6805,0.9866872,0,0,5579.851,5,6,2025-04-21T16:43:22.849+03:00,766936001.5555496,0,-38.75,100.1976,1,0.3,2025-04-21T16:46:36.105+03:00,79,1.316666666666667,2025-04-21T12:30:07.995+03:00,0.02023345852159405,0
2025-04-21T16:46:42.016+03:00,1745243200.681371,40.9522196526657,29.14029648939994,76.2561,-1,-1,-1,-1,30,20.62944476133531,-9999,20444.26638566667,0.8166046142578125,-0.32464599609375,-0.466949462890625,20444.25630866667,-0.7616124810458734,1.051087916234303,0.3344734569717221,0.01651166006922722,0.004140617325901985,0.001226546941325068,-0.006540358066558838,-0.0001581311225891113,0.002156108617782593,XArbitraryZVertical,-0.3175388165837205,-0.4057293542102541,0.2394999588494006,-0.822916997289677,0.8198642134666443,-0.3282718658447266,-0.4691055715084076,0,0,0,-1,-1,20441.144005625,unknown,2,2025-04-21T16:46:38.875+03:00,2025-04-20T21:57:49.637+03:00,6805,0.9866872,0,0,5579.851,5,6,2025-04-21T16:43:22.849+03:00,766936001.5555496,0,-38.75,100.1976,1,0.3,2025-04-21T16:46:36.105+03:00,79,1.316666666666667,2025-04-21T12:30:07.995+03:00,0.02023345852159405,0
2025-04-21T16:46:42.026+03:00,1745243200.681371,40.9522196526657,29.14029648939994,76.2561,-1,-1,-1,-1,30,20.62944476133531,-9999,20444.27646166667,0.8182220458984375,-0.327392578125,-0.467742919921875,20444.26638566667,-0.7617821861067932,1.051174706249067,0.3346085535305158,0.02093051001429558,0.001439772546291351,0.002562854671850801,-0.005291342735290527,0.002197235822677612,0.00291740894317627,XArbitraryZVertical,-0.3176350103543525,-0.4057114620832709,0.2395213682971591,-0.8228825076525095,0.8198664784431458,-0.3283994495868683,-0.4690124094486237,0,0,0,-1,-1,20441.144005625,unknown,2,2025-04-21T16:46:38.875+03:00,2025-04-20T21:57:49.637+03:00,6805,0.9866872,0,0,5579.851,5,6,2025-04-21T16:43:22.849+03:00,766936001.5555496,0,-38.75,100.1976,1,0.3,2025-04-21T16:46:36.105+03:00,79,1.316666666666667,2025-04-21T12:30:07.995+03:00,0.02023345852159405,0
2025-04-21T16:46:42.036+03:00,1745243200.681371,40.9522196526657,29.14029648939994,76.2561,-1,-1,-1,-1,30,20.62944476133531,-9999,20444.28653766667,0.8162384033203125,-0.3311920166015625,-0.46697998046875,20444.27646166667,-0.7619576548120064,1.051246792894507,0.334743546263052,0.02078084088861942,0.004600944463163614,0.001654450548812747,-0.002631604671478271,0.003835409879684448,0.002439528703689575,XArbitraryZVertical,-0.3177305925942346,-0.4056866087089684,0.2395474953815827,-0.8228502318504172,0.8198617696762085,-0.3285269737243652,-0.4689312875270844,0,0,0,-1,-1,20441.144005625,unknown,2,2025-04-21T16:46:38.875+03:00,2025-04-20T21:57:49.637+03:00,6805,0.9866872,0,0,5579.851,5,6,2025-04-21T16:43:22.849+03:00,766936001.5555496,0,-38.75,100.1976,1,0.3,2025-04-21T16:46:36.105+03:00,79,1.316666666666667,2025-04-21T12:30:07.995+03:00,0.02023345852159405,0
2025-04-21T16:46:42.046+03:00,1745243200.681371,40.9522196526657,29.14029648939994,76.2561,-1,-1,-1,-1,30,20.62944476133531,-9999,20444.29661466667,0.814483642578125,-0.3357391357421875,-0.466766357421875,20444.28653766667,-0.7621484055167059,1.051358867556891,0.3348701727954043,0.02119169943034649,0.005678659304976463,-0.002055099932476878,-0.001778304576873779,0.0006895661354064941,0.001197904348373413,XArbitraryZVertical,-0.3178308671209272,-0.4056774143605016,0.2395756937183992,-0.8228078311485163,0.8198782205581665,-0.3286465704441071,-0.4688187539577484,0,0,0,-1,-1,20441.144005625,unknown,2,2025-04-21T16:46:38.875+03:00,2025-04-20T21:57:49.637+03:00,6805,0.9866872,0,0,5579.851,5,6,2025-04-21T16:43:22.849+03:00,766936001.5555496,0,-38.75,100.1976,1,0.3,2025-04-21T16:46:36.105+03:00,79,1.316666666666667,2025-04-21T12:30:07.995+03:00,0.02023345852159405,0
2025-04-21T16:46:42.079+03:00,1745243200.681371,40.9522196526657,29.14029648939994,76.2561,-1,-1,-1,-1,30,20.62944476133531,-9999,20444.30669066667,0.818511962890625,-0.3349609375,-0.466796875,20444.29661466667,-0.7623424773510171,1.051497191122859,0.3349955251832616,0.02026252076029778,0.007470700424164534,-0.001055083004757762,-0.003836750984191895,-0.00235062837600708,0.001674354076385498,XArbitraryZVertical,-0.317934460175937,-0.4056787244266289,0.2396014018485075,-0.8227597059839181,0.8199073076248169,-0.328764945268631,-0.4686849117279053,0,0,0,-1,-1,20441.144005625,unknown,2,2025-04-21T16:46:38.875+03:00,2025-04-20T21:57:49.637+03:00,6805,0.9866872,0,0,5579.851,5,6,2025-04-21T16:43:22.849+03:00,766936001.5555496,0,-38.75,100.1976,1,0.3,2025-04-21T16:46:36.105+03:00,79,1.316666666666667,2025-04-21T12:30:07.995+03:00,0.02023345852159405,0
2025-04-21T16:46:42.081+03:00,1745243200.681371,40.9522196526657,29.14029648939994,76.2561,-1,-1,-1,-1,30,20.62944476133531,-9999,20444.31676666667,0.822723388671875,-0.327301025390625,-0.46533203125,20444.30669066667,-0.7625399208547665,1.05161265853089,0.3351289944998968,0.0207828376442194,-0.001463738735765219,-0.001346732373349369,-0.005332887172698975,-0.007153183221817017,0.001664698123931885,XArbitraryZVertical,-0.3180390919109033,-0.4056684732543134,0.2396300310385415,-0.8227159834411855,0.8199232816696167,-0.3288909792900085,-0.4685684442520142,0,0,0,-1,-1,20441.144005625,unknown,2,2025-04-21T16:46:38.875+03:00,2025-04-20T21:57:49.637+03:00,6805,0.9866872,0,0,5579.851,5,6,2025-04-21T16:43:22.849+03:00,766936001.5555496,0,-38.75,100.1976,1,0.3,2025-04-21T16:46:36.105+03:00,79,1.316666666666667,2025-04-21T12:30:07.995+03:00,0.02023345852159405,0
2025-04-21T16:46:42.081+03:00,1745243200.681371,40.9522196526657,29.14029648939994,76.2561,-1,-1,-1,-1,30,20.62944476133531,-9999,20444.32684366667,0.8233795166015625,-0.3242950439453125,-0.4619598388671875,20444.31676666667,-0.7628067842222462,1.051622606979777,0.3352594702818686,0.03190499916672707,-0.01415663026273251,-0.002654344541952014,-0.0006310343742370605,-0.004283368587493896,0.001696288585662842,XArbitraryZVertical,-0.3181440016982583,-0.4056043477110894,0.239704757297127,-0.8226853026812668,0.8198907375335693,-0.3290142118930817,-0.4685390293598175,0,0,0,-1,-1,20441.144005625,unknown,2,2025-04-21T16:46:38.875+03:00,2025-04-20T21:57:49.637+03:00,6805,0.9866872,0,0,5579.851,5,6,2025-04-21T16:43:22.849+03:00,766936001.5555496,0,-38.75,100.1976,1,0.3,2025-04-21T16:46:36.105+03:00,79,1.316666666666667,2025-04-21T12:30:07.995+03:00,0.02023345852159405,0
2025-04-21T16:46:42.087+03:00,1745243200.681371,40.9522196526657,29.14029648939994,76.2561,-1,-1,-1,-1,30,20.62944476133531,-9999,20444.33691966667,0.8176727294921875,-0.32244873046875,-0.465118408203125,20444.32684366667,-0.7631479254808375,1.051581942491555,0.3354129354549694,0.03722093254327774,-0.0126695204526186,-0.001850469270721078,0.003399133682250977,0.00329253077507019,0.004161238670349121,XArbitraryZVertical,-0.3182666348248627,-0.405503017363388,0.2398121862156355,-0.8226565326956329,0.8198278546333313,-0.3291591107845306,-0.4685473144054413,0,0,0,-1,-1,20441.144005625,unknown,2,2025-04-21T16:46:38.875+03:00,2025-04-20T21:57:49.637+03:00,6805,0.9866872,0,0,5579.851,5,6,2025-04-21T16:43:22.849+03:00,766936001.5555496,0,-38.75,100.1976,1,0.3,2025-04-21T16:46:36.105+03:00,79,1.316666666666667,2025-04-21T12:30:07.995+03:00,0.02023345852159405,0
2025-04-21T16:46:42.097+03:00,1745243200.681371,40.9522196526657,29.14029648939994,76.2561,-1,-1,-1,-1,30,20.62944476133531,-9999,20444.34699566667,0.8150787353515625,-0.32269287109375,-0.47760009765625,20444.33691966667,-0.7634943101646086,1.051576171563734,0.3355958491142426,0.04010273888707161,-0.01076855696737766,-0.001016633585095406,0.002553761005401611,0.005769342184066772,0.007157325744628906,XArbitraryZVertical,-0.3184056956375804,-0.4054093479899115,0.2399086580461176,-0.8226207476390436,0.8197728395462036,-0.3293318450450897,-0.4685221612453461,0,0,0,-1,-1,20441.144005625,unknown,2,2025-04-21T16:46:38.875+03:00,2025-04-20T21:57:49.637+03:00,6805,0.9866872,0,0,5579.851,5,6,2025-04-21T16:43:22.849+03:00,766936001.5555496,0,-38.75,100.1976,1,0.3,2025-04-21T16:46:36.105+03:00,79,1.316666666666667,2025-04-21T12:30:07.995+03:00,0.02023345852159405,0
2025-04-21T16:46:42.107+03:00,1745243200.681371,40.9522196526657,29.14029648939994,76.2561,-1,-1,-1,-1,30,20.62944476133531,-9999,20444.35707166667,0.8151397705078125,-0.3218994140625,-0.495697021484375,20444.34699566667,-0.7639343401129693,1.051593199322981,0.3357844553485301,0.05209468677639961,-0.01688184402883053,-0.007650568149983883,-0.003213882446289062,0.006466269493103027,0.001970350742340088,XArbitraryZVertical,-0.31856859571031,-0.4053089747254505,0.2400385496426264,-0.8225692681525398,0.8197268843650818,-0.3295099139213562,-0.4684773683547974,0,0,0,-1,-1,20441.144005625,unknown,2,2025-04-21T16:46:38.875+03:00,2025-04-20T21:57:49.637+03:00,6805,0.9866872,0,0,5579.851,5,6,2025-04-21T16:43:22.849+03:00,766936001.5555496,0,-38.75,100.1976,1,0.3,2025-04-21T16:46:36.105+03:00,79,1.316666666666667,2025-04-21T12:30:07.995+03:00,0.02023345852159405,0
2025-04-21T16:46:42.117+03:00,1745243200.681371,40.9522196526657,29.14029648939994,76.2561,-1,-1,-1,-1,30,20.62944476133531,-9999,20444.36714866667,0.81573486328125,-0.3136749267578125,-0.50872802734375,20444.35707166667,-0.7646621319509462,1.05159437162824,0.3360138289837162,0.09134701639413834,-0.03172310814261436,-0.01849336177110672,-0.004552543163299561,0.007277905941009521,-0.01134327054023743,XArbitraryZVertical,-0.3188034010433475,-0.4051480872385911,0.2402788250589167,-0.8224872795092331,0.8196617364883423,-0.3297264575958252,-0.4684388339519501,0,0,0,-1,-1,20441.144005625,unknown,2,2025-04-21T16:46:38.875+03:00,2025-04-20T21:57:49.637+03:00,6805,0.9866872,0,0,5579.851,5,6,2025-04-21T16:43:22.849+03:00,766936001.5555496,0,-38.75,100.1976,1,0.3,2025-04-21T16:46:36.105+03:00,79,1.316666666666667,2025-04-21T12:30:07.995+03:00,0.02023345852159405,0
2025-04-21T16:46:42.127+03:00,1745243200.681371,40.9522196526657,29.14029648939994,76.2561,-1,-1,-1,-1,30,20.62944476133531,-9999,20444.37722466667,0.817901611328125,-0.2946014404296875,-0.5118255615234375,20444.36714866667,-0.765917336210329,1.05161002299857,0.3364156057370367,0.159821942448616,-0.04727330431342125,-0.02980167791247368,-0.004551589488983154,0.00849643349647522,-0.02971717715263367,XArbitraryZVertical,-0.3192120885906107,-0.4048747025417992,0.24068940598856,-0.8223433177143452,0.8195539712905884,-0.3301057517528534,-0.4683602452278137,0,0,0,-1,-1,20441.144005625,unknown,2,2025-04-21T16:46:38.875+03:00,2025-04-20T21:57:49.637+03:00,6805,0.9866872,0,0,5579.851,5,6,2025-04-21T16:43:22.849+03:00,766936001.5555496,0,-38.75,100.1976,1,0.3,2025-04-21T16:46:36.105+03:00,79,1.316666666666667,2025-04-21T12:30:07.995+03:00,0.02023345852159405,0
2025-04-21T16:46:42.137+03:00,1745243200.681371,40.9522196526657,29.14029648939994,76.2561,-1,-1,-1,-1,30,20.62944476133531,-9999,20444.38730066667,0.8238525390625,-0.2807464599609375,-0.5186004638671875,20444.37722466667,-0.7680534970294941,1.051650942000183,0.337179183459993,0.2619674801826477,-0.08852620422840118,-0.03604865074157715,-0.003466665744781494,0.01918107271194458,-0.04131999611854553,XArbitraryZVertical,-0.3199390771265755,-0.4043986020229943,0.2413651648148385,-0.8220969850200056,0.8193540573120117,-0.3308264315128326,-0.4682015180587769,0,0,0,-1,-1,20441.144005625,unknown,2,2025-04-21T16:46:38.875+03:00,2025-04-20T21:57:49.637+03:00,6805,0.9866872,0,0,5579.851,5,6,2025-04-21T16:43:22.849+03:00,766936001.5555496,0,-38.75,100.1976,1,0.3,2025-04-21T16:46:36.105+03:00,79,1.316666666666667,2025-04-21T12:30:07.995+03:00,0.02023345852159405,0
2025-04-21T16:46:42.147+03:00,1745243200.681371,40.9522196526657,29.14029648939994,76.2561,-1,-1,-1,-1,30,20.62944476133531,-9999,20444.39737766667,0.832550048828125,-0.281280517578125,-0.5357666015625,20444.38730066667,-0.7713678617839893,1.05140200939812,0.3382965624428861,0.3831820785999298,-0.1550144106149673,-0.07437033951282501,-0.0007093548774719238,0.0399039089679718,-0.04378700256347656,XArbitraryZVertical,-0.3210022154485196,-0.4035427064457534,0.2424804819737346,-0.821774928481802,0.8189160823822021,-0.3318806886672974,-0.4682217240333557,0,0,0,-1,-1,20441.144005625,unknown,2,2025-04-21T16:46:38.875+03:00,2025-04-20T21:57:49.637+03:00,6805,0.9866872,0,0,5579.851,5,6,2025-04-21T16:43:22.849+03:00,766936001.5555496,0,-38.75,100.1976,1,0.3,2025-04-21T16:46:36.105+03:00,79,1.316666666666667,2025-04-21T12:30:07.995+03:00,0.02023345852159405,0
2025-04-21T16:46:42.157+03:00,1745243200.681371,40.9522196526657,29.14029648939994,76.2561,-1,-1,-1,-1,30,20.62944476133531,-9999,20444.40745366667,0.837554931640625,-0.2689056396484375,-0.5439605712890625,20444.39737766667,-0.7759975129528262,1.051277118067317,0.3398792235493738,0.5360283255577087,-0.1847661882638931,-0.0908539816737175,0.007343947887420654,0.05383235216140747,-0.05268937349319458,XArbitraryZVertical,-0.3225194169651127,-0.4024300026390893,0.2439962236617457,-0.8212777295638762,0.8184006214141846,-0.3333732187747955,-0.4680626392364502,0,0,0,-1,-1,20441.144005625,unknown,2,2025-04-21T16:46:38.875+03:00,2025-04-20T21:57:49.637+03:00,6805,0.9866872,0,0,5579.851,5,6,2025-04-21T16:43:22.849+03:00,766936001.5555496,0,-38.75,100.1976,1,0.3,2025-04-21T16:46:36.105+03:00,79,1.316666666666667,2025-04-21T12:30:07.995+03:00,0.02023345852159405,0
2025-04-21T16:46:42.167+03:00,1745243200.681371,40.9522196526657,29.14029648939994,76.2561,-1,-1,-1,-1,30,20.62944476133531,-9999,20444.41752966667,0.8413848876953125,-0.228851318359375,-0.5856475830078125,20444.40745366667,-0.7826601184892792,1.051272879649066,0.3421751474171025,0.7903247475624084,-0.3013775646686554,-0.1557300835847855,0.01518416404724121,0.05489739775657654,-0.06916517019271851,XArbitraryZVertical,-0.3247250643764323,-0.4008880167616,0.2461424647318302,-0.8205219114657702,0.817732036113739,-0.335536926984787,-0.4676848649978638,0,0,0,-1,-1,20441.144005625,unknown,2,2025-04-21T16:46:38.875+03:00,2025-04-20T21:57:49.637+03:00,6805,0.9866872,0,0,5579.851,5,6,2025-04-21T16:43:22.849+03:00,766936001.5555496,0,-38.75,100.1976,1,0.3,2025-04-21T16:46:36.105+03:00,79,1.316666666666667,2025-04-21T12:30:07.995+03:00,0.02023345852159405,0
2025-04-21T16:46:42.177+03:00,1745243200.681371,40.9522196526657,29.14029648939994,76.2561,-1,-1,-1,-1,30,20.62944476133531,-9999,20444.42760566667,0.8242034912109375,-0.19976806640625,-0.646148681640625,20444.41752966667,-0.7925082179356584,1.051439378227875,0.3450311002967543,1.074404358863831,-0.2863693237304688,-0.218095988035202,0.0218161940574646,0.07310467958450317,-0.07864418625831604,XArbitraryZVertical,-0.327791329293623,-0.3987696818379584,0.2494197056689422,-0.8193443971124081,0.8169746398925781,-0.338225930929184,-0.4670711755752563,0,0,0,-1,-1,20441.144005625,unknown,2,2025-04-21T16:46:38.875+03:00,2025-04-20T21:57:49.637+03:00,6805,0.9866872,0,0,5579.851,5,6,2025-04-21T16:43:22.849+03:00,766936001.5555496,0,-38.75,100.1976,1,0.3,2025-04-21T16:46:36.105+03:00,79,1.316666666666667,2025-04-21T12:30:07.995+03:00,0.02023345852159405,0
2025-04-21T16:46:42.188+03:00,1745243200.681371,40.9522196526657,29.14029648939994,76.2561,-1,-1,-1,-1,30,20.62944476133531,-9999,20444.43768266667,0.822418212890625,-0.215301513671875,-0.65576171875,20444.42760566667,-0.8049194813670417,1.052333070925473,0.3491406633235724,1.326884984970093,-0.3863610923290253,-0.2432135492563248,0.0245511531829834,0.1182899177074432,-0.1283002495765686,XArbitraryZVertical,-0.3319138199711272,-0.3962437875495696,0.2532964089432417,-0.8177193412339979,0.8161775469779968,-0.3420904576778412,-0.4656481444835663,0,0,0,-1,-1,20441.144005625,unknown,2,2025-04-21T16:46:38.875+03:00,2025-04-20T21:57:49.637+03:00,6805,0.9866872,0,0,5579.851,5,6,2025-04-21T16:43:22.849+03:00,766936001.5555496,0,-38.75,100.1976,1,0.3,2025-04-21T16:46:36.105+03:00,79,1.316666666666667,2025-04-21T12:30:07.995+03:00,0.02023345852159405,0
2025-04-21T16:46:42.198+03:00,1745243200.681371,40.9522196526657,29.14029648939994,76.2561,-1,-1,-1,-1,30,20.62944476133531,-9999,20444.44775866667,0.84503173828125,-0.2796630859375,-0.6358184814453125,20444.43768266667,-0.8190236564525351,1.053589516690713,0.3544780513138145,1.467090249061584,-0.3329098522663116,-0.1231920793652534,0.007895767688751221,0.1491640508174896,-0.1879290342330933,XArbitraryZVertical,-0.3368525834437531,-0.393286040075527,0.2574738367572594,-0.815820737222236,0.815163254737854,-0.3471009135246277,-0.4637128412723541,0,0,0,-1,-1,20441.144005625,unknown,2,2025-04-21T16:46:38.875+03:00,2025-04-20T21:57:49.637+03:00,6805,0.9866872,0,0,5579.851,5,6,2025-04-21T16:43:22.849+03:00,766936001.5555496,0,-38.75,100.1976,1,0.3,2025-04-21T16:46:36.105+03:00,79,1.316666666666667,2025-04-21T12:30:07.995+03:00,0.02023345852159405,0
2025-04-21T16:46:42.208+03:00,1745243200.681371,40.9522196526657,29.14029648939994,76.2561,-1,-1,-1,-1,30,20.62944476133531,-9999,20444.45783466667,0.881317138671875,-0.32958984375,-0.6311187744140625,20444.44775866667,-0.8335401815245211,1.054978222038941,0.3613390964928246,1.537443041801453,-0.3780598640441895,-0.02014072798192501,0.009053409099578857,0.1317408382892609,-0.1911320090293884,XArbitraryZVertical,-0.3424237990082721,-0.3899339591055361,0.2613851528008636,-0.8138643835354351,0.8137156963348389,-0.353527158498764,-0.4613949060440063,0,0,0,-1,-1,20441.144005625,unknown,2,2025-04-21T16:46:38.875+03:00,2025-04-20T21:57:49.637+03:00,6805,0.9866872,0,0,5579.851,5,6,2025-04-21T16:43:22.849+03:00,766936001.5555496,0,-38.75,100.1976,1,0.3,2025-04-21T16:46:36.105+03:00,79,1.316666666666667,2025-04-21T12:30:07.995+03:00,0.02023345852159405,0
2025-04-21T16:46:42.218+03:00,1745243200.681371,40.9522196526657,29.14029648939994,76.2561,-1,-1,-1,-1,30,20.62944476133531,-9999,20444.46791166667,0.9035491943359375,-0.332000732421875,-0.6284942626953125,20444.45783466667,-0.8482357616465281,1.056374697279399,0.3694730692311267,1.647414326667786,-0.4555914103984833,0.0954631045460701,0.03816193342208862,0.07273313403129578,-0.1767311096191406,XArbitraryZVertical,-0.3484612848110863,-0.3862133197672685,0.2650174027678547,-0.8118988196424525,0.8118289113044739,-0.3611240983009338,-0.4588280022144318,0,0,0,-1,-1,20441.144005625,unknown,2,2025-04-21T16:46:38.875+03:00,2025-04-20T21:57:49.637+03:00,6805,0.9866872,0,0,5579.851,5,6,2025-04-21T16:43:22.849+03:00,766936001.5555496,0,-38.75,100.1976,1,0.3,2025-04-21T16:46:36.105+03:00,79,1.316666666666667,2025-04-21T12:30:07.995+03:00,0.02023345852159405,0
2025-04-21T16:46:42.228+03:00,1745243200.681371,40.9522196526657,29.14029648939994,76.2561,-1,-1,-1,-1,30,20.62944476133531,-9999,20444.47798766667,0.9088592529296875,-0.2920379638671875,-0.638916015625,20444.46791166667,-0.8638664300431151,1.05666835735832,0.3789607525806971,1.745546936988831,-0.5818911194801331,0.1109924912452698,0.07598960399627686,0.03743579983711243,-0.17373126745224,XArbitraryZVertical,-0.3549783943120151,-0.3815079489836015,0.2688500398750741,-0.8100380484643445,0.8089438080787659,-0.3699551522731781,-0.4568840563297272,0,0,0,-1,-1,20441.144005625,unknown,2,2025-04-21T16:46:38.875+03:00,2025-04-20T21:57:49.637+03:00,6805,0.9866872,0,0,5579.851,5,6,2025-04-21T16:43:22.849+03:00,766936001.5555496,0,-38.75,100.1976,1,0.3,2025-04-21T16:46:36.105+03:00,79,1.316666666666667,2025-04-21T12:30:07.995+03:00,0.02023345852159405,0
2025-04-21T16:46:42.238+03:00,1745243200.681371,40.9522196526657,29.14029648939994,76.2561,-1,-1,-1,-1,30,20.62944476133531,-9999,20444.48806366667,0.902984619140625,-0.2604827880859375,-0.6656494140625,20444.47798766667,-0.8799407981146159,1.0573377624322,0.3893106207418052,1.848362565040588,-0.5070147514343262,0.2662108540534973,0.09982967376708984,0.05203622579574585,-0.1751099824905396,XArbitraryZVertical,-0.3618816352829157,-0.3765940276493366,0.2725504156493885,-0.8080438080086487,0.8058709502220154,-0.3795507252216339,-0.4544372260570526,0,0,0,-1,-1,20441.144005625,unknown,2,2025-04-21T16:46:38.875+03:00,2025-04-20T21:57:49.637+03:00,6805,0.9866872,0,0,5579.851,5,6,2025-04-21T16:43:22.849+03:00,766936001.5555496,0,-38.75,100.1976,1,0.3,2025-04-21T16:46:36.105+03:00,79,1.316666666666667,2025-04-21T12:30:07.995+03:00,0.02023345852159405,0
2025-04-21T16:46:42.248+03:00,1745243200.681371,40.9522196526657,29.14029648939994,76.2561,-1,-1,-1,-1,30,20.62944476133531,-9999,20444.49814066667,0.8992462158203125,-0.2560577392578125,-0.667236328125,20444.48806366667,-0.896166200121483,1.05895589391099,0.4015873577305291,1.941624999046326,-0.4088681936264038,0.3588887155056,0.1051259636878967,0.1040758490562439,-0.1910752058029175,XArbitraryZVertical,-0.3695685067323636,-0.3714982407789609,0.2756107213400075,-0.805882657421522,0.8024820685386658,-0.390879899263382,-0.4508163630962372,0,0,0,-1,-1,20441.144005625,unknown,2,2025-04-21T16:46:38.875+03:00,2025-04-20T21:57:49.637+03:00,6805,0.9866872,0,0,5579.851,5,6,2025-04-21T16:43:22.849+03:00,766936001.5555496,0,-38.75,100.1976,1,0.3,2025-04-21T16:46:36.105+03:00,79,1.316666666666667,2025-04-21T12:30:07.995+03:00,0.02023345852159405,0
2025-04-21T16:46:42.258+03:00,1745243200.681371,40.9522196526657,29.14029648939994,76.2561,-1,-1,-1,-1,30,20.62944476133531,-9999,20444.50821666667,0.880706787109375,-0.277862548828125,-0.645721435546875,20444.49814066667,-0.9132183179755672,1.061858033436042,0.4148858202362863,2.061423540115356,-0.3673034608364105,0.4422185122966766,0.1046165227890015,0.1454867422580719,-0.2230169773101807,XArbitraryZVertical,-0.3778706675829374,-0.3664112076061962,0.278458935297779,-0.8033785651826776,0.7991767525672913,-0.4030854403972626,-0.445913165807724,0,0,0,-1,-1,20441.144005625,unknown,2,2025-04-21T16:46:38.875+03:00,2025-04-20T21:57:49.637+03:00,6805,0.9866872,0,0,5579.851,5,6,2025-04-21T16:43:22.849+03:00,766936001.5555496,0,-38.75,100.1976,1,0.3,2025-04-21T16:46:36.105+03:00,79,1.316666666666667,2025-04-21T12:30:07.995+03:00,0.02023345852159405,0
2025-04-21T16:46:42.269+03:00,1745243200.681371,40.9522196526657,29.14029648939994,76.2561,-1,-1,-1,-1,30,20.62944476133531,-9999,20444.51829266667,0.8752593994140625,-0.2852325439453125,-0.6227569580078125,20444.50821666667,-0.9315196689441527,1.066060233509465,0.4293300553994843,2.212602376937866,-0.2897280156612396,0.4758548438549042,0.100986659526825,0.1578848659992218,-0.224235862493515,XArbitraryZVertical,-0.3868963863202847,-0.3612014705026098,0.281205627115512,-0.8004798522080788,0.7958638668060303,-0.4162617623806,-0.4396893680095673,0,0,0,-1,-1,20441.144005625,unknown,2,2025-04-21T16:46:38.875+03:00,2025-04-20T21:57:49.637+03:00,6805,0.9866872,0,0,5579.851,5,6,2025-04-21T16:43:22.849+03:00,766936001.5555496,0,-38.75,100.1976,1,0.3,2025-04-21T16:46:36.105+03:00,79,1.316666666666667,2025-04-21T12:30:07.995+03:00,0.02023345852159405,0
2025-04-21T16:46:42.278+03:00,1745243200.681371,40.9522196526657,29.14029648939994,76.2561,-1,-1,-1,-1,30,20.62944476133531,-9999,20444.52836866667,0.87152099609375,-0.2963409423828125,-0.5753021240234375,20444.51829266667,-0.9502321475850356,1.071006733015097,0.4447673481856473,2.186448335647583,-0.2693114280700684,0.569976806640625,0.08674931526184082,0.1507680416107178,-0.2103132605552673,XArbitraryZVertical,-0.3963435815488846,-0.3558143052692471,0.2836392311257752,-0.7974062101803672,0.7922942638397217,-0.4302478730678558,-0.4326158761978149,0,0,0,-1,-1,20441.144005625,unknown,2,2025-04-21T16:46:38.875+03:00,2025-04-20T21:57:49.637+03:00,6805,0.9866872,0,0,5579.851,5,6,2025-04-21T16:43:22.849+03:00,766936001.5555496,0,-38.75,100.1976,1,0.3,2025-04-21T16:46:36.105+03:00,79,1.316666666666667,2025-04-21T12:30:07.995+03:00,0.02023345852159405,0
2025-04-21T16:46:42.288+03:00,1745243200.681371,40.9522196526657,29.14029648939994,76.2561,-1,-1,-1,-1,30,20.62944476133531,-9999,20444.53844566667,0.855682373046875,-0.350616455078125,-0.5209503173828125,20444.52836866667,-0.9667611650295364,1.075904779511988,0.4596923039881612,1.772430181503296,-0.1873618215322495,0.6195893287658691,0.08632022142410278,0.1580890417098999,-0.1936606764793396,XArbitraryZVertical,-0.4051115709955493,-0.3508109215913154,0.2852738425193738,-0.794628911477686,0.7886644601821899,-0.443672388792038,-0.4256326258182526,0,0,0,-1,-1,20441.144005625,unknown,2,2025-04-21T16:46:38.875+03:00,2025-04-20T21:57:49.637+03:00,6805,0.9866872,0,0,5579.851,5,6,2025-04-21T16:43:22.849+03:00,766936001.5555496,0,-38.75,100.1976,1,0.3,2025-04-21T16:46:36.105+03:00,79,1.316666666666667,2025-04-21T12:30:07.995+03:00,0.02023345852159405,0
2025-04-21T16:46:42.298+03:00,1745243200.681371,40.9522196526657,29.14029648939994,76.2561,-1,-1,-1,-1,30,20.62944476133531,-9999,20444.54852166667,0.8367462158203125,-0.4600067138671875,-0.501495361328125,20444.53844566667,-0.9778946066919654,1.079863582654395,0.4720618529883073,1.119189858436584,-0.03324923291802406,0.5966925024986267,0.08514708280563354,0.1547969877719879,-0.1475716233253479,XArbitraryZVertical,-0.4118428918377884,-0.3470470399718196,0.2855803064369484,-0.7927090853569024,0.785443127155304,-0.454723596572876,-0.4198875725269318,0,0,0,-1,-1,20441.144005625,unknown,2,2025-04-21T16:46:38.875+03:00,2025-04-20T21:57:49.637+03:00,6805,0.9866872,0,0,5579.851,5,6,2025-04-21T16:43:22.849+03:00,766936001.5555496,0,-38.75,100.1976,1,0.3,2025-04-21T16:46:36.105+03:00,79,1.316666666666667,2025-04-21T12:30:07.995+03:00,0.02023345852159405,0
2025-04-21T16:46:42.308+03:00,1745243200.681371,40.9522196526657,29.14029648939994,76.2561,-1,-1,-1,-1,30,20.62944476133531,-9999,20444.55859766667,0.820709228515625,-0.554656982421875,-0.513580322265625,20444.54852166667,-0.9831947791773692,1.082485595756064,0.4807130912731696,0.5533049702644348,0.09223765134811401,0.4743136465549469,0.07035571336746216,0.1008547246456146,-0.1004987955093384,XArbitraryZVertical,-0.4160657914131592,-0.3448282093274646,0.2848165713908934,-0.7917463495145712,0.7830378413200378,-0.4624115526676178,-0.4159655272960663,0,0,0,-1,-1,20441.144005625,unknown,2,2025-04-21T16:46:38.875+03:00,2025-04-20T21:57:49.637+03:00,6805,0.9866872,0,0,5579.851,5,6,2025-04-21T16:43:22.849+03:00,766936001.5555496,0,-38.75,100.1976,1,0.3,2025-04-21T16:46:36.105+03:00,79,1.316666666666667,2025-04-21T12:30:07.995+03:00,0.02023345852159405,0
2025-04-21T16:46:42.318+03:00,1745243200.681371,40.9522196526657,29.14029648939994,76.2561,-1,-1,-1,-1,30,20.62944476133531,-9999,20444.56867466667,0.8209228515625,-0.536376953125,-0.5397186279296875,20444.55859766667,-0.9850074232812598,1.084495470575854,0.4867047683822117,0.3168221414089203,0.1281698197126389,0.4433655738830566,0.05379629135131836,-0.007061183452606201,-0.08834585547447205,XArbitraryZVertical,-0.4186851485344449,-0.3437418882956721,0.28350218861672,-0.7913094180269662,0.7814087271690369,-0.467715859413147,-0.4130885303020477,0,0,0,-1,-1,20441.144005625,unknown,2,2025-04-21T16:46:38.875+03:00,2025-04-20T21:57:49.637+03:00,6805,0.9866872,0,0,5579.851,5,6,2025-04-21T16:43:22.849+03:00,766936001.5555496,0,-38.75,100.1976,1,0.3,2025-04-21T16:46:36.105+03:00,79,1.316666666666667,2025-04-21T12:30:07.995+03:00,0.02023345852159405,0
2025-04-21T16:46:42.329+03:00,1745243200.681371,40.9522196526657,29.14029648939994,76.2561,-1,-1,-1,-1,30,20.62944476133531,-9999,20444.57875066667,0.82318115234375,-0.4360809326171875,-0.5292816162109375,20444.56867466667,-0.9852877248901657,1.085980159954917,0.492416750821738,0.2770029902458191,0.1391640156507492,0.5487695932388306,0.04048454761505127,-0.08794239163398743,-0.1067799925804138,XArbitraryZVertical,-0.4208647654660344,-0.3428334266761556,0.2817604775403402,-0.7911694741958185,0.779644787311554,-0.4727568924427032,-0.4106761813163757,0,0,0,-1,-1,20441.144005625,unknown,2,2025-04-21T16:46:38.875+03:00,2025-04-20T21:57:49.637+03:00,6805,0.9866872,0,0,5579.851,5,6,2025-04-21T16:43:22.849+03:00,766936001.5555496,0,-38.75,100.1976,1,0.3,2025-04-21T16:46:36.105+03:00,79,1.316666666666667,2025-04-21T12:30:07.995+03:00,0.02023345852159405,0
2025-04-21T16:46:42.339+03:00,1745243200.681371,40.9522196526657,29.14029648939994,76.2561,-1,-1,-1,-1,30,20.62944476133531,-9999,20444.58882666667,0.79840087890625,-0.3917083740234375,-0.5046844482421875,20444.57875066667,-0.9853478604245334,1.087592520487791,0.4994082823390582,0.3938584923744202,0.1797125041484833,0.6676328778266907,0.04417324066162109,-0.04636222124099731,-0.1326240301132202,XArbitraryZVertical,-0.4234472855269769,-0.3416957174727163,0.2795527814700725,-0.7910667667183098,0.7773599624633789,-0.4789061844348907,-0.4078728556632996,0,0,0,-1,-1,20441.144005625,unknown,2,2025-04-21T16:46:38.875+03:00,2025-04-20T21:57:49.637+03:00,6805,0.9866872,0,0,5579.851,5,6,2025-04-21T16:43:22.849+03:00,766936001.5555496,0,-38.75,100.1976,1,0.3,2025-04-21T16:46:36.105+03:00,79,1.316666666666667,2025-04-21T12:30:07.995+03:00,0.02023345852159405,0
2025-04-21T16:46:42.349+03:00,1745243200.681371,40.9522196526657,29.14029648939994,76.2561,-1,-1,-1,-1,30,20.62944476133531,-9999,20444.59890366667,0.7538604736328125,-0.4520721435546875,-0.474334716796875,20444.58882666667,-0.9863664896890225,1.090150524165109,0.5078090206438397,0.5229695439338684,0.2310214340686798,0.7173264622688293,0.04660511016845703,0.06112366914749146,-0.1229842901229858,XArbitraryZVertical,-0.4267860226030252,-0.3403665649610514,0.2771321345301258,-0.7906970953703411,0.7748059630393982,-0.4862639009952545,-0.4040085971355438,0,0,0,-1,-1,20441.144005625,unknown,2,2025-04-21T16:46:38.875+03:00,2025-04-20T21:57:49.637+03:00,6805,0.9866872,0,0,5579.851,5,6,2025-04-21T16:43:22.849+03:00,766936001.5555496,0,-38.75,100.1976,1,0.3,2025-04-21T16:46:36.105+03:00,79,1.316666666666667,2025-04-21T12:30:07.995+03:00,0.02023345852159405,0
2025-04-21T16:46:42.359+03:00,1745243200.681371,40.9522196526657,29.14029648939994,76.2561,-1,-1,-1,-1,30,20.62944476133531,-9999,20444.60897966667,0.7235870361328125,-0.551666259765625,-0.4405517578125,20444.59890366667,-0.9878008711475272,1.093394564818879,0.5165747029351188,0.4714837074279785,0.2735702097415924,0.7073260545730591,0.0210379958152771,0.09986189007759094,-0.101411759853363,XArbitraryZVertical,-0.4303952915710553,-0.3391169686059318,0.2746157909243097,-0.7901555299591567,0.7722969651222229,-0.4939046800136566,-0.399519145488739,0,0,0,-1,-1,20441.144005625,unknown,2,2025-04-21T16:46:38.875+03:00,2025-04-20T21:57:49.637+03:00,6805,0.9866872,0,0,5579.851,5,6,2025-04-21T16:43:22.849+03:00,766936001.5555496,0,-38.75,100.1976,1,0.3,2025-04-21T16:46:36.105+03:00,79,1.316666666666667,2025-04-21T12:30:07.995+03:00,0.02023345852159405,0
2025-04-21T16:46:42.369+03:00,1745243200.681371,40.9522196526657,29.14029648939994,76.2561,-1,-1,-1,-1,30,20.62944476133531,-9999,20444.61905566667,0.7154388427734375,-0.6198272705078125,-0.3951416015625,20444.60897966667,-0.9879028937679879,1.096456654528961,0.5243944081030066,0.2365450114011765,0.3260928690433502,0.6655259132385254,-0.02074390649795532,0.03642511367797852,-0.07457929849624634,XArbitraryZVertical,-0.4334230953630678,-0.3383139224997738,0.2718559693252894,-0.7897989350706228,0.7700572609901428,-0.5006888508796692,-0.3953762352466583,0,0,0,-1,-1,20441.144005625,unknown,2,2025-04-21T16:46:38.875+03:00,2025-04-20T21:57:49.637+03:00,6805,0.9866872,0,0,5579.851,5,6,2025-04-21T16:43:22.849+03:00,766936001.5555496,0,-38.75,100.1976,1,0.3,2025-04-21T16:46:36.105+03:00,79,1.316666666666667,2025-04-21T12:30:07.995+03:00,0.02023345852159405,0
2025-04-21T16:46:42.379+03:00,1745243200.681371,40.9522196526657,29.14029648939994,76.2561,-1,-1,-1,-1,30,20.62944476133531,-9999,20444.62913166667,0.7257537841796875,-0.64093017578125,-0.3675537109375,20444.61905566667,-0.9854524879885416,1.09866995882748,0.5304784367414452,-0.06470696628093719,0.3576105833053589,0.601081371307373,-0.04716449975967407,-0.05670630931854248,-0.04285672307014465,XArbitraryZVertical,-0.4353187367981085,-0.3381692965808233,0.2687378528133113,-0.7898854392220511,0.7682032585144043,-0.5059460997581482,-0.392278254032135,0,0,0,-1,-1,20441.144005625,unknown,2,2025-04-21T16:46:38.875+03:00,2025-04-20T21:57:49.637+03:00,6805,0.9866872,0,0,5579.851,5,6,2025-04-21T16:43:22.849+03:00,766936001.5555496,0,-38.75,100.1976,1,0.3,2025-04-21T16:46:36.105+03:00,79,1.316666666666667,2025-04-21T12:30:07.995+03:00,0.02023345852159405,0
2025-04-21T16:46:42.389+03:00,1745243200.681371,40.9522196526657,29.14029648939994,76.2561,-1,-1,-1,-1,30,20.62944476133531,-9999,20444.63920866667,0.7393035888671875,-0.6197509765625,-0.351409912109375,20444.62913166667,-0.9804372866562238,1.099769086372563,0.5347377289656311,-0.2958089709281921,0.3616739809513092,0.5455828905105591,-0.05044388771057129,-0.1150639653205872,0.0001017451286315918,XArbitraryZVertical,-0.4360234290031345,-0.3386111149858054,0.2653452544821565,-0.7904542020618066,0.766706645488739,-0.509615421295166,-0.3904521763324738,0,0,0,-1,-1,20441.144005625,unknown,2,2025-04-21T16:46:38.875+03:00,2025-04-20T21:57:49.637+03:00,6805,0.9866872,0,0,5579.851,5,6,2025-04-21T16:43:22.849+03:00,766936001.5555496,0,-38.75,100.1976,1,0.3,2025-04-21T16:46:36.105+03:00,79,1.316666666666667,2025-04-21T12:30:07.995+03:00,0.02023345852159405,0
2025-04-21T16:46:42.399+03:00,1745243200.681371,40.9522196526657,29.14029648939994,76.2561,-1,-1,-1,-1,30,20.62944476133531,-9999,20444.64928466667,0.7433319091796875,-0.5832672119140625,-0.34002685546875,20444.63920866667,-0.973762782805868,1.100087302584334,0.5376982732138147,-0.4286431670188904,0.3720118403434753,0.4960166811943054,-0.03760814666748047,-0.1278387904167175,0.02387577295303345,XArbitraryZVertical,-0.4359123056051368,-0.3394397617286259,0.2618208049720728,-0.7913348566413808,0.7654828429222107,-0.5121604204177856,-0.3895222246646881,0,0,0,-1,-1,20441.144005625,unknown,2,2025-04-21T16:46:38.875+03:00,2025-04-20T21:57:49.637+03:00,6805,0.9866872,0,0,5579.851,5,6,2025-04-21T16:43:22.849+03:00,766936001.5555496,0,-38.75,100.1976,1,0.3,2025-04-21T16:46:36.105+03:00,79,1.316666666666667,2025-04-21T12:30:07.995+03:00,0.02023345852159405,0
2025-04-21T16:46:42.409+03:00,1745243200.681371,40.9522196526657,29.14029648939994,76.2561,-1,-1,-1,-1,30,20.62944476133531,-9999,20444.65936066667,0.74005126953125,-0.5555877685546875,-0.3144683837890625,20444.64928466667,-0.9664952602153664,1.100137890578482,0.5399294999948928,-0.4608104825019836,0.3796590566635132,0.4601795971393585,-0.02392739057540894,-0.1012807488441467,0.03836303949356079,XArbitraryZVertical,-0.4354222031720284,-0.3404781316171964,0.2583171593164453,-0.7923094004164787,0.7644820809364319,-0.5140755176544189,-0.3889642953872681,0,0,0,-1,-1,20441.144005625,unknown,2,2025-04-21T16:46:38.875+03:00,2025-04-20T21:57:49.637+03:00,6805,0.9866872,0,0,5579.851,5,6,2025-04-21T16:43:22.849+03:00,766936001.5555496,0,-38.75,100.1976,1,0.3,2025-04-21T16:46:36.105+03:00,79,1.316666666666667,2025-04-21T12:30:07.995+03:00,0.02023345852159405,0
2025-04-21T16:46:42.419+03:00,1745243200.681371,40.9522196526657,29.14029648939994,76.2561,-1,-1,-1,-1,30,20.62944476133531,-9999,20444.66943766667,0.7393951416015625,-0.5418853759765625,-0.280029296875,20444.65936066667,-0.9598129232062682,1.10048066609941,0.5420855970156268,-0.3511199355125427,0.3714975118637085,0.436085969209671,-0.02070575952529907,-0.06268942356109619,0.05065929889678955,XArbitraryZVertical,-0.4350418746901556,-0.3415245518708994,0.2549988615843028,-0.7931425580608442,0.7636256814002991,-0.5159236788749695,-0.3881990909576416,0,0,0,-1,-1,20441.144005625,unknown,2,2025-04-21T16:46:38.875+03:00,2025-04-20T21:57:49.637+03:00,6805,0.9866872,0,0,5579.851,5,6,2025-04-21T16:43:22.849+03:00,766936001.5555496,0,-38.75,100.1976,1,0.3,2025-04-21T16:46:36.105+03:00,79,1.316666666666667,2025-04-21T12:30:07.995+03:00,0.02023345852159405,0
2025-04-21T16:46:42.429+03:00,1745243200.681371,40.9522196526657,29.14029648939994,76.2561,-1,-1,-1,-1,30,20.62944476133531,-9999,20444.67951366667,0.738189697265625,-0.5442352294921875,-0.2266845703125,20444.66943766667,-0.9544075538449849,1.101360569480503,0.5444699552070962,-0.2496206164360046,0.3522768318653107,0.3974741697311401,-0.02272486686706543,-0.03531879186630249,0.07677340507507324,XArbitraryZVertical,-0.4350209508745098,-0.3424500996639682,0.2520042767101683,-0.7937118199662964,0.7628676891326904,-0.517964780330658,-0.3869694173336029,0,0,0,-1,-1,20441.144005625,unknown,2,2025-04-21T16:46:38.875+03:00,2025-04-20T21:57:49.637+03:00,6805,0.9866872,0,0,5579.851,5,6,2025-04-21T16:43:22.849+03:00,766936001.5555496,0,-38.75,100.1976,1,0.3,2025-04-21T16:46:36.105+03:00,79,1.316666666666667,2025-04-21T12:30:07.995+03:00,0.02023345852159405,0
2025-04-21T16:46:42.439+03:00,1745243200.681371,40.9522196526657,29.14029648939994,76.2561,-1,-1,-1,-1,30,20.62944476133531,-9999,20444.68958966667,0.736236572265625,-0.55810546875,-0.165130615234375,20444.67951366667,-0.9503253390101614,1.102726237813579,0.5469224274329769,-0.141117051243782,0.3299760520458221,0.3497484624385834,-0.02321529388427734,-0.021747887134552,0.1099622249603271,XArbitraryZVertical,-0.4353071874692834,-0.3432654585694539,0.2494082387450154,-0.7940226332986773,0.7622594833374023,-0.5200610756874084,-0.3853529691696167,0,0,0,-1,-1,20441.144005625,unknown,2,2025-04-21T16:46:38.875+03:00,2025-04-20T21:57:49.637+03:00,6805,0.9866872,0,0,5579.851,5,6,2025-04-21T16:43:22.849+03:00,766936001.5555496,0,-38.75,100.1976,1,0.3,2025-04-21T16:46:36.105+03:00,79,1.316666666666667,2025-04-21T12:30:07.995+03:00,0.02023345852159405,0
2025-04-21T16:46:42.450+03:00,1745243200.681371,40.9522196526657,29.14029648939994,76.2561,-1,-1,-1,-1,30,20.62944476133531,-9999,20444.69966666667,0.730865478515625,-0.5898284912109375,-0.115234375,20444.68958966667,-0.9477001381894453,1.104433958519535,0.54941704447519,-0.03963436558842659,0.2763159871101379,0.2920761406421661,-0.02417588233947754,-0.02320456504821777,0.1650364398956299,XArbitraryZVertical,-0.435896995892318,-0.3438906121623206,0.2473027452524751,-0.7940870752685601,0.7617552280426025,-0.5221901535987854,-0.3834661245346069,0,0,0,-1,-1,20441.144005625,unknown,2,2025-04-21T16:46:38.875+03:00,2025-04-20T21:57:49.637+03:00,6805,0.9866872,0,0,5579.851,5,6,2025-04-21T16:43:22.849+03:00,766936001.5555496,0,-38.75,100.1976,1,0.3,2025-04-21T16:46:36.105+03:00,79,1.316666666666667,2025-04-21T12:30:07.995+03:00,0.02023345852159405,0
2025-04-21T16:46:42.460+03:00,1745243200.681371,40.9522196526657,29.14029648939994,76.2561,-1,-1,-1,-1,30,20.62944476133531,-9999,20444.70974266667,0.722686767578125,-0.6212310791015625,-0.0699615478515625,20444.69966666667,-0.9462288831262595,1.106140578761551,0.5516802213186935,0.01616205461323261,0.2163232564926147,0.2204831540584564,-0.02584594488143921,-0.03732812404632568,0.2236301302909851,XArbitraryZVertical,-0.4366054546016282,-0.3443227723172533,0.2457182526099668,-0.7940025633106057,0.7613502144813538,-0.5241189002990723,-0.3816350102424622,0,0,0,-1,-1,20441.144005625,unknown,2,2025-04-21T16:46:38.875+03:00,2025-04-20T21:57:49.637+03:00,6805,0.9866872,0,0,5579.851,5,6,2025-04-21T16:43:22.849+03:00,766936001.5555496,0,-38.75,100.1976,1,0.3,2025-04-21T16:46:36.105+03:00,79,1.316666666666667,2025-04-21T12:30:07.995+03:00,0.02023345852159405,0
2025-04-21T16:46:42.470+03:00,1745243200.681371,40.9522196526657,29.14029648939994,76.2561,-1,-1,-1,-1,30,20.62944476133531,-9999,20444.71981866667,0.7189788818359375,-0.6399383544921875,-0.0266265869140625,20444.70974266667,-0.9455048673578447,1.107604832648299,0.5533887068869602,0.01847833767533302,0.1460841149091721,0.1374557316303253,-0.03071343898773193,-0.06831389665603638,0.26987424492836,XArbitraryZVertical,-0.4372269480918581,-0.3446346728924234,0.2446360821363368,-0.7938592684492148,0.7611058354377747,-0.525573194026947,-0.3801190853118896,0,0,0,-1,-1,20441.144005625,unknown,2,2025-04-21T16:46:38.875+03:00,2025-04-20T21:57:49.637+03:00,6805,0.9866872,0,0,5579.851,5,6,2025-04-21T16:43:22.849+03:00,766936001.5555496,0,-38.75,100.1976,1,0.3,2025-04-21T16:46:36.105+03:00,79,1.316666666666667,2025-04-21T12:30:07.995+03:00,0.02023345852159405,0
2025-04-21T16:46:42.480+03:00,1745243200.681371,40.9522196526657,29.14029648939994,76.2561,-1,-1,-1,-1,30,20.62944476133531,-9999,20444.72989466667,0.719818115234375,-0.6468963623046875,0.0053558349609375,20444.71981866667,-0.9450058557619009,1.108357964364523,0.5542608455839487,-0.02496580965816975,0.05275122821331024,0.05878381803631783,-0.03914922475814819,-0.09821182489395142,0.3155288100242615,XArbitraryZVertical,-0.4375219651491287,-0.3448245166480435,0.2440307062264345,-0.7938007055899563,0.7609815001487732,-0.5263149738311768,-0.3793411552906036,0,0,0,-1,-1,20441.144005625,unknown,2,2025-04-21T16:46:38.875+03:00,2025-04-20T21:57:49.637+03:00,6805,0.9866872,0,0,5579.851,5,6,2025-04-21T16:43:22.849+03:00,766936001.5555496,0,-38.75,100.1976,1,0.3,2025-04-21T16:46:36.105+03:00,79,1.316666666666667,2025-04-21T12:30:07.995+03:00,0.02023345852159405,0
2025-04-21T16:46:42.490+03:00,1745243200.681371,40.9522196526657,29.14029648939994,76.2561,-1,-1,-1,-1,30,20.62944476133531,-9999,20444.73997166667,0.7191314697265625,-0.6391754150390625,0.0178375244140625,20444.72989466667,-0.944240780437451,1.107938115710881,0.554241915060191,-0.09334500133991241,-0.05621320381760597,-0.002546985866501927,-0.04241675138473511,-0.1152414679527283,0.3580738008022308,XArbitraryZVertical,-0.4373326161941498,-0.3448299117567947,0.2438240885443213,-0.7939660847193741,0.7608309388160706,-0.5262988805770874,-0.3796650171279907,0,0,0,-1,-1,20441.144005625,unknown,2,2025-04-21T16:46:38.875+03:00,2025-04-20T21:57:49.637+03:00,6805,0.9866872,0,0,5579.851,5,6,2025-04-21T16:43:22.849+03:00,766936001.5555496,0,-38.75,100.1976,1,0.3,2025-04-21T16:46:36.105+03:00,79,1.316666666666667,2025-04-21T12:30:07.995+03:00,0.02023345852159405,0
2025-04-21T16:46:42.500+03:00,1745243200.681371,40.9522196526657,29.14029648939994,76.2561,-1,-1,-1,-1,30,20.62944476133531,-9999,20444.75004766667,0.708404541015625,-0.6262054443359375,0.0209503173828125,20444.73997166667,-0.9430700996561864,1.106262969032155,0.5533925446991705,-0.1626255363225937,-0.1514302790164948,-0.06199193373322487,-0.04074472188949585,-0.1208924651145935,0.388631135225296,XArbitraryZVertical,-0.4366447626218943,-0.3446328287206255,0.243961415418334,-0.7943879416521772,0.7605932950973511,-0.5255764722824097,-0.3811391294002533,0,0,0,-1,-1,20441.144005625,unknown,2,2025-04-21T16:46:38.875+03:00,2025-04-20T21:57:49.637+03:00,6805,0.9866872,0,0,5579.851,5,6,2025-04-21T16:43:22.849+03:00,766936001.5555496,0,-38.75,100.1976,1,0.3,2025-04-21T16:46:36.105+03:00,79,1.316666666666667,2025-04-21T12:30:07.995+03:00,0.02023345852159405,0
2025-04-21T16:46:42.510+03:00,1745243200.681371,40.9522196526657,29.14029648939994,76.2561,-1,-1,-1,-1,30,20.62944476133531,-9999,20444.76012366667,0.6909942626953125,-0.6344757080078125,0.0378265380859375,20444.75004766667,-0.9413885300815225,1.103377640916034,0.5514979640226194,-0.2659764885902405,-0.2437275052070618,-0.1497078388929367,-0.04187220335006714,-0.1132584810256958,0.4012207984924316,XArbitraryZVertical,-0.4353729770661245,-0.3443258493625507,0.2444482286210645,-0.7950693054529702,0.7603781223297119,-0.5239636898040771,-0.3837801516056061,0,0,0,-1,-1,20441.144005625,unknown,2,2025-04-21T16:46:38.875+03:00,2025-04-20T21:57:49.637+03:00,6805,0.9866872,0,0,5579.851,5,6,2025-04-21T16:43:22.849+03:00,766936001.5555496,0,-38.75,100.1976,1,0.3,2025-04-21T16:46:36.105+03:00,79,1.316666666666667,2025-04-21T12:30:07.995+03:00,0.02023345852159405,0
2025-04-21T16:46:42.520+03:00,1745243200.681371,40.9522196526657,29.14029648939994,76.2561,-1,-1,-1,-1,30,20.62944476133531,-9999,20444.77020066667,0.67236328125,-0.6529998779296875,0.0557861328125,20444.76012366667,-0.9389799123438933,1.099101938794581,0.5482041768075874,-0.3996815383434296,-0.3525637090206146,-0.2496466934680939,-0.05286598205566406,-0.1049583554267883,0.4107131958007812,XArbitraryZVertical,-0.433336731642337,-0.343968535075242,0.245330631388326,-0.7960638794424801,0.7602633833885193,-0.5211554169654846,-0.3878098428249359,0,0,0,-1,-1,20441.144005625,unknown,2,2025-04-21T16:46:38.875+03:00,2025-04-20T21:57:49.637+03:00,6805,0.9866872,0,0,5579.851,5,6,2025-04-21T16:43:22.849+03:00,766936001.5555496,0,-38.75,100.1976,1,0.3,2025-04-21T16:46:36.105+03:00,79,1.316666666666667,2025-04-21T12:30:07.995+03:00,0.02023345852159405,0
2025-04-21T16:46:42.530+03:00,1745243200.681371,40.9522196526657,29.14029648939994,76.2561,-1,-1,-1,-1,30,20.62944476133531,-9999,20444.78027666667,0.66510009765625,-0.6471405029296875,0.065673828125,20444.77020066667,-0.9355977723249813,1.093279826390103,0.543325987059384,-0.5541434288024902,-0.4523884356021881,-0.3471567928791046,-0.07106316089630127,-0.1207550168037415,0.4334169924259186,XArbitraryZVertical,-0.4304054715254698,-0.3435905894517726,0.2465858294547191,-0.7974283054404605,0.7602415084838867,-0.5169858932495117,-0.3933932781219482,0,0,0,-1,-1,20441.144005625,unknown,2,2025-04-21T16:46:38.875+03:00,2025-04-20T21:57:49.637+03:00,6805,0.9866872,0,0,5579.851,5,6,2025-04-21T16:43:22.849+03:00,766936001.5555496,0,-38.75,100.1976,1,0.3,2025-04-21T16:46:36.105+03:00,79,1.316666666666667,2025-04-21T12:30:07.995+03:00,0.02023345852159405,0
2025-04-21T16:46:42.540+03:00,1745243200.681371,40.9522196526657,29.14029648939994,76.2561,-1,-1,-1,-1,30,20.62944476133531,-9999,20444.79035266667,0.666107177734375,-0.619964599609375,0.083709716796875,20444.78027666667,-0.9313135236207309,1.08607076308486,0.5369124493856868,-0.6768760085105896,-0.5430776476860046,-0.4408577084541321,-0.08934450149536133,-0.1421552300453186,0.4575750529766083,XArbitraryZVertical,-0.4266173032539156,-0.3432163623106876,0.2481800666581448,-0.7991286809368301,0.7603039145469666,-0.5114853382110596,-0.4004004001617432,0,0,0,-1,-1,20441.144005625,unknown,2,2025-04-21T16:46:38.875+03:00,2025-04-20T21:57:49.637+03:00,6805,0.9866872,0,0,5579.851,5,6,2025-04-21T16:43:22.849+03:00,766936001.5555496,0,-38.75,100.1976,1,0.3,2025-04-21T16:46:36.105+03:00,79,1.316666666666667,2025-04-21T12:30:07.995+03:00,0.02023345852159405,0
2025-04-21T16:46:42.550+03:00,1745243200.681371,40.9522196526657,29.14029648939994,76.2561,-1,-1,-1,-1,30,20.62944476133531,-9999,20444.80042966667,0.6616363525390625,-0.596588134765625,0.109405517578125,20444.79035266667,-0.9266473848918683,1.077575916058619,0.529267654322608,-0.7366010546684265,-0.6709340214729309,-0.521261990070343,-0.09547185897827148,-0.1390193104743958,0.4754258692264557,XArbitraryZVertical,-0.4221648832375294,-0.3426876307991519,0.2502001179866162,-0.8010878342086821,0.7602971792221069,-0.5049013495445251,-0.4086839854717255,0,0,0,-1,-1,20441.144005625,unknown,2,2025-04-21T16:46:38.875+03:00,2025-04-20T21:57:49.637+03:00,6805,0.9866872,0,0,5579.851,5,6,2025-04-21T16:43:22.849+03:00,766936001.5555496,0,-38.75,100.1976,1,0.3,2025-04-21T16:46:36.105+03:00,79,1.316666666666667,2025-04-21T12:30:07.995+03:00,0.02023345852159405,0
2025-04-21T16:46:42.568+03:00,1745243200.681371,40.9522196526657,29.14029648939994,76.2561,-1,-1,-1,-1,30,20.62944476133531,-9999,20444.81050566667,0.648284912109375,-0.5877838134765625,0.1153106689453125,20444.80042966667,-0.9221372454328831,1.067950324021494,0.5207481383593469,-0.7424267530441284,-0.7874763607978821,-0.59239661693573,-0.09408473968505859,-0.1191544830799103,0.5052603483200073,XArbitraryZVertical,-0.4172696276914407,-0.3418559565096712,0.2527166276849763,-0.8032152019075327,0.760069727897644,-0.4975292384624481,-0.4180411398410797,0,0,0,-1,-1,20441.144005625,unknown,2,2025-04-21T16:46:38.875+03:00,2025-04-20T21:57:49.637+03:00,6805,0.9866872,0,0,5579.851,5,6,2025-04-21T16:43:22.849+03:00,766936001.5555496,0,-38.75,100.1976,1,0.3,2025-04-21T16:46:36.105+03:00,79,1.316666666666667,2025-04-21T12:30:07.995+03:00,0.02023345852159405,0
2025-04-21T16:46:42.571+03:00,1745243200.681371,40.9522196526657,29.14029648939994,76.2561,-1,-1,-1,-1,30,20.62944476133531,-9999,20444.82058166667,0.63916015625,-0.579833984375,0.124420166015625,20444.81050566667,-0.9185110634246008,1.057706639956445,0.511701178229892,-0.6683396100997925,-0.8915829062461853,-0.6713932156562805,-0.09964984655380249,-0.1047294437885284,0.5391266942024231,XArbitraryZVertical,-0.4122301205490963,-0.3406872807500774,0.2558105682462354,-0.8053317969715836,0.759638249874115,-0.4896612465381622,-0.4279970228672028,0,0,0,-1,-1,20441.144005625,unknown,2,2025-04-21T16:46:38.875+03:00,2025-04-20T21:57:49.637+03:00,6805,0.9866872,0,0,5579.851,5,6,2025-04-21T16:43:22.849+03:00,766936001.5555496,0,-38.75,100.1976,1,0.3,2025-04-21T16:46:36.105+03:00,79,1.316666666666667,2025-04-21T12:30:07.995+03:00,0.02023345852159405,0
2025-04-21T16:46:42.581+03:00,1745243200.681371,40.9522196526657,29.14029648939994,76.2561,-1,-1,-1,-1,30,20.62944476133531,-9999,20444.83065866667,0.642364501953125,-0.5639801025390625,0.1484375,20444.82058166667,-0.9164233970711203,1.047160491342661,0.5023778562898392,-0.5669102072715759,-1.000936627388,-0.7551259398460388,-0.1122441291809082,-0.106013298034668,0.5542300939559937,XArbitraryZVertical,-0.4072776742072606,-0.3391177128618744,0.2596095102114508,-0.8072960473822531,0.7590031027793884,-0.4815109372138977,-0.4382481575012207,0,0,0,-1,-1,20441.144005625,unknown,2,2025-04-21T16:46:38.875+03:00,2025-04-20T21:57:49.637+03:00,6805,0.9866872,0,0,5579.851,5,6,2025-04-21T16:43:22.849+03:00,766936001.5555496,0,-38.75,100.1976,1,0.3,2025-04-21T16:46:36.105+03:00,79,1.316666666666667,2025-04-21T12:30:07.995+03:00,0.02023345852159405,0
2025-04-21T16:46:42.591+03:00,1745243200.681371,40.9522196526657,29.14029648939994,76.2561,-1,-1,-1,-1,30,20.62944476133531,-9999,20444.84073466667,0.665313720703125,-0.54693603515625,0.168670654296875,20444.83065866667,-0.9157343100635763,1.036204153213852,0.4928801760816665,-0.485101193189621,-1.108734011650085,-0.8092629909515381,-0.119659960269928,-0.1055699586868286,0.5751442909240723,XArbitraryZVertical,-0.4024033749244303,-0.3371169372399029,0.2640515917970955,-0.8091355279491816,0.7580570578575134,-0.4731652140617371,-0.4488473832607269,0,0,0,-1,-1,20441.144005625,unknown,2,2025-04-21T16:46:38.875+03:00,2025-04-20T21:57:49.637+03:00,6805,0.9866872,0,0,5579.851,5,6,2025-04-21T16:43:22.849+03:00,766936001.5555496,0,-38.75,100.1976,1,0.3,2025-04-21T16:46:36.105+03:00,79,1.316666666666667,2025-04-21T12:30:07.995+03:00,0.02023345852159405,0
2025-04-21T16:46:42.601+03:00,1745243200.681371,40.9522196526657,29.14029648939994,76.2561,-1,-1,-1,-1,30,20.62944476133531,-9999,20444.85081066667,0.699554443359375,-0.5221710205078125,0.169586181640625,20444.84073466667,-0.9165673720044694,1.02471622774894,0.4835115964412995,-0.3353590965270996,-1.256430745124817,-0.859027624130249,-0.1132344007492065,-0.09679999947547913,0.6112668514251709,XArbitraryZVertical,-0.397711079392514,-0.3345471911502336,0.26913134654179,-0.8108466116199377,0.7566059231758118,-0.4648910760879517,-0.4598081409931183,0,0,0,-1,-1,20441.144005625,unknown,2,2025-04-21T16:46:38.875+03:00,2025-04-20T21:57:49.637+03:00,6805,0.9866872,0,0,5579.851,5,6,2025-04-21T16:43:22.849+03:00,766936001.5555496,0,-38.75,100.1976,1,0.3,2025-04-21T16:46:36.105+03:00,79,1.316666666666667,2025-04-21T12:30:07.995+03:00,0.02023345852159405,0
2025-04-21T16:46:42.611+03:00,1745243200.681371,40.9522196526657,29.14029648939994,76.2561,-1,-1,-1,-1,30,20.62944476133531,-9999,20444.86088766667,0.726593017578125,-0.4810028076171875,0.18316650390625,20444.85081066667,-0.9195309357501851,1.012438499908311,0.4747041877785061,-0.1313241422176361,-1.456246852874756,-0.900060772895813,-0.08524930477142334,-0.08758696913719177,0.6405709385871887,XArbitraryZVertical,-0.3934112192265016,-0.3310902557339003,0.2750363493256824,-0.8123803322679087,0.7543472051620483,-0.4570753574371338,-0.471213698387146,0,0,0,-1,-1,20441.144005625,unknown,2,2025-04-21T16:46:38.875+03:00,2025-04-20T21:57:49.637+03:00,6805,0.9866872,0,0,5579.851,5,6,2025-04-21T16:43:22.849+03:00,766936001.5555496,0,-38.75,100.1976,1,0.3,2025-04-21T16:46:36.105+03:00,79,1.316666666666667,2025-04-21T12:30:07.995+03:00,0.02023345852159405,0
2025-04-21T16:46:42.621+03:00,1745243200.681371,40.9522196526657,29.14029648939994,76.2561,-1,-1,-1,-1,30,20.62944476133531,-9999,20444.87096366667,0.7384490966796875,-0.4322509765625,0.21014404296875,20444.86088766667,-0.9249152263488541,0.9990983565600784,0.466908881681428,0.1094240248203278,-1.675045847892761,-0.9186818599700928,-0.04732418060302734,-0.06813642382621765,0.6536952257156372,XArbitraryZVertical,-0.3896600201181566,-0.326483030058527,0.2818271387615973,-0.8137244093884901,0.7509679794311523,-0.4501281976699829,-0.4831477999687195,0,0,0,-1,-1,20441.144005625,unknown,2,2025-04-21T16:46:38.875+03:00,2025-04-20T21:57:49.637+03:00,6805,0.9866872,0,0,5579.851,5,6,2025-04-21T16:43:22.849+03:00,766936001.5555496,0,-38.75,100.1976,1,0.3,2025-04-21T16:46:36.105+03:00,79,1.316666666666667,2025-04-21T12:30:07.995+03:00,0.02023345852159405,0
2025-04-21T16:46:42.631+03:00,1745243200.681371,40.9522196526657,29.14029648939994,76.2561,-1,-1,-1,-1,30,20.62944476133531,-9999,20444.88103966667,0.7397918701171875,-0.4008636474609375,0.2404937744140625,20444.87096366667,-0.9328354898316683,0.9845233115777706,0.4603258387973998,0.3514816761016846,-1.928756952285767,-0.9458792805671692,-0.01798146963119507,-0.03068956732749939,0.682056188583374,XArbitraryZVertical,-0.3865014273847421,-0.3205956647496712,0.2895408029169454,-0.8148625849717288,0.7462986707687378,-0.4442400634288788,-0.4956701397895813,0,0,0,-1,-1,20441.144005625,unknown,2,2025-04-21T16:46:38.875+03:00,2025-04-20T21:57:49.637+03:00,6805,0.9866872,0,0,5579.851,5,6,2025-04-21T16:43:22.849+03:00,766936001.5555496,0,-38.75,100.1976,1,0.3,2025-04-21T16:46:36.105+03:00,79,1.316666666666667,2025-04-21T12:30:07.995+03:00,0.02023345852159405,0
2025-04-21T16:46:42.641+03:00,1745243200.681371,40.9522196526657,29.14029648939994,76.2561,-1,-1,-1,-1,30,20.62944476133531,-9999,20444.89111566667,0.736053466796875,-0.3730316162109375,0.225128173828125,20444.88103966667,-0.9432867272060717,0.968224495878069,0.4550060002165434,0.6045075654983521,-2.222825527191162,-0.9683619737625122,-0.0009067654609680176,0.0118708610534668,0.7232874035835266,XArbitraryZVertical,-0.383849375381856,-0.3132247967880161,0.2982652881387147,-0.8158354712286512,0.7400577068328857,-0.4394676983356476,-0.5090997815132141,0,0,0,-1,-1,20441.144005625,unknown,2,2025-04-21T16:46:38.875+03:00,2025-04-20T21:57:49.637+03:00,6805,0.9866872,0,0,5579.851,5,6,2025-04-21T16:43:22.849+03:00,766936001.5555496,0,-38.75,100.1976,1,0.3,2025-04-21T16:46:36.105+03:00,79,1.316666666666667,2025-04-21T12:30:07.995+03:00,0.02023345852159405,0
2025-04-21T16:46:42.651+03:00,1745243200.681371,40.9522196526657,29.14029648939994,76.2561,-1,-1,-1,-1,30,20.62944476133531,-9999,20444.90119266667,0.730499267578125,-0.3183746337890625,0.1615142822265625,20444.89111566667,-0.9559886108778007,0.9494752790592541,0.4513253536827347,0.7488124966621399,-2.678495407104492,-0.8851141929626465,0.007472991943359375,0.03778225183486938,0.765842616558075,XArbitraryZVertical,-0.3816400401313855,-0.3040384119085853,0.3079411880833284,-0.8167519083959892,0.7316932678222656,-0.4361585676670074,-0.5238230228424072,0,0,0,-1,-1,20441.144005625,unknown,2,2025-04-21T16:46:38.875+03:00,2025-04-20T21:57:49.637+03:00,6805,0.9866872,0,0,5579.851,5,6,2025-04-21T16:43:22.849+03:00,766936001.5555496,0,-38.75,100.1976,1,0.3,2025-04-21T16:46:36.105+03:00,79,1.316666666666667,2025-04-21T12:30:07.995+03:00,0.02023345852159405,0
2025-04-21T16:46:42.661+03:00,1745243200.681371,40.9522196526657,29.14029648939994,76.2561,-1,-1,-1,-1,30,20.62944476133531,-9999,20444.91126866667,0.69122314453125,-0.331756591796875,0.0115509033203125,20444.90119266667,-0.9628992963493442,0.9235985215642945,0.4475464985548369,-0.4217724800109863,-3.118162393569946,-0.3923470973968506,0.01669609546661377,0.06579652428627014,0.7622277140617371,XArbitraryZVertical,-0.3772609617746436,-0.2930691012768171,0.3165886578748618,-0.8194853806953237,0.7192047834396362,-0.4327549934387207,-0.5435693264007568,0,0,0,-1,-1,20441.144005625,unknown,2,2025-04-21T16:46:38.875+03:00,2025-04-20T21:57:49.637+03:00,6805,0.9866872,0,0,5579.851,5,6,2025-04-21T16:43:22.849+03:00,766936001.5555496,0,-38.75,100.1976,1,0.3,2025-04-21T16:46:36.105+03:00,79,1.316666666666667,2025-04-21T12:30:07.995+03:00,0.02023345852159405,0
2025-04-21T16:46:42.671+03:00,1745243200.681371,40.9522196526657,29.14029648939994,76.2561,-1,-1,-1,-1,30,20.62944476133531,-9999,20444.92134466667,0.571868896484375,-0.6016082763671875,-1.080596923828125,20444.91126866667,-0.9469250779281332,0.8830046182726928,0.4388303357921578,-2.856749773025513,-3.356733322143555,0.9208178520202637,0.02924281358718872,0.1130372285842896,0.7270863056182861,XArbitraryZVertical,-0.3653042991993921,-0.2814461938794574,0.3195901076265871,-0.8277698324580745,0.699440598487854,-0.4248809218406677,-0.5746816396713257,0,0,0,-1,-1,20441.144005625,unknown,2,2025-04-21T16:46:38.875+03:00,2025-04-20T21:57:49.637+03:00,6805,0.9866872,0,0,5579.851,5,6,2025-04-21T16:43:22.849+03:00,766936001.5555496,0,-38.75,100.1976,1,0.3,2025-04-21T16:46:36.105+03:00,79,1.316666666666667,2025-04-21T12:30:07.995+03:00,0.02023345852159405,0
2025-04-21T16:46:42.682+03:00,1745243200.681371,40.9522196526657,29.14029648939994,76.2561,-1,-1,-1,-1,30,20.62944476133531,-9999,20444.93142166667,0.06427001953125,-1.176483154296875,-3.853485107421875,20444.92134466667,-0.9223781481617606,0.8606828648767696,0.4231906908482911,-2.440707921981812,0.008235028013586998,-0.452540248632431,-0.009707868099212646,0.0628630518913269,0.5565066337585449,XArbitraryZVertical,-0.3524401660157123,-0.2803232987990646,0.3169557584916828,-0.8347117913350224,0.6913942098617554,-0.4106717705726624,-0.5944095253944397,0,0,0,-1,-1,20441.144005625,unknown,2,2025-04-21T16:46:38.875+03:00,2025-04-20T21:57:49.637+03:00,6805,0.9866872,0,0,5579.851,5,6,2025-04-21T16:43:22.849+03:00,766936001.5555496,0,-38.75,100.1976,1,0.3,2025-04-21T16:46:36.105+03:00,79,1.316666666666667,2025-04-21T12:30:07.995+03:00,0.02023345852159405,0
2025-04-21T16:46:42.691+03:00,1745243200.681371,40.9522196526657,29.14029648939994,76.2561,-1,-1,-1,-1,30,20.62944476133531,-9999,20444.94149766667,-0.2843475341796875,-1.141738891601562,-3.012283325195312,20444.93142166667,-0.8906755355536146,0.8532631589076577,0.3901853986401466,-6.136929988861084,1.493451595306396,-0.5970823168754578,-0.1584252715110779,-0.2815204858779907,-0.7743542790412903,XArbitraryZVertical,-0.3341389514082272,-0.2903402949962975,0.3123166736203747,-0.8405427044724161,0.6968011856079102,-0.3803598880767822,-0.608107328414917,0,0,0,-1,-1,20441.144005625,unknown,2,2025-04-21T16:46:38.875+03:00,2025-04-20T21:57:49.637+03:00,6805,0.9866872,0,0,5579.851,5,6,2025-04-21T16:43:22.849+03:00,766936001.5555496,0,-38.75,100.1976,1,0.3,2025-04-21T16:46:36.105+03:00,79,1.316666666666667,2025-04-21T12:30:07.995+03:00,0.02023345852159405,0
2025-04-21T16:46:42.701+03:00,1745243200.681371,40.9522196526657,29.14029648939994,76.2561,-1,-1,-1,-1,30,20.62944476133531,-9999,20444.95157366667,0.0533294677734375,-0.2668304443359375,-1.329483032226562,20444.94149766667,-0.8499953608599239,0.8602670202393615,0.3499244127227454,-4.030007839202881,2.600897073745728,-0.4936027824878693,-0.7337931394577026,-0.8895643949508667,-3.430656909942627,XArbitraryZVertical,-0.3134487758878076,-0.3088616445345811,0.3029102501734715,-0.8453399066229982,0.7120798230171204,-0.3428268134593964,-0.6127086877822876,0,0,0,-1,-1,20441.144005625,unknown,2,2025-04-21T16:46:38.875+03:00,2025-04-20T21:57:49.637+03:00,6805,0.9866872,0,0,5579.851,5,6,2025-04-21T16:43:22.849+03:00,766936001.5555496,0,-38.75,100.1976,1,0.3,2025-04-21T16:46:36.105+03:00,79,1.316666666666667,2025-04-21T12:30:07.995+03:00,0.02023345852159405,0
2025-04-21T16:46:42.712+03:00,1745243200.681371,40.9522196526657,29.14029648939994,76.2561,-1,-1,-1,-1,30,20.62944476133531,-9999,20444.96165066667,0.3325042724609375,1.040786743164062,-1.358657836914062,20444.95157366667,-0.8307342450996661,0.8815204786944445,0.3301252204884482,-1.672531962394714,2.867761373519897,-0.1365185081958771,-0.9894353747367859,-0.7393912076950073,-2.076784372329712,XArbitraryZVertical,-0.3057888016889293,-0.3250766374237499,0.2958593547640401,-0.844562350353708,0.7300359606742859,-0.3241614997386932,-0.6016367673873901,0,0,0,-1,-1,20441.144005625,unknown,2,2025-04-21T16:46:38.875+03:00,2025-04-20T21:57:49.637+03:00,6805,0.9866872,0,0,5579.851,5,6,2025-04-21T16:43:22.849+03:00,766936001.5555496,0,-38.75,100.1976,1,0.3,2025-04-21T16:46:36.105+03:00,79,1.316666666666667,2025-04-21T12:30:07.995+03:00,0.02023345852159405,0
2025-04-21T16:46:42.722+03:00,1745243200.681371,40.9522196526657,29.14029648939994,76.2561,-1,-1,-1,-1,30,20.62944476133531,-9999,20444.97172666667,0.683624267578125,1.773086547851562,-0.8325042724609375,20444.96165066667,-0.8190268549960217,0.9068840929146851,0.3228564882113026,-0.8901265263557434,2.867165088653564,0.3357054889202118,-0.6555256247520447,0.1936044096946716,-0.7294468879699707,XArbitraryZVertical,-0.3046913195819304,-0.3390877306729099,0.2886858917830975,-0.8419282208338854,0.7468952536582947,-0.3172767460346222,-0.5843654274940491,0,0,0,-1,-1,20441.144005625,unknown,2,2025-04-21T16:46:38.875+03:00,2025-04-20T21:57:49.637+03:00,6805,0.9866872,0,0,5579.851,5,6,2025-04-21T16:43:22.849+03:00,766936001.5555496,0,-38.75,100.1976,1,0.3,2025-04-21T16:46:36.105+03:00,79,1.316666666666667,2025-04-21T12:30:07.995+03:00,0.02023345852159405,0
2025-04-21T16:46:42.732+03:00,1745243200.681371,40.9522196526657,29.14029648939994,76.2561,-1,-1,-1,-1,30,20.62944476133531,-9999,20444.98180266667,0.952484130859375,0.87591552734375,-0.556854248046875,20444.97172666667,-0.8137498363676491,0.9329748413064245,0.323623143573184,0.1650613844394684,2.643441200256348,0.3608019948005676,-0.3883686661720276,1.52137303352356,-0.750023365020752,XArbitraryZVertical,-0.3078059944001736,-0.3506952123034568,0.2822979959763475,-0.8381981268479477,0.7616901993751526,-0.3180037140846252,-0.5645366907119751,0,0,0,-1,-1,20441.144005625,unknown,2,2025-04-21T16:46:38.875+03:00,2025-04-20T21:57:49.637+03:00,6805,0.9866872,0,0,5579.851,5,6,2025-04-21T16:43:22.849+03:00,766936001.5555496,0,-38.75,100.1976,1,0.3,2025-04-21T16:46:36.105+03:00,79,1.316666666666667,2025-04-21T12:30:07.995+03:00,0.02023345852159405,0
2025-04-21T16:46:42.742+03:00,1745243200.681371,40.9522196526657,29.14029648939994,76.2561,-1,-1,-1,-1,30,20.62944476133531,-9999,20444.99187966667,1.187774658203125,-0.201324462890625,-0.2984771728515625,20444.98180266667,-0.8157055994071688,0.9569179832473603,0.3295276752712118,0.7521547079086304,1.886420488357544,0.3939708769321442,-0.05001986026763916,2.063235521316528,-0.2324634790420532,XArbitraryZVertical,-0.3138021287612866,-0.3591714350887223,0.2780081435464462,-0.8338077929971734,0.7734389901161194,-0.3235961496829987,-0.5450482368469238,0,0,0,-1,-1,20441.144005625,unknown,2,2025-04-21T16:46:38.875+03:00,2025-04-20T21:57:49.637+03:00,6805,0.9866872,0,0,5579.851,5,6,2025-04-21T16:43:22.849+03:00,766936001.5555496,0,-38.75,100.1976,1,0.3,2025-04-21T16:46:36.105+03:00,79,1.316666666666667,2025-04-21T12:30:07.995+03:00,0.02023345852159405,0
2025-04-21T16:46:42.752+03:00,1745243200.681371,40.9522196526657,29.14029648939994,76.2561,-1,-1,-1,-1,30,20.62944476133531,-9999,20445.00195566667,1.351394653320312,-0.7214202880859375,-0.127197265625,20444.99187966667,-0.8210284065323195,0.9708916958546753,0.3379245474422132,0.9753552079200745,0.4907955527305603,0.3664559423923492,0.202491819858551,1.045961618423462,0.0002554655075073242,XArbitraryZVertical,-0.3199348308621111,-0.3623870308663873,0.2760028476660322,-0.8307464308212331,0.7787092924118042,-0.3315297365188599,-0.5326346755027771,0,0,0,-1,-1,20441.144005625,unknown,2,2025-04-21T16:46:38.875+03:00,2025-04-20T21:57:49.637+03:00,6805,0.9866872,0,0,5579.851,5,6,2025-04-21T16:43:22.849+03:00,766936001.5555496,0,-38.75,100.1976,1,0.3,2025-04-21T16:46:36.105+03:00,79,1.316666666666667,2025-04-21T12:30:07.995+03:00,0.02023345852159405,0
2025-04-21T16:46:42.762+03:00,1745243200.681371,40.9522196526657,29.14029648939994,76.2561,-1,-1,-1,-1,30,20.62944476133531,-9999,20445.01203166667,1.286102294921875,-0.876678466796875,-0.2364349365234375,20445.00195566667,-0.8269392311498862,0.9711530309011353,0.3452046463095492,0.6753399968147278,-0.7319357395172119,0.2194878160953522,0.4388628005981445,0.04590892791748047,0.2679781913757324,XArbitraryZVertical,-0.3238299070089505,-0.3600092994344407,0.2766619785104366,-0.830051542916157,0.7768353819847107,-0.3383892476558685,-0.5310549736022949,0,0,0,-1,-1,20441.144005625,unknown,2,2025-04-21T16:46:38.875+03:00,2025-04-20T21:57:49.637+03:00,6805,0.9866872,0,0,5579.851,5,6,2025-04-21T16:43:22.849+03:00,766936001.5555496,0,-38.75,100.1976,1,0.3,2025-04-21T16:46:36.105+03:00,79,1.316666666666667,2025-04-21T12:30:07.995+03:00,0.02023345852159405,0
2025-04-21T16:46:42.772+03:00,1745243200.681371,40.9522196526657,29.14029648939994,76.2561,-1,-1,-1,-1,30,20.62944476133531,-9999,20445.02210866667,1.010467529296875,-0.791046142578125,-0.4691009521484375,20445.01203166667,-0.828548320388258,0.9617376059434127,0.3487025915041055,-0.04157254844903946,-1.154813647270203,0.1820300817489624,0.5863217711448669,-0.417735755443573,0.4097811579704285,XArbitraryZVertical,-0.3241522152397665,-0.3550954559092727,0.278015310492529,-0.8315888193510967,0.7708253860473633,-0.3416787683963776,-0.5376651287078857,0,0,0,-1,-1,20441.144005625,unknown,2,2025-04-21T16:46:38.875+03:00,2025-04-20T21:57:49.637+03:00,6805,0.9866872,0,0,5579.851,5,6,2025-04-21T16:43:22.849+03:00,766936001.5555496,0,-38.75,100.1976,1,0.3,2025-04-21T16:46:36.105+03:00,79,1.316666666666667,2025-04-21T12:30:07.995+03:00,0.02023345852159405,0
2025-04-21T16:46:42.782+03:00,1745243200.681371,40.9522196526657,29.14029648939994,76.2561,-1,-1,-1,-1,30,20.62944476133531,-9999,20445.03218466667,0.680908203125,-0.6525726318359375,-0.692413330078125,20445.02210866667,-0.8251221414733837,0.9502490505507432,0.3483883296983804,-0.4574299454689026,-0.8041464686393738,0.1356612592935562,0.4957519769668579,-0.5329145193099976,0.2835469841957092,XArbitraryZVertical,-0.3218282303073626,-0.3509313815370624,0.2785188308997675,-0.834086865814983,0.7646849751472473,-0.3413833975791931,-0.546547532081604,0,0,0,-1,-1,20441.144005625,unknown,2,2025-04-21T16:46:38.875+03:00,2025-04-20T21:57:49.637+03:00,6805,0.9866872,0,0,5579.851,5,6,2025-04-21T16:43:22.849+03:00,766936001.5555496,0,-38.75,100.1976,1,0.3,2025-04-21T16:46:36.105+03:00,79,1.316666666666667,2025-04-21T12:30:07.995+03:00,0.02023345852159405,0
2025-04-21T16:46:42.792+03:00,1745243200.681371,40.9522196526657,29.14029648939994,76.2561,-1,-1,-1,-1,30,20.62944476133531,-9999,20445.04226066667,0.5103912353515625,-0.4763641357421875,-0.8126068115234375,20445.03218466667,-0.8202717164106548,0.9441611001597224,0.3462907954595654,-0.4867033660411835,-0.06627342849969864,0.05460531637072563,0.2056990265846252,-0.4349569976329803,0.05155032873153687,XArbitraryZVertical,-0.3193222260759186,-0.3496106500022294,0.2779660787286873,-0.8357873183043969,0.761921763420105,-0.3394111394882202,-0.5516114234924316,0,0,0,-1,-1,20441.144005625,unknown,2,2025-04-21T16:46:38.875+03:00,2025-04-20T21:57:49.637+03:00,6805,0.9866872,0,0,5579.851,5,6,2025-04-21T16:43:22.849+03:00,766936001.5555496,0,-38.75,100.1976,1,0.3,2025-04-21T16:46:36.105+03:00,79,1.316666666666667,2025-04-21T12:30:07.995+03:00,0.02023345852159405,0
2025-04-21T16:46:42.802+03:00,1745243200.681371,40.9522196526657,29.14029648939994,76.2561,-1,-1,-1,-1,30,20.62944476133531,-9999,20445.05233666667,0.5688018798828125,-0.26605224609375,-0.78125,20445.04226066667,-0.8162955270530919,0.945139760722304,0.3440486822820265,-0.3575072884559631,0.4777803122997284,0.03247338160872459,-0.1150659918785095,-0.2970979809761047,-0.1640833020210266,XArbitraryZVertical,-0.3178939177539026,-0.3511247416664663,0.2766773986489495,-0.8361245578447577,0.7630761861801147,-0.3373012542724609,-0.5513097643852234,0,0,0,-1,-1,20441.144005625,unknown,2,2025-04-21T16:46:38.875+03:00,2025-04-20T21:57:49.637+03:00,6805,0.9866872,0,0,5579.851,5,6,2025-04-21T16:43:22.849+03:00,766936001.5555496,0,-38.75,100.1976,1,0.3,2025-04-21T16:46:36.105+03:00,79,1.316666666666667,2025-04-21T12:30:07.995+03:00,0.02023345852159405,0
2025-04-21T16:46:42.812+03:00,1745243200.681371,40.9522196526657,29.14029648939994,76.2561,-1,-1,-1,-1,30,20.62944476133531,-9999,20445.06241366667,0.7688140869140625,-0.1442718505859375,-0.673797607421875,20445.05233666667,-0.8139000791588202,0.9495901520920149,0.3428973282653375,-0.1326534599065781,0.5085150003433228,0.0431053526699543,-0.2607258558273315,-0.1135812401771545,-0.2680739164352417,XArbitraryZVertical,-0.3176402544313797,-0.3536066231472245,0.2752414006085243,-0.8356490012872035,0.765837550163269,-0.3362171649932861,-0.5481340289115906,0,0,0,-1,-1,20441.144005625,unknown,2,2025-04-21T16:46:38.875+03:00,2025-04-20T21:57:49.637+03:00,6805,0.9866872,0,0,5579.851,5,6,2025-04-21T16:43:22.849+03:00,766936001.5555496,0,-38.75,100.1976,1,0.3,2025-04-21T16:46:36.105+03:00,79,1.316666666666667,2025-04-21T12:30:07.995+03:00,0.02023345852159405,0
2025-04-21T16:46:42.822+03:00,1745243200.681371,40.9522196526657,29.14029648939994,76.2561,-1,-1,-1,-1,30,20.62944476133531,-9999,20445.07248966667,0.9196319580078125,-0.1947021484375,-0.5608367919921875,20445.06241366667,-0.8134025993618348,0.9530561259314313,0.3431369413242483,0.07587684690952301,0.1941069513559341,0.047703567892313,-0.1785099506378174,0.09315681457519531,-0.2254902124404907,XArbitraryZVertical,-0.3181210884325422,-0.35508326704203,0.2744258843346362,-0.8351079368808063,0.7676670551300049,-0.3364427983760834,-0.5454297065734863,0,0,0,-1,-1,20441.144005625,unknown,2,2025-04-21T16:46:38.875+03:00,2025-04-20T21:57:49.637+03:00,6805,0.9866872,0,0,5579.851,5,6,2025-04-21T16:43:22.849+03:00,766936001.5555496,0,-38.75,100.1976,1,0.3,2025-04-21T16:46:36.105+03:00,79,1.316666666666667,2025-04-21T12:30:07.995+03:00,0.02023345852159405,0
2025-04-21T16:46:42.832+03:00,1745243200.681371,40.9522196526657,29.14029648939994,76.2561,-1,-1,-1,-1,30,20.62944476133531,-9999,20445.08256566667,0.9347076416015625,-0.34368896484375,-0.4845733642578125,20445.07248966667,-0.8142989530479886,0.9536727168044471,0.3443371898782933,0.1855694502592087,-0.1139529347419739,0.05256779864430428,0.02564632892608643,0.1968259215354919,-0.1150373816490173,XArbitraryZVertical,-0.3188286106960994,-0.3549467817067147,0.2744166922513505,-0.8348991814606307,0.7676733136177063,-0.33757284283638,-0.5447221994400024,0,0,0,-1,-1,20441.144005625,unknown,2,2025-04-21T16:46:38.875+03:00,2025-04-20T21:57:49.637+03:00,6805,0.9866872,0,0,5579.851,5,6,2025-04-21T16:43:22.849+03:00,766936001.5555496,0,-38.75,100.1976,1,0.3,2025-04-21T16:46:36.105+03:00,79,1.316666666666667,2025-04-21T12:30:07.995+03:00,0.02023345852159405,0
2025-04-21T16:46:42.842+03:00,1745243200.681371,40.9522196526657,29.14029648939994,76.2561,-1,-1,-1,-1,30,20.62944476133531,-9999,20445.09264266667,0.8607177734375,-0.441192626953125,-0.475006103515625,20445.08256566667,-0.8155465484173745,0.9521813340382731,0.3458975234521416,0.1683156341314316,-0.2442787140607834,0.06627961248159409,0.1623724699020386,0.1275545358657837,-0.003740906715393066,XArbitraryZVertical,-0.3194476609214407,-0.3537980191702312,0.2748046949063518,-0.83502237909758,0.7664299607276917,-0.3390411734580994,-0.5455603003501892,0,0,0,-1,-1,20441.144005625,unknown,2,2025-04-21T16:46:38.875+03:00,2025-04-20T21:57:49.637+03:00,6805,0.9866872,0,0,5579.851,5,6,2025-04-21T16:43:22.849+03:00,766936001.5555496,0,-38.75,100.1976,1,0.3,2025-04-21T16:46:36.105+03:00,79,1.316666666666667,2025-04-21T12:30:07.995+03:00,0.02023345852159405,0
2025-04-21T16:46:42.853+03:00,1745243200.681371,40.9522196526657,29.14029648939994,76.2561,-1,-1,-1,-1,30,20.62944476133531,-9999,20445.10271866667,0.7897186279296875,-0.4246063232421875,-0.5079193115234375,20445.09264266667,-0.8160401336718068,0.9499309478108947,0.347173535192326,0.05015743523836136,-0.2274729758501053,0.08743423968553543,0.1628865003585815,-0.02169698476791382,0.06683743000030518,XArbitraryZVertical,-0.319718341456331,-0.3525115296239226,0.2750675163439782,-0.8353763453608768,0.7648478746414185,-0.3402413427829742,-0.547031581401825,0,0,0,-1,-1,20441.144005625,unknown,2,2025-04-21T16:46:38.875+03:00,2025-04-20T21:57:49.637+03:00,6805,0.9866872,0,0,5579.851,5,6,2025-04-21T16:43:22.849+03:00,766936001.5555496,0,-38.75,100.1976,1,0.3,2025-04-21T16:46:36.105+03:00,79,1.316666666666667,2025-04-21T12:30:07.995+03:00,0.02023345852159405,0
2025-04-21T16:46:42.863+03:00,1745243200.681371,40.9522196526657,29.14029648939994,76.2561,-1,-1,-1,-1,30,20.62944476133531,-9999,20445.11279466667,0.76104736328125,-0.359283447265625,-0.5527191162109375,20445.10271866667,-0.8153785061274941,0.9476202336855841,0.3479483097582012,-0.05128663033246994,-0.1855276525020599,0.111570730805397,0.0869133472442627,-0.1036559343338013,0.07079917192459106,XArbitraryZVertical,-0.319583572459829,-0.3514891070213495,0.2749767625065483,-0.8358884885331378,0.7633675336837769,-0.3409697711467743,-0.5486434698104858,0,0,0,-1,-1,20441.144005625,unknown,2,2025-04-21T16:46:38.875+03:00,2025-04-20T21:57:49.637+03:00,6805,0.9866872,0,0,5579.851,5,6,2025-04-21T16:43:22.849+03:00,766936001.5555496,0,-38.75,100.1976,1,0.3,2025-04-21T16:46:36.105+03:00,79,1.316666666666667,2025-04-21T12:30:07.995+03:00,0.02023345852159405,0
2025-04-21T16:46:42.873+03:00,1745243200.681371,40.9522196526657,29.14029648939994,76.2561,-1,-1,-1,-1,30,20.62944476133531,-9999,20445.12287166667,0.7576141357421875,-0.3058624267578125,-0.5824432373046875,20445.11279466667,-0.814118098377041,0.9453703491312235,0.3486229421800378,-0.05164675414562225,-0.1804493367671967,0.1351885348558426,0.02197575569152832,-0.0764409601688385,0.0365527868270874,XArbitraryZVertical,-0.3193141803250321,-0.3506081546944038,0.2746495184051891,-0.8364686988461482,0.7619444727897644,-0.3416039049625397,-0.550224781036377,0,0,0,-1,-1,20441.144005625,unknown,2,2025-04-21T16:46:38.875+03:00,2025-04-20T21:57:49.637+03:00,6805,0.9866872,0,0,5579.851,5,6,2025-04-21T16:43:22.849+03:00,766936001.5555496,0,-38.75,100.1976,1,0.3,2025-04-21T16:46:36.105+03:00,79,1.316666666666667,2025-04-21T12:30:07.995+03:00,0.02023345852159405,0
2025-04-21T16:46:42.883+03:00,1745243200.681371,40.9522196526657,29.14029648939994,76.2561,-1,-1,-1,-1,30,20.62944476133531,-9999,20445.13294766667,0.751373291015625,-0.2709197998046875,-0.585784912109375,20445.12287166667,-0.81303653217599,0.9431568424985701,0.3496391969224096,0.008482894860208035,-0.1835535168647766,0.1453421115875244,-0.0004640817642211914,-0.00949174165725708,-0.006613373756408691,XArbitraryZVertical,-0.3192144748258932,-0.3496415443666677,0.2743102626546076,-0.8370224824701503,0.7604432702064514,-0.3425588607788086,-0.5517058372497559,0,0,0,-1,-1,20441.144005625,unknown,2,2025-04-21T16:46:38.875+03:00,2025-04-20T21:57:49.637+03:00,6805,0.9866872,0,0,5579.851,5,6,2025-04-21T16:43:22.849+03:00,766936001.5555496,0,-38.75,100.1976,1,0.3,2025-04-21T16:46:36.105+03:00,79,1.316666666666667,2025-04-21T12:30:07.995+03:00,0.02023345852159405,0
2025-04-21T16:46:42.893+03:00,1745243200.681371,40.9522196526657,29.14029648939994,76.2561,-1,-1,-1,-1,30,20.62944476133531,-9999,20445.14302366667,0.7380218505859375,-0.25537109375,-0.5766754150390625,20445.13294766667,-0.8124589332552961,0.9412253784994135,0.351112167570758,0.07461117953062057,-0.1575207263231277,0.154277890920639,-0.002391159534454346,0.04282554984092712,-0.031627357006073,XArbitraryZVertical,-0.3194194495409223,-0.3486162568784623,0.2740292846272499,-0.8374638156392153,0.7589675784111023,-0.3439423441886902,-0.552875816822052,0,0,0,-1,-1,20441.144005625,unknown,2,2025-04-21T16:46:38.875+03:00,2025-04-20T21:57:49.637+03:00,6805,0.9866872,0,0,5579.851,5,6,2025-04-21T16:43:22.849+03:00,766936001.5555496,0,-38.75,100.1976,1,0.3,2025-04-21T16:46:36.105+03:00,79,1.316666666666667,2025-04-21T12:30:07.995+03:00,0.02023345852159405,0
2025-04-21T16:46:42.903+03:00,1745243200.681371,40.9522196526657,29.14029648939994,76.2561,-1,-1,-1,-1,30,20.62944476133531,-9999,20445.15310066667,0.726226806640625,-0.2663421630859375,-0.5627288818359375,20445.14302366667,-0.8124037571741072,0.9398776412108235,0.3530523310315363,0.1429092735052109,-0.1082881912589073,0.1626521944999695,-0.007925748825073242,0.07864323258399963,-0.03090804815292358,XArbitraryZVertical,-0.3199769210357145,-0.3476535059861789,0.2737642140281217,-0.8377380125562244,0.7576815485954285,-0.3457634747028351,-0.5535036325454712,0,0,0,-1,-1,20441.144005625,unknown,2,2025-04-21T16:46:38.875+03:00,2025-04-20T21:57:49.637+03:00,6805,0.9866872,0,0,5579.851,5,6,2025-04-21T16:43:22.849+03:00,766936001.5555496,0,-38.75,100.1976,1,0.3,2025-04-21T16:46:36.105+03:00,79,1.316666666666667,2025-04-21T12:30:07.995+03:00,0.02023345852159405,0
2025-04-21T16:46:42.913+03:00,1745243200.681371,40.9522196526657,29.14029648939994,76.2561,-1,-1,-1,-1,30,20.62944476133531,-9999,20445.16317666667,0.73236083984375,-0.2898712158203125,-0.5471343994140625,20445.15310066667,-0.8128197985883686,0.9391233000131748,0.3554250066314078,0.1945116221904755,-0.07147784531116486,0.1729212701320648,-0.02060723304748535,0.09246531128883362,-0.02180474996566772,XArbitraryZVertical,-0.3208650721677738,-0.346772408675098,0.2735001061832654,-0.8378497188277805,0.7565996050834656,-0.3479888439178467,-0.5535889863967896,0,0,0,-1,-1,20441.144005625,unknown,2,2025-04-21T16:46:38.875+03:00,2025-04-20T21:57:49.637+03:00,6805,0.9866872,0,0,5579.851,5,6,2025-04-21T16:43:22.849+03:00,766936001.5555496,0,-38.75,100.1976,1,0.3,2025-04-21T16:46:36.105+03:00,79,1.316666666666667,2025-04-21T12:30:07.995+03:00,0.02023345852159405,0
2025-04-21T16:46:42.923+03:00,1745243200.681371,40.9522196526657,29.14029648939994,76.2561,-1,-1,-1,-1,30,20.62944476133531,-9999,20445.17325266667,0.7470550537109375,-0.313934326171875,-0.5352935791015625,20445.16317666667,-0.8134584910200516,0.9387008553229552,0.358095299865039,0.2104959189891815,-0.05901850759983063,0.1873894333839417,-0.02940177917480469,0.08172285556793213,-0.007097780704498291,XArbitraryZVertical,-0.3219518335391462,-0.3459309501212243,0.2732060339103116,-0.8378766357534502,0.7556132674217224,-0.3504909873008728,-0.5533576011657715,0,0,0,-1,-1,20441.144005625,unknown,2,2025-04-21T16:46:38.875+03:00,2025-04-20T21:57:49.637+03:00,6805,0.9866872,0,0,5579.851,5,6,2025-04-21T16:43:22.849+03:00,766936001.5555496,0,-38.75,100.1976,1,0.3,2025-04-21T16:46:36.105+03:00,79,1.316666666666667,2025-04-21T12:30:07.995+03:00,0.02023345852159405,0
2025-04-21T16:46:42.933+03:00,1745243200.681371,40.9522196526657,29.14029648939994,76.2561,-1,-1,-1,-1,30,20.62944476133531,-9999,20445.18332966667,0.7547607421875,-0.3276519775390625,-0.530548095703125,20445.17325266667,-0.8139955946490965,0.9382621773637606,0.360903581032883,0.1981820613145828,-0.06765188276767731,0.2042884081602097,-0.02102261781692505,0.05941870808601379,0.007404804229736328,XArbitraryZVertical,-0.3230714318685453,-0.3450686834732982,0.2728394484828068,-0.8379206471671892,0.7545735836029053,-0.3531197607517242,-0.5531048774719238,0,0,0,-1,-1,20441.144005625,unknown,2,2025-04-21T16:46:38.875+03:00,2025-04-20T21:57:49.637+03:00,6805,0.9866872,0,0,5579.851,5,6,2025-04-21T16:43:22.849+03:00,766936001.5555496,0,-38.75,100.1976,1,0.3,2025-04-21T16:46:36.105+03:00,79,1.316666666666667,2025-04-21T12:30:07.995+03:00,0.02023345852159405,0
2025-04-21T16:46:42.943+03:00,1745243200.681371,40.9522196526657,29.14029648939994,76.2561,-1,-1,-1,-1,30,20.62944476133531,-9999,20445.193406625,0.7527008056640625,-0.33154296875,-0.5314178466796875,20445.18332966667,-0.8143103309591606,0.9376468350630782,0.3637830405222707,0.1872364729642868,-0.07174542546272278,0.2228844612836838,-0.00467681884765625,0.03876534104347229,0.01844978332519531,XArbitraryZVertical,-0.3241554358027298,-0.34415210763549,0.2723914940887561,-0.8380245913717613,0.7534102201461792,-0.3558122515678406,-0.5529651641845703,0,0,0,-1,-1,20441.144005625,unknown,2,2025-04-21T16:46:38.875+03:00,2025-04-20T21:57:49.637+03:00,6805,0.9866872,0,0,5579.851,5,6,2025-04-21T16:43:22.849+03:00,766936001.5555496,0,-38.75,100.1976,1,0.3,2025-04-21T16:46:36.105+03:00,79,1.316666666666667,2025-04-21T12:30:07.995+03:00,0.02023345852159405,0
2025-04-21T16:46:42.953+03:00,1745243200.681371,40.9522196526657,29.14029648939994,76.2561,-1,-1,-1,-1,30,20.62944476133531,-9999,20445.203482625,0.742645263671875,-0.3336944580078125,-0.531463623046875,20445.193406625,-0.8144044695163029,0.9370225423443748,0.3667466314147139,0.171994537115097,-0.05582917481660843,0.2396306246519089,0.003143846988677979,0.02961623668670654,0.02207732200622559,XArbitraryZVertical,-0.3252322397845471,-0.3432487588658436,0.271832835177364,-0.8381593504167063,0.7522119283676147,-0.3585803210735321,-0.5528085827827454,0,0,0,-1,-1,20441.144005625,unknown,2,2025-04-21T16:46:38.875+03:00,2025-04-20T21:57:49.637+03:00,6805,0.9866872,0,0,5579.851,5,6,2025-04-21T16:43:22.849+03:00,766936001.5555496,0,-38.75,100.1976,1,0.3,2025-04-21T16:46:36.105+03:00,79,1.316666666666667,2025-04-21T12:30:07.995+03:00,0.02023345852159405,0
2025-04-21T16:46:42.963+03:00,1745243200.681371,40.9522196526657,29.14029648939994,76.2561,-1,-1,-1,-1,30,20.62944476133531,-9999,20445.213559625,0.73486328125,-0.3355255126953125,-0.5286712646484375,20445.203482625,-0.8142963946657276,0.9365816674788096,0.3696850570689914,0.1583511531352997,-0.02134896442294121,0.2443657219409943,0.001020073890686035,0.02903127670288086,0.02092766761779785,XArbitraryZVertical,-0.3262892054780561,-0.3424596955042559,0.271165539164055,-0.8382874929528062,0.751116156578064,-0.3613217771053314,-0.5525134205818176,0,0,0,-1,-1,20441.144005625,unknown,2,2025-04-21T16:46:38.875+03:00,2025-04-20T21:57:49.637+03:00,6805,0.9866872,0,0,5579.851,5,6,2025-04-21T16:43:22.849+03:00,766936001.5555496,0,-38.75,100.1976,1,0.3,2025-04-21T16:46:36.105+03:00,79,1.316666666666667,2025-04-21T12:30:07.995+03:00,0.02023345852159405,0
2025-04-21T16:46:42.973+03:00,1745243200.681371,40.9522196526657,29.14029648939994,76.2561,-1,-1,-1,-1,30,20.62944476133531,-9999,20445.223635625,0.734771728515625,-0.336151123046875,-0.5249176025390625,20445.213559625,-0.8140659252888847,0.9364227891713516,0.3726462257157057,0.160332664847374,0.004930178169161081,0.2546167075634003,-0.00841832160949707,0.03018862009048462,0.02048671245574951,XArbitraryZVertical,-0.3273718727300593,-0.3418033980207473,0.2703952878217945,-0.8383819956349652,0.7501632571220398,-0.3640813231468201,-0.5519961714744568,0,0,0,-1,-1,20441.144005625,unknown,2,2025-04-21T16:46:38.875+03:00,2025-04-20T21:57:49.637+03:00,6805,0.9866872,0,0,5579.851,5,6,2025-04-21T16:43:22.849+03:00,766936001.5555496,0,-38.75,100.1976,1,0.3,2025-04-21T16:46:36.105+03:00,79,1.316666666666667,2025-04-21T12:30:07.995+03:00,0.02023345852159405,0
2025-04-21T16:46:42.984+03:00,1745243200.681371,40.9522196526657,29.14029648939994,76.2561,-1,-1,-1,-1,30,20.62944476133531,-9999,20445.233711625,0.7431793212890625,-0.3357696533203125,-0.5223236083984375,20445.223635625,-0.8138465539432878,0.9364614324183007,0.3757606481995762,0.1738151907920837,0.01563608646392822,0.2665846943855286,-0.01528942584991455,0.03098186850547791,0.02306371927261353,XArbitraryZVertical,-0.3285417357934521,-0.3411950638782562,0.2695605659975873,-0.83844093619303,0.7492676377296448,-0.3669802248477936,-0.5512925386428833,0,0,0,-1,-1,20441.144005625,unknown,2,2025-04-21T16:46:38.875+03:00,2025-04-20T21:57:49.637+03:00,6805,0.9866872,0,0,5579.851,5,6,2025-04-21T16:43:22.849+03:00,766936001.5555496,0,-38.75,100.1976,1,0.3,2025-04-21T16:46:36.105+03:00,79,1.316666666666667,2025-04-21T12:30:07.995+03:00,0.02023345852159405,0
2025-04-21T16:46:42.994+03:00,1745243200.681371,40.9522196526657,29.14029648939994,76.2561,-1,-1,-1,-1,30,20.62944476133531,-9999,20445.243788625,0.7523345947265625,-0.33746337890625,-0.5223541259765625,20445.233711625,-0.8137650882569301,0.9365866338289052,0.3790976161159046,0.2055950909852982,0.01404311507940292,0.2786238193511963,-0.01296401023864746,0.03411448001861572,0.02672731876373291,XArbitraryZVertical,-0.3298317905732558,-0.3405524415202084,0.2687159881956954,-0.8384669004403819,0.7483460307121277,-0.3700823187828064,-0.5504700541496277,0,0,0,-1,-1,20441.144005625,unknown,2,2025-04-21T16:46:38.875+03:00,2025-04-20T21:57:49.637+03:00,6805,0.9866872,0,0,5579.851,5,6,2025-04-21T16:43:22.849+03:00,766936001.5555496,0,-38.75,100.1976,1,0.3,2025-04-21T16:46:36.105+03:00,79,1.316666666666667,2025-04-21T12:30:07.995+03:00,0.02023345852159405,0
2025-04-21T16:46:43.004+03:00,1745243200.681371,40.9522196526657,29.14029648939994,76.2561,-1,-1,-1,-1,30,20.62944476133531,-9999,20445.253864625,0.76129150390625,-0.3379974365234375,-0.527069091796875,20445.243788625,-0.8138577411766417,0.9367058278379069,0.3827302695358822,0.2303172200918198,0.002385926665738225,0.2930189967155457,-0.00350344181060791,0.03686109185218811,0.02756226062774658,XArbitraryZVertical,-0.3312636446523684,-0.3398147138421662,0.2678743813317913,-0.8384709731678448,0.7473236322402954,-0.3734546005725861,-0.5495806932449341,0,0,0,-1,-1,20441.144005625,unknown,2,2025-04-21T16:46:38.875+03:00,2025-04-20T21:57:49.637+03:00,6805,0.9866872,0,0,5579.851,5,6,2025-04-21T16:43:22.849+03:00,766936001.5555496,0,-38.75,100.1976,1,0.3,2025-04-21T16:46:36.105+03:00,79,1.316666666666667,2025-04-21T12:30:07.995+03:00,0.02023345852159405,0
2025-04-21T16:46:43.014+03:00,1745243200.681371,40.9522196526657,29.14029648939994,76.2561,-1,-1,-1,-1,30,20.62944476133531,-9999,20445.263940625,0.7666473388671875,-0.3426513671875,-0.5295257568359375,20445.253864625,-0.8140075843369776,0.9367057604497447,0.3866685424823877,0.2538620233535767,-0.01751288026571274,0.3189069926738739,0.007361292839050293,0.03971806168556213,0.02645778656005859,XArbitraryZVertical,-0.3328055977398319,-0.3389510897195449,0.2670030142333991,-0.8384879113494149,0.7461329698562622,-0.3771050274372101,-0.5487051606178284,0,0,0,-1,-1,20441.144005625,unknown,2,2025-04-21T16:46:38.875+03:00,2025-04-20T21:57:49.637+03:00,6805,0.9866872,0,0,5579.851,5,6,2025-04-21T16:43:22.849+03:00,766936001.5555496,0,-38.75,100.1976,1,0.3,2025-04-21T16:46:36.105+03:00,79,1.316666666666667,2025-04-21T12:30:07.995+03:00,0.02023345852159405,0
2025-04-21T16:46:43.024+03:00,1745243200.681371,40.9522196526657,29.14029648939994,76.2561,-1,-1,-1,-1,30,20.62944476133531,-9999,20445.274017625,0.7645416259765625,-0.3516387939453125,-0.5297698974609375,20445.263940625,-0.8141852560125905,0.936482238454112,0.3908700676983569,0.266463041305542,-0.04009861499071121,0.3302073180675507,0.01787620782852173,0.04264473915100098,0.0203096866607666,XArbitraryZVertical,-0.3344223862203857,-0.3379313689440985,0.2661170877461221,-0.8385378061490812,0.7447274923324585,-0.3809930086135864,-0.5479280948638916,0,0,0,-1,-1,20441.144005625,unknown,2,2025-04-21T16:46:38.875+03:00,2025-04-20T21:57:49.637+03:00,6805,0.9866872,0,0,5579.851,5,6,2025-04-21T16:43:22.849+03:00,766936001.5555496,0,-38.75,100.1976,1,0.3,2025-04-21T16:46:36.105+03:00,79,1.316666666666667,2025-04-21T12:30:07.995+03:00,0.02023345852159405,0
2025-04-21T16:46:43.034+03:00,1745243200.681371,40.9522196526657,29.14029648939994,76.2561,-1,-1,-1,-1,30,20.62944476133531,-9999,20445.284093625,0.7612457275390625,-0.361297607421875,-0.5305023193359375,20445.274017625,-0.8143303365243709,0.9360054381677574,0.3952357667986512,0.2701780200004578,-0.06450235843658447,0.3504575192928314,0.02389371395111084,0.04126068949699402,0.01825404167175293,XArbitraryZVertical,-0.3360617111043482,-0.3367740169581646,0.2652202131647533,-0.8386321984377654,0.7431197762489319,-0.3850257992744446,-0.5472915768623352,0,0,0,-1,-1,20441.144005625,unknown,2,2025-04-21T16:46:38.875+03:00,2025-04-20T21:57:49.637+03:00,6805,0.9866872,0,0,5579.851,5,6,2025-04-21T16:43:22.849+03:00,766936001.5555496,0,-38.75,100.1976,1,0.3,2025-04-21T16:46:36.105+03:00,79,1.316666666666667,2025-04-21T12:30:07.995+03:00,0.02023345852159405,0
2025-04-21T16:46:43.044+03:00,1745243200.681371,40.9522196526657,29.14029648939994,76.2561,-1,-1,-1,-1,30,20.62944476133531,-9999,20445.294169625,0.7628936767578125,-0.3597259521484375,-0.5291900634765625,20445.284093625,-0.8144681700566154,0.9353058631040505,0.3997730972073639,0.2839345633983612,-0.08357139676809311,0.3626563847064972,0.02268439531326294,0.03548023104667664,0.0170445442199707,XArbitraryZVertical,-0.3377350005572376,-0.3354857992240573,0.264316607490983,-0.8387615684841184,0.7413231134414673,-0.3892093300819397,-0.5467687249183655,0,0,0,-1,-1,20441.144005625,unknown,2,2025-04-21T16:46:38.875+03:00,2025-04-20T21:57:49.637+03:00,6805,0.9866872,0,0,5579.851,5,6,2025-04-21T16:43:22.849+03:00,766936001.5555496,0,-38.75,100.1976,1,0.3,2025-04-21T16:46:36.105+03:00,79,1.316666666666667,2025-04-21T12:30:07.995+03:00,0.02023345852159405,0
2025-04-21T16:46:43.068+03:00,1745243200.681371,40.9522196526657,29.14029648939994,76.2561,-1,-1,-1,-1,30,20.62944476133531,-9999,20445.304246625,0.7642974853515625,-0.3528289794921875,-0.5246429443359375,20445.294169625,-0.814614130366094,0.9343887643974937,0.4045325732768219,0.2969436645507812,-0.1107941567897797,0.3829547464847565,0.02251756191253662,0.03218486905097961,0.0158998966217041,XArbitraryZVertical,-0.3394649973737896,-0.3340552382319198,0.2634002856826971,-0.8389224207135791,0.7393231987953186,-0.3935891091823578,-0.5463412404060364,0,0,0,-1,-1,20441.144005625,unknown,2,2025-04-21T16:46:38.875+03:00,2025-04-20T21:57:49.637+03:00,6805,0.9866872,0,0,5579.851,5,6,2025-04-21T16:43:22.849+03:00,766936001.5555496,0,-38.75,100.1976,1,0.3,2025-04-21T16:46:36.105+03:00,79,1.316666666666667,2025-04-21T12:30:07.995+03:00,0.02023345852159405,0
2025-04-21T16:46:43.070+03:00,1745243200.681371,40.9522196526657,29.14029648939994,76.2561,-1,-1,-1,-1,30,20.62944476133531,-9999,20445.314322625,0.7666015625,-0.3480072021484375,-0.522369384765625,20445.304246625,-0.8147098745715002,0.93312559417403,0.4095308230719164,0.3103891611099243,-0.1445305347442627,0.4013052582740784,0.02589678764343262,0.03901776671409607,0.01759320497512817,XArbitraryZVertical,-0.3412316107701853,-0.3324344257240286,0.2624652118330698,-0.839142561911948,0.7370426058769226,-0.3981789946556091,-0.5460966825485229,0,0,0,-1,-1,20441.144005625,unknown,2,2025-04-21T16:46:38.875+03:00,2025-04-20T21:57:49.637+03:00,6805,0.9866872,0,0,5579.851,5,6,2025-04-21T16:43:22.849+03:00,766936001.5555496,0,-38.75,100.1976,1,0.3,2025-04-21T16:46:36.105+03:00,79,1.316666666666667,2025-04-21T12:30:07.995+03:00,0.02023345852159405,0
2025-04-21T16:46:43.074+03:00,1745243200.681371,40.9522196526657,29.14029648939994,76.2561,-1,-1,-1,-1,30,20.62944476133531,-9999,20445.324398625,0.7646331787109375,-0.3477935791015625,-0.5220489501953125,20445.314322625,-0.8148221979307706,0.9316122117126799,0.4148427279237392,0.3369194269180298,-0.165277510881424,0.4353599846363068,0.02963745594024658,0.05119374394416809,0.02250444889068604,XArbitraryZVertical,-0.3430874798387373,-0.330635712415865,0.2615059849212129,-0.8393958862586964,0.7345073819160461,-0.4030460119247437,-0.5459420084953308,0,0,0,-1,-1,20441.144005625,unknown,2,2025-04-21T16:46:38.875+03:00,2025-04-20T21:57:49.637+03:00,6805,0.9866872,0,0,5579.851,5,6,2025-04-21T16:43:22.849+03:00,766936001.5555496,0,-38.75,100.1976,1,0.3,2025-04-21T16:46:36.105+03:00,79,1.316666666666667,2025-04-21T12:30:07.995+03:00,0.02023345852159405,0
2025-04-21T16:46:43.084+03:00,1745243200.681371,40.9522196526657,29.14029648939994,76.2561,-1,-1,-1,-1,30,20.62944476133531,-9999,20445.334475625,0.754364013671875,-0.353271484375,-0.518035888671875,20445.324398625,-0.8149599319055737,0.9299160318351098,0.4205428243515538,0.3566217720508575,-0.1797866672277451,0.4536215364933014,0.03499674797058105,0.06066101789474487,0.02285528182983398,XArbitraryZVertical,-0.3450713885412987,-0.3286692124616914,0.2604975772964734,-0.8396684371286798,0.7317268252372742,-0.4082560539245605,-0.5458045601844788,0,0,0,-1,-1,20441.144005625,unknown,2,2025-04-21T16:46:38.875+03:00,2025-04-20T21:57:49.637+03:00,6805,0.9866872,0,0,5579.851,5,6,2025-04-21T16:43:22.849+03:00,766936001.5555496,0,-38.75,100.1976,1,0.3,2025-04-21T16:46:36.105+03:00,79,1.316666666666667,2025-04-21T12:30:07.995+03:00,0.02023345852159405,0
2025-04-21T16:46:43.094+03:00,1745243200.681371,40.9522196526657,29.14029648939994,76.2561,-1,-1,-1,-1,30,20.62944476133531,-9999,20445.344551625,0.7457122802734375,-0.364837646484375,-0.5178070068359375,20445.334475625,-0.8150736252580205,0.9281408009046956,0.4264735500783078,0.3634886145591736,-0.1784496307373047,0.4779762327671051,0.0343015193939209,0.06605249643325806,0.02446275949478149,XArbitraryZVertical,-0.3471282410552302,-0.3266205312548665,0.2594392777778712,-0.8399477704656551,0.7288057804107666,-0.4136627912521362,-0.5456420183181763,0,0,0,-1,-1,20441.144005625,unknown,2,2025-04-21T16:46:38.875+03:00,2025-04-20T21:57:49.637+03:00,6805,0.9866872,0,0,5579.851,5,6,2025-04-21T16:43:22.849+03:00,766936001.5555496,0,-38.75,100.1976,1,0.3,2025-04-21T16:46:36.105+03:00,79,1.316666666666667,2025-04-21T12:30:07.995+03:00,0.02023345852159405,0
