loggingTime(txt),locationTimestamp_since1970(s),locationLatitude(WGS84),locationLongitude(WGS84),locationAltitude(m),locationSpeed(m/s),locationSpeedAccuracy(m/s),locationCourse(°),locationCourseAccuracy(°),locationVerticalAccuracy(m),locationHorizontalAccuracy(m),locationFloor(Z),accelerometerTimestamp_sinceReboot(s),accelerometerAccelerationX(G),accelerometerAccelerationY(G),accelerometerAccelerationZ(G),motionTimestamp_sinceReboot(s),motionYaw(rad),motionRoll(rad),motionPitch(rad),motionRotationRateX(rad/s),motionRotationRateY(rad/s),motionRotationRateZ(rad/s),motionUserAccelerationX(G),motionUserAccelerationY(G),motionUserAccelerationZ(G),motionAttitudeReferenceFrame(txt),motionQuaternionX(R),motionQuaternionY(R),motionQuaternionZ(R),motionQuaternionW(R),motionGravityX(G),motionGravityY(G),motionGravityZ(G),motionMagneticFieldX(µT),motionMagneticFieldY(µT),motionMagneticFieldZ(µT),motionHeading(°),motionMagneticFieldCalibrationAccuracy(Z),activityTimestamp_sinceReboot(s),activity(txt),activityActivityConfidence(Z),activityActivityStartDate(txt),pedometerStartDate(txt),pedometerNumberofSteps(N),pedometerAverageActivePace(s/m),pedometerCurrentPace(s/m),pedometerCurrentCadence(steps/s),pedometerDistance(m),pedometerFloorAscended(N),pedometerFloorDescended(N),pedometerEndDate(txt),altimeterTimestamp_sinceReboot(s),altimeterReset(bool),altimeterRelativeAltitude(m),altimeterPressure(kPa),batteryState(N),batteryLevel(R),heartRateBPMTimestamp(txt),heartRateBPM(N),heartRateBPS(R),heartRateVariabilityTimestamp(txt),heartRateVariability(ms),label
2025-04-22T12:57:35.841+03:00,1745315852.947822,40.95220305975717,29.14025630257546,76.18102,-1,-1,-1,-1,30,23.91450547804756,-9999,31779.052223375,-0.769378662109375,0.6173858642578125,-0.3555755615234375,31779.042146375,-0.0293993005109579,-1.115222345466369,-0.6467947592944057,-0.016300268471241,0.05545994266867638,-0.001887059072032571,-0.0004737377166748047,-0.09172177314758301,0.01412048935890198,XArbitraryZVertical,-0.2769972577632673,-0.4977118873124816,0.1563177347652893,0.8069200309573471,-0.7166281938552856,0.602631688117981,-0.3511107861995697,0,0,0,-1,-1,31774.100769625,unknown,2,2025-04-22T12:57:30.865+03:00,2025-04-21T17:08:51.449+03:00,7384,0.9981967,0,0,6152.583,5,20,2025-04-22T12:57:30.865+03:00,767008653.5373739,0,-21.97,100.4704,1,0.75,2025-04-22T12:56:38.708+03:00,71,1.183333333333333,2025-04-22T09:54:17.825+03:00,0.02225348692287972,0
2025-04-22T12:57:35.843+03:00,1745315852.947822,40.95220305975717,29.14025630257546,76.18102,-1,-1,-1,-1,30,23.91450547804756,-9999,31779.062300375,-0.712432861328125,0.5910491943359375,-0.35394287109375,31779.052223375,-0.02957767905828942,-1.114797658018241,-0.646944277226717,-0.01986091397702694,0.02705520018935204,0.001143884612247348,-0.05000489950180054,-0.003690898418426514,1.14142894744873e-05,XArbitraryZVertical,-0.2771347578568588,-0.4975023307909119,0.1562246586155071,0.8070202246870324,-0.716398298740387,0.6027509570121765,-0.3513755202293396,0,0,0,-1,-1,31774.100769625,unknown,2,2025-04-22T12:57:30.865+03:00,2025-04-21T17:08:51.449+03:00,7384,0.9981967,0,0,6152.583,5,20,2025-04-22T12:57:30.865+03:00,767008653.5373739,0,-21.97,100.4704,1,0.75,2025-04-22T12:56:38.708+03:00,71,1.183333333333333,2025-04-22T09:54:17.825+03:00,0.02225348692287972,0
2025-04-22T12:57:35.844+03:00,1745315852.947822,40.95220305975717,29.14025630257546,76.18102,-1,-1,-1,-1,30,23.91450547804756,-9999,31779.072377375,-0.6764373779296875,0.5868377685546875,-0.353057861328125,31779.062300375,-0.02980335204687294,-1.11509667298119,-0.6470002091085516,-0.02082657627761364,-0.05292325466871262,-0.01019399147480726,-0.02220499515533447,0.002138972282409668,-0.004612237215042114,XArbitraryZVertical,-0.2771899936078148,-0.4975867020158259,0.1561892365922601,0.8069559462762003,-0.7164729237556458,0.6027956008911133,-0.3511463701725006,0,0,0,-1,-1,31774.100769625,unknown,2,2025-04-22T12:57:30.865+03:00,2025-04-21T17:08:51.449+03:00,7384,0.9981967,0,0,6152.583,5,20,2025-04-22T12:57:30.865+03:00,767008653.5373739,0,-21.97,100.4704,1,0.75,2025-04-22T12:56:38.708+03:00,71,1.183333333333333,2025-04-22T09:54:17.825+03:00,0.02225348692287972,0
2025-04-22T12:57:35.851+03:00,1745315852.947822,40.95220305975717,29.14025630257546,76.18102,-1,-1,-1,-1,30,23.91450547804756,-9999,31779.082454375,-0.7074737548828125,0.6050872802734375,-0.3618621826171875,31779.072377375,-0.0300449684237263,-1.115764353642349,-0.6469737154178546,-0.01293063536286354,-0.0368596687912941,-0.01047512143850327,0.03645437955856323,-0.02037698030471802,-0.001314729452133179,XArbitraryZVertical,-0.2771873348661687,-0.4978249376409357,0.1561775259306513,0.8068123459213004,-0.716721773147583,0.602774441242218,-0.3506750166416168,0,0,0,-1,-1,31774.100769625,unknown,2,2025-04-22T12:57:30.865+03:00,2025-04-21T17:08:51.449+03:00,7384,0.9981967,0,0,6152.583,5,20,2025-04-22T12:57:30.865+03:00,767008653.5373739,0,-21.97,100.4704,1,0.75,2025-04-22T12:56:38.708+03:00,71,1.183333333333333,2025-04-22T09:54:17.825+03:00,0.02225348692287972,0
2025-04-22T12:57:35.861+03:00,1745315852.947822,40.95220305975717,29.14025630257546,76.18102,-1,-1,-1,-1,30,23.91450547804756,-9999,31779.092531375,-0.732666015625,0.61767578125,-0.365264892578125,31779.082454375,-0.0301633385433324,-1.115960749199228,-0.6469551532539471,-0.004128888715058565,0.006276086438447237,-0.008007169701159,0.02476871013641357,-0.005042433738708496,-0.007416784763336182,XArbitraryZVertical,-0.2771940367492095,-0.4978894501982998,0.1561523352191013,0.8067750221779623,-0.7168005704879761,0.6027596592903137,-0.3505391180515289,0,0,0,-1,-1,31774.100769625,unknown,2,2025-04-22T12:57:30.865+03:00,2025-04-21T17:08:51.449+03:00,7384,0.9981967,0,0,6152.583,5,20,2025-04-22T12:57:30.865+03:00,767008653.5373739,0,-21.97,100.4704,1,0.75,2025-04-22T12:56:38.708+03:00,71,1.183333333333333,2025-04-22T09:54:17.825+03:00,0.02225348692287972,0
2025-04-22T12:57:35.873+03:00,1745315852.947822,40.95220305975717,29.14025630257546,76.18102,-1,-1,-1,-1,30,23.91450547804756,-9999,31779.102607375,-0.7149658203125,0.6100616455078125,-0.3545684814453125,31779.092531375,-0.03015624331400757,-1.115889420840701,-0.646901864834455,0.007632363121956587,-0.0008394136093556881,-0.005435787606984377,-0.01241308450698853,0.01208996772766113,-0.01537767052650452,XArbitraryZVertical,-0.2771764707116073,-0.4978664552815735,0.1561318074720632,0.8067992745124917,-0.7168044447898865,0.6027171015739441,-0.350604385137558,0,0,0,-1,-1,31774.100769625,unknown,2,2025-04-22T12:57:30.865+03:00,2025-04-21T17:08:51.449+03:00,7384,0.9981967,0,0,6152.583,5,20,2025-04-22T12:57:30.865+03:00,767008653.5373739,0,-21.97,100.4704,1,0.75,2025-04-22T12:56:38.708+03:00,71,1.183333333333333,2025-04-22T09:54:17.825+03:00,0.02225348692287972,0
2025-04-22T12:57:35.881+03:00,1745315852.947822,40.95220305975717,29.14025630257546,76.18102,-1,-1,-1,-1,30,23.91450547804756,-9999,31779.112684375,-0.705169677734375,0.5948638916015625,-0.35089111328125,31779.102607375,-0.03012521201897364,-1.116015873862223,-0.6468077300661104,0.004169188439846039,-0.02281155809760094,-0.0110635794699192,-0.006611049175262451,0.01260757446289062,-0.008683741092681885,XArbitraryZVertical,-0.2771211461917988,-0.497930266930442,0.156138052762138,0.8067776379437673,-0.7168996930122375,0.6026419997215271,-0.3505386412143707,0,0,0,-1,-1,31774.100769625,unknown,2,2025-04-22T12:57:30.865+03:00,2025-04-21T17:08:51.449+03:00,7384,0.9981967,0,0,6152.583,5,20,2025-04-22T12:57:30.865+03:00,767008653.5373739,0,-21.97,100.4704,1,0.75,2025-04-22T12:56:38.708+03:00,71,1.183333333333333,2025-04-22T09:54:17.825+03:00,0.02225348692287972,0
2025-04-22T12:57:35.891+03:00,1745315852.947822,40.95220305975717,29.14025630257546,76.18102,-1,-1,-1,-1,30,23.91450547804756,-9999,31779.122761375,-0.7149810791015625,0.592926025390625,-0.3546295166015625,31779.112684375,-0.03013804178395002,-1.116250862447573,-0.6466712268799993,0.002707845531404018,-0.01885976083576679,-0.008344125933945179,0.0115201473236084,-0.002328693866729736,-0.000301659107208252,XArbitraryZVertical,-0.2770512720632479,-0.4980355782003008,0.1561308696146277,0.8067380744250138,-0.7170560359954834,0.6025331020355225,-0.3504063189029694,0,0,0,-1,-1,31774.100769625,unknown,2,2025-04-22T12:57:30.865+03:00,2025-04-21T17:08:51.449+03:00,7384,0.9981967,0,0,6152.583,5,20,2025-04-22T12:57:30.865+03:00,767008653.5373739,0,-21.97,100.4704,1,0.75,2025-04-22T12:56:38.708+03:00,71,1.183333333333333,2025-04-22T09:54:17.825+03:00,0.02225348692287972,0
2025-04-22T12:57:35.901+03:00,1745315852.947822,40.95220305975717,29.14025630257546,76.18102,-1,-1,-1,-1,30,23.91450547804756,-9999,31779.132838375,-0.71942138671875,0.5964813232421875,-0.351226806640625,31779.122761375,-0.03015562135437131,-1.116356714061033,-0.6465886478580493,0.0002537423861213028,-0.0007878150790929794,0.0005929099279455841,0.005956053733825684,-0.01015162467956543,-0.003254920244216919,XArbitraryZVertical,-0.2770143058783728,-0.4980833167641688,0.1561175972489711,0.8067237263381908,-0.7171376347541809,0.6024671792984009,-0.3503521680831909,0,0,0,-1,-1,31774.100769625,unknown,2,2025-04-22T12:57:30.865+03:00,2025-04-21T17:08:51.449+03:00,7384,0.9981967,0,0,6152.583,5,20,2025-04-22T12:57:30.865+03:00,767008653.5373739,0,-21.97,100.4704,1,0.75,2025-04-22T12:56:38.708+03:00,71,1.183333333333333,2025-04-22T09:54:17.825+03:00,0.02225348692287972,0
2025-04-22T12:57:35.912+03:00,1745315852.947822,40.95220305975717,29.14025630257546,76.18102,-1,-1,-1,-1,30,23.91450547804756,-9999,31779.142915375,-0.7135162353515625,0.593902587890625,-0.3449554443359375,31779.132838375,-0.03021247728428718,-1.116428614406368,-0.6465601065729525,-0.00882037915289402,-0.003122542053461075,-0.0001673893420957029,-0.001907289028167725,-0.00639045238494873,-0.003833025693893433,XArbitraryZVertical,-0.2770114096610017,-0.4981070114993353,0.1560973863553494,0.8067140311574407,-0.7171783447265625,0.6024444103240967,-0.3503081798553467,0,0,0,-1,-1,31774.100769625,unknown,2,2025-04-22T12:57:30.865+03:00,2025-04-21T17:08:51.449+03:00,7384,0.9981967,0,0,6152.583,5,20,2025-04-22T12:57:30.865+03:00,767008653.5373739,0,-21.97,100.4704,1,0.75,2025-04-22T12:56:38.708+03:00,71,1.183333333333333,2025-04-22T09:54:17.825+03:00,0.02225348692287972,0
2025-04-22T12:57:35.922+03:00,1745315852.947822,40.95220305975717,29.14025630257546,76.18102,-1,-1,-1,-1,30,23.91450547804756,-9999,31779.152992375,-0.7076263427734375,0.5893707275390625,-0.3524627685546875,31779.142915375,-0.03038777019373128,-1.116591233569314,-0.6466231288234179,-0.02244111709296703,-0.005219248123466969,0.001729846582747996,0.0009689927101135254,-0.006928980350494385,0.002976477146148682,XArbitraryZVertical,-0.2770676225098115,-0.4981426138701068,0.1560651193686917,0.8066790894306175,-0.717201292514801,0.6024947166442871,-0.3501749336719513,0,0,0,-1,-1,31774.100769625,unknown,2,2025-04-22T12:57:30.865+03:00,2025-04-21T17:08:51.449+03:00,7384,0.9981967,0,0,6152.583,5,20,2025-04-22T12:57:30.865+03:00,767008653.5373739,0,-21.97,100.4704,1,0.75,2025-04-22T12:56:38.708+03:00,71,1.183333333333333,2025-04-22T09:54:17.825+03:00,0.02225348692287972,0
2025-04-22T12:57:35.932+03:00,1745315852.947822,40.95220305975717,29.14025630257546,76.18102,-1,-1,-1,-1,30,23.91450547804756,-9999,31779.163068375,-0.708526611328125,0.59521484375,-0.35791015625,31779.152992375,-0.03061014628584734,-1.11675360482935,-0.6467322704037388,-0.02160774730145931,-0.005947290454059839,0.001581275602802634,0.008580863475799561,-0.01206672191619873,0.001457870006561279,XArbitraryZVertical,-0.2771540816684926,-0.4981674361836461,0.1560255559396881,0.8066417200435528,-0.7171990275382996,0.602581799030304,-0.3500296473503113,0,0,0,-1,-1,31774.100769625,unknown,2,2025-04-22T12:57:30.865+03:00,2025-04-21T17:08:51.449+03:00,7384,0.9981967,0,0,6152.583,5,20,2025-04-22T12:57:30.865+03:00,767008653.5373739,0,-21.97,100.4704,1,0.75,2025-04-22T12:56:38.708+03:00,71,1.183333333333333,2025-04-22T09:54:17.825+03:00,0.02225348692287972,0
2025-04-22T12:57:35.942+03:00,1745315852.947822,40.95220305975717,29.14025630257546,76.18102,-1,-1,-1,-1,30,23.91450547804756,-9999,31779.173145375,-0.708465576171875,0.604766845703125,-0.355255126953125,31779.163068375,-0.03078176839913825,-1.116907100920217,-0.6468335397807295,-0.01877840422093868,-0.01283102855086327,-0.001190009876154363,0.009373128414154053,-0.01086580753326416,-0.007086575031280518,XArbitraryZVertical,-0.2772254488497644,-0.4981964228545083,0.15600328653965,0.8066035271477801,-0.7171978354454041,0.6026626229286194,-0.3498927354812622,0,0,0,-1,-1,31774.100769625,unknown,2,2025-04-22T12:57:30.865+03:00,2025-04-21T17:08:51.449+03:00,7384,0.9981967,0,0,6152.583,5,20,2025-04-22T12:57:30.865+03:00,767008653.5373739,0,-21.97,100.4704,1,0.75,2025-04-22T12:56:38.708+03:00,71,1.183333333333333,2025-04-22T09:54:17.825+03:00,0.02225348692287972,0
2025-04-22T12:57:35.952+03:00,1745315852.947822,40.95220305975717,29.14025630257546,76.18102,-1,-1,-1,-1,30,23.91450547804756,-9999,31779.183222375,-0.7126007080078125,0.6024627685546875,-0.3551177978515625,31779.173145375,-0.0309626130945343,-1.117158383412329,-0.6468996135513218,-0.01411361247301102,-0.01796853169798851,-0.0001624291762709618,0.008280813694000244,-0.0003594756126403809,-0.006506055593490601,XArbitraryZVertical,-0.2772773818497442,-0.4982667276530086,0.1559819406382778,0.8065463334447953,-0.717249870300293,0.6027153134346008,-0.3496950566768646,0,0,0,-1,-1,31774.100769625,unknown,2,2025-04-22T12:57:30.865+03:00,2025-04-21T17:08:51.449+03:00,7384,0.9981967,0,0,6152.583,5,20,2025-04-22T12:57:30.865+03:00,767008653.5373739,0,-21.97,100.4704,1,0.75,2025-04-22T12:56:38.708+03:00,71,1.183333333333333,2025-04-22T09:54:17.825+03:00,0.02225348692287972,0
2025-04-22T12:57:35.962+03:00,1745315852.947822,40.95220305975717,29.14025630257546,76.18102,-1,-1,-1,-1,30,23.91450547804756,-9999,31779.193299375,-0.7151031494140625,0.6007232666015625,-0.358154296875,31779.183222375,-0.03107985505214443,-1.117434450619822,-0.6469496718201302,-0.01060596294701099,-0.0229363925755024,-0.0002377966302447021,0.006656527519226074,0.0008213520050048828,-0.006000131368637085,XArbitraryZVertical,-0.2773051008160146,-0.4983572439592264,0.155985568531883,0.8064802987801077,-0.7173194289207458,0.6027552485466003,-0.3494838774204254,0,0,0,-1,-1,31774.100769625,unknown,2,2025-04-22T12:57:30.865+03:00,2025-04-21T17:08:51.449+03:00,7384,0.9981967,0,0,6152.583,5,20,2025-04-22T12:57:30.865+03:00,767008653.5373739,0,-21.97,100.4704,1,0.75,2025-04-22T12:56:38.708+03:00,71,1.183333333333333,2025-04-22T09:54:17.825+03:00,0.02225348692287972,0
2025-04-22T12:57:35.972+03:00,1745315852.947822,40.95220305975717,29.14025630257546,76.18102,-1,-1,-1,-1,30,23.91450547804756,-9999,31779.203376375,-0.7165985107421875,0.6037139892578125,-0.3582305908203125,31779.193299375,-0.03117826755603136,-1.117715486682159,-0.6469739612022262,-0.005860475823283195,-0.02464800700545311,-0.003389248158782721,0.003369331359863281,-0.00238722562789917,-0.008084982633590698,XArbitraryZVertical,-0.2773174534917437,-0.4984547463029161,0.1559910581148993,0.8064146087940139,-0.717404305934906,0.6027746796607971,-0.3492757976055145,0,0,0,-1,-1,31774.100769625,unknown,2,2025-04-22T12:57:30.865+03:00,2025-04-21T17:08:51.449+03:00,7384,0.9981967,0,0,6152.583,5,20,2025-04-22T12:57:30.865+03:00,767008653.5373739,0,-21.97,100.4704,1,0.75,2025-04-22T12:56:38.708+03:00,71,1.183333333333333,2025-04-22T09:54:17.825+03:00,0.02225348692287972,0
2025-04-22T12:57:35.982+03:00,1745315852.947822,40.95220305975717,29.14025630257546,76.18102,-1,-1,-1,-1,30,23.91450547804756,-9999,31779.213452375,-0.71435546875,0.602203369140625,-0.3553009033203125,31779.203376375,-0.03122963863420337,-1.117984605158712,-0.6469045294860895,-0.0008398847421631217,-0.02939296141266823,-0.007380261551588774,0.001761436462402344,0.0003842711448669434,-0.009251564741134644,XArbitraryZVertical,-0.2772814556555248,-0.498562416021962,0.1559900593672537,0.8063606228466269,-0.7175359129905701,0.602719247341156,-0.3491010367870331,0,0,0,-1,-1,31774.100769625,unknown,2,2025-04-22T12:57:30.865+03:00,2025-04-21T17:08:51.449+03:00,7384,0.9981967,0,0,6152.583,5,20,2025-04-22T12:57:30.865+03:00,767008653.5373739,0,-21.97,100.4704,1,0.75,2025-04-22T12:56:38.708+03:00,71,1.183333333333333,2025-04-22T09:54:17.825+03:00,0.02225348692287972,0
2025-04-22T12:57:35.992+03:00,1745315852.947822,40.95220305975717,29.14025630257546,76.18102,-1,-1,-1,-1,30,23.91450547804756,-9999,31779.223529375,-0.7132568359375,0.600921630859375,-0.3525390625,31779.213452375,-0.03123396523148266,-1.118268782645754,-0.6468048686178738,-0.0004132463072892278,-0.02875566482543945,-0.006999828852713108,0.002814888954162598,0.0003874897956848145,-0.007170945405960083,XArbitraryZVertical,-0.277220454532658,-0.4986854158822119,0.156002452398373,0.8063031165101902,-0.7176890969276428,0.6026397347450256,-0.3489233553409576,0,0,0,-1,-1,31774.100769625,unknown,2,2025-04-22T12:57:30.865+03:00,2025-04-21T17:08:51.449+03:00,7384,0.9981967,0,0,6152.583,5,20,2025-04-22T12:57:30.865+03:00,767008653.5373739,0,-21.97,100.4704,1,0.75,2025-04-22T12:56:38.708+03:00,71,1.183333333333333,2025-04-22T09:54:17.825+03:00,0.02225348692287972,0
2025-04-22T12:57:36.002+03:00,1745315852.947822,40.95220305975717,29.14025630257546,76.18102,-1,-1,-1,-1,30,23.91450547804756,-9999,31779.233606375,-0.7150421142578125,0.5963897705078125,-0.3524322509765625,31779.223529375,-0.03130092279156516,-1.118602322452527,-0.6467304411775474,-0.003966169431805611,-0.02966566756367683,-0.006177977658808231,0.0039023756980896,-0.0008958578109741211,-0.004995077848434448,XArbitraryZVertical,-0.2771813225808089,-0.4988173300887101,0.1560027999838731,0.8062349373569015,-0.7178457975387573,0.6025803089141846,-0.3487035632133484,0,0,0,-1,-1,31774.100769625,unknown,2,2025-04-22T12:57:30.865+03:00,2025-04-21T17:08:51.449+03:00,7384,0.9981967,0,0,6152.583,5,20,2025-04-22T12:57:30.865+03:00,767008653.5373739,0,-21.97,100.4704,1,0.75,2025-04-22T12:56:38.708+03:00,71,1.183333333333333,2025-04-22T09:54:17.825+03:00,0.02225348692287972,0
2025-04-22T12:57:36.012+03:00,1745315852.947822,40.95220305975717,29.14025630257546,76.18102,-1,-1,-1,-1,30,23.91450547804756,-9999,31779.243683375,-0.7157745361328125,0.5920562744140625,-0.3462677001953125,31779.233606375,-0.0313781106236771,-1.11890873419704,-0.6466942894655771,-0.009073979221284389,-0.02430832199752331,-0.003374933730810881,0.003418445587158203,-0.002926886081695557,-0.00447314977645874,XArbitraryZVertical,-0.2771621920916686,-0.4989334137323237,0.156004961716064,0.8061693077428216,-0.7179722785949707,0.6025514602661133,-0.3484931290149689,0,0,0,-1,-1,31774.100769625,unknown,2,2025-04-22T12:57:30.865+03:00,2025-04-21T17:08:51.449+03:00,7384,0.9981967,0,0,6152.583,5,20,2025-04-22T12:57:30.865+03:00,767008653.5373739,0,-21.97,100.4704,1,0.75,2025-04-22T12:56:38.708+03:00,71,1.183333333333333,2025-04-22T09:54:17.825+03:00,0.02225348692287972,0
2025-04-22T12:57:36.022+03:00,1745315852.947822,40.95220305975717,29.14025630257546,76.18102,-1,-1,-1,-1,30,23.91450547804756,-9999,31779.253760375,-0.714752197265625,0.59466552734375,-0.344024658203125,31779.243683375,-0.03148755279075623,-1.119176819271726,-0.6466929016205417,-0.01209400407969952,-0.02335331216454506,-0.004172550514340401,0.00137639045715332,-0.0104789137840271,-0.0003470182418823242,XArbitraryZVertical,-0.2771680301812094,-0.4990264296637536,0.1559976483299328,0.8061111420574454,-0.718066394329071,0.6025503873825073,-0.3483010232448578,0,0,0,-1,-1,31774.100769625,unknown,2,2025-04-22T12:57:30.865+03:00,2025-04-21T17:08:51.449+03:00,7384,0.9981967,0,0,6152.583,5,20,2025-04-22T12:57:30.865+03:00,767008653.5373739,0,-21.97,100.4704,1,0.75,2025-04-22T12:56:38.708+03:00,71,1.183333333333333,2025-04-22T09:54:17.825+03:00,0.02225348692287972,0
2025-04-22T12:57:36.033+03:00,1745315852.947822,40.95220305975717,29.14025630257546,76.18102,-1,-1,-1,-1,30,23.91450547804756,-9999,31779.263837375,-0.7161712646484375,0.5958099365234375,-0.3448028564453125,31779.253760375,-0.03161613425219161,-1.119427628586142,-0.6467513904390944,-0.015074348077178,-0.02081052586436272,-0.001028422615490854,0.003262996673583984,-0.00909125804901123,0.003470540046691895,XArbitraryZVertical,-0.2772039742217602,-0.4991043977853947,0.155995439608649,0.8060509103634795,-0.7181220054626465,0.6025970578193665,-0.3481055200099945,0,0,0,-1,-1,31774.100769625,unknown,2,2025-04-22T12:57:30.865+03:00,2025-04-21T17:08:51.449+03:00,7384,0.9981967,0,0,6152.583,5,20,2025-04-22T12:57:30.865+03:00,767008653.5373739,0,-21.97,100.4704,1,0.75,2025-04-22T12:56:38.708+03:00,71,1.183333333333333,2025-04-22T09:54:17.825+03:00,0.02225348692287972,0
2025-04-22T12:57:36.042+03:00,1745315852.947822,40.95220305975717,29.14025630257546,76.18102,-1,-1,-1,-1,30,23.91450547804756,-9999,31779.273914375,-0.7152557373046875,0.594451904296875,-0.34576416015625,31779.263837375,-0.03179187816147244,-1.119693187896737,-0.6468342688628038,-0.02060546539723873,-0.01690606586635113,-0.0006326768780127168,0.002288162708282471,-0.006670296192169189,0.003425925970077515,XArbitraryZVertical,-0.2772603058066428,-0.4991795464095591,0.1559824737056069,0.8059874778859674,-0.7181694507598877,0.6026632189750671,-0.3478929996490479,0,0,0,-1,-1,31774.100769625,unknown,2,2025-04-22T12:57:30.865+03:00,2025-04-21T17:08:51.449+03:00,7384,0.9981967,0,0,6152.583,5,20,2025-04-22T12:57:30.865+03:00,767008653.5373739,0,-21.97,100.4704,1,0.75,2025-04-22T12:56:38.708+03:00,71,1.183333333333333,2025-04-22T09:54:17.825+03:00,0.02225348692287972,0
2025-04-22T12:57:36.053+03:00,1745315852.947822,40.95220305975717,29.14025630257546,76.18102,-1,-1,-1,-1,30,23.91450547804756,-9999,31779.283990375,-0.71630859375,0.5944976806640625,-0.34356689453125,31779.273914375,-0.03201397736589456,-1.119952648982137,-0.6469192172402103,-0.02403082326054573,-0.01490070484578609,7.412611739709973e-05,0.00268322229385376,-0.007516264915466309,0.002790004014968872,XArbitraryZVertical,-0.2773295163061604,-0.4992456018611073,0.1559505235556667,0.8059289115063795,-0.7182135581970215,0.6027309894561768,-0.3476843237876892,0,0,0,-1,-1,31774.100769625,unknown,2,2025-04-22T12:57:30.865+03:00,2025-04-21T17:08:51.449+03:00,7384,0.9981967,0,0,6152.583,5,20,2025-04-22T12:57:30.865+03:00,767008653.5373739,0,-21.97,100.4704,1,0.75,2025-04-22T12:56:38.708+03:00,71,1.183333333333333,2025-04-22T09:54:17.825+03:00,0.02225348692287972,0
2025-04-22T12:57:36.063+03:00,1745315852.947822,40.95220305975717,29.14025630257546,76.18102,-1,-1,-1,-1,30,23.91450547804756,-9999,31779.294067375,-0.7155609130859375,0.59625244140625,-0.3447113037109375,31779.283990375,-0.032296331578844,-1.120247424707401,-0.6470374187577322,-0.03093347139656544,-0.01700060814619064,-0.0001144257257692516,0.002431690692901611,-0.009395837783813477,0.003401726484298706,XArbitraryZVertical,-0.2774243243568054,-0.4993144722175158,0.1559076364516791,0.8058619464067105,-0.7182519435882568,0.6028252840042114,-0.3474416136741638,0,0,0,-1,-1,31774.100769625,unknown,2,2025-04-22T12:57:30.865+03:00,2025-04-21T17:08:51.449+03:00,7384,0.9981967,0,0,6152.583,5,20,2025-04-22T12:57:30.865+03:00,767008653.5373739,0,-21.97,100.4704,1,0.75,2025-04-22T12:56:38.708+03:00,71,1.183333333333333,2025-04-22T09:54:17.825+03:00,0.02225348692287972,0
2025-04-22T12:57:36.073+03:00,1745315852.947822,40.95220305975717,29.14025630257546,76.18102,-1,-1,-1,-1,30,23.91450547804756,-9999,31779.304144375,-0.7152099609375,0.597198486328125,-0.347900390625,31779.294067375,-0.03261161034798953,-1.120605883638582,-0.6471748595854039,-0.03119738958775997,-0.01962754875421524,0.0002451009931974113,0.002466320991516113,-0.006972432136535645,0.004252642393112183,XArbitraryZVertical,-0.2775300903773258,-0.4994026345797459,0.1558652187205839,0.8057791909138226,-0.7183019518852234,0.6029349565505981,-0.3471481204032898,0,0,0,-1,-1,31774.100769625,unknown,2,2025-04-22T12:57:30.865+03:00,2025-04-21T17:08:51.449+03:00,7384,0.9981967,0,0,6152.583,5,20,2025-04-22T12:57:30.865+03:00,767008653.5373739,0,-21.97,100.4704,1,0.75,2025-04-22T12:56:38.708+03:00,71,1.183333333333333,2025-04-22T09:54:17.825+03:00,0.02225348692287972,0
2025-04-22T12:57:36.083+03:00,1745315852.947822,40.95220305975717,29.14025630257546,76.18102,-1,-1,-1,-1,30,23.91450547804756,-9999,31779.314221375,-0.7167816162109375,0.6015167236328125,-0.3465118408203125,31779.304144375,-0.03294772704034584,-1.121010436737098,-0.6473202408192615,-0.03310501575469971,-0.0253088716417551,-0.00083268026355654,0.003580629825592041,-0.006798505783081055,-0.0001807510852813721,XArbitraryZVertical,-0.2776406688937708,-0.4995057202589163,0.1558228999100793,0.8056853928238552,-0.7183634042739868,0.6030509471893311,-0.3468194007873535,0,0,0,-1,-1,31774.100769625,unknown,2,2025-04-22T12:57:30.865+03:00,2025-04-21T17:08:51.449+03:00,7384,0.9981967,0,0,6152.583,5,20,2025-04-22T12:57:30.865+03:00,767008653.5373739,0,-21.97,100.4704,1,0.75,2025-04-22T12:56:38.708+03:00,71,1.183333333333333,2025-04-22T09:54:17.825+03:00,0.02225348692287972,0
2025-04-22T12:57:36.093+03:00,1745315852.947822,40.95220305975717,29.14025630257546,76.18102,-1,-1,-1,-1,30,23.91450547804756,-9999,31779.324298375,-0.7186126708984375,0.6030731201171875,-0.345855712890625,31779.314221375,-0.03327996482294358,-1.121444282015638,-0.6474361705798247,-0.03231272473931313,-0.0275184940546751,-0.0006185621023178101,0.002828836441040039,-0.003656148910522461,-0.0002939105033874512,XArbitraryZVertical,-0.2777362396608815,-0.4996237892360265,0.1557787983163019,0.8055877213736005,-0.7184507250785828,0.6031433939933777,-0.3464772999286652,0,0,0,-1,-1,31774.100769625,unknown,2,2025-04-22T12:57:30.865+03:00,2025-04-21T17:08:51.449+03:00,7384,0.9981967,0,0,6152.583,5,20,2025-04-22T12:57:30.865+03:00,767008653.5373739,0,-21.97,100.4704,1,0.75,2025-04-22T12:56:38.708+03:00,71,1.183333333333333,2025-04-22T09:54:17.825+03:00,0.02225348692287972,0
2025-04-22T12:57:36.103+03:00,1745315852.947822,40.95220305975717,29.14025630257546,76.18102,-1,-1,-1,-1,30,23.91450547804756,-9999,31779.334375375,-0.720916748046875,0.6033172607421875,-0.344940185546875,31779.324298375,-0.03360665920836192,-1.121880553401582,-0.6475337144606437,-0.03090604022145271,-0.02417995780706406,0.001090920995920897,-0.0001249313354492188,0.0002027750015258789,-0.0001141130924224854,XArbitraryZVertical,-0.2778229100539167,-0.4997452445443996,0.1557326560688325,0.8054913263921539,-0.7185487151145935,0.6032211780548096,-0.3461382389068604,0,0,0,-1,-1,31774.100769625,unknown,2,2025-04-22T12:57:30.865+03:00,2025-04-21T17:08:51.449+03:00,7384,0.9981967,0,0,6152.583,5,20,2025-04-22T12:57:30.865+03:00,767008653.5373739,0,-21.97,100.4704,1,0.75,2025-04-22T12:56:38.708+03:00,71,1.183333333333333,2025-04-22T09:54:17.825+03:00,0.02225348692287972,0
2025-04-22T12:57:36.113+03:00,1745315852.947822,40.95220305975717,29.14025630257546,76.18102,-1,-1,-1,-1,30,23.91450547804756,-9999,31779.344451375,-0.72119140625,0.6022491455078125,-0.3435821533203125,31779.334375375,-0.03391591819946219,-1.12228268786159,-0.6476448682155281,-0.02862584218382835,-0.01917747594416142,0.001496520591899753,-0.001480460166931152,0.0001904964447021484,0.0003918111324310303,XArbitraryZVertical,-0.2779133081713388,-0.4998540311120532,0.1556921937381226,0.8054006274041421,-0.7186276316642761,0.6033098697662354,-0.345820277929306,0,0,0,-1,-1,31774.100769625,unknown,2,2025-04-22T12:57:30.865+03:00,2025-04-21T17:08:51.449+03:00,7384,0.9981967,0,0,6152.583,5,20,2025-04-22T12:57:30.865+03:00,767008653.5373739,0,-21.97,100.4704,1,0.75,2025-04-22T12:56:38.708+03:00,71,1.183333333333333,2025-04-22T09:54:17.825+03:00,0.02225348692287972,0
2025-04-22T12:57:36.123+03:00,1745315852.947822,40.95220305975717,29.14025630257546,76.18102,-1,-1,-1,-1,30,23.91450547804756,-9999,31779.354528375,-0.717559814453125,0.600555419921875,-0.3466796875,31779.344451375,-0.03420621973738614,-1.122643030362068,-0.6477478293495481,-0.02544403076171875,-0.01920743472874165,-0.001678034197539091,-0.002541065216064453,-0.001814305782318115,0.002348929643630981,XArbitraryZVertical,-0.2779990076476319,-0.4999494009002317,0.1556516489227928,0.8053195268274778,-0.7186959981918335,0.6033919453620911,-0.3455342948436737,0,0,0,-1,-1,31774.100769625,unknown,2,2025-04-22T12:57:30.865+03:00,2025-04-21T17:08:51.449+03:00,7384,0.9981967,0,0,6152.583,5,20,2025-04-22T12:57:30.865+03:00,767008656.1149665,0,-22.1,100.4687,1,0.75,2025-04-22T12:56:38.708+03:00,71,1.183333333333333,2025-04-22T09:54:17.825+03:00,0.02225348692287972,0
2025-04-22T12:57:36.134+03:00,1745315852.947822,40.95220305975717,29.14025630257546,76.18102,-1,-1,-1,-1,30,23.91450547804756,-9999,31779.364605375,-0.7171630859375,0.598785400390625,-0.340484619140625,31779.354528375,-0.03453639269987178,-1.123022810035909,-0.6478471771223969,-0.03300115093588829,-0.01611244305968285,0.0001827830565162003,-0.000388801097869873,-0.001847743988037109,-0.001047521829605103,XArbitraryZVertical,-0.278091714864762,-0.5000473185344835,0.1555968139083355,0.8052372907207573,-0.7187731266021729,0.6034711599349976,-0.3452353477478027,0,0,0,-1,-1,31774.100769625,unknown,2,2025-04-22T12:57:30.865+03:00,2025-04-21T17:08:51.449+03:00,7384,0.9981967,0,0,6152.583,5,20,2025-04-22T12:57:30.865+03:00,767008656.1149665,0,-22.1,100.4687,1,0.75,2025-04-22T12:56:38.708+03:00,71,1.183333333333333,2025-04-22T09:54:17.825+03:00,0.02225348692287972,0
2025-04-22T12:57:36.143+03:00,1745315852.947822,40.95220305975717,29.14025630257546,76.18102,-1,-1,-1,-1,30,23.91450547804756,-9999,31779.374682375,-0.7191162109375,0.5959625244140625,-0.335968017578125,31779.364605375,-0.03496097071758099,-1.12345612343982,-0.6479589795360663,-0.03973967954516411,-0.01703196577727795,-0.003403795883059502,0.002324402332305908,-0.003783226013183594,0.0006106793880462646,XArbitraryZVertical,-0.2782088612621031,-0.5001524676774148,0.1555146256483534,0.8051473871472677,-0.7188618183135986,0.6035603284835815,-0.344894677400589,0,0,0,-1,-1,31774.100769625,unknown,2,2025-04-22T12:57:30.865+03:00,2025-04-21T17:08:51.449+03:00,7384,0.9981967,0,0,6152.583,5,20,2025-04-22T12:57:30.865+03:00,767008656.1149665,0,-22.1,100.4687,1,0.75,2025-04-22T12:56:38.708+03:00,71,1.183333333333333,2025-04-22T09:54:17.825+03:00,0.02225348692287972,0
2025-04-22T12:57:36.161+03:00,1745315852.947822,40.95220305975717,29.14025630257546,76.18102,-1,-1,-1,-1,30,23.91450547804756,-9999,31779.384759375,-0.718536376953125,0.5933685302734375,-0.340911865234375,31779.374682375,-0.03548975981111938,-1.123913091839258,-0.6481212231113009,-0.05180127173662186,-0.01149698533117771,0.001854149624705315,0.0003643035888671875,-0.006964266300201416,0.009090006351470947,XArbitraryZVertical,-0.2783703961388297,-0.5002479062809009,0.1554066297574431,0.8050532646072095,-0.7189311981201172,0.6036896705627441,-0.3445239067077637,0,0,0,-1,-1,31774.100769625,unknown,2,2025-04-22T12:57:30.865+03:00,2025-04-21T17:08:51.449+03:00,7384,0.9981967,0,0,6152.583,5,20,2025-04-22T12:57:30.865+03:00,767008656.1149665,0,-22.1,100.4687,1,0.75,2025-04-22T12:56:38.708+03:00,71,1.183333333333333,2025-04-22T09:54:17.825+03:00,0.02225348692287972,0
2025-04-22T12:57:36.164+03:00,1745315852.947822,40.95220305975717,29.14025630257546,76.18102,-1,-1,-1,-1,30,23.91450547804756,-9999,31779.394836375,-0.7200775146484375,0.595977783203125,-0.3434906005859375,31779.384759375,-0.03608937584514159,-1.124352819762603,-0.6483559912169694,-0.05243217572569847,-0.006610883865505457,0.0008224410703405738,-0.0002988576889038086,-0.009745478630065918,0.005508214235305786,XArbitraryZVertical,-0.2785800325051238,-0.5003198347813048,0.1552864266039953,0.8049590939684798,-0.7189546227455139,0.6038768291473389,-0.3441464602947235,0,0,0,-1,-1,31774.100769625,unknown,2,2025-04-22T12:57:30.865+03:00,2025-04-21T17:08:51.449+03:00,7384,0.9981967,0,0,6152.583,5,20,2025-04-22T12:57:30.865+03:00,767008656.1149665,0,-22.1,100.4687,1,0.75,2025-04-22T12:56:38.708+03:00,71,1.183333333333333,2025-04-22T09:54:17.825+03:00,0.02225348692287972,0
2025-04-22T12:57:36.174+03:00,1745315852.947822,40.95220305975717,29.14025630257546,76.18102,-1,-1,-1,-1,30,23.91450547804756,-9999,31779.404912375,-0.7187957763671875,0.6010589599609375,-0.344451904296875,31779.394836375,-0.03669029926172774,-1.124770067074875,-0.6485973550621233,-0.05439665168523788,-0.005591558758169413,0.002691913628950715,-0.0005003809928894043,-0.009769916534423828,0.001406967639923096,XArbitraryZVertical,-0.2787943642262847,-0.5003817492585252,0.1551642480510724,0.8048700578784914,-0.7189667224884033,0.6040691733360291,-0.3437836170196533,0,0,0,-1,-1,31774.100769625,unknown,2,2025-04-22T12:57:30.865+03:00,2025-04-21T17:08:51.449+03:00,7384,0.9981967,0,0,6152.583,5,20,2025-04-22T12:57:30.865+03:00,767008656.1149665,0,-22.1,100.4687,1,0.75,2025-04-22T12:56:38.708+03:00,71,1.183333333333333,2025-04-22T09:54:17.825+03:00,0.02225348692287972,0
2025-04-22T12:57:36.184+03:00,1745315852.947822,40.95220305975717,29.14025630257546,76.18102,-1,-1,-1,-1,30,23.91450547804756,-9999,31779.414989375,-0.716796875,0.6014404296875,-0.3465118408203125,31779.404912375,-0.03729012257310529,-1.125206972880601,-0.6488678799451471,-0.05171458050608635,-0.01090376637876034,0.004317773040384054,-0.0006961822509765625,-0.004965424537658691,-0.0007171928882598877,XArbitraryZVertical,-0.2790185856448134,-0.500448945065372,0.155052875697857,0.8047719446357603,-0.7189692854881287,0.6042847633361816,-0.3433989584445953,0,0,0,-1,-1,31774.100769625,unknown,2,2025-04-22T12:57:30.865+03:00,2025-04-21T17:08:51.449+03:00,7384,0.9981967,0,0,6152.583,5,20,2025-04-22T12:57:30.865+03:00,767008656.1149665,0,-22.1,100.4687,1,0.75,2025-04-22T12:56:38.708+03:00,71,1.183333333333333,2025-04-22T09:54:17.825+03:00,0.02225348692287972,0
2025-04-22T12:57:36.194+03:00,1745315852.947822,40.95220305975717,29.14025630257546,76.18102,-1,-1,-1,-1,30,23.91450547804756,-9999,31779.425066375,-0.7164764404296875,0.6009979248046875,-0.3477325439453125,31779.414989375,-0.03782776687887883,-1.125648710215438,-0.6490990130034172,-0.0479634553194046,-0.01366965938359499,0.003226310014724731,0.0006111264228820801,-0.002235114574432373,-0.003490597009658813,XArbitraryZVertical,-0.2792111526943623,-0.5005302568933864,0.1549572044312247,0.8046730154311471,-0.7189947962760925,0.6044688820838928,-0.3430211842060089,0,0,0,-1,-1,31774.100769625,unknown,2,2025-04-22T12:57:30.865+03:00,2025-04-21T17:08:51.449+03:00,7384,0.9981967,0,0,6152.583,5,20,2025-04-22T12:57:30.865+03:00,767008656.1149665,0,-22.1,100.4687,1,0.75,2025-04-22T12:56:38.708+03:00,71,1.183333333333333,2025-04-22T09:54:17.825+03:00,0.02225348692287972,0
2025-04-22T12:57:36.204+03:00,1745315852.947822,40.95220305975717,29.14025630257546,76.18102,-1,-1,-1,-1,30,23.91450547804756,-9999,31779.435143375,-0.7194061279296875,0.6013946533203125,-0.3472747802734375,31779.425066375,-0.03834412726369064,-1.126124761845913,-0.6493086397589976,-0.04475860670208931,-0.01719861477613449,0.002999408636242151,0.002765655517578125,-0.003775358200073242,-0.004711389541625977,XArbitraryZVertical,-0.2793871668744702,-0.5006302196459177,0.1548694689418759,0.8045666753123171,-0.7190436720848083,0.6046358942985535,-0.3426243960857391,0,0,0,-1,-1,31774.100769625,unknown,2,2025-04-22T12:57:30.865+03:00,2025-04-21T17:08:51.449+03:00,7384,0.9981967,0,0,6152.583,5,20,2025-04-22T12:57:30.865+03:00,767008656.1149665,0,-22.1,100.4687,1,0.75,2025-04-22T12:56:38.708+03:00,71,1.183333333333333,2025-04-22T09:54:17.825+03:00,0.02225348692287972,0
2025-04-22T12:57:36.214+03:00,1745315852.947822,40.95220305975717,29.14025630257546,76.18102,-1,-1,-1,-1,30,23.91450547804756,-9999,31779.445220375,-0.7222747802734375,0.5992431640625,-0.344757080078125,31779.435143375,-0.03882873105619689,-1.126550791105719,-0.6495235264599342,-0.04892145842313766,-0.01178926602005959,0.003956382162868977,0.001649856567382812,-0.003443002700805664,-0.005821257829666138,XArbitraryZVertical,-0.2795612352354293,-0.5007139211127462,0.1547889810114136,0.8044695977869358,-0.7190722823143005,0.6048070192337036,-0.3422621786594391,0,0,0,-1,-1,31774.100769625,unknown,2,2025-04-22T12:57:30.865+03:00,2025-04-21T17:08:51.449+03:00,7384,0.9981967,0,0,6152.583,5,20,2025-04-22T12:57:30.865+03:00,767008656.1149665,0,-22.1,100.4687,1,0.75,2025-04-22T12:56:38.708+03:00,71,1.183333333333333,2025-04-22T09:54:17.825+03:00,0.02225348692287972,0
2025-04-22T12:57:36.224+03:00,1745315852.947822,40.95220305975717,29.14025630257546,76.18102,-1,-1,-1,-1,30,23.91450547804756,-9999,31779.455297375,-0.721343994140625,0.5981903076171875,-0.34295654296875,31779.445220375,-0.03937125994034272,-1.126978057126291,-0.6497737109911578,-0.05501210689544678,-0.007537529803812504,0.005563067272305489,-0.0025520920753479,-0.00516808032989502,-0.00311124324798584,XArbitraryZVertical,-0.2797638034884472,-0.5007866296194849,0.1546944667208376,0.8043721138996557,-0.7190817594528198,0.605006217956543,-0.3418899178504944,0,0,0,-1,-1,31774.100769625,unknown,2,2025-04-22T12:57:30.865+03:00,2025-04-21T17:08:51.449+03:00,7384,0.9981967,0,0,6152.583,5,20,2025-04-22T12:57:30.865+03:00,767008656.1149665,0,-22.1,100.4687,1,0.75,2025-04-22T12:56:38.708+03:00,71,1.183333333333333,2025-04-22T09:54:17.825+03:00,0.02225348692287972,0
2025-04-22T12:57:36.234+03:00,1745315852.947822,40.95220305975717,29.14025630257546,76.18102,-1,-1,-1,-1,30,23.91450547804756,-9999,31779.465373375,-0.717010498046875,0.6002349853515625,-0.3381805419921875,31779.455297375,-0.03999255972980189,-1.127434591958074,-0.6500506753100291,-0.05502622202038765,-0.008128752931952477,0.007438465487211943,-0.00276106595993042,-0.007494270801544189,-0.002824783325195312,XArbitraryZVertical,-0.2799945284561904,-0.5008574637216668,0.1545793189416296,0.8042698869468846,-0.7190864086151123,0.6052267551422119,-0.3414897322654724,0,0,0,-1,-1,31774.100769625,unknown,2,2025-04-22T12:57:30.865+03:00,2025-04-21T17:08:51.449+03:00,7384,0.9981967,0,0,6152.583,5,20,2025-04-22T12:57:30.865+03:00,767008656.1149665,0,-22.1,100.4687,1,0.75,2025-04-22T12:56:38.708+03:00,71,1.183333333333333,2025-04-22T09:54:17.825+03:00,0.02225348692287972,0
2025-04-22T12:57:36.254+03:00,1745315852.947822,40.95220305975717,29.14025630257546,76.18102,-1,-1,-1,-1,30,23.91450547804756,-9999,31779.475450375,-0.7125396728515625,0.601043701171875,-0.337799072265625,31779.465373375,-0.04058965404200838,-1.127889978039728,-0.6503029419891225,-0.05625367537140846,-0.0108819268643856,0.003348116530105472,0.0007201433181762695,-0.00587928295135498,0.0009936690330505371,XArbitraryZVertical,-0.2802094572748967,-0.5009333950059093,0.1544675511105732,0.8041692096376772,-0.7191038727760315,0.6054275631904602,-0.3410967886447906,0,0,0,-1,-1,31774.100769625,unknown,2,2025-04-22T12:57:30.865+03:00,2025-04-21T17:08:51.449+03:00,7384,0.9981967,0,0,6152.583,5,20,2025-04-22T12:57:30.865+03:00,767008656.1149665,0,-22.1,100.4687,1,0.75,2025-04-22T12:56:38.708+03:00,71,1.183333333333333,2025-04-22T09:54:17.825+03:00,0.02225348692287972,0
2025-04-22T12:57:36.256+03:00,1745315852.947822,40.95220305975717,29.14025630257546,76.18102,-1,-1,-1,-1,30,23.91450547804756,-9999,31779.485527375,-0.7106170654296875,0.6011505126953125,-0.3398284912109375,31779.475450375,-0.04119629595656923,-1.128369464161779,-0.6505492444193027,-0.05695295333862305,-0.01245792023837566,0.006621707230806351,0.005662143230438232,-0.004488348960876465,0.003575682640075684,XArbitraryZVertical,-0.2804225586410767,-0.5010180965799464,0.1543538935488992,0.8040640048874188,-0.7191326022148132,0.6056235432624817,-0.3406881093978882,0,0,0,-1,-1,31774.100769625,unknown,2,2025-04-22T12:57:30.865+03:00,2025-04-21T17:08:51.449+03:00,7384,0.9981967,0,0,6152.583,5,20,2025-04-22T12:57:30.865+03:00,767008656.1149665,0,-22.1,100.4687,1,0.75,2025-04-22T12:56:38.708+03:00,71,1.183333333333333,2025-04-22T09:54:17.825+03:00,0.02225348692287972,0
2025-04-22T12:57:36.265+03:00,1745315852.947822,40.95220305975717,29.14025630257546,76.18102,-1,-1,-1,-1,30,23.91450547804756,-9999,31779.495604375,-0.711669921875,0.5999755859375,-0.3484649658203125,31779.485527375,-0.04177971166234623,-1.128862690448871,-0.650829673060164,-0.05614681541919708,-0.01707557402551174,0.01129182614386082,0.007431268692016602,-0.004391133785247803,0.0009052455425262451,XArbitraryZVertical,-0.2806424230573025,-0.5011082709705263,0.1542604140882317,0.8039489236295181,-0.7191468477249146,0.6058467030525208,-0.3402606546878815,0,0,0,-1,-1,31774.100769625,unknown,2,2025-04-22T12:57:30.865+03:00,2025-04-21T17:08:51.449+03:00,7384,0.9981967,0,0,6152.583,5,20,2025-04-22T12:57:30.865+03:00,767008656.1149665,0,-22.1,100.4687,1,0.75,2025-04-22T12:56:38.708+03:00,71,1.183333333333333,2025-04-22T09:54:17.825+03:00,0.02225348692287972,0
2025-04-22T12:57:36.274+03:00,1745315852.947822,40.95220305975717,29.14025630257546,76.18102,-1,-1,-1,-1,30,23.91450547804756,-9999,31779.505681375,-0.7115020751953125,0.596588134765625,-0.3590545654296875,31779.495604375,-0.04245730107328934,-1.129433301500539,-0.6511675314456996,-0.07667046785354614,-0.01958746835589409,0.005032332614064217,0.00824892520904541,-0.005651652812957764,-0.005101025104522705,XArbitraryZVertical,-0.2809027869199699,-0.5012107365288366,0.1541547173302496,0.8038144655771065,-0.7191559076309204,0.606115460395813,-0.3397628366947174,0,0,0,-1,-1,31774.100769625,unknown,2,2025-04-22T12:57:30.865+03:00,2025-04-21T17:08:51.449+03:00,7384,0.9981967,0,0,6152.583,5,20,2025-04-22T12:57:30.865+03:00,767008656.1149665,0,-22.1,100.4687,1,0.75,2025-04-22T12:56:38.708+03:00,71,1.183333333333333,2025-04-22T09:54:17.825+03:00,0.02225348692287972,0
2025-04-22T12:57:36.284+03:00,1745315852.947822,40.95220305975717,29.14025630257546,76.18102,-1,-1,-1,-1,30,23.91450547804756,-9999,31779.515758375,-0.710601806640625,0.5820159912109375,-0.3678131103515625,31779.505681375,-0.04364958083413473,-1.13037746729384,-0.651713606044813,-0.1554268002510071,-0.02830612286925316,0.01226175017654896,0.007171273231506348,-0.007993221282958984,-0.01660245656967163,XArbitraryZVertical,-0.2813463272448027,-0.5013710921621517,0.1539483509593368,0.8035988762383108,-0.7191768884658813,0.6065496802330017,-0.3389425575733185,0,0,0,-1,-1,31774.100769625,unknown,2,2025-04-22T12:57:30.865+03:00,2025-04-21T17:08:51.449+03:00,7384,0.9981967,0,0,6152.583,5,20,2025-04-22T12:57:30.865+03:00,767008656.1149665,0,-22.1,100.4687,1,0.75,2025-04-22T12:56:38.708+03:00,71,1.183333333333333,2025-04-22T09:54:17.825+03:00,0.02225348692287972,0
2025-04-22T12:57:36.295+03:00,1745315852.947822,40.95220305975717,29.14025630257546,76.18102,-1,-1,-1,-1,30,23.91450547804756,-9999,31779.525835375,-0.7111358642578125,0.5449676513671875,-0.369415283203125,31779.515758375,-0.04609386307576311,-1.132205165309323,-0.6527277237284427,-0.2901726961135864,-0.04728414118289948,0.005777718033641577,0.008376717567443848,-0.01769500970840454,-0.02791395783424377,XArbitraryZVertical,-0.2822222357986083,-0.5016647479117934,0.1534844239792645,0.8031971635106692,-0.7192379832267761,0.6073556542396545,-0.3373661935329437,0,0,0,-1,-1,31774.100769625,unknown,2,2025-04-22T12:57:30.865+03:00,2025-04-21T17:08:51.449+03:00,7384,0.9981967,0,0,6152.583,5,20,2025-04-22T12:57:30.865+03:00,767008656.1149665,0,-22.1,100.4687,1,0.75,2025-04-22T12:56:38.708+03:00,71,1.183333333333333,2025-04-22T09:54:17.825+03:00,0.02225348692287972,0
2025-04-22T12:57:36.305+03:00,1745315852.947822,40.95220305975717,29.14025630257546,76.18102,-1,-1,-1,-1,30,23.91450547804756,-9999,31779.535911375,-0.7121124267578125,0.52203369140625,-0.3673553466796875,31779.525835375,-0.05034107758177348,-1.135385999190698,-0.6542857812464393,-0.4515533149242401,-0.06899716705083847,-0.005230457987636328,0.007946372032165527,-0.04813748598098755,-0.03554680943489075,XArbitraryZVertical,-0.2836637069850994,-0.5021915545340965,0.1526307039860378,0.8025224342876093,-0.7194483876228333,0.608592689037323,-0.3346771001815796,0,0,0,-1,-1,31774.100769625,unknown,2,2025-04-22T12:57:30.865+03:00,2025-04-21T17:08:51.449+03:00,7384,0.9981967,0,0,6152.583,5,20,2025-04-22T12:57:30.865+03:00,767008656.1149665,0,-22.1,100.4687,1,0.75,2025-04-22T12:56:38.708+03:00,71,1.183333333333333,2025-04-22T09:54:17.825+03:00,0.02225348692287972,0
2025-04-22T12:57:36.315+03:00,1745315852.947822,40.95220305975717,29.14025630257546,76.18102,-1,-1,-1,-1,30,23.91450547804756,-9999,31779.545988375,-0.716278076171875,0.55291748046875,-0.3839263916015625,31779.535911375,-0.05598269061948786,-1.13947863212017,-0.6562742811006474,-0.513227641582489,-0.07046037167310715,-0.001606195466592908,0.008972227573394775,-0.08543485403060913,-0.03536909818649292,XArbitraryZVertical,-0.2855583889017574,-0.5028367245775075,0.151464500728122,0.8016670239625655,-0.7197113037109375,0.6101692914962769,-0.3312232792377472,0,0,0,-1,-1,31774.100769625,unknown,2,2025-04-22T12:57:30.865+03:00,2025-04-21T17:08:51.449+03:00,7384,0.9981967,0,0,6152.583,5,20,2025-04-22T12:57:30.865+03:00,767008656.1149665,0,-22.1,100.4687,1,0.75,2025-04-22T12:56:38.708+03:00,71,1.183333333333333,2025-04-22T09:54:17.825+03:00,0.02225348692287972,0
2025-04-22T12:57:36.325+03:00,1745315852.947822,40.95220305975717,29.14025630257546,76.18102,-1,-1,-1,-1,30,23.91450547804756,-9999,31779.556065375,-0.7056427001953125,0.61834716796875,-0.4066619873046875,31779.545988375,-0.06134882135957398,-1.143557947941796,-0.6582308470696032,-0.4314787685871124,-0.1019724905490875,0.01587266474962234,0.004865586757659912,-0.07531088590621948,-0.04849237203598022,XArbitraryZVertical,-0.2873743936300922,-0.503508978850143,0.1504068356312386,0.8007948896874518,-0.7199686765670776,0.6117182970046997,-0.3277893364429474,0,0,0,-1,-1,31774.100769625,unknown,2,2025-04-22T12:57:30.865+03:00,2025-04-21T17:08:51.449+03:00,7384,0.9981967,0,0,6152.583,5,20,2025-04-22T12:57:30.865+03:00,767008656.1149665,0,-22.1,100.4687,1,0.75,2025-04-22T12:56:38.708+03:00,71,1.183333333333333,2025-04-22T09:54:17.825+03:00,0.02225348692287972,0
2025-04-22T12:57:36.335+03:00,1745315852.947822,40.95220305975717,29.14025630257546,76.18102,-1,-1,-1,-1,30,23.91450547804756,-9999,31779.566142375,-0.6934356689453125,0.6674041748046875,-0.4539031982421875,31779.556065375,-0.06568938361924935,-1.147412022793291,-0.6599217865192196,-0.334849625825882,-0.1344677805900574,0.009743564762175083,0.008231163024902344,-0.02070891857147217,-0.07212656736373901,XArbitraryZVertical,-0.2888461072082243,-0.5042564863825784,0.1496656473116977,0.7999334310427182,-0.7202825546264648,0.6130550503730774,-0.3245866298675537,0,0,0,-1,-1,31774.100769625,unknown,2,2025-04-22T12:57:30.865+03:00,2025-04-21T17:08:51.449+03:00,7384,0.9981967,0,0,6152.583,5,20,2025-04-22T12:57:30.865+03:00,767008656.1149665,0,-22.1,100.4687,1,0.75,2025-04-22T12:56:38.708+03:00,71,1.183333333333333,2025-04-22T09:54:17.825+03:00,0.02225348692287972,0
2025-04-22T12:57:36.345+03:00,1745315852.947822,40.95220305975717,29.14025630257546,76.18102,-1,-1,-1,-1,30,23.91450547804756,-9999,31779.576219375,-0.69183349609375,0.674713134765625,-0.52630615234375,31779.566142375,-0.0688724796569672,-1.150884221518552,-0.6610931048377655,-0.2150824666023254,-0.171815425157547,0.001273114583455026,0.02574175596237183,0.04068303108215332,-0.1102007925510406,XArbitraryZVertical,-0.2898511791040674,-0.5050652501000216,0.1492017518831382,0.7991459462112491,-0.7207490801811218,0.6139800548553467,-0.3217907845973969,0,0,0,-1,-1,31774.100769625,unknown,2,2025-04-22T12:57:30.865+03:00,2025-04-21T17:08:51.449+03:00,7384,0.9981967,0,0,6152.583,5,20,2025-04-22T12:57:30.865+03:00,767008656.1149665,0,-22.1,100.4687,1,0.75,2025-04-22T12:56:38.708+03:00,71,1.183333333333333,2025-04-22T09:54:17.825+03:00,0.02225348692287972,0
2025-04-22T12:57:36.355+03:00,1745315852.947822,40.95220305975717,29.14025630257546,76.18102,-1,-1,-1,-1,30,23.91450547804756,-9999,31779.586296375,-0.6344451904296875,0.713653564453125,-0.64300537109375,31779.576219375,-0.06959309943969147,-1.153399540917067,-0.6614867548935702,0.107612818479538,-0.2415883094072342,0.04243243485689163,0.02664822340011597,0.06014764308929443,-0.1762912571430206,XArbitraryZVertical,-0.2900004010346319,-0.5059252826089172,0.1493818240742052,0.7985137502444544,-0.7213349938392639,0.614290714263916,-0.3198787569999695,0,0,0,-1,-1,31774.100769625,unknown,2,2025-04-22T12:57:30.865+03:00,2025-04-21T17:08:51.449+03:00,7384,0.9981967,0,0,6152.583,5,20,2025-04-22T12:57:30.865+03:00,767008656.1149665,0,-22.1,100.4687,1,0.75,2025-04-22T12:56:38.708+03:00,71,1.183333333333333,2025-04-22T09:54:17.825+03:00,0.02225348692287972,0
2025-04-22T12:57:36.365+03:00,1745315852.947822,40.95220305975717,29.14025630257546,76.18102,-1,-1,-1,-1,30,23.91450547804756,-9999,31779.596372375,-0.517242431640625,0.767120361328125,-0.7213897705078125,31779.586296375,-0.06462569617456902,-1.152347520262048,-0.6605703363516564,0.6498862504959106,-0.2350590378046036,0.09255978465080261,0.05249077081680298,0.07619094848632812,-0.2725633978843689,XArbitraryZVertical,-0.2884618683166576,-0.5063167841935399,0.1509726341695094,0.7985238377229115,-0.7215123176574707,0.6135672926902771,-0.3208661377429962,0,0,0,-1,-1,31774.100769625,unknown,2,2025-04-22T12:57:30.865+03:00,2025-04-21T17:08:51.449+03:00,7384,0.9981967,0,0,6152.583,5,20,2025-04-22T12:57:30.865+03:00,767008656.1149665,0,-22.1,100.4687,1,0.75,2025-04-22T12:56:38.708+03:00,71,1.183333333333333,2025-04-22T09:54:17.825+03:00,0.02225348692287972,0
2025-04-22T12:57:36.375+03:00,1745315852.947822,40.95220305975717,29.14025630257546,76.18102,-1,-1,-1,-1,30,23.91450547804756,-9999,31779.606449375,-0.54461669921875,0.6448211669921875,-0.5824127197265625,31779.596372375,-0.05645294793926485,-1.15222535789347,-0.6583954479410633,0.7039531469345093,-0.6442282795906067,0.06051473319530487,0.1675912141799927,0.1468184590339661,-0.3921271562576294,XArbitraryZVertical,-0.2855428583666429,-0.5076586760616841,0.1536483457169046,0.7982105570256537,-0.7226906418800354,0.6118484735488892,-0.3214958906173706,0,0,0,-1,-1,31774.100769625,unknown,2,2025-04-22T12:57:30.865+03:00,2025-04-21T17:08:51.449+03:00,7384,0.9981967,0,0,6152.583,5,20,2025-04-22T12:57:30.865+03:00,767008656.1149665,0,-22.1,100.4687,1,0.75,2025-04-22T12:56:38.708+03:00,71,1.183333333333333,2025-04-22T09:54:17.825+03:00,0.02225348692287972,0
2025-04-22T12:57:36.385+03:00,1745315852.947822,40.95220305975717,29.14025630257546,76.18102,-1,-1,-1,-1,30,23.91450547804756,-9999,31779.616526375,-0.6698455810546875,0.4873809814453125,-0.446075439453125,31779.606449375,-0.04799501170964256,-1.154028876450573,-0.6565617463530826,0.604087769985199,-0.7262133955955505,0.1261579245328903,0.2114155888557434,0.1035616397857666,-0.3325983881950378,XArbitraryZVertical,-0.2825285498053443,-0.5097595592632707,0.156798856058853,0.7973311165287618,-0.7242940068244934,0.6103970408439636,-0.3206456303596497,0,0,0,-1,-1,31774.100769625,unknown,2,2025-04-22T12:57:30.865+03:00,2025-04-21T17:08:51.449+03:00,7384,0.9981967,0,0,6152.583,5,20,2025-04-22T12:57:30.865+03:00,767008656.1149665,0,-22.1,100.4687,1,0.75,2025-04-22T12:56:38.708+03:00,71,1.183333333333333,2025-04-22T09:54:17.825+03:00,0.02225348692287972,0
2025-04-22T12:57:36.396+03:00,1745315852.947822,40.95220305975717,29.14025630257546,76.18102,-1,-1,-1,-1,30,23.91450547804756,-9999,31779.626603375,-0.7873992919921875,0.489013671875,-0.3449249267578125,31779.616526375,-0.04079978491063243,-1.156720466128785,-0.6557137596825433,0.5014053583145142,-0.6190119981765747,0.1646761894226074,0.1051599383354187,-0.08218306303024292,-0.1668146252632141,XArbitraryZVertical,-0.2801431656423622,-0.5119260196436787,0.1598222216317348,0.7961836677076012,-0.7256280779838562,0.6097251176834106,-0.3189031183719635,0,0,0,-1,-1,31774.100769625,unknown,2,2025-04-22T12:57:30.865+03:00,2025-04-21T17:08:51.449+03:00,7384,0.9981967,0,0,6152.583,5,20,2025-04-22T12:57:30.865+03:00,767008656.1149665,0,-22.1,100.4687,1,0.75,2025-04-22T12:56:38.708+03:00,71,1.183333333333333,2025-04-22T09:54:17.825+03:00,0.02225348692287972,0
2025-04-22T12:57:36.406+03:00,1745315852.947822,40.95220305975717,29.14025630257546,76.18102,-1,-1,-1,-1,30,23.91450547804756,-9999,31779.636680375,-0.819671630859375,0.58074951171875,-0.2873077392578125,31779.626603375,-0.03428679229754906,-1.158800126628128,-0.6556976866778956,0.4445916414260864,-0.6032130718231201,0.2596666216850281,-0.02269423007965088,-0.1354998350143433,-0.06364518404006958,XArbitraryZVertical,-0.2782992234536212,-0.5136641883170203,0.1626994166630024,0.7951273828720029,-0.7262986898422241,0.6097124218940735,-0.3173972964286804,0,0,0,-1,-1,31774.100769625,unknown,2,2025-04-22T12:57:30.865+03:00,2025-04-21T17:08:51.449+03:00,7384,0.9981967,0,0,6152.583,5,20,2025-04-22T12:57:30.865+03:00,767008656.1149665,0,-22.1,100.4687,1,0.75,2025-04-22T12:56:38.708+03:00,71,1.183333333333333,2025-04-22T09:54:17.825+03:00,0.02225348692287972,0
2025-04-22T12:57:36.416+03:00,1745315852.947822,40.95220305975717,29.14025630257546,76.18102,-1,-1,-1,-1,30,23.91450547804756,-9999,31779.646757375,-0.800140380859375,0.625152587890625,-0.2499542236328125,31779.636680375,-0.02801007981670788,-1.161038514235256,-0.6568444618377254,0.3678256273269653,-0.5580963492393494,0.3342996537685394,-0.09275680780410767,-0.06788116693496704,0.01089608669281006,XArbitraryZVertical,-0.2769531470221254,-0.5153163682679424,0.1658034044131274,0.7938861523297656,-0.7263655066490173,0.6106209754943848,-0.3154920041561127,0,0,0,-1,-1,31774.100769625,unknown,2,2025-04-22T12:57:30.865+03:00,2025-04-21T17:08:51.449+03:00,7384,0.9981967,0,0,6152.583,5,20,2025-04-22T12:57:30.865+03:00,767008656.1149665,0,-22.1,100.4687,1,0.75,2025-04-22T12:56:38.708+03:00,71,1.183333333333333,2025-04-22T09:54:17.825+03:00,0.02225348692287972,0
2025-04-22T12:57:36.426+03:00,1745315852.947822,40.95220305975717,29.14025630257546,76.18102,-1,-1,-1,-1,30,23.91450547804756,-9999,31779.656834375,-0.774017333984375,0.58929443359375,-0.2424468994140625,31779.646757375,-0.02332912183513473,-1.163763838509645,-0.6591852167856258,0.1322639733552933,-0.5849886536598206,0.3744651675224304,-0.08206003904342651,0.009353160858154297,0.05366721749305725,XArbitraryZVertical,-0.2764404138878127,-0.5168253286507585,0.1686489796093112,0.7924833444774713,-0.7259081602096558,0.6124729514122009,-0.3129445612430573,0,0,0,-1,-1,31774.100769625,unknown,2,2025-04-22T12:57:30.865+03:00,2025-04-21T17:08:51.449+03:00,7384,0.9981967,0,0,6152.583,5,20,2025-04-22T12:57:30.865+03:00,767008656.1149665,0,-22.1,100.4687,1,0.75,2025-04-22T12:56:38.708+03:00,71,1.183333333333333,2025-04-22T09:54:17.825+03:00,0.02225348692287972,0
2025-04-22T12:57:36.436+03:00,1745315852.947822,40.95220305975717,29.14025630257546,76.18102,-1,-1,-1,-1,30,23.91450547804756,-9999,31779.666910375,-0.747894287109375,0.5723419189453125,-0.2236785888671875,31779.656834375,-0.02117686108575695,-1.16804420803123,-0.6626074229054272,-0.09569675475358963,-0.5917819142341614,0.3659373223781586,-0.06061089038848877,-0.009232938289642334,0.06162044405937195,XArbitraryZVertical,-0.2768676490700583,-0.5184966298683404,0.1709891104012911,0.790738924882598,-0.7253082394599915,0.6151745915412903,-0.3090111017227173,0,0,0,-1,-1,31774.100769625,unknown,2,2025-04-22T12:57:30.865+03:00,2025-04-21T17:08:51.449+03:00,7384,0.9981967,0,0,6152.583,5,20,2025-04-22T12:57:30.865+03:00,767008656.1149665,0,-22.1,100.4687,1,0.75,2025-04-22T12:56:38.708+03:00,71,1.183333333333333,2025-04-22T09:54:17.825+03:00,0.02225348692287972,0
2025-04-22T12:57:36.446+03:00,1745315852.947822,40.95220305975717,29.14025630257546,76.18102,-1,-1,-1,-1,30,23.91450547804756,-9999,31779.676987375,-0.7539520263671875,0.5919647216796875,-0.19189453125,31779.666910375,-0.02092204353711838,-1.174246952843925,-0.6662385126754906,-0.1058447286486626,-0.6144776344299316,0.3137790560722351,-0.02981317043304443,-0.04640865325927734,0.07225731015205383,XArbitraryZVertical,-0.2776949902179853,-0.5206387592369575,0.1729033380362257,0.7886222695702551,-0.7251458764076233,0.6180332899093628,-0.3036415576934814,0,0,0,-1,-1,31774.100769625,unknown,2,2025-04-22T12:57:30.865+03:00,2025-04-21T17:08:51.449+03:00,7384,0.9981967,0,0,6152.583,5,20,2025-04-22T12:57:30.865+03:00,767008656.1149665,0,-22.1,100.4687,1,0.75,2025-04-22T12:56:38.708+03:00,71,1.183333333333333,2025-04-22T09:54:17.825+03:00,0.02225348692287972,0
2025-04-22T12:57:36.456+03:00,1745315852.947822,40.95220305975717,29.14025630257546,76.18102,-1,-1,-1,-1,30,23.91450547804756,-9999,31779.687064375,-0.784881591796875,0.643707275390625,-0.1601409912109375,31779.676987375,-0.02047264876418298,-1.179820970877424,-0.6690318438802343,-0.02616994269192219,-0.5672334432601929,0.2236233055591583,-0.02297127246856689,-0.03851616382598877,0.09445282816886902,XArbitraryZVertical,-0.2781884299786168,-0.5226311327651234,0.1745913964100652,0.7867563648481671,-0.7252281308174133,0.6202268600463867,-0.2989358007907867,0,0,0,-1,-1,31774.100769625,unknown,2,2025-04-22T12:57:30.865+03:00,2025-04-21T17:08:51.449+03:00,7384,0.9981967,0,0,6152.583,5,20,2025-04-22T12:57:30.865+03:00,767008656.1149665,0,-22.1,100.4687,1,0.75,2025-04-22T12:56:38.708+03:00,71,1.183333333333333,2025-04-22T09:54:17.825+03:00,0.02225348692287972,0
2025-04-22T12:57:36.466+03:00,1745315852.947822,40.95220305975717,29.14025630257546,76.18102,-1,-1,-1,-1,30,23.91450547804756,-9999,31779.697141375,-0.8061370849609375,0.666961669921875,-0.1244049072265625,31779.687064375,-0.01882523163789216,-1.18401160408395,-0.670566795197865,0.1396938562393188,-0.4626966714859009,0.158023789525032,-0.04630434513092041,0.0009757876396179199,0.1223320960998535,XArbitraryZVertical,-0.2779901811146471,-0.5243607335047403,0.1762274229120403,0.7853095213411737,-0.7255919575691223,0.6214301586151123,-0.2955345511436462,0,0,0,-1,-1,31774.100769625,unknown,2,2025-04-22T12:57:30.865+03:00,2025-04-21T17:08:51.449+03:00,7384,0.9981967,0,0,6152.583,5,20,2025-04-22T12:57:30.865+03:00,767008656.1149665,0,-22.1,100.4687,1,0.75,2025-04-22T12:56:38.708+03:00,71,1.183333333333333,2025-04-22T09:54:17.825+03:00,0.02225348692287972,0
2025-04-22T12:57:36.476+03:00,1745315852.947822,40.95220305975717,29.14025630257546,76.18102,-1,-1,-1,-1,30,23.91450547804756,-9999,31779.707218375,-0.78656005859375,0.673980712890625,-0.13507080078125,31779.697141375,-0.01562236929678717,-1.186123128056671,-0.6709136405589251,0.2856414318084717,-0.3566469848155975,0.09697011113166809,-0.07624667882919312,0.04179596900939941,0.1599946022033691,XArbitraryZVertical,-0.2770980937246879,-0.5256007739464825,0.1778691752280936,0.7844252929631013,-0.7260146737098694,0.6217018365859985,-0.2939209342002869,0,0,0,-1,-1,31774.100769625,unknown,2,2025-04-22T12:57:30.865+03:00,2025-04-21T17:08:51.449+03:00,7384,0.9981967,0,0,6152.583,5,20,2025-04-22T12:57:30.865+03:00,767008656.1149665,0,-22.1,100.4687,1,0.75,2025-04-22T12:56:38.708+03:00,71,1.183333333333333,2025-04-22T09:54:17.825+03:00,0.02225348692287972,0
2025-04-22T12:57:36.486+03:00,1745315852.947822,40.95220305975717,29.14025630257546,76.18102,-1,-1,-1,-1,30,23.91450547804756,-9999,31779.717295375,-0.7567596435546875,0.6668548583984375,-0.1746368408203125,31779.707218375,-0.01163845126679364,-1.186972223484885,-0.6703960158841757,0.3117249608039856,-0.3062221705913544,0.04312844946980476,-0.0705416202545166,0.04850345849990845,0.1684248745441437,XArbitraryZVertical,-0.2757720407280802,-0.5265333305904575,0.1794114440603627,0.7839158252746027,-0.7265623211860657,0.6212963461875916,-0.2934248745441437,0,0,0,-1,-1,31774.100769625,unknown,2,2025-04-22T12:57:30.865+03:00,2025-04-21T17:08:51.449+03:00,7384,0.9981967,0,0,6152.583,5,20,2025-04-22T12:57:30.865+03:00,767008656.1149665,0,-22.1,100.4687,1,0.75,2025-04-22T12:56:38.708+03:00,71,1.183333333333333,2025-04-22T09:54:17.825+03:00,0.02225348692287972,0
2025-04-22T12:57:36.497+03:00,1745315852.947822,40.95220305975717,29.14025630257546,76.18102,-1,-1,-1,-1,30,23.91450547804756,-9999,31779.727371375,-0.7581634521484375,0.622161865234375,-0.235565185546875,31779.717295375,-0.00833938516755108,-1.187868397056033,-0.6696026314557061,0.2027363479137421,-0.2800523936748505,0.003002837533131242,-0.03858721256256104,0.05384016036987305,0.1346172392368317,XArbitraryZVertical,-0.2745119713712872,-0.5274128888770955,0.1806174010205801,0.7834896585506951,-0.7272818088531494,0.6206744909286499,-0.2929576337337494,0,0,0,-1,-1,31774.100769625,unknown,2,2025-04-22T12:57:30.865+03:00,2025-04-21T17:08:51.449+03:00,7384,0.9981967,0,0,6152.583,5,20,2025-04-22T12:57:30.865+03:00,767008656.1149665,0,-22.1,100.4687,1,0.75,2025-04-22T12:56:38.708+03:00,71,1.183333333333333,2025-04-22T09:54:17.825+03:00,0.02225348692287972,0
2025-04-22T12:57:36.506+03:00,1745315852.947822,40.95220305975717,29.14025630257546,76.18102,-1,-1,-1,-1,30,23.91450547804756,-9999,31779.737448375,-0.784149169921875,0.582305908203125,-0.31195068359375,31779.727371375,-0.007607714245983471,-1.190059865519715,-0.6691983129811239,-0.09471292048692703,-0.2407763749361038,-0.03516319021582603,-0.02451521158218384,0.0204506516456604,0.08215159177780151,XArbitraryZVertical,-0.2739626331872506,-0.5284092032848614,0.1810972340769952,0.7828996833486183,-0.7281550168991089,0.6203573942184448,-0.2914563715457916,0,0,0,-1,-1,31774.100769625,unknown,2,2025-04-22T12:57:30.865+03:00,2025-04-21T17:08:51.449+03:00,7384,0.9981967,0,0,6152.583,5,20,2025-04-22T12:57:30.865+03:00,767008656.1149665,0,-22.1,100.4687,1,0.75,2025-04-22T12:56:38.708+03:00,71,1.183333333333333,2025-04-22T09:54:17.825+03:00,0.02225348692287972,0
2025-04-22T12:57:36.516+03:00,1745315852.947822,40.95220305975717,29.14025630257546,76.18102,-1,-1,-1,-1,30,23.91450547804756,-9999,31779.747525375,-0.8001861572265625,0.5637359619140625,-0.3821563720703125,31779.737448375,-0.01137513007377113,-1.19454626880707,-0.6697934968351563,-0.4905596077442169,-0.1899938881397247,-0.06393158435821533,-0.04472243785858154,-0.02605187892913818,0.005061477422714233,XArbitraryZVertical,-0.2747859958970847,-0.5295915397774454,0.1803970441877445,0.7819732842173041,-0.7291117310523987,0.6208240985870361,-0.2880509197711945,0,0,0,-1,-1,31774.100769625,unknown,2,2025-04-22T12:57:30.865+03:00,2025-04-21T17:08:51.449+03:00,7384,0.9981967,0,0,6152.583,5,20,2025-04-22T12:57:30.865+03:00,767008656.1149665,0,-22.1,100.4687,1,0.75,2025-04-22T12:56:38.708+03:00,71,1.183333333333333,2025-04-22T09:54:17.825+03:00,0.02225348692287972,0
2025-04-22T12:57:36.527+03:00,1745315852.947822,40.95220305975717,29.14025630257546,76.18102,-1,-1,-1,-1,30,23.91450547804756,-9999,31779.757602375,-0.785980224609375,0.5595703125,-0.4326934814453125,31779.747525375,-0.01970542511394321,-1.20148690869927,-0.6715406397855144,-0.8295573592185974,-0.1673415750265121,-0.08242244273424149,-0.06722140312194824,-0.05342167615890503,-0.0761275589466095,XArbitraryZVertical,-0.277051894870204,-0.5309863318992246,0.1785672488318919,0.7806467082972486,-0.7300806641578674,0.6221928596496582,-0.2825915217399597,0,0,0,-1,-1,31774.100769625,unknown,2,2025-04-22T12:57:30.865+03:00,2025-04-21T17:08:51.449+03:00,7384,0.9981967,0,0,6152.583,5,20,2025-04-22T12:57:30.865+03:00,767008656.1149665,0,-22.1,100.4687,1,0.75,2025-04-22T12:56:38.708+03:00,71,1.183333333333333,2025-04-22T09:54:17.825+03:00,0.02225348692287972,0
2025-04-22T12:57:36.537+03:00,1745315852.947822,40.95220305975717,29.14025630257546,76.18102,-1,-1,-1,-1,30,23.91450547804756,-9999,31779.767679375,-0.7546844482421875,0.57928466796875,-0.4665069580078125,31779.757602375,-0.03130030698161591,-1.21043738739157,-0.6742616307079983,-1.017919182777405,-0.1794319301843643,-0.05157032608985901,-0.06368386745452881,-0.06542187929153442,-0.140781432390213,XArbitraryZVertical,-0.2803958971039499,-0.5325920258037097,0.1760267263714109,0.778934070223307,-0.7309938073158264,0.6243206858634949,-0.2754477560520172,0,0,0,-1,-1,31774.100769625,unknown,2,2025-04-22T12:57:30.865+03:00,2025-04-21T17:08:51.449+03:00,7384,0.9981967,0,0,6152.583,5,20,2025-04-22T12:57:30.865+03:00,767008656.1149665,0,-22.1,100.4687,1,0.75,2025-04-22T12:56:38.708+03:00,71,1.183333333333333,2025-04-22T09:54:17.825+03:00,0.02225348692287972,0
2025-04-22T12:57:36.547+03:00,1745315852.947822,40.95220305975717,29.14025630257546,76.18102,-1,-1,-1,-1,30,23.91450547804756,-9999,31779.777756375,-0.73065185546875,0.608123779296875,-0.4995269775390625,31779.767679375,-0.04397561441555051,-1.220390520450719,-0.6776434337948427,-1.037964582443237,-0.2280474007129669,-0.004533575382083654,-0.03601866960525513,-0.05762296915054321,-0.1877526342868805,XArbitraryZVertical,-0.2842106567873903,-0.5343296248988088,0.173420602370255,0.7769436802913678,-0.7317121028900146,0.6269589066505432,-0.267432302236557,0,0,0,-1,-1,31774.100769625,unknown,2,2025-04-22T12:57:30.865+03:00,2025-04-21T17:08:51.449+03:00,7384,0.9981967,0,0,6152.583,5,20,2025-04-22T12:57:30.865+03:00,767008656.1149665,0,-22.1,100.4687,1,0.75,2025-04-22T12:56:38.708+03:00,71,1.183333333333333,2025-04-22T09:54:17.825+03:00,0.02225348692287972,0
2025-04-22T12:57:36.557+03:00,1745315852.947822,40.95220305975717,29.14025630257546,76.18102,-1,-1,-1,-1,30,23.91450547804756,-9999,31779.787833375,-0.7370758056640625,0.616180419921875,-0.5277252197265625,31779.777756375,-0.0558600901764096,-1.23054864016571,-0.6811356353649867,-0.9018746018409729,-0.3036058247089386,0.03280380740761757,-0.005394220352172852,-0.03099709749221802,-0.2283715307712555,XArbitraryZVertical,-0.2878541888142833,-0.5362025535933759,0.1712213422519057,0.7747968118633494,-0.7323225140571594,0.6296756863594055,-0.2592535614967346,0,0,0,-1,-1,31774.100769625,unknown,2,2025-04-22T12:57:30.865+03:00,2025-04-21T17:08:51.449+03:00,7384,0.9981967,0,0,6152.583,5,20,2025-04-22T12:57:30.865+03:00,767008656.1149665,0,-22.1,100.4687,1,0.75,2025-04-22T12:56:38.708+03:00,71,1.183333333333333,2025-04-22T09:54:17.825+03:00,0.02225348692287972,0
2025-04-22T12:57:36.567+03:00,1745315852.947822,40.95220305975717,29.14025630257546,76.18102,-1,-1,-1,-1,30,23.91450547804756,-9999,31779.797909125,-0.767486572265625,0.6183929443359375,-0.5621337890625,31779.787833375,-0.06530203720205278,-1.239911987853612,-0.6842157109315216,-0.6593271493911743,-0.3750698864459991,0.07015198469161987,0.002411305904388428,-0.0155494213104248,-0.2659614086151123,XArbitraryZVertical,-0.2907654482728269,-0.5381249356871902,0.1697756952210003,0.7726921839047858,-0.7328800559043884,0.63206547498703,-0.2517540156841278,0,0,0,-1,-1,31774.100769625,unknown,2,2025-04-22T12:57:30.865+03:00,2025-04-21T17:08:51.449+03:00,7384,0.9981967,0,0,6152.583,5,20,2025-04-22T12:57:30.865+03:00,767008656.1149665,0,-22.1,100.4687,1,0.75,2025-04-22T12:56:38.708+03:00,71,1.183333333333333,2025-04-22T09:54:17.825+03:00,0.02225348692287972,0
2025-04-22T12:57:36.577+03:00,1745315852.947822,40.95220305975717,29.14025630257546,76.18102,-1,-1,-1,-1,30,23.91450547804756,-9999,31779.807986125,-0.7867584228515625,0.6367645263671875,-0.612640380859375,31779.797909125,-0.07094937588204298,-1.247645858390704,-0.6868277158665097,-0.3236307799816132,-0.4493269026279449,0.1420788317918777,-0.02207297086715698,-0.01863944530487061,-0.3013063073158264,XArbitraryZVertical,-0.2926221595200252,-0.5399958935246167,0.1694528971255631,0.7707544013831485,-0.733237087726593,0.6340873837471008,-0.2455534189939499,0,0,0,-1,-1,31774.100769625,unknown,2,2025-04-22T12:57:30.865+03:00,2025-04-21T17:08:51.449+03:00,7384,0.9981967,0,0,6152.583,5,20,2025-04-22T12:57:30.865+03:00,767008656.1149665,0,-22.1,100.4687,1,0.75,2025-04-22T12:56:38.708+03:00,71,1.183333333333333,2025-04-22T09:54:17.825+03:00,0.02225348692287972,0
2025-04-22T12:57:36.587+03:00,1745315852.947822,40.95220305975717,29.14025630257546,76.18102,-1,-1,-1,-1,30,23.91450547804756,-9999,31779.818063125,-0.790313720703125,0.63800048828125,-0.6794281005859375,31779.807986125,-0.07251153672571523,-1.253404769426733,-0.688981127913992,-0.06025347486138344,-0.49825319647789,0.188027948141098,-0.04777252674102783,-0.006158232688903809,-0.3502254486083984,XArbitraryZVertical,-0.2933691928246973,-0.541742100741393,0.1702986671043659,0.7690567834359793,-0.7333400845527649,0.6357510685920715,-0.2409000247716904,0,0,0,-1,-1,31774.100769625,unknown,2,2025-04-22T12:57:30.865+03:00,2025-04-21T17:08:51.449+03:00,7384,0.9981967,0,0,6152.583,5,20,2025-04-22T12:57:30.865+03:00,767008656.1149665,0,-22.1,100.4687,1,0.75,2025-04-22T12:56:38.708+03:00,71,1.183333333333333,2025-04-22T09:54:17.825+03:00,0.02225348692287972,0
2025-04-22T12:57:36.597+03:00,1745315852.947822,40.95220305975717,29.14025630257546,76.18102,-1,-1,-1,-1,30,23.91450547804756,-9999,31779.828140125,-0.76678466796875,0.5930328369140625,-0.6916046142578125,31779.818063125,-0.07143892703749322,-1.258096853496638,-0.6909573563511361,0.08399477601051331,-0.5856274962425232,0.2397173792123795,-0.05753648281097412,0.005989491939544678,-0.4188752472400665,XArbitraryZVertical,-0.293421703445992,-0.5434785422272697,0.1719545976558028,0.7674414916503458,-0.7332655191421509,0.637275218963623,-0.2370695620775223,0,0,0,-1,-1,31774.100769625,unknown,2,2025-04-22T12:57:30.865+03:00,2025-04-21T17:08:51.449+03:00,7384,0.9981967,0,0,6152.583,5,20,2025-04-22T12:57:30.865+03:00,767008656.1149665,0,-22.1,100.4687,1,0.75,2025-04-22T12:56:38.708+03:00,71,1.183333333333333,2025-04-22T09:54:17.825+03:00,0.02225348692287972,0
2025-04-22T12:57:36.607+03:00,1745315852.947822,40.95220305975717,29.14025630257546,76.18102,-1,-1,-1,-1,30,23.91450547804756,-9999,31779.838217125,-0.725433349609375,0.5403594970703125,-0.64111328125,31779.828140125,-0.06906865848888649,-1.263094146782734,-0.6934430668345376,0.09047611057758331,-0.7049850225448608,0.3383435606956482,-0.0469934344291687,-0.02494645118713379,-0.4636877775192261,XArbitraryZVertical,-0.2932790686223655,-0.5454599276403221,0.1742966717448342,0.7655595023650159,-0.7329289317131042,0.639188826084137,-0.2329217046499252,0,0,0,-1,-1,31774.100769625,unknown,2,2025-04-22T12:57:30.865+03:00,2025-04-21T17:08:51.449+03:00,7384,0.9981967,0,0,6152.583,5,20,2025-04-22T12:57:30.865+03:00,767008656.1149665,0,-22.1,100.4687,1,0.75,2025-04-22T12:56:38.708+03:00,71,1.183333333333333,2025-04-22T09:54:17.825+03:00,0.02225348692287972,0
2025-04-22T12:57:36.617+03:00,1745315852.947822,40.95220305975717,29.14025630257546,76.18102,-1,-1,-1,-1,30,23.91450547804756,-9999,31779.848294125,-0.7117767333984375,0.5102386474609375,-0.576202392578125,31779.838217125,-0.06723142093295861,-1.269476898060062,-0.6970589957158952,-0.0390188954770565,-0.7882747054100037,0.4325637519359589,-0.007801294326782227,-0.08520287275314331,-0.4358243346214294,XArbitraryZVertical,-0.2935735725644336,-0.547757973321134,0.1769573095403074,0.7631919008578799,-0.7321889400482178,0.6419655084609985,-0.2275515198707581,0,0,0,-1,-1,31774.100769625,unknown,2,2025-04-22T12:57:30.865+03:00,2025-04-21T17:08:51.449+03:00,7384,0.9981967,0,0,6152.583,5,20,2025-04-22T12:57:30.865+03:00,767008656.1149665,0,-22.1,100.4687,1,0.75,2025-04-22T12:56:38.708+03:00,71,1.183333333333333,2025-04-22T09:54:17.825+03:00,0.02225348692287972,0
2025-04-22T12:57:36.627+03:00,1745315852.947822,40.95220305975717,29.14025630257546,76.18102,-1,-1,-1,-1,30,23.91450547804756,-9999,31779.858370125,-0.72015380859375,0.485382080078125,-0.5202484130859375,31779.848294125,-0.06712908877461178,-1.277885697337257,-0.7021488212972817,-0.2536758184432983,-0.8985439538955688,0.5399237275123596,0.0191618800163269,-0.1243295669555664,-0.3795046508312225,XArbitraryZVertical,-0.2946994072688238,-0.5503926395633119,0.1796774036052548,0.7602211879399524,-0.7309386730194092,0.6458597183227539,-0.2204404026269913,0,0,0,-1,-1,31774.100769625,unknown,2,2025-04-22T12:57:30.865+03:00,2025-04-21T17:08:51.449+03:00,7384,0.9981967,0,0,6152.583,5,20,2025-04-22T12:57:30.865+03:00,767008656.1149665,0,-22.1,100.4687,1,0.75,2025-04-22T12:56:38.708+03:00,71,1.183333333333333,2025-04-22T09:54:17.825+03:00,0.02225348692287972,0
2025-04-22T12:57:36.637+03:00,1745315852.947822,40.95220305975717,29.14025630257546,76.18102,-1,-1,-1,-1,30,23.91450547804756,-9999,31779.868447125,-0.7236480712890625,0.4823455810546875,-0.4897308349609375,31779.858370125,-0.06965737540207145,-1.288957505627875,-0.7090462936136311,-0.4947364330291748,-0.9659156799316406,0.6686321496963501,0.01195108890533447,-0.1585108637809753,-0.3287504613399506,XArbitraryZVertical,-0.2969617496820456,-0.5534154315389682,0.1823251500059222,0.756506717559537,-0.7290378212928772,0.6511102318763733,-0.211090162396431,0,0,0,-1,-1,31774.100769625,unknown,2,2025-04-22T12:57:30.865+03:00,2025-04-21T17:08:51.449+03:00,7384,0.9981967,0,0,6152.583,5,20,2025-04-22T12:57:30.865+03:00,767008656.1149665,0,-22.1,100.4687,1,0.75,2025-04-22T12:56:38.708+03:00,71,1.183333333333333,2025-04-22T09:54:17.825+03:00,0.02225348692287972,0
2025-04-22T12:57:36.662+03:00,1745315852.947822,40.95220305975717,29.14025630257546,76.18102,-1,-1,-1,-1,30,23.91450547804756,-9999,31779.878524125,-0.7178802490234375,0.4906005859375,-0.4647369384765625,31779.868447125,-0.07484257611603883,-1.302367843431405,-0.7178435449754667,-0.7279931306838989,-1.0253084897995,0.7953823804855347,0.002588748931884766,-0.1769269704818726,-0.2975922524929047,XArbitraryZVertical,-0.3004205983313807,-0.5566538240088237,0.1849021149678384,0.7521271320950033,-0.7262520790100098,0.6577619314193726,-0.1997679620981216,0,0,0,-1,-1,31774.100769625,unknown,2,2025-04-22T12:57:30.865+03:00,2025-04-21T17:08:51.449+03:00,7384,0.9981967,0,0,6152.583,5,20,2025-04-22T12:57:30.865+03:00,767008656.1149665,0,-22.1,100.4687,1,0.75,2025-04-22T12:56:38.708+03:00,71,1.183333333333333,2025-04-22T09:54:17.825+03:00,0.02225348692287972,0
2025-04-22T12:57:36.664+03:00,1745315852.947822,40.95220305975717,29.14025630257546,76.18102,-1,-1,-1,-1,30,23.91450547804756,-9999,31779.888601125,-0.706573486328125,0.5126953125,-0.4073638916015625,31779.878524125,-0.08236381381683425,-1.318086999470392,-0.7281257295913219,-0.8546106815338135,-1.107031464576721,0.8812133073806763,0.002073407173156738,-0.1787012219429016,-0.2913853526115417,XArbitraryZVertical,-0.3048241823949925,-0.560150735157481,0.1874457616418971,0.7471127130073213,-0.7227154970169067,0.6654717922210693,-0.1866267472505569,0,0,0,-1,-1,31774.100769625,unknown,2,2025-04-22T12:57:30.865+03:00,2025-04-21T17:08:51.449+03:00,7384,0.9981967,0,0,6152.583,5,20,2025-04-22T12:57:30.865+03:00,767008656.1149665,0,-22.1,100.4687,1,0.75,2025-04-22T12:56:38.708+03:00,71,1.183333333333333,2025-04-22T09:54:17.825+03:00,0.02225348692287972,0
2025-04-22T12:57:36.668+03:00,1745315852.947822,40.95220305975717,29.14025630257546,76.18102,-1,-1,-1,-1,30,23.91450547804756,-9999,31779.898678125,-0.6990203857421875,0.5673675537109375,-0.3555908203125,31779.888601125,-0.0906983770416815,-1.335396297433192,-0.7390917221893881,-0.8547507524490356,-1.219312787055969,0.9334655404090881,0.008050024509429932,-0.1718470454216003,-0.2569288015365601,XArbitraryZVertical,-0.3095088154707267,-0.5639287879950556,0.1902179966561625,0.7416236104050355,-0.7186974883079529,0.673616886138916,-0.1723772287368774,0,0,0,-1,-1,31774.100769625,unknown,2,2025-04-22T12:57:30.865+03:00,2025-04-21T17:08:51.449+03:00,7384,0.9981967,0,0,6152.583,5,20,2025-04-22T12:57:30.865+03:00,767008656.1149665,0,-22.1,100.4687,1,0.75,2025-04-22T12:56:38.708+03:00,71,1.183333333333333,2025-04-22T09:54:17.825+03:00,0.02225348692287972,0
2025-04-22T12:57:36.678+03:00,1745315852.947822,40.95220305975717,29.14025630257546,76.18102,-1,-1,-1,-1,30,23.91450547804756,-9999,31779.908755125,-0.71160888671875,0.6253509521484375,-0.3131561279296875,31779.898678125,-0.09877248425958553,-1.353647078610211,-0.7502260279554377,-0.7858015298843384,-1.315143346786499,0.9497537016868591,0.01449555158615112,-0.1376910209655762,-0.2163403630256653,XArbitraryZVertical,-0.3140364964597462,-0.5679592425707909,0.1933816201774754,0.7358035975318427,-0.7143551111221313,0.6818041205406189,-0.1576067507266998,0,0,0,-1,-1,31774.100769625,unknown,2,2025-04-22T12:57:30.865+03:00,2025-04-21T17:08:51.449+03:00,7384,0.9981967,0,0,6152.583,5,20,2025-04-22T12:57:30.865+03:00,767008656.1149665,0,-22.1,100.4687,1,0.75,2025-04-22T12:56:38.708+03:00,71,1.183333333333333,2025-04-22T09:54:17.825+03:00,0.02225348692287972,0
2025-04-22T12:57:36.688+03:00,1745315852.947822,40.95220305975717,29.14025630257546,76.18102,-1,-1,-1,-1,30,23.91450547804756,-9999,31779.918832125,-0.7286224365234375,0.66973876953125,-0.275634765625,31779.908755125,-0.1064743224097922,-1.372527754214152,-0.7613687664660952,-0.7770717144012451,-1.378861427307129,0.9844917058944702,0.005044519901275635,-0.08351349830627441,-0.1842413544654846,XArbitraryZVertical,-0.3183394512246412,-0.5721596721628851,0.1968845693793144,0.7297463565131577,-0.7097105979919434,0.6899129152297974,-0.1425866037607193,0,0,0,-1,-1,31774.100769625,unknown,2,2025-04-22T12:57:30.865+03:00,2025-04-21T17:08:51.449+03:00,7384,0.9981967,0,0,6152.583,5,20,2025-04-22T12:57:30.865+03:00,767008656.1149665,0,-22.1,100.4687,1,0.75,2025-04-22T12:56:38.708+03:00,71,1.183333333333333,2025-04-22T09:54:17.825+03:00,0.02225348692287972,0
2025-04-22T12:57:36.698+03:00,1745315852.947822,40.95220305975717,29.14025630257546,76.18102,-1,-1,-1,-1,30,23.91450547804756,-9999,31779.928908125,-0.7245941162109375,0.6992950439453125,-0.218048095703125,31779.918832125,-0.114848916344293,-1.392401777833998,-0.7726490327397966,-0.8141452670097351,-1.409375309944153,0.9832905530929565,-0.01983308792114258,-0.04443967342376709,-0.1650335192680359,XArbitraryZVertical,-0.322719520433155,-0.5764715022707346,0.2004464102001452,0.7234320311633964,-0.7046999335289001,0.6980345845222473,-0.127065435051918,0,0,0,-1,-1,31774.100769625,unknown,2,2025-04-22T12:57:30.865+03:00,2025-04-21T17:08:51.449+03:00,7384,0.9981967,0,0,6152.583,5,20,2025-04-22T12:57:30.865+03:00,767008656.1149665,0,-22.1,100.4687,1,0.75,2025-04-22T12:56:38.708+03:00,71,1.183333333333333,2025-04-22T09:54:17.825+03:00,0.02225348692287972,0
2025-04-22T12:57:36.708+03:00,1745315852.947822,40.95220305975717,29.14025630257546,76.18102,-1,-1,-1,-1,30,23.91450547804756,-9999,31779.938985125,-0.7060546875,0.6844482421875,-0.1441802978515625,31779.928908125,-0.1242203715819538,-1.413097606488731,-0.7838006721479032,-0.9017571210861206,-1.386968612670898,0.971599817276001,-0.02894634008407593,-0.01276957988739014,-0.1300922632217407,XArbitraryZVertical,-0.3271918325195815,-0.580803555368954,0.2038538864393346,0.716977185614199,-0.6994471549987793,0.7059763073921204,-0.1112254709005356,0,0,0,-1,-1,31774.100769625,unknown,2,2025-04-22T12:57:30.865+03:00,2025-04-21T17:08:51.449+03:00,7384,0.9981967,0,0,6152.583,5,20,2025-04-22T12:57:30.865+03:00,767008656.1149665,0,-22.1,100.4687,1,0.75,2025-04-22T12:56:38.708+03:00,71,1.183333333333333,2025-04-22T09:54:17.825+03:00,0.02225348692287972,0
2025-04-22T12:57:36.718+03:00,1745315852.947822,40.95220305975717,29.14025630257546,76.18102,-1,-1,-1,-1,30,23.91450547804756,-9999,31779.949062125,-0.6794586181640625,0.682281494140625,-0.009765625,31779.938985125,-0.1369649288826272,-1.435966708838557,-0.7946944039673284,-1.181065201759338,-1.353219866752625,0.9027637243270874,-0.01981335878372192,-0.02079373598098755,-0.08206112682819366,XArbitraryZVertical,-0.3322697039723765,-0.5852482571206299,0.2064594572089674,0.7102505686203711,-0.6941453814506531,0.713649570941925,-0.09416264295578003,0,0,0,-1,-1,31774.100769625,unknown,2,2025-04-22T12:57:30.865+03:00,2025-04-21T17:08:51.449+03:00,7384,0.9981967,0,0,6152.583,5,20,2025-04-22T12:57:30.865+03:00,767008656.1149665,0,-22.1,100.4687,1,0.75,2025-04-22T12:56:38.708+03:00,71,1.183333333333333,2025-04-22T09:54:17.825+03:00,0.02225348692287972,0
2025-04-22T12:57:36.728+03:00,1745315852.947822,40.95220305975717,29.14025630257546,76.18102,-1,-1,-1,-1,30,23.91450547804756,-9999,31779.959139125,-0.633941650390625,0.709136962890625,0.1507110595703125,31779.949062125,-0.1546306642354039,-1.462138580763264,-0.8049455857961345,-1.494643568992615,-1.329213380813599,0.8223719000816345,-0.00211489200592041,-0.04141074419021606,0.006976492702960968,XArbitraryZVertical,-0.3381790917992001,-0.5899583796790765,0.2078337857286296,0.7031279748309101,-0.6890624165534973,0.7207929491996765,-0.07516802102327347,0,0,0,-1,-1,31774.100769625,unknown,2,2025-04-22T12:57:30.865+03:00,2025-04-21T17:08:51.449+03:00,7384,0.9981967,0,0,6152.583,5,20,2025-04-22T12:57:30.865+03:00,767008656.1149665,0,-22.1,100.4687,1,0.75,2025-04-22T12:56:38.708+03:00,71,1.183333333333333,2025-04-22T09:54:17.825+03:00,0.02225348692287972,0
2025-04-22T12:57:36.738+03:00,1745315852.947822,40.95220305975717,29.14025630257546,76.18102,-1,-1,-1,-1,30,23.91450547804756,-9999,31779.969216125,-0.582427978515625,0.763763427734375,0.2750091552734375,31779.959139125,-0.1770345236160601,-1.491742966092162,-0.8143829466098407,-1.723600745201111,-1.329446315765381,0.7611973285675049,0.03125029802322388,-0.03224921226501465,0.1472320556640625,XArbitraryZVertical,-0.3448308535989854,-0.5949723404902274,0.208078136526955,0.6955595270424548,-0.6841738224029541,0.7273022532463074,-0.05419919267296791,0,0,0,-1,-1,31774.100769625,unknown,2,2025-04-22T12:57:30.865+03:00,2025-04-21T17:08:51.449+03:00,7384,0.9981967,0,0,6152.583,5,20,2025-04-22T12:57:30.865+03:00,767008656.1149665,0,-22.1,100.4687,1,0.75,2025-04-22T12:56:38.708+03:00,71,1.183333333333333,2025-04-22T09:54:17.825+03:00,0.02225348692287972,0
2025-04-22T12:57:36.748+03:00,1745315852.947822,40.95220305975717,29.14025630257546,76.18102,-1,-1,-1,-1,30,23.91450547804756,-9999,31779.979293125,-0.5734100341796875,0.8066864013671875,0.34991455078125,31779.969216125,-0.2027982837991035,-1.523721061785646,-0.822884403171519,-1.865772247314453,-1.271224498748779,0.6940183043479919,0.08038753271102905,0.009122610092163086,0.2658607363700867,XArbitraryZVertical,-0.3519268961922066,-0.6001209921204623,0.2075127449272892,0.6877068548014105,-0.6793559789657593,0.7331106066703796,-0.03200450912117958,0,0,0,-1,-1,31774.100769625,unknown,2,2025-04-22T12:57:30.865+03:00,2025-04-21T17:08:51.449+03:00,7384,0.9981967,0,0,6152.583,5,20,2025-04-22T12:57:30.865+03:00,767008656.1149665,0,-22.1,100.4687,1,0.75,2025-04-22T12:56:38.708+03:00,71,1.183333333333333,2025-04-22T09:54:17.825+03:00,0.02225348692287972,0
2025-04-22T12:57:36.758+03:00,1745315852.947822,40.95220305975717,29.14025630257546,76.18102,-1,-1,-1,-1,30,23.91450547804756,-9999,31779.989370125,-0.6031646728515625,0.8370513916015625,0.4533843994140625,31779.979293125,-0.2305870235350251,-1.556267136882509,-0.8297602576489602,-1.877413868904114,-1.130319952964783,0.5447236895561218,0.105385959148407,0.05670970678329468,0.3337669372558594,XArbitraryZVertical,-0.3590785597009737,-0.6051105497231684,0.2060820130995111,0.6800249415345239,-0.6749812960624695,0.7377695441246033,-0.009807621128857136,0,0,0,-1,-1,31774.100769625,unknown,2,2025-04-22T12:57:30.865+03:00,2025-04-21T17:08:51.449+03:00,7384,0.9981967,0,0,6152.583,5,20,2025-04-22T12:57:30.865+03:00,767008656.1149665,0,-22.1,100.4687,1,0.75,2025-04-22T12:56:38.708+03:00,71,1.183333333333333,2025-04-22T09:54:17.825+03:00,0.02225348692287972,0
2025-04-22T12:57:36.768+03:00,1745315852.947822,40.95220305975717,29.14025630257546,76.18102,-1,-1,-1,-1,30,23.91450547804756,-9999,31779.999446125,-0.602508544921875,0.9218597412109375,0.6151123046875,31779.989370125,-0.2568832978006826,-1.586384790796447,-0.8344531345320975,-1.605206370353699,-0.9789658784866333,0.3893460929393768,0.0806351900100708,0.08092415332794189,0.3946218490600586,XArbitraryZVertical,-0.3654002300703525,-0.6096859289117305,0.2042295328778328,0.6730942834644759,-0.6715012192726135,0.7409293651580811,0.01046852022409439,0,0,0,-1,-1,31774.100769625,unknown,2,2025-04-22T12:57:30.865+03:00,2025-04-21T17:08:51.449+03:00,7384,0.9981967,0,0,6152.583,5,20,2025-04-22T12:57:30.865+03:00,767008656.1149665,0,-22.1,100.4687,1,0.75,2025-04-22T12:56:38.708+03:00,71,1.183333333333333,2025-04-22T09:54:17.825+03:00,0.02225348692287972,0
2025-04-22T12:57:36.778+03:00,1745315852.947822,40.95220305975717,29.14025630257546,76.18102,-1,-1,-1,-1,30,23.91450547804756,-9999,31780.009523125,-0.5765838623046875,1.018966674804688,0.7685394287109375,31779.999446125,-0.2768625284076267,-1.610078951870254,-0.8372222861659681,-0.9672113656997681,-0.7839270234107971,0.2300056219100952,0.05949974060058594,0.1396751999855042,0.5271270275115967,XArbitraryZVertical,-0.3699194113154267,-0.6134383965383267,0.2028395845558668,0.6676143976160401,-0.6690120100975037,0.7427862286567688,0.02629407495260239,0,0,0,-1,-1,31774.100769625,unknown,2,2025-04-22T12:57:30.865+03:00,2025-04-21T17:08:51.449+03:00,7384,0.9981967,0,0,6152.583,5,20,2025-04-22T12:57:30.865+03:00,767008656.1149665,0,-22.1,100.4687,1,0.75,2025-04-22T12:56:38.708+03:00,71,1.183333333333333,2025-04-22T09:54:17.825+03:00,0.02225348692287972,0
2025-04-22T12:57:36.789+03:00,1745315852.947822,40.95220305975717,29.14025630257546,76.18102,-1,-1,-1,-1,30,23.91450547804756,-9999,31780.019600125,-0.55438232421875,1.096298217773438,0.969696044921875,31780.009523125,-0.2833138399092291,-1.621799904175229,-0.8386674257120258,0.1573299765586853,-0.5888464450836182,0.09565394371747971,0.08204436302185059,0.2448790669441223,0.6773011684417725,XArbitraryZVertical,-0.3711337881855897,-0.6158726353349734,0.2033633699230263,0.6645327936375652,-0.6675850749015808,0.7437530159950256,0.03407878428697586,0,0,0,-1,-1,31774.100769625,unknown,2,2025-04-22T12:57:30.865+03:00,2025-04-21T17:08:51.449+03:00,7384,0.9981967,0,0,6152.583,5,20,2025-04-22T12:57:30.865+03:00,767008656.1149665,0,-22.1,100.4687,1,0.75,2025-04-22T12:56:38.708+03:00,71,1.183333333333333,2025-04-22T09:54:17.825+03:00,0.02225348692287972,0
2025-04-22T12:57:36.799+03:00,1745315852.947822,40.95220305975717,29.14025630257546,76.18102,-1,-1,-1,-1,30,23.91450547804756,-9999,31780.029677125,-0.5351104736328125,1.216384887695312,1.193756103515625,31780.019600125,-0.2715973747898539,-1.617709541252777,-0.8393270086420404,1.421013593673706,-0.3132102489471436,-0.04072872921824455,0.1036606431007385,0.3178178071975708,0.8519302606582642,XArbitraryZVertical,-0.3681354744302208,-0.6165538780843696,0.2067292546696067,0.6645302358561326,-0.667228639125824,0.7441937327384949,0.03132482245564461,0,0,0,-1,-1,31774.100769625,unknown,2,2025-04-22T12:57:30.865+03:00,2025-04-21T17:08:51.449+03:00,7384,0.9981967,0,0,6152.583,5,20,2025-04-22T12:57:30.865+03:00,767008656.1149665,0,-22.1,100.4687,1,0.75,2025-04-22T12:56:38.708+03:00,71,1.183333333333333,2025-04-22T09:54:17.825+03:00,0.02225348692287972,0
2025-04-22T12:57:36.809+03:00,1745315852.947822,40.95220305975717,29.14025630257546,76.18102,-1,-1,-1,-1,30,23.91450547804756,-9999,31780.039754125,-0.5299224853515625,1.254409790039062,1.31939697265625,31780.029677125,-0.2398256725192661,-1.595252648526543,-0.8390197849416446,2.773266077041626,0.09371811896562576,-0.1787566393613815,0.1267936825752258,0.4292901158332825,1.104219794273376,XArbitraryZVertical,-0.3606198893227706,-0.6149172633379368,0.2131177713692985,0.6681396756222787,-0.6679922342300415,0.7439885139465332,0.01633989065885544,0,0,0,-1,-1,31774.100769625,unknown,2,2025-04-22T12:57:30.865+03:00,2025-04-21T17:08:51.449+03:00,7384,0.9981967,0,0,6152.583,5,20,2025-04-22T12:57:30.865+03:00,767008656.1149665,0,-22.1,100.4687,1,0.75,2025-04-22T12:56:38.708+03:00,71,1.183333333333333,2025-04-22T09:54:17.825+03:00,0.02225348692287972,0
2025-04-22T12:57:36.819+03:00,1745315852.947822,40.95220305975717,29.14025630257546,76.18102,-1,-1,-1,-1,30,23.91450547804756,-9999,31780.049831125,-0.516448974609375,1.189544677734375,1.4923095703125,31780.039754125,-0.1892142175914985,-1.554340823097068,-0.83655545547385,3.931311130523682,0.5629181861877441,-0.3332970440387726,0.1385914087295532,0.5118259191513062,1.286598920822144,XArbitraryZVertical,-0.3488109297725084,-0.6105885656781381,0.222032097071211,0.6754362348710519,-0.6699328422546387,0.7423396110534668,-0.01102507766336203,0,0,0,-1,-1,31774.100769625,unknown,2,2025-04-22T12:57:30.865+03:00,2025-04-21T17:08:51.449+03:00,7384,0.9981967,0,0,6152.583,5,20,2025-04-22T12:57:30.865+03:00,767008656.1149665,0,-22.1,100.4687,1,0.75,2025-04-22T12:56:38.708+03:00,71,1.183333333333333,2025-04-22T09:54:17.825+03:00,0.02225348692287972,0
2025-04-22T12:57:36.829+03:00,1745315852.947822,40.95220305975717,29.14025630257546,76.18102,-1,-1,-1,-1,30,23.91450547804756,-9999,31780.059908125,-0.481414794921875,1.0145263671875,1.709854125976562,31780.049831125,-0.1241750104746525,-1.498037419662396,-0.8307251024714334,4.704821586608887,1.047396659851074,-0.4379544854164124,0.1478370428085327,0.4860666394233704,1.466684579849243,XArbitraryZVertical,-0.3336097089482187,-0.6034849375158536,0.2326596089089438,0.6858424377233682,-0.6725561618804932,0.7384205460548401,-0.04902098327875137,0,0,0,-1,-1,31774.100769625,unknown,2,2025-04-22T12:57:30.865+03:00,2025-04-21T17:08:51.449+03:00,7384,0.9981967,0,0,6152.583,5,20,2025-04-22T12:57:30.865+03:00,767008656.1149665,0,-22.1,100.4687,1,0.75,2025-04-22T12:56:38.708+03:00,71,1.183333333333333,2025-04-22T09:54:17.825+03:00,0.02225348692287972,0
2025-04-22T12:57:36.839+03:00,1745315852.947822,40.95220305975717,29.14025630257546,76.18102,-1,-1,-1,-1,30,23.91450547804756,-9999,31780.069984125,-0.4863433837890625,0.701904296875,1.957504272460938,31780.059908125,-0.05524405579691695,-1.433801946273319,-0.8204338031494683,4.618505954742432,1.676997423171997,-0.6335920691490173,0.1810692548751831,0.365054726600647,1.718353986740112,XArbitraryZVertical,-0.3171663840822332,-0.5940058576048197,0.2428449878846131,0.6982754829541804,-0.6755149364471436,0.7314417362213135,-0.09312505275011063,0,0,0,-1,-1,31774.100769625,unknown,2,2025-04-22T12:57:30.865+03:00,2025-04-21T17:08:51.449+03:00,7384,0.9981967,0,0,6152.583,5,20,2025-04-22T12:57:30.865+03:00,767008656.1149665,0,-22.1,100.4687,1,0.75,2025-04-22T12:56:38.708+03:00,71,1.183333333333333,2025-04-22T09:54:17.825+03:00,0.02225348692287972,0
2025-04-22T12:57:36.849+03:00,1745315852.947822,40.95220305975717,29.14025630257546,76.18102,-1,-1,-1,-1,30,23.91450547804756,-9999,31780.080061125,-0.5257568359375,0.3452301025390625,2.206207275390625,31780.069984125,0.004725591384452827,-1.369268226988032,-0.8061937619724038,3.869620323181152,2.511645555496216,-0.7530412673950195,0.2025170922279358,0.1112586855888367,1.997833609580994,XArbitraryZVertical,-0.3024959883462083,-0.582420332311021,0.2497497267081587,0.711974568205766,-0.6782403588294983,0.7216575145721436,-0.1385654658079147,0,0,0,-1,-1,31774.100769625,unknown,2,2025-04-22T12:57:30.865+03:00,2025-04-21T17:08:51.449+03:00,7384,0.9981967,0,0,6152.583,5,20,2025-04-22T12:57:30.865+03:00,767008656.1149665,0,-22.1,100.4687,1,0.75,2025-04-22T12:56:38.708+03:00,71,1.183333333333333,2025-04-22T09:54:17.825+03:00,0.02225348692287972,0
2025-04-22T12:57:36.859+03:00,1745315852.947822,40.95220305975717,29.14025630257546,76.18102,-1,-1,-1,-1,30,23.91450547804756,-9999,31780.090138125,-0.498626708984375,0.1424560546875,2.252593994140625,31780.080061125,0.04950844849460311,-1.307296653023121,-0.7913373782667864,2.836487293243408,3.431622743606567,-0.6858189105987549,0.1638938784599304,-0.2408197522163391,2.30778694152832,XArbitraryZVertical,-0.2919957565024508,-0.5685069407562457,0.2524316944202218,0.7265098792802333,-0.6786338686943054,0.7112939357757568,-0.1830766797065735,0,0,0,-1,-1,31774.100769625,unknown,2,2025-04-22T12:57:30.865+03:00,2025-04-21T17:08:51.449+03:00,7384,0.9981967,0,0,6152.583,5,20,2025-04-22T12:57:30.865+03:00,767008656.1149665,0,-22.1,100.4687,1,0.75,2025-04-22T12:56:38.708+03:00,71,1.183333333333333,2025-04-22T09:54:17.825+03:00,0.02225348692287972,0
2025-04-22T12:57:36.869+03:00,1745315852.947822,40.95220305975717,29.14025630257546,76.18102,-1,-1,-1,-1,30,23.91450547804756,-9999,31780.100215125,-0.460784912109375,0.0709075927734375,2.013259887695312,31780.090138125,0.0791634001537935,-1.246599385562229,-0.7776085943338514,1.985199213027954,4.47341775894165,-0.7520312070846558,0.1582448482513428,-0.5076534748077393,2.496068477630615,XArbitraryZVertical,-0.2861828125113553,-0.5519075572285932,0.2508358148397277,0.7420099058362061,-0.6754719614982605,0.7015773057937622,-0.2269948869943619,0,0,0,-1,-1,31774.100769625,unknown,2,2025-04-22T12:57:30.865+03:00,2025-04-21T17:08:51.449+03:00,7384,0.9981967,0,0,6152.583,5,20,2025-04-22T12:57:30.865+03:00,767008656.1149665,0,-22.1,100.4687,1,0.75,2025-04-22T12:56:38.708+03:00,71,1.183333333333333,2025-04-22T09:54:17.825+03:00,0.02225348692287972,0
2025-04-22T12:57:36.879+03:00,1745315852.947822,40.95220305975717,29.14025630257546,76.18102,-1,-1,-1,-1,30,23.91450547804756,-9999,31780.110292125,-0.42730712890625,0.0091094970703125,1.681045532226562,31780.100215125,0.09836643075020343,-1.182568959049747,-0.7642908598139305,1.465773224830627,5.551239013671875,-0.7430269718170166,0.19822758436203,-0.597085177898407,2.405527114868164,XArbitraryZVertical,-0.2837983919083099,-0.531814400564945,0.2454926926282219,0.759187115212029,-0.668152391910553,0.6920252442359924,-0.2732638418674469,0,0,0,-1,-1,31774.100769625,unknown,2,2025-04-22T12:57:30.865+03:00,2025-04-21T17:08:51.449+03:00,7384,0.9981967,0,0,6152.583,5,20,2025-04-22T12:57:30.865+03:00,767008656.1149665,0,-22.1,100.4687,1,0.75,2025-04-22T12:56:38.708+03:00,71,1.183333333333333,2025-04-22T09:54:17.825+03:00,0.02225348692287972,0
2025-04-22T12:57:36.889+03:00,1745315852.947822,40.95220305975717,29.14025630257546,76.18102,-1,-1,-1,-1,30,23.91450547804756,-9999,31780.120369125,-0.3795166015625,-0.023345947265625,1.63067626953125,31780.110292125,0.1082491936952435,-1.114681729548304,-0.7529960058129546,0.767268180847168,6.575563430786133,-0.7400082945823669,0.2092058658599854,-0.6550345420837402,2.107849597930908,XArbitraryZVertical,-0.2849581987314579,-0.5080435890984677,0.2368808150722344,0.7775461184402866,-0.6550523638725281,0.683827817440033,-0.3213810622692108,0,0,0,-1,-1,31774.100769625,unknown,2,2025-04-22T12:57:30.865+03:00,2025-04-21T17:08:51.449+03:00,7384,0.9981967,0,0,6152.583,5,20,2025-04-22T12:57:30.865+03:00,767008656.1149665,0,-22.1,100.4687,1,0.75,2025-04-22T12:56:38.708+03:00,71,1.183333333333333,2025-04-22T09:54:17.825+03:00,0.02225348692287972,0
2025-04-22T12:57:36.899+03:00,1745315852.947822,40.95220305975717,29.14025630257546,76.18102,-1,-1,-1,-1,30,23.91450547804756,-9999,31780.130445125,-0.344390869140625,0.039581298828125,1.686386108398438,31780.120369125,0.1107738154909773,-1.041867853006438,-0.7438710015043675,0.5620580911636353,7.502460479736328,-0.6463121175765991,0.2432989478111267,-0.6898216009140015,1.987787961959839,XArbitraryZVertical,-0.2890624423653411,-0.4803999481347859,0.2253254684875833,0.7967980462850487,-0.6352972388267517,0.6771414875984192,-0.371317595243454,0,0,0,-1,-1,31774.100769625,unknown,2,2025-04-22T12:57:30.865+03:00,2025-04-21T17:08:51.449+03:00,7384,0.9981967,0,0,6152.583,5,20,2025-04-22T12:57:30.865+03:00,767008656.1149665,0,-22.1,100.4687,1,0.75,2025-04-22T12:56:38.708+03:00,71,1.183333333333333,2025-04-22T09:54:17.825+03:00,0.02225348692287972,0
2025-04-22T12:57:36.909+03:00,1745315852.947822,40.95220305975717,29.14025630257546,76.18102,-1,-1,-1,-1,30,23.91450547804756,-9999,31780.140522125,-0.18133544921875,0.332763671875,1.359161376953125,31780.130445125,0.1201602852546943,-0.9561370121737882,-0.733994398193207,2.003362417221069,8.179756164550781,-0.2352742701768875,0.2408508658409119,-0.6808425188064575,2.102687358856201,XArbitraryZVertical,-0.2922263911772522,-0.4477832861356028,0.2145421607862222,0.8173526711425172,-0.6066039800643921,0.6698408126831055,-0.4281877279281616,0,0,0,-1,-1,31774.100769625,unknown,2,2025-04-22T12:57:30.865+03:00,2025-04-21T17:08:51.449+03:00,7384,0.9981967,0,0,6152.583,5,20,2025-04-22T12:57:30.865+03:00,767008656.1149665,0,-22.1,100.4687,1,0.75,2025-04-22T12:56:38.708+03:00,71,1.183333333333333,2025-04-22T09:54:17.825+03:00,0.02225348692287972,0
2025-04-22T12:57:36.919+03:00,1745315852.947822,40.95220305975717,29.14025630257546,76.18102,-1,-1,-1,-1,30,23.91450547804756,-9999,31780.150599125,0.4156036376953125,0.8628997802734375,-3.91595458984375,31780.140522125,0.1610728751664302,-0.8577361225567803,-0.6994668168798309,5.797447204589844,3.089655637741089,-4.461170196533203,0.3172532916069031,-0.4376178979873657,2.097333669662476,XArbitraryZVertical,-0.2791771483067751,-0.4144713991598956,0.2107598987580104,0.8401509531452738,-0.5787583589553833,0.6438097953796387,-0.5005471706390381,0,0,0,-1,-1,31774.100769625,unknown,2,2025-04-22T12:57:30.865+03:00,2025-04-21T17:08:51.449+03:00,7384,0.9981967,0,0,6152.583,5,20,2025-04-22T12:57:30.865+03:00,767008656.1149665,0,-22.1,100.4687,1,0.75,2025-04-22T12:56:38.708+03:00,71,1.183333333333333,2025-04-22T09:54:17.825+03:00,0.02225348692287972,0
2025-04-22T12:57:36.930+03:00,1745315852.947822,40.95220305975717,29.14025630257546,76.18102,-1,-1,-1,-1,30,23.91450547804756,-9999,31780.160676125,2.52508544921875,1.509765625,-11.08615112304688,31780.150599125,0.1178912883250271,-0.8735319543030106,-0.6784634818059552,-1.23960292339325,0.1273238211870193,-1.715618133544922,0.6740837097167969,-0.01279044151306152,-0.09754073619842529,XArbitraryZVertical,-0.2775006940589723,-0.41597454115896,0.1908568998473787,0.8447083466077259,-0.5968284606933594,0.6275975108146667,-0.4999170899391174,0,0,0,-1,-1,31774.100769625,unknown,2,2025-04-22T12:57:30.865+03:00,2025-04-21T17:08:51.449+03:00,7384,0.9981967,0,0,6152.583,5,20,2025-04-22T12:57:30.865+03:00,767008656.1149665,0,-22.1,100.4687,1,0.75,2025-04-22T12:56:38.708+03:00,71,1.183333333333333,2025-04-22T09:54:17.825+03:00,0.02225348692287972,0
2025-04-22T12:57:36.940+03:00,1745315852.947822,40.95220305975717,29.14025630257546,76.18102,-1,-1,-1,-1,30,23.91450547804756,-9999,31780.170753125,2.529342651367188,-0.54254150390625,-5.988983154296875,31780.160676125,0.1045286697139054,-0.9169690623964935,-0.6830642992731206,0.09364233911037445,-3.908473014831543,1.078640103340149,2.213712930679321,0.7587044239044189,-9.771731376647949,XArbitraryZVertical,-0.2781450734804864,-0.4321473888686206,0.1921743744295745,0.83603399764278,-0.6156750917434692,0.631172776222229,-0.4717679023742676,0,0,0,-1,-1,31774.100769625,unknown,2,2025-04-22T12:57:30.865+03:00,2025-04-21T17:08:51.449+03:00,7384,0.9981967,0,0,6152.583,5,20,2025-04-22T12:57:30.865+03:00,767008656.1149665,0,-22.1,100.4687,1,0.75,2025-04-22T12:56:38.708+03:00,71,1.183333333333333,2025-04-22T09:54:17.825+03:00,0.02225348692287972,0
2025-04-22T12:57:36.950+03:00,1745315852.947822,40.95220305975717,29.14025630257546,76.18102,-1,-1,-1,-1,30,23.91450547804756,-9999,31780.180830125,-0.015045166015625,-1.3109130859375,-1.876998901367188,31780.170753125,0.1257930809698047,-0.9476289863668482,-0.6908863626307077,1.224437594413757,-4.333326816558838,1.425564765930176,3.725825786590576,-0.1201612949371338,-7.508459091186523,XArbitraryZVertical,-0.2737287852970253,-0.4474190704849153,0.2068250202523448,0.8259007517529443,-0.6258195638656616,0.637220561504364,-0.4497774541378021,0,0,0,-1,-1,31774.100769625,unknown,2,2025-04-22T12:57:30.865+03:00,2025-04-21T17:08:51.449+03:00,7384,0.9981967,0,0,6152.583,5,20,2025-04-22T12:57:30.865+03:00,767008656.1149665,0,-22.1,100.4687,1,0.75,2025-04-22T12:56:38.708+03:00,71,1.183333333333333,2025-04-22T09:54:17.825+03:00,0.02225348692287972,0
2025-04-22T12:57:36.960+03:00,1745315852.947822,40.95220305975717,29.14025630257546,76.18102,-1,-1,-1,-1,30,23.91450547804756,-9999,31780.190907125,-1.2391357421875,0.25665283203125,0.5860595703125,31780.180830125,0.1349422077954584,-0.9806015322318651,-0.6873095606832257,0.5855424404144287,-3.262770652770996,-1.113679647445679,1.518936157226562,-2.156600475311279,-3.098030567169189,XArbitraryZVertical,-0.2666696019979237,-0.4623889390920626,0.2142961877109021,0.8180225892010491,-0.6421966552734375,0.634459912776947,-0.4301675856113434,0,0,0,-1,-1,31774.100769625,unknown,2,2025-04-22T12:57:30.865+03:00,2025-04-21T17:08:51.449+03:00,7384,0.9981967,0,0,6152.583,5,20,2025-04-22T12:57:30.865+03:00,767008656.1149665,0,-22.1,100.4687,1,0.75,2025-04-22T12:56:38.708+03:00,71,1.183333333333333,2025-04-22T09:54:17.825+03:00,0.02225348692287972,0
2025-04-22T12:57:36.970+03:00,1745315852.947822,40.95220305975717,29.14025630257546,76.18102,-1,-1,-1,-1,30,23.91450547804756,-9999,31780.200983125,-1.061126708984375,0.972900390625,0.2345733642578125,31780.190907125,0.1371286512058242,-1.002160211533373,-0.6758202441677073,0.8324103355407715,-1.461465120315552,-0.5713472962379456,-0.3134816884994507,-0.9229007959365845,0.6864484548568726,XArbitraryZVertical,-0.2590282083283251,-0.4720631803498918,0.2155674688169948,0.8146111762647867,-0.6574198007583618,0.6255374550819397,-0.4201214909553528,0,0,0,-1,-1,31774.100769625,unknown,2,2025-04-22T12:57:30.865+03:00,2025-04-21T17:08:51.449+03:00,7384,0.9981967,0,0,6152.583,5,20,2025-04-22T12:57:30.865+03:00,767008656.1149665,0,-22.1,100.4687,1,0.75,2025-04-22T12:56:38.708+03:00,71,1.183333333333333,2025-04-22T09:54:17.825+03:00,0.02225348692287972,0
2025-04-22T12:57:36.980+03:00,1745315852.947822,40.95220305975717,29.14025630257546,76.18102,-1,-1,-1,-1,30,23.91450547804756,-9999,31780.211060125,-0.934356689453125,1.232528686523438,0.40087890625,31780.200983125,0.142749071554397,-1.007505674391775,-0.6692331442311706,0.4669791758060455,-0.1679913848638535,-0.009303230792284012,-0.5569975972175598,0.182532787322998,0.6976163387298584,XArbitraryZVertical,-0.2543640469268224,-0.4752922106696552,0.2171146847196553,0.8137920716423948,-0.66312575340271,0.6203847527503967,-0.4187924861907959,0,0,0,-1,-1,31774.100769625,unknown,2,2025-04-22T12:57:30.865+03:00,2025-04-21T17:08:51.449+03:00,7384,0.9981967,0,0,6152.583,5,20,2025-04-22T12:57:30.865+03:00,767008656.1149665,0,-22.1,100.4687,1,0.75,2025-04-22T12:56:38.708+03:00,71,1.183333333333333,2025-04-22T09:54:17.825+03:00,0.02225348692287972,0
2025-04-22T12:57:36.990+03:00,1745315852.947822,40.95220305975717,29.14025630257546,76.18102,-1,-1,-1,-1,30,23.91450547804756,-9999,31780.221137125,-1.16094970703125,1.08935546875,-0.0849761962890625,31780.211060125,0.1425718836377945,-1.003987549600964,-0.6712309101283054,-0.5646793246269226,0.8031574487686157,0.3231615424156189,-0.2449620366096497,0.5385568141937256,0.8417211771011353,XArbitraryZVertical,-0.2556236493890006,-0.4737386399178575,0.2170269947365575,0.8143264223619697,-0.6606013178825378,0.6219503283500671,-0.4204564988613129,0,0,0,-1,-1,31774.100769625,unknown,2,2025-04-22T12:57:30.865+03:00,2025-04-21T17:08:51.449+03:00,7384,0.9981967,0,0,6152.583,5,20,2025-04-22T12:57:30.865+03:00,767008656.1149665,0,-22.1,100.4687,1,0.75,2025-04-22T12:56:38.708+03:00,71,1.183333333333333,2025-04-22T09:54:17.825+03:00,0.02225348692287972,0
2025-04-22T12:57:37.000+03:00,1745315852.947822,40.95220305975717,29.14025630257546,76.18102,-1,-1,-1,-1,30,23.91450547804756,-9999,31780.231214125,-1.2275390625,0.7277374267578125,-0.563934326171875,31780.221137125,0.136140209548312,-0.9970172582632152,-0.6766921057348497,-0.8110134601593018,1.301234841346741,0.03502974659204483,-0.420448899269104,0.5777009129524231,0.5371840000152588,XArbitraryZVertical,-0.2601789807427995,-0.4697941229301193,0.2146850000575906,0.8157883399504267,-0.6547920703887939,0.6262174844741821,-0.4232007563114166,0,0,0,-1,-1,31774.100769625,unknown,2,2025-04-22T12:57:30.865+03:00,2025-04-21T17:08:51.449+03:00,7384,0.9981967,0,0,6152.583,5,20,2025-04-22T12:57:30.865+03:00,767008656.1149665,0,-22.1,100.4687,1,0.75,2025-04-22T12:56:38.708+03:00,71,1.183333333333333,2025-04-22T09:54:17.825+03:00,0.02225348692287972,0
2025-04-22T12:57:37.010+03:00,1745315852.947822,40.95220305975717,29.14025630257546,76.18102,-1,-1,-1,-1,30,23.91450547804756,-9999,31780.241291125,-0.9063873291015625,0.4105072021484375,-0.6559600830078125,31780.231214125,0.1268626592062267,-0.9908054517374586,-0.6830629850636853,-0.9673724770545959,1.02016007900238,0.2497774660587311,-0.5941042900085449,0.2171405553817749,0.02182108163833618,XArbitraryZVertical,-0.2656779984963538,-0.4657066376530541,0.2114481007968486,0.8172039059080415,-0.6488003730773926,0.6311717629432678,-0.4250650703907013,0,0,0,-1,-1,31774.100769625,unknown,2,2025-04-22T12:57:30.865+03:00,2025-04-21T17:08:51.449+03:00,7384,0.9981967,0,0,6152.583,5,20,2025-04-22T12:57:30.865+03:00,767008656.1149665,0,-22.1,100.4687,1,0.75,2025-04-22T12:56:38.708+03:00,71,1.183333333333333,2025-04-22T09:54:17.825+03:00,0.02225348692287972,0
2025-04-22T12:57:37.020+03:00,1745315852.947822,40.95220305975717,29.14025630257546,76.18102,-1,-1,-1,-1,30,23.91450547804756,-9999,31780.251368125,-0.5670166015625,0.295806884765625,-0.669830322265625,31780.241291125,0.1215128023566451,-0.9875882730552739,-0.6884274303681825,-0.2775693535804749,0.2935170531272888,0.2262441515922546,-0.4159834384918213,-0.09214127063751221,-0.246381938457489,XArbitraryZVertical,-0.2695052291109226,-0.4633867021853674,0.2099786248274025,0.81764824019807,-0.6445939540863037,0.6353235840797424,-0.4252793788909912,0,0,0,-1,-1,31774.100769625,unknown,2,2025-04-22T12:57:30.865+03:00,2025-04-21T17:08:51.449+03:00,7384,0.9981967,0,0,6152.583,5,20,2025-04-22T12:57:30.865+03:00,767008656.1149665,0,-22.1,100.4687,1,0.75,2025-04-22T12:56:38.708+03:00,71,1.183333333333333,2025-04-22T09:54:17.825+03:00,0.02225348692287972,0
2025-04-22T12:57:37.030+03:00,1745315852.947822,40.95220305975717,29.14025630257546,76.18102,-1,-1,-1,-1,30,23.91450547804756,-9999,31780.261445125,-0.4611968994140625,1.00152587890625,-0.607666015625,31780.251368125,0.1230958335616336,-0.9867576967787474,-0.6900668444584173,0.2409622222185135,-0.2921917140483856,0.1995251923799515,-0.02758878469467163,-0.3908917903900146,-0.2198103070259094,XArbitraryZVertical,-0.2699120978078218,-0.4631712465443871,0.2108636712544057,0.8174082580480421,-0.6433706879615784,0.6365887522697449,-0.4252397119998932,0,0,0,-1,-1,31774.100769625,unknown,2,2025-04-22T12:57:30.865+03:00,2025-04-21T17:08:51.449+03:00,7384,0.9981967,0,0,6152.583,5,20,2025-04-22T12:57:30.865+03:00,767008656.1149665,0,-22.1,100.4687,1,0.75,2025-04-22T12:56:38.708+03:00,71,1.183333333333333,2025-04-22T09:54:17.825+03:00,0.02225348692287972,0
2025-04-22T12:57:37.040+03:00,1745315852.947822,40.95220305975717,29.14025630257546,76.18102,-1,-1,-1,-1,30,23.91450547804756,-9999,31780.271521125,-0.64898681640625,1.2603759765625,-0.4336090087890625,31780.261445125,0.1284890510105836,-0.9870183814169741,-0.6891517690254574,0.5681737661361694,-0.3644354045391083,0.1085262298583984,0.1785284876823425,0.05840736627578735,-0.2419349551200867,XArbitraryZVertical,-0.2682512018984267,-0.4640526274832975,0.2129073100954862,0.8169252590975143,-0.64396733045578,0.6358827352523804,-0.4253928959369659,0,0,0,-1,-1,31774.100769625,unknown,2,2025-04-22T12:57:30.865+03:00,2025-04-21T17:08:51.449+03:00,7384,0.9981967,0,0,6152.583,5,20,2025-04-22T12:57:30.865+03:00,767008656.1149665,0,-22.1,100.4687,1,0.75,2025-04-22T12:56:38.708+03:00,71,1.183333333333333,2025-04-22T09:54:17.825+03:00,0.02225348692287972,0
2025-04-22T12:57:37.051+03:00,1745315852.947822,40.95220305975717,29.14025630257546,76.18102,-1,-1,-1,-1,30,23.91450547804756,-9999,31780.281598125,-0.8387603759765625,0.7822113037109375,-0.4082794189453125,31780.271521125,0.1361875928760621,-0.9841891871960934,-0.6859934020227367,0.6748341917991638,-0.0164976678788662,0.03360379114747047,0.08923965692520142,0.6597861051559448,-0.05225282907485962,XArbitraryZVertical,-0.2654438702042267,-0.4640885731471502,0.2150042077268341,0.8172726240745636,-0.6444306969642639,0.6334419846534729,-0.4283227026462555,0,0,0,-1,-1,31774.100769625,unknown,2,2025-04-22T12:57:30.865+03:00,2025-04-21T17:08:51.449+03:00,7384,0.9981967,0,0,6152.583,5,20,2025-04-22T12:57:30.865+03:00,767008656.1149665,0,-22.1,100.4687,1,0.75,2025-04-22T12:56:38.708+03:00,71,1.183333333333333,2025-04-22T09:54:17.825+03:00,0.02225348692287972,0
2025-04-22T12:57:37.061+03:00,1745315852.947822,40.95220305975717,29.14025630257546,76.18102,-1,-1,-1,-1,30,23.91450547804756,-9999,31780.291675125,-0.780029296875,0.510345458984375,-0.3626861572265625,31780.281598125,0.1420447057755814,-0.9793459654004505,-0.6833707020723184,0.3689105212688446,0.1897090971469879,0.05759264528751373,-0.1469849348068237,0.343015730381012,0.0182705819606781,XArbitraryZVertical,-0.2635072696450577,-0.4630142102587519,0.2162046647585811,0.8181913716110186,-0.6437254548072815,0.6314104199409485,-0.4323635101318359,0,0,0,-1,-1,31774.100769625,unknown,2,2025-04-22T12:57:30.865+03:00,2025-04-21T17:08:51.449+03:00,7384,0.9981967,0,0,6152.583,5,20,2025-04-22T12:57:30.865+03:00,767008656.1149665,0,-22.1,100.4687,1,0.75,2025-04-22T12:56:38.708+03:00,71,1.183333333333333,2025-04-22T09:54:17.825+03:00,0.02225348692287972,0
2025-04-22T12:57:37.071+03:00,1745315852.947822,40.95220305975717,29.14025630257546,76.18102,-1,-1,-1,-1,30,23.91450547804756,-9999,31780.301752125,-0.5958709716796875,0.4512481689453125,-0.3739166259765625,31780.291675125,0.1450153343553764,-0.9756687303384423,-0.6827847285993287,0.08989008516073227,0.1577751338481903,0.1033899635076523,-0.1888917684555054,-0.06226098537445068,0.05665448307991028,XArbitraryZVertical,-0.2629720118067219,-0.4619287662478929,0.2168133285077459,0.8188158171443403,-0.6424374580383301,0.6309559345245361,-0.434935063123703,0,0,0,-1,-1,31774.100769625,unknown,2,2025-04-22T12:57:30.865+03:00,2025-04-21T17:08:51.449+03:00,7384,0.9981967,0,0,6152.583,5,20,2025-04-22T12:57:30.865+03:00,767008656.1149665,0,-22.1,100.4687,1,0.75,2025-04-22T12:56:38.708+03:00,71,1.183333333333333,2025-04-22T09:54:17.825+03:00,0.02225348692287972,0
2025-04-22T12:57:37.081+03:00,1745315852.947822,40.95220305975717,29.14025630257546,76.18102,-1,-1,-1,-1,30,23.91450547804756,-9999,31780.311829125,-0.538543701171875,0.3909759521484375,-0.3708038330078125,31780.301752125,0.1457574048903399,-0.9736722875592864,-0.6838106298949947,-0.1080931723117828,0.1564362347126007,0.1243817284703255,-0.01791840791702271,-0.160590648651123,0.07023686170578003,XArbitraryZVertical,-0.2634490660826212,-0.4611596800890239,0.2170690805474654,0.8190282932335585,-0.641032338142395,0.6317514777183533,-0.4358526766300201,0,0,0,-1,-1,31774.100769625,unknown,2,2025-04-22T12:57:30.865+03:00,2025-04-21T17:08:51.449+03:00,7384,0.9981967,0,0,6152.583,5,20,2025-04-22T12:57:30.865+03:00,767008656.1149665,0,-22.1,100.4687,1,0.75,2025-04-22T12:56:38.708+03:00,71,1.183333333333333,2025-04-22T09:54:17.825+03:00,0.02225348692287972,0
2025-04-22T12:57:37.091+03:00,1745315852.947822,40.95220305975717,29.14025630257546,76.18102,-1,-1,-1,-1,30,23.91450547804756,-9999,31780.321906125,-0.555755615234375,0.4050445556640625,-0.3685760498046875,31780.311829125,0.1448005378759521,-0.9724079995776964,-0.6860375878374075,-0.2478252351284027,0.211909607052803,0.1589833945035934,0.09769076108932495,-0.2227096557617188,0.05964851379394531,XArbitraryZVertical,-0.2647440767889213,-0.4604085084901171,0.2169753896676417,0.8190581122353064,-0.639316737651825,0.633476197719574,-0.4358691573143005,0,0,0,-1,-1,31774.100769625,unknown,2,2025-04-22T12:57:30.865+03:00,2025-04-21T17:08:51.449+03:00,7384,0.9981967,0,0,6152.583,5,20,2025-04-22T12:57:30.865+03:00,767008656.1149665,0,-22.1,100.4687,1,0.75,2025-04-22T12:56:38.708+03:00,71,1.183333333333333,2025-04-22T09:54:17.825+03:00,0.02225348692287972,0
2025-04-22T12:57:37.101+03:00,1745315852.947822,40.95220305975717,29.14025630257546,76.18102,-1,-1,-1,-1,30,23.91450547804756,-9999,31780.331983125,-0.5485076904296875,0.4761962890625,-0.383636474609375,31780.321906125,0.1432218466345737,-0.9712457123594234,-0.6891186261499015,-0.2911803722381592,0.2116646617650986,0.2082801312208176,0.08690237998962402,-0.2484366297721863,0.06949600577354431,XArbitraryZVertical,-0.2665298339932233,-0.459573269285069,0.2168170996628947,0.8189899153206076,-0.6371952891349792,0.6358571648597717,-0.435508519411087,0,0,0,-1,-1,31774.100769625,unknown,2,2025-04-22T12:57:30.865+03:00,2025-04-21T17:08:51.449+03:00,7384,0.9981967,0,0,6152.583,5,20,2025-04-22T12:57:30.865+03:00,767008656.1149665,0,-22.1,100.4687,1,0.75,2025-04-22T12:56:38.708+03:00,71,1.183333333333333,2025-04-22T09:54:17.825+03:00,0.02225348692287972,0
2025-04-22T12:57:37.111+03:00,1745315852.947822,40.95220305975717,29.14025630257546,76.18102,-1,-1,-1,-1,30,23.91450547804756,-9999,31780.342060125,-0.559783935546875,0.5425872802734375,-0.399505615234375,31780.331983125,0.1416462782076829,-0.9702574062217995,-0.6926607663916169,-0.2959796488285065,0.1863486468791962,0.23125921189785,0.08259528875350952,-0.1896735429763794,0.0564599335193634,XArbitraryZVertical,-0.2684888440217472,-0.458783683526579,0.216777561082428,0.8188031381389512,-0.63490229845047,0.6385870575904846,-0.4348625540733337,0,0,0,-1,-1,31774.100769625,unknown,2,2025-04-22T12:57:30.865+03:00,2025-04-21T17:08:51.449+03:00,7384,0.9981967,0,0,6152.583,5,20,2025-04-22T12:57:30.865+03:00,767008656.1149665,0,-22.1,100.4687,1,0.75,2025-04-22T12:56:38.708+03:00,71,1.183333333333333,2025-04-22T09:54:17.825+03:00,0.02225348692287972,0
2025-04-22T12:57:37.121+03:00,1745315852.947822,40.95220305975717,29.14025630257546,76.18102,-1,-1,-1,-1,30,23.91450547804756,-9999,31780.352136125,-0.590301513671875,0.6188507080078125,-0.4427337646484375,31780.342060125,0.1404069314022318,-0.9692938249816114,-0.6961449471918272,-0.2427734881639481,0.1625553667545319,0.2310300022363663,0.08158892393112183,-0.1228318810462952,0.04280927777290344,XArbitraryZVertical,-0.270342542515041,-0.4580487860165339,0.2168651291443881,0.818581452517273,-0.6326447129249573,0.6412643790245056,-0.4342124462127686,0,0,0,-1,-1,31774.100769625,unknown,2,2025-04-22T12:57:30.865+03:00,2025-04-21T17:08:51.449+03:00,7384,0.9981967,0,0,6152.583,5,20,2025-04-22T12:57:30.865+03:00,767008656.1149665,0,-22.1,100.4687,1,0.75,2025-04-22T12:56:38.708+03:00,71,1.183333333333333,2025-04-22T09:54:17.825+03:00,0.02225348692287972,0
2025-04-22T12:57:37.131+03:00,1745315852.947822,40.95220305975717,29.14025630257546,76.18102,-1,-1,-1,-1,30,23.91450547804756,-9999,31780.362213125,-0.607879638671875,0.6769256591796875,-0.490447998046875,31780.352136125,0.1397841609358774,-0.9682336307996063,-0.6992020090569223,-0.175418421626091,0.1256048083305359,0.2157916575670242,0.05128127336502075,-0.05516731739044189,0.009438216686248779,XArbitraryZVertical,-0.2718852295154389,-0.4573767953695116,0.2171014925183631,0.8183835069042497,-0.630565881729126,0.6436071395874023,-0.4337697923183441,0,0,0,-1,-1,31774.100769625,unknown,2,2025-04-22T12:57:30.865+03:00,2025-04-21T17:08:51.449+03:00,7384,0.9981967,0,0,6152.583,5,20,2025-04-22T12:57:30.865+03:00,767008656.1149665,0,-22.1,100.4687,1,0.75,2025-04-22T12:56:38.708+03:00,71,1.183333333333333,2025-04-22T09:54:17.825+03:00,0.02225348692287972,0
2025-04-22T12:57:37.141+03:00,1745315852.947822,40.95220305975717,29.14025630257546,76.18102,-1,-1,-1,-1,30,23.91450547804756,-9999,31780.372290125,-0.6106109619140625,0.6723785400390625,-0.516693115234375,31780.362213125,0.1399645380076963,-0.9671871693585968,-0.7016073784464646,-0.07248570770025253,0.05552659183740616,0.1879533380270004,0.02501451969146729,0.01664775609970093,-0.04098358750343323,XArbitraryZVertical,-0.2729686838880928,-0.4568516011276669,0.2175314575745167,0.818202017891165,-0.6288352608680725,0.645446240901947,-0.4335494339466095,0,0,0,-1,-1,31774.100769625,unknown,2,2025-04-22T12:57:30.865+03:00,2025-04-21T17:08:51.449+03:00,7384,0.9981967,0,0,6152.583,5,20,2025-04-22T12:57:30.865+03:00,767008656.1149665,0,-22.1,100.4687,1,0.75,2025-04-22T12:56:38.708+03:00,71,1.183333333333333,2025-04-22T09:54:17.825+03:00,0.02225348692287972,0
2025-04-22T12:57:37.161+03:00,1745315852.947822,40.95220305975717,29.14025630257546,76.18102,-1,-1,-1,-1,30,23.91450547804756,-9999,31780.382367125,-0.62786865234375,0.653106689453125,-0.501129150390625,31780.372290125,0.1407704616852413,-0.9664502506075764,-0.7032285172063439,-0.01988161914050579,-0.007521351799368858,0.1452591419219971,0.01878243684768677,0.03201204538345337,-0.076759934425354,XArbitraryZVertical,-0.273546194031868,-0.4565781754621193,0.2180959213320637,0.8180116663236239,-0.627653956413269,0.6466836333274841,-0.4334177076816559,0,0,0,-1,-1,31774.100769625,unknown,2,2025-04-22T12:57:30.865+03:00,2025-04-21T17:08:51.449+03:00,7384,0.9981967,0,0,6152.583,5,20,2025-04-22T12:57:30.865+03:00,767008656.1149665,0,-22.1,100.4687,1,0.75,2025-04-22T12:56:38.708+03:00,71,1.183333333333333,2025-04-22T09:54:17.825+03:00,0.02225348692287972,0
2025-04-22T12:57:37.164+03:00,1745315852.947822,40.95220305975717,29.14025630257546,76.18102,-1,-1,-1,-1,30,23.91450547804756,-9999,31780.392444125,-0.661376953125,0.640899658203125,-0.4608917236328125,31780.382367125,0.1415177154023557,-0.9661549843402638,-0.7043851728129806,-0.02396977134048939,-0.03228548541665077,0.1095481887459755,0.008089840412139893,0.01172095537185669,-0.07814458012580872,XArbitraryZVertical,-0.273893951088143,-0.4565012748216393,0.2186003261178269,0.8178033700936159,-0.6269099712371826,0.6475654244422913,-0.4331773817539215,0,0,0,-1,-1,31774.100769625,unknown,2,2025-04-22T12:57:30.865+03:00,2025-04-21T17:08:51.449+03:00,7384,0.9981967,0,0,6152.583,5,20,2025-04-22T12:57:30.865+03:00,767008656.1149665,0,-22.1,100.4687,1,0.75,2025-04-22T12:56:38.708+03:00,71,1.183333333333333,2025-04-22T09:54:17.825+03:00,0.02225348692287972,0
2025-04-22T12:57:37.172+03:00,1745315852.947822,40.95220305975717,29.14025630257546,76.18102,-1,-1,-1,-1,30,23.91450547804756,-9999,31780.402521125,-0.6762847900390625,0.6304779052734375,-0.42047119140625,31780.392444125,0.14182915008991,-0.9664523178738346,-0.7054724314556586,-0.05611386150121689,-0.07087735831737518,0.1016492545604706,-0.02319908142089844,-0.002717971801757812,-0.0445210337638855,XArbitraryZVertical,-0.2742471647922439,-0.4566104869770431,0.2189930148407409,0.8175190297703546,-0.6264591217041016,0.6483935713768005,-0.4325907230377197,0,0,0,-1,-1,31774.100769625,unknown,2,2025-04-22T12:57:30.865+03:00,2025-04-21T17:08:51.449+03:00,7384,0.9981967,0,0,6152.583,5,20,2025-04-22T12:57:30.865+03:00,767008656.1149665,0,-22.1,100.4687,1,0.75,2025-04-22T12:56:38.708+03:00,71,1.183333333333333,2025-04-22T09:54:17.825+03:00,0.02225348692287972,0
2025-04-22T12:57:37.181+03:00,1745315852.947822,40.95220305975717,29.14025630257546,76.18102,-1,-1,-1,-1,30,23.91450547804756,-9999,31780.412598125,-0.6758880615234375,0.627410888671875,-0.391876220703125,31780.402521125,0.1418093957088082,-0.9673571707659935,-0.7067747652854355,-0.08840682357549667,-0.1029181107878685,0.1125507727265358,-0.04816192388534546,-0.01614475250244141,-0.002263188362121582,XArbitraryZVertical,-0.2746995377024872,-0.4569114541204699,0.2193782653091076,0.8170956699244385,-0.6261545419692993,0.6493844985961914,-0.4315441846847534,0,0,0,-1,-1,31774.100769625,unknown,2,2025-04-22T12:57:30.865+03:00,2025-04-21T17:08:51.449+03:00,7384,0.9981967,0,0,6152.583,5,20,2025-04-22T12:57:30.865+03:00,767008656.1149665,0,-22.1,100.4687,1,0.75,2025-04-22T12:56:38.708+03:00,71,1.183333333333333,2025-04-22T09:54:17.825+03:00,0.02225348692287972,0
2025-04-22T12:57:37.191+03:00,1745315852.947822,40.95220305975717,29.14025630257546,76.18102,-1,-1,-1,-1,30,23.91450547804756,-9999,31780.422674125,-0.680633544921875,0.6295166015625,-0.372467041015625,31780.412598125,0.1417385217386599,-0.9684085942888614,-0.7083617349375081,-0.1050987169146538,-0.08842065930366516,0.1419549882411957,-0.05045062303543091,-0.02259981632232666,0.02959001064300537,XArbitraryZVertical,-0.2752665692146247,-0.4572502414530424,0.2198221329018839,0.8165958068743939,-0.6257578730583191,0.6505904793739319,-0.4303010702133179,0,0,0,-1,-1,31774.100769625,unknown,2,2025-04-22T12:57:30.865+03:00,2025-04-21T17:08:51.449+03:00,7384,0.9981967,0,0,6152.583,5,20,2025-04-22T12:57:30.865+03:00,767008656.1149665,0,-22.1,100.4687,1,0.75,2025-04-22T12:56:38.708+03:00,71,1.183333333333333,2025-04-22T09:54:17.825+03:00,0.02225348692287972,0
