loggingTime(txt),locationTimestamp_since1970(s),locationLatitude(WGS84),locationLongitude(WGS84),locationAltitude(m),locationSpeed(m/s),locationSpeedAccuracy(m/s),locationCourse(°),locationCourseAccuracy(°),locationVerticalAccuracy(m),locationHorizontalAccuracy(m),locationFloor(Z),accelerometerTimestamp_sinceReboot(s),accelerometerAccelerationX(G),accelerometerAccelerationY(G),accelerometerAccelerationZ(G),motionTimestamp_sinceReboot(s),motionYaw(rad),motionRoll(rad),motionPitch(rad),motionRotationRateX(rad/s),motionRotationRateY(rad/s),motionRotationRateZ(rad/s),motionUserAccelerationX(G),motionUserAccelerationY(G),motionUserAccelerationZ(G),motionAttitudeReferenceFrame(txt),motionQuaternionX(R),motionQuaternionY(R),motionQuaternionZ(R),motionQuaternionW(R),motionGravityX(G),motionGravityY(G),motionGravityZ(G),motionMagneticFieldX(µT),motionMagneticFieldY(µT),motionMagneticFieldZ(µT),motionHeading(°),motionMagneticFieldCalibrationAccuracy(Z),activityTimestamp_sinceReboot(s),activity(txt),activityActivityConfidence(Z),activityActivityStartDate(txt),pedometerStartDate(txt),pedometerNumberofSteps(N),pedometerAverageActivePace(s/m),pedometerCurrentPace(s/m),pedometerCurrentCadence(steps/s),pedometerDistance(m),pedometerFloorAscended(N),pedometerFloorDescended(N),pedometerEndDate(txt),altimeterTimestamp_sinceReboot(s),altimeterReset(bool),altimeterRelativeAltitude(m),altimeterPressure(kPa),batteryState(N),batteryLevel(R),heartRateBPMTimestamp(txt),heartRateBPM(N),heartRateBPS(R),heartRateVariabilityTimestamp(txt),heartRateVariability(ms),label
2025-04-21T16:27:04.217+03:00,1745242023.231771,40.95225055938123,29.1403145136162,75.80261,-1,-1,-1,-1,30,32.72624310773018,-9999,20008.70292441667,-0.8348388671875,0.5579833984375,-0.032958984375,20008.69788541667,1.510985494851228,-1.525646949540668,-0.5904239679701128,0.002711951266974211,-0.01080801896750927,-0.01740716956555843,-0.006323456764221191,-0.003673851490020752,0.002565562725067139,XArbitraryZVertical,0.3001657380996465,-0.6254230576167179,0.6205423193166738,0.3656141532211361,-0.829858124256134,0.5567132830619812,-0.03749305754899979,0,0,0,-1,-1,19981.40744716667,unknown,2,2025-04-21T16:26:36.905+03:00,2025-04-20T21:57:49.637+03:00,6771,0.9848602,0,0,5553.922,5,6,2025-04-21T16:23:41.500+03:00,766934822.7975621,0,-38.88,100.199,1,0.35,2025-04-21T16:27:02.480+03:00,97,1.616666666666667,2025-04-21T12:30:07.995+03:00,0.02023345852159405,0
2025-04-21T16:27:04.219+03:00,1745242023.231771,40.95225055938123,29.1403145136162,75.80261,-1,-1,-1,-1,30,32.72624310773018,-9999,20008.71300041667,-0.82073974609375,0.56280517578125,-0.0345458984375,20008.70796241667,1.51100392034695,-1.52583170317838,-0.5901889182141776,0.009009861387312412,-0.01347058173269033,-0.02269324474036694,-0.002279579639434814,0.002899587154388428,0.003730297088623047,XArbitraryZVertical,0.3003041774128533,-0.6254155350411343,0.6204783406206351,0.3656219434582452,-0.8299957513809204,0.556518018245697,-0.03734561800956726,0,0,0,-1,-1,19981.40744716667,unknown,2,2025-04-21T16:26:36.905+03:00,2025-04-20T21:57:49.637+03:00,6771,0.9848602,0,0,5553.922,5,6,2025-04-21T16:23:41.500+03:00,766934822.7975621,0,-38.88,100.199,1,0.35,2025-04-21T16:27:02.480+03:00,97,1.616666666666667,2025-04-21T12:30:07.995+03:00,0.02023345852159405,0
2025-04-21T16:27:04.225+03:00,1745242023.231771,40.95225055938123,29.1403145136162,75.80261,-1,-1,-1,-1,30,32.72624310773018,-9999,20008.72307641667,-0.82568359375,0.559173583984375,-0.039215087890625,20008.71803841667,1.511092229902854,-1.525867521580874,-0.5899366475814394,0.002686451654881239,-0.01186895649880171,-0.02211853489279747,0.009565353393554688,0.006923913955688477,0.001952171325683594,XArbitraryZVertical,0.3004238102115194,-0.6253674432929164,0.6204465643796944,0.3656597382921916,-0.8301372528076172,0.556308388710022,-0.03732218965888023,0,0,0,-1,-1,19981.40744716667,unknown,2,2025-04-21T16:26:36.905+03:00,2025-04-20T21:57:49.637+03:00,6771,0.9848602,0,0,5553.922,5,6,2025-04-21T16:23:41.500+03:00,766934822.7975621,0,-38.88,100.199,1,0.35,2025-04-21T16:27:02.480+03:00,97,1.616666666666667,2025-04-21T12:30:07.995+03:00,0.02023345852159405,0
2025-04-21T16:27:04.235+03:00,1745242023.231771,40.95225055938123,29.1403145136162,75.80261,-1,-1,-1,-1,30,32.72624310773018,-9999,20008.73315341667,-0.827789306640625,0.552215576171875,-0.041351318359375,20008.72811541667,1.511091871018519,-1.525934035583602,-0.5897382598655334,-0.004124316852539778,-0.01149398274719715,-0.02163024432957172,0.003635644912719727,0.001381993293762207,-0.001867055892944336,XArbitraryZVertical,0.3005079086455172,-0.6253471306998791,0.6204030617523625,0.3656992535513668,-0.8302500247955322,0.5561435222625732,-0.03727192431688309,0,0,0,-1,-1,19981.40744716667,unknown,2,2025-04-21T16:26:36.905+03:00,2025-04-20T21:57:49.637+03:00,6771,0.9848602,0,0,5553.922,5,6,2025-04-21T16:23:41.500+03:00,766934822.7975621,0,-38.88,100.199,1,0.35,2025-04-21T16:27:02.480+03:00,97,1.616666666666667,2025-04-21T12:30:07.995+03:00,0.02023345852159405,0
2025-04-21T16:27:04.245+03:00,1745242023.231771,40.95225055938123,29.1403145136162,75.80261,-1,-1,-1,-1,30,32.72624310773018,-9999,20008.74322941667,-0.8280487060546875,0.5522003173828125,-0.0417327880859375,20008.73819141667,1.511028535471625,-1.526044581671167,-0.5895860577810266,-0.007358992006629705,-0.01170703582465649,-0.01831034757196903,0.002854585647583008,-0.004396677017211914,-0.004167616367340088,XArbitraryZVertical,0.300571173334846,-0.6253519036937882,0.6203492012880963,0.365730505179868,-0.830338716506958,0.5560170412063599,-0.03718393296003342,0,0,0,-1,-1,19981.40744716667,unknown,2,2025-04-21T16:26:36.905+03:00,2025-04-20T21:57:49.637+03:00,6771,0.9848602,0,0,5553.922,5,6,2025-04-21T16:23:41.500+03:00,766934822.7975621,0,-38.88,100.199,1,0.35,2025-04-21T16:27:02.480+03:00,97,1.616666666666667,2025-04-21T12:30:07.995+03:00,0.02023345852159405,0
2025-04-21T16:27:04.255+03:00,1745242023.231771,40.95225055938123,29.1403145136162,75.80261,-1,-1,-1,-1,30,32.72624310773018,-9999,20008.75330541667,-0.8301239013671875,0.554595947265625,-0.040863037109375,20008.74826741667,1.510958350676999,-1.526148142631166,-0.5893948205162743,-0.001957036089152098,-0.01203593611717224,-0.01640738546848297,0.002506852149963379,-0.003734171390533447,-0.00467604398727417,XArbitraryZVertical,0.3006426740078231,-0.6253500147132234,0.6202885233123843,0.3657777830021398,-0.8304486870765686,0.5558580756187439,-0.03710268437862396,0,0,0,-1,-1,19981.40744716667,unknown,2,2025-04-21T16:26:36.905+03:00,2025-04-20T21:57:49.637+03:00,6771,0.9848602,0,0,5553.922,5,6,2025-04-21T16:23:41.500+03:00,766934822.7975621,0,-38.88,100.199,1,0.35,2025-04-21T16:27:02.480+03:00,97,1.616666666666667,2025-04-21T12:30:07.995+03:00,0.02023345852159405,0
2025-04-21T16:27:04.265+03:00,1745242023.231771,40.95225055938123,29.1403145136162,75.80261,-1,-1,-1,-1,30,32.72624310773018,-9999,20008.76338241667,-0.8291473388671875,0.5573883056640625,-0.0371551513671875,20008.75834441667,1.510959662699753,-1.52621335437949,-0.5892501220109321,0.002130383625626564,-0.008835615590214729,-0.01551868952810764,0.0006364583969116211,-0.0006537437438964844,-0.003307577222585678,XArbitraryZVertical,0.3007097036061847,-0.6253380037896136,0.6202545323215796,0.365800799090458,-0.8305314183235168,0.5557377338409424,-0.03705210983753204,0,0,0,-1,-1,19981.40744716667,unknown,2,2025-04-21T16:26:36.905+03:00,2025-04-20T21:57:49.637+03:00,6771,0.9848602,0,0,5553.922,5,6,2025-04-21T16:23:41.500+03:00,766934822.7975621,0,-38.88,100.199,1,0.35,2025-04-21T16:27:02.480+03:00,97,1.616666666666667,2025-04-21T12:30:07.995+03:00,0.02023345852159405,0
2025-04-21T16:27:04.275+03:00,1745242023.231771,40.95225055938123,29.1403145136162,75.80261,-1,-1,-1,-1,30,32.72624310773018,-9999,20008.77345841667,-0.8305511474609375,0.55401611328125,-0.03741455078125,20008.76842041667,1.510992448553244,-1.526257712330038,-0.5891444140288227,0.001811403315514326,-0.003446643706411123,-0.01031310763210058,0.001169919967651367,0.0009448528289794922,0.0001066923141479492,XArbitraryZVertical,0.3007675420851439,-0.6253238679625821,0.6202360361825641,0.3658089478165122,-0.8305918574333191,0.5556498765945435,-0.03701789304614067,0,0,0,-1,-1,19981.40744716667,unknown,2,2025-04-21T16:26:36.905+03:00,2025-04-20T21:57:49.637+03:00,6771,0.9848602,0,0,5553.922,5,6,2025-04-21T16:23:41.500+03:00,766934822.7975621,0,-38.88,100.199,1,0.35,2025-04-21T16:27:02.480+03:00,97,1.616666666666667,2025-04-21T12:30:07.995+03:00,0.02023345852159405,0
2025-04-21T16:27:04.285+03:00,1745242023.231771,40.95225055938123,29.1403145136162,75.80261,-1,-1,-1,-1,30,32.72624310773018,-9999,20008.78353441667,-0.831298828125,0.5513458251953125,-0.036651611328125,20008.77849641667,1.511045807615949,-1.526257379117395,-0.5890201363296829,0.007755578961223364,-0.0001480523496866226,-0.009441455826163292,-0.0001649856567382812,-0.002552926540374756,-0.0008207559585571289,XArbitraryZVertical,0.3008239603994448,-0.6252953894999452,0.620224863397104,0.3658301476541401,-0.8306608200073242,0.5555465221405029,-0.03702124208211899,0,0,0,-1,-1,19981.40744716667,unknown,2,2025-04-21T16:26:36.905+03:00,2025-04-20T21:57:49.637+03:00,6771,0.9848602,0,0,5553.922,5,6,2025-04-21T16:23:41.500+03:00,766934822.7975621,0,-38.88,100.199,1,0.35,2025-04-21T16:27:02.480+03:00,97,1.616666666666667,2025-04-21T12:30:07.995+03:00,0.02023345852159405,0
2025-04-21T16:27:04.296+03:00,1745242023.231771,40.95225055938123,29.1403145136162,75.80261,-1,-1,-1,-1,30,32.72624310773018,-9999,20008.79361141667,-0.8295135498046875,0.55596923828125,-0.0369415283203125,20008.78857341667,1.511116757348345,-1.526222116779596,-0.5889360906256567,0.004638814833015203,-0.0004698284901678562,-0.008994076400995255,-0.0002417564392089844,-0.003627479076385498,0.001072172075510025,XArbitraryZVertical,0.3008621926151048,-0.6252644544988964,0.6202289366329966,0.3658444933125476,-0.830706000328064,0.5554766654968262,-0.03705260530114174,0,0,0,-1,-1,19981.40744716667,unknown,2,2025-04-21T16:26:36.905+03:00,2025-04-20T21:57:49.637+03:00,6771,0.9848602,0,0,5553.922,5,6,2025-04-21T16:23:41.500+03:00,766934822.7975621,0,-38.88,100.199,1,0.35,2025-04-21T16:27:02.480+03:00,97,1.616666666666667,2025-04-21T12:30:07.995+03:00,0.02023345852159405,0
2025-04-21T16:27:04.306+03:00,1745242023.231771,40.95225055938123,29.1403145136162,75.80261,-1,-1,-1,-1,30,32.72624310773018,-9999,20008.80368741667,-0.828948974609375,0.5534515380859375,-0.0401153564453125,20008.79864941667,1.511169524016001,-1.5262013719997,-0.588907066674214,0.002775401109829545,-0.0004898020997643471,-0.006272060330957174,0.001421570777893066,0.0004402995109558105,-0.0007866621017456055,XArbitraryZVertical,0.300881511406809,-0.6252479782230452,0.6202368289849022,0.3658435468651266,-0.8307214379310608,0.5554525256156921,-0.03707056492567062,0,0,0,-1,-1,19981.40744716667,unknown,2,2025-04-21T16:26:36.905+03:00,2025-04-20T21:57:49.637+03:00,6771,0.9848602,0,0,5553.922,5,6,2025-04-21T16:23:41.500+03:00,766934822.7975621,0,-38.88,100.199,1,0.35,2025-04-21T16:27:02.480+03:00,97,1.616666666666667,2025-04-21T12:30:07.995+03:00,0.02023345852159405,0
2025-04-21T16:27:04.316+03:00,1745242023.231771,40.95225055938123,29.1403145136162,75.80261,-1,-1,-1,-1,30,32.72624310773018,-9999,20008.81376341667,-0.8278350830078125,0.5489044189453125,-0.040313720703125,20008.80872541667,1.511194367004682,-1.526186808137125,-0.5888679257290425,0.0004754285619128495,-0.001311453990638256,-0.005286457948386669,0.001885294914245605,-0.002182126045227051,-0.002665642648935318,XArbitraryZVertical,0.3008972556561973,-0.6252351736829524,0.6202369775708139,0.3658524041299795,-0.8307427763938904,0.5554199814796448,-0.03708363696932793,0,0,0,-1,-1,19981.40744716667,unknown,2,2025-04-21T16:26:36.905+03:00,2025-04-20T21:57:49.637+03:00,6771,0.9848602,0,0,5553.922,5,6,2025-04-21T16:23:41.500+03:00,766934822.7975621,0,-38.88,100.199,1,0.35,2025-04-21T16:27:02.480+03:00,97,1.616666666666667,2025-04-21T12:30:07.995+03:00,0.02023345852159405,0
2025-04-21T16:27:04.326+03:00,1745242023.231771,40.95225055938123,29.1403145136162,75.80261,-1,-1,-1,-1,30,32.72624310773018,-9999,20008.82384041667,-0.8290252685546875,0.5507354736328125,-0.0401611328125,20008.81880241667,1.511145949069719,-1.526217988845958,-0.5888132350999169,-0.00776332663372159,-0.004827359225600958,-0.00703828502446413,0.003198444843292236,-0.006378650665283203,-0.002736032009124756,XArbitraryZVertical,0.300909383966306,-0.6252391565777845,0.6202141682383379,0.3658740446570565,-0.8307740688323975,0.5553745031356812,-0.03705907985568047,0,0,0,-1,-1,19981.40744716667,unknown,2,2025-04-21T16:26:36.905+03:00,2025-04-20T21:57:49.637+03:00,6771,0.9848602,0,0,5553.922,5,6,2025-04-21T16:23:41.500+03:00,766934822.7975621,0,-38.88,100.199,1,0.35,2025-04-21T16:27:02.480+03:00,97,1.616666666666667,2025-04-21T12:30:07.995+03:00,0.02023345852159405,0
2025-04-21T16:27:04.336+03:00,1745242023.231771,40.95225055938123,29.1403145136162,75.80261,-1,-1,-1,-1,30,32.72624310773018,-9999,20008.83391641667,-0.8301544189453125,0.553863525390625,-0.0384521484375,20008.82887841667,1.51103828695747,-1.52631364734197,-0.5887466043967359,-0.007701341528445482,-0.003393047023564577,-0.005470116157084703,0.001819908618927002,-0.004965245723724365,-0.002600252628326416,XArbitraryZVertical,0.3009267327441362,-0.6252619241935616,0.620168833013005,0.3658977468219234,-0.8308145999908447,0.55531907081604,-0.0369812548160553,0,0,0,-1,-1,19981.40744716667,unknown,2,2025-04-21T16:26:36.905+03:00,2025-04-20T21:57:49.637+03:00,6771,0.9848602,0,0,5553.922,5,6,2025-04-21T16:23:41.500+03:00,766934822.7975621,0,-38.88,100.199,1,0.35,2025-04-21T16:27:02.480+03:00,97,1.616666666666667,2025-04-21T12:30:07.995+03:00,0.02023345852159405,0
2025-04-21T16:27:04.346+03:00,1745242023.231771,40.95225055938123,29.1403145136162,75.80261,-1,-1,-1,-1,30,32.72624310773018,-9999,20008.84399341667,-0.8332977294921875,0.555419921875,-0.040985107421875,20008.83895441667,1.510993416921707,-1.526349215107057,-0.5887051235182701,-0.002451185835525393,0.001426741946488619,-0.00293132453225553,0.0005319714546203613,-0.0008872151374816895,-0.001575883477926254,XArbitraryZVertical,0.3009370441132065,-0.6252683682792151,0.6201482598119389,0.3659130606749067,-0.8308389186859131,0.5552846193313599,-0.03695272654294968,0,0,0,-1,-1,19981.40744716667,unknown,2,2025-04-21T16:26:36.905+03:00,2025-04-20T21:57:49.637+03:00,6771,0.9848602,0,0,5553.922,5,6,2025-04-21T16:23:41.500+03:00,766934822.7975621,0,-38.88,100.199,1,0.35,2025-04-21T16:27:02.480+03:00,97,1.616666666666667,2025-04-21T12:30:07.995+03:00,0.02023345852159405,0
2025-04-21T16:27:04.356+03:00,1745242023.231771,40.95225055938123,29.1403145136162,75.80261,-1,-1,-1,-1,30,32.72624310773018,-9999,20008.85406941667,-0.8353118896484375,0.5568695068359375,-0.04132080078125,20008.84903141667,1.510999716756666,-1.526295186261488,-0.588683853009803,0.003859707154333591,0.005801516585052013,-0.001748881069943309,-0.002998232841491699,-0.0003354549407958984,-0.004841621965169907,XArbitraryZVertical,0.3009290650435183,-0.6252540496362295,0.6201539546646266,0.3659344799306142,-0.830848753452301,0.5552669167518616,-0.03699814155697823,0,0,0,-1,-1,19981.40744716667,unknown,2,2025-04-21T16:26:36.905+03:00,2025-04-20T21:57:49.637+03:00,6771,0.9848602,0,0,5553.922,5,6,2025-04-21T16:23:41.500+03:00,766934822.7975621,0,-38.88,100.199,1,0.35,2025-04-21T16:27:02.480+03:00,97,1.616666666666667,2025-04-21T12:30:07.995+03:00,0.02023345852159405,0
2025-04-21T16:27:04.366+03:00,1745242023.231771,40.95225055938123,29.1403145136162,75.80261,-1,-1,-1,-1,30,32.72624310773018,-9999,20008.86414541667,-0.8316650390625,0.5554962158203125,-0.0375518798828125,20008.85910741667,1.511058120512266,-1.526197902963311,-0.5886708347695905,0.003459966508671641,0.004185243975371122,-0.0009376821690239012,-0.004367947578430176,0.001140236854553223,-0.0041654072701931,XArbitraryZVertical,0.3009213668833295,-0.6252253092819284,0.6201770644157243,0.3659506165613819,-0.830852210521698,0.5552560687065125,-0.03707928583025932,0,0,0,-1,-1,19981.40744716667,unknown,2,2025-04-21T16:26:36.905+03:00,2025-04-20T21:57:49.637+03:00,6771,0.9848602,0,0,5553.922,5,6,2025-04-21T16:23:41.500+03:00,766934822.7975621,0,-38.88,100.199,1,0.35,2025-04-21T16:27:02.480+03:00,97,1.616666666666667,2025-04-21T12:30:07.995+03:00,0.02023345852159405,0
2025-04-21T16:27:04.376+03:00,1745242023.231771,40.95225055938123,29.1403145136162,75.80261,-1,-1,-1,-1,30,32.72624310773018,-9999,20008.87422241667,-0.829833984375,0.55072021484375,-0.0391693115234375,20008.86918341667,1.511090304845445,-1.526146383188163,-0.5886482667108465,0.00385910808108747,0.003723917528986931,-0.002489805687218904,-0.0008172988891601562,-0.0001685023307800293,-0.0003378354012966156,XArbitraryZVertical,0.300922685620886,-0.6252073348001514,0.6201868939839044,0.3659635777972117,-0.830862820148468,0.5552372932434082,-0.03712265193462372,0,0,0,-1,-1,19981.40744716667,unknown,2,2025-04-21T16:26:36.905+03:00,2025-04-20T21:57:49.637+03:00,6771,0.9848602,0,0,5553.922,5,6,2025-04-21T16:23:41.500+03:00,766934822.7975621,0,-38.88,100.199,1,0.35,2025-04-21T16:27:02.480+03:00,97,1.616666666666667,2025-04-21T12:30:07.995+03:00,0.02023345852159405,0
2025-04-21T16:27:04.386+03:00,1745242023.231771,40.95225055938123,29.1403145136162,75.80261,-1,-1,-1,-1,30,32.72624310773018,-9999,20008.88429841667,-0.8313751220703125,0.552215576171875,-0.040863037109375,20008.87926041667,1.51112758427134,-1.526071879412304,-0.5886442847742331,0.001265188911929727,0.002871173433959484,-0.0001265165628865361,0.001196324825286865,-0.003827214241027832,-0.002320531755685806,XArbitraryZVertical,0.3009124226817073,-0.6251874770742311,0.6202042898257613,0.3659767773108245,-0.8308625221252441,0.5552340149879456,-0.03718466311693192,0,0,0,-1,-1,19981.40744716667,unknown,2,2025-04-21T16:26:36.905+03:00,2025-04-20T21:57:49.637+03:00,6771,0.9848602,0,0,5553.922,5,6,2025-04-21T16:23:41.500+03:00,766934822.7975621,0,-38.88,100.199,1,0.35,2025-04-21T16:27:02.480+03:00,97,1.616666666666667,2025-04-21T12:30:07.995+03:00,0.02023345852159405,0
2025-04-21T16:27:04.396+03:00,1745242023.231771,40.95225055938123,29.1403145136162,75.80261,-1,-1,-1,-1,30,32.72624310773018,-9999,20008.89437441667,-0.8285675048828125,0.551910400390625,-0.04193115234375,20008.88933641667,1.511117225665668,-1.526034492955697,-0.5886393916952114,-0.004868736490607262,0.004122992511838675,-0.002501323819160461,-0.0004044771194458008,-0.003045022487640381,-0.003967761993408203,XArbitraryZVertical,0.3008991816478703,-0.6251813811603432,0.6202071837577728,0.3659930924344976,-0.8308637738227844,0.5552299022674561,-0.03721584752202034,0,0,0,-1,-1,19981.40744716667,unknown,2,2025-04-21T16:26:36.905+03:00,2025-04-20T21:57:49.637+03:00,6771,0.9848602,0,0,5553.922,5,6,2025-04-21T16:23:41.500+03:00,766934822.7975621,0,-38.88,100.199,1,0.35,2025-04-21T16:27:02.480+03:00,97,1.616666666666667,2025-04-21T12:30:07.995+03:00,0.02023345852159405,0
2025-04-21T16:27:04.406+03:00,1745242023.231771,40.95225055938123,29.1403145136162,75.80261,-1,-1,-1,-1,30,32.72624310773018,-9999,20008.90445141667,-0.8272705078125,0.550537109375,-0.0387115478515625,20008.89941241667,1.511019035276204,-1.526050945174964,-0.5886257745011817,-0.01325769443064928,0.001936004729941487,0.0007309547509066761,0.003158926963806152,-0.003766119480133057,-0.004881381988525391,XArbitraryZVertical,0.300877977142443,-0.6251969185904708,0.620184430571772,0.3660224552392091,-0.8308718800544739,0.5552185773849487,-0.03720251098275185,0,0,0,-1,-1,19981.40744716667,unknown,2,2025-04-21T16:26:36.905+03:00,2025-04-20T21:57:49.637+03:00,6771,0.9848602,0,0,5553.922,5,6,2025-04-21T16:23:41.500+03:00,766934822.7975621,0,-38.88,100.199,1,0.35,2025-04-21T16:27:02.480+03:00,97,1.616666666666667,2025-04-21T12:30:07.995+03:00,0.02023345852159405,0
2025-04-21T16:27:04.417+03:00,1745242023.231771,40.95225055938123,29.1403145136162,75.80261,-1,-1,-1,-1,30,32.72624310773018,-9999,20008.91452741667,-0.827484130859375,0.5500946044921875,-0.0387115478515625,20008.90948941667,1.510887113375358,-1.526096030750488,-0.588636862182208,-0.01045478414744139,0.0003782552666962147,0.0009230684372596443,0.003963172435760498,-0.004797637462615967,-0.001333355903625488,XArbitraryZVertical,0.3008471619803491,-0.6252268362990974,0.6201553776557368,0.3660459158420537,-0.8308674097061157,0.5552278161048889,-0.03716477751731873,0,0,0,-1,-1,19981.40744716667,unknown,2,2025-04-21T16:26:36.905+03:00,2025-04-20T21:57:49.637+03:00,6771,0.9848602,0,0,5553.922,5,6,2025-04-21T16:23:41.500+03:00,766934822.7975621,0,-38.88,100.199,1,0.35,2025-04-21T16:27:02.480+03:00,97,1.616666666666667,2025-04-21T12:30:07.995+03:00,0.02023345852159405,0
2025-04-21T16:27:04.427+03:00,1745242023.231771,40.95225055938123,29.1403145136162,75.80261,-1,-1,-1,-1,30,32.72624310773018,-9999,20008.92460341667,-0.8271331787109375,0.556488037109375,-0.039276123046875,20008.91956541667,1.510763722309192,-1.526173707586642,-0.588632514756296,-0.01038394402712584,-0.0004300139844417572,-0.001329433172941208,0.003571748733520508,-0.004229485988616943,-0.00126039981842041,XArbitraryZVertical,0.3008340632487235,-0.6252589013503183,0.6201203764143495,0.3660612169332261,-0.8308727145195007,0.5552241802215576,-0.03710034489631653,0,0,0,-1,-1,19981.40744716667,unknown,2,2025-04-21T16:26:36.905+03:00,2025-04-20T21:57:49.637+03:00,6771,0.9848602,0,0,5553.922,5,6,2025-04-21T16:23:41.500+03:00,766934822.7975621,0,-38.88,100.199,1,0.35,2025-04-21T16:27:02.480+03:00,97,1.616666666666667,2025-04-21T12:30:07.995+03:00,0.02023345852159405,0
2025-04-21T16:27:04.437+03:00,1745242023.231771,40.95225055938123,29.1403145136162,75.80261,-1,-1,-1,-1,30,32.72624310773018,-9999,20008.93468041667,-0.828033447265625,0.5577239990234375,-0.04071044921875,20008.92964241667,1.510703093241545,-1.526167923024235,-0.5886157110490804,-0.004339366685599089,0.005106165073812008,0.001269146334379911,0.004420101642608643,0.001964271068572998,-0.002323325723409653,XArbitraryZVertical,0.3008187048387647,-0.6252642027215207,0.6201073090600997,0.3660869032501043,-0.8308818340301514,0.5552102327346802,-0.03710556775331497,0,0,0,-1,-1,19981.40744716667,unknown,2,2025-04-21T16:26:36.905+03:00,2025-04-20T21:57:49.637+03:00,6771,0.9848602,0,0,5553.922,5,6,2025-04-21T16:23:41.500+03:00,766934822.7975621,0,-38.88,100.199,1,0.35,2025-04-21T16:27:02.480+03:00,97,1.616666666666667,2025-04-21T12:30:07.995+03:00,0.02023345852159405,0
2025-04-21T16:27:04.447+03:00,1745242023.231771,40.95225055938123,29.1403145136162,75.80261,-1,-1,-1,-1,30,32.72624310773018,-9999,20008.94475641667,-0.8317413330078125,0.555572509765625,-0.0407562255859375,20008.93971841667,1.510688306448368,-1.526090575406454,-0.5886094226890374,-0.0002125324972439557,0.01188630610704422,-0.001401471672579646,0.001689374446868896,0.002671420574188232,-0.004440899938344955,XArbitraryZVertical,0.3007921218863366,-0.6252512334353235,0.6201151707555554,0.3661175553426353,-0.8308824300765991,0.5552049875259399,-0.03716998919844627,0,0,0,-1,-1,19981.40744716667,unknown,2,2025-04-21T16:26:36.905+03:00,2025-04-20T21:57:49.637+03:00,6771,0.9848602,0,0,5553.922,5,6,2025-04-21T16:23:41.500+03:00,766934822.7975621,0,-38.88,100.199,1,0.35,2025-04-21T16:27:02.480+03:00,97,1.616666666666667,2025-04-21T12:30:07.995+03:00,0.02023345852159405,0
2025-04-21T16:27:04.457+03:00,1745242023.231771,40.95225055938123,29.1403145136162,75.80261,-1,-1,-1,-1,30,32.72624310773018,-9999,20008.95483241667,-0.828643798828125,0.5572052001953125,-0.040313720703125,20008.94979441667,1.510680997572649,-1.526004366502529,-0.5885815795846758,0.0003641750081442297,0.006165703292936087,-0.002658816520124674,-0.0009534955024719238,0.0003752708435058594,-0.003865063190460205,XArbitraryZVertical,0.3007720370161765,-0.6252319784878363,0.6201220924823324,0.3661551907378032,-0.8308946490287781,0.5551818609237671,-0.03724230825901031,0,0,0,-1,-1,19981.40744716667,unknown,2,2025-04-21T16:26:36.905+03:00,2025-04-20T21:57:49.637+03:00,6771,0.9848602,0,0,5553.922,5,6,2025-04-21T16:23:41.500+03:00,766934822.7975621,0,-38.88,100.199,1,0.35,2025-04-21T16:27:02.480+03:00,97,1.616666666666667,2025-04-21T12:30:07.995+03:00,0.02023345852159405,0
2025-04-21T16:27:04.467+03:00,1745242023.231771,40.95225055938123,29.1403145136162,75.80261,-1,-1,-1,-1,30,32.72624310773018,-9999,20008.96490941667,-0.8261566162109375,0.55865478515625,-0.0416107177734375,20008.95987141667,1.510703609925778,-1.525921239060029,-0.588536791252919,0.00194529362488538,0.009128203615546227,-0.002217797096818686,0.003356039524078369,0.002197742462158203,-0.003565963357686996,XArbitraryZVertical,0.3007677018510843,-0.6252060004977693,0.6201311626110372,0.3661876898127047,-0.8309163451194763,0.5551446080207825,-0.03731249272823334,0,0,0,-1,-1,19981.40744716667,unknown,2,2025-04-21T16:26:36.905+03:00,2025-04-20T21:57:49.637+03:00,6771,0.9848602,0,0,5553.922,5,6,2025-04-21T16:23:41.500+03:00,766934822.7975621,0,-38.88,100.199,1,0.35,2025-04-21T16:27:02.480+03:00,97,1.616666666666667,2025-04-21T12:30:07.995+03:00,0.02023345852159405,0
2025-04-21T16:27:04.477+03:00,1745242023.231771,40.95225055938123,29.1403145136162,75.80261,-1,-1,-1,-1,30,32.72624310773018,-9999,20008.97498541667,-0.82720947265625,0.556396484375,-0.041412353515625,20008.96994741667,1.510752325659399,-1.525799508459597,-0.5884925046217663,0.006007746327668428,0.007306402083486319,-0.003355199936777353,0.005222320556640625,0.004096269607543945,-0.004623416811227798,XArbitraryZVertical,0.3007593310168582,-0.6251691357684419,0.6201509295318387,0.3662241976017818,-0.8309364914894104,0.5551077723503113,-0.03741475194692612,0,0,0,-1,-1,19981.40744716667,unknown,2,2025-04-21T16:26:36.905+03:00,2025-04-20T21:57:49.637+03:00,6771,0.9848602,0,0,5553.922,5,6,2025-04-21T16:23:41.500+03:00,766934822.7975621,0,-38.88,100.199,1,0.35,2025-04-21T16:27:02.480+03:00,97,1.616666666666667,2025-04-21T12:30:07.995+03:00,0.02023345852159405,0
2025-04-21T16:27:04.487+03:00,1745242023.231771,40.95225055938123,29.1403145136162,75.80261,-1,-1,-1,-1,30,32.72624310773018,-9999,20008.98506141667,-0.82611083984375,0.55224609375,-0.040802001953125,20008.98002341667,1.510785295036934,-1.525715225038063,-0.588462634064321,0.000229751953156665,0.0044443029910326,-0.0005682018818333745,0.003465712070465088,0.001008272171020508,-0.003347158432006836,XArbitraryZVertical,0.3007531019451257,-0.6251438285141612,0.6201645864583597,0.3662492927032648,-0.8309498429298401,0.5550829172134399,-0.03748553246259689,0,0,0,-1,-1,19981.40744716667,unknown,2,2025-04-21T16:26:36.905+03:00,2025-04-20T21:57:49.637+03:00,6771,0.9848602,0,0,5553.922,5,6,2025-04-21T16:23:41.500+03:00,766934822.7975621,0,-38.88,100.199,1,0.35,2025-04-21T16:27:02.480+03:00,97,1.616666666666667,2025-04-21T12:30:07.995+03:00,0.02023345852159405,0
2025-04-21T16:27:04.497+03:00,1745242023.231771,40.95225055938123,29.1403145136162,75.80261,-1,-1,-1,-1,30,32.72624310773018,-9999,20008.99513841667,-0.8269195556640625,0.5494537353515625,-0.0410919189453125,20008.99010041667,1.510767996280889,-1.525683775469164,-0.5884459224090262,-0.005282259080559015,0.002348594833165407,-0.001029760926030576,0.004786133766174316,-0.003967463970184326,-0.003168046474456787,XArbitraryZVertical,0.3007432844087897,-0.6251379326793673,0.6201633320237846,0.366269593930635,-0.8309579491615295,0.5550690293312073,-0.03751208260655403,0,0,0,-1,-1,19981.40744716667,unknown,2,2025-04-21T16:26:36.905+03:00,2025-04-20T21:57:49.637+03:00,6771,0.9848602,0,0,5553.922,5,6,2025-04-21T16:23:41.500+03:00,766934822.7975621,0,-38.88,100.199,1,0.35,2025-04-21T16:27:02.480+03:00,97,1.616666666666667,2025-04-21T12:30:07.995+03:00,0.02023345852159405,0
2025-04-21T16:27:04.509+03:00,1745242023.231771,40.95225055938123,29.1403145136162,75.80261,-1,-1,-1,-1,30,32.72624310773018,-9999,20009.00521441667,-0.8271636962890625,0.5509490966796875,-0.0401458740234375,20009.00017641667,1.510693962415772,-1.525717170646909,-0.5884457536215162,-0.007584827952086926,-0.002565470524132252,0.0005494935903698206,0.00382620096206665,-0.005096495151519775,-0.003027975559234619,XArbitraryZVertical,0.3007305360236175,-0.6251551603099574,0.6201447303638208,0.366282211758129,-0.8309593200683594,0.5550688505172729,-0.03748434036970139,0,0,0,-1,-1,19981.40744716667,unknown,2,2025-04-21T16:26:36.905+03:00,2025-04-20T21:57:49.637+03:00,6771,0.9848602,0,0,5553.922,5,6,2025-04-21T16:23:41.500+03:00,766934822.7975621,0,-38.88,100.199,1,0.35,2025-04-21T16:27:02.480+03:00,97,1.616666666666667,2025-04-21T12:30:07.995+03:00,0.02023345852159405,0
2025-04-21T16:27:04.517+03:00,1745242023.231771,40.95225055938123,29.1403145136162,75.80261,-1,-1,-1,-1,30,32.72624310773018,-9999,20009.01529141667,-0.8262939453125,0.5516357421875,-0.040985107421875,20009.01025241667,1.510571956416967,-1.525808114510054,-0.58847321583334,-0.01408627070486546,-0.003364818170666695,0.0008028267184272408,0.004088997840881348,-0.00440216064453125,-0.003043174743652344,XArbitraryZVertical,0.3007118062974331,-0.6251946643005167,0.6201133448507256,0.3662832593131498,-0.8309474587440491,0.5550916790962219,-0.03740808367729187,0,0,0,-1,-1,19981.40744716667,unknown,2,2025-04-21T16:26:36.905+03:00,2025-04-20T21:57:49.637+03:00,6771,0.9848602,0,0,5553.922,5,6,2025-04-21T16:23:41.500+03:00,766934822.7975621,0,-38.88,100.199,1,0.35,2025-04-21T16:27:02.480+03:00,97,1.616666666666667,2025-04-21T12:30:07.995+03:00,0.02023345852159405,0
2025-04-21T16:27:04.528+03:00,1745242023.231771,40.95225055938123,29.1403145136162,75.80261,-1,-1,-1,-1,30,32.72624310773018,-9999,20009.02536741667,-0.8275146484375,0.5521697998046875,-0.039886474609375,20009.02032941667,1.510411148648221,-1.525909676012399,-0.588498225510932,-0.01392115466296673,-0.0004601082764565945,0.0002001534448936582,0.004689276218414307,-0.004056751728057861,-0.003143429756164551,XArbitraryZVertical,0.3006850024658048,-0.6252415495422519,0.6200728513787986,0.3662938100730888,-0.8309374451637268,0.5551124811172485,-0.03732306882739067,0,0,0,-1,-1,19981.40744716667,unknown,2,2025-04-21T16:26:36.905+03:00,2025-04-20T21:57:49.637+03:00,6771,0.9848602,0,0,5553.922,5,6,2025-04-21T16:23:41.500+03:00,766934822.7975621,0,-38.88,100.199,1,0.35,2025-04-21T16:27:02.480+03:00,97,1.616666666666667,2025-04-21T12:30:07.995+03:00,0.02023345852159405,0
2025-04-21T16:27:04.545+03:00,1745242023.231771,40.95225055938123,29.1403145136162,75.80261,-1,-1,-1,-1,30,32.72624310773018,-9999,20009.03544341667,-0.827117919921875,0.5567169189453125,-0.039215087890625,20009.03040541667,1.510307588729749,-1.525986682968039,-0.5885031258814072,-0.008859682828187943,-0.0039077028632164,0.0001320430892519653,0.003132998943328857,-0.003175795078277588,-0.002749800682067871,XArbitraryZVertical,0.3006749523267164,-0.6252720171828218,0.6200431261714903,0.3663002925552348,-0.8309375047683716,0.555116593837738,-0.03725895658135414,0,0,0,-1,-1,19981.40744716667,unknown,2,2025-04-21T16:26:36.905+03:00,2025-04-20T21:57:49.637+03:00,6771,0.9848602,0,0,5553.922,5,6,2025-04-21T16:23:41.500+03:00,766934822.7975621,0,-38.88,100.199,1,0.35,2025-04-21T16:27:02.480+03:00,97,1.616666666666667,2025-04-21T12:30:07.995+03:00,0.02023345852159405,0
2025-04-21T16:27:04.548+03:00,1745242023.231771,40.95225055938123,29.1403145136162,75.80261,-1,-1,-1,-1,30,32.72624310773018,-9999,20009.04552041667,-0.8295135498046875,0.5587310791015625,-0.0408782958984375,20009.04048141667,1.510227861600695,-1.526052313372608,-0.5885142806231421,-0.005746980663388968,-0.0005707624368369579,0.0005493604694493115,0.003892242908477783,0.002369165420532227,-0.001980606466531754,XArbitraryZVertical,0.3006667399879381,-0.6252978777601442,0.620020566017738,0.3663012802012885,-0.8309339284896851,0.555125892162323,-0.03720415011048317,0,0,0,-1,-1,19981.40744716667,unknown,2,2025-04-21T16:26:36.905+03:00,2025-04-20T21:57:49.637+03:00,6771,0.9848602,0,0,5553.922,5,6,2025-04-21T16:23:41.500+03:00,766934822.7975621,0,-38.88,100.199,1,0.35,2025-04-21T16:27:02.480+03:00,97,1.616666666666667,2025-04-21T12:30:07.995+03:00,0.02023345852159405,0
2025-04-21T16:27:04.558+03:00,1745242023.231771,40.95225055938123,29.1403145136162,75.80261,-1,-1,-1,-1,30,32.72624310773018,-9999,20009.05559641667,-0.830657958984375,0.5596466064453125,-0.039642333984375,20009.05055841667,1.510224823963939,-1.526034747247431,-0.5885341088567161,0.001861271099187434,0.0003249919973313808,0.001655704108998179,0.0005846023559570312,0.003313958644866943,-0.003568653017282486,XArbitraryZVertical,0.300654029446097,-0.6252983527112066,0.6200259843083615,0.3663015870028538,-0.8309221863746643,0.555142343044281,-0.03721825033426285,0,0,0,-1,-1,19981.40744716667,unknown,2,2025-04-21T16:26:36.905+03:00,2025-04-20T21:57:49.637+03:00,6771,0.9848602,0,0,5553.922,5,6,2025-04-21T16:23:41.500+03:00,766934822.7975621,0,-38.88,100.199,1,0.35,2025-04-21T16:27:02.480+03:00,97,1.616666666666667,2025-04-21T12:30:07.995+03:00,0.02023345852159405,0
2025-04-21T16:27:04.568+03:00,1745242023.231771,40.95225055938123,29.1403145136162,75.80261,-1,-1,-1,-1,30,32.72624310773018,-9999,20009.06567241667,-0.8287811279296875,0.558868408203125,-0.03948974609375,20009.06063441667,1.51028524859461,-1.52594963378595,-0.5885108768149325,0.007772956509143114,0.004284313414245844,-0.004042129032313824,0.0008690357208251953,0.004080891609191895,-0.002917524427175522,XArbitraryZVertical,0.3006540167350094,-0.6252698534494251,0.6200459058525147,0.3663163963066887,-0.8309317827224731,0.5551230311393738,-0.03728954493999481,0,0,0,-1,-1,19981.40744716667,unknown,2,2025-04-21T16:26:36.905+03:00,2025-04-20T21:57:49.637+03:00,6771,0.9848602,0,0,5553.922,5,6,2025-04-21T16:23:41.500+03:00,766934822.7975621,0,-38.88,100.199,1,0.35,2025-04-21T16:27:02.480+03:00,97,1.616666666666667,2025-04-21T12:30:07.995+03:00,0.02023345852159405,0
2025-04-21T16:27:04.578+03:00,1745242023.231771,40.95225055938123,29.1403145136162,75.80261,-1,-1,-1,-1,30,32.72624310773018,-9999,20009.07574941667,-0.82733154296875,0.556793212890625,-0.0388336181640625,20009.07071041667,1.510369373720597,-1.525871282100863,-0.5884443790926728,0.002678728196769953,0.003068979829549789,-0.006253684870898724,0.002138912677764893,0.003480136394500732,-0.001797914505004883,XArbitraryZVertical,0.3006773293569532,-0.6252319482025293,0.620061862717331,0.3663349873773837,-0.8309657573699951,0.5550677180290222,-0.03735630959272385,0,0,0,-1,-1,19981.40744716667,unknown,2,2025-04-21T16:26:36.905+03:00,2025-04-20T21:57:49.637+03:00,6771,0.9848602,0,0,5553.922,5,6,2025-04-21T16:23:41.500+03:00,766934822.7975621,0,-38.88,100.199,1,0.35,2025-04-21T16:27:02.480+03:00,97,1.616666666666667,2025-04-21T12:30:07.995+03:00,0.02023345852159405,0
2025-04-21T16:27:04.588+03:00,1745242023.231771,40.95225055938123,29.1403145136162,75.80261,-1,-1,-1,-1,30,32.72624310773018,-9999,20009.08582541667,-0.824859619140625,0.5560760498046875,-0.040557861328125,20009.08078741667,1.510421686028014,-1.525798991468293,-0.5883791999132092,0.00335996481589973,0.0009134169667959213,-0.005963932722806931,0.004079699516296387,0.002084791660308838,-0.001736227422952652,XArbitraryZVertical,0.3006921207166059,-0.6252001616020386,0.6200713189330223,0.3663612353372999,-0.8309993147850037,0.5550134778022766,-0.03741801157593727,0,0,0,-1,-1,19981.40744716667,unknown,2,2025-04-21T16:26:36.905+03:00,2025-04-20T21:57:49.637+03:00,6771,0.9848602,0,0,5553.922,5,6,2025-04-21T16:23:41.500+03:00,766934822.7975621,0,-38.88,100.199,1,0.35,2025-04-21T16:27:02.480+03:00,97,1.616666666666667,2025-04-21T12:30:07.995+03:00,0.02023345852159405,0
2025-04-21T16:27:04.598+03:00,1745242023.231771,40.95225055938123,29.1403145136162,75.80261,-1,-1,-1,-1,30,32.72624310773018,-9999,20009.09590141667,-0.8280792236328125,0.553466796875,-0.0408477783203125,20009.09086341667,1.510435357235855,-1.52577589074974,-0.5883237163056162,-0.003216444980353117,-0.0003020493313670158,-0.003395713400095701,0.005971193313598633,0.0003762245178222656,-0.003790799528360367,XArbitraryZVertical,0.3007070018523278,-0.6251847729674473,0.6200679291767116,0.3663810687965104,-0.8310292959213257,0.5549673438072205,-0.03743859753012657,0,0,0,-1,-1,19981.40744716667,unknown,2,2025-04-21T16:26:36.905+03:00,2025-04-20T21:57:49.637+03:00,6771,0.9848602,0,0,5553.922,5,6,2025-04-21T16:23:41.500+03:00,766934822.7975621,0,-38.88,100.199,1,0.35,2025-04-21T16:27:02.480+03:00,97,1.616666666666667,2025-04-21T12:30:07.995+03:00,0.02023345852159405,0
2025-04-21T16:27:04.608+03:00,1745242023.231771,40.95225055938123,29.1403145136162,75.80261,-1,-1,-1,-1,30,32.72624310773018,-9999,20009.10597841667,-0.8288726806640625,0.553070068359375,-0.039764404296875,20009.10094041667,1.510377500972953,-1.525799968936516,-0.5882907921264812,-0.007231693249195814,0.0002074134536087513,-0.002801295835524797,0.002572417259216309,-0.002526164054870605,-0.00382530689239502,XArbitraryZVertical,0.3007069693163336,-0.6251924633408921,0.6200481330148804,0.3664013495610421,-0.831048309803009,0.5549399852752686,-0.0374194048345089,0,0,0,-1,-1,19981.40744716667,unknown,2,2025-04-21T16:26:36.905+03:00,2025-04-20T21:57:49.637+03:00,6771,0.9848602,0,0,5553.922,5,6,2025-04-21T16:23:41.500+03:00,766934822.7975621,0,-38.88,100.199,1,0.35,2025-04-21T16:27:02.480+03:00,97,1.616666666666667,2025-04-21T12:30:07.995+03:00,0.02023345852159405,0
2025-04-21T16:27:04.618+03:00,1745242023.231771,40.95225055938123,29.1403145136162,75.80261,-1,-1,-1,-1,30,32.72624310773018,-9999,20009.11605441667,-0.8291473388671875,0.5541839599609375,-0.0396575927734375,20009.11101641667,1.510302568610671,-1.525841629061534,-0.5882762208294072,-0.003766987007111311,-0.002127979416400194,-0.003373642219230533,0.002200543880462646,-0.002041041851043701,-0.002471026033163071,XArbitraryZVertical,0.3007011542478414,-0.6252089603642036,0.6200256698820928,0.3664159033332262,-0.8310579061508179,0.5549278259277344,-0.03738514333963394,0,0,0,-1,-1,19981.40744716667,unknown,2,2025-04-21T16:26:36.905+03:00,2025-04-20T21:57:49.637+03:00,6771,0.9848602,0,0,5553.922,5,6,2025-04-21T16:23:41.500+03:00,766934822.7975621,0,-38.88,100.199,1,0.35,2025-04-21T16:27:02.480+03:00,97,1.616666666666667,2025-04-21T12:30:07.995+03:00,0.02023345852159405,0
2025-04-21T16:27:04.628+03:00,1745242023.231771,40.95225055938123,29.1403145136162,75.80261,-1,-1,-1,-1,30,32.72624310773018,-9999,20009.12613041667,-0.8286285400390625,0.554595947265625,-0.0358123779296875,20009.12109241667,1.510266260106077,-1.525869788521942,-0.5882718895673099,-0.002357109449803829,0.0007993672043085098,-0.001369080971926451,0.001715779304504395,-0.001030325889587402,-0.001746594905853271,XArbitraryZVertical,0.3006998764858427,-0.62521888694323,0.6200140709015012,0.3664198029430391,-0.8310614824295044,0.5549242496490479,-0.03736185654997826,0,0,0,-1,-1,19981.40744716667,unknown,2,2025-04-21T16:26:36.905+03:00,2025-04-20T21:57:49.637+03:00,6771,0.9848602,0,0,5553.922,5,6,2025-04-21T16:23:41.500+03:00,766934822.7975621,0,-38.88,100.199,1,0.35,2025-04-21T16:27:02.480+03:00,97,1.616666666666667,2025-04-21T12:30:07.995+03:00,0.02023345852159405,0
2025-04-21T16:27:04.638+03:00,1745242023.231771,40.95225055938123,29.1403145136162,75.80261,-1,-1,-1,-1,30,32.72624310773018,-9999,20009.13620741667,-0.8289031982421875,0.5558013916015625,-0.0362548828125,20009.13116941667,1.510249799169892,-1.525855926164932,-0.5882564449708517,6.377045065164566e-05,0.0009347223676741123,-0.002944174222648144,0.002212047576904297,0.0002337098121643066,0.001683235168457031,XArbitraryZVertical,0.300695406889069,-0.6252162773124973,0.6200105196864776,0.366433849327958,-0.8310694694519043,0.5549113750457764,-0.03737375885248184,0,0,0,-1,-1,19981.40744716667,unknown,2,2025-04-21T16:26:36.905+03:00,2025-04-20T21:57:49.637+03:00,6771,0.9848602,0,0,5553.922,5,6,2025-04-21T16:23:41.500+03:00,766934822.7975621,0,-38.88,100.199,1,0.35,2025-04-21T16:27:02.480+03:00,97,1.616666666666667,2025-04-21T12:30:07.995+03:00,0.02023345852159405,0
2025-04-21T16:27:04.669+03:00,1745242023.231771,40.95225055938123,29.1403145136162,75.80261,-1,-1,-1,-1,30,32.72624310773018,-9999,20009.14628341667,-0.82830810546875,0.5561981201171875,-0.0370635986328125,20009.14124541667,1.510276467046081,-1.525815739729689,-0.588245003857729,0.001915466273203492,0.002312109572812915,-0.001279165968298912,0.002735733985900879,0.0009604096412658691,0.001778006553649902,XArbitraryZVertical,0.3006949446010527,-0.6252030304773568,0.620019517552773,0.3664416336869701,-0.8310742974281311,0.5549018979072571,-0.03740744292736053,0,0,0,-1,-1,19981.40744716667,unknown,2,2025-04-21T16:26:36.905+03:00,2025-04-20T21:57:49.637+03:00,6771,0.9848602,0,0,5553.922,5,6,2025-04-21T16:23:41.500+03:00,766934822.7975621,0,-38.88,100.199,1,0.35,2025-04-21T16:27:02.480+03:00,97,1.616666666666667,2025-04-21T12:30:07.995+03:00,0.02023345852159405,0
2025-04-21T16:27:04.671+03:00,1745242023.231771,40.95225055938123,29.1403145136162,75.80261,-1,-1,-1,-1,30,32.72624310773018,-9999,20009.15636041667,-0.831451416015625,0.5568389892578125,-0.03924560546875,20009.15132141667,1.510314807610613,-1.525768163367692,-0.5882376360720062,0.002768144011497498,0.001991132041439414,-0.001254964503459632,0.003012716770172119,0.001088619232177734,-0.0002117156982421875,XArbitraryZVertical,0.3006945400007477,-0.6251873405328582,0.6200324512530518,0.3664468578340553,-0.8310766220092773,0.5548957586288452,-0.03744716569781303,0,0,0,-1,-1,19981.40744716667,unknown,2,2025-04-21T16:26:36.905+03:00,2025-04-20T21:57:49.637+03:00,6771,0.9848602,0,0,5553.922,5,6,2025-04-21T16:23:41.500+03:00,766934822.7975621,0,-38.88,100.199,1,0.35,2025-04-21T16:27:02.480+03:00,97,1.616666666666667,2025-04-21T12:30:07.995+03:00,0.02023345852159405,0
2025-04-21T16:27:04.672+03:00,1745242023.231771,40.95225055938123,29.1403145136162,75.80261,-1,-1,-1,-1,30,32.72624310773018,-9999,20009.16643641667,-0.83154296875,0.55731201171875,-0.0405120849609375,20009.16139841667,1.510344673579339,-1.525697736334503,-0.5882389666229862,0.0002272219571750611,0.004713415168225765,0.0004646385787054896,-0.0005917549133300781,0.002415001392364502,-0.002777695655822754,XArbitraryZVertical,0.3006816202596553,-0.6251701626515924,0.6200487346206642,0.366459196382057,-0.8310732245445251,0.5548968315124512,-0.03750566020607948,0,0,0,-1,-1,19981.40744716667,unknown,2,2025-04-21T16:26:36.905+03:00,2025-04-20T21:57:49.637+03:00,6771,0.9848602,0,0,5553.922,5,6,2025-04-21T16:23:41.500+03:00,766934822.7975621,0,-38.88,100.199,1,0.35,2025-04-21T16:27:02.480+03:00,97,1.616666666666667,2025-04-21T12:30:07.995+03:00,0.02023345852159405,0
2025-04-21T16:27:04.679+03:00,1745242023.231771,40.95225055938123,29.1403145136162,75.80261,-1,-1,-1,-1,30,32.72624310773018,-9999,20009.17651241667,-0.8302459716796875,0.5551605224609375,-0.043487548828125,20009.17147441667,1.510339068617003,-1.525640996471483,-0.5882398446068891,-0.003651672042906284,0.003708072006702423,-0.001310091931372881,-0.0004112720489501953,0.002902567386627197,-0.003371477127075195,XArbitraryZVertical,0.3006619884959343,-0.6251607559110475,0.6200563890540617,0.3664784261106768,-0.8310706615447998,0.5548976063728333,-0.03755279630422592,0,0,0,-1,-1,19981.40744716667,unknown,2,2025-04-21T16:26:36.905+03:00,2025-04-20T21:57:49.637+03:00,6771,0.9848602,0,0,5553.922,5,6,2025-04-21T16:23:41.500+03:00,766934822.7975621,0,-38.88,100.199,1,0.35,2025-04-21T16:27:02.480+03:00,97,1.616666666666667,2025-04-21T12:30:07.995+03:00,0.02023345852159405,0
2025-04-21T16:27:04.689+03:00,1745242023.231771,40.95225055938123,29.1403145136162,75.80261,-1,-1,-1,-1,30,32.72624310773018,-9999,20009.18658941667,-0.8272857666015625,0.5522308349609375,-0.042938232421875,20009.18155041667,1.510312267604847,-1.525609700506568,-0.5882227089917241,-0.003307058941572905,0.004150955937802792,-0.0001454916200600564,0.0008176565170288086,-0.0008521080017089844,-0.006122112274169922,XArbitraryZVertical,0.3006494259356618,-0.6251562261700011,0.6200532773316977,0.3665016347353344,-0.8310788869857788,0.5548833012580872,-0.03757923096418381,0,0,0,-1,-1,19981.40744716667,unknown,2,2025-04-21T16:26:36.905+03:00,2025-04-20T21:57:49.637+03:00,6771,0.9848602,0,0,5553.922,5,6,2025-04-21T16:23:41.500+03:00,766934822.7975621,0,-38.88,100.199,1,0.35,2025-04-21T16:27:02.480+03:00,97,1.616666666666667,2025-04-21T12:30:07.995+03:00,0.02023345852159405,0
2025-04-21T16:27:04.699+03:00,1745242023.231771,40.95225055938123,29.1403145136162,75.80261,-1,-1,-1,-1,30,32.72624310773018,-9999,20009.19666541667,-0.8271636962890625,0.554229736328125,-0.04547119140625,20009.19162741667,1.510244441336896,-1.525622881307928,-0.5882147214058004,-0.007472043391317129,-0.0005024522542953491,-0.0002030491596087813,0.004271090030670166,-0.002935945987701416,-0.005080040544271469,XArbitraryZVertical,0.3006349100273381,-0.6251675095605803,0.620037501005638,0.366520847802547,-0.8310837149620056,0.5548766851425171,-0.03756847232580185,0,0,0,-1,-1,19981.40744716667,unknown,2,2025-04-21T16:26:36.905+03:00,2025-04-20T21:57:49.637+03:00,6771,0.9848602,0,0,5553.922,5,6,2025-04-21T16:23:41.500+03:00,766934822.7975621,0,-38.88,100.199,1,0.35,2025-04-21T16:27:02.480+03:00,97,1.616666666666667,2025-04-21T12:30:07.995+03:00,0.02023345852159405,0
2025-04-21T16:27:04.709+03:00,1745242023.231771,40.95225055938123,29.1403145136162,75.80261,-1,-1,-1,-1,30,32.72624310773018,-9999,20009.20674141667,-0.82696533203125,0.554412841796875,-0.0456695556640625,20009.20170341667,1.510124057957348,-1.525714654392444,-0.5882075355136266,-0.01224522665143013,-0.005292946472764015,0.0005000254022888839,0.003195226192474365,-0.0001986026763916016,-0.008329927921295166,XArbitraryZVertical,0.3006279718689131,-0.6252012702299991,0.6200004551960374,0.3665318376973317,-0.8310912847518921,0.5548707246780396,-0.03749238699674606,0,0,0,-1,-1,19981.40744716667,unknown,2,2025-04-21T16:26:36.905+03:00,2025-04-20T21:57:49.637+03:00,6771,0.9848602,0,0,5553.922,5,6,2025-04-21T16:23:41.500+03:00,766934822.7975621,0,-38.88,100.199,1,0.35,2025-04-21T16:27:02.480+03:00,97,1.616666666666667,2025-04-21T12:30:07.995+03:00,0.02023345852159405,0
2025-04-21T16:27:04.719+03:00,1745242023.231771,40.95225055938123,29.1403145136162,75.80261,-1,-1,-1,-1,30,32.72624310773018,-9999,20009.21681841667,-0.8262481689453125,0.5534820556640625,-0.0390777587890625,20009.21177941667,1.509967939524877,-1.52585582529615,-0.5882097688331952,-0.01209808792918921,-0.004640871658921242,-0.001268380205146968,0.004007995128631592,-0.0009023547172546387,-0.007104575634002686,XArbitraryZVertical,0.3006222073272866,-0.6252509774872702,0.6199510037462577,0.3665354397379578,-0.8310953378677368,0.5548725724220276,-0.03737500682473183,0,0,0,-1,-1,19981.40744716667,unknown,2,2025-04-21T16:26:36.905+03:00,2025-04-20T21:57:49.637+03:00,6771,0.9848602,0,0,5553.922,5,6,2025-04-21T16:23:41.500+03:00,766934822.7975621,0,-38.88,100.199,1,0.35,2025-04-21T16:27:02.480+03:00,97,1.616666666666667,2025-04-21T12:30:07.995+03:00,0.02023345852159405,0
2025-04-21T16:27:04.729+03:00,1745242023.231771,40.95225055938123,29.1403145136162,75.80261,-1,-1,-1,-1,30,32.72624310773018,-9999,20009.22689441667,-0.829345703125,0.5523529052734375,-0.03521728515625,20009.22185641667,1.509771913149657,-1.52600960920794,-0.5882311526235178,-0.01960820145905018,-0.002269593067467213,0.002292532473802567,0.004215419292449951,-0.00159144401550293,-0.0004732646048069,XArbitraryZVertical,0.3006017140993146,-0.6253121419751703,0.6198955869529476,0.3665417031221672,-0.8310893177986145,0.5548903346061707,-0.03724667057394981,0,0,0,-1,-1,19981.40744716667,unknown,2,2025-04-21T16:26:36.905+03:00,2025-04-20T21:57:49.637+03:00,6771,0.9848602,0,0,5553.922,5,6,2025-04-21T16:23:41.500+03:00,766934822.7975621,0,-38.88,100.199,1,0.35,2025-04-21T16:27:02.480+03:00,97,1.616666666666667,2025-04-21T12:30:07.995+03:00,0.02023345852159405,0
2025-04-21T16:27:04.739+03:00,1745242023.231771,40.95225055938123,29.1403145136162,75.80261,-1,-1,-1,-1,30,32.72624310773018,-9999,20009.23697041667,-0.8331298828125,0.5501708984375,-0.03729248046875,20009.23193241667,1.509557169583079,-1.526116515456189,-0.5882750041353897,-0.01628504134714603,0.003606472397223115,0.0009932095417752862,0.000914454460144043,-0.002528369426727295,0.002610627561807632,XArbitraryZVertical,0.3005537263753413,-0.6253711667226344,0.6198475460679741,0.3665613169647801,-0.831068754196167,0.5549268126487732,-0.03715672343969345,0,0,0,-1,-1,19981.40744716667,unknown,2,2025-04-21T16:26:36.905+03:00,2025-04-20T21:57:49.637+03:00,6771,0.9848602,0,0,5553.922,5,6,2025-04-21T16:23:41.500+03:00,766934822.7975621,0,-38.88,100.199,1,0.35,2025-04-21T16:27:02.480+03:00,97,1.616666666666667,2025-04-21T12:30:07.995+03:00,0.02023345852159405,0
2025-04-21T16:27:04.749+03:00,1745242023.231771,40.95225055938123,29.1403145136162,75.80261,-1,-1,-1,-1,30,32.72624310773018,-9999,20009.24704741667,-0.832366943359375,0.5543975830078125,-0.0365447998046875,20009.24200941667,1.509408326280655,-1.526148319707192,-0.5883074308649668,-0.008749095723032951,0.007888302206993103,0.001649945043027401,-0.002566099166870117,-0.004660964012145996,0.0001725554466247559,XArbitraryZVertical,0.3005066089986778,-0.6254046941224678,0.6198209857913236,0.3665877876762573,-0.8310520648956299,0.5549538135528564,-0.03712949156761169,0,0,0,-1,-1,19981.40744716667,unknown,2,2025-04-21T16:26:36.905+03:00,2025-04-20T21:57:49.637+03:00,6771,0.9848602,0,0,5553.922,5,6,2025-04-21T16:23:41.500+03:00,766934822.7975621,0,-38.88,100.199,1,0.35,2025-04-21T16:27:02.480+03:00,97,1.616666666666667,2025-04-21T12:30:07.995+03:00,0.02023345852159405,0
2025-04-21T16:27:04.759+03:00,1745242023.231771,40.95225055938123,29.1403145136162,75.80261,-1,-1,-1,-1,30,32.72624310773018,-9999,20009.25712341667,-0.83056640625,0.55804443359375,-0.038116455078125,20009.25208541667,1.509362741136822,-1.526092139217489,-0.5883280464096254,-0.001245372928678989,0.008550098165869713,0.000463107309769839,-0.001221597194671631,0.0004488229751586914,0.0007832646369934082,XArbitraryZVertical,0.3004683337827393,-0.6254046250530144,0.6198245582728001,0.3666132408734704,-0.8310385346412659,0.5549709796905518,-0.03717567026615143,0,0,0,-1,-1,19981.40744716667,unknown,2,2025-04-21T16:26:36.905+03:00,2025-04-20T21:57:49.637+03:00,6771,0.9848602,0,0,5553.922,5,6,2025-04-21T16:23:41.500+03:00,766934822.7975621,0,-38.88,100.199,1,0.35,2025-04-21T16:27:02.480+03:00,97,1.616666666666667,2025-04-21T12:30:07.995+03:00,0.02023345852159405,0
2025-04-21T16:27:04.770+03:00,1745242023.231771,40.95225055938123,29.1403145136162,75.80261,-1,-1,-1,-1,30,32.72624310773018,-9999,20009.26719941667,-0.826263427734375,0.5529632568359375,-0.0418548583984375,20009.26216141667,1.509354811620504,-1.526022958096869,-0.5883263756413963,-0.004127978347241879,0.003765729488804936,0.001161920605227351,0.001294493675231934,0.002067625522613525,-0.00135648250579834,XArbitraryZVertical,0.3004449418511551,-0.6253928639182648,0.6198332182480194,0.3666378602579683,-0.8310369253158569,0.5549695491790771,-0.03723320364952087,0,0,0,-1,-1,19981.40744716667,unknown,2,2025-04-21T16:26:36.905+03:00,2025-04-20T21:57:49.637+03:00,6771,0.9848602,0,0,5553.922,5,6,2025-04-21T16:23:41.500+03:00,766934822.7975621,0,-38.88,100.199,1,0.35,2025-04-21T16:27:02.480+03:00,97,1.616666666666667,2025-04-21T12:30:07.995+03:00,0.02023345852159405,0
2025-04-21T16:27:04.780+03:00,1745242023.231771,40.95225055938123,29.1403145136162,75.80261,-1,-1,-1,-1,30,32.72624310773018,-9999,20009.27727641667,-0.8233795166015625,0.550994873046875,-0.0409088134765625,20009.27223841667,1.509230547196147,-1.526056608362584,-0.5883351488970656,-0.02028963714838028,-0.001507862005382776,0.001518784323707223,0.00451052188873291,-0.002608835697174072,-0.004695773124694824,XArbitraryZVertical,0.3004137060184672,-0.6254191347971112,0.6198068641710746,0.3666631732240555,-0.8310332894325256,0.5549768805503845,-0.03720502182841301,0,0,0,-1,-1,19981.40744716667,unknown,2,2025-04-21T16:26:36.905+03:00,2025-04-20T21:57:49.637+03:00,6771,0.9848602,0,0,5553.922,5,6,2025-04-21T16:23:41.500+03:00,766934822.7975621,0,-38.88,100.199,1,0.35,2025-04-21T16:27:02.480+03:00,97,1.616666666666667,2025-04-21T12:30:07.995+03:00,0.02023345852159405,0
2025-04-21T16:27:04.790+03:00,1745242023.231771,40.95225055938123,29.1403145136162,75.80261,-1,-1,-1,-1,30,32.72624310773018,-9999,20009.28735241667,-0.8232574462890625,0.5489501953125,-0.038421630859375,20009.28231441667,1.508987748967245,-1.526224854550389,-0.5883544962089021,-0.02406094036996365,-0.00688558304682374,-0.003285558195784688,0.00806128978729248,-0.004425466060638428,-0.003386497497558594,XArbitraryZVertical,0.3003837217288267,-0.6254896145800611,0.6197403490948254,0.3666799063784543,-0.8310287594795227,0.5549929738044739,-0.03706472367048264,0,0,0,-1,-1,19981.40744716667,unknown,2,2025-04-21T16:26:36.905+03:00,2025-04-20T21:57:49.637+03:00,6771,0.9848602,0,0,5553.922,5,6,2025-04-21T16:23:41.500+03:00,766934822.7975621,0,-38.88,100.199,1,0.35,2025-04-21T16:27:02.480+03:00,97,1.616666666666667,2025-04-21T12:30:07.995+03:00,0.02023345852159405,0
2025-04-21T16:27:04.800+03:00,1745242023.231771,40.95225055938123,29.1403145136162,75.80261,-1,-1,-1,-1,30,32.72624310773018,-9999,20009.29742941667,-0.8272705078125,0.552734375,-0.0390167236328125,20009.29239041667,1.508695629003238,-1.526436286501798,-0.5883380430053332,-0.02694880403578281,-0.005879640579223633,-0.002775662811473012,0.007238984107971191,-0.006456434726715088,-0.001929104328155518,XArbitraryZVertical,0.3003631428183321,-0.6255695577403698,0.6196522508450282,0.3667092763923189,-0.8310456871986389,0.5549792647361755,-0.03688942268490791,0,0,0,-1,-1,19981.40744716667,unknown,2,2025-04-21T16:26:36.905+03:00,2025-04-20T21:57:49.637+03:00,6771,0.9848602,0,0,5553.922,5,6,2025-04-21T16:23:41.500+03:00,766934822.7975621,0,-38.88,100.199,1,0.35,2025-04-21T16:27:02.480+03:00,97,1.616666666666667,2025-04-21T12:30:07.995+03:00,0.02023345852159405,0
2025-04-21T16:27:04.810+03:00,1745242023.231771,40.95225055938123,29.1403145136162,75.80261,-1,-1,-1,-1,30,32.72624310773018,-9999,20009.30750541667,-0.8302459716796875,0.555389404296875,-0.0405731201171875,20009.30246741667,1.508349773408793,-1.526686236754993,-0.5883195699480767,-0.02744601666927338,-0.005458595231175423,-0.003268347587436438,0.003275871276855469,-0.001924514770507812,-0.002349972724914551,XArbitraryZVertical,0.3003383091381559,-0.6256643057500372,0.6195481706238464,0.3667438436231711,-0.8310651779174805,0.5549638867378235,-0.03668215498328209,0,0,0,-1,-1,19981.40744716667,unknown,2,2025-04-21T16:26:36.905+03:00,2025-04-20T21:57:49.637+03:00,6771,0.9848602,0,0,5553.922,5,6,2025-04-21T16:23:41.500+03:00,766934822.7975621,0,-38.88,100.199,1,0.35,2025-04-21T16:27:02.480+03:00,97,1.616666666666667,2025-04-21T12:30:07.995+03:00,0.02023345852159405,0
2025-04-21T16:27:04.820+03:00,1745242023.231771,40.95225055938123,29.1403145136162,75.80261,-1,-1,-1,-1,30,32.72624310773018,-9999,20009.31758141667,-0.831390380859375,0.5537567138671875,-0.0411529541015625,20009.31254341667,1.508046715386313,-1.526904879851192,-0.588284328577356,-0.02146189473569393,-0.004985084757208824,-0.003390186931937933,0.001136660575866699,0.0003783106803894043,-0.004804428666830063,XArbitraryZVertical,0.3003225624857826,-0.6257441245259231,0.6194537744072728,0.3667798617509066,-0.8310925960540771,0.554934561252594,-0.03650129958987236,0,0,0,-1,-1,19981.40744716667,unknown,2,2025-04-21T16:26:36.905+03:00,2025-04-20T21:57:49.637+03:00,6771,0.9848602,0,0,5553.922,5,6,2025-04-21T16:23:41.500+03:00,766934822.7975621,0,-38.88,100.199,1,0.35,2025-04-21T16:27:02.480+03:00,97,1.616666666666667,2025-04-21T12:30:07.995+03:00,0.02023345852159405,0
2025-04-21T16:27:04.830+03:00,1745242023.231771,40.95225055938123,29.1403145136162,75.80261,-1,-1,-1,-1,30,32.72624310773018,-9999,20009.32765841667,-0.82958984375,0.55792236328125,-0.0394134521484375,20009.32261941667,1.507836682682737,-1.527109096055735,-0.5881953028573628,-0.01235414948314428,-0.008978761732578278,-0.01171522866934538,0.0001864433288574219,-0.00166851282119751,-0.004224300384521484,XArbitraryZVertical,0.3003485832692943,-0.625798576931806,0.6193695179284214,0.3668081300531858,-0.8311495184898376,0.554860532283783,-0.03633373975753784,0,0,0,-1,-1,19981.40744716667,unknown,2,2025-04-21T16:26:36.905+03:00,2025-04-20T21:57:49.637+03:00,6771,0.9848602,0,0,5553.922,5,6,2025-04-21T16:23:41.500+03:00,766934822.7975621,0,-38.88,100.199,1,0.35,2025-04-21T16:27:02.480+03:00,97,1.616666666666667,2025-04-21T12:30:07.995+03:00,0.02023345852159405,0
2025-04-21T16:27:04.840+03:00,1745242023.231771,40.95225055938123,29.1403145136162,75.80261,-1,-1,-1,-1,30,32.72624310773018,-9999,20009.33773441667,-0.8280487060546875,0.5608673095703125,-0.039337158203125,20009.33269641667,1.5077304521936,-1.527264793938911,-0.5880654160134605,-0.004631515592336655,-0.01028264500200748,-0.01675619184970856,0.001698434352874756,0.003368139266967773,-0.003221392631530762,XArbitraryZVertical,0.300405180614765,-0.6258218539482235,0.6193046300877845,0.3668316984544193,-0.8312272429466248,0.5547524690628052,-0.03620746731758118,0,0,0,-1,-1,19981.40744716667,unknown,2,2025-04-21T16:26:36.905+03:00,2025-04-20T21:57:49.637+03:00,6771,0.9848602,0,0,5553.922,5,6,2025-04-21T16:23:41.500+03:00,766934822.7975621,0,-38.88,100.199,1,0.35,2025-04-21T16:27:02.480+03:00,97,1.616666666666667,2025-04-21T12:30:07.995+03:00,0.02023345852159405,0
2025-04-21T16:27:04.850+03:00,1745242023.231771,40.95225055938123,29.1403145136162,75.80261,-1,-1,-1,-1,30,32.72624310773018,-9999,20009.34781041667,-0.8315887451171875,0.55859375,-0.0404052734375,20009.34277241667,1.507664201287666,-1.527384654061235,-0.5879009111642304,-0.005425137467682362,-0.005920919589698315,-0.01611250638961792,0.003563940525054932,0.00609898567199707,-0.003545939922332764,XArbitraryZVertical,0.3004743119110261,-0.6258268847087681,0.6192465597681555,0.3668644902633485,-0.8313226699829102,0.5546155571937561,-0.03611179813742638,0,0,0,-1,-1,19981.40744716667,unknown,2,2025-04-21T16:26:36.905+03:00,2025-04-20T21:57:49.637+03:00,6771,0.9848602,0,0,5553.922,5,6,2025-04-21T16:23:41.500+03:00,766934822.7975621,0,-38.88,100.199,1,0.35,2025-04-21T16:27:02.480+03:00,97,1.616666666666667,2025-04-21T12:30:07.995+03:00,0.02023345852159405,0
2025-04-21T16:27:04.860+03:00,1745242023.231771,40.95225055938123,29.1403145136162,75.80261,-1,-1,-1,-1,30,32.72624310773018,-9999,20009.35788741667,-0.8346099853515625,0.553070068359375,-0.0410614013671875,20009.35284941667,1.507573908429723,-1.52745598213142,-0.5877556740123414,-0.00867732334882021,0.001055297441780567,-0.01450552232563496,-7.62939453125e-05,0.003457903861999512,-0.004135839641094208,XArbitraryZVertical,0.3005147867444616,-0.6258297482920616,0.6191945969142177,0.3669138519382203,-0.8314054608345032,0.5544947385787964,-0.03605597838759422,0,0,0,-1,-1,19981.40744716667,unknown,2,2025-04-21T16:26:36.905+03:00,2025-04-20T21:57:49.637+03:00,6771,0.9848602,0,0,5553.922,5,6,2025-04-21T16:23:41.500+03:00,766934822.7975621,0,-38.88,100.199,1,0.35,2025-04-21T16:27:02.480+03:00,97,1.616666666666667,2025-04-21T12:30:07.995+03:00,0.02023345852159405,0
2025-04-21T16:27:04.870+03:00,1745242023.231771,40.95225055938123,29.1403145136162,75.80261,-1,-1,-1,-1,30,32.72624310773018,-9999,20009.36796341667,-0.833099365234375,0.5550537109375,-0.0403900146484375,20009.36292541667,1.507489759031593,-1.527471722799426,-0.5876348854942167,-0.007435224950313568,0.002526427386328578,-0.01155873481184244,-0.003014683723449707,-0.001156449317932129,-0.005046308040618896,XArbitraryZVertical,0.3005319670514893,-0.6258255631203674,0.6191563232019552,0.3669717943877443,-0.831473171710968,0.5543941855430603,-0.03604580089449883,0,0,0,-1,-1,19981.40744716667,unknown,2,2025-04-21T16:26:36.905+03:00,2025-04-20T21:57:49.637+03:00,6771,0.9848602,0,0,5553.922,5,6,2025-04-21T16:23:41.500+03:00,766934822.7975621,0,-38.88,100.199,1,0.35,2025-04-21T16:27:02.480+03:00,97,1.616666666666667,2025-04-21T12:30:07.995+03:00,0.02023345852159405,0
2025-04-21T16:27:04.880+03:00,1745242023.231771,40.95225055938123,29.1403145136162,75.80261,-1,-1,-1,-1,30,32.72624310773018,-9999,20009.37803941667,-0.830963134765625,0.554840087890625,-0.0391387939453125,20009.37300141667,1.507419008959034,-1.527488433102869,-0.5875382549215941,-0.004281776025891304,0.001914699329063296,-0.006416037678718567,-0.0006260275840759277,0.001395940780639648,-0.004249155521392822,XArbitraryZVertical,0.3005459981292292,-0.6258234499537133,0.6191244159063389,0.3670176648055692,-0.8315272331237793,0.5543137788772583,-0.0360342264175415,0,0,0,-1,-1,19981.40744716667,unknown,2,2025-04-21T16:26:36.905+03:00,2025-04-20T21:57:49.637+03:00,6771,0.9848602,0,0,5553.922,5,6,2025-04-21T16:23:41.500+03:00,766934822.7975621,0,-38.88,100.199,1,0.35,2025-04-21T16:27:02.480+03:00,97,1.616666666666667,2025-04-21T12:30:07.995+03:00,0.02023345852159405,0
2025-04-21T16:27:04.890+03:00,1745242023.231771,40.95225055938123,29.1403145136162,75.80261,-1,-1,-1,-1,30,32.72624310773018,-9999,20009.38811641667,-0.829132080078125,0.5520477294921875,-0.037750244140625,20009.38307841667,1.507375503930343,-1.52746235685894,-0.5874776449257852,-0.002198118949308991,0.005322746466845274,-0.005685266107320786,0.0007494091987609863,0.0007291436195373535,-0.002257641404867172,XArbitraryZVertical,0.3005437463710252,-0.6258152882923214,0.6191100574599697,0.367057629737944,-0.8315598368644714,0.5542633533477783,-0.03605736419558525,0,0,0,-1,-1,19981.40744716667,unknown,2,2025-04-21T16:26:36.905+03:00,2025-04-20T21:57:49.637+03:00,6771,0.9848602,0,0,5553.922,5,6,2025-04-21T16:23:41.500+03:00,766934822.7975621,0,-38.88,100.199,1,0.35,2025-04-21T16:27:02.480+03:00,97,1.616666666666667,2025-04-21T12:30:07.995+03:00,0.02023345852159405,0
2025-04-21T16:27:04.900+03:00,1745242023.231771,40.95225055938123,29.1403145136162,75.80261,-1,-1,-1,-1,30,32.72624310773018,-9999,20009.39819241667,-0.82830810546875,0.5509796142578125,-0.036346435546875,20009.39315441667,1.50731472984356,-1.527442427296936,-0.5874300467352607,-0.007384757976979017,0.003421649103984237,-0.004840711131691933,0.001965165138244629,-0.002359271049499512,-0.0009581409394741058,XArbitraryZVertical,0.3005338444126001,-0.6258129677390695,0.619093804860255,0.3670970133537171,-0.8315854072570801,0.5542237162590027,-0.03607507422566414,0,0,0,-1,-1,19981.40744716667,unknown,2,2025-04-21T16:26:36.905+03:00,2025-04-20T21:57:49.637+03:00,6771,0.9848602,0,0,5553.922,5,6,2025-04-21T16:23:41.500+03:00,766934822.7975621,0,-38.88,100.199,1,0.35,2025-04-21T16:27:02.480+03:00,97,1.616666666666667,2025-04-21T12:30:07.995+03:00,0.02023345852159405,0
2025-04-21T16:27:04.911+03:00,1745242023.231771,40.95225055938123,29.1403145136162,75.80261,-1,-1,-1,-1,30,32.72624310773018,-9999,20009.40826941667,-0.8288726806640625,0.54827880859375,-0.035614013671875,20009.40323041667,1.507233672864568,-1.527448405728037,-0.5873988976192889,-0.01037016231566668,0.004115935415029526,0.0004150372697040439,0.003035545349121094,-0.003080964088439941,-0.000306248664855957,XArbitraryZVertical,0.3005202656944968,-0.6258211729530877,0.6190727591149963,0.3671298148865048,-0.8316030502319336,0.5541977882385254,-0.03607085719704628,0,0,0,-1,-1,19981.40744716667,unknown,2,2025-04-21T16:26:36.905+03:00,2025-04-20T21:57:49.637+03:00,6771,0.9848602,0,0,5553.922,5,6,2025-04-21T16:23:41.500+03:00,766934822.7975621,0,-38.88,100.199,1,0.35,2025-04-21T16:27:02.480+03:00,97,1.616666666666667,2025-04-21T12:30:07.995+03:00,0.02023345852159405,0
2025-04-21T16:27:04.921+03:00,1745242023.231771,40.95225055938123,29.1403145136162,75.80261,-1,-1,-1,-1,30,32.72624310773018,-9999,20009.41834541667,-0.8321685791015625,0.5497589111328125,-0.03619384765625,20009.41330741667,1.507125822538664,-1.52744090983654,-0.5874341619316055,-0.008142827078700066,0.006747804116457701,0.0008437395445071161,0.003244578838348389,-0.007153928279876709,-7.200241088867188e-05,XArbitraryZVertical,0.3004729173474947,-0.625841757086281,0.6190600661752824,0.3671547945886444,-0.8315831422805786,0.5542271137237549,-0.03607624024152756,0,0,0,-1,-1,19981.40744716667,unknown,2,2025-04-21T16:26:36.905+03:00,2025-04-20T21:57:49.637+03:00,6771,0.9848602,0,0,5553.922,5,6,2025-04-21T16:23:41.500+03:00,766934822.7975621,0,-38.88,100.199,1,0.35,2025-04-21T16:27:02.480+03:00,97,1.616666666666667,2025-04-21T12:30:07.995+03:00,0.02023345852159405,0
2025-04-21T16:27:04.931+03:00,1745242023.231771,40.95225055938123,29.1403145136162,75.80261,-1,-1,-1,-1,30,32.72624310773018,-9999,20009.42842141667,-0.8318328857421875,0.5551605224609375,-0.0370941162109375,20009.42338341667,1.507062887460968,-1.527395208102603,-0.5874731523016572,-0.003600805765017867,0.008571004495024681,0.0009372165077365935,-0.001066327095031738,-0.003585338592529297,-0.0007063709199428558,XArbitraryZVertical,0.300426595006979,-0.6258491891479671,0.6190619929145926,0.3671767210827351,-0.8315598964691162,0.5542595982551575,-0.03611330687999725,0,0,0,-1,-1,19981.40744716667,unknown,2,2025-04-21T16:26:36.905+03:00,2025-04-20T21:57:49.637+03:00,6771,0.9848602,0,0,5553.922,5,6,2025-04-21T16:23:41.500+03:00,766934822.7975621,0,-38.88,100.199,1,0.35,2025-04-21T16:27:02.480+03:00,97,1.616666666666667,2025-04-21T12:30:07.995+03:00,0.02023345852159405,0
2025-04-21T16:27:04.941+03:00,1745242023.231771,40.95225055938123,29.1403145136162,75.80261,-1,-1,-1,-1,30,32.72624310773018,-9999,20009.43849841667,-0.832611083984375,0.555908203125,-0.03814697265625,20009.43345941667,1.507052896658643,-1.527275365892689,-0.5875097580678683,2.388961729593575e-05,0.01263964828103781,0.002440903801470995,-0.0006636977195739746,0.0007939934730529785,-0.001324709504842758,XArbitraryZVertical,0.3003746500655483,-0.6258346670664735,0.6190843703820149,0.3672061955828524,-0.8315352201461792,0.5542900562286377,-0.03621207922697067,0,0,0,-1,-1,19981.40744716667,unknown,2,2025-04-21T16:26:36.905+03:00,2025-04-20T21:57:49.637+03:00,6771,0.9848602,0,0,5553.922,5,6,2025-04-21T16:23:41.500+03:00,766934822.7975621,0,-38.88,100.199,1,0.35,2025-04-21T16:27:02.480+03:00,97,1.616666666666667,2025-04-21T12:30:07.995+03:00,0.02023345852159405,0
2025-04-21T16:27:04.951+03:00,1745242023.231771,40.95225055938123,29.1403145136162,75.80261,-1,-1,-1,-1,30,32.72624310773018,-9999,20009.44857441667,-0.83245849609375,0.556915283203125,-0.03973388671875,20009.44353641667,1.507096794025921,-1.527125955419315,-0.5874994021259615,0.002172261476516724,0.01031044777482748,-0.002073952928185463,-0.001456856727600098,0.001840293407440186,-0.001459661871194839,XArbitraryZVertical,0.3003453840240379,-0.6257989783482015,0.619113140021419,0.3672427072716171,-0.8315357565879822,0.5542814135551453,-0.03633657842874527,0,0,0,-1,-1,19981.40744716667,unknown,2,2025-04-21T16:26:36.905+03:00,2025-04-20T21:57:49.637+03:00,6771,0.9848602,0,0,5553.922,5,6,2025-04-21T16:23:41.500+03:00,766934822.7975621,0,-38.88,100.199,1,0.35,2025-04-21T16:27:02.480+03:00,97,1.616666666666667,2025-04-21T12:30:07.995+03:00,0.02023345852159405,0
2025-04-21T16:27:04.961+03:00,1745242023.231771,40.95225055938123,29.1403145136162,75.80261,-1,-1,-1,-1,30,32.72624310773018,-9999,20009.45865041667,-0.830291748046875,0.5549468994140625,-0.039215087890625,20009.45361241667,1.507113992801814,-1.527011330455385,-0.5874797394451216,0.0009937463328242302,0.008501828648149967,-0.002260008128359914,-0.0008702278137207031,0.002802670001983643,-0.003255903720855713,XArbitraryZVertical,0.3003216032155827,-0.6257721238526163,0.619130165893881,0.3672791503381717,-0.831542432308197,0.5542650818824768,-0.03643236681818962,0,0,0,-1,-1,19981.40744716667,unknown,2,2025-04-21T16:26:36.905+03:00,2025-04-20T21:57:49.637+03:00,6771,0.9848602,0,0,5553.922,5,6,2025-04-21T16:23:41.500+03:00,766934822.7975621,0,-38.88,100.199,1,0.35,2025-04-21T16:27:02.480+03:00,97,1.616666666666667,2025-04-21T12:30:07.995+03:00,0.02023345852159405,0
2025-04-21T16:27:04.971+03:00,1745242023.231771,40.95225055938123,29.1403145136162,75.80261,-1,-1,-1,-1,30,32.72624310773018,-9999,20009.46872741667,-0.83355712890625,0.5535125732421875,-0.0399322509765625,20009.46368941667,1.507126555688277,-1.526895906032519,-0.5874778481811279,-0.003544280305504799,0.0128872562199831,-9.752140613272786e-05,0.00120168924331665,0.0007443428039550781,-0.002473238855600357,XArbitraryZVertical,0.3002904072517376,-0.6257487311648924,0.6191494837586911,0.3673119510059696,-0.8315392732620239,0.5542634725570679,-0.03652839362621307,0,0,0,-1,-1,19981.40744716667,unknown,2,2025-04-21T16:26:36.905+03:00,2025-04-20T21:57:49.637+03:00,6771,0.9848602,0,0,5553.922,5,6,2025-04-21T16:23:41.500+03:00,766934822.7975621,0,-38.88,100.199,1,0.35,2025-04-21T16:27:02.480+03:00,97,1.616666666666667,2025-04-21T12:30:07.995+03:00,0.02023345852159405,0
2025-04-21T16:27:04.981+03:00,1745242023.231771,40.95225055938123,29.1403145136162,75.80261,-1,-1,-1,-1,30,32.72624310773018,-9999,20009.47880341667,-0.8328094482421875,0.550872802734375,-0.04156494140625,20009.47376541667,1.50707358006564,-1.526802127404174,-0.5874881721522091,-0.005736727267503738,0.01252253539860249,0.002511510858312249,-0.002667903900146484,-0.0003934502601623535,-0.003021121025085449,XArbitraryZVertical,0.300241518256591,-0.6257411376856449,0.619155574352663,0.3673544855292457,-0.8315300345420837,0.5542721152305603,-0.03660611808300018,0,0,0,-1,-1,19981.40744716667,unknown,2,2025-04-21T16:26:36.905+03:00,2025-04-20T21:57:49.637+03:00,6771,0.9848602,0,0,5553.922,5,6,2025-04-21T16:23:41.500+03:00,766934822.7975621,0,-38.88,100.199,1,0.35,2025-04-21T16:27:02.480+03:00,97,1.616666666666667,2025-04-21T12:30:07.995+03:00,0.02023345852159405,0
2025-04-21T16:27:04.991+03:00,1745242023.231771,40.95225055938123,29.1403145136162,75.80261,-1,-1,-1,-1,30,32.72624310773018,-9999,20009.48887941667,-0.829193115234375,0.5483245849609375,-0.0367889404296875,20009.48384141667,1.506974034377441,-1.526761727366898,-0.5875215007205287,-0.01217758283019066,0.007669724058359861,0.004167996812611818,-0.0007347464561462402,-0.004296958446502686,-0.004849907010793686,XArbitraryZVertical,0.3001871952219211,-0.625754104472876,0.6191490042806118,0.3673878077283048,-0.831510066986084,0.5542998313903809,-0.03663889691233635,0,0,0,-1,-1,19981.40744716667,unknown,2,2025-04-21T16:26:36.905+03:00,2025-04-20T21:57:49.637+03:00,6771,0.9848602,0,0,5553.922,5,6,2025-04-21T16:23:41.500+03:00,766934822.7975621,0,-38.88,100.199,1,0.35,2025-04-21T16:27:02.480+03:00,97,1.616666666666667,2025-04-21T12:30:07.995+03:00,0.02023345852159405,0
2025-04-21T16:27:05.001+03:00,1745242023.231771,40.95225055938123,29.1403145136162,75.80261,-1,-1,-1,-1,30,32.72624310773018,-9999,20009.49895641667,-0.82855224609375,0.5489044189453125,-0.0394744873046875,20009.49391841667,1.50681808209242,-1.526750629866257,-0.5875765142226295,-0.01495239604264498,0.01047822646796703,0.007983208633959293,0.002621889114379883,-0.006463706493377686,-0.0004475079476833344,XArbitraryZVertical,0.3001173175372907,-0.6257844711136317,0.619131361882103,0.3674229254179469,-0.8314791917800903,0.5543456077575684,-0.03664678335189819,0,0,0,-1,-1,19981.40744716667,unknown,2,2025-04-21T16:26:36.905+03:00,2025-04-20T21:57:49.637+03:00,6771,0.9848602,0,0,5553.922,5,6,2025-04-21T16:23:41.500+03:00,766934822.7975621,0,-38.88,100.199,1,0.35,2025-04-21T16:27:02.480+03:00,97,1.616666666666667,2025-04-21T12:30:07.995+03:00,0.02023345852159405,0
2025-04-21T16:27:05.011+03:00,1745242023.231771,40.95225055938123,29.1403145136162,75.80261,-1,-1,-1,-1,30,32.72624310773018,-9999,20009.50903241667,-0.830535888671875,0.551422119140625,-0.0414886474609375,20009.50399441667,1.506671566013644,-1.526721110030049,-0.5876462354172395,-0.01364744734019041,0.01330277509987354,0.008735551498830318,0.002277076244354248,-0.004522800445556641,-0.003400146961212158,XArbitraryZVertical,0.3000399242322886,-0.6258124543067102,0.6191207299765026,0.3674565690564634,-0.8314396739006042,0.5544036626815796,-0.03666963055729866,0,0,0,-1,-1,19981.40744716667,unknown,2,2025-04-21T16:26:36.905+03:00,2025-04-20T21:57:49.637+03:00,6771,0.9848602,0,0,5553.922,5,6,2025-04-21T16:23:41.500+03:00,766934822.7975621,0,-38.88,100.199,1,0.35,2025-04-21T16:27:02.480+03:00,97,1.616666666666667,2025-04-21T12:30:07.995+03:00,0.02023345852159405,0
2025-04-21T16:27:05.021+03:00,1745242023.231771,40.95225055938123,29.1403145136162,75.80261,-1,-1,-1,-1,30,32.72624310773018,-9999,20009.51910941667,-0.8302001953125,0.55242919921875,-0.0424957275390625,20009.51407041667,1.506473892885087,-1.526696984484271,-0.5877047662593324,-0.01830485090613365,0.01562498603016138,0.00547487661242485,0.0003363490104675293,-0.00229799747467041,-0.005029436200857162,XArbitraryZVertical,0.2999518774050627,-0.6258472212534464,0.6190979455682889,0.367507454395579,-0.8314062356948853,0.5544523596763611,-0.03668825328350067,0,0,0,-1,-1,19981.40744716667,unknown,2,2025-04-21T16:26:36.905+03:00,2025-04-20T21:57:49.637+03:00,6771,0.9848602,0,0,5553.922,5,6,2025-04-21T16:23:41.500+03:00,766934822.7975621,0,-38.88,100.199,1,0.35,2025-04-21T16:27:02.480+03:00,97,1.616666666666667,2025-04-21T12:30:07.995+03:00,0.02023345852159405,0
2025-04-21T16:27:05.031+03:00,1745242023.231771,40.95225055938123,29.1403145136162,75.80261,-1,-1,-1,-1,30,32.72624310773018,-9999,20009.52918541667,-0.82843017578125,0.5529327392578125,-0.040802001953125,20009.52414741667,1.506251545826203,-1.526675820078414,-0.5877806232967842,-0.02088864892721176,0.01406996604055166,0.008828328922390938,0.001453280448913574,-0.002071142196655273,-0.006036043167114258,XArbitraryZVertical,0.2998513809736719,-0.6258890872721564,0.6190731532491032,0.3675600511502299,-0.8313635587692261,0.5545154809951782,-0.03670400008559227,0,0,0,-1,-1,19981.40744716667,unknown,2,2025-04-21T16:26:36.905+03:00,2025-04-20T21:57:49.637+03:00,6771,0.9848602,0,0,5553.922,5,6,2025-04-21T16:23:41.500+03:00,766934822.7975621,0,-38.88,100.199,1,0.35,2025-04-21T16:27:02.480+03:00,97,1.616666666666667,2025-04-21T12:30:07.995+03:00,0.02023345852159405,0
2025-04-21T16:27:05.041+03:00,1745242023.231771,40.95225055938123,29.1403145136162,75.80261,-1,-1,-1,-1,30,32.72624310773018,-9999,20009.53926141667,-0.8277587890625,0.5505218505859375,-0.038726806640625,20009.53422341667,1.506008595596574,-1.526680617665511,-0.5878597813100745,-0.02072007209062576,0.01295782998204231,0.005794189870357513,0.002996444702148438,-0.002350687980651855,-0.003097057342529297,XArbitraryZVertical,0.299751462205037,-0.6259393139070004,0.619041215500699,0.3676097366076074,-0.8313198089599609,0.554581344127655,-0.03669807314872742,0,0,0,-1,-1,19981.40744716667,unknown,2,2025-04-21T16:26:36.905+03:00,2025-04-20T21:57:49.637+03:00,6771,0.9848602,0,0,5553.922,5,6,2025-04-21T16:23:41.500+03:00,766934822.7975621,0,-38.88,100.199,1,0.35,2025-04-21T16:27:02.480+03:00,97,1.616666666666667,2025-04-21T12:30:07.995+03:00,0.02023345852159405,0
2025-04-21T16:27:05.052+03:00,1745242023.231771,40.95225055938123,29.1403145136162,75.80261,-1,-1,-1,-1,30,32.72624310773018,-9999,20009.54933841667,-0.8288726806640625,0.5520172119140625,-0.03729248046875,20009.54429941667,1.505757751561233,-1.526693341595683,-0.5879218312679786,-0.0234649907797575,0.01086165569722652,0.001730738789774477,0.003115057945251465,-0.003394126892089844,-0.001934170722961426,XArbitraryZVertical,0.2996570027759722,-0.6259893713430441,0.6190037307206346,0.3676645675681623,-0.831285834312439,0.5546329617500305,-0.03668597713112831,0,0,0,-1,-1,19981.40744716667,unknown,2,2025-04-21T16:26:36.905+03:00,2025-04-20T21:57:49.637+03:00,6771,0.9848602,0,0,5553.922,5,6,2025-04-21T16:23:41.500+03:00,766934822.7975621,0,-38.88,100.199,1,0.35,2025-04-21T16:27:02.480+03:00,97,1.616666666666667,2025-04-21T12:30:07.995+03:00,0.02023345852159405,0
2025-04-21T16:27:05.062+03:00,1745242023.231771,40.95225055938123,29.1403145136162,75.80261,-1,-1,-1,-1,30,32.72624310773018,-9999,20009.55941441667,-0.8295745849609375,0.55615234375,-0.04107666015625,20009.55437641667,1.505492617249672,-1.526734123803044,-0.5879482538068412,-0.02273029275238514,0.009602446109056473,0.002104346873238683,0.002567946910858154,-0.002470016479492188,-0.001266840845346451,XArbitraryZVertical,0.2995780988833726,-0.6260409288849819,0.6189533897721732,0.3677260408420458,-0.8312728404998779,0.5546549558639526,-0.03665143623948097,0,0,0,-1,-1,19981.40744716667,unknown,2,2025-04-21T16:26:36.905+03:00,2025-04-20T21:57:49.637+03:00,6771,0.9848602,0,0,5553.922,5,6,2025-04-21T16:23:41.500+03:00,766934822.7975621,0,-38.88,100.199,1,0.35,2025-04-21T16:27:02.480+03:00,97,1.616666666666667,2025-04-21T12:30:07.995+03:00,0.02023345852159405,0
2025-04-21T16:27:05.072+03:00,1745242023.231771,40.95225055938123,29.1403145136162,75.80261,-1,-1,-1,-1,30,32.72624310773018,-9999,20009.56949041667,-0.8320770263671875,0.560150146484375,-0.0427398681640625,20009.56445241667,1.505234335888381,-1.526755711713514,-0.5879364242418431,-0.02187302149832249,0.01000378467142582,-0.003289885818958282,0.001568257808685303,0.001522362232208252,-0.004656676203012466,XArbitraryZVertical,0.299507708229479,-0.6260816575110537,0.6189006598211562,0.3678028399897985,-0.8312802314758301,0.5546451210975647,-0.03663378208875656,0,0,0,-1,-1,19981.40744716667,unknown,2,2025-04-21T16:26:36.905+03:00,2025-04-20T21:57:49.637+03:00,6771,0.9848602,0,0,5553.922,5,6,2025-04-21T16:23:41.500+03:00,766934822.7975621,0,-38.88,100.199,1,0.35,2025-04-21T16:27:02.480+03:00,97,1.616666666666667,2025-04-21T12:30:07.995+03:00,0.02023345852159405,0
2025-04-21T16:27:05.082+03:00,1745242023.231771,40.95225055938123,29.1403145136162,75.80261,-1,-1,-1,-1,30,32.72624310773018,-9999,20009.57956741667,-0.8326873779296875,0.564483642578125,-0.047454833984375,20009.57452941667,1.50501152621365,-1.526766564607853,-0.5878765962462594,-0.01525333430618048,0.01149235852062702,-0.006362174637615681,-0.0006259679794311523,0.006241381168365479,-0.005656067281961441,XArbitraryZVertical,0.299460509835524,-0.6261072533690161,0.6188478872382868,0.3678864945754243,-0.8313137888908386,0.5545953512191772,-0.03662621974945068,0,0,0,-1,-1,19981.40744716667,unknown,2,2025-04-21T16:26:36.905+03:00,2025-04-20T21:57:49.637+03:00,6771,0.9848602,0,0,5553.922,5,6,2025-04-21T16:23:41.500+03:00,766934822.7975621,0,-38.88,100.199,1,0.35,2025-04-21T16:27:02.480+03:00,97,1.616666666666667,2025-04-21T12:30:07.995+03:00,0.02023345852159405,0
2025-04-21T16:27:05.092+03:00,1745242023.231771,40.95225055938123,29.1403145136162,75.80261,-1,-1,-1,-1,30,32.72624310773018,-9999,20009.58964341667,-0.8310546875,0.5671844482421875,-0.052734375,20009.58460541667,1.504830694280702,-1.526773841852179,-0.5877702241124243,-0.02533579431474209,0.00225784769281745,-0.01578656956553459,-0.0005668401718139648,0.01029711961746216,-0.01118320226669312,XArbitraryZVertical,0.2994403358737378,-0.6261182839155162,0.6187954243433355,0.367972183596482,-0.831372857093811,0.5545068383216858,-0.03662275895476341,0,0,0,-1,-1,19981.40744716667,unknown,2,2025-04-21T16:26:36.905+03:00,2025-04-20T21:57:49.637+03:00,6771,0.9848602,0,0,5553.922,5,6,2025-04-21T16:23:41.500+03:00,766934822.7975621,0,-38.88,100.199,1,0.35,2025-04-21T16:27:02.480+03:00,97,1.616666666666667,2025-04-21T12:30:07.995+03:00,0.02023345852159405,0
2025-04-21T16:27:05.102+03:00,1745242023.231771,40.95225055938123,29.1403145136162,75.80261,-1,-1,-1,-1,30,32.72624310773018,-9999,20009.59972041667,-0.83184814453125,0.5661163330078125,-0.0519256591796875,20009.59468141667,1.504346752910247,-1.527010493447444,-0.5876510301375135,-0.057145856320858,-0.0006896723061800003,-0.01165504101663828,0.0002555251121520996,0.01312756538391113,-0.01670235022902489,XArbitraryZVertical,0.2994003161759088,-0.6262148197113551,0.6186506530599721,0.3680837448091257,-0.831447422504425,0.5544076561927795,-0.03642890229821205,0,0,0,-1,-1,19981.40744716667,unknown,2,2025-04-21T16:26:36.905+03:00,2025-04-20T21:57:49.637+03:00,6771,0.9848602,0,0,5553.922,5,6,2025-04-21T16:23:41.500+03:00,766934822.7975621,0,-38.88,100.199,1,0.35,2025-04-21T16:27:02.480+03:00,97,1.616666666666667,2025-04-21T12:30:07.995+03:00,0.02023345852159405,0
2025-04-21T16:27:05.112+03:00,1745242023.231771,40.95225055938123,29.1403145136162,75.80261,-1,-1,-1,-1,30,32.72624310773018,-9999,20009.60979641667,-0.83380126953125,0.54998779296875,-0.046783447265625,20009.60475841667,1.503446151797418,-1.527539429267033,-0.5875660086633727,-0.0980253741145134,-0.01078837923705578,-0.0105905756354332,-0.000303804874420166,0.0102076530456543,-0.01479029655456543,XArbitraryZVertical,0.2993090977088257,-0.6264331452399905,0.6183912445531063,0.3682224694272869,-0.8315137624740601,0.5543368458747864,-0.03599115833640099,0,0,0,-1,-1,19981.40744716667,unknown,2,2025-04-21T16:26:36.905+03:00,2025-04-20T21:57:49.637+03:00,6771,0.9848602,0,0,5553.922,5,6,2025-04-21T16:23:41.500+03:00,766934822.7975621,0,-38.88,100.199,1,0.35,2025-04-21T16:27:02.480+03:00,97,1.616666666666667,2025-04-21T12:30:07.995+03:00,0.02023345852159405,0
2025-04-21T16:27:05.122+03:00,1745242023.231771,40.95225055938123,29.1403145136162,75.80261,-1,-1,-1,-1,30,32.72624310773018,-9999,20009.61987241667,-0.833587646484375,0.5447845458984375,-0.0460205078125,20009.61483441667,1.50194440499633,-1.528416405127857,-0.5875546291465551,-0.156159982085228,-0.003466217312961817,0.0002301472704857588,-0.002082169055938721,-0.005453765392303467,-0.01094161719083786,XArbitraryZVertical,0.2991133794172621,-0.6268174333380104,0.6179815103217104,0.3684150895944815,-0.8315510749816895,0.5543274283409119,-0.03526218235492706,0,0,0,-1,-1,19981.40744716667,unknown,2,2025-04-21T16:26:36.905+03:00,2025-04-20T21:57:49.637+03:00,6771,0.9848602,0,0,5553.922,5,6,2025-04-21T16:23:41.500+03:00,766934822.7975621,0,-38.88,100.199,1,0.35,2025-04-21T16:27:02.480+03:00,97,1.616666666666667,2025-04-21T12:30:07.995+03:00,0.02023345852159405,0
2025-04-21T16:27:05.133+03:00,1745242023.231771,40.95225055938123,29.1403145136162,75.80261,-1,-1,-1,-1,30,32.72624310773018,-9999,20009.62994941667,-0.832000732421875,0.54248046875,-0.0437164306640625,20009.62491041667,1.49968123079782,-1.52969566788577,-0.5876527025809164,-0.2205317765474319,-0.003143975045531988,0.006447296589612961,-0.00251924991607666,-0.01052486896514893,-0.01132100820541382,XArbitraryZVertical,0.2987672993212097,-0.6274073820377775,0.6173900505118413,0.368683460344242,-0.8315413594245911,0.5544090270996094,-0.0341961570084095,0,0,0,-1,-1,19981.40744716667,unknown,2,2025-04-21T16:26:36.905+03:00,2025-04-20T21:57:49.637+03:00,6771,0.9848602,0,0,5553.922,5,6,2025-04-21T16:23:41.500+03:00,766934822.7975621,0,-38.88,100.199,1,0.35,2025-04-21T16:27:02.480+03:00,97,1.616666666666667,2025-04-21T12:30:07.995+03:00,0.02023345852159405,0
2025-04-21T16:27:05.142+03:00,1745242023.231771,40.95225055938123,29.1403145136162,75.80261,-1,-1,-1,-1,30,32.72624310773018,-9999,20009.64002541667,-0.8349456787109375,0.5393218994140625,-0.042755126953125,20009.63498741667,1.496658796825311,-1.531374707265423,-0.5879020276206719,-0.2809347212314606,0.005579675082117319,0.02626730874180794,-0.0009074211120605469,-0.01202934980392456,-0.0106932520866394,XArbitraryZVertical,0.2982564794017976,-0.6282084351034908,0.6166248293715483,0.369013490439756,-0.8314594626426697,0.5546165108680725,-0.03279446810483932,0,0,0,-1,-1,19981.40744716667,unknown,2,2025-04-21T16:26:36.905+03:00,2025-04-20T21:57:49.637+03:00,6771,0.9848602,0,0,5553.922,5,6,2025-04-21T16:23:41.500+03:00,766934822.7975621,0,-38.88,100.199,1,0.35,2025-04-21T16:27:02.480+03:00,97,1.616666666666667,2025-04-21T12:30:07.995+03:00,0.02023345852159405,0
2025-04-21T16:27:05.160+03:00,1745242023.231771,40.95225055938123,29.1403145136162,75.80261,-1,-1,-1,-1,30,32.72624310773018,-9999,20009.65010141667,-0.8371734619140625,0.5447845458984375,-0.0365142822265625,20009.64506341667,1.492978728042541,-1.533229309419199,-0.5883571949368255,-0.3238446414470673,0.02757765166461468,0.03415079787373543,-0.004503071308135986,-0.01639056205749512,-0.0108257569372654,XArbitraryZVertical,0.297524798300903,-0.6291721069646329,0.6157476968972517,0.3694269413341229,-0.8312667012214661,0.5549951791763306,-0.03124290890991688,0,0,0,-1,-1,19981.40744716667,unknown,2,2025-04-21T16:26:36.905+03:00,2025-04-20T21:57:49.637+03:00,6771,0.9848602,0,0,5553.922,5,6,2025-04-21T16:23:41.500+03:00,766934822.7975621,0,-38.88,100.199,1,0.35,2025-04-21T16:27:02.480+03:00,97,1.616666666666667,2025-04-21T12:30:07.995+03:00,0.02023345852159405,0
2025-04-21T16:27:05.163+03:00,1745242023.231771,40.95225055938123,29.1403145136162,75.80261,-1,-1,-1,-1,30,32.72624310773018,-9999,20009.66017841667,-0.84063720703125,0.567169189453125,-0.0435028076171875,20009.65514041667,1.489078981164708,-1.535010535452989,-0.588766404319393,-0.3240753412246704,0.04229075089097023,0.02398427948355675,-0.006048977375030518,-0.008842170238494873,-0.00640946626663208,XArbitraryZVertical,0.2967135184926177,-0.6301460620501971,0.6148331009788105,0.3699422946726054,-0.831093966960907,0.5553355813026428,-0.02975405752658844,0,0,0,-1,-1,19981.40744716667,unknown,2,2025-04-21T16:26:36.905+03:00,2025-04-20T21:57:49.637+03:00,6771,0.9848602,0,0,5553.922,5,6,2025-04-21T16:23:41.500+03:00,766934822.7975621,0,-38.88,100.199,1,0.35,2025-04-21T16:27:02.480+03:00,97,1.616666666666667,2025-04-21T12:30:07.995+03:00,0.02023345852159405,0
2025-04-21T16:27:05.173+03:00,1745242023.231771,40.95225055938123,29.1403145136162,75.80261,-1,-1,-1,-1,30,32.72624310773018,-9999,20009.67025441667,-0.8458709716796875,0.5676116943359375,-0.05426025390625,20009.66521641667,1.485155357141168,-1.536629526331996,-0.5891795611920486,-0.3313846588134766,0.05773894861340523,0.02619283832609653,-0.01125150918960571,0.01268011331558228,-0.01659774407744408,XArbitraryZVertical,0.2958409103796808,-0.6310925741629382,0.6139387997722279,0.3705122036907458,-0.83091139793396,0.5556790828704834,-0.02840063720941544,0,0,0,-1,-1,19981.40744716667,unknown,2,2025-04-21T16:26:36.905+03:00,2025-04-20T21:57:49.637+03:00,6771,0.9848602,0,0,5553.922,5,6,2025-04-21T16:23:41.500+03:00,766934822.7975621,0,-38.88,100.199,1,0.35,2025-04-21T16:27:02.480+03:00,97,1.616666666666667,2025-04-21T12:30:07.995+03:00,0.02023345852159405,0
2025-04-21T16:27:05.183+03:00,1745242023.231771,40.95225055938123,29.1403145136162,75.80261,-1,-1,-1,-1,30,32.72624310773018,-9999,20009.68033041667,-0.84637451171875,0.5777587890625,-0.067047119140625,20009.67529241667,1.481291491727122,-1.538077144241511,-0.5895120998727148,-0.3112680613994598,0.06669582426548004,0.01269653812050819,-0.01453936100006104,0.01132029294967651,-0.02801471576094627,XArbitraryZVertical,0.2949578834455277,-0.6319841675683489,0.6130666822933828,0.371139992162162,-0.8307669162750244,0.5559555292129517,-0.02719171717762947,0,0,0,-1,-1,19981.40744716667,unknown,2,2025-04-21T16:26:36.905+03:00,2025-04-20T21:57:49.637+03:00,6771,0.9848602,0,0,5553.922,5,6,2025-04-21T16:23:41.500+03:00,766934822.7975621,0,-38.88,100.199,1,0.35,2025-04-21T16:27:02.480+03:00,97,1.616666666666667,2025-04-21T12:30:07.995+03:00,0.02023345852159405,0
2025-04-21T16:27:05.193+03:00,1745242023.231771,40.95225055938123,29.1403145136162,75.80261,-1,-1,-1,-1,30,32.72624310773018,-9999,20009.69040741667,-0.84783935546875,0.6089324951171875,-0.080169677734375,20009.68536941667,1.478016734578182,-1.539038389043408,-0.5896694401150595,-0.2365826666355133,0.08633424341678619,-0.005824949126690626,-0.01588279008865356,0.02499866485595703,-0.04248803481459618,XArbitraryZVertical,0.2941663512089782,-0.6326697239421645,0.6123444802818527,0.3717918599970867,-0.8307051658630371,0.5560863018035889,-0.02639035694301128,0,0,0,-1,-1,19981.40744716667,unknown,2,2025-04-21T16:26:36.905+03:00,2025-04-20T21:57:49.637+03:00,6771,0.9848602,0,0,5553.922,5,6,2025-04-21T16:23:41.500+03:00,766934822.7975621,0,-38.88,100.199,1,0.35,2025-04-21T16:27:02.480+03:00,97,1.616666666666667,2025-04-21T12:30:07.995+03:00,0.02023345852159405,0
2025-04-21T16:27:05.203+03:00,1745242023.231771,40.95225055938123,29.1403145136162,75.80261,-1,-1,-1,-1,30,32.72624310773018,-9999,20009.70048341667,-0.8429107666015625,0.633880615234375,-0.096405029296875,20009.69544541667,1.475697979964538,-1.539359717863443,-0.58952044089846,-0.1599531322717667,0.09042005985975266,-0.02921389415860176,-0.01627981662750244,0.05669295787811279,-0.05589014291763306,XArbitraryZVertical,0.2935789398976617,-0.6330469096154847,0.611839631892429,0.3724448057962378,-0.8307965397834778,0.5559625029563904,-0.02612603269517422,0,0,0,-1,-1,19981.40744716667,unknown,2,2025-04-21T16:26:36.905+03:00,2025-04-20T21:57:49.637+03:00,6771,0.9848602,0,0,5553.922,5,6,2025-04-21T16:23:41.500+03:00,766934822.7975621,0,-38.88,100.199,1,0.35,2025-04-21T16:27:02.480+03:00,97,1.616666666666667,2025-04-21T12:30:07.995+03:00,0.02023345852159405,0
2025-04-21T16:27:05.213+03:00,1745242023.231771,40.95225055938123,29.1403145136162,75.80261,-1,-1,-1,-1,30,32.72624310773018,-9999,20009.71056041667,-0.8398284912109375,0.6332550048828125,-0.10205078125,20009.70552141667,1.473831736431588,-1.539429611557859,-0.5892635237519583,-0.1609161347150803,0.09334474056959152,-0.02198714017868042,-0.01148134469985962,0.08003884553909302,-0.07236218452453613,XArbitraryZVertical,0.2930923012167229,-0.633293519359363,0.61143624121581,0.3730707241522875,-0.8309410810470581,0.5557488799095154,-0.02607244253158569,0,0,0,-1,-1,19981.40744716667,unknown,2,2025-04-21T16:26:36.905+03:00,2025-04-20T21:57:49.637+03:00,6771,0.9848602,0,0,5553.922,5,6,2025-04-21T16:23:41.500+03:00,766934822.7975621,0,-38.88,100.199,1,0.35,2025-04-21T16:27:02.480+03:00,97,1.616666666666667,2025-04-21T12:30:07.995+03:00,0.02023345852159405,0
2025-04-21T16:27:05.223+03:00,1745242023.231771,40.95225055938123,29.1403145136162,75.80261,-1,-1,-1,-1,30,32.72624310773018,-9999,20009.72063641667,-0.84417724609375,0.60107421875,-0.099273681640625,20009.71559841667,1.471505239454164,-1.539677141402538,-0.5892741764602225,-0.2406038343906403,0.1058764532208443,0.02068372257053852,-0.008566379547119141,0.07479625940322876,-0.07542145252227783,XArbitraryZVertical,0.2924276238286346,-0.633681937658216,0.6109675444639795,0.3737000490467006,-0.8309414982795715,0.5557577610015869,-0.02586657367646694,0,0,0,-1,-1,19981.40744716667,unknown,2,2025-04-21T16:26:36.905+03:00,2025-04-20T21:57:49.637+03:00,6771,0.9848602,0,0,5553.922,5,6,2025-04-21T16:23:41.500+03:00,766934822.7975621,0,-38.88,100.199,1,0.35,2025-04-21T16:27:02.480+03:00,97,1.616666666666667,2025-04-21T12:30:07.995+03:00,0.02023345852159405,0
2025-04-21T16:27:05.233+03:00,1745242023.231771,40.95225055938123,29.1403145136162,75.80261,-1,-1,-1,-1,30,32.72624310773018,-9999,20009.73071241667,-0.8405609130859375,0.56939697265625,-0.1097564697265625,20009.72567441667,1.467972284596888,-1.540675425598711,-0.5897394792099013,-0.3615750074386597,0.07384128868579865,0.05175003036856651,-0.01459789276123047,0.04064178466796875,-0.07540428638458252,XArbitraryZVertical,0.2914622193139743,-0.6344565765328063,0.6102435979358903,0.3743222737340504,-0.830708384513855,0.5561445355415344,-0.02502925507724285,0,0,0,-1,-1,19981.40744716667,unknown,2,2025-04-21T16:26:36.905+03:00,2025-04-20T21:57:49.637+03:00,6771,0.9848602,0,0,5553.922,5,6,2025-04-21T16:23:41.500+03:00,766934822.7975621,0,-38.88,100.199,1,0.35,2025-04-21T16:27:02.480+03:00,97,1.616666666666667,2025-04-21T12:30:07.995+03:00,0.02023345852159405,0
2025-04-21T16:27:05.243+03:00,1745242023.231771,40.95225055938123,29.1403145136162,75.80261,-1,-1,-1,-1,30,32.72624310773018,-9999,20009.74078941667,-0.832061767578125,0.54815673828125,-0.116424560546875,20009.73575141667,1.462391337656104,-1.542915519982546,-0.590569833090271,-0.5647581219673157,0.09181848913431168,0.0969628170132637,-0.009466767311096191,0.01045668125152588,-0.08853906393051147,XArbitraryZVertical,0.2901045375238836,-0.6358157209382461,0.609020213744453,0.3750627693364366,-0.8303006887435913,0.5568344593048096,-0.023155452683568,0,0,0,-1,-1,19981.40744716667,unknown,2,2025-04-21T16:26:36.905+03:00,2025-04-20T21:57:49.637+03:00,6771,0.9848602,0,0,5553.922,5,6,2025-04-21T16:23:41.500+03:00,766934822.7975621,0,-38.88,100.199,1,0.35,2025-04-21T16:27:02.480+03:00,97,1.616666666666667,2025-04-21T12:30:07.995+03:00,0.02023345852159405,0
2025-04-21T16:27:05.253+03:00,1745242023.231771,40.95225055938123,29.1403145136162,75.80261,-1,-1,-1,-1,30,32.72624310773018,-9999,20009.75086566667,-0.8317108154296875,0.533538818359375,-0.1347198486328125,20009.74582766667,1.454857152478369,-1.546284486444392,-0.5919507717331266,-0.6676831841468811,0.0713113471865654,0.1499232351779938,-0.002457261085510254,-0.01315075159072876,-0.09693998098373413,XArbitraryZVertical,0.2882838924195771,-0.6377482220355952,0.6073662978640885,0.3758666717390308,-0.82960444688797,0.5579809546470642,-0.02033920586109161,0,0,0,-1,-1,19981.40744716667,unknown,2,2025-04-21T16:26:36.905+03:00,2025-04-20T21:57:49.637+03:00,6771,0.9848602,0,0,5553.922,5,6,2025-04-21T16:23:41.500+03:00,766934822.7975621,0,-38.88,100.199,1,0.35,2025-04-21T16:27:02.480+03:00,97,1.616666666666667,2025-04-21T12:30:07.995+03:00,0.02023345852159405,0
2025-04-21T16:27:05.263+03:00,1745242023.231771,40.95225055938123,29.1403145136162,75.80261,-1,-1,-1,-1,30,32.72624310773018,-9999,20009.76094166667,-0.8324127197265625,0.5684967041015625,-0.1754913330078125,20009.75590366667,1.446580384883017,-1.550589823652322,-0.5936875428886138,-0.6881532073020935,-0.01934198662638664,0.1529027223587036,-0.002767801284790039,-0.02409744262695312,-0.1228398680686951,XArbitraryZVertical,0.2863835196244805,-0.6400083076548652,0.6055051677321013,0.376479961140711,-0.8287140130996704,0.5594213604927063,-0.01674769073724747,0,0,0,-1,-1,19981.40744716667,unknown,2,2025-04-21T16:26:36.905+03:00,2025-04-20T21:57:49.637+03:00,6771,0.9848602,0,0,5553.922,5,6,2025-04-21T16:23:41.500+03:00,766934822.7975621,0,-38.88,100.199,1,0.35,2025-04-21T16:27:02.480+03:00,97,1.616666666666667,2025-04-21T12:30:07.995+03:00,0.02023345852159405,0
2025-04-21T16:27:05.273+03:00,1745242023.231771,40.95225055938123,29.1403145136162,75.80261,-1,-1,-1,-1,30,32.72624310773018,-9999,20009.77101866667,-0.835418701171875,0.607025146484375,-0.1857757568359375,20009.76598066667,1.438735229769247,-1.555464848819541,-0.5953297730505051,-0.5967780351638794,-0.07454798370599747,0.1506251841783524,-0.003997147083282471,0.01419967412948608,-0.1663076281547546,XArbitraryZVertical,0.2848103162415212,-0.642289950640859,0.6036314890669058,0.3767964875635041,-0.8278661370277405,0.5607818365097046,-0.01269340608268976,0,0,0,-1,-1,19981.40744716667,unknown,2,2025-04-21T16:26:36.905+03:00,2025-04-20T21:57:49.637+03:00,6771,0.9848602,0,0,5553.922,5,6,2025-04-21T16:23:41.500+03:00,766934822.7975621,0,-38.88,100.199,1,0.35,2025-04-21T16:27:02.480+03:00,97,1.616666666666667,2025-04-21T12:30:07.995+03:00,0.02023345852159405,0
2025-04-21T16:27:05.283+03:00,1745242023.231771,40.95225055938123,29.1403145136162,75.80261,-1,-1,-1,-1,30,32.72624310773018,-9999,20009.78109466667,-0.847259521484375,0.6256103515625,-0.178955078125,20009.77605666667,1.4325475671214,-1.560027174315066,-0.5968917098674034,-0.4158791303634644,-0.1437564045190811,0.144722118973732,-0.009783744812011719,0.04754465818405151,-0.1755720973014832,XArbitraryZVertical,0.2836891374981281,-0.6442569734011887,0.6021051073916786,0.3767265515652312,-0.8270387649536133,0.5620743632316589,-0.008906850591301918,0,0,0,-1,-1,19981.40744716667,unknown,2,2025-04-21T16:26:36.905+03:00,2025-04-20T21:57:49.637+03:00,6771,0.9848602,0,0,5553.922,5,6,2025-04-21T16:23:41.500+03:00,766934822.7975621,0,-38.88,100.199,1,0.35,2025-04-21T16:27:02.480+03:00,97,1.616666666666667,2025-04-21T12:30:07.995+03:00,0.02023345852159405,0
2025-04-21T16:27:05.293+03:00,1745242023.231771,40.95225055938123,29.1403145136162,75.80261,-1,-1,-1,-1,30,32.72624310773018,-9999,20009.79117166667,-0.85675048828125,0.6207427978515625,-0.1761322021484375,20009.78613266667,1.428529268349559,-1.564189339260499,-0.5981672545617844,-0.2486163526773453,-0.2246198356151581,0.09557826817035675,-0.02161037921905518,0.0631527304649353,-0.173205554485321,XArbitraryZVertical,0.2832316192132103,-0.6457940574495191,0.6009953349423466,0.3762107077927569,-0.8263510465621948,0.5631288886070251,-0.005459770560264587,0,0,0,-1,-1,19981.40744716667,unknown,2,2025-04-21T16:26:36.905+03:00,2025-04-20T21:57:49.637+03:00,6771,0.9848602,0,0,5553.922,5,6,2025-04-21T16:23:41.500+03:00,766934822.7975621,0,-38.88,100.199,1,0.35,2025-04-21T16:27:02.480+03:00,97,1.616666666666667,2025-04-21T12:30:07.995+03:00,0.02023345852159405,0
2025-04-21T16:27:05.303+03:00,1745242023.231771,40.95225055938123,29.1403145136162,75.80261,-1,-1,-1,-1,30,32.72624310773018,-9999,20009.80124766667,-0.8780670166015625,0.6060638427734375,-0.1591644287109375,20009.79620966667,1.426363901866374,-1.567846578834931,-0.5990030077473383,-0.1293357610702515,-0.2513185739517212,0.07267322391271591,-0.03273278474807739,0.05493968725204468,-0.1726128458976746,XArbitraryZVertical,0.2833592983277294,-0.6469075778202216,0.6002261469035987,0.3754285587930267,-0.8258944749832153,0.5638193488121033,-0.002436187583953142,0,0,0,-1,-1,19981.40744716667,unknown,2,2025-04-21T16:26:36.905+03:00,2025-04-20T21:57:49.637+03:00,6771,0.9848602,0,0,5553.922,5,6,2025-04-21T16:23:41.500+03:00,766934822.7975621,0,-38.88,100.199,1,0.35,2025-04-21T16:27:02.480+03:00,97,1.616666666666667,2025-04-21T12:30:07.995+03:00,0.02023345852159405,0
2025-04-21T16:27:05.314+03:00,1745242023.231771,40.95225055938123,29.1403145136162,75.80261,-1,-1,-1,-1,30,32.72624310773018,-9999,20009.81132366667,-0.8860931396484375,0.6031341552734375,-0.1474761962890625,20009.80628566667,1.42504069697234,-1.57119847572911,-0.5998117087602337,-0.08877182751893997,-0.260334700345993,0.09228500723838806,-0.05505144596099854,0.0399438738822937,-0.1571924686431885,XArbitraryZVertical,0.2836745648612562,-0.6478384956814163,0.5996541749756892,0.3744978995104541,-0.8254415988922119,0.5644870400428772,0.0003319504612591118,0,0,0,-1,-1,19981.40744716667,unknown,2,2025-04-21T16:26:36.905+03:00,2025-04-20T21:57:49.637+03:00,6771,0.9848602,0,0,5553.922,5,6,2025-04-21T16:23:41.500+03:00,766934822.7975621,0,-38.88,100.199,1,0.35,2025-04-21T16:27:02.480+03:00,97,1.616666666666667,2025-04-21T12:30:07.995+03:00,0.02023345852159405,0
2025-04-21T16:27:05.323+03:00,1745242023.231771,40.95225055938123,29.1403145136162,75.80261,-1,-1,-1,-1,30,32.72624310773018,-9999,20009.82140066667,-0.8853607177734375,0.6204833984375,-0.1506500244140625,20009.81636266667,1.423760520608014,-1.574690136879977,-0.6008608544319178,-0.1352791339159012,-0.2904047071933746,0.1165975332260132,-0.06022787094116211,0.0394291877746582,-0.1501846313476562,XArbitraryZVertical,0.2839663087153619,-0.648821265207185,0.599116209394875,0.3734349983657897,-0.8248427510261536,0.565352737903595,0.003211797447875142,0,0,0,-1,-1,19981.40744716667,unknown,2,2025-04-21T16:26:36.905+03:00,2025-04-20T21:57:49.637+03:00,6771,0.9848602,0,0,5553.922,5,6,2025-04-21T16:23:41.500+03:00,766934822.7975621,0,-38.88,100.199,1,0.35,2025-04-21T16:27:02.480+03:00,97,1.616666666666667,2025-04-21T12:30:07.995+03:00,0.02023345852159405,0
2025-04-21T16:27:05.333+03:00,1745242023.231771,40.95225055938123,29.1403145136162,75.80261,-1,-1,-1,-1,30,32.72624310773018,-9999,20009.83147666667,-0.8907012939453125,0.63983154296875,-0.15313720703125,20009.82643866667,1.421649136569576,-1.578952747080717,-0.602127657769272,-0.1943214237689972,-0.3150072693824768,0.136200800538063,-0.0622628927230835,0.05628329515457153,-0.159035325050354,XArbitraryZVertical,0.2841467911788667,-0.6500934921391754,0.5983558259463192,0.3723026929647829,-0.824104905128479,0.5663972496986389,0.006721894722431898,0,0,0,-1,-1,19981.40744716667,unknown,2,2025-04-21T16:26:36.905+03:00,2025-04-20T21:57:49.637+03:00,6771,0.9848602,0,0,5553.922,5,6,2025-04-21T16:23:41.500+03:00,766934822.7975621,0,-38.88,100.199,1,0.35,2025-04-21T16:27:02.480+03:00,97,1.616666666666667,2025-04-21T12:30:07.995+03:00,0.02023345852159405,0
2025-04-21T16:27:05.344+03:00,1745242023.231771,40.95225055938123,29.1403145136162,75.80261,-1,-1,-1,-1,30,32.72624310773018,-9999,20009.84155266667,-0.87921142578125,0.656158447265625,-0.1584930419921875,20009.83651466667,1.418954527255319,-1.584045146532294,-0.6037018646802006,-0.2556420564651489,-0.3929382860660553,0.1815818697214127,-0.06709140539169312,0.07460939884185791,-0.1640135049819946,XArbitraryZVertical,0.2842831450655866,-0.6516413197359312,0.5974294122249602,0.3709778553788736,-0.8231672048568726,0.5676938891410828,0.01090663205832243,0,0,0,-1,-1,19981.40744716667,unknown,2,2025-04-21T16:26:36.905+03:00,2025-04-20T21:57:49.637+03:00,6771,0.9848602,0,0,5553.922,5,6,2025-04-21T16:23:41.500+03:00,766934822.7975621,0,-38.88,100.199,1,0.35,2025-04-21T16:27:02.480+03:00,97,1.616666666666667,2025-04-21T12:30:07.995+03:00,0.02023345852159405,0
2025-04-21T16:27:05.354+03:00,1745242023.231771,40.95225055938123,29.1403145136162,75.80261,-1,-1,-1,-1,30,32.72624310773018,-9999,20009.85162966667,-0.8612213134765625,0.657501220703125,-0.1463775634765625,20009.84659166667,1.415309482608875,-1.590353673213828,-0.605681546911748,-0.331886500120163,-0.443241685628891,0.2200096845626831,-0.05426377058029175,0.08790385723114014,-0.1750893592834473,XArbitraryZVertical,0.284336400880592,-0.653598869988423,0.5962349145999288,0.3694117501776268,-0.8219568133354187,0.5693225264549255,0.01607734337449074,0,0,0,-1,-1,19981.40744716667,unknown,2,2025-04-21T16:26:36.905+03:00,2025-04-20T21:57:49.637+03:00,6771,0.9848602,0,0,5553.922,5,6,2025-04-21T16:23:41.500+03:00,766934822.7975621,0,-38.88,100.199,1,0.35,2025-04-21T16:27:02.480+03:00,97,1.616666666666667,2025-04-21T12:30:07.995+03:00,0.02023345852159405,0
2025-04-21T16:27:05.364+03:00,1745242023.231771,40.95225055938123,29.1403145136162,75.80261,-1,-1,-1,-1,30,32.72624310773018,-9999,20009.86170566667,-0.860321044921875,0.639312744140625,-0.13494873046875,20009.85666766667,1.411268016284118,-1.597383662873325,-0.6080259647338675,-0.3129767179489136,-0.4944702386856079,0.2652437388896942,-0.03952872753143311,0.08458954095840454,-0.1658781766891479,XArbitraryZVertical,0.2843495979583194,-0.6557859105306291,0.5949403663901319,0.3676085536798837,-0.8204871416091919,0.5712483525276184,0.0218197088688612,0,0,0,-1,-1,19981.40744716667,unknown,2,2025-04-21T16:26:36.905+03:00,2025-04-20T21:57:49.637+03:00,6771,0.9848602,0,0,5553.922,5,6,2025-04-21T16:23:41.500+03:00,766934822.7975621,0,-38.88,100.199,1,0.35,2025-04-21T16:27:02.480+03:00,97,1.616666666666667,2025-04-21T12:30:07.995+03:00,0.02023345852159405,0
2025-04-21T16:27:05.374+03:00,1745242023.231771,40.95225055938123,29.1403145136162,75.80261,-1,-1,-1,-1,30,32.72624310773018,-9999,20009.87178266667,-0.8613433837890625,0.6383209228515625,-0.1221771240234375,20009.86674366667,1.407807986823987,-1.604616793456378,-0.6107822447140333,-0.2184650450944901,-0.5422645807266235,0.2966808080673218,-0.04136097431182861,0.06388157606124878,-0.1619627475738525,XArbitraryZVertical,0.2844731511079335,-0.6579705486599037,0.5938099192223284,0.365430666826355,-0.8187311887741089,0.5735084414482117,0.02770043350756168,0,0,0,-1,-1,19981.40744716667,unknown,2,2025-04-21T16:26:36.905+03:00,2025-04-20T21:57:49.637+03:00,6771,0.9848602,0,0,5553.922,5,6,2025-04-21T16:23:41.500+03:00,766934822.7975621,0,-38.88,100.199,1,0.35,2025-04-21T16:27:02.480+03:00,97,1.616666666666667,2025-04-21T12:30:07.995+03:00,0.02023345852159405,0
2025-04-21T16:27:05.384+03:00,1745242023.231771,40.95225055938123,29.1403145136162,75.80261,-1,-1,-1,-1,30,32.72624310773018,-9999,20009.88185866667,-0.864990234375,0.666015625,-0.100311279296875,20009.87682066667,1.405502183593763,-1.611599323278936,-0.6138225802641999,-0.132377564907074,-0.5825867056846619,0.3144826889038086,-0.0443427562713623,0.06493359804153442,-0.1525623798370361,XArbitraryZVertical,0.284804770694905,-0.659968834733386,0.592986885968572,0.3628964683027343,-0.8167716860771179,0.575996458530426,0.03334524109959602,0,0,0,-1,-1,19981.40744716667,unknown,2,2025-04-21T16:26:36.905+03:00,2025-04-20T21:57:49.637+03:00,6771,0.9848602,0,0,5553.922,5,6,2025-04-21T16:23:41.500+03:00,766934825.3700433,0,-38.84,100.199,1,0.35,2025-04-21T16:27:02.480+03:00,97,1.616666666666667,2025-04-21T12:30:07.995+03:00,0.02023345852159405,0
2025-04-21T16:27:05.394+03:00,1745242023.231771,40.95225055938123,29.1403145136162,75.80261,-1,-1,-1,-1,30,32.72624310773018,-9999,20009.89193466667,-0.874786376953125,0.697967529296875,-0.0908660888671875,20009.88689666667,1.403978540489735,-1.61864522954592,-0.61679150911488,-0.1041065752506256,-0.6313028931617737,0.2860968112945557,-0.05081111192703247,0.09154671430587769,-0.1374825239181519,XArbitraryZVertical,0.2854327355594649,-0.6618434880349663,0.5922866213783543,0.3601220331539877,-0.8148048520088196,0.578420877456665,0.03901729732751846,0,0,0,-1,-1,19981.40744716667,unknown,2,2025-04-21T16:26:36.905+03:00,2025-04-20T21:57:49.637+03:00,6771,0.9848602,0,0,5553.922,5,6,2025-04-21T16:23:41.500+03:00,766934825.3700433,0,-38.84,100.199,1,0.35,2025-04-21T16:27:02.480+03:00,97,1.616666666666667,2025-04-21T12:30:07.995+03:00,0.02023345852159405,0
2025-04-21T16:27:05.404+03:00,1745242023.231771,40.95225055938123,29.1403145136162,75.80261,-1,-1,-1,-1,30,32.72624310773018,-9999,20009.90201166667,-0.8791961669921875,0.700592041015625,-0.078826904296875,20009.89697366667,1.402785667765067,-1.625915747532322,-0.6194902398561308,-0.07712455838918686,-0.6723201870918274,0.2600060403347015,-0.06334376335144043,0.1194834113121033,-0.1346827745437622,XArbitraryZVertical,0.2863210495533619,-0.6636620441916065,0.5915628269821029,0.3572482499994082,-0.8129379749298096,0.5806202292442322,0.04485410451889038,0,0,0,-1,-1,19981.40744716667,unknown,2,2025-04-21T16:26:36.905+03:00,2025-04-20T21:57:49.637+03:00,6771,0.9848602,0,0,5553.922,5,6,2025-04-21T16:23:41.500+03:00,766934825.3700433,0,-38.84,100.199,1,0.35,2025-04-21T16:27:02.480+03:00,97,1.616666666666667,2025-04-21T12:30:07.995+03:00,0.02023345852159405,0
2025-04-21T16:27:05.414+03:00,1745242023.231771,40.95225055938123,29.1403145136162,75.80261,-1,-1,-1,-1,30,32.72624310773018,-9999,20009.91208766667,-0.881439208984375,0.684539794921875,-0.0829620361328125,20009.90704966667,1.401849027580774,-1.633398427013584,-0.6219908388762688,-0.05241521447896957,-0.7050526142120361,0.244589552283287,-0.06843435764312744,0.1162439584732056,-0.1290767192840576,XArbitraryZVertical,0.2874183529012798,-0.6654420115552255,0.5908158669265735,0.354279897136683,-0.8111280798912048,0.5826542973518372,0.05084476247429848,0,0,0,-1,-1,19981.40744716667,unknown,2,2025-04-21T16:26:36.905+03:00,2025-04-20T21:57:49.637+03:00,6771,0.9848602,0,0,5553.922,5,6,2025-04-21T16:23:41.500+03:00,766934825.3700433,0,-38.84,100.199,1,0.35,2025-04-21T16:27:02.480+03:00,97,1.616666666666667,2025-04-21T12:30:07.995+03:00,0.02023345852159405,0
2025-04-21T16:27:05.424+03:00,1745242023.231771,40.95225055938123,29.1403145136162,75.80261,-1,-1,-1,-1,30,32.72624310773018,-9999,20009.92216366667,-0.8791961669921875,0.6899566650390625,-0.0809326171875,20009.91712566667,1.401204388272925,-1.640978134582255,-0.6243802499908748,-0.03340983390808105,-0.7223923802375793,0.2406748384237289,-0.07246196269989014,0.09951776266098022,-0.1405118703842163,XArbitraryZVertical,0.2886750400740409,-0.6671682674502356,0.5900838116351462,0.3512181417887669,-0.8093281388282776,0.5845945477485657,0.05689354985952377,0,0,0,-1,-1,19981.40744716667,unknown,2,2025-04-21T16:26:36.905+03:00,2025-04-20T21:57:49.637+03:00,6771,0.9848602,0,0,5553.922,5,6,2025-04-21T16:23:41.500+03:00,766934825.3700433,0,-38.84,100.199,1,0.35,2025-04-21T16:27:02.480+03:00,97,1.616666666666667,2025-04-21T12:30:07.995+03:00,0.02023345852159405,0
2025-04-21T16:27:05.435+03:00,1745242023.231771,40.95225055938123,29.1403145136162,75.80261,-1,-1,-1,-1,30,32.72624310773018,-9999,20009.93224066667,-0.8468780517578125,0.708709716796875,-0.05609130859375,20009.92720266667,1.401033954231133,-1.648635083802121,-0.6266533562235972,0.05176391452550888,-0.7736089825630188,0.2119808793067932,-0.06848037242889404,0.105853796005249,-0.1423617601394653,XArbitraryZVertical,0.2901481829583592,-0.6688099043765534,0.589398422489285,0.3480182428973883,-0.8075418472290039,0.5864372849464417,0.06298531591892242,0,0,0,-1,-1,19981.40744716667,unknown,2,2025-04-21T16:26:36.905+03:00,2025-04-20T21:57:49.637+03:00,6771,0.9848602,0,0,5553.922,5,6,2025-04-21T16:23:41.500+03:00,766934825.3700433,0,-38.84,100.199,1,0.35,2025-04-21T16:27:02.480+03:00,97,1.616666666666667,2025-04-21T12:30:07.995+03:00,0.02023345852159405,0
2025-04-21T16:27:05.445+03:00,1745242023.231771,40.95225055938123,29.1403145136162,75.80261,-1,-1,-1,-1,30,32.72624310773018,-9999,20009.94231666667,-0.82708740234375,0.717987060546875,-0.0361785888671875,20009.93727866667,1.402238501928607,-1.655860337646959,-0.6287206050231721,0.1705260574817657,-0.7937983274459839,0.1792673170566559,-0.03760391473770142,0.1220945119857788,-0.1205189153552055,XArbitraryZVertical,0.2920192644819348,-0.6701360613258588,0.5889685165884933,0.3446135557911094,-0.8058562278747559,0.5881105065345764,0.06871518492698669,0,0,0,-1,-1,19981.40744716667,unknown,2,2025-04-21T16:26:36.905+03:00,2025-04-20T21:57:49.637+03:00,6771,0.9848602,0,0,5553.922,5,6,2025-04-21T16:23:41.500+03:00,766934825.3700433,0,-38.84,100.199,1,0.35,2025-04-21T16:27:02.480+03:00,97,1.616666666666667,2025-04-21T12:30:07.995+03:00,0.02023345852159405,0
2025-04-21T16:27:05.455+03:00,1745242023.231771,40.95225055938123,29.1403145136162,75.80261,-1,-1,-1,-1,30,32.72624310773018,-9999,20009.95239366667,-0.829010009765625,0.7195281982421875,-0.012908935546875,20009.94735466667,1.405091084610481,-1.662291076913136,-0.6305365861143619,0.3206537663936615,-0.8133182525634766,0.1437380909919739,-0.02243417501449585,0.12947678565979,-0.1081917285919189,XArbitraryZVertical,0.2942902793190169,-0.6710382747058348,0.5888786595030159,0.3410611971022187,-0.8043327927589417,0.5895782709121704,0.07379826903343201,0,0,0,-1,-1,19981.40744716667,unknown,2,2025-04-21T16:26:36.905+03:00,2025-04-20T21:57:49.637+03:00,6771,0.9848602,0,0,5553.922,5,6,2025-04-21T16:23:41.500+03:00,766934825.3700433,0,-38.84,100.199,1,0.35,2025-04-21T16:27:02.480+03:00,97,1.616666666666667,2025-04-21T12:30:07.995+03:00,0.02023345852159405,0
2025-04-21T16:27:05.465+03:00,1745242023.231771,40.95225055938123,29.1403145136162,75.80261,-1,-1,-1,-1,30,32.72624310773018,-9999,20009.96246966667,-0.8335113525390625,0.699798583984375,0.0190277099609375,20009.95743166667,1.409546203010628,-1.667874345259952,-0.6322000009686591,0.4098916351795197,-0.8206931948661804,0.1173024103045464,-0.02655214071273804,0.128530740737915,-0.08640218526124954,XArbitraryZVertical,0.2969007121693303,-0.6715253704667673,0.5891424952788972,0.3373640825206552,-0.8029307126998901,0.5909209847450256,0.07819271087646484,0,0,0,-1,-1,19981.40744716667,unknown,2,2025-04-21T16:26:36.905+03:00,2025-04-20T21:57:49.637+03:00,6771,0.9848602,0,0,5553.922,5,6,2025-04-21T16:23:41.500+03:00,766934825.3700433,0,-38.84,100.199,1,0.35,2025-04-21T16:27:02.480+03:00,97,1.616666666666667,2025-04-21T12:30:07.995+03:00,0.02023345852159405,0
2025-04-21T16:27:05.475+03:00,1745242023.231771,40.95225055938123,29.1403145136162,75.80261,-1,-1,-1,-1,30,32.72624310773018,-9999,20009.97254566667,-0.830780029296875,0.6686859130859375,0.056365966796875,20009.96750766667,1.414568431267372,-1.673183599768445,-0.6336971508552174,0.4121321439743042,-0.8209792375564575,0.09820035845041275,-0.03132325410842896,0.1035199165344238,-0.05978119373321533,XArbitraryZVertical,0.299676458154693,-0.6718452566445875,0.5894931174437412,0.3336401306643273,-0.801623523235321,0.5921280980110168,0.08236405998468399,0,0,0,-1,-1,19981.40744716667,unknown,2,2025-04-21T16:26:36.905+03:00,2025-04-20T21:57:49.637+03:00,6771,0.9848602,0,0,5553.922,5,6,2025-04-21T16:23:41.500+03:00,766934825.3700433,0,-38.84,100.199,1,0.35,2025-04-21T16:27:02.480+03:00,97,1.616666666666667,2025-04-21T12:30:07.995+03:00,0.02023345852159405,0
2025-04-21T16:27:05.485+03:00,1745242023.231771,40.95225055938123,29.1403145136162,75.80261,-1,-1,-1,-1,30,32.72624310773018,-9999,20009.98262266667,-0.8218994140625,0.6349945068359375,0.093292236328125,20009.97758466667,1.420017783125313,-1.678209413551977,-0.635063015138378,0.4740419387817383,-0.8166545033454895,0.08706597983837128,-0.02881383895874023,0.07217687368392944,-0.02440035343170166,XArbitraryZVertical,0.3025565195406588,-0.6720208780353815,0.5899138182220884,0.329922752275027,-0.8003944754600525,0.5932282209396362,0.08630501478910446,0,0,0,-1,-1,19981.40744716667,unknown,2,2025-04-21T16:26:36.905+03:00,2025-04-20T21:57:49.637+03:00,6771,0.9848602,0,0,5553.922,5,6,2025-04-21T16:23:41.500+03:00,766934825.3700433,0,-38.84,100.199,1,0.35,2025-04-21T16:27:02.480+03:00,97,1.616666666666667,2025-04-21T12:30:07.995+03:00,0.02023345852159405,0
2025-04-21T16:27:05.495+03:00,1745242023.231771,40.95225055938123,29.1403145136162,75.80261,-1,-1,-1,-1,30,32.72624310773018,-9999,20009.99269866667,-0.8135833740234375,0.60791015625,0.10870361328125,20009.98766066667,1.426065181692334,-1.68278347035261,-0.6365098661204713,0.5071897506713867,-0.7951270937919617,0.09449460357427597,-0.02184617519378662,0.03628379106521606,0.005147106945514679,XArbitraryZVertical,0.3054810234696282,-0.6720237528530471,0.5904995376457176,0.326152898450181,-0.7991377711296082,0.5943923592567444,0.08986915647983551,0,0,0,-1,-1,19981.40744716667,unknown,2,2025-04-21T16:26:36.905+03:00,2025-04-20T21:57:49.637+03:00,6771,0.9848602,0,0,5553.922,5,6,2025-04-21T16:23:41.500+03:00,766934825.3700433,0,-38.84,100.199,1,0.35,2025-04-21T16:27:02.480+03:00,97,1.616666666666667,2025-04-21T12:30:07.995+03:00,0.02023345852159405,0
2025-04-21T16:27:05.505+03:00,1745242023.231771,40.95225055938123,29.1403145136162,75.80261,-1,-1,-1,-1,30,32.72624310773018,-9999,20010.00277566667,-0.8055267333984375,0.60711669921875,0.1357879638671875,20009.99773666667,1.432283972843297,-1.687007975036277,-0.638026678277649,0.5152036547660828,-0.7781393527984619,0.08969741314649582,-0.01524060964584351,0.01200860738754272,0.0181424617767334,XArbitraryZVertical,0.3083401783881807,-0.6719346391811046,0.5911619625037545,0.3224245933761176,-0.797854483127594,0.5956115126609802,0.0931396484375,0,0,0,-1,-1,19981.40744716667,unknown,2,2025-04-21T16:26:36.905+03:00,2025-04-20T21:57:49.637+03:00,6771,0.9848602,0,0,5553.922,5,6,2025-04-21T16:23:41.500+03:00,766934825.3700433,0,-38.84,100.199,1,0.35,2025-04-21T16:27:02.480+03:00,97,1.616666666666667,2025-04-21T12:30:07.995+03:00,0.02023345852159405,0
2025-04-21T16:27:05.515+03:00,1745242023.231771,40.95225055938123,29.1403145136162,75.80261,-1,-1,-1,-1,30,32.72624310773018,-9999,20010.01285166667,-0.7837677001953125,0.5866241455078125,0.164215087890625,20010.00781366667,1.43865506153161,-1.690897255608637,-0.6394302041770864,0.5177528262138367,-0.7425574064254761,0.06982117146253586,-0.007559001445770264,0.009126961231231689,0.04309450834989548,XArbitraryZVertical,0.3111889878728517,-0.6717382610697237,0.5918598943434336,0.3187959191178215,-0.7966554164886475,0.596738338470459,0.0961417555809021,0,0,0,-1,-1,19981.40744716667,unknown,2,2025-04-21T16:26:36.905+03:00,2025-04-20T21:57:49.637+03:00,6771,0.9848602,0,0,5553.922,5,6,2025-04-21T16:23:41.500+03:00,766934825.3700433,0,-38.84,100.199,1,0.35,2025-04-21T16:27:02.480+03:00,97,1.616666666666667,2025-04-21T12:30:07.995+03:00,0.02023345852159405,0
2025-04-21T16:27:05.525+03:00,1745242023.231771,40.95225055938123,29.1403145136162,75.80261,-1,-1,-1,-1,30,32.72624310773018,-9999,20010.02292766667,-0.7602996826171875,0.5575103759765625,0.1875,20010.01788966667,1.444659160122066,-1.694731824042778,-0.6406507312199542,0.4725053310394287,-0.7325003743171692,0.05144409835338593,0.01499432325363159,-0.01466375589370728,0.06779469549655914,XArbitraryZVertical,0.3139572794970902,-0.671553217660557,0.592454448140645,0.3153488248694773,-0.7955577969551086,0.59771728515625,0.09910579770803452,0,0,0,-1,-1,19981.40744716667,unknown,2,2025-04-21T16:26:36.905+03:00,2025-04-20T21:57:49.637+03:00,6771,0.9848602,0,0,5553.922,5,6,2025-04-21T16:23:41.500+03:00,766934825.3700433,0,-38.84,100.199,1,0.35,2025-04-21T16:27:02.480+03:00,97,1.616666666666667,2025-04-21T12:30:07.995+03:00,0.02023345852159405,0
2025-04-21T16:27:05.535+03:00,1745242023.231771,40.95225055938123,29.1403145136162,75.80261,-1,-1,-1,-1,30,32.72624310773018,-9999,20010.03300466667,-0.7434539794921875,0.52978515625,0.2235107421875,20010.02796566667,1.450279421518884,-1.698624303039161,-0.6417159009839009,0.4291112720966339,-0.7054698467254639,0.04352279379963875,0.03629416227340698,-0.04330360889434814,0.08952964842319489,XArbitraryZVertical,0.3166639560463221,-0.6714046384940573,0.5929329434447608,0.3120421110373049,-0.7945340275764465,0.5985708832740784,0.1021204963326454,0,0,0,-1,-1,19981.40744716667,unknown,2,2025-04-21T16:26:36.905+03:00,2025-04-20T21:57:49.637+03:00,6771,0.9848602,0,0,5553.922,5,6,2025-04-21T16:23:41.500+03:00,766934825.3700433,0,-38.84,100.199,1,0.35,2025-04-21T16:27:02.480+03:00,97,1.616666666666667,2025-04-21T12:30:07.995+03:00,0.02023345852159405,0
2025-04-21T16:27:05.545+03:00,1745242023.231771,40.95225055938123,29.1403145136162,75.80261,-1,-1,-1,-1,30,32.72624310773018,-9999,20010.04308066667,-0.7250518798828125,0.5032501220703125,0.2724151611328125,20010.03804266667,1.45496127623631,-1.702697320019139,-0.642540165421607,0.3318189978599548,-0.6608571410179138,0.02344518713653088,0.05259412527084351,-0.07332175970077515,0.1242469400167465,XArbitraryZVertical,0.3191856902720902,-0.6713910272837025,0.5931751321786788,0.3090269399916842,-0.793621838092804,0.599230945110321,0.1052908301353455,0,0,0,-1,-1,19981.40744716667,unknown,2,2025-04-21T16:26:36.905+03:00,2025-04-20T21:57:49.637+03:00,6771,0.9848602,0,0,5553.922,5,6,2025-04-21T16:23:41.500+03:00,766934825.3700433,0,-38.84,100.199,1,0.35,2025-04-21T16:27:02.480+03:00,97,1.616666666666667,2025-04-21T12:30:07.995+03:00,0.02023345852159405,0
2025-04-21T16:27:05.555+03:00,1745242023.231771,40.95225055938123,29.1403145136162,75.80261,-1,-1,-1,-1,30,32.72624310773018,-9999,20010.05315666667,-0.7162017822265625,0.5066986083984375,0.301513671875,20010.04811866667,1.458793949813519,-1.706907493313151,-0.6430888437495976,0.2899067103862762,-0.6265218257904053,0.005284294486045837,0.06909090280532837,-0.09687793254852295,0.1689858436584473,XArbitraryZVertical,0.3215498072878752,-0.6714901346752589,0.5931985906993102,0.3063038161825091,-0.7928457856178284,0.5996701121330261,0.1085865572094917,0,0,0,-1,-1,19981.40744716667,unknown,2,2025-04-21T16:26:36.905+03:00,2025-04-20T21:57:49.637+03:00,6771,0.9848602,0,0,5553.922,5,6,2025-04-21T16:23:41.500+03:00,766934825.3700433,0,-38.84,100.199,1,0.35,2025-04-21T16:27:02.480+03:00,97,1.616666666666667,2025-04-21T12:30:07.995+03:00,0.02023345852159405,0
2025-04-21T16:27:05.566+03:00,1745242023.231771,40.95225055938123,29.1403145136162,75.80261,-1,-1,-1,-1,30,32.72624310773018,-9999,20010.06323366667,-0.718963623046875,0.5125274658203125,0.31829833984375,20010.05819566667,1.462281638547292,-1.710785334565903,-0.6434446896254165,0.272499680519104,-0.5535294413566589,-0.01292683370411396,0.07579201459884644,-0.09211200475692749,0.1914546489715576,XArbitraryZVertical,0.3237601043512337,-0.6715613441619974,0.5931752098526235,0.3038549471496407,-0.7922074198722839,0.5999548435211182,0.111630491912365,0,0,0,-1,-1,19981.40744716667,unknown,2,2025-04-21T16:26:36.905+03:00,2025-04-20T21:57:49.637+03:00,6771,0.9848602,0,0,5553.922,5,6,2025-04-21T16:23:41.500+03:00,766934825.3700433,0,-38.84,100.199,1,0.35,2025-04-21T16:27:02.480+03:00,97,1.616666666666667,2025-04-21T12:30:07.995+03:00,0.02023345852159405,0
