loggingTime(txt),locationTimestamp_since1970(s),locationLatitude(WGS84),locationLongitude(WGS84),locationAltitude(m),locationSpeed(m/s),locationSpeedAccuracy(m/s),locationCourse(°),locationCourseAccuracy(°),locationVerticalAccuracy(m),locationHorizontalAccuracy(m),locationFloor(Z),accelerometerTimestamp_sinceReboot(s),accelerometerAccelerationX(G),accelerometerAccelerationY(G),accelerometerAccelerationZ(G),motionTimestamp_sinceReboot(s),motionYaw(rad),motionRoll(rad),motionPitch(rad),motionRotationRateX(rad/s),motionRotationRateY(rad/s),motionRotationRateZ(rad/s),motionUserAccelerationX(G),motionUserAccelerationY(G),motionUserAccelerationZ(G),motionAttitudeReferenceFrame(txt),motionQuaternionX(R),motionQuaternionY(R),motionQuaternionZ(R),motionQuaternionW(R),motionGravityX(G),motionGravityY(G),motionGravityZ(G),motionMagneticFieldX(µT),motionMagneticFieldY(µT),motionMagneticFieldZ(µT),motionHeading(°),motionMagneticFieldCalibrationAccuracy(Z),activityTimestamp_sinceReboot(s),activity(txt),activityActivityConfidence(Z),activityActivityStartDate(txt),pedometerStartDate(txt),pedometerNumberofSteps(N),pedometerAverageActivePace(s/m),pedometerCurrentPace(s/m),pedometerCurrentCadence(steps/s),pedometerDistance(m),pedometerFloorAscended(N),pedometerFloorDescended(N),pedometerEndDate(txt),altimeterTimestamp_sinceReboot(s),altimeterReset(bool),altimeterRelativeAltitude(m),altimeterPressure(kPa),batteryState(N),batteryLevel(R),heartRateBPMTimestamp(txt),heartRateBPM(N),heartRateBPS(R),heartRateVariabilityTimestamp(txt),heartRateVariability(ms),label
2025-04-21T15:17:45.053+03:00,1745237858.398729,40.95225582986527,29.1403179372126,76.30476,-1,-1,-1,-1,30,26.56900642780171,-9999,18147.95668266667,-0.7845001220703125,0.46722412109375,-0.3719635009765625,18147.94660666667,2.548296411186683,-1.132569430967225,-0.4951473810721307,-0.01301659736782312,0.005014078691601753,-0.005511377938091755,-0.008026003837585449,-0.002001702785491943,0.001194238662719727,XArbitraryZVertical,-0.4369725733986188,0.3498131803679881,-0.8208641261077551,-0.1134360030804455,-0.7967530488967896,0.4751613438129425,-0.373371422290802,0,0,0,-1,-1,18145.10641779167,unknown,2,2025-04-21T15:17:42.177+03:00,2025-04-20T21:57:49.637+03:00,6664,0.9638649,0,0,5475.677,5,6,2025-04-21T15:17:44.757+03:00,766930664.8577851,0,-44.09,100.2613,1,0.45,2025-04-21T15:14:45.481+03:00,86,1.433333333333333,2025-04-21T12:30:07.995+03:00,0.02023345852159405,0
2025-04-21T15:17:45.055+03:00,1745237858.398729,40.95225582986527,29.1403179372126,76.30476,-1,-1,-1,-1,30,26.56900642780171,-9999,18147.96675866667,-0.7946014404296875,0.468902587890625,-0.373443603515625,18147.95668266667,2.548130809754834,-1.132595586427132,-0.4951345543911509,-0.01414364762604237,0.003914725966751575,-0.00506183598190546,-0.01527392864227295,-0.01142033934593201,-0.001707911491394043,XArbitraryZVertical,-0.4369566827174311,0.3498460738103167,-0.8208493088762789,-0.1135029730628015,-0.7967683076858521,0.4751500487327576,-0.3733531534671783,0,0,0,-1,-1,18145.10641779167,unknown,2,2025-04-21T15:17:42.177+03:00,2025-04-20T21:57:49.637+03:00,6664,0.9638649,0,0,5475.677,5,6,2025-04-21T15:17:44.757+03:00,766930664.8577851,0,-44.09,100.2613,1,0.45,2025-04-21T15:14:45.481+03:00,86,1.433333333333333,2025-04-21T12:30:07.995+03:00,0.02023345852159405,0
2025-04-21T15:17:45.055+03:00,1745237858.398729,40.95225582986527,29.1403179372126,76.30476,-1,-1,-1,-1,30,26.56900642780171,-9999,18147.97683566667,-0.8008880615234375,0.4731903076171875,-0.3747711181640625,18147.96675866667,2.548004834635788,-1.132558025705826,-0.4951473819835123,-0.0115313520655036,0.007243677042424679,-0.002018109429627657,0.01298105716705322,-0.006930321455001831,0.001233845949172974,XArbitraryZVertical,-0.4369169187982176,0.3498762273749639,-0.8208499869909354,-0.1135575797867001,-0.7967486977577209,0.4751613438129425,-0.3733804523944855,0,0,0,-1,-1,18145.10641779167,unknown,2,2025-04-21T15:17:42.177+03:00,2025-04-20T21:57:49.637+03:00,6664,0.9638649,0,0,5475.677,5,6,2025-04-21T15:17:44.757+03:00,766930664.8577851,0,-44.09,100.2613,1,0.45,2025-04-21T15:14:45.481+03:00,86,1.433333333333333,2025-04-21T12:30:07.995+03:00,0.02023345852159405,0
2025-04-21T15:17:45.063+03:00,1745237858.398729,40.95225582986527,29.1403179372126,76.30476,-1,-1,-1,-1,30,26.56900642780171,-9999,18147.98691166667,-0.796173095703125,0.472259521484375,-0.3748779296875,18147.97683566667,2.54790064844499,-1.132491595362646,-0.4951131263224159,-0.01057927217334509,0.007525173481553793,-0.002652474446222186,0.0002909302711486816,-0.00584721565246582,-0.0009798705577850342,XArbitraryZVertical,-0.4368776297080962,0.349882484027141,-0.8208595036955888,-0.1136216663140105,-0.7967387437820435,0.4751311838626862,-0.3734403550624847,0,0,0,-1,-1,18145.10641779167,unknown,2,2025-04-21T15:17:42.177+03:00,2025-04-20T21:57:49.637+03:00,6664,0.9638649,0,0,5475.677,5,6,2025-04-21T15:17:44.757+03:00,766930664.8577851,0,-44.09,100.2613,1,0.45,2025-04-21T15:14:45.481+03:00,86,1.433333333333333,2025-04-21T12:30:07.995+03:00,0.02023345852159405,0
2025-04-21T15:17:45.073+03:00,1745237858.398729,40.95225582986527,29.1403179372126,76.30476,-1,-1,-1,-1,30,26.56900642780171,-9999,18147.99698766667,-0.7972564697265625,0.46954345703125,-0.374969482421875,18147.98691166667,2.547829766624787,-1.13241479166771,-0.495076933594307,-0.009475525468587875,0.009575674310326576,-0.001212303526699543,-0.003582656383514404,-0.001832842826843262,-0.00170484185218811,XArbitraryZVertical,-0.436840302482039,0.3498801419218017,-0.8208731061144899,-0.1136743200537608,-0.7967256903648376,0.4750993549823761,-0.3735088706016541,0,0,0,-1,-1,18145.10641779167,unknown,2,2025-04-21T15:17:42.177+03:00,2025-04-20T21:57:49.637+03:00,6664,0.9638649,0,0,5475.677,5,6,2025-04-21T15:17:44.757+03:00,766930664.8577851,0,-44.09,100.2613,1,0.45,2025-04-21T15:14:45.481+03:00,86,1.433333333333333,2025-04-21T12:30:07.995+03:00,0.02023345852159405,0
2025-04-21T15:17:45.083+03:00,1745237858.398729,40.95225582986527,29.1403179372126,76.30476,-1,-1,-1,-1,30,26.56900642780171,-9999,18148.00706366667,-0.797088623046875,0.4697113037109375,-0.3725738525390625,18147.99698766667,2.547752802171182,-1.132338046817043,-0.49509106264371,-0.008075501769781113,0.009691255167126656,0.003295895643532276,0.001234889030456543,-0.002943992614746094,-0.001249819993972778,XArbitraryZVertical,-0.4367928138175841,0.349897831109132,-0.8208850182553079,-0.1137152332114024,-0.7966907620429993,0.4751117825508118,-0.3735671043395996,0,0,0,-1,-1,18145.10641779167,unknown,2,2025-04-21T15:17:42.177+03:00,2025-04-20T21:57:49.637+03:00,6664,0.9638649,0,0,5475.677,5,6,2025-04-21T15:17:44.757+03:00,766930664.8577851,0,-44.09,100.2613,1,0.45,2025-04-21T15:14:45.481+03:00,86,1.433333333333333,2025-04-21T12:30:07.995+03:00,0.02023345852159405,0
2025-04-21T15:17:45.093+03:00,1745237858.398729,40.95225582986527,29.1403179372126,76.30476,-1,-1,-1,-1,30,26.56900642780171,-9999,18148.01713966667,-0.7938232421875,0.47161865234375,-0.374603271484375,18148.00706366667,2.547677362176064,-1.132289062436375,-0.4951589033220769,-0.01106802839785814,0.004614804405719042,0.001321328105404973,-0.001177668571472168,-0.005979150533676147,-0.001178711652755737,XArbitraryZVertical,-0.4367471191007036,0.3499367580133037,-0.8208898969947215,-0.1137358655743837,-0.7966433167457581,0.4751714766025543,-0.3735924363136292,0,0,0,-1,-1,18145.10641779167,unknown,2,2025-04-21T15:17:42.177+03:00,2025-04-20T21:57:49.637+03:00,6664,0.9638649,0,0,5475.677,5,6,2025-04-21T15:17:44.757+03:00,766930664.8577851,0,-44.09,100.2613,1,0.45,2025-04-21T15:14:45.481+03:00,86,1.433333333333333,2025-04-21T12:30:07.995+03:00,0.02023345852159405,0
2025-04-21T15:17:45.103+03:00,1745237858.398729,40.95225582986527,29.1403179372126,76.30476,-1,-1,-1,-1,30,26.56900642780171,-9999,18148.02721566667,-0.793792724609375,0.4709625244140625,-0.37939453125,18148.01713966667,2.547578620598427,-1.132266052596139,-0.4952711742905669,-0.01019158214330673,0.006055840756744146,0.002290985081344843,1.668930053710938e-05,-0.00546756386756897,0.0006937980651855469,XArbitraryZVertical,-0.4366998654672206,0.3499987811556867,-0.8208868393726967,-0.1137492081607243,-0.7965865135192871,0.4752702713012695,-0.3735881745815277,0,0,0,-1,-1,18145.10641779167,unknown,2,2025-04-21T15:17:42.177+03:00,2025-04-20T21:57:49.637+03:00,6664,0.9638649,0,0,5475.677,5,6,2025-04-21T15:17:44.757+03:00,766930664.8577851,0,-44.09,100.2613,1,0.45,2025-04-21T15:14:45.481+03:00,86,1.433333333333333,2025-04-21T12:30:07.995+03:00,0.02023345852159405,0
2025-04-21T15:17:45.113+03:00,1745237858.398729,40.95225582986527,29.1403179372126,76.30476,-1,-1,-1,-1,30,26.56900642780171,-9999,18148.03729166667,-0.791534423828125,0.464752197265625,-0.3767852783203125,18148.02721566667,2.547468361371179,-1.132294829333938,-0.4953543201267274,-0.01461555901914835,0.001502967439591885,0.005452057346701622,0.00257033109664917,-0.002900868654251099,-0.001573652029037476,XArbitraryZVertical,-0.4366771836274524,0.3500554223691555,-0.8208724253413384,-0.1137662772209953,-0.7965615391731262,0.4753434062004089,-0.3735484778881073,0,0,0,-1,-1,18145.10641779167,unknown,2,2025-04-21T15:17:42.177+03:00,2025-04-20T21:57:49.637+03:00,6664,0.9638649,0,0,5475.677,5,6,2025-04-21T15:17:44.757+03:00,766930664.8577851,0,-44.09,100.2613,1,0.45,2025-04-21T15:14:45.481+03:00,86,1.433333333333333,2025-04-21T12:30:07.995+03:00,0.02023345852159405,0
2025-04-21T15:17:45.123+03:00,1745237858.398729,40.95225582986527,29.1403179372126,76.30476,-1,-1,-1,-1,30,26.56900642780171,-9999,18148.04736766667,-0.7887420654296875,0.4664459228515625,-0.373291015625,18148.03729166667,2.547347799357556,-1.132395495066727,-0.4954340292122509,-0.01200379710644484,-0.007540328893810511,0.009603659622371197,0.002146422863006592,-0.004573225975036621,-0.005896627902984619,XArbitraryZVertical,-0.4366828516575271,0.350117115151335,-0.8208417324458648,-0.1137758669719055,-0.7965647578239441,0.4754135310649872,-0.3734521865844727,0,0,0,-1,-1,18145.10641779167,unknown,2,2025-04-21T15:17:42.177+03:00,2025-04-20T21:57:49.637+03:00,6664,0.9638649,0,0,5475.677,5,6,2025-04-21T15:17:44.757+03:00,766930664.8577851,0,-44.09,100.2613,1,0.45,2025-04-21T15:14:45.481+03:00,86,1.433333333333333,2025-04-21T12:30:07.995+03:00,0.02023345852159405,0
2025-04-21T15:17:45.133+03:00,1745237858.398729,40.95225582986527,29.1403179372126,76.30476,-1,-1,-1,-1,30,26.56900642780171,-9999,18148.05744366667,-0.79095458984375,0.4738311767578125,-0.371063232421875,18148.04736766667,2.547235740476746,-1.132498688565043,-0.4955683674508274,-0.01605925895273685,-0.004400727804750204,0.008522015996277332,0.006262302398681641,-0.01146632432937622,-0.003320395946502686,XArbitraryZVertical,-0.436681045092211,0.3501974121376791,-0.8208097624452489,-0.1137663179557037,-0.7965454459190369,0.4755317270755768,-0.3733428716659546,0,0,0,-1,-1,18145.10641779167,unknown,2,2025-04-21T15:17:42.177+03:00,2025-04-20T21:57:49.637+03:00,6664,0.9638649,0,0,5475.677,5,6,2025-04-21T15:17:44.757+03:00,766930664.8577851,0,-44.09,100.2613,1,0.45,2025-04-21T15:14:45.481+03:00,86,1.433333333333333,2025-04-21T12:30:07.995+03:00,0.02023345852159405,0
2025-04-21T15:17:45.143+03:00,1745237858.398729,40.95225582986527,29.1403179372126,76.30476,-1,-1,-1,-1,30,26.56900642780171,-9999,18148.06751966667,-0.791961669921875,0.47137451171875,-0.369476318359375,18148.05744366667,2.547127962021728,-1.132613798081189,-0.4956761921216645,-0.01334869395941496,-0.008504925295710564,0.007358214817941189,0.006823360919952393,-0.008341610431671143,0.0004723966121673584,XArbitraryZVertical,-0.4366897324880593,0.3502675828119438,-0.8207759812012939,-0.1137602512785164,-0.7965419292449951,0.4756265580654144,-0.3732293844223022,0,0,0,-1,-1,18145.10641779167,unknown,2,2025-04-21T15:17:42.177+03:00,2025-04-20T21:57:49.637+03:00,6664,0.9638649,0,0,5475.677,5,6,2025-04-21T15:17:44.757+03:00,766930664.8577851,0,-44.09,100.2613,1,0.45,2025-04-21T15:14:45.481+03:00,86,1.433333333333333,2025-04-21T12:30:07.995+03:00,0.02023345852159405,0
2025-04-21T15:17:45.153+03:00,1745237858.398729,40.95225582986527,29.1403179372126,76.30476,-1,-1,-1,-1,30,26.56900642780171,-9999,18148.07759666667,-0.7904205322265625,0.4657440185546875,-0.3722991943359375,18148.06751966667,2.547008576754319,-1.13277437968862,-0.4958121682498227,-0.016779575496912,-0.0128527358174324,0.01278364006429911,0.005314111709594727,-0.0007860064506530762,0.002651631832122803,XArbitraryZVertical,-0.4367098567126405,0.3503533461996021,-0.8207310710255061,-0.1137432272602589,-0.7965433597564697,0.4757461845874786,-0.3730740547180176,0,0,0,-1,-1,18145.10641779167,unknown,2,2025-04-21T15:17:42.177+03:00,2025-04-20T21:57:49.637+03:00,6664,0.9638649,0,0,5475.677,5,6,2025-04-21T15:17:44.757+03:00,766930664.8577851,0,-44.09,100.2613,1,0.45,2025-04-21T15:14:45.481+03:00,86,1.433333333333333,2025-04-21T12:30:07.995+03:00,0.02023345852159405,0
2025-04-21T15:17:45.163+03:00,1745237858.398729,40.95225582986527,29.1403179372126,76.30476,-1,-1,-1,-1,30,26.56900642780171,-9999,18148.08767266667,-0.79119873046875,0.471343994140625,-0.375732421875,18148.07759666667,2.546874082114022,-1.13300880398181,-0.4959793449950325,-0.01819078624248505,-0.01902088336646557,0.01169786881655455,0.005054771900177002,-0.005831062793731689,0.002644807100296021,XArbitraryZVertical,-0.4367519179595502,0.350458199593205,-0.8206684607695411,-0.1137107383899833,-0.7965587973594666,0.4758932292461395,-0.3728536367416382,0,0,0,-1,-1,18145.10641779167,unknown,2,2025-04-21T15:17:42.177+03:00,2025-04-20T21:57:49.637+03:00,6664,0.9638649,0,0,5475.677,5,6,2025-04-21T15:17:44.757+03:00,766930664.8577851,0,-44.09,100.2613,1,0.45,2025-04-21T15:14:45.481+03:00,86,1.433333333333333,2025-04-21T12:30:07.995+03:00,0.02023345852159405,0
2025-04-21T15:17:45.174+03:00,1745237858.398729,40.95225582986527,29.1403179372126,76.30476,-1,-1,-1,-1,30,26.56900642780171,-9999,18148.09774866667,-0.7935333251953125,0.4749603271484375,-0.3754119873046875,18148.08767266667,2.546785575856851,-1.13326575654689,-0.4961354349741234,-0.01239834446460009,-0.02620309591293335,0.01169870141893625,0.006685435771942139,-0.009844064712524414,-0.0002005994319915771,XArbitraryZVertical,-0.4368133029597971,0.3505501541047811,-0.8206037541229011,-0.1136584579309831,-0.7965872287750244,0.4760304987430573,-0.3726174533367157,0,0,0,-1,-1,18145.10641779167,unknown,2,2025-04-21T15:17:42.177+03:00,2025-04-20T21:57:49.637+03:00,6664,0.9638649,0,0,5475.677,5,6,2025-04-21T15:17:44.757+03:00,766930664.8577851,0,-44.09,100.2613,1,0.45,2025-04-21T15:14:45.481+03:00,86,1.433333333333333,2025-04-21T12:30:07.995+03:00,0.02023345852159405,0
2025-04-21T15:17:45.183+03:00,1745237858.398729,40.95225582986527,29.1403179372126,76.30476,-1,-1,-1,-1,30,26.56900642780171,-9999,18148.10782466667,-0.7911376953125,0.4667816162109375,-0.3727569580078125,18148.09774866667,2.546667802804514,-1.133599937053211,-0.4962986485620283,-0.02126613818109035,-0.03013365343213081,0.01234078966081142,0.004801750183105469,-0.00397568941116333,-0.003627777099609375,XArbitraryZVertical,-0.4368999189240847,0.3506555229480972,-0.820520350409666,-0.1136026356877387,-0.7966413497924805,0.4761740267276764,-0.3723183274269104,0,0,0,-1,-1,18145.10641779167,unknown,2,2025-04-21T15:17:42.177+03:00,2025-04-20T21:57:49.637+03:00,6664,0.9638649,0,0,5475.677,5,6,2025-04-21T15:17:44.757+03:00,766930664.8577851,0,-44.09,100.2613,1,0.45,2025-04-21T15:14:45.481+03:00,86,1.433333333333333,2025-04-21T12:30:07.995+03:00,0.02023345852159405,0
2025-04-21T15:17:45.194+03:00,1745237858.398729,40.95225582986527,29.1403179372126,76.30476,-1,-1,-1,-1,30,26.56900642780171,-9999,18148.11790066667,-0.791534423828125,0.468017578125,-0.3727874755859375,18148.10782466667,2.546505042044992,-1.13397964438693,-0.4965216493762424,-0.02562466822564602,-0.03061781637370586,0.01809308305382729,0.002527415752410889,-0.002249181270599365,-0.002693474292755127,XArbitraryZVertical,-0.4369863735869031,0.3507954981223859,-0.8204230251506349,-0.1135405002431059,-0.7966863512992859,0.476370096206665,-0.3719708621501923,0,0,0,-1,-1,18145.10641779167,unknown,2,2025-04-21T15:17:42.177+03:00,2025-04-20T21:57:49.637+03:00,6664,0.9638649,0,0,5475.677,5,6,2025-04-21T15:17:44.757+03:00,766930664.8577851,0,-44.09,100.2613,1,0.45,2025-04-21T15:14:45.481+03:00,86,1.433333333333333,2025-04-21T12:30:07.995+03:00,0.02023345852159405,0
2025-04-21T15:17:45.204+03:00,1745237858.398729,40.95225582986527,29.1403179372126,76.30476,-1,-1,-1,-1,30,26.56900642780171,-9999,18148.12797666667,-0.7913665771484375,0.4754180908203125,-0.3708648681640625,18148.11790066667,2.546323522694562,-1.134391087243045,-0.49677878989375,-0.02842897549271584,-0.03481602668762207,0.01853330433368683,0.006292521953582764,-0.01045557856559753,-0.0009521245956420898,XArbitraryZVertical,-0.4370762355045384,0.3509540363396854,-0.8203169906440771,-0.1134709822456121,-0.7967283129692078,0.4765961766242981,-0.3715912699699402,0,0,0,-1,-1,18145.10641779167,unknown,2,2025-04-21T15:17:42.177+03:00,2025-04-20T21:57:49.637+03:00,6664,0.9638649,0,0,5475.677,5,6,2025-04-21T15:17:44.757+03:00,766930664.8577851,0,-44.09,100.2613,1,0.45,2025-04-21T15:14:45.481+03:00,86,1.433333333333333,2025-04-21T12:30:07.995+03:00,0.02023345852159405,0
2025-04-21T15:17:45.214+03:00,1745237858.398729,40.95225582986527,29.1403179372126,76.30476,-1,-1,-1,-1,30,26.56900642780171,-9999,18148.13805266667,-0.78997802734375,0.4749908447265625,-0.3682403564453125,18148.12797666667,2.546157453903731,-1.134828371235785,-0.4970378967529853,-0.02421891689300537,-0.03853339701890945,0.01945269480347633,0.00506126880645752,-0.008470833301544189,-0.0008491873741149902,XArbitraryZVertical,-0.4371790043161863,0.3511113589771,-0.8202061006566681,-0.1133899470344056,-0.7967787981033325,0.4768239557743073,-0.3711906671524048,0,0,0,-1,-1,18145.10641779167,unknown,2,2025-04-21T15:17:42.177+03:00,2025-04-20T21:57:49.637+03:00,6664,0.9638649,0,0,5475.677,5,6,2025-04-21T15:17:44.757+03:00,766930664.8577851,0,-44.09,100.2613,1,0.45,2025-04-21T15:14:45.481+03:00,86,1.433333333333333,2025-04-21T12:30:07.995+03:00,0.02023345852159405,0
2025-04-21T15:17:45.224+03:00,1745237858.398729,40.95225582986527,29.1403179372126,76.30476,-1,-1,-1,-1,30,26.56900642780171,-9999,18148.14812866667,-0.79364013671875,0.47576904296875,-0.36651611328125,18148.13805266667,2.546000592127966,-1.135281237534266,-0.4972962577727792,-0.02551614306867123,-0.03805989027023315,0.01726783625781536,0.005270063877105713,-0.001434743404388428,0.0001569986343383789,XArbitraryZVertical,-0.4372898859991386,0.3512672335939205,-0.8200922624652852,-0.113302470187902,-0.7968350052833557,0.4770510196685791,-0.3707777857780457,0,0,0,-1,-1,18145.10641779167,unknown,2,2025-04-21T15:17:42.177+03:00,2025-04-20T21:57:49.637+03:00,6664,0.9638649,0,0,5475.677,5,6,2025-04-21T15:17:44.757+03:00,766930664.8577851,0,-44.09,100.2613,1,0.45,2025-04-21T15:14:45.481+03:00,86,1.433333333333333,2025-04-21T12:30:07.995+03:00,0.02023345852159405,0
2025-04-21T15:17:45.234+03:00,1745237858.398729,40.95225582986527,29.1403179372126,76.30476,-1,-1,-1,-1,30,26.56900642780171,-9999,18148.15820466667,-0.795135498046875,0.478271484375,-0.363616943359375,18148.14812866667,2.545849783643571,-1.135720991977946,-0.4975644660830891,-0.02253846451640129,-0.03562203049659729,0.01810393668711185,0.007041275501251221,-0.002586007118225098,0.002056688070297241,XArbitraryZVertical,-0.4373945900151948,0.351424661547679,-0.8199814160212738,-0.1132120158465668,-0.7968818545341492,0.4772867262363434,-0.3703733682632446,0,0,0,-1,-1,18145.10641779167,unknown,2,2025-04-21T15:17:42.177+03:00,2025-04-20T21:57:49.637+03:00,6664,0.9638649,0,0,5475.677,5,6,2025-04-21T15:17:44.757+03:00,766930664.8577851,0,-44.09,100.2613,1,0.45,2025-04-21T15:14:45.481+03:00,86,1.433333333333333,2025-04-21T12:30:07.995+03:00,0.02023345852159405,0
2025-04-21T15:17:45.244+03:00,1745237858.398729,40.95225582986527,29.1403179372126,76.30476,-1,-1,-1,-1,30,26.56900642780171,-9999,18148.16828066667,-0.7959747314453125,0.4783172607421875,-0.3666839599609375,18148.15820466667,2.545727745746437,-1.136098723216994,-0.4977982664261819,-0.01799217984080315,-0.0285263042896986,0.01709752716124058,0.003341436386108398,-0.0009603798389434814,0.003860145807266235,XArbitraryZVertical,-0.4374851608939541,0.3515594872456769,-0.8198865807165241,-0.113130279086362,-0.7969204783439636,0.4774921834468842,-0.3700253367424011,0,0,0,-1,-1,18145.10641779167,unknown,2,2025-04-21T15:17:42.177+03:00,2025-04-20T21:57:49.637+03:00,6664,0.9638649,0,0,5475.677,5,6,2025-04-21T15:17:44.757+03:00,766930664.8577851,0,-44.09,100.2613,1,0.45,2025-04-21T15:14:45.481+03:00,86,1.433333333333333,2025-04-21T12:30:07.995+03:00,0.02023345852159405,0
2025-04-21T15:17:45.254+03:00,1745237858.398729,40.95225582986527,29.1403179372126,76.30476,-1,-1,-1,-1,30,26.56900642780171,-9999,18148.17835766667,-0.793182373046875,0.47943115234375,-0.369110107421875,18148.16828066667,2.545622678923511,-1.136421486164529,-0.4980075387649839,-0.01673290506005287,-0.03076802007853985,0.01585709303617477,0.001020312309265137,0.001007258892059326,0.006551593542098999,XArbitraryZVertical,-0.4375606366116887,0.3516783655529971,-0.8198052926885923,-0.1130580811436648,-0.7969492077827454,0.4776760339736938,-0.3697260320186615,0,0,0,-1,-1,18145.10641779167,unknown,2,2025-04-21T15:17:42.177+03:00,2025-04-20T21:57:49.637+03:00,6664,0.9638649,0,0,5475.677,5,6,2025-04-21T15:17:44.757+03:00,766930664.8577851,0,-44.09,100.2613,1,0.45,2025-04-21T15:14:45.481+03:00,86,1.433333333333333,2025-04-21T12:30:07.995+03:00,0.02023345852159405,0
2025-04-21T15:17:45.264+03:00,1745237858.398729,40.95225582986527,29.1403179372126,76.30476,-1,-1,-1,-1,30,26.56900642780171,-9999,18148.18843366667,-0.7962646484375,0.4770050048828125,-0.36944580078125,18148.17835766667,2.545553249554832,-1.136741001888067,-0.4982189078472693,-0.01715794578194618,-0.02888596244156361,0.01826512441039085,0.00153505802154541,0.0005927085876464844,0.002546548843383789,XArbitraryZVertical,-0.4376406353187382,0.3517900172446786,-0.8197266759490472,-0.1129712272785692,-0.7969757318496704,0.4778617322444916,-0.3694289028644562,0,0,0,-1,-1,18145.10641779167,unknown,2,2025-04-21T15:17:42.177+03:00,2025-04-20T21:57:49.637+03:00,6664,0.9638649,0,0,5475.677,5,6,2025-04-21T15:17:44.757+03:00,766930664.8577851,0,-44.09,100.2613,1,0.45,2025-04-21T15:14:45.481+03:00,86,1.433333333333333,2025-04-21T12:30:07.995+03:00,0.02023345852159405,0
2025-04-21T15:17:45.275+03:00,1745237858.398729,40.95225582986527,29.1403179372126,76.30476,-1,-1,-1,-1,30,26.56900642780171,-9999,18148.19850966667,-0.7953033447265625,0.4746856689453125,-0.3718109130859375,18148.18843366667,2.545470624974888,-1.137071221995915,-0.4984562669200002,-0.02068809792399406,-0.03023525699973106,0.01973126083612442,0.003644585609436035,0.000704646110534668,0.000389397144317627,XArbitraryZVertical,-0.4377178799671704,0.3519147802045124,-0.819644450052088,-0.1128806736549359,-0.7969948053359985,0.4780702292919159,-0.3691180944442749,0,0,0,-1,-1,18145.10641779167,unknown,2,2025-04-21T15:17:42.177+03:00,2025-04-20T21:57:49.637+03:00,6664,0.9638649,0,0,5475.677,5,6,2025-04-21T15:17:44.757+03:00,766930664.8577851,0,-44.09,100.2613,1,0.45,2025-04-21T15:14:45.481+03:00,86,1.433333333333333,2025-04-21T12:30:07.995+03:00,0.02023345852159405,0
2025-04-21T15:17:45.284+03:00,1745237858.398729,40.95225582986527,29.1403179372126,76.30476,-1,-1,-1,-1,30,26.56900642780171,-9999,18148.20858566667,-0.7925872802734375,0.4744415283203125,-0.3737945556640625,18148.19850966667,2.545361203393856,-1.137440908631576,-0.4987035644831364,-0.02183032780885696,-0.03630539774894714,0.02274036779999733,0.0003625154495239258,-0.001816630363464355,-0.0007178783416748047,XArbitraryZVertical,-0.437804774469531,0.3520512779221834,-0.8195517055312055,-0.112791190783719,-0.7970238924026489,0.478287398815155,-0.3687737584114075,0,0,0,-1,-1,18145.10641779167,unknown,2,2025-04-21T15:17:42.177+03:00,2025-04-20T21:57:49.637+03:00,6664,0.9638649,0,0,5475.677,5,6,2025-04-21T15:17:44.757+03:00,766930664.8577851,0,-44.09,100.2613,1,0.45,2025-04-21T15:14:45.481+03:00,86,1.433333333333333,2025-04-21T12:30:07.995+03:00,0.02023345852159405,0
2025-04-21T15:17:45.295+03:00,1745237858.398729,40.95225582986527,29.1403179372126,76.30476,-1,-1,-1,-1,30,26.56900642780171,-9999,18148.21866166667,-0.7971038818359375,0.478607177734375,-0.3709869384765625,18148.20858566667,2.545278670633461,-1.13781695525882,-0.4989708306275897,-0.01808918640017509,-0.03066888451576233,0.02206921763718128,0.002521276473999023,-0.004538476467132568,-0.003863632678985596,XArbitraryZVertical,-0.4378952921297553,0.3521896200188649,-0.8194586641875564,-0.1126839784858736,-0.797046422958374,0.4785220921039581,-0.3684203624725342,0,0,0,-1,-1,18145.10641779167,unknown,2,2025-04-21T15:17:42.177+03:00,2025-04-20T21:57:49.637+03:00,6664,0.9638649,0,0,5475.677,5,6,2025-04-21T15:17:44.757+03:00,766930664.8577851,0,-44.09,100.2613,1,0.45,2025-04-21T15:14:45.481+03:00,86,1.433333333333333,2025-04-21T12:30:07.995+03:00,0.02023345852159405,0
2025-04-21T15:17:45.305+03:00,1745237858.398729,40.95225582986527,29.1403179372126,76.30476,-1,-1,-1,-1,30,26.56900642780171,-9999,18148.22873766667,-0.8029632568359375,0.4806671142578125,-0.371612548828125,18148.21866166667,2.54521763521593,-1.138101056660553,-0.4992260026389932,-0.009571332484483719,-0.02254704013466835,0.01880657859146595,0.003842592239379883,-0.004152178764343262,-0.004980504512786865,XArbitraryZVertical,-0.4379541034283911,0.3523135601867691,-0.8193872499990466,-0.1125875168034267,-0.7970402240753174,0.4787461459636688,-0.3681427240371704,0,0,0,-1,-1,18145.10641779167,unknown,2,2025-04-21T15:17:42.177+03:00,2025-04-20T21:57:49.637+03:00,6664,0.9638649,0,0,5475.677,5,6,2025-04-21T15:17:44.757+03:00,766930664.8577851,0,-44.09,100.2613,1,0.45,2025-04-21T15:14:45.481+03:00,86,1.433333333333333,2025-04-21T12:30:07.995+03:00,0.02023345852159405,0
2025-04-21T15:17:45.315+03:00,1745237858.398729,40.95225582986527,29.1403179372126,76.30476,-1,-1,-1,-1,30,26.56900642780171,-9999,18148.23881366667,-0.8014373779296875,0.47802734375,-0.372772216796875,18148.22873766667,2.545200011513844,-1.13831440601425,-0.499453161836881,-0.01167289912700653,-0.01918540149927139,0.01749320700764656,-0.00106048583984375,-0.0003843307495117188,-0.003532946109771729,XArbitraryZVertical,-0.437996725556158,0.3524135975051049,-0.8193343210814589,-0.1124934665528622,-0.7970199584960938,0.4789455831050873,-0.3679270446300507,0,0,0,-1,-1,18145.10641779167,unknown,2,2025-04-21T15:17:42.177+03:00,2025-04-20T21:57:49.637+03:00,6664,0.9638649,0,0,5475.677,5,6,2025-04-21T15:17:44.757+03:00,766930664.8577851,0,-44.09,100.2613,1,0.45,2025-04-21T15:14:45.481+03:00,86,1.433333333333333,2025-04-21T12:30:07.995+03:00,0.02023345852159405,0
2025-04-21T15:17:45.331+03:00,1745237858.398729,40.95225582986527,29.1403179372126,76.30476,-1,-1,-1,-1,30,26.56900642780171,-9999,18148.24888966667,-0.7994232177734375,0.4773712158203125,-0.3738861083984375,18148.23881366667,2.54519179029317,-1.138481721796233,-0.4996509693250906,-0.006494915578514338,-0.01393045019358397,0.01750519126653671,-0.006471395492553711,0.001074731349945068,-0.003660261631011963,XArbitraryZVertical,-0.4380275221259199,0.3524980925524311,-0.8192926643328199,-0.1124118824622136,-0.7969954013824463,0.479119211435318,-0.3677539825439453,0,0,0,-1,-1,18145.10641779167,unknown,2,2025-04-21T15:17:42.177+03:00,2025-04-20T21:57:49.637+03:00,6664,0.9638649,0,0,5475.677,5,6,2025-04-21T15:17:44.757+03:00,766930664.8577851,0,-44.09,100.2613,1,0.45,2025-04-21T15:14:45.481+03:00,86,1.433333333333333,2025-04-21T12:30:07.995+03:00,0.02023345852159405,0
2025-04-21T15:17:45.335+03:00,1745237858.398729,40.95225582986527,29.1403179372126,76.30476,-1,-1,-1,-1,30,26.56900642780171,-9999,18148.25896566667,-0.797882080078125,0.4791259765625,-0.372772216796875,18148.24888966667,2.545200823458483,-1.13859282893565,-0.4998314537786189,-0.003587275976315141,-0.0102225299924612,0.01620104163885117,-0.004052400588989258,-0.001906543970108032,-0.005097270011901855,XArbitraryZVertical,-0.4380414931613726,0.3525692226863265,-0.819264716951057,-0.1123380225681621,-0.7969577312469482,0.4792776107788086,-0.367629200220108,0,0,0,-1,-1,18145.10641779167,unknown,2,2025-04-21T15:17:42.177+03:00,2025-04-20T21:57:49.637+03:00,6664,0.9638649,0,0,5475.677,5,6,2025-04-21T15:17:44.757+03:00,766930664.8577851,0,-44.09,100.2613,1,0.45,2025-04-21T15:14:45.481+03:00,86,1.433333333333333,2025-04-21T12:30:07.995+03:00,0.02023345852159405,0
2025-04-21T15:17:45.361+03:00,1745237858.398729,40.95225582986527,29.1403179372126,76.30476,-1,-1,-1,-1,30,26.56900642780171,-9999,18148.26904166667,-0.795257568359375,0.4779510498046875,-0.3719482421875,18148.25896566667,2.545232465727055,-1.138682152753252,-0.499985101070003,-0.004983571358025074,-0.01293868944048882,0.0134763615205884,-0.002102792263031006,-0.001278460025787354,-0.006069064140319824,XArbitraryZVertical,-0.4380554574711015,0.3526242251114406,-0.8192433982281632,-0.1122662345239599,-0.7969236969947815,0.4794124662876129,-0.3675271570682526,0,0,0,-1,-1,18145.10641779167,unknown,2,2025-04-21T15:17:42.177+03:00,2025-04-20T21:57:49.637+03:00,6664,0.9638649,0,0,5475.677,5,6,2025-04-21T15:17:44.757+03:00,766930664.8577851,0,-44.09,100.2613,1,0.45,2025-04-21T15:14:45.481+03:00,86,1.433333333333333,2025-04-21T12:30:07.995+03:00,0.02023345852159405,0
2025-04-21T15:17:45.363+03:00,1745237858.398729,40.95225582986527,29.1403179372126,76.30476,-1,-1,-1,-1,30,26.56900642780171,-9999,18148.27911766667,-0.7925567626953125,0.47308349609375,-0.3755340576171875,18148.26904166667,2.545239649507225,-1.1387928801535,-0.5001363270899477,-0.006195309571921825,-0.008041935041546822,0.01370179746299982,-0.0009377598762512207,-0.0001599490642547607,-0.005439996719360352,XArbitraryZVertical,-0.4380742963230783,0.3526848874123097,-0.8192161313283478,-0.112201430770169,-0.7968985438346863,0.4795451760292053,-0.3674085736274719,0,0,0,-1,-1,18145.10641779167,unknown,2,2025-04-21T15:17:42.177+03:00,2025-04-20T21:57:49.637+03:00,6664,0.9638649,0,0,5475.677,5,6,2025-04-21T15:17:44.757+03:00,766930664.8577851,0,-44.09,100.2613,1,0.45,2025-04-21T15:14:45.481+03:00,86,1.433333333333333,2025-04-21T12:30:07.995+03:00,0.02023345852159405,0
2025-04-21T15:17:45.365+03:00,1745237858.398729,40.95225582986527,29.1403179372126,76.30476,-1,-1,-1,-1,30,26.56900642780171,-9999,18148.28919466667,-0.793853759765625,0.474090576171875,-0.3787994384765625,18148.27911766667,2.545217793957026,-1.138866722808502,-0.5003067434792641,-0.01461143139749765,-0.00666454853489995,0.01779614202678204,0.002021193504333496,-0.001469135284423828,-0.004586994647979736,XArbitraryZVertical,-0.438069375384452,0.352756942750883,-0.8191948768474785,-0.1121496471742227,-0.7968515157699585,0.4796946942806244,-0.3673155307769775,0,0,0,-1,-1,18145.10641779167,unknown,2,2025-04-21T15:17:42.177+03:00,2025-04-20T21:57:49.637+03:00,6664,0.9638649,0,0,5475.677,5,6,2025-04-21T15:17:44.757+03:00,766930664.8577851,0,-44.09,100.2613,1,0.45,2025-04-21T15:14:45.481+03:00,86,1.433333333333333,2025-04-21T12:30:07.995+03:00,0.02023345852159405,0
2025-04-21T15:17:45.375+03:00,1745237858.398729,40.95225582986527,29.1403179372126,76.30476,-1,-1,-1,-1,30,26.56900642780171,-9999,18148.29927066667,-0.79669189453125,0.482269287109375,-0.3638916015625,18148.28919466667,2.545116208270273,-1.138984213206757,-0.5005377885637279,-0.02186408266425133,-0.007953319698572159,0.01822114735841751,0.003931999206542969,-0.007302433252334595,-0.01006761193275452,XArbitraryZVertical,-0.4380571945031095,0.3528713366209407,-0.819157997714708,-0.1121056031370334,-0.7967938184738159,0.4798974096775055,-0.367175430059433,0,0,0,-1,-1,18145.10641779167,unknown,2,2025-04-21T15:17:42.177+03:00,2025-04-20T21:57:49.637+03:00,6664,0.9638649,0,0,5475.677,5,6,2025-04-21T15:17:44.757+03:00,766930664.8577851,0,-44.09,100.2613,1,0.45,2025-04-21T15:14:45.481+03:00,86,1.433333333333333,2025-04-21T12:30:07.995+03:00,0.02023345852159405,0
2025-04-21T15:17:45.385+03:00,1745237858.398729,40.95225582986527,29.1403179372126,76.30476,-1,-1,-1,-1,30,26.56900642780171,-9999,18148.30934666667,-0.8031768798828125,0.4812469482421875,-0.3605499267578125,18148.29927066667,2.545015900722261,-1.139048800950465,-0.5007134364608448,-0.01608395949006081,-0.001108994707465172,0.009127252735197544,0.002627909183502197,-0.005350798368453979,-0.01088681817054749,XArbitraryZVertical,-0.4380336801709607,0.3529619721058318,-0.8191341936985522,-0.1120860442507882,-0.7967409491539001,0.4800515174865723,-0.3670886754989624,0,0,0,-1,-1,18145.10641779167,unknown,2,2025-04-21T15:17:42.177+03:00,2025-04-20T21:57:49.637+03:00,6664,0.9638649,0,0,5475.677,5,6,2025-04-21T15:17:44.757+03:00,766930664.8577851,0,-44.09,100.2613,1,0.45,2025-04-21T15:14:45.481+03:00,86,1.433333333333333,2025-04-21T12:30:07.995+03:00,0.02023345852159405,0
2025-04-21T15:17:45.395+03:00,1745237858.398729,40.95225582986527,29.1403179372126,76.30476,-1,-1,-1,-1,30,26.56900642780171,-9999,18148.31942266667,-0.8025970458984375,0.4753265380859375,-0.3729095458984375,18148.30934666667,2.544870374898772,-1.139072618617242,-0.5008538272651574,-0.01614095270633698,0.01080785226076841,0.009126188233494759,-0.001101911067962646,0.003177821636199951,0.005637079477310181,XArbitraryZVertical,-0.4379919309126119,0.3530471688347598,-0.8191176561328423,-0.1121021464934529,-0.7966885566711426,0.4801746606826782,-0.3670415282249451,0,0,0,-1,-1,18145.10641779167,unknown,2,2025-04-21T15:17:42.177+03:00,2025-04-20T21:57:49.637+03:00,6664,0.9638649,0,0,5475.677,5,6,2025-04-21T15:17:44.757+03:00,766930664.8577851,0,-44.09,100.2613,1,0.45,2025-04-21T15:14:45.481+03:00,86,1.433333333333333,2025-04-21T12:30:07.995+03:00,0.02023345852159405,0
2025-04-21T15:17:45.405+03:00,1745237858.398729,40.95225582986527,29.1403179372126,76.30476,-1,-1,-1,-1,30,26.56900642780171,-9999,18148.32949866667,-0.796173095703125,0.4719696044921875,-0.372222900390625,18148.31942266667,2.544743286947588,-1.138947209924109,-0.5009878241717675,-0.01447034999728203,0.02010654658079147,0.006338923238217831,-0.007798254489898682,2.381205558776855e-05,0.005801618099212646,XArbitraryZVertical,-0.4378935029826754,0.3531175826548465,-0.8191349161438803,-0.1121387739543731,-0.7965840697288513,0.4802922010421753,-0.3671145141124725,0,0,0,-1,-1,18145.10641779167,unknown,2,2025-04-21T15:17:42.177+03:00,2025-04-20T21:57:49.637+03:00,6664,0.9638649,0,0,5475.677,5,6,2025-04-21T15:17:44.757+03:00,766930664.8577851,0,-44.09,100.2613,1,0.45,2025-04-21T15:14:45.481+03:00,86,1.433333333333333,2025-04-21T12:30:07.995+03:00,0.02023345852159405,0
2025-04-21T15:17:45.415+03:00,1745237858.398729,40.95225582986527,29.1403179372126,76.30476,-1,-1,-1,-1,30,26.56900642780171,-9999,18148.33957466667,-0.79083251953125,0.4753875732421875,-0.3739471435546875,18148.32949866667,2.544679079081166,-1.138749264038197,-0.5010529747237198,-0.004818322136998177,0.01997411996126175,0.00806102342903614,-0.005656301975250244,-0.005740165710449219,-0.005848854780197144,XArbitraryZVertical,-0.4377891226325477,0.3531446603239116,-0.8191731324302182,-0.1121817391216148,-0.7964829206466675,0.4803493320941925,-0.3672590553760529,0,0,0,-1,-1,18145.10641779167,unknown,2,2025-04-21T15:17:42.177+03:00,2025-04-20T21:57:49.637+03:00,6664,0.9638649,0,0,5475.677,5,6,2025-04-21T15:17:44.757+03:00,766930664.8577851,0,-44.09,100.2613,1,0.45,2025-04-21T15:14:45.481+03:00,86,1.433333333333333,2025-04-21T12:30:07.995+03:00,0.02023345852159405,0
2025-04-21T15:17:45.425+03:00,1745237858.398729,40.95225582986527,29.1403179372126,76.30476,-1,-1,-1,-1,30,26.56900642780171,-9999,18148.34965066667,-0.7901611328125,0.474945068359375,-0.3707122802734375,18148.33957466667,2.544628962308474,-1.138553924654943,-0.5011685226744929,-0.019107511267066,0.0217943899333477,0.01159130968153477,0.00105750560760498,-0.008008211851119995,-0.004251718521118164,XArbitraryZVertical,-0.4376790050955027,0.3531874617798627,-0.8192104564002335,-0.1122044194455867,-0.7963608503341675,0.4804506897926331,-0.3673914074897766,0,0,0,-1,-1,18145.10641779167,unknown,2,2025-04-21T15:17:42.177+03:00,2025-04-20T21:57:49.637+03:00,6664,0.9638649,0,0,5475.677,5,6,2025-04-21T15:17:44.757+03:00,766930664.8577851,0,-44.09,100.2613,1,0.45,2025-04-21T15:14:45.481+03:00,86,1.433333333333333,2025-04-21T12:30:07.995+03:00,0.02023345852159405,0
2025-04-21T15:17:45.435+03:00,1745237858.398729,40.95225582986527,29.1403179372126,76.30476,-1,-1,-1,-1,30,26.56900642780171,-9999,18148.35972666667,-0.793548583984375,0.4684600830078125,-0.3680267333984375,18148.34965066667,2.544398966140434,-1.138491697084825,-0.5013823874227504,-0.03725222870707512,0.01214036531746387,0.01243270188570023,0.005747854709625244,-0.005479723215103149,-0.006747633218765259,XArbitraryZVertical,-0.4375735702490849,0.3533134858354919,-0.8192062280375942,-0.1122496690240311,-0.7962446212768555,0.4806382358074188,-0.3673979043960571,0,0,0,-1,-1,18145.10641779167,unknown,2,2025-04-21T15:17:42.177+03:00,2025-04-20T21:57:49.637+03:00,6664,0.9638649,0,0,5475.677,5,6,2025-04-21T15:17:44.757+03:00,766930664.8577851,0,-44.09,100.2613,1,0.45,2025-04-21T15:14:45.481+03:00,86,1.433333333333333,2025-04-21T12:30:07.995+03:00,0.02023345852159405,0
2025-04-21T15:17:45.446+03:00,1745237858.398729,40.95225582986527,29.1403179372126,76.30476,-1,-1,-1,-1,30,26.56900642780171,-9999,18148.36980266667,-0.7940673828125,0.468780517578125,-0.3766021728515625,18148.35972666667,2.544015770190384,-1.138570939682441,-0.5016653756994646,-0.04628487303853035,0.007409791927784681,0.01328145060688257,0.005729734897613525,-0.007268995046615601,-0.001832336187362671,XArbitraryZVertical,-0.437486257614436,0.353506534741132,-0.8191608444753778,-0.1123132939353556,-0.7961502075195312,0.4808863699436188,-0.3672778010368347,0,0,0,-1,-1,18145.10641779167,unknown,2,2025-04-21T15:17:42.177+03:00,2025-04-20T21:57:49.637+03:00,6664,0.9638649,0,0,5475.677,5,6,2025-04-21T15:17:44.757+03:00,766930664.8577851,0,-44.09,100.2613,1,0.45,2025-04-21T15:14:45.481+03:00,86,1.433333333333333,2025-04-21T12:30:07.995+03:00,0.02023345852159405,0
2025-04-21T15:17:45.474+03:00,1745237858.398729,40.95225582986527,29.1403179372126,76.30476,-1,-1,-1,-1,30,26.56900642780171,-9999,18148.37987966667,-0.7921905517578125,0.476654052734375,-0.379791259765625,18148.36980266667,2.543642585006634,-1.138638682538996,-0.5019271675725064,-0.03525019437074661,0.01028693839907646,0.007908990606665611,0.002527475357055664,-0.01322054862976074,-0.001694858074188232,XArbitraryZVertical,-0.4373998239159846,0.3536888725741456,-0.8191190653221029,-0.1123808197148821,-0.7960607409477234,0.4811159074306488,-0.3671711385250092,0,0,0,-1,-1,18145.10641779167,unknown,2,2025-04-21T15:17:42.177+03:00,2025-04-20T21:57:49.637+03:00,6664,0.9638649,0,0,5475.677,5,6,2025-04-21T15:17:44.757+03:00,766930664.8577851,0,-44.09,100.2613,1,0.45,2025-04-21T15:14:45.481+03:00,86,1.433333333333333,2025-04-21T12:30:07.995+03:00,0.02023345852159405,0
2025-04-21T15:17:45.477+03:00,1745237858.398729,40.95225582986527,29.1403179372126,76.30476,-1,-1,-1,-1,30,26.56900642780171,-9999,18148.38995566667,-0.79327392578125,0.483154296875,-0.3750152587890625,18148.37987966667,2.543391111830663,-1.138634858778839,-0.5020874274589691,-0.01830636896193027,0.008382777683436871,0.004959804937243462,0.001509964466094971,-0.01220136880874634,-0.01051318645477295,XArbitraryZVertical,-0.4373242728128066,0.3538029625471135,-0.8191020578634286,-0.1124395475127928,-0.7959893345832825,0.4812563955783844,-0.3671419024467468,0,0,0,-1,-1,18145.10641779167,unknown,2,2025-04-21T15:17:42.177+03:00,2025-04-20T21:57:49.637+03:00,6664,0.9638649,0,0,5475.677,5,6,2025-04-21T15:17:44.757+03:00,766930664.8577851,0,-44.09,100.2613,1,0.45,2025-04-21T15:14:45.481+03:00,86,1.433333333333333,2025-04-21T12:30:07.995+03:00,0.02023345852159405,0
2025-04-21T15:17:45.479+03:00,1745237858.398729,40.95225582986527,29.1403179372126,76.30476,-1,-1,-1,-1,30,26.56900642780171,-9999,18148.40003166667,-0.79522705078125,0.478240966796875,-0.37078857421875,18148.38995566667,2.543241494287766,-1.138660765842965,-0.5021787740586033,-0.01315142028033733,0.004494429100304842,-0.0006372937350533903,0.003920972347259521,-0.003110915422439575,-0.01300886273384094,XArbitraryZVertical,-0.4372916051631296,0.3538709344956443,-0.8190858236606976,-0.1124705771372177,-0.7959588170051575,0.4813364446163177,-0.3671028316020966,0,0,0,-1,-1,18145.10641779167,unknown,2,2025-04-21T15:17:42.177+03:00,2025-04-20T21:57:49.637+03:00,6664,0.9638649,0,0,5475.677,5,6,2025-04-21T15:17:44.757+03:00,766930664.8577851,0,-44.09,100.2613,1,0.45,2025-04-21T15:14:45.481+03:00,86,1.433333333333333,2025-04-21T12:30:07.995+03:00,0.02023345852159405,0
2025-04-21T15:17:45.486+03:00,1745237858.398729,40.95225582986527,29.1403179372126,76.30476,-1,-1,-1,-1,30,26.56900642780171,-9999,18148.41010766667,-0.7921142578125,0.474639892578125,-0.37530517578125,18148.40003166667,2.543064450923873,-1.13876821704332,-0.5022020465183923,-0.01490724179893732,-0.002760820556432009,-0.002816291991621256,0.003019511699676514,0.001995652914047241,-0.007392287254333496,XArbitraryZVertical,-0.4372999437799165,0.3539243135483228,-0.8190519789479274,-0.1125176985730798,-0.7959882616996765,0.4813568592071533,-0.3670126795768738,0,0,0,-1,-1,18145.10641779167,unknown,2,2025-04-21T15:17:42.177+03:00,2025-04-20T21:57:49.637+03:00,6664,0.9638649,0,0,5475.677,5,6,2025-04-21T15:17:44.757+03:00,766930664.8577851,0,-44.09,100.2613,1,0.45,2025-04-21T15:14:45.481+03:00,86,1.433333333333333,2025-04-21T12:30:07.995+03:00,0.02023345852159405,0
2025-04-21T15:17:45.496+03:00,1745237858.398729,40.95225582986527,29.1403179372126,76.30476,-1,-1,-1,-1,30,26.56900642780171,-9999,18148.42018366667,-0.7920074462890625,0.4769744873046875,-0.3784027099609375,18148.41010766667,2.542895087702613,-1.138873562606988,-0.5021899987364346,-0.01723997108638287,-0.003590727690607309,-0.004525275900959969,0.001140773296356201,-0.003517508506774902,-0.004467755556106567,XArbitraryZVertical,-0.4373153711142678,0.3539628056144606,-0.819019582184344,-0.1125716733789582,-0.7960320711135864,0.4813462793827057,-0.3669312000274658,0,0,0,-1,-1,18145.10641779167,unknown,2,2025-04-21T15:17:42.177+03:00,2025-04-20T21:57:49.637+03:00,6664,0.9638649,0,0,5475.677,5,6,2025-04-21T15:17:44.757+03:00,766930664.8577851,0,-44.09,100.2613,1,0.45,2025-04-21T15:14:45.481+03:00,86,1.433333333333333,2025-04-21T12:30:07.995+03:00,0.02023345852159405,0
2025-04-21T15:17:45.506+03:00,1745237858.398729,40.95225582986527,29.1403179372126,76.30476,-1,-1,-1,-1,30,26.56900642780171,-9999,18148.43025966667,-0.7938385009765625,0.483642578125,-0.376129150390625,18148.42018366667,2.542723382091542,-1.138980508790385,-0.5021718556247982,-0.01034158561378717,-0.003594722133129835,-0.008674480952322483,0.004911065101623535,-0.006889015436172485,-0.008989572525024414,XArbitraryZVertical,-0.4373321189875,0.3539996594662777,-0.81898694756211,-0.1126281466611472,-0.7960792183876038,0.481330394744873,-0.3668497204780579,0,0,0,-1,-1,18145.10641779167,unknown,2,2025-04-21T15:17:42.177+03:00,2025-04-20T21:57:49.637+03:00,6664,0.9638649,0,0,5475.677,5,6,2025-04-21T15:17:44.757+03:00,766930664.8577851,0,-44.09,100.2613,1,0.45,2025-04-21T15:14:45.481+03:00,86,1.433333333333333,2025-04-21T12:30:07.995+03:00,0.02023345852159405,0
2025-04-21T15:17:45.516+03:00,1745237858.398729,40.95225582986527,29.1403179372126,76.30476,-1,-1,-1,-1,30,26.56900642780171,-9999,18148.44033566667,-0.7938079833984375,0.4863128662109375,-0.3729400634765625,18148.43025966667,2.542631886689827,-1.139022859250086,-0.5021332148791351,-0.004407796077430248,-0.002190171740949154,-0.007544634863734245,0.003371834754943848,-0.003421962261199951,-0.01241818070411682,XArbitraryZVertical,-0.4373403940570976,0.3540077546744524,-0.8189734043536275,-0.1126689357313356,-0.7961116433143616,0.4812965095043182,-0.3668237924575806,0,0,0,-1,-1,18145.10641779167,unknown,2,2025-04-21T15:17:42.177+03:00,2025-04-20T21:57:49.637+03:00,6664,0.9638649,0,0,5475.677,5,6,2025-04-21T15:17:44.757+03:00,766930664.8577851,0,-44.09,100.2613,1,0.45,2025-04-21T15:14:45.481+03:00,86,1.433333333333333,2025-04-21T12:30:07.995+03:00,0.02023345852159405,0
2025-04-21T15:17:45.526+03:00,1745237858.398729,40.95225582986527,29.1403179372126,76.30476,-1,-1,-1,-1,30,26.56900642780171,-9999,18148.45041166667,-0.7954254150390625,0.4797515869140625,-0.368438720703125,18148.44033566667,2.542603133167085,-1.139008268893589,-0.5020347053337473,0.00412657018750906,0.004829121753573418,-0.01062990631908178,0.00221937894821167,0.003134101629257202,-0.00950285792350769,XArbitraryZVertical,-0.4373475051379969,0.3539767704751117,-0.8189771840254069,-0.1127108641927997,-0.7961493134498596,0.4812101721763611,-0.3668552041053772,0,0,0,-1,-1,18145.10641779167,unknown,2,2025-04-21T15:17:42.177+03:00,2025-04-20T21:57:49.637+03:00,6664,0.9638649,0,0,5475.677,5,6,2025-04-21T15:17:44.757+03:00,766930664.8577851,0,-44.09,100.2613,1,0.45,2025-04-21T15:14:45.481+03:00,86,1.433333333333333,2025-04-21T12:30:07.995+03:00,0.02023345852159405,0
2025-04-21T15:17:45.536+03:00,1745237858.398729,40.95225582986527,29.1403179372126,76.30476,-1,-1,-1,-1,30,26.56900642780171,-9999,18148.46048766667,-0.7956085205078125,0.4766387939453125,-0.370635986328125,18148.45041166667,2.542613158546091,-1.138916119268227,-0.5019029722088318,0.007453324273228645,0.01078228652477264,-0.008673980832099915,0.001876950263977051,0.004729747772216797,-0.005344033241271973,XArbitraryZVertical,-0.4373357730231475,0.3539206581437949,-0.8190010609428184,-0.1127601609019789,-0.7961732149124146,0.4810946881771088,-0.3669551908969879,0,0,0,-1,-1,18145.10641779167,unknown,2,2025-04-21T15:17:42.177+03:00,2025-04-20T21:57:49.637+03:00,6664,0.9638649,0,0,5475.677,5,6,2025-04-21T15:17:44.757+03:00,766930664.8577851,0,-44.09,100.2613,1,0.45,2025-04-21T15:14:45.481+03:00,86,1.433333333333333,2025-04-21T12:30:07.995+03:00,0.02023345852159405,0
2025-04-21T15:17:45.546+03:00,1745237858.398729,40.95225582986527,29.1403179372126,76.30476,-1,-1,-1,-1,30,26.56900642780171,-9999,18148.47056366667,-0.792816162109375,0.476593017578125,-0.3735809326171875,18148.46048766667,2.542690480352747,-1.138731584084862,-0.5017465936096263,0.01397247612476349,0.01530380081385374,-0.009124854579567909,0.0006110668182373047,-0.002136945724487305,-0.0006948113441467285,XArbitraryZVertical,-0.4373026970894432,0.3538354832538815,-0.8190493683182103,-0.1128050113772143,-0.7961738109588623,0.4809575974941254,-0.367133617401123,0,0,0,-1,-1,18145.10641779167,unknown,2,2025-04-21T15:17:42.177+03:00,2025-04-20T21:57:49.637+03:00,6664,0.9638649,0,0,5475.677,5,6,2025-04-21T15:17:44.757+03:00,766930664.8577851,0,-44.09,100.2613,1,0.45,2025-04-21T15:14:45.481+03:00,86,1.433333333333333,2025-04-21T12:30:07.995+03:00,0.02023345852159405,0
2025-04-21T15:17:45.557+03:00,1745237858.398729,40.95225582986527,29.1403179372126,76.30476,-1,-1,-1,-1,30,26.56900642780171,-9999,18148.48063966667,-0.7906036376953125,0.47509765625,-0.3732757568359375,18148.47056366667,2.542791335154985,-1.138481941234504,-0.5016268236592965,0.004993428941816092,0.01534807682037354,-0.004706637002527714,0.0009530782699584961,-0.003878265619277954,-0.004073053598403931,XArbitraryZVertical,-0.4372404148624104,0.3537550144599145,-0.8191122465833075,-0.1128412999786367,-0.7961342930793762,0.4808525741100311,-0.3673564195632935,0,0,0,-1,-1,18145.10641779167,unknown,2,2025-04-21T15:17:42.177+03:00,2025-04-20T21:57:49.637+03:00,6664,0.9638649,0,0,5475.677,5,6,2025-04-21T15:17:44.757+03:00,766930664.8577851,0,-44.09,100.2613,1,0.45,2025-04-21T15:14:45.481+03:00,86,1.433333333333333,2025-04-21T12:30:07.995+03:00,0.02023345852159405,0
2025-04-21T15:17:45.567+03:00,1745237858.398729,40.95225582986527,29.1403179372126,76.30476,-1,-1,-1,-1,30,26.56900642780171,-9999,18148.49071666667,-0.792572021484375,0.4703826904296875,-0.37249755859375,18148.48063966667,2.542817798305334,-1.13828729133207,-0.5015932300772207,-0.001589106163010001,0.01736595295369625,-0.001781154656782746,0.003505468368530273,-0.004413366317749023,-0.005513489246368408,XArbitraryZVertical,-0.4371715561654328,0.3537258137141381,-0.8191570770975519,-0.112874322971333,-0.7960774898529053,0.4808231294155121,-0.3675181567668915,0,0,0,-1,-1,18145.10641779167,unknown,2,2025-04-21T15:17:42.177+03:00,2025-04-20T21:57:49.637+03:00,6664,0.9638649,0,0,5475.677,5,6,2025-04-21T15:17:44.757+03:00,766930664.8577851,0,-44.09,100.2613,1,0.45,2025-04-21T15:14:45.481+03:00,86,1.433333333333333,2025-04-21T12:30:07.995+03:00,0.02023345852159405,0
2025-04-21T15:17:45.577+03:00,1745237858.398729,40.95225582986527,29.1403179372126,76.30476,-1,-1,-1,-1,30,26.56900642780171,-9999,18148.50079266667,-0.79296875,0.470306396484375,-0.370361328125,18148.49071666667,2.542770316841081,-1.138114929172583,-0.5015995664871379,-0.008079695515334606,0.01798973232507706,-7.203780114650726e-05,0.005880773067474365,-0.006738245487213135,-0.005713224411010742,XArbitraryZVertical,-0.4370913842685928,0.3537288096110068,-0.8191919505799546,-0.1129225080461046,-0.7960113883018494,0.4808286726474762,-0.3676541149616241,0,0,0,-1,-1,18145.10641779167,unknown,2,2025-04-21T15:17:42.177+03:00,2025-04-20T21:57:49.637+03:00,6664,0.9638649,0,0,5475.677,5,6,2025-04-21T15:17:44.757+03:00,766930664.8577851,0,-44.09,100.2613,1,0.45,2025-04-21T15:14:45.481+03:00,86,1.433333333333333,2025-04-21T12:30:07.995+03:00,0.02023345852159405,0
2025-04-21T15:17:45.587+03:00,1745237858.398729,40.95225582986527,29.1403179372126,76.30476,-1,-1,-1,-1,30,26.56900642780171,-9999,18148.51086866667,-0.7934112548828125,0.471710205078125,-0.37078857421875,18148.50079266667,2.542688837253325,-1.137962979679849,-0.5016439814676664,-0.01178069040179253,0.01323252730071545,0.002694720402359962,0.003562450408935547,-0.01042404770851135,-0.004746794700622559,XArbitraryZVertical,-0.4370065633192826,0.3537544710529895,-0.8192195005393296,-0.1129702742589965,-0.7959360480308533,0.4808676242828369,-0.3677660822868347,0,0,0,-1,-1,18145.10641779167,unknown,2,2025-04-21T15:17:42.177+03:00,2025-04-20T21:57:49.637+03:00,6664,0.9638649,0,0,5475.677,5,6,2025-04-21T15:17:44.757+03:00,766930664.8577851,0,-44.09,100.2613,1,0.45,2025-04-21T15:14:45.481+03:00,86,1.433333333333333,2025-04-21T12:30:07.995+03:00,0.02023345852159405,0
2025-04-21T15:17:45.597+03:00,1745237858.398729,40.95225582986527,29.1403179372126,76.30476,-1,-1,-1,-1,30,26.56900642780171,-9999,18148.52094466667,-0.7956695556640625,0.4784088134765625,-0.3733978271484375,18148.51086866667,2.542621035949226,-1.137854429895317,-0.5016949279874476,-0.001716871396638453,0.009698245674371719,0.001417068648152053,0.00249326229095459,-0.0111248791217804,-0.002732783555984497,XArbitraryZVertical,-0.4369407171842882,0.3537820114450773,-0.8192382244621363,-0.1130029789244804,-0.7958739399909973,0.4809122979640961,-0.3678421974182129,0,0,0,-1,-1,18145.10641779167,unknown,2,2025-04-21T15:17:42.177+03:00,2025-04-20T21:57:49.637+03:00,6664,0.9638649,0,0,5475.677,5,6,2025-04-21T15:17:44.757+03:00,766930664.8577851,0,-44.09,100.2613,1,0.45,2025-04-21T15:14:45.481+03:00,86,1.433333333333333,2025-04-21T12:30:07.995+03:00,0.02023345852159405,0
2025-04-21T15:17:45.607+03:00,1745237858.398729,40.95225582986527,29.1403179372126,76.30476,-1,-1,-1,-1,30,26.56900642780171,-9999,18148.53102066667,-0.7932891845703125,0.487213134765625,-0.3714141845703125,18148.52094466667,2.542624103255385,-1.137729198904446,-0.5016930384911723,0.002121542813256383,0.009164015762507915,-0.006450441665947437,0.001562952995300293,-0.008590161800384521,-0.003395646810531616,XArbitraryZVertical,-0.4368902681028053,0.3537735762418959,-0.8192659164468858,-0.1130245300434108,-0.7958288192749023,0.4809106290340424,-0.3679423034191132,0,0,0,-1,-1,18145.10641779167,unknown,2,2025-04-21T15:17:42.177+03:00,2025-04-20T21:57:49.637+03:00,6664,0.9638649,0,0,5475.677,5,6,2025-04-21T15:17:44.757+03:00,766930664.8577851,0,-44.09,100.2613,1,0.45,2025-04-21T15:14:45.481+03:00,86,1.433333333333333,2025-04-21T12:30:07.995+03:00,0.02023345852159405,0
2025-04-21T15:17:45.617+03:00,1745237858.398729,40.95225582986527,29.1403179372126,76.30476,-1,-1,-1,-1,30,26.56900642780171,-9999,18148.54109666667,-0.7933197021484375,0.4808349609375,-0.3656463623046875,18148.53102066667,2.54272290559313,-1.137574795884839,-0.5015909081382739,0.01639555394649506,0.01197578199207783,-0.007930492982268333,0.0005436539649963379,-0.0005051195621490479,-0.005174785852432251,XArbitraryZVertical,-0.4368633479661017,0.353705449332151,-0.8193074680950865,-0.1130398649858649,-0.7958164215087891,0.4808210730552673,-0.3680857419967651,0,0,0,-1,-1,18145.10641779167,unknown,2,2025-04-21T15:17:42.177+03:00,2025-04-20T21:57:49.637+03:00,6664,0.9638649,0,0,5475.677,5,6,2025-04-21T15:17:44.757+03:00,766930664.8577851,0,-44.09,100.2613,1,0.45,2025-04-21T15:14:45.481+03:00,86,1.433333333333333,2025-04-21T12:30:07.995+03:00,0.02023345852159405,0
2025-04-21T15:17:45.627+03:00,1745237858.398729,40.95225582986527,29.1403179372126,76.30476,-1,-1,-1,-1,30,26.56900642780171,-9999,18148.55117266667,-0.7951507568359375,0.478546142578125,-0.3667449951171875,18148.54109666667,2.542803404460215,-1.137405429615797,-0.5014258587301377,0.01276353467255831,0.0131928464397788,-0.01512528955936432,0.002674341201782227,0.006811290979385376,-0.002488970756530762,XArbitraryZVertical,-0.4368385725663815,0.3536171912680134,-0.8193528906557059,-0.1130831642654425,-0.7958261966705322,0.4806763529777527,-0.3682538866996765,0,0,0,-1,-1,18145.10641779167,unknown,2,2025-04-21T15:17:42.177+03:00,2025-04-20T21:57:49.637+03:00,6664,0.9638649,0,0,5475.677,5,6,2025-04-21T15:17:44.757+03:00,766930664.8577851,0,-44.09,100.2613,1,0.45,2025-04-21T15:14:45.481+03:00,86,1.433333333333333,2025-04-21T12:30:07.995+03:00,0.02023345852159405,0
2025-04-21T15:17:45.637+03:00,1745237858.398729,40.95225582986527,29.1403179372126,76.30476,-1,-1,-1,-1,30,26.56900642780171,-9999,18148.56124866667,-0.79315185546875,0.4795684814453125,-0.3699188232421875,18148.55117266667,2.542883214919688,-1.137216372838346,-0.5012055908086916,0.01696373894810677,0.01509607397019863,-0.01525092404335737,0.002502381801605225,-0.0004266500473022461,0.003504246473312378,XArbitraryZVertical,-0.4368158536822098,0.3535074882991549,-0.8194035895790099,-0.1131454060897989,-0.7958524823188782,0.480483204126358,-0.3684487342834473,0,0,0,-1,-1,18145.10641779167,unknown,2,2025-04-21T15:17:42.177+03:00,2025-04-20T21:57:49.637+03:00,6664,0.9638649,0,0,5475.677,5,6,2025-04-21T15:17:44.757+03:00,766930664.8577851,0,-44.09,100.2613,1,0.45,2025-04-21T15:14:45.481+03:00,86,1.433333333333333,2025-04-21T12:30:07.995+03:00,0.02023345852159405,0
2025-04-21T15:17:45.647+03:00,1745237858.398729,40.95225582986527,29.1403179372126,76.30476,-1,-1,-1,-1,30,26.56900642780171,-9999,18148.57132466667,-0.7925262451171875,0.4779510498046875,-0.3732147216796875,18148.56124866667,2.542983916685485,-1.13696810196445,-0.5009950193288526,0.01593203097581863,0.02224506437778473,-0.01370229572057724,0.0008394718170166016,-0.001416862010955811,0.001348763704299927,XArbitraryZVertical,-0.4367706700735278,0.3533934689364045,-0.8194684319722256,-0.1132070875539909,-0.7958528399467468,0.4802985191345215,-0.3686888813972473,0,0,0,-1,-1,18145.10641779167,unknown,2,2025-04-21T15:17:42.177+03:00,2025-04-20T21:57:49.637+03:00,6664,0.9638649,0,0,5475.677,5,6,2025-04-21T15:17:44.757+03:00,766930664.8577851,0,-44.09,100.2613,1,0.45,2025-04-21T15:14:45.481+03:00,86,1.433333333333333,2025-04-21T12:30:07.995+03:00,0.02023345852159405,0
2025-04-21T15:17:45.657+03:00,1745237858.398729,40.95225582986527,29.1403179372126,76.30476,-1,-1,-1,-1,30,26.56900642780171,-9999,18148.58140166667,-0.7890625,0.4731903076171875,-0.37152099609375,18148.57132466667,2.54310133110247,-1.136675691263253,-0.5007957525567335,0.01846702769398689,0.01932830363512039,-0.01241722144186497,0.002435863018035889,-0.0007690191268920898,-0.001536846160888672,XArbitraryZVertical,-0.4367082730157433,0.3532774631611069,-0.8195435244212893,-0.1132664473307521,-0.7958318591117859,0.4801237285137177,-0.3689618408679962,0,0,0,-1,-1,18145.10641779167,unknown,2,2025-04-21T15:17:42.177+03:00,2025-04-20T21:57:49.637+03:00,6664,0.9638649,0,0,5475.677,5,6,2025-04-21T15:17:44.757+03:00,766930664.8577851,0,-44.09,100.2613,1,0.45,2025-04-21T15:14:45.481+03:00,86,1.433333333333333,2025-04-21T12:30:07.995+03:00,0.02023345852159405,0
2025-04-21T15:17:45.667+03:00,1745237858.398729,40.95225582986527,29.1403179372126,76.30476,-1,-1,-1,-1,30,26.56900642780171,-9999,18148.59147766667,-0.7876434326171875,0.4705047607421875,-0.3707122802734375,18148.58140166667,2.543237613922161,-1.136408694561129,-0.5006159245623051,0.01730029657483101,0.01739271730184555,-0.008112487383186817,0.004094123840332031,-0.002900093793869019,-0.004400849342346191,XArbitraryZVertical,-0.4366560244987793,0.3531659599369815,-0.8196136691908976,-0.1133080945590491,-0.7958115935325623,0.4799659848213196,-0.3692106306552887,0,0,0,-1,-1,18145.10641779167,unknown,2,2025-04-21T15:17:42.177+03:00,2025-04-20T21:57:49.637+03:00,6664,0.9638649,0,0,5475.677,5,6,2025-04-21T15:17:44.757+03:00,766930664.8577851,0,-44.09,100.2613,1,0.45,2025-04-21T15:14:45.481+03:00,86,1.433333333333333,2025-04-21T12:30:07.995+03:00,0.02023345852159405,0
2025-04-21T15:17:45.677+03:00,1745237858.398729,40.95225582986527,29.1403179372126,76.30476,-1,-1,-1,-1,30,26.56900642780171,-9999,18148.60155366667,-0.7866058349609375,0.4706573486328125,-0.374298095703125,18148.59147766667,2.543359921511992,-1.136187775862959,-0.5004725519131933,0.01538827922195196,0.01222152449190617,-0.006328502204269171,0.006699442863464355,-0.007000982761383057,-0.001373171806335449,XArbitraryZVertical,-0.4366134592215553,0.3530736151060569,-0.8196721283689747,-0.1133371093598801,-0.7957924604415894,0.4798401892185211,-0.3694154322147369,0,0,0,-1,-1,18145.10641779167,unknown,2,2025-04-21T15:17:42.177+03:00,2025-04-20T21:57:49.637+03:00,6664,0.9638649,0,0,5475.677,5,6,2025-04-21T15:17:44.757+03:00,766930664.8577851,0,-44.09,100.2613,1,0.45,2025-04-21T15:14:45.481+03:00,86,1.433333333333333,2025-04-21T12:30:07.995+03:00,0.02023345852159405,0
2025-04-21T15:17:45.687+03:00,1745237858.398729,40.95225582986527,29.1403179372126,76.30476,-1,-1,-1,-1,30,26.56900642780171,-9999,18148.61162966667,-0.78656005859375,0.4711761474609375,-0.3736572265625,18148.60155366667,2.543445417261032,-1.136046083429059,-0.500369212907407,0.007685085758566856,0.008038231171667576,-0.001901795854791999,0.008416235446929932,-0.009107530117034912,-0.002536565065383911,XArbitraryZVertical,-0.4365894758191799,0.3530086280339481,-0.8197103159683435,-0.1133560390295703,-0.795785129070282,0.4797495305538177,-0.3695490658283234,0,0,0,-1,-1,18145.10641779167,unknown,2,2025-04-21T15:17:42.177+03:00,2025-04-20T21:57:49.637+03:00,6664,0.9638649,0,0,5475.677,5,6,2025-04-21T15:17:44.757+03:00,766930664.8577851,0,-44.09,100.2613,1,0.45,2025-04-21T15:14:45.481+03:00,86,1.433333333333333,2025-04-21T12:30:07.995+03:00,0.02023345852159405,0
2025-04-21T15:17:45.698+03:00,1745237858.398729,40.95225582986527,29.1403179372126,76.30476,-1,-1,-1,-1,30,26.56900642780171,-9999,18148.62170566667,-0.79010009765625,0.4782562255859375,-0.37188720703125,18148.61162966667,2.543555240281165,-1.135916008013568,-0.5002971944130025,0.01319117099046707,0.006329547148197889,-0.003449891461059451,0.009528696537017822,-0.009746342897415161,-0.004509001970291138,XArbitraryZVertical,-0.4365688463052557,0.3529505766003601,-0.8197464356705543,-0.1133539704532987,-0.7957682013511658,0.4796863198280334,-0.3696670532226562,0,0,0,-1,-1,18145.10641779167,unknown,2,2025-04-21T15:17:42.177+03:00,2025-04-20T21:57:49.637+03:00,6664,0.9638649,0,0,5475.677,5,6,2025-04-21T15:17:44.757+03:00,766930664.8577851,0,-44.09,100.2613,1,0.45,2025-04-21T15:14:45.481+03:00,86,1.433333333333333,2025-04-21T12:30:07.995+03:00,0.02023345852159405,0
2025-04-21T15:17:45.708+03:00,1745237858.398729,40.95225582986527,29.1403179372126,76.30476,-1,-1,-1,-1,30,26.56900642780171,-9999,18148.63178166667,-0.791259765625,0.479461669921875,-0.3707122802734375,18148.62170566667,2.543700216949417,-1.13578498317503,-0.5002100896520753,0.01910072565078735,0.005507695954293013,-0.004660031758248806,0.008541584014892578,-0.007716774940490723,-0.003761500120162964,XArbitraryZVertical,-0.4365567288341252,0.3528792219416413,-0.819785291457002,-0.1133420768061483,-0.7957577109336853,0.4796099066734314,-0.3697889447212219,0,0,0,-1,-1,18145.10641779167,unknown,2,2025-04-21T15:17:42.177+03:00,2025-04-20T21:57:49.637+03:00,6664,0.9638649,0,0,5475.677,5,6,2025-04-21T15:17:44.757+03:00,766930664.8577851,0,-44.09,100.2613,1,0.45,2025-04-21T15:14:45.481+03:00,86,1.433333333333333,2025-04-21T12:30:07.995+03:00,0.02023345852159405,0
2025-04-21T15:17:45.718+03:00,1745237858.398729,40.95225582986527,29.1403179372126,76.30476,-1,-1,-1,-1,30,26.56900642780171,-9999,18148.64185766667,-0.791748046875,0.4776763916015625,-0.370513916015625,18148.63178166667,2.54388164556949,-1.135661613313389,-0.5000535275395392,0.02320192754268646,0.003471642266958952,-0.008344815112650394,0.005344390869140625,-0.0007281601428985596,-0.001495480537414551,XArbitraryZVertical,-0.4365669502115348,0.3527745895022571,-0.8198261014766571,-0.1133332699861297,-0.7957801818847656,0.4794725179672241,-0.3699187636375427,0,0,0,-1,-1,18145.10641779167,unknown,2,2025-04-21T15:17:42.177+03:00,2025-04-20T21:57:49.637+03:00,6664,0.9638649,0,0,5475.677,5,6,2025-04-21T15:17:44.757+03:00,766930664.8577851,0,-44.09,100.2613,1,0.45,2025-04-21T15:14:45.481+03:00,86,1.433333333333333,2025-04-21T12:30:07.995+03:00,0.02023345852159405,0
2025-04-21T15:17:45.728+03:00,1745237858.398729,40.95225582986527,29.1403179372126,76.30476,-1,-1,-1,-1,30,26.56900642780171,-9999,18148.65193366667,-0.790863037109375,0.478546142578125,-0.3704833984375,18148.64185766667,2.544079846738551,-1.135570456508593,-0.4998730001378362,0.0238871593028307,-0.0009902180172502995,-0.00991261750459671,0.004046440124511719,0.0002389848232269287,-0.0008828639984130859,XArbitraryZVertical,-0.4365976960379113,0.3526592328966419,-0.8198614440616085,-0.1133186625957611,-0.7958250045776367,0.4793140888214111,-0.3700278401374817,0,0,0,-1,-1,18145.10641779167,unknown,2,2025-04-21T15:17:42.177+03:00,2025-04-20T21:57:49.637+03:00,6664,0.9638649,0,0,5475.677,5,6,2025-04-21T15:17:44.757+03:00,766930664.8577851,0,-44.09,100.2613,1,0.45,2025-04-21T15:14:45.481+03:00,86,1.433333333333333,2025-04-21T12:30:07.995+03:00,0.02023345852159405,0
2025-04-21T15:17:45.738+03:00,1745237858.398729,40.95225582986527,29.1403179372126,76.30476,-1,-1,-1,-1,30,26.56900642780171,-9999,18148.66200966667,-0.793060302734375,0.477142333984375,-0.371917724609375,18148.65193366667,2.544293958452991,-1.135470643747049,-0.4996700092460544,0.02324074320495129,5.687074735760689e-05,-0.01261163130402565,0.004463851451873779,-0.001200318336486816,-0.0003199279308319092,XArbitraryZVertical,-0.4366318628942239,0.3525315558480684,-0.819899920892489,-0.1133051427729762,-0.795876145362854,0.4791359305381775,-0.370148241519928,0,0,0,-1,-1,18145.10641779167,unknown,2,2025-04-21T15:17:42.177+03:00,2025-04-20T21:57:49.637+03:00,6664,0.9638649,0,0,5475.677,5,6,2025-04-21T15:17:44.757+03:00,766930664.8577851,0,-44.09,100.2613,1,0.45,2025-04-21T15:14:45.481+03:00,86,1.433333333333333,2025-04-21T12:30:07.995+03:00,0.02023345852159405,0
2025-04-21T15:17:45.748+03:00,1745237858.398729,40.95225582986527,29.1403179372126,76.30476,-1,-1,-1,-1,30,26.56900642780171,-9999,18148.67208566667,-0.7949066162109375,0.4718780517578125,-0.3699493408203125,18148.66200966667,2.544490618395151,-1.135368829220966,-0.4994712191175489,0.02503198571503162,-0.001264589838683605,-0.01017936691641808,0.005473792552947998,-0.0009189844131469727,-0.0003665685653686523,XArbitraryZVertical,-0.4366612850468235,0.3524091326788487,-0.8199378873591442,-0.113298087258283,-0.7959248423576355,0.4789614081382751,-0.3702694475650787,0,0,0,-1,-1,18145.10641779167,unknown,2,2025-04-21T15:17:42.177+03:00,2025-04-20T21:57:49.637+03:00,6664,0.9638649,0,0,5475.677,5,6,2025-04-21T15:17:44.757+03:00,766930664.8577851,0,-44.09,100.2613,1,0.45,2025-04-21T15:14:45.481+03:00,86,1.433333333333333,2025-04-21T12:30:07.995+03:00,0.02023345852159405,0
2025-04-21T15:17:45.758+03:00,1745237858.398729,40.95225582986527,29.1403179372126,76.30476,-1,-1,-1,-1,30,26.56900642780171,-9999,18148.6821625,-0.7942047119140625,0.4723052978515625,-0.37127685546875,18148.67208566667,2.544677617227149,-1.135302702511608,-0.4992791991758569,0.0187429953366518,-0.00419932696968317,-0.009693838655948639,0.002389430999755859,-0.002200007438659668,-0.0009007751941680908,XArbitraryZVertical,-0.4367023855770729,0.352293334927157,-0.8199673099408846,-0.1132867459476622,-0.7959836721420288,0.4787928462028503,-0.3703608512878418,0,0,0,-1,-1,18145.10641779167,unknown,2,2025-04-21T15:17:42.177+03:00,2025-04-20T21:57:49.637+03:00,6664,0.9638649,0,0,5475.677,5,6,2025-04-21T15:17:44.757+03:00,766930664.8577851,0,-44.09,100.2613,1,0.45,2025-04-21T15:14:45.481+03:00,86,1.433333333333333,2025-04-21T12:30:07.995+03:00,0.02023345852159405,0
2025-04-21T15:17:45.768+03:00,1745237858.398729,40.95225582986527,29.1403179372126,76.30476,-1,-1,-1,-1,30,26.56900642780171,-9999,18148.6922395,-0.795196533203125,0.4732818603515625,-0.373443603515625,18148.6821625,2.544879410131416,-1.135251413716861,-0.4991026177991469,0.02292495779693127,-0.007598851807415485,-0.006425341591238976,0.0009821653366088867,-0.007263451814651489,0.000457465648651123,XArbitraryZVertical,-0.4367493100478699,0.3521808644299862,-0.8199939983263355,-0.1132624246223197,-0.7960413694381714,0.4786378145217896,-0.370437353849411,0,0,0,-1,-1,18145.10641779167,unknown,2,2025-04-21T15:17:42.177+03:00,2025-04-20T21:57:49.637+03:00,6664,0.9638649,0,0,5475.677,5,6,2025-04-21T15:17:44.757+03:00,766930664.8577851,0,-44.09,100.2613,1,0.45,2025-04-21T15:14:45.481+03:00,86,1.433333333333333,2025-04-21T12:30:07.995+03:00,0.02023345852159405,0
2025-04-21T15:17:45.778+03:00,1745237858.398729,40.95225582986527,29.1403179372126,76.30476,-1,-1,-1,-1,30,26.56900642780171,-9999,18148.7023155,-0.79559326171875,0.4744720458984375,-0.3730316162109375,18148.6922395,2.545085503725637,-1.135195239158309,-0.4989284867922738,0.02020234242081642,-0.003482736647129059,-0.008875615894794464,0.002349138259887695,-0.006011873483657837,-0.0009579956531524658,XArbitraryZVertical,-0.436794483003371,0.3520680842798976,-0.8200220337032189,-0.113236607307778,-0.7960962057113647,0.4784849286079407,-0.3705172836780548,0,0,0,-1,-1,18145.10641779167,unknown,2,2025-04-21T15:17:42.177+03:00,2025-04-20T21:57:49.637+03:00,6664,0.9638649,0,0,5475.677,5,6,2025-04-21T15:17:44.757+03:00,766930664.8577851,0,-44.09,100.2613,1,0.45,2025-04-21T15:14:45.481+03:00,86,1.433333333333333,2025-04-21T12:30:07.995+03:00,0.02023345852159405,0
2025-04-21T15:17:45.788+03:00,1745237858.398729,40.95225582986527,29.1403179372126,76.30476,-1,-1,-1,-1,30,26.56900642780171,-9999,18148.7123915,-0.7947845458984375,0.47705078125,-0.374542236328125,18148.7023155,2.545306500898536,-1.135118397494456,-0.4987382120952386,0.02740512788295746,-0.00433441624045372,-0.01109935529530048,0.00131988525390625,-0.004822492599487305,-0.002369046211242676,XArbitraryZVertical,-0.4368368022011388,0.3519448626472819,-0.8200556297275234,-0.1132126428559847,-0.7961501479148865,0.4783178269863129,-0.3706168532371521,0,0,0,-1,-1,18145.10641779167,unknown,2,2025-04-21T15:17:42.177+03:00,2025-04-20T21:57:49.637+03:00,6664,0.9638649,0,0,5475.677,5,6,2025-04-21T15:17:44.757+03:00,766930664.8577851,0,-44.09,100.2613,1,0.45,2025-04-21T15:14:45.481+03:00,86,1.433333333333333,2025-04-21T12:30:07.995+03:00,0.02023345852159405,0
2025-04-21T15:17:45.798+03:00,1745237858.398729,40.95225582986527,29.1403179372126,76.30476,-1,-1,-1,-1,30,26.56900642780171,-9999,18148.7224675,-0.7946624755859375,0.4764404296875,-0.3714752197265625,18148.7123915,2.545562153247512,-1.135039547479308,-0.4985118943536903,0.03256706520915031,-0.004790148697793484,-0.01084678806364536,0.0008547306060791016,-0.002701133489608765,-0.002931952476501465,XArbitraryZVertical,-0.4368909468350461,0.3518005758309198,-0.8200925328493415,-0.1131849705420109,-0.7962191104888916,0.4781190752983093,-0.3707253038883209,0,0,0,-1,-1,18145.10641779167,unknown,2,2025-04-21T15:17:42.177+03:00,2025-04-20T21:57:49.637+03:00,6664,0.9638649,0,0,5475.677,5,6,2025-04-21T15:17:44.757+03:00,766930664.8577851,0,-44.09,100.2613,1,0.45,2025-04-21T15:14:45.481+03:00,86,1.433333333333333,2025-04-21T12:30:07.995+03:00,0.02023345852159405,0
2025-04-21T15:17:45.808+03:00,1745237858.398729,40.95225582986527,29.1403179372126,76.30476,-1,-1,-1,-1,30,26.56900642780171,-9999,18148.7325435,-0.7943572998046875,0.47528076171875,-0.368255615234375,18148.7224675,2.545834844634889,-1.134959802319628,-0.498272168308536,0.02989884465932846,-0.005688433535397053,-0.01208116300404072,0.002241313457489014,-0.0009189248085021973,-0.003567755222320557,XArbitraryZVertical,-0.4369501277442994,0.3516475243655939,-0.8201309390720068,-0.1131542408668157,-0.7962934374809265,0.4779085218906403,-0.3708372116088867,0,0,0,-1,-1,18145.10641779167,unknown,2,2025-04-21T15:17:42.177+03:00,2025-04-20T21:57:49.637+03:00,6664,0.9638649,0,0,5475.677,5,6,2025-04-21T15:17:44.757+03:00,766930664.8577851,0,-44.09,100.2613,1,0.45,2025-04-21T15:14:45.481+03:00,86,1.433333333333333,2025-04-21T12:30:07.995+03:00,0.02023345852159405,0
2025-04-21T15:17:45.818+03:00,1745237858.398729,40.95225582986527,29.1403179372126,76.30476,-1,-1,-1,-1,30,26.56900642780171,-9999,18148.7426195,-0.796661376953125,0.47503662109375,-0.3652191162109375,18148.7325435,2.546084955008465,-1.134897906357317,-0.4980339719755584,0.03003526665270329,-0.007754180114716291,-0.01402031071484089,0.002138376235961914,-0.001213192939758301,-0.0002202987670898438,XArbitraryZVertical,-0.4370123751532571,0.3515009545922452,-0.8201640267664438,-0.1131290794393211,-0.7963736057281494,0.4776992499828339,-0.3709345161914825,0,0,0,-1,-1,18145.10641779167,unknown,2,2025-04-21T15:17:42.177+03:00,2025-04-20T21:57:49.637+03:00,6664,0.9638649,0,0,5475.677,5,6,2025-04-21T15:17:44.757+03:00,766930664.8577851,0,-44.09,100.2613,1,0.45,2025-04-21T15:14:45.481+03:00,86,1.433333333333333,2025-04-21T12:30:07.995+03:00,0.02023345852159405,0
2025-04-21T15:17:45.829+03:00,1745237858.398729,40.95225582986527,29.1403179372126,76.30476,-1,-1,-1,-1,30,26.56900642780171,-9999,18148.7526955,-0.7982940673828125,0.4720611572265625,-0.3653564453125,18148.7426195,2.546323013341628,-1.13482920126201,-0.4977806310969159,0.02847784943878651,-0.001942630391567945,-0.01478330604732037,0.002085268497467041,-0.001646757125854492,0.003776490688323975,XArbitraryZVertical,-0.4370724370092073,0.3513509944220992,-0.8201982999297767,-0.1131143126490081,-0.7964577674865723,0.4774766862392426,-0.3710403144359589,0,0,0,-1,-1,18145.10641779167,unknown,2,2025-04-21T15:17:42.177+03:00,2025-04-20T21:57:49.637+03:00,6664,0.9638649,0,0,5475.677,5,6,2025-04-21T15:17:44.757+03:00,766930664.8577851,0,-44.09,100.2613,1,0.45,2025-04-21T15:14:45.481+03:00,86,1.433333333333333,2025-04-21T12:30:07.995+03:00,0.02023345852159405,0
2025-04-21T15:17:45.839+03:00,1745237858.398729,40.95225582986527,29.1403179372126,76.30476,-1,-1,-1,-1,30,26.56900642780171,-9999,18148.7627715,-0.797760009765625,0.472869873046875,-0.36712646484375,18148.7526955,2.546550282007719,-1.134731407482281,-0.4975353837408458,0.02745372988283634,-0.002262609545141459,-0.01389693934470415,0.0002477169036865234,-0.002621471881866455,0.005155056715011597,XArbitraryZVertical,-0.4371171784461172,0.3512047267465319,-0.8202380674023314,-0.1131067332576488,-0.7965275645256042,0.4772611856460571,-0.3711676299571991,0,0,0,-1,-1,18145.10641779167,unknown,2,2025-04-21T15:17:42.177+03:00,2025-04-20T21:57:49.637+03:00,6664,0.9638649,0,0,5475.677,5,6,2025-04-21T15:17:44.757+03:00,766930664.8577851,0,-44.09,100.2613,1,0.45,2025-04-21T15:14:45.481+03:00,86,1.433333333333333,2025-04-21T12:30:07.995+03:00,0.02023345852159405,0
2025-04-21T15:17:45.849+03:00,1745237858.398729,40.95225582986527,29.1403179372126,76.30476,-1,-1,-1,-1,30,26.56900642780171,-9999,18148.7728475,-0.7964019775390625,0.4729766845703125,-0.368499755859375,18148.7627715,2.546779926389102,-1.134656819831472,-0.4972779424275195,0.02687635645270348,-0.003484733868390322,-0.01353474892675877,-0.001789569854736328,-0.004806071519851685,0.006319224834442139,XArbitraryZVertical,-0.4371739920506157,0.3510547196880223,-0.8202733387207428,-0.1130976689605241,-0.7966113090515137,0.4770349264144897,-0.3712789714336395,0,0,0,-1,-1,18145.10641779167,unknown,2,2025-04-21T15:17:42.177+03:00,2025-04-20T21:57:49.637+03:00,6664,0.9638649,0,0,5475.677,5,6,2025-04-21T15:17:44.757+03:00,766930664.8577851,0,-44.09,100.2613,1,0.45,2025-04-21T15:14:45.481+03:00,86,1.433333333333333,2025-04-21T12:30:07.995+03:00,0.02023345852159405,0
2025-04-21T15:17:45.859+03:00,1745237858.398729,40.95225582986527,29.1403179372126,76.30476,-1,-1,-1,-1,30,26.56900642780171,-9999,18148.7829245,-0.7944793701171875,0.4742584228515625,-0.3706817626953125,18148.7728475,2.547005077008589,-1.134583692971254,-0.4970136802919947,0.02763229608535767,-0.003561566583812237,-0.01537719089537859,-0.001580417156219482,-0.004299163818359375,0.003394186496734619,XArbitraryZVertical,-0.4372318545302757,0.3509032170536922,-0.8203081125473646,-0.1130919987806623,-0.7966983914375305,0.4768026769161224,-0.3713904619216919,0,0,0,-1,-1,18145.10641779167,unknown,2,2025-04-21T15:17:42.177+03:00,2025-04-20T21:57:49.637+03:00,6664,0.9638649,0,0,5475.677,5,6,2025-04-21T15:17:44.757+03:00,766930664.8577851,0,-44.09,100.2613,1,0.45,2025-04-21T15:14:45.481+03:00,86,1.433333333333333,2025-04-21T12:30:07.995+03:00,0.02023345852159405,0
2025-04-21T15:17:45.869+03:00,1745237858.398729,40.95225582986527,29.1403179372126,76.30476,-1,-1,-1,-1,30,26.56900642780171,-9999,18148.7930005,-0.79620361328125,0.4736175537109375,-0.374114990234375,18148.7829245,2.547223911295017,-1.134503663881268,-0.4967464319334149,0.03157297521829605,-0.002262476831674576,-0.01674392633140087,0.0005957484245300293,-0.004186302423477173,0.003130316734313965,XArbitraryZVertical,-0.4372862921049522,0.350751573927968,-0.8203440893228552,-0.1130909329364015,-0.7967841029167175,0.4765677452087402,-0.3715080618858337,0,0,0,-1,-1,18145.10641779167,unknown,2,2025-04-21T15:17:42.177+03:00,2025-04-20T21:57:49.637+03:00,6664,0.9638649,0,0,5475.677,5,6,2025-04-21T15:17:44.757+03:00,766930664.8577851,0,-44.09,100.2613,1,0.45,2025-04-21T15:14:45.481+03:00,86,1.433333333333333,2025-04-21T12:30:07.995+03:00,0.02023345852159405,0
2025-04-21T15:17:45.879+03:00,1745237858.398729,40.95225582986527,29.1403179372126,76.30476,-1,-1,-1,-1,30,26.56900642780171,-9999,18148.8030765,-0.7982330322265625,0.4724578857421875,-0.3764495849609375,18148.7930005,2.547490252127749,-1.134390720378285,-0.4964346371882278,0.03642218932509422,-0.001128635834902525,-0.01938584819436073,0.002504229545593262,-0.001913249492645264,0.0005975961685180664,XArbitraryZVertical,-0.4373436459278481,0.3505711131629053,-0.8203910062341199,-0.1130886199757809,-0.7968767881393433,0.4762935936450958,-0.3716608583927155,0,0,0,-1,-1,18145.10641779167,unknown,2,2025-04-21T15:17:42.177+03:00,2025-04-20T21:57:49.637+03:00,6664,0.9638649,0,0,5475.677,5,6,2025-04-21T15:17:44.757+03:00,766930664.8577851,0,-44.09,100.2613,1,0.45,2025-04-21T15:14:45.481+03:00,86,1.433333333333333,2025-04-21T12:30:07.995+03:00,0.02023345852159405,0
2025-04-21T15:17:45.889+03:00,1745237858.398729,40.95225582986527,29.1403179372126,76.30476,-1,-1,-1,-1,30,26.56900642780171,-9999,18148.8131525,-0.79852294921875,0.471923828125,-0.3778839111328125,18148.8030765,2.547812424531315,-1.134208807450249,-0.4961093542855754,0.04152747243642807,0.004864275455474854,-0.01746011711657047,0.0002270936965942383,-0.002802133560180664,-0.002442121505737305,XArbitraryZVertical,-0.4373849246218662,0.3503694948193051,-0.820456395889389,-0.1130791489398901,-0.7969495058059692,0.4760075509548187,-0.371871292591095,0,0,0,-1,-1,18145.10641779167,unknown,2,2025-04-21T15:17:42.177+03:00,2025-04-20T21:57:49.637+03:00,6664,0.9638649,0,0,5475.677,5,6,2025-04-21T15:17:44.757+03:00,766930664.8577851,0,-44.09,100.2613,1,0.45,2025-04-21T15:14:45.481+03:00,86,1.433333333333333,2025-04-21T12:30:07.995+03:00,0.02023345852159405,0
2025-04-21T15:17:45.899+03:00,1745237858.398729,40.95225582986527,29.1403179372126,76.30476,-1,-1,-1,-1,30,26.56900642780171,-9999,18148.8232285,-0.7948760986328125,0.4701385498046875,-0.3710174560546875,18148.8131525,2.548163737350534,-1.134059594466658,-0.4957761135232459,0.03564747795462608,-0.007768428884446621,-0.01703933626413345,-0.001470029354095459,-0.002692192792892456,-0.003965109586715698,XArbitraryZVertical,-0.4374461154943815,0.3501603574006498,-0.8205164288043106,-0.1130541393249192,-0.7970376014709473,0.4757144749164581,-0.3720572292804718,0,0,0,-1,-1,18145.10641779167,unknown,2,2025-04-21T15:17:42.177+03:00,2025-04-20T21:57:49.637+03:00,6664,0.9638649,0,0,5475.677,5,6,2025-04-21T15:17:44.757+03:00,766930664.8577851,0,-44.09,100.2613,1,0.45,2025-04-21T15:14:45.481+03:00,86,1.433333333333333,2025-04-21T12:30:07.995+03:00,0.02023345852159405,0
2025-04-21T15:17:45.909+03:00,1745237858.398729,40.95225582986527,29.1403179372126,76.30476,-1,-1,-1,-1,30,26.56900642780171,-9999,18148.8333045,-0.7969207763671875,0.470672607421875,-0.3578033447265625,18148.8232285,2.548363883316302,-1.134098230698025,-0.4955179662836074,0.02399135380983353,-0.0133972866460681,-0.01699033565819263,-0.0003525614738464355,-0.00405198335647583,-0.005820810794830322,XArbitraryZVertical,-0.4375441017251479,0.3500227996153356,-0.8205252306493624,-0.1130373998115952,-0.7971633076667786,0.4754873812198639,-0.3720783889293671,0,0,0,-1,-1,18145.10641779167,unknown,2,2025-04-21T15:17:42.177+03:00,2025-04-20T21:57:49.637+03:00,6664,0.9638649,0,0,5475.677,5,6,2025-04-21T15:17:44.757+03:00,766930664.8577851,0,-44.09,100.2613,1,0.45,2025-04-21T15:14:45.481+03:00,86,1.433333333333333,2025-04-21T12:30:07.995+03:00,0.02023345852159405,0
2025-04-21T15:17:45.919+03:00,1745237858.398729,40.95225582986527,29.1403179372126,76.30476,-1,-1,-1,-1,30,26.56900642780171,-9999,18148.8433805,-0.802398681640625,0.46868896484375,-0.3670196533203125,18148.8333045,2.548505829974924,-1.134136800789949,-0.4952551887964738,0.02331564575433731,-0.002944712061434984,-0.01775669306516647,0.0027199387550354,-0.004919439554214478,0.002608835697174072,XArbitraryZVertical,-0.4376327064679044,0.3498962291064635,-0.820530815456605,-0.1130458041279016,-0.7972908616065979,0.4752562046051025,-0.3721004724502563,0,0,0,-1,-1,18145.10641779167,unknown,2,2025-04-21T15:17:42.177+03:00,2025-04-20T21:57:49.637+03:00,6664,0.9638649,0,0,5475.677,5,6,2025-04-21T15:17:44.757+03:00,766930664.8577851,0,-44.09,100.2613,1,0.45,2025-04-21T15:14:45.481+03:00,86,1.433333333333333,2025-04-21T12:30:07.995+03:00,0.02023345852159405,0
2025-04-21T15:17:45.929+03:00,1745237858.398729,40.95225582986527,29.1403179372126,76.30476,-1,-1,-1,-1,30,26.56900642780171,-9999,18148.8534565,-0.797943115234375,0.464569091796875,-0.36822509765625,18148.8433805,2.54863047780063,-1.13408445487276,-0.4950209556338536,0.01749477349221706,0.004888976458460093,-0.01211505196988583,-0.0003114938735961914,-0.004591286182403564,0.01511833071708679,XArbitraryZVertical,-0.4376757808933997,0.3497788979981539,-0.8205545893618974,-0.1130691631575996,-0.7973721623420715,0.4750500917434692,-0.3721892535686493,0,0,0,-1,-1,18145.10641779167,unknown,2,2025-04-21T15:17:42.177+03:00,2025-04-20T21:57:49.637+03:00,6664,0.9638649,0,0,5475.677,5,6,2025-04-21T15:17:44.757+03:00,766930664.8577851,0,-44.09,100.2613,1,0.45,2025-04-21T15:14:45.481+03:00,86,1.433333333333333,2025-04-21T12:30:07.995+03:00,0.02023345852159405,0
2025-04-21T15:17:45.939+03:00,1745237858.398729,40.95225582986527,29.1403179372126,76.30476,-1,-1,-1,-1,30,26.56900642780171,-9999,18148.8635325,-0.7947235107421875,0.46478271484375,-0.363861083984375,18148.8534565,2.54873188661885,-1.133977908417465,-0.4948229627215805,0.01790543273091316,0.008052012883126736,-0.012265520170331,-0.004309475421905518,-0.00731620192527771,0.003829479217529297,XArbitraryZVertical,-0.4376858765513963,0.349677064787444,-0.8205882259371418,-0.1131015566549044,-0.7974178194999695,0.4748758673667908,-0.3723140358924866,0,0,0,-1,-1,18145.10641779167,unknown,2,2025-04-21T15:17:42.177+03:00,2025-04-20T21:57:49.637+03:00,6664,0.9638649,0,0,5475.677,5,6,2025-04-21T15:17:44.757+03:00,766930664.8577851,0,-44.09,100.2613,1,0.45,2025-04-21T15:14:45.481+03:00,86,1.433333333333333,2025-04-21T12:30:07.995+03:00,0.02023345852159405,0
2025-04-21T15:17:45.963+03:00,1745237858.398729,40.95225582986527,29.1403179372126,76.30476,-1,-1,-1,-1,30,26.56900642780171,-9999,18148.8736085,-0.794403076171875,0.47442626953125,-0.3686065673828125,18148.8635325,2.548831708805875,-1.133802226997056,-0.4946664391602902,0.01273890025913715,0.01645694859325886,-0.009420998394489288,0.0006362795829772949,-0.01044380664825439,0.005572736263275146,XArbitraryZVertical,-0.4376597707271923,0.3495870761035625,-0.8206359073510462,-0.113135041953264,-0.7974197268486023,0.4747380912303925,-0.3724856078624725,0,0,0,-1,-1,18145.10641779167,unknown,2,2025-04-21T15:17:42.177+03:00,2025-04-20T21:57:49.637+03:00,6664,0.9638649,0,0,5475.677,5,6,2025-04-21T15:17:44.757+03:00,766930664.8577851,0,-44.09,100.2613,1,0.45,2025-04-21T15:14:45.481+03:00,86,1.433333333333333,2025-04-21T12:30:07.995+03:00,0.02023345852159405,0
2025-04-21T15:17:45.966+03:00,1745237858.398729,40.95225582986527,29.1403179372126,76.30476,-1,-1,-1,-1,30,26.56900642780171,-9999,18148.8836855,-0.793426513671875,0.46868896484375,-0.364471435546875,18148.8736085,2.548874049458477,-1.133640924450776,-0.494556014720807,-0.00265556899830699,0.009200301021337509,-0.008210091851651669,0.003110885620117188,-0.00897333025932312,0.007432520389556885,XArbitraryZVertical,-0.4376211092535878,0.349527615140976,-0.8206761220453295,-0.1131766979220856,-0.7974071502685547,0.4746409058570862,-0.3726364076137543,0,0,0,-1,-1,18145.10641779167,unknown,2,2025-04-21T15:17:42.177+03:00,2025-04-20T21:57:49.637+03:00,6664,0.9638649,0,0,5475.677,5,6,2025-04-21T15:17:44.757+03:00,766930664.8577851,0,-44.09,100.2613,1,0.45,2025-04-21T15:14:45.481+03:00,86,1.433333333333333,2025-04-21T12:30:07.995+03:00,0.02023345852159405,0
2025-04-21T15:17:45.970+03:00,1745237858.398729,40.95225582986527,29.1403179372126,76.30476,-1,-1,-1,-1,30,26.56900642780171,-9999,18148.8937615,-0.7962646484375,0.4633636474609375,-0.3702545166015625,18148.8836855,2.548738526547746,-1.133653169734393,-0.494504970539804,-0.01540971361100674,0.002013228600844741,-0.00831102579832077,0.003091514110565186,-6.309151649475098e-05,0.0045032799243927,XArbitraryZVertical,-0.4376118087036686,0.3495389620541732,-0.8206667761832721,-0.1132442517072538,-0.7974334955215454,0.4745959937572479,-0.3726368248462677,0,0,0,-1,-1,18145.10641779167,unknown,2,2025-04-21T15:17:42.177+03:00,2025-04-20T21:57:49.637+03:00,6664,0.9638649,0,0,5475.677,5,6,2025-04-21T15:17:44.757+03:00,766930664.8577851,0,-44.09,100.2613,1,0.45,2025-04-21T15:14:45.481+03:00,86,1.433333333333333,2025-04-21T12:30:07.995+03:00,0.02023345852159405,0
2025-04-21T15:17:45.981+03:00,1745237858.398729,40.95225582986527,29.1403179372126,76.30476,-1,-1,-1,-1,30,26.56900642780171,-9999,18148.9038375,-0.798736572265625,0.46881103515625,-0.3800201416015625,18148.8937615,2.548567880991952,-1.133699260166291,-0.4944946828126522,-0.009852495975792408,0.001738923136144876,-0.005725762341171503,0.004089713096618652,-0.006905227899551392,0.008008629083633423,XArbitraryZVertical,-0.4376027577731002,0.3495750874936391,-0.8206472982800611,-0.1133091292341464,-0.7974551320075989,0.4745869338512421,-0.3726021647453308,0,0,0,-1,-1,18145.10641779167,unknown,2,2025-04-21T15:17:42.177+03:00,2025-04-20T21:57:49.637+03:00,6664,0.9638649,0,0,5475.677,5,6,2025-04-21T15:17:44.757+03:00,766930664.8577851,0,-44.09,100.2613,1,0.45,2025-04-21T15:14:45.481+03:00,86,1.433333333333333,2025-04-21T12:30:07.995+03:00,0.02023345852159405,0
2025-04-21T15:17:45.990+03:00,1745237858.398729,40.95225582986527,29.1403179372126,76.30476,-1,-1,-1,-1,30,26.56900642780171,-9999,18148.9139135,-0.7925262451171875,0.473846435546875,-0.378021240234375,18148.9038375,2.54857201586268,-1.133695895144795,-0.4944275066833552,0.01167037338018417,-0.004027353599667549,-0.006484496872872114,-3.30805778503418e-05,-0.01061499118804932,0.0002886056900024414,XArbitraryZVertical,-0.437614343869051,0.3495490084720095,-0.8206498028482485,-0.1133267840948968,-0.7974827885627747,0.4745278060436249,-0.3726183474063873,0,0,0,-1,-1,18145.10641779167,unknown,2,2025-04-21T15:17:42.177+03:00,2025-04-20T21:57:49.637+03:00,6664,0.9638649,0,0,5475.677,5,6,2025-04-21T15:17:44.757+03:00,766930664.8577851,0,-44.09,100.2613,1,0.45,2025-04-21T15:14:45.481+03:00,86,1.433333333333333,2025-04-21T12:30:07.995+03:00,0.02023345852159405,0
2025-04-21T15:17:46.000+03:00,1745237858.398729,40.95225582986527,29.1403179372126,76.30476,-1,-1,-1,-1,30,26.56900642780171,-9999,18148.9239895,-0.7926788330078125,0.47515869140625,-0.3697509765625,18148.9139135,2.548734663504488,-1.133719951918245,-0.4942812063289876,0.02318834513425827,-0.01139865070581436,-0.005485378671437502,-0.0009377598762512207,-0.004458963871002197,-0.007864654064178467,XArbitraryZVertical,-0.4376793075538303,0.3494603652658622,-0.8206570719345625,-0.113296683040227,-0.797554612159729,0.4743990004062653,-0.3726285398006439,0,0,0,-1,-1,18145.10641779167,unknown,2,2025-04-21T15:17:42.177+03:00,2025-04-20T21:57:49.637+03:00,6664,0.9638649,0,0,5475.677,5,6,2025-04-21T15:17:44.757+03:00,766930664.8577851,0,-44.09,100.2613,1,0.45,2025-04-21T15:14:45.481+03:00,86,1.433333333333333,2025-04-21T12:30:07.995+03:00,0.02023345852159405,0
2025-04-21T15:17:46.010+03:00,1745237858.398729,40.95225582986527,29.1403179372126,76.30476,-1,-1,-1,-1,30,26.56900642780171,-9999,18148.9340655,-0.7965850830078125,0.4732208251953125,-0.3663177490234375,18148.9239895,2.5489290622899,-1.133812516720353,-0.4940803224852519,0.02215157635509968,-0.01752711646258831,-0.0120804300531745,0.005607008934020996,0.000219196081161499,-0.004312306642532349,XArbitraryZVertical,-0.4377878699686347,0.3493483366225243,-0.8206523497132723,-0.1132567967061927,-0.7976754307746887,0.4742221534252167,-0.3725950419902802,0,0,0,-1,-1,18145.10641779167,unknown,2,2025-04-21T15:17:42.177+03:00,2025-04-20T21:57:49.637+03:00,6664,0.9638649,0,0,5475.677,5,6,2025-04-21T15:17:44.757+03:00,766930664.8577851,0,-44.09,100.2613,1,0.45,2025-04-21T15:14:45.481+03:00,86,1.433333333333333,2025-04-21T12:30:07.995+03:00,0.02023345852159405,0
2025-04-21T15:17:46.020+03:00,1745237858.398729,40.95225582986527,29.1403179372126,76.30476,-1,-1,-1,-1,30,26.56900642780171,-9999,18148.9441415,-0.79888916015625,0.47344970703125,-0.3639373779296875,18148.9340655,2.5490955816929,-1.133923423465704,-0.4938350784684822,0.02105015888810158,-0.01789829321205616,-0.01703880354762077,0.004380404949188232,0.0008013248443603516,0.002926856279373169,XArbitraryZVertical,-0.437907147108325,0.3492269321447772,-0.8206430264531904,-0.1132375424752762,-0.797822117805481,0.4740062355995178,-0.3725557625293732,0,0,0,-1,-1,18145.10641779167,unknown,2,2025-04-21T15:17:42.177+03:00,2025-04-20T21:57:49.637+03:00,6664,0.9638649,0,0,5475.677,5,6,2025-04-21T15:17:44.757+03:00,766930664.8577851,0,-44.09,100.2613,1,0.45,2025-04-21T15:14:45.481+03:00,86,1.433333333333333,2025-04-21T12:30:07.995+03:00,0.02023345852159405,0
2025-04-21T15:17:46.030+03:00,1745237858.398729,40.95225582986527,29.1403179372126,76.30476,-1,-1,-1,-1,30,26.56900642780171,-9999,18148.9542175,-0.7996978759765625,0.474517822265625,-0.36553955078125,18148.9441415,2.549275167043544,-1.133984842908872,-0.4935363868057294,0.03273344784975052,-0.008040336892008781,-0.02009611390531063,0.0002895593643188477,-0.00127023458480835,0.00666084885597229,XArbitraryZVertical,-0.4380181145198822,0.3490799626096719,-0.8206464500448009,-0.1132364756017868,-0.7979732155799866,0.473743200302124,-0.3725666105747223,0,0,0,-1,-1,18145.10641779167,unknown,2,2025-04-21T15:17:42.177+03:00,2025-04-20T21:57:49.637+03:00,6664,0.9638649,0,0,5475.677,5,6,2025-04-21T15:17:44.757+03:00,766930664.8577851,0,-44.09,100.2613,1,0.45,2025-04-21T15:14:45.481+03:00,86,1.433333333333333,2025-04-21T12:30:07.995+03:00,0.02023345852159405,0
2025-04-21T15:17:46.041+03:00,1745237858.398729,40.95225582986527,29.1403179372126,76.30476,-1,-1,-1,-1,30,26.56900642780171,-9999,18148.9642935,-0.7980499267578125,0.469970703125,-0.372650146484375,18148.9542175,2.549517259790163,-1.133931263108725,-0.4932275974075033,0.02952214144170284,-0.002166536170989275,-0.01629581674933434,-0.0003150105476379395,0.0002223849296569824,0.009283155202865601,XArbitraryZVertical,-0.4380945907931848,0.3489090158009752,-0.8206788542086331,-0.1132326871592894,-0.7980857491493225,0.4734712541103363,-0.3726712465286255,0,0,0,-1,-1,18145.10641779167,unknown,2,2025-04-21T15:17:42.177+03:00,2025-04-20T21:57:49.637+03:00,6664,0.9638649,0,0,5475.677,5,6,2025-04-21T15:17:44.757+03:00,766930664.8577851,0,-44.09,100.2613,1,0.45,2025-04-21T15:14:45.481+03:00,86,1.433333333333333,2025-04-21T12:30:07.995+03:00,0.02023345852159405,0
2025-04-21T15:17:46.050+03:00,1745237858.398729,40.95225582986527,29.1403179372126,76.30476,-1,-1,-1,-1,30,26.56900642780171,-9999,18148.9743695,-0.7939910888671875,0.4694366455078125,-0.3758087158203125,18148.9642935,2.549784089858334,-1.133770594502563,-0.4929585929844635,0.03624608740210533,0.009603304788470268,-0.01262624561786652,-0.001419246196746826,0.001329153776168823,0.005757391452789307,XArbitraryZVertical,-0.4381241267553249,0.3487413725960187,-0.8207352857528244,-0.1132263732040612,-0.7981413006782532,0.4732342958450317,-0.3728533983230591,0,0,0,-1,-1,18145.10641779167,unknown,2,2025-04-21T15:17:42.177+03:00,2025-04-20T21:57:49.637+03:00,6664,0.9638649,0,0,5475.677,5,6,2025-04-21T15:17:44.757+03:00,766930664.8577851,0,-44.09,100.2613,1,0.45,2025-04-21T15:14:45.481+03:00,86,1.433333333333333,2025-04-21T12:30:07.995+03:00,0.02023345852159405,0
2025-04-21T15:17:46.060+03:00,1745237858.398729,40.95225582986527,29.1403179372126,76.30476,-1,-1,-1,-1,30,26.56900642780171,-9999,18148.9844465,-0.7913665771484375,0.4643096923828125,-0.374237060546875,18148.9743695,2.550052747745389,-1.133565491280137,-0.4927331187422686,0.02625184506177902,0.01033946871757507,-0.00707471976056695,0.0008592009544372559,-0.003171950578689575,9.164214134216309e-05,XArbitraryZVertical,-0.4381278319102495,0.3485869814083175,-0.8208004288274954,-0.113214720170956,-0.7981613874435425,0.4730356335639954,-0.3730622529983521,0,0,0,-1,-1,18145.10641779167,unknown,2,2025-04-21T15:17:42.177+03:00,2025-04-20T21:57:49.637+03:00,6664,0.9638649,0,0,5475.677,5,6,2025-04-21T15:17:44.757+03:00,766930664.8577851,0,-44.09,100.2613,1,0.45,2025-04-21T15:14:45.481+03:00,86,1.433333333333333,2025-04-21T12:30:07.995+03:00,0.02023345852159405,0
2025-04-21T15:17:46.071+03:00,1745237858.398729,40.95225582986527,29.1403179372126,76.30476,-1,-1,-1,-1,30,26.56900642780171,-9999,18148.9945225,-0.7944793701171875,0.4550628662109375,-0.372283935546875,18148.9844465,2.550202430206858,-1.133380557924078,-0.4925914332181753,0.006132729351520538,0.01103029306977987,-0.005179614294320345,0.005276024341583252,-0.003993123769760132,-0.002662062644958496,XArbitraryZVertical,-0.4381037459216967,0.3484909888609441,-0.8208527086748367,-0.1132251586435434,-0.7981531620025635,0.4729108214378357,-0.3732382655143738,0,0,0,-1,-1,18145.10641779167,unknown,2,2025-04-21T15:17:42.177+03:00,2025-04-20T21:57:49.637+03:00,6664,0.9638649,0,0,5475.677,5,6,2025-04-21T15:17:44.757+03:00,766930664.8577851,0,-44.09,100.2613,1,0.45,2025-04-21T15:14:45.481+03:00,86,1.433333333333333,2025-04-21T12:30:07.995+03:00,0.02023345852159405,0
2025-04-21T15:17:46.080+03:00,1745237858.398729,40.95225582986527,29.1403179372126,76.30476,-1,-1,-1,-1,30,26.56900642780171,-9999,18149.0045985,-0.7952728271484375,0.4508514404296875,-0.374359130859375,18148.9945225,2.550156525681075,-1.133283952837422,-0.492592340010566,-0.01411361992359161,0.009232725948095322,0.003010704182088375,0.006063520908355713,-0.0097464919090271,0.0001156926155090332,XArbitraryZVertical,-0.4380559326836,0.3484959114356936,-0.8208712492249705,-0.1132605791985091,-0.7981167435646057,0.4729115962982178,-0.3733151853084564,0,0,0,-1,-1,18145.10641779167,unknown,2,2025-04-21T15:17:42.177+03:00,2025-04-20T21:57:49.637+03:00,6664,0.9638649,0,0,5475.677,5,6,2025-04-21T15:17:44.757+03:00,766930664.8577851,0,-44.09,100.2613,1,0.45,2025-04-21T15:14:45.481+03:00,86,1.433333333333333,2025-04-21T12:30:07.995+03:00,0.02023345852159405,0
2025-04-21T15:17:46.090+03:00,1745237858.398729,40.95225582986527,29.1403179372126,76.30476,-1,-1,-1,-1,30,26.56900642780171,-9999,18149.0146745,-0.796783447265625,0.4569244384765625,-0.37457275390625,18149.0045985,2.549936615045771,-1.133319529902954,-0.4927246831208084,-0.03042628057301044,0.001386520452797413,0.006074937526136637,0.003319263458251953,-0.01941502094268799,0.0001523196697235107,XArbitraryZVertical,-0.4380081231796715,0.3485953636002116,-0.8208480749957066,-0.1133077737253554,-0.7980733513832092,0.4730282127857208,-0.3732603192329407,0,0,0,-1,-1,18145.10641779167,unknown,2,2025-04-21T15:17:42.177+03:00,2025-04-20T21:57:49.637+03:00,6664,0.9638649,0,0,5475.677,5,6,2025-04-21T15:17:44.757+03:00,766930664.8577851,0,-44.09,100.2613,1,0.45,2025-04-21T15:14:45.481+03:00,86,1.433333333333333,2025-04-21T12:30:07.995+03:00,0.02023345852159405,0
2025-04-21T15:17:46.101+03:00,1745237858.398729,40.95225582986527,29.1403179372126,76.30476,-1,-1,-1,-1,30,26.56900642780171,-9999,18149.0247505,-0.798797607421875,0.45989990234375,-0.3792724609375,18149.0146745,2.549654423153716,-1.133457044476816,-0.492936773227844,-0.03178049623966217,-1.2171920388937e-05,0.009895108640193939,0.002333641052246094,-0.0213567316532135,-0.002120941877365112,XArbitraryZVertical,-0.437976832702844,0.3487438865737608,-0.8207970466270464,-0.1133402846548748,-0.7980336546897888,0.4732150733470917,-0.3731079995632172,0,0,0,-1,-1,18145.10641779167,unknown,2,2025-04-21T15:17:42.177+03:00,2025-04-20T21:57:49.637+03:00,6664,0.9638649,0,0,5475.677,5,6,2025-04-21T15:17:44.757+03:00,766930664.8577851,0,-44.09,100.2613,1,0.45,2025-04-21T15:14:45.481+03:00,86,1.433333333333333,2025-04-21T12:30:07.995+03:00,0.02023345852159405,0
2025-04-21T15:17:46.111+03:00,1745237858.398729,40.95225582986527,29.1403179372126,76.30476,-1,-1,-1,-1,30,26.56900642780171,-9999,18149.0348265,-0.8004302978515625,0.458953857421875,-0.3798980712890625,18149.0247505,2.549154131617513,-1.133715037049162,-0.4932683248966007,-0.07833094894886017,-0.003712900448590517,0.01406402047723532,0.001173794269561768,-0.01577404141426086,-0.002072781324386597,XArbitraryZVertical,-0.4379350352868093,0.3489914606552013,-0.8207048777728273,-0.1134082229442962,-0.7979878187179565,0.4735071063041687,-0.3728357255458832,0,0,0,-1,-1,18145.10641779167,unknown,2,2025-04-21T15:17:42.177+03:00,2025-04-20T21:57:49.637+03:00,6664,0.9638649,0,0,5475.677,5,6,2025-04-21T15:17:44.757+03:00,766930664.8577851,0,-44.09,100.2613,1,0.45,2025-04-21T15:14:45.481+03:00,86,1.433333333333333,2025-04-21T12:30:07.995+03:00,0.02023345852159405,0
2025-04-21T15:17:46.121+03:00,1745237858.398729,40.95225582986527,29.1403179372126,76.30476,-1,-1,-1,-1,30,26.56900642780171,-9999,18149.0449025,-0.802215576171875,0.4554595947265625,-0.3817596435546875,18149.0348265,2.548043993825747,-1.134299261917605,-0.4938629106496034,-0.1357774138450623,-0.005701682530343533,0.01129236910492182,-0.0009695291519165039,-0.01446670293807983,-0.006915360689163208,XArbitraryZVertical,-0.43787258319414,0.349488837061209,-0.8205004842116278,-0.1135955784309059,-0.7979500889778137,0.4740307331085205,-0.3722503185272217,0,0,0,-1,-1,18145.10641779167,unknown,2,2025-04-21T15:17:42.177+03:00,2025-04-20T21:57:49.637+03:00,6664,0.9638649,0,0,5475.677,5,6,2025-04-21T15:17:44.757+03:00,766930664.8577851,0,-44.09,100.2613,1,0.45,2025-04-21T15:17:44.981+03:00,86,1.433333333333333,2025-04-21T12:30:07.995+03:00,0.02023345852159405,0
2025-04-21T15:17:46.131+03:00,1745237858.398729,40.95225582986527,29.1403179372126,76.30476,-1,-1,-1,-1,30,26.56900642780171,-9999,18149.0549785,-0.796875,0.4541168212890625,-0.385498046875,18149.0449025,2.546478097981864,-1.135145795783882,-0.4946648661371602,-0.1775331050157547,-0.01295213773846626,0.01733641512691975,-0.003013789653778076,-0.01599663496017456,-0.008773863315582275,XArbitraryZVertical,-0.4377994948585715,0.3501778533311305,-0.8202082194894399,-0.1138658119236564,-0.7979200482368469,0.4747367203235626,-0.3714141547679901,0,0,0,-1,-1,18145.10641779167,unknown,2,2025-04-21T15:17:42.177+03:00,2025-04-20T21:57:49.637+03:00,6664,0.9638649,0,0,5475.677,5,6,2025-04-21T15:17:44.757+03:00,766930664.8577851,0,-44.09,100.2613,1,0.45,2025-04-21T15:17:44.981+03:00,97,1.616666666666667,2025-04-21T12:30:07.995+03:00,0.02023345852159405,0
2025-04-21T15:17:46.141+03:00,1745237858.398729,40.95225582986527,29.1403179372126,76.30476,-1,-1,-1,-1,30,26.56900642780171,-9999,18149.0650545,-0.791900634765625,0.4593658447265625,-0.3818206787109375,18149.0549785,2.544648519966778,-1.13617473989307,-0.4956368690875415,-0.1862603425979614,-0.01660552993416786,0.02577021159231663,-0.004302144050598145,-0.02071240544319153,-0.01152905821800232,XArbitraryZVertical,-0.4377228060055028,0.3509978917262678,-0.819857107593292,-0.1141638628687403,-0.7978828549385071,0.4755919873714447,-0.3703984618186951,0,0,0,-1,-1,18145.10641779167,unknown,2,2025-04-21T15:17:42.177+03:00,2025-04-20T21:57:49.637+03:00,6664,0.9638649,0,0,5475.677,5,6,2025-04-21T15:17:44.757+03:00,766930664.8577851,0,-44.09,100.2613,1,0.45,2025-04-21T15:17:44.981+03:00,97,1.616666666666667,2025-04-21T12:30:07.995+03:00,0.02023345852159405,0
2025-04-21T15:17:46.151+03:00,1745237858.398729,40.95225582986527,29.1403179372126,76.30476,-1,-1,-1,-1,30,26.56900642780171,-9999,18149.0751315,-0.7996368408203125,0.461761474609375,-0.38916015625,18149.0650545,2.543035670876959,-1.137054562428929,-0.4966243517193284,-0.164364367723465,-0.007678080815821886,0.0339791402220726,0.002264976501464844,-0.02097043395042419,-0.01636552810668945,XArbitraryZVertical,-0.4376189004235818,0.3517674142935311,-0.8195506440564547,-0.1143940756996247,-0.7977819442749023,0.4764603972434998,-0.3694987595081329,0,0,0,-1,-1,18145.10641779167,unknown,2,2025-04-21T15:17:42.177+03:00,2025-04-20T21:57:49.637+03:00,6664,0.9638649,0,0,5475.677,5,6,2025-04-21T15:17:44.757+03:00,766930664.8577851,0,-44.09,100.2613,1,0.45,2025-04-21T15:17:44.981+03:00,97,1.616666666666667,2025-04-21T12:30:07.995+03:00,0.02023345852159405,0
2025-04-21T15:17:46.161+03:00,1745237858.398729,40.95225582986527,29.1403179372126,76.30476,-1,-1,-1,-1,30,26.56900642780171,-9999,18149.0852075,-0.80615234375,0.4696197509765625,-0.4029998779296875,18149.0751315,2.541325371905326,-1.13790548099442,-0.4977026829349015,-0.2075134515762329,0.0005705277435481548,0.03977271541953087,0.004629969596862793,-0.01778313517570496,-0.01277413964271545,XArbitraryZVertical,-0.4374681040436788,0.3525899061393814,-0.8192428440229739,-0.1146430153111452,-0.797629177570343,0.4774082005023956,-0.3686040341854095,0,0,0,-1,-1,18145.10641779167,unknown,2,2025-04-21T15:17:42.177+03:00,2025-04-20T21:57:49.637+03:00,6664,0.9638649,0,0,5475.677,5,6,2025-04-21T15:17:44.757+03:00,766930664.8577851,0,-44.09,100.2613,1,0.45,2025-04-21T15:17:44.981+03:00,97,1.616666666666667,2025-04-21T12:30:07.995+03:00,0.02023345852159405,0
2025-04-21T15:17:46.171+03:00,1745237858.398729,40.95225582986527,29.1403179372126,76.30476,-1,-1,-1,-1,30,26.56900642780171,-9999,18149.0952835,-0.8042449951171875,0.4622802734375,-0.4035797119140625,18149.0852075,2.538997137124885,-1.139005016869147,-0.4990462530045551,-0.2799490392208099,-0.003294784110039473,0.04498691856861115,-0.003681421279907227,-0.01652184128761292,-0.02353322505950928,XArbitraryZVertical,-0.4372595725568516,0.3536595063061565,-0.8188394086483629,-0.1150259015214607,-0.7974507212638855,0.478588342666626,-0.3674580454826355,0,0,0,-1,-1,18145.10641779167,unknown,2,2025-04-21T15:17:42.177+03:00,2025-04-20T21:57:49.637+03:00,6664,0.9638649,0,0,5475.677,5,6,2025-04-21T15:17:44.757+03:00,766930664.8577851,0,-44.09,100.2613,1,0.45,2025-04-21T15:17:44.981+03:00,97,1.616666666666667,2025-04-21T12:30:07.995+03:00,0.02023345852159405,0
2025-04-21T15:17:46.181+03:00,1745237858.398729,40.95225582986527,29.1403179372126,76.30476,-1,-1,-1,-1,30,26.56900642780171,-9999,18149.1053595,-0.7947540283203125,0.4502410888671875,-0.3980865478515625,18149.0952835,2.53597159804522,-1.140573904298867,-0.5007156049712375,-0.3436195552349091,-0.02567405998706818,0.04675329476594925,-0.009799361228942871,-0.009945541620254517,-0.03766125440597534,XArbitraryZVertical,-0.4370567374452194,0.3550282117633359,-0.8182859528305624,-0.1155179295934054,-0.7972990274429321,0.4800534248352051,-0.3658727407455444,0,0,0,-1,-1,18145.10641779167,unknown,2,2025-04-21T15:17:42.177+03:00,2025-04-20T21:57:49.637+03:00,6664,0.9638649,0,0,5475.677,5,6,2025-04-21T15:17:44.757+03:00,766930664.8577851,0,-44.09,100.2613,1,0.45,2025-04-21T15:17:44.981+03:00,97,1.616666666666667,2025-04-21T12:30:07.995+03:00,0.02023345852159405,0
2025-04-21T15:17:46.191+03:00,1745237858.398729,40.95225582986527,29.1403179372126,76.30476,-1,-1,-1,-1,30,26.56900642780171,-9999,18149.1154355,-0.7931976318359375,0.4502716064453125,-0.398193359375,18149.1053595,2.532125633134876,-1.142771679002909,-0.5027602399565051,-0.4403477013111115,-0.04493137821555138,0.04803906753659248,-0.006351709365844727,-0.02142748236656189,-0.03985303640365601,XArbitraryZVertical,-0.436891028392821,0.3567499169884396,-0.8175394034657862,-0.1161252742901275,-0.7972066402435303,0.481846034526825,-0.3637114465236664,0,0,0,-1,-1,18145.10641779167,unknown,2,2025-04-21T15:17:42.177+03:00,2025-04-20T21:57:49.637+03:00,6664,0.9638649,0,0,5475.677,5,6,2025-04-21T15:17:44.757+03:00,766930664.8577851,0,-44.09,100.2613,1,0.45,2025-04-21T15:17:44.981+03:00,97,1.616666666666667,2025-04-21T12:30:07.995+03:00,0.02023345852159405,0
2025-04-21T15:17:46.202+03:00,1745237858.398729,40.95225582986527,29.1403179372126,76.30476,-1,-1,-1,-1,30,26.56900642780171,-9999,18149.1255115,-0.79876708984375,0.4408416748046875,-0.410491943359375,18149.1154355,2.527175725881731,-1.145632441442777,-0.5052270167570873,-0.5598562359809875,-0.05731587111949921,0.05174605175852776,0.003640532493591309,-0.03359735012054443,-0.03696551918983459,XArbitraryZVertical,-0.4367129076564025,0.3589051035874389,-0.8165743113416162,-0.116940977333951,-0.7971585392951965,0.4840061068534851,-0.3609379231929779,0,0,0,-1,-1,18145.10641779167,unknown,2,2025-04-21T15:17:42.177+03:00,2025-04-20T21:57:49.637+03:00,6664,0.9638649,0,0,5475.677,5,6,2025-04-21T15:17:44.757+03:00,766930664.8577851,0,-44.09,100.2613,1,0.45,2025-04-21T15:17:44.981+03:00,97,1.616666666666667,2025-04-21T12:30:07.995+03:00,0.02023345852159405,0
2025-04-21T15:17:46.211+03:00,1745237858.398729,40.95225582986527,29.1403179372126,76.30476,-1,-1,-1,-1,30,26.56900642780171,-9999,18149.1355875,-0.79193115234375,0.4256744384765625,-0.4228363037109375,18149.1255115,2.520674271318025,-1.149417167161797,-0.5083850164183883,-0.7442404627799988,-0.07591325789690018,0.06661900877952576,0.003068029880523682,-0.03765541315078735,-0.04178705811500549,XArbitraryZVertical,-0.436490809708993,0.3617044431984989,-0.8153016161987988,-0.1180200008115808,-0.7971200346946716,0.4867671430110931,-0.3572913408279419,0,0,0,-1,-1,18145.10641779167,unknown,2,2025-04-21T15:17:42.177+03:00,2025-04-20T21:57:49.637+03:00,6664,0.9638649,0,0,5475.677,5,6,2025-04-21T15:17:44.757+03:00,766930664.8577851,0,-44.09,100.2613,1,0.45,2025-04-21T15:17:44.981+03:00,97,1.616666666666667,2025-04-21T12:30:07.995+03:00,0.02023345852159405,0
2025-04-21T15:17:46.221+03:00,1745237858.398729,40.95225582986527,29.1403179372126,76.30476,-1,-1,-1,-1,30,26.56900642780171,-9999,18149.1456635,-0.7892608642578125,0.4028472900390625,-0.4365386962890625,18149.1355875,2.511966798932157,-1.154490244888942,-0.5125451460063142,-0.983314573764801,-0.09278891235589981,0.08374819904565811,-0.002039253711700439,-0.05192050337791443,-0.05916959047317505,XArbitraryZVertical,-0.4361824546009095,0.3654235204989165,-0.81359606679716,-0.1194653193320945,-0.7970635294914246,0.4903969168663025,-0.3524210453033447,0,0,0,-1,-1,18145.10641779167,unknown,2,2025-04-21T15:17:42.177+03:00,2025-04-20T21:57:49.637+03:00,6664,0.9638649,0,0,5475.677,5,6,2025-04-21T15:17:44.757+03:00,766930664.8577851,0,-44.09,100.2613,1,0.45,2025-04-21T15:17:44.981+03:00,97,1.616666666666667,2025-04-21T12:30:07.995+03:00,0.02023345852159405,0
2025-04-21T15:17:46.232+03:00,1745237858.398729,40.95225582986527,29.1403179372126,76.30476,-1,-1,-1,-1,30,26.56900642780171,-9999,18149.1557395,-0.7800445556640625,0.390167236328125,-0.4304656982421875,18149.1456635,2.501001008588192,-1.160950291893137,-0.5178096961594707,-1.16791844367981,-0.1276331841945648,0.1277135163545609,0.006050944328308105,-0.07101288437843323,-0.07939764857292175,XArbitraryZVertical,-0.4357766745238114,0.3701123623234013,-0.8114294015781882,-0.1212340537285129,-0.7969444394111633,0.4949781596660614,-0.346231073141098,0,0,0,-1,-1,18145.10641779167,unknown,2,2025-04-21T15:17:42.177+03:00,2025-04-20T21:57:49.637+03:00,6664,0.9638649,0,0,5475.677,5,6,2025-04-21T15:17:44.757+03:00,766930664.8577851,0,-44.09,100.2613,1,0.45,2025-04-21T15:17:44.981+03:00,97,1.616666666666667,2025-04-21T12:30:07.995+03:00,0.02023345852159405,0
2025-04-21T15:17:46.242+03:00,1745237858.398729,40.95225582986527,29.1403179372126,76.30476,-1,-1,-1,-1,30,26.56900642780171,-9999,18149.1658155,-0.771636962890625,0.4031829833984375,-0.43310546875,18149.1557395,2.488435923167593,-1.168753019378836,-0.5242058392388035,-1.33063530921936,-0.1807762831449509,0.181758239865303,0.007843017578125,-0.1002266407012939,-0.09828582406044006,XArbitraryZVertical,-0.4353448977122499,0.3756282227775543,-0.808850853095805,-0.1230389710243533,-0.7966920137405396,0.5005256533622742,-0.3387565314769745,0,0,0,-1,-1,18145.10641779167,unknown,2,2025-04-21T15:17:42.177+03:00,2025-04-20T21:57:49.637+03:00,6664,0.9638649,0,0,5475.677,5,6,2025-04-21T15:17:44.757+03:00,766930664.8577851,0,-44.09,100.2613,1,0.45,2025-04-21T15:17:44.981+03:00,97,1.616666666666667,2025-04-21T12:30:07.995+03:00,0.02023345852159405,0
2025-04-21T15:17:46.252+03:00,1745237858.398729,40.95225582986527,29.1403179372126,76.30476,-1,-1,-1,-1,30,26.56900642780171,-9999,18149.1758925,-0.7689208984375,0.43499755859375,-0.4559783935546875,18149.1658155,2.474617100358231,-1.177879102751796,-0.5315221772510011,-1.392562508583069,-0.2538102865219116,0.2439984530210495,0.01749157905578613,-0.1166942715644836,-0.09924525022506714,XArbitraryZVertical,-0.4349593400093114,0.3818114123081685,-0.8058906930359663,-0.1247822693261739,-0.7963459491729736,0.5068461298942566,-0.3300608396530151,0,0,0,-1,-1,18145.10641779167,unknown,2,2025-04-21T15:17:42.177+03:00,2025-04-20T21:57:49.637+03:00,6664,0.9638649,0,0,5475.677,5,6,2025-04-21T15:17:44.757+03:00,766930664.8577851,0,-44.09,100.2613,1,0.45,2025-04-21T15:17:44.981+03:00,97,1.616666666666667,2025-04-21T12:30:07.995+03:00,0.02023345852159405,0
2025-04-21T15:17:46.262+03:00,1745237858.398729,40.95225582986527,29.1403179372126,76.30476,-1,-1,-1,-1,30,26.56900642780171,-9999,18149.1859685,-0.7600860595703125,0.489959716796875,-0.497589111328125,18149.1758925,2.461415254907151,-1.187530244243697,-0.5393416955205735,-1.264800190925598,-0.3218374848365784,0.3425189256668091,0.02488958835601807,-0.1074739694595337,-0.1137633919715881,XArbitraryZVertical,-0.4347213929494727,0.3880506434326651,-0.8028489312313734,-0.1259667037793519,-0.7957941293716431,0.5135712623596191,-0.3208680152893066,0,0,0,-1,-1,18145.10641779167,unknown,2,2025-04-21T15:17:42.177+03:00,2025-04-20T21:57:49.637+03:00,6664,0.9638649,0,0,5475.677,5,6,2025-04-21T15:17:44.757+03:00,766930664.8577851,0,-44.09,100.2613,1,0.45,2025-04-21T15:17:44.981+03:00,97,1.616666666666667,2025-04-21T12:30:07.995+03:00,0.02023345852159405,0
2025-04-21T15:17:46.272+03:00,1745237858.398729,40.95225582986527,29.1403179372126,76.30476,-1,-1,-1,-1,30,26.56900642780171,-9999,18149.1960445,-0.748626708984375,0.5356903076171875,-0.5206298828125,18149.1859685,2.450141694147772,-1.197084794004786,-0.547386178664215,-1.101118564605713,-0.4151288270950317,0.4233160316944122,0.02604573965072632,-0.08025646209716797,-0.1483820080757141,XArbitraryZVertical,-0.4346972305241625,0.3939194278746599,-0.799951464195733,-0.1262669041005374,-0.794951319694519,0.5204570889472961,-0.3117316067218781,0,0,0,-1,-1,18145.10641779167,unknown,2,2025-04-21T15:17:42.177+03:00,2025-04-20T21:57:49.637+03:00,6664,0.9638649,0,0,5475.677,5,6,2025-04-21T15:17:44.757+03:00,766930664.8577851,0,-44.09,100.2613,1,0.45,2025-04-21T15:17:44.981+03:00,97,1.616666666666667,2025-04-21T12:30:07.995+03:00,0.02023345852159405,0
2025-04-21T15:17:46.282+03:00,1745237858.398729,40.95225582986527,29.1403179372126,76.30476,-1,-1,-1,-1,30,26.56900642780171,-9999,18149.2061205,-0.7457733154296875,0.541229248046875,-0.5166015625,18149.1960445,2.440935354488449,-1.206374532381714,-0.5553187313618512,-0.9147699475288391,-0.460938036441803,0.4866278171539307,0.03523296117782593,-0.02954894304275513,-0.1999095678329468,XArbitraryZVertical,-0.434933654274765,0.399257475980861,-0.7972504564982317,-0.1257688908864633,-0.7939304709434509,0.5272141695022583,-0.3028523623943329,0,0,0,-1,-1,18145.10641779167,unknown,2,2025-04-21T15:17:42.177+03:00,2025-04-20T21:57:49.637+03:00,6664,0.9638649,0,0,5475.677,5,6,2025-04-21T15:17:44.757+03:00,766930664.8577851,0,-44.09,100.2613,1,0.45,2025-04-21T15:17:44.981+03:00,97,1.616666666666667,2025-04-21T12:30:07.995+03:00,0.02023345852159405,0
2025-04-21T15:17:46.292+03:00,1745237858.398729,40.95225582986527,29.1403179372126,76.30476,-1,-1,-1,-1,30,26.56900642780171,-9999,18149.2161965,-0.751617431640625,0.510009765625,-0.4982147216796875,18149.2061205,2.433313420622508,-1.21519569984349,-0.5630036784334876,-0.8423668742179871,-0.4810598194599152,0.4412430226802826,0.04468727111816406,0.004524946212768555,-0.2266392111778259,XArbitraryZVertical,-0.435299611345768,0.4041104634648949,-0.7947606535014805,-0.1247571895678671,-0.7927494049072266,0.5337286591529846,-0.2944179773330688,0,0,0,-1,-1,18145.10641779167,unknown,2,2025-04-21T15:17:42.177+03:00,2025-04-20T21:57:49.637+03:00,6664,0.9638649,0,0,5475.677,5,6,2025-04-21T15:17:44.757+03:00,766930664.8577851,0,-44.09,100.2613,1,0.45,2025-04-21T15:17:44.981+03:00,97,1.616666666666667,2025-04-21T12:30:07.995+03:00,0.02023345852159405,0
2025-04-21T15:17:46.302+03:00,1745237858.398729,40.95225582986527,29.1403179372126,76.30476,-1,-1,-1,-1,30,26.56900642780171,-9999,18149.2262725,-0.7903594970703125,0.3324737548828125,-0.4462890625,18149.2161965,2.422409578764978,-1.225535673048987,-0.5679594096374931,-1.180633544921875,-0.4844752550125122,0.02862472087144852,0.04802858829498291,0.001912295818328857,-0.2301505506038666,XArbitraryZVertical,-0.4361323799543451,0.4088217535237991,-0.7917711741141286,-0.1255050223502745,-0.7932524681091309,0.5379129648208618,-0.2853066325187683,0,0,0,-1,-1,18145.10641779167,unknown,2,2025-04-21T15:17:42.177+03:00,2025-04-20T21:57:49.637+03:00,6664,0.9638649,0,0,5475.677,5,6,2025-04-21T15:17:44.757+03:00,766930664.8577851,0,-44.09,100.2613,1,0.45,2025-04-21T15:17:44.981+03:00,97,1.616666666666667,2025-04-21T12:30:07.995+03:00,0.02023345852159405,0
2025-04-21T15:17:46.312+03:00,1745237858.398729,40.95225582986527,29.1403179372126,76.30476,-1,-1,-1,-1,30,26.56900642780171,-9999,18149.2363485,-0.697052001953125,0.3849639892578125,-0.415130615234375,18149.2262725,2.409727524567517,-1.238143336179333,-0.574122760715195,-1.189782500267029,-0.6437573432922363,0.4218396544456482,0.03835827112197876,-0.0471268892288208,-0.2193807363510132,XArbitraryZVertical,-0.4371766568240533,0.4144621672708147,-0.7881647956351088,-0.1260709691850539,-0.7936378121376038,0.5430983901023865,-0.2741953730583191,0,0,0,-1,-1,18145.10641779167,unknown,2,2025-04-21T15:17:42.177+03:00,2025-04-20T21:57:49.637+03:00,6664,0.9638649,0,0,5475.677,5,6,2025-04-21T15:17:44.757+03:00,766930664.8577851,0,-44.09,100.2613,1,0.45,2025-04-21T15:17:44.981+03:00,97,1.616666666666667,2025-04-21T12:30:07.995+03:00,0.02023345852159405,0
2025-04-21T15:17:46.322+03:00,1745237858.398729,40.95225582986527,29.1403179372126,76.30476,-1,-1,-1,-1,30,26.56900642780171,-9999,18149.2464245,-0.66290283203125,0.5615234375,-0.47015380859375,18149.2363485,2.400494437615023,-1.24986051597882,-0.5826939629970149,-0.7777997255325317,-0.7021934390068054,0.641370952129364,0.005224883556365967,-0.2340981364250183,-0.1753671169281006,XArbitraryZVertical,-0.4379923412095828,0.4200750044025346,-0.7849571724813023,-0.1246670549078452,-0.7923494577407837,0.5502753257751465,-0.2633993923664093,0,0,0,-1,-1,18145.10641779167,unknown,2,2025-04-21T15:17:42.177+03:00,2025-04-20T21:57:49.637+03:00,6664,0.9638649,0,0,5475.677,5,6,2025-04-21T15:17:44.757+03:00,766930664.8577851,0,-44.09,100.2613,1,0.45,2025-04-21T15:17:44.981+03:00,97,1.616666666666667,2025-04-21T12:30:07.995+03:00,0.02023345852159405,0
2025-04-21T15:17:46.332+03:00,1745237858.398729,40.95225582986527,29.1403179372126,76.30476,-1,-1,-1,-1,30,26.56900642780171,-9999,18149.2565005,-0.740570068359375,0.6071014404296875,-0.4546966552734375,18149.2464245,2.396271925657055,-1.259695834219914,-0.5905208080174742,-0.3943255841732025,-0.7755587100982666,0.6258929371833801,0.1070613861083984,-0.1442115306854248,-0.1647083461284637,XArbitraryZVertical,-0.4392350899289139,0.4241918926310801,-0.7824849848400888,-0.121863971933321,-0.7907771468162537,0.5567936897277832,-0.254267543554306,0,0,0,-1,-1,18145.10641779167,unknown,2,2025-04-21T15:17:42.177+03:00,2025-04-20T21:57:49.637+03:00,6664,0.9638649,0,0,5475.677,5,6,2025-04-21T15:17:44.757+03:00,766930664.8577851,0,-44.09,100.2613,1,0.45,2025-04-21T15:17:44.981+03:00,97,1.616666666666667,2025-04-21T12:30:07.995+03:00,0.02023345852159405,0
2025-04-21T15:17:46.342+03:00,1745237858.398729,40.95225582986527,29.1403179372126,76.30476,-1,-1,-1,-1,30,26.56900642780171,-9999,18149.2665775,-0.801788330078125,0.6429901123046875,-0.371307373046875,18149.2565005,2.395834007788832,-1.26808828785678,-0.5976788511734022,-0.1121839284896851,-0.8496159315109253,0.6835346817970276,0.1199760437011719,0.008624672889709473,-0.2292803823947906,XArbitraryZVertical,-0.4408393332661089,0.4271379783617197,-0.7805612567793827,-0.1180583030041159,-0.7890585660934448,0.5627252459526062,-0.2464276552200317,0,0,0,-1,-1,18145.10641779167,unknown,2,2025-04-21T15:17:42.177+03:00,2025-04-20T21:57:49.637+03:00,6664,0.9638649,0,0,5475.677,5,6,2025-04-21T15:17:44.757+03:00,766930664.8577851,0,-44.09,100.2613,1,0.45,2025-04-21T15:17:44.981+03:00,97,1.616666666666667,2025-04-21T12:30:07.995+03:00,0.02023345852159405,0
2025-04-21T15:17:46.353+03:00,1745237858.398729,40.95225582986527,29.1403179372126,76.30476,-1,-1,-1,-1,30,26.56900642780171,-9999,18149.2766535,-0.8315887451171875,0.646514892578125,-0.3247833251953125,18149.2665775,2.397952938456273,-1.275640169191658,-0.6043402142003514,0.03186912089586258,-0.883935272693634,0.6857043504714966,0.03607255220413208,0.04287976026535034,-0.205076739192009,XArbitraryZVertical,-0.4427607382209559,0.4292783191025309,-0.7789644105385543,-0.1135667411471004,-0.7872931957244873,0.5682193040847778,-0.2393661141395569,0,0,0,-1,-1,18145.10641779167,unknown,2,2025-04-21T15:17:42.177+03:00,2025-04-20T21:57:49.637+03:00,6664,0.9638649,0,0,5475.677,5,6,2025-04-21T15:17:44.757+03:00,766930664.8577851,0,-44.09,100.2613,1,0.45,2025-04-21T15:17:44.981+03:00,97,1.616666666666667,2025-04-21T12:30:07.995+03:00,0.02023345852159405,0
2025-04-21T15:17:46.363+03:00,1745237858.398729,40.95225582986527,29.1403179372126,76.30476,-1,-1,-1,-1,30,26.56900642780171,-9999,18149.2867295,-0.79864501953125,0.6182861328125,-0.280364990234375,18149.2766535,2.400488224014343,-1.283311232631048,-0.6108678353164534,-0.02370432764291763,-0.9205357432365417,0.6664645075798035,-0.02257293462753296,0.07369911670684814,-0.1317353844642639,XArbitraryZVertical,-0.4448413678522943,0.4312593255675771,-0.7773476571986838,-0.1089133070446201,-0.785532534122467,0.5735785365104675,-0.2322631031274796,0,0,0,-1,-1,18145.10641779167,unknown,2,2025-04-21T15:17:42.177+03:00,2025-04-20T21:57:49.637+03:00,6664,0.9638649,0,0,5475.677,5,6,2025-04-21T15:17:44.757+03:00,766930664.8577851,0,-44.09,100.2613,1,0.45,2025-04-21T15:17:44.981+03:00,97,1.616666666666667,2025-04-21T12:30:07.995+03:00,0.02023345852159405,0
2025-04-21T15:17:46.373+03:00,1745237858.398729,40.95225582986527,29.1403179372126,76.30476,-1,-1,-1,-1,30,26.56900642780171,-9999,18149.2968055,-0.7520599365234375,0.5978546142578125,-0.26025390625,18149.2867295,2.402093044733021,-1.291766518006156,-0.6178104858062479,-0.1047938540577888,-0.9424861073493958,0.7264399528503418,-0.04755556583404541,0.06524878740310669,-0.09552717208862305,XArbitraryZVertical,-0.4469260434955908,0.4335916563914844,-0.7754839736912018,-0.1043069562369347,-0.7836211919784546,0.579251766204834,-0.2245107740163803,0,0,0,-1,-1,18145.10641779167,unknown,2,2025-04-21T15:17:42.177+03:00,2025-04-20T21:57:49.637+03:00,6664,0.9638649,0,0,5475.677,5,6,2025-04-21T15:17:44.757+03:00,766930664.8577851,0,-44.09,100.2613,1,0.45,2025-04-21T15:17:44.981+03:00,97,1.616666666666667,2025-04-21T12:30:07.995+03:00,0.02023345852159405,0
2025-04-21T15:17:46.383+03:00,1745237858.398729,40.95225582986527,29.1403179372126,76.30476,-1,-1,-1,-1,30,26.56900642780171,-9999,18149.3068815,-0.7527313232421875,0.6160736083984375,-0.2542877197265625,18149.2968055,2.403154692495839,-1.300588988587352,-0.6253170740443572,-0.1251115202903748,-0.9299395680427551,0.7594667077064514,-0.01057219505310059,0.02879643440246582,-0.05884677171707153,XArbitraryZVertical,-0.4488983724681868,0.4362101696335527,-0.7734880402315394,-0.09963537972457522,-0.7813589572906494,0.5853543877601624,-0.2164218723773956,0,0,0,-1,-1,18145.10641779167,unknown,2,2025-04-21T15:17:42.177+03:00,2025-04-20T21:57:49.637+03:00,6664,0.9638649,0,0,5475.677,5,6,2025-04-21T15:17:44.757+03:00,766930664.8577851,0,-44.09,100.2613,1,0.45,2025-04-21T15:17:44.981+03:00,97,1.616666666666667,2025-04-21T12:30:07.995+03:00,0.02023345852159405,0
2025-04-21T15:17:46.393+03:00,1745237858.398729,40.95225582986527,29.1403179372126,76.30476,-1,-1,-1,-1,30,26.56900642780171,-9999,18149.3169575,-0.7525634765625,0.679107666015625,-0.2276153564453125,18149.3068815,2.404446277758287,-1.309200156297658,-0.632969456469072,-0.05992478132247925,-0.9335228204727173,0.7478606104850769,0.02974396944046021,0.005580484867095947,-0.05093961954116821,XArbitraryZVertical,-0.4507941448719025,0.438775779787574,-0.7715330563293992,-0.09485313677127179,-0.7788437008857727,0.591541588306427,-0.2085209041833878,0,0,0,-1,-1,18145.10641779167,unknown,2,2025-04-21T15:17:42.177+03:00,2025-04-20T21:57:49.637+03:00,6664,0.9638649,0,0,5475.677,5,6,2025-04-21T15:17:44.757+03:00,766930664.8577851,0,-44.09,100.2613,1,0.45,2025-04-21T15:17:44.981+03:00,97,1.616666666666667,2025-04-21T12:30:07.995+03:00,0.02023345852159405,0
