loggingTime(txt),locationTimestamp_since1970(s),locationLatitude(WGS84),locationLongitude(WGS84),locationAltitude(m),locationSpeed(m/s),locationSpeedAccuracy(m/s),locationCourse(°),locationCourseAccuracy(°),locationVerticalAccuracy(m),locationHorizontalAccuracy(m),locationFloor(Z),accelerometerTimestamp_sinceReboot(s),accelerometerAccelerationX(G),accelerometerAccelerationY(G),accelerometerAccelerationZ(G),motionTimestamp_sinceReboot(s),motionYaw(rad),motionRoll(rad),motionPitch(rad),motionRotationRateX(rad/s),motionRotationRateY(rad/s),motionRotationRateZ(rad/s),motionUserAccelerationX(G),motionUserAccelerationY(G),motionUserAccelerationZ(G),motionAttitudeReferenceFrame(txt),motionQuaternionX(R),motionQuaternionY(R),motionQuaternionZ(R),motionQuaternionW(R),motionGravityX(G),motionGravityY(G),motionGravityZ(G),motionMagneticFieldX(µT),motionMagneticFieldY(µT),motionMagneticFieldZ(µT),motionHeading(°),motionMagneticFieldCalibrationAccuracy(Z),activityTimestamp_sinceReboot(s),activity(txt),activityActivityConfidence(Z),activityActivityStartDate(txt),pedometerStartDate(txt),pedometerNumberofSteps(N),pedometerAverageActivePace(s/m),pedometerCurrentPace(s/m),pedometerCurrentCadence(steps/s),pedometerDistance(m),pedometerFloorAscended(N),pedometerFloorDescended(N),pedometerEndDate(txt),altimeterTimestamp_sinceReboot(s),altimeterReset(bool),altimeterRelativeAltitude(m),altimeterPressure(kPa),batteryState(N),batteryLevel(R),heartRateBPMTimestamp(txt),heartRateBPM(N),heartRateBPS(R),heartRateVariabilityTimestamp(txt),heartRateVariability(ms),label
2025-04-22T12:34:53.777+03:00,1745314493.241297,40.95228637145338,29.14029869593124,76.51794,-1,-1,-1,-1,30,26.39571644227393,-9999,30683.971963,-0.776519775390625,0.5735626220703125,-0.240875244140625,30683.961887,-0.7349528016845137,-1.256044027848025,-0.6283640613328667,-0.01712603494524956,0.00513825286179781,0.01608294807374477,0.02599143981933594,-0.01586174964904785,0.01421135663986206,XArbitraryZVertical,-0.4341256517408977,-0.4316375111895887,-0.1070289923222342,0.7834339433052112,-0.7692469954490662,0.5878220796585083,-0.2504479587078094,0,0,0,-1,-1,30655.205061625,unknown,2,2025-04-22T12:34:04.997+03:00,2025-04-21T17:08:51.449+03:00,7321,0.979675,0,0,6105.011,5,20,2025-04-22T12:34:07.576+03:00,767007252.8263695,0,-21.7,100.4629,1,0.8,2025-04-22T12:34:13.658+03:00,85,1.416666666666667,2025-04-22T09:54:17.825+03:00,0.02225348692287972,0
2025-04-22T12:34:53.779+03:00,1745314493.241297,40.95228637145338,29.14029869593124,76.51794,-1,-1,-1,-1,30,26.39571644227393,-9999,30683.982039,-0.755126953125,0.5894317626953125,-0.2340545654296875,30683.971963,-0.7350888406926867,-1.256212812525995,-0.6285232802628503,-0.01144870743155479,-0.01247269846498966,0.01115103997290134,-0.02460771799087524,0.001816451549530029,0.01093977689743042,XArbitraryZVertical,-0.4342160243700207,-0.4316385878295814,-0.1069969663388516,0.783387630297828,-0.7692002654075623,0.5879508852958679,-0.2502891421318054,0,0,0,-1,-1,30655.205061625,unknown,2,2025-04-22T12:34:04.997+03:00,2025-04-21T17:08:51.449+03:00,7321,0.979675,0,0,6105.011,5,20,2025-04-22T12:34:07.576+03:00,767007252.8263695,0,-21.7,100.4629,1,0.8,2025-04-22T12:34:13.658+03:00,85,1.416666666666667,2025-04-22T09:54:17.825+03:00,0.02225348692287972,0
2025-04-22T12:34:53.782+03:00,1745314493.241297,40.95228637145338,29.14029869593124,76.51794,-1,-1,-1,-1,30,26.39571644227393,-9999,30683.992116,-0.7792205810546875,0.5924835205078125,-0.2361602783203125,30683.982039,-0.7352635700095353,-1.25638483997986,-0.6286519896626297,-0.01383656356483698,0.01374099589884281,0.01609649695456028,-0.001428008079528809,-0.01514863967895508,0.008663058280944824,XArbitraryZVertical,-0.4343049411154754,-0.4316393252593682,-0.1069887096148534,0.7833390758469706,-0.7691713571548462,0.5880550146102905,-0.2501334249973297,0,0,0,-1,-1,30655.205061625,unknown,2,2025-04-22T12:34:04.997+03:00,2025-04-21T17:08:51.449+03:00,7321,0.979675,0,0,6105.011,5,20,2025-04-22T12:34:07.576+03:00,767007252.8263695,0,-21.7,100.4629,1,0.8,2025-04-22T12:34:13.658+03:00,85,1.416666666666667,2025-04-22T09:54:17.825+03:00,0.02225348692287972,0
2025-04-22T12:34:53.792+03:00,1745314493.241297,40.95228637145338,29.14029869593124,76.51794,-1,-1,-1,-1,30,26.39571644227393,-9999,30684.002192,-0.77099609375,0.5754852294921875,-0.2501220703125,30683.992116,-0.7354440646010473,-1.256313061642427,-0.6287625486834888,-0.02835026010870934,0.01797968335449696,0.01401230692863464,0.01144689321517944,0.004842519760131836,0.01774662733078003,XArbitraryZVertical,-0.4343761292426057,-0.4315473522830339,-0.1070411941144056,0.7833431148901508,-0.7690915465354919,0.5881444215774536,-0.2501685321331024,0,0,0,-1,-1,30655.205061625,unknown,2,2025-04-22T12:34:04.997+03:00,2025-04-21T17:08:51.449+03:00,7321,0.979675,0,0,6105.011,5,20,2025-04-22T12:34:07.576+03:00,767007252.8263695,0,-21.7,100.4629,1,0.8,2025-04-22T12:34:13.658+03:00,85,1.416666666666667,2025-04-22T09:54:17.825+03:00,0.02225348692287972,0
2025-04-22T12:34:53.804+03:00,1745314493.241297,40.95228637145338,29.14029869593124,76.51794,-1,-1,-1,-1,30,26.39571644227393,-9999,30684.012268,-0.7562408447265625,0.58843994140625,-0.25140380859375,30684.002192,-0.735751789525416,-1.256328821298639,-0.6291273484948502,-0.03667217120528221,0.006431883666664362,0.01001846324652433,-0.01116847991943359,0.001663684844970703,0.01246485114097595,XArbitraryZVertical,-0.4345623964555772,-0.431405276515368,-0.1070467677932352,0.7833173023714747,-0.768891453742981,0.588439404964447,-0.2500900328159332,0,0,0,-1,-1,30655.205061625,unknown,2,2025-04-22T12:34:04.997+03:00,2025-04-21T17:08:51.449+03:00,7321,0.979675,0,0,6105.011,5,20,2025-04-22T12:34:07.576+03:00,767007252.8263695,0,-21.7,100.4629,1,0.8,2025-04-22T12:34:13.658+03:00,85,1.416666666666667,2025-04-22T09:54:17.825+03:00,0.02225348692287972,0
2025-04-22T12:34:53.812+03:00,1745314493.241297,40.95228637145338,29.14029869593124,76.51794,-1,-1,-1,-1,30,26.39571644227393,-9999,30684.022344,-0.76171875,0.5996551513671875,-0.2553558349609375,30684.012268,-0.7360809007371281,-1.256440769416222,-0.6293997377377035,-0.03244653344154358,0.001851512817665935,0.01185737550258636,0.001158237457275391,-0.01303720474243164,-0.0007323026657104492,XArbitraryZVertical,-0.434728258072369,-0.4313167841705698,-0.1070680319810942,0.7832710310980351,-0.7687668800354004,0.5886596441268921,-0.2499543428421021,0,0,0,-1,-1,30655.205061625,unknown,2,2025-04-22T12:34:04.997+03:00,2025-04-21T17:08:51.449+03:00,7321,0.979675,0,0,6105.011,5,20,2025-04-22T12:34:07.576+03:00,767007252.8263695,0,-21.7,100.4629,1,0.8,2025-04-22T12:34:13.658+03:00,85,1.416666666666667,2025-04-22T09:54:17.825+03:00,0.02225348692287972,0
2025-04-22T12:34:53.822+03:00,1745314493.241297,40.95228637145338,29.14029869593124,76.51794,-1,-1,-1,-1,30,26.39571644227393,-9999,30684.03242,-0.768096923828125,0.58941650390625,-0.2501983642578125,30684.022344,-0.7363193618627923,-1.25661263955534,-0.6294996653575129,-0.01904564164578915,-0.009433232247829437,0.006559350062161684,0.01324552297592163,0.002445995807647705,-0.001843929290771484,XArbitraryZVertical,-0.434821468325285,-0.4313099444864039,-0.1070935079831584,0.7832195965995231,-0.7687538862228394,0.5887404084205627,-0.2498040497303009,0,0,0,-1,-1,30655.205061625,unknown,2,2025-04-22T12:34:04.997+03:00,2025-04-21T17:08:51.449+03:00,7321,0.979675,0,0,6105.011,5,20,2025-04-22T12:34:07.576+03:00,767007252.8263695,0,-21.7,100.4629,1,0.8,2025-04-22T12:34:13.658+03:00,85,1.416666666666667,2025-04-22T09:54:17.825+03:00,0.02225348692287972,0
2025-04-22T12:34:53.832+03:00,1745314493.241297,40.95228637145338,29.14029869593124,76.51794,-1,-1,-1,-1,30,26.39571644227393,-9999,30684.042496,-0.767852783203125,0.5915374755859375,-0.25103759765625,30684.03242,-0.7365032052120883,-1.256823342700869,-0.6295870402769331,-0.01398004125803709,-0.009667592123150826,0.0009573907591402531,0.00613856315612793,0.009730100631713867,-0.00504302978515625,XArbitraryZVertical,-0.4349009011612321,-0.4313329637789023,-0.1070929582723913,0.7831628645338155,-0.7687575817108154,0.5888110399246216,-0.2496261596679688,0,0,0,-1,-1,30655.205061625,unknown,2,2025-04-22T12:34:04.997+03:00,2025-04-21T17:08:51.449+03:00,7321,0.979675,0,0,6105.011,5,20,2025-04-22T12:34:07.576+03:00,767007252.8263695,0,-21.7,100.4629,1,0.8,2025-04-22T12:34:13.658+03:00,85,1.416666666666667,2025-04-22T09:54:17.825+03:00,0.02225348692287972,0
2025-04-22T12:34:53.842+03:00,1745314493.241297,40.95228637145338,29.14029869593124,76.51794,-1,-1,-1,-1,30,26.39571644227393,-9999,30684.052572,-0.7664337158203125,0.5955047607421875,-0.2512054443359375,30684.042496,-0.7366322942752346,-1.257005063518949,-0.6296260739027973,-0.007468746043741703,-0.009576910175383091,-0.001287054852582514,0.000379025936126709,0.0002076029777526855,-0.0008562803268432617,XArbitraryZVertical,-0.4349511884182134,-0.4313673331633586,-0.1070920583076592,0.7831161559267333,-0.7687810659408569,0.5888425707817078,-0.2494793683290482,0,0,0,-1,-1,30655.205061625,unknown,2,2025-04-22T12:34:04.997+03:00,2025-04-21T17:08:51.449+03:00,7321,0.979675,0,0,6105.011,5,20,2025-04-22T12:34:07.576+03:00,767007252.8263695,0,-21.7,100.4629,1,0.8,2025-04-22T12:34:13.658+03:00,85,1.416666666666667,2025-04-22T09:54:17.825+03:00,0.02225348692287972,0
2025-04-22T12:34:53.852+03:00,1745314493.241297,40.95228637145338,29.14029869593124,76.51794,-1,-1,-1,-1,30,26.39571644227393,-9999,30684.062649,-0.7687530517578125,0.5921630859375,-0.2457733154296875,30684.052572,-0.7367409581326277,-1.257158330207386,-0.6296225648160571,-0.006723592989146709,-0.0008635800331830978,-2.072169445455074e-05,0.001746714115142822,0.004192948341369629,-0.001873791217803955,XArbitraryZVertical,-0.4349816909898409,-0.4314044953506917,-0.1071023448796439,0.7830773319578146,-0.7688212990760803,0.5888397097587585,-0.2493621855974197,0,0,0,-1,-1,30655.205061625,unknown,2,2025-04-22T12:34:04.997+03:00,2025-04-21T17:08:51.449+03:00,7321,0.979675,0,0,6105.011,5,20,2025-04-22T12:34:07.576+03:00,767007252.8263695,0,-21.7,100.4629,1,0.8,2025-04-22T12:34:13.658+03:00,85,1.416666666666667,2025-04-22T09:54:17.825+03:00,0.02225348692287972,0
2025-04-22T12:34:53.862+03:00,1745314493.241297,40.95228637145338,29.14029869593124,76.51794,-1,-1,-1,-1,30,26.39571644227393,-9999,30684.072725,-0.7682647705078125,0.5867767333984375,-0.2457427978515625,30684.062649,-0.7368066319695247,-1.257223149898568,-0.6296082494105455,-0.003202694933861494,-0.001070840284228325,0.0007936396868899465,0.002549111843109131,0.00605088472366333,-0.00120389461517334,XArbitraryZVertical,-0.4349946480884928,-0.4314187943052307,-0.1071183507322343,0.7830601019179,-0.7688454985618591,0.5888281464576721,-0.2493149638175964,0,0,0,-1,-1,30655.205061625,unknown,2,2025-04-22T12:34:04.997+03:00,2025-04-21T17:08:51.449+03:00,7321,0.979675,0,0,6105.011,5,20,2025-04-22T12:34:07.576+03:00,767007252.8263695,0,-21.7,100.4629,1,0.8,2025-04-22T12:34:13.658+03:00,85,1.416666666666667,2025-04-22T09:54:17.825+03:00,0.02225348692287972,0
2025-04-22T12:34:53.873+03:00,1745314493.241297,40.95228637145338,29.14029869593124,76.51794,-1,-1,-1,-1,30,26.39571644227393,-9999,30684.082801,-0.76483154296875,0.5813751220703125,-0.247283935546875,30684.072725,-0.7369046986592239,-1.257335404815699,-0.6296824332180667,-0.009700008668005466,-0.001231695059686899,0.002193397143855691,0.0002009272575378418,0.002542376518249512,0.00357915461063385,XArbitraryZVertical,-0.4350460275122481,-0.4314248269958298,-0.1071096093290386,0.7830293483985278,-0.7688318490982056,0.5888881087303162,-0.2492151409387589,0,0,0,-1,-1,30655.205061625,unknown,2,2025-04-22T12:34:04.997+03:00,2025-04-21T17:08:51.449+03:00,7321,0.979675,0,0,6105.011,5,20,2025-04-22T12:34:07.576+03:00,767007252.8263695,0,-21.7,100.4629,1,0.8,2025-04-22T12:34:13.658+03:00,85,1.416666666666667,2025-04-22T09:54:17.825+03:00,0.02225348692287972,0
2025-04-22T12:34:53.883+03:00,1745314493.241297,40.95228637145338,29.14029869593124,76.51794,-1,-1,-1,-1,30,26.39571644227393,-9999,30684.092877,-0.7657928466796875,0.5819854736328125,-0.24676513671875,30684.082801,-0.7370611170255532,-1.257485007167817,-0.6297043679489959,-0.009068773128092289,-0.001881173811852932,0.0005286884261295199,0.0004395246505737305,-0.002556562423706055,0.002544611692428589,XArbitraryZVertical,-0.4350949449236328,-0.4314444638939982,-0.1071315824876333,0.7829883082595291,-0.7688567638397217,0.5889058709144592,-0.2490961253643036,0,0,0,-1,-1,30655.205061625,unknown,2,2025-04-22T12:34:04.997+03:00,2025-04-21T17:08:51.449+03:00,7321,0.979675,0,0,6105.011,5,20,2025-04-22T12:34:07.576+03:00,767007252.8263695,0,-21.7,100.4629,1,0.8,2025-04-22T12:34:13.658+03:00,85,1.416666666666667,2025-04-22T09:54:17.825+03:00,0.02225348692287972,0
2025-04-22T12:34:53.893+03:00,1745314493.241297,40.95228637145338,29.14029869593124,76.51794,-1,-1,-1,-1,30,26.39571644227393,-9999,30684.102953,-0.765380859375,0.5843353271484375,-0.246429443359375,30684.092877,-0.7371720162530582,-1.257589888402933,-0.6297040007699967,-0.01048717275261879,-0.00448787584900856,-0.003385359421372414,0.003899037837982178,-0.007515370845794678,0.001701131463050842,XArbitraryZVertical,-0.4351243653591209,-0.4314614798331374,-0.1071522949222512,0.7829597539583302,-0.7688831090927124,0.5889055728912354,-0.2490155547857285,0,0,0,-1,-1,30655.205061625,unknown,2,2025-04-22T12:34:04.997+03:00,2025-04-21T17:08:51.449+03:00,7321,0.979675,0,0,6105.011,5,20,2025-04-22T12:34:07.576+03:00,767007252.8263695,0,-21.7,100.4629,1,0.8,2025-04-22T12:34:13.658+03:00,85,1.416666666666667,2025-04-22T09:54:17.825+03:00,0.02225348692287972,0
2025-04-22T12:34:53.903+03:00,1745314493.241297,40.95228637145338,29.14029869593124,76.51794,-1,-1,-1,-1,30,26.39571644227393,-9999,30684.113029,-0.7657623291015625,0.586883544921875,-0.244873046875,30684.102953,-0.7372997003875065,-1.257679645239723,-0.6297501333941025,-0.01290092803537846,-0.003537792712450027,-0.0008410419104620814,0.003178417682647705,-0.006652295589447021,0.002157807350158691,XArbitraryZVertical,-0.4351717259705366,-0.4314585355539818,-0.1071686559340035,0.7829328774010791,-0.7688797116279602,0.58894282579422,-0.2489382028579712,0,0,0,-1,-1,30655.205061625,unknown,2,2025-04-22T12:34:04.997+03:00,2025-04-21T17:08:51.449+03:00,7321,0.979675,0,0,6105.011,5,20,2025-04-22T12:34:07.576+03:00,767007252.8263695,0,-21.7,100.4629,1,0.8,2025-04-22T12:34:13.658+03:00,85,1.416666666666667,2025-04-22T09:54:17.825+03:00,0.02225348692287972,0
2025-04-22T12:34:53.913+03:00,1745314493.241297,40.95228637145338,29.14029869593124,76.51794,-1,-1,-1,-1,30,26.39571644227393,-9999,30684.123105,-0.768798828125,0.58685302734375,-0.24365234375,30684.113029,-0.7374433792941786,-1.257767912146287,-0.6298086793222621,-0.01158000063151121,-0.002080777660012245,-0.002871435834094882,0.003549039363861084,-0.003922522068023682,0.001819908618927002,XArbitraryZVertical,-0.4352265280569804,-0.4314487366332031,-0.107187777407098,0.7829051920643586,-0.7688688635826111,0.5889901518821716,-0.2488597184419632,0,0,0,-1,-1,30655.205061625,unknown,2,2025-04-22T12:34:04.997+03:00,2025-04-21T17:08:51.449+03:00,7321,0.979675,0,0,6105.011,5,20,2025-04-22T12:34:07.576+03:00,767007252.8263695,0,-21.7,100.4629,1,0.8,2025-04-22T12:34:13.658+03:00,85,1.416666666666667,2025-04-22T09:54:17.825+03:00,0.02225348692287972,0
2025-04-22T12:34:53.923+03:00,1745314493.241297,40.95228637145338,29.14029869593124,76.51794,-1,-1,-1,-1,30,26.39571644227393,-9999,30684.133182,-0.768524169921875,0.5890045166015625,-0.2462310791015625,30684.123105,-0.7375691213154025,-1.257851037311903,-0.6297961346662447,-0.00746368570253253,-0.002186371944844723,-0.003949816338717937,0.002295017242431641,-0.001928746700286865,0.004504859447479248,XArbitraryZVertical,-0.4352540119116073,-0.431456720232517,-0.1072227564308959,0.7828807499760982,-0.7688965797424316,0.5889800190925598,-0.2487980872392654,0,0,0,-1,-1,30655.205061625,unknown,2,2025-04-22T12:34:04.997+03:00,2025-04-21T17:08:51.449+03:00,7321,0.979675,0,0,6105.011,5,20,2025-04-22T12:34:07.576+03:00,767007252.8263695,0,-21.7,100.4629,1,0.8,2025-04-22T12:34:13.658+03:00,85,1.416666666666667,2025-04-22T09:54:17.825+03:00,0.02225348692287972,0
2025-04-22T12:34:53.933+03:00,1745314493.241297,40.95228637145338,29.14029869593124,76.51794,-1,-1,-1,-1,30,26.39571644227393,-9999,30684.143258,-0.7668609619140625,0.58819580078125,-0.2442169189453125,30684.133182,-0.7376731613512808,-1.257927452064704,-0.6297898827767332,-0.00871084351092577,-0.003173072822391987,-0.00324887246824801,-0.0003680586814880371,-0.002625584602355957,0.004248857498168945,XArbitraryZVertical,-0.4352785262716223,-0.4314653833802078,-0.1072487569762974,0.7828587621485079,-0.768919050693512,0.5889749526977539,-0.2487404495477676,0,0,0,-1,-1,30655.205061625,unknown,2,2025-04-22T12:34:04.997+03:00,2025-04-21T17:08:51.449+03:00,7321,0.979675,0,0,6105.011,5,20,2025-04-22T12:34:07.576+03:00,767007252.8263695,0,-21.7,100.4629,1,0.8,2025-04-22T12:34:13.658+03:00,85,1.416666666666667,2025-04-22T09:54:17.825+03:00,0.02225348692287972,0
2025-04-22T12:34:53.945+03:00,1745314493.241297,40.95228637145338,29.14029869593124,76.51794,-1,-1,-1,-1,30,26.39571644227393,-9999,30684.153334,-0.77056884765625,0.58636474609375,-0.245513916015625,30684.143258,-0.7377674256670756,-1.257992248506821,-0.6298167983600595,-0.0108186025172472,0.001571747474372387,-0.001011217827908695,0.0009147524833679199,0.00064849853515625,0.002958193421363831,XArbitraryZVertical,-0.435311121852567,-0.431464205224219,-0.1072633005346253,0.7828392514083318,-0.7689200639724731,0.5889967083930969,-0.2486857324838638,0,0,0,-1,-1,30655.205061625,unknown,2,2025-04-22T12:34:04.997+03:00,2025-04-21T17:08:51.449+03:00,7321,0.979675,0,0,6105.011,5,20,2025-04-22T12:34:07.576+03:00,767007252.8263695,0,-21.7,100.4629,1,0.8,2025-04-22T12:34:13.658+03:00,85,1.416666666666667,2025-04-22T09:54:17.825+03:00,0.02225348692287972,0
2025-04-22T12:34:53.953+03:00,1745314493.241297,40.95228637145338,29.14029869593124,76.51794,-1,-1,-1,-1,30,26.39571644227393,-9999,30684.16341,-0.770660400390625,0.586029052734375,-0.2445220947265625,30684.153334,-0.7379073571577845,-1.258068997046632,-0.6298566532735109,-0.01142393983900547,0.001539256889373064,0.001706271548755467,0.0009572505950927734,-0.001687765121459961,0.004097402095794678,XArbitraryZVertical,-0.435358390024643,-0.4314548813423534,-0.1072891815675503,0.7828145978282272,-0.7689168453216553,0.5890288949012756,-0.2486195117235184,0,0,0,-1,-1,30655.205061625,unknown,2,2025-04-22T12:34:04.997+03:00,2025-04-21T17:08:51.449+03:00,7321,0.979675,0,0,6105.011,5,20,2025-04-22T12:34:07.576+03:00,767007252.8263695,0,-21.7,100.4629,1,0.8,2025-04-22T12:34:13.658+03:00,85,1.416666666666667,2025-04-22T09:54:17.825+03:00,0.02225348692287972,0
2025-04-22T12:34:53.963+03:00,1745314493.241297,40.95228637145338,29.14029869593124,76.51794,-1,-1,-1,-1,30,26.39571644227393,-9999,30684.173486,-0.77044677734375,0.5872802734375,-0.245819091796875,30684.16341,-0.7380348014683347,-1.258122892474818,-0.6299105958624928,-0.008225683122873306,0.004027781076729298,0.003232962219044566,-0.001867175102233887,-0.002799451351165771,0.002703428268432617,XArbitraryZVertical,-0.4354063371873398,-0.4314361706319529,-0.107310824841317,0.7827952868837635,-0.7689000368118286,0.5890725255012512,-0.2485683113336563,0,0,0,-1,-1,30655.205061625,unknown,2,2025-04-22T12:34:04.997+03:00,2025-04-21T17:08:51.449+03:00,7321,0.979675,0,0,6105.011,5,20,2025-04-22T12:34:07.576+03:00,767007252.8263695,0,-21.7,100.4629,1,0.8,2025-04-22T12:34:13.658+03:00,85,1.416666666666667,2025-04-22T09:54:17.825+03:00,0.02225348692287972,0
2025-04-22T12:34:53.973+03:00,1745314493.241297,40.95228637145338,29.14029869593124,76.51794,-1,-1,-1,-1,30,26.39571644227393,-9999,30684.183562,-0.769317626953125,0.5897064208984375,-0.2461090087890625,30684.173486,-0.7380968532232401,-1.258114515329769,-0.6299584308314569,-0.002840771107003093,0.003634965047240257,0.005635665729641914,-0.001514613628387451,-0.002777099609375,0.004089727997779846,XArbitraryZVertical,-0.435434876803141,-0.4314086737711675,-0.1073222740010956,0.7827929324269719,-0.7688710689544678,0.5891111493110657,-0.2485660463571548,0,0,0,-1,-1,30655.205061625,unknown,2,2025-04-22T12:34:04.997+03:00,2025-04-21T17:08:51.449+03:00,7321,0.979675,0,0,6105.011,5,20,2025-04-22T12:34:07.576+03:00,767007252.8263695,0,-21.7,100.4629,1,0.8,2025-04-22T12:34:13.658+03:00,85,1.416666666666667,2025-04-22T09:54:17.825+03:00,0.02225348692287972,0
2025-04-22T12:34:53.983+03:00,1745314493.241297,40.95228637145338,29.14029869593124,76.51794,-1,-1,-1,-1,30,26.39571644227393,-9999,30684.193638,-0.768524169921875,0.5905303955078125,-0.2432098388671875,30684.183562,-0.7381388861094861,-1.25810575526864,-0.6300304799172584,-0.006645096931606531,0.004864546470344067,0.008309080265462399,-0.0009773373603820801,-0.002026617527008057,0.00264914333820343,XArbitraryZVertical,-0.4354669258577327,-0.4313799813798407,-0.1073185882648722,0.7827914440943676,-0.7688285112380981,0.5891693830490112,-0.2485597431659698,0,0,0,-1,-1,30655.205061625,unknown,2,2025-04-22T12:34:04.997+03:00,2025-04-21T17:08:51.449+03:00,7321,0.979675,0,0,6105.011,5,20,2025-04-22T12:34:07.576+03:00,767007252.8263695,0,-21.7,100.4629,1,0.8,2025-04-22T12:34:13.658+03:00,85,1.416666666666667,2025-04-22T09:54:17.825+03:00,0.02225348692287972,0
2025-04-22T12:34:53.993+03:00,1745314493.241297,40.95228637145338,29.14029869593124,76.51794,-1,-1,-1,-1,30,26.39571644227393,-9999,30684.203715,-0.7683258056640625,0.586883544921875,-0.248199462890625,30684.193638,-0.738181430925835,-1.258045030718545,-0.6301055943963639,-0.005044803488999605,0.01112617086619139,0.005674947518855333,0.0005371570587158203,0.0007356405258178711,0.003002583980560303,XArbitraryZVertical,-0.435497267371807,-0.4313301612408446,-0.107325500730748,0.7828011562737965,-0.7687714099884033,0.5892300605773926,-0.2485928386449814,0,0,0,-1,-1,30655.205061625,unknown,2,2025-04-22T12:34:04.997+03:00,2025-04-21T17:08:51.449+03:00,7321,0.979675,0,0,6105.011,5,20,2025-04-22T12:34:07.576+03:00,767007252.8263695,0,-21.7,100.4629,1,0.8,2025-04-22T12:34:13.658+03:00,85,1.416666666666667,2025-04-22T09:54:17.825+03:00,0.02225348692287972,0
2025-04-22T12:34:54.004+03:00,1745314493.241297,40.95228637145338,29.14029869593124,76.51794,-1,-1,-1,-1,30,26.39571644227393,-9999,30684.213791,-0.764129638671875,0.589324951171875,-0.2449493408203125,30684.203715,-0.7382211427219679,-1.257977366834523,-0.6301808495025681,0.0003101478505413979,0.008732122369110584,0.007188488729298115,5.090236663818359e-05,0.0009341835975646973,0.004963591694831848,XArbitraryZVertical,-0.4355267325656254,-0.4312781847275142,-0.107332724577495,0.7828123441452637,-0.7687123417854309,0.5892908573150635,-0.2486311793327332,0,0,0,-1,-1,30655.205061625,unknown,2,2025-04-22T12:34:04.997+03:00,2025-04-21T17:08:51.449+03:00,7321,0.979675,0,0,6105.011,5,20,2025-04-22T12:34:07.576+03:00,767007252.8263695,0,-21.7,100.4629,1,0.8,2025-04-22T12:34:13.658+03:00,85,1.416666666666667,2025-04-22T09:54:17.825+03:00,0.02225348692287972,0
2025-04-22T12:34:54.014+03:00,1745314493.241297,40.95228637145338,29.14029869593124,76.51794,-1,-1,-1,-1,30,26.39571644227393,-9999,30684.223867,-0.7643890380859375,0.5930633544921875,-0.2414093017578125,30684.213791,-0.7382086630435966,-1.257913220393922,-0.6302573196531988,0.001135195139795542,0.009012020193040371,0.009372279979288578,0.0009990930557250977,-0.002682805061340332,0.000329822301864624,XArbitraryZVertical,-0.4355454555016854,-0.431238704327659,-0.1073184408098031,0.7828257440301527,-0.7686536312103271,0.5893526673316956,-0.2486666738986969,0,0,0,-1,-1,30655.205061625,unknown,2,2025-04-22T12:34:04.997+03:00,2025-04-21T17:08:51.449+03:00,7321,0.979675,0,0,6105.011,5,20,2025-04-22T12:34:07.576+03:00,767007252.8263695,0,-21.7,100.4629,1,0.8,2025-04-22T12:34:13.658+03:00,85,1.416666666666667,2025-04-22T09:54:17.825+03:00,0.02225348692287972,0
2025-04-22T12:34:54.024+03:00,1745314493.241297,40.95228637145338,29.14029869593124,76.51794,-1,-1,-1,-1,30,26.39571644227393,-9999,30684.233943,-0.767120361328125,0.5856781005859375,-0.24322509765625,30684.223867,-0.7381950793328994,-1.257812556177773,-0.6303564981832831,-0.005166509654372931,0.01249769888818264,0.01075253076851368,0.004916250705718994,0.0004565715789794922,0.004020825028419495,XArbitraryZVertical,-0.4355694803378172,-0.4311800502214419,-0.1073046477400242,0.7828464325732797,-0.7685728073120117,0.5894327759742737,-0.2487259805202484,0,0,0,-1,-1,30655.205061625,unknown,2,2025-04-22T12:34:04.997+03:00,2025-04-21T17:08:51.449+03:00,7321,0.979675,0,0,6105.011,5,20,2025-04-22T12:34:07.576+03:00,767007252.8263695,0,-21.7,100.4629,1,0.8,2025-04-22T12:34:13.658+03:00,85,1.416666666666667,2025-04-22T09:54:17.825+03:00,0.02225348692287972,0
2025-04-22T12:34:54.034+03:00,1745314493.241297,40.95228637145338,29.14029869593124,76.51794,-1,-1,-1,-1,30,26.39571644227393,-9999,30684.244019,-0.7628326416015625,0.583984375,-0.2474517822265625,30684.233943,-0.7382406603231342,-1.257738691055818,-0.6304618853742996,-0.006091691553592682,0.009143980219960213,0.007637164555490017,0.003541767597198486,0.002660274505615234,0.006270959973335266,XArbitraryZVertical,-0.4356096579814858,-0.4311176326586791,-0.1073063281214787,0.7828582298107046,-0.7684953212738037,0.5895178914070129,-0.2487636208534241,0,0,0,-1,-1,30655.205061625,unknown,2,2025-04-22T12:34:04.997+03:00,2025-04-21T17:08:51.449+03:00,7321,0.979675,0,0,6105.011,5,20,2025-04-22T12:34:07.576+03:00,767007252.8263695,0,-21.7,100.4629,1,0.8,2025-04-22T12:34:13.658+03:00,85,1.416666666666667,2025-04-22T09:54:17.825+03:00,0.02225348692287972,0
2025-04-22T12:34:54.044+03:00,1745314493.241297,40.95228637145338,29.14029869593124,76.51794,-1,-1,-1,-1,30,26.39571644227393,-9999,30684.254095,-0.7609100341796875,0.5909576416015625,-0.249053955078125,30684.244019,-0.7382698712948254,-1.257706724320513,-0.630556110981366,-0.005535889882594347,0.004997438285499811,0.009445717558264732,0.001314222812652588,-0.005380928516387939,0.00557650625705719,XArbitraryZVertical,-0.4356449251912988,-0.4310776730749439,-0.1072958874418505,0.7828620320422782,-0.7684345245361328,0.5895940065383911,-0.248771071434021,0,0,0,-1,-1,30655.205061625,unknown,2,2025-04-22T12:34:04.997+03:00,2025-04-21T17:08:51.449+03:00,7321,0.979675,0,0,6105.011,5,20,2025-04-22T12:34:07.576+03:00,767007252.8263695,0,-21.7,100.4629,1,0.8,2025-04-22T12:34:13.658+03:00,85,1.416666666666667,2025-04-22T09:54:17.825+03:00,0.02225348692287972,0
2025-04-22T12:34:54.054+03:00,1745314493.241297,40.95228637145338,29.14029869593124,76.51794,-1,-1,-1,-1,30,26.39571644227393,-9999,30684.264171,-0.76171875,0.5906524658203125,-0.2447052001953125,30684.254095,-0.7382797150350234,-1.257704312071193,-0.6306299279167149,-0.003636523615568876,0.001913497690111399,0.005664028692990541,0.005956649780273438,-0.004753947257995605,0.0005601197481155396,XArbitraryZVertical,-0.435670947336233,-0.4310580695218781,-0.107277681649534,0.7828608551758217,-0.7683925032615662,0.5896536111831665,-0.248759537935257,0,0,0,-1,-1,30655.205061625,unknown,2,2025-04-22T12:34:04.997+03:00,2025-04-21T17:08:51.449+03:00,7321,0.979675,0,0,6105.011,5,20,2025-04-22T12:34:07.576+03:00,767007252.8263695,0,-21.7,100.4629,1,0.8,2025-04-22T12:34:13.658+03:00,85,1.416666666666667,2025-04-22T09:54:17.825+03:00,0.02225348692287972,0
2025-04-22T12:34:54.065+03:00,1745314493.241297,40.95228637145338,29.14029869593124,76.51794,-1,-1,-1,-1,30,26.39571644227393,-9999,30684.274248,-0.7605743408203125,0.5880889892578125,-0.2462921142578125,30684.264171,-0.7382715534965461,-1.2577099795482,-0.6306860744654795,-0.00105432269629091,-0.002243430353701115,0.005939665716141462,0.008200168609619141,0.002280890941619873,2.6702880859375e-05,XArbitraryZVertical,-0.4356877540416333,-0.431049509596497,-0.1072560863127368,0.782859222883352,-0.7683625221252441,0.5896989703178406,-0.248745009303093,0,0,0,-1,-1,30655.205061625,unknown,2,2025-04-22T12:34:04.997+03:00,2025-04-21T17:08:51.449+03:00,7321,0.979675,0,0,6105.011,5,20,2025-04-22T12:34:07.576+03:00,767007252.8263695,0,-21.7,100.4629,1,0.8,2025-04-22T12:34:13.658+03:00,85,1.416666666666667,2025-04-22T09:54:17.825+03:00,0.02225348692287972,0
2025-04-22T12:34:54.074+03:00,1745314493.241297,40.95228637145338,29.14029869593124,76.51794,-1,-1,-1,-1,30,26.39571644227393,-9999,30684.284324,-0.7609710693359375,0.5926666259765625,-0.2471923828125,30684.274248,-0.7382426509447372,-1.257733473469539,-0.6307304436280322,0.004010210745036602,-0.006164669059216976,0.00410767737776041,0.00616687536239624,0.0002613663673400879,0.004501938819885254,XArbitraryZVertical,-0.4356972420846572,-0.4310550694813492,-0.1072260684790803,0.782854966902012,-0.7683433890342712,0.5897347927093506,-0.2487188875675201,0,0,0,-1,-1,30655.205061625,unknown,2,2025-04-22T12:34:04.997+03:00,2025-04-21T17:08:51.449+03:00,7321,0.979675,0,0,6105.011,5,20,2025-04-22T12:34:07.576+03:00,767007252.8263695,0,-21.7,100.4629,1,0.8,2025-04-22T12:34:13.658+03:00,85,1.416666666666667,2025-04-22T09:54:17.825+03:00,0.02225348692287972,0
2025-04-22T12:34:54.084+03:00,1745314493.241297,40.95228637145338,29.14029869593124,76.51794,-1,-1,-1,-1,30,26.39571644227393,-9999,30684.2944,-0.76544189453125,0.591888427734375,-0.246490478515625,30684.284324,-0.7381943511738611,-1.257786481606612,-0.6307643669517438,0.00271804491057992,-0.008160707540810108,0.004682387690991163,0.007275044918060303,-0.001032471656799316,0.001220166683197021,XArbitraryZVertical,-0.43570069830673,-0.431078756957345,-0.1071852494416206,0.7828456393778049,-0.768337607383728,0.5897622108459473,-0.2486720085144043,0,0,0,-1,-1,30655.205061625,unknown,2,2025-04-22T12:34:04.997+03:00,2025-04-21T17:08:51.449+03:00,7321,0.979675,0,0,6105.011,5,20,2025-04-22T12:34:07.576+03:00,767007252.8263695,0,-21.7,100.4629,1,0.8,2025-04-22T12:34:13.658+03:00,85,1.416666666666667,2025-04-22T09:54:17.825+03:00,0.02225348692287972,0
2025-04-22T12:34:54.094+03:00,1745314493.241297,40.95228637145338,29.14029869593124,76.51794,-1,-1,-1,-1,30,26.39571644227393,-9999,30684.304476,-0.766082763671875,0.5893402099609375,-0.2473602294921875,30684.2944,-0.7381420836693841,-1.257831310110852,-0.6307852725666026,0.00741373049095273,-0.004454386420547962,0.003692490281537175,0.006343603134155273,0.002460122108459473,0.001426100730895996,XArbitraryZVertical,-0.4356986575671457,-0.4311030060680774,-0.1071486140129848,0.7828383969170072,-0.7683370113372803,0.5897790789604187,-0.2486337572336197,0,0,0,-1,-1,30655.205061625,unknown,2,2025-04-22T12:34:04.997+03:00,2025-04-21T17:08:51.449+03:00,7321,0.979675,0,0,6105.011,5,20,2025-04-22T12:34:07.576+03:00,767007252.8263695,0,-21.7,100.4629,1,0.8,2025-04-22T12:34:13.658+03:00,85,1.416666666666667,2025-04-22T09:54:17.825+03:00,0.02225348692287972,0
2025-04-22T12:34:54.104+03:00,1745314493.241297,40.95228637145338,29.14029869593124,76.51794,-1,-1,-1,-1,30,26.39571644227393,-9999,30684.314552,-0.764373779296875,0.5910797119140625,-0.2501983642578125,30684.304476,-0.7380608558976914,-1.257841800829913,-0.6308135156814413,0.004764684475958347,-0.00549648143351078,0.003819789504632354,0.002683520317077637,0.001933813095092773,0.002206385135650635,XArbitraryZVertical,-0.4356909042352493,-0.4311184887518288,-0.1071058924346738,0.7828400367131773,-0.7683237791061401,0.5898019075393677,-0.2486205697059631,0,0,0,-1,-1,30655.205061625,unknown,2,2025-04-22T12:34:04.997+03:00,2025-04-21T17:08:51.449+03:00,7321,0.979675,0,0,6105.011,5,20,2025-04-22T12:34:07.576+03:00,767007252.8263695,0,-21.7,100.4629,1,0.8,2025-04-22T12:34:13.658+03:00,85,1.416666666666667,2025-04-22T09:54:17.825+03:00,0.02225348692287972,0
2025-04-22T12:34:54.115+03:00,1745314493.241297,40.95228637145338,29.14029869593124,76.51794,-1,-1,-1,-1,30,26.39571644227393,-9999,30684.324628,-0.7659912109375,0.5881195068359375,-0.2486572265625,30684.314552,-0.7380144961013181,-1.257884180604527,-0.6308596123566764,0.002928301459178329,-0.004889946430921555,0.00676944013684988,0.002576589584350586,-0.0001328587532043457,0.0008989572525024414,XArbitraryZVertical,-0.4356981955249439,-0.4311348595577848,-0.1070644008263859,0.7828326218152077,-0.7683084011077881,0.5898391008377075,-0.2485796362161636,0,0,0,-1,-1,30655.205061625,unknown,2,2025-04-22T12:34:04.997+03:00,2025-04-21T17:08:51.449+03:00,7321,0.979675,0,0,6105.011,5,20,2025-04-22T12:34:07.576+03:00,767007294.1014569,0,-21.43999,100.4609,1,0.8,2025-04-22T12:34:13.658+03:00,85,1.416666666666667,2025-04-22T09:54:17.825+03:00,0.02225348692287972,0
2025-04-22T12:34:54.124+03:00,1745314493.241297,40.95228637145338,29.14029869593124,76.51794,-1,-1,-1,-1,30,26.39571644227393,-9999,30684.334705,-0.7677154541015625,0.5881195068359375,-0.249603271484375,30684.324628,-0.7379602814104687,-1.257887767511691,-0.6309000725936393,0.00382978143170476,-0.002549028024077415,0.006741609890013933,0.003775537014007568,0.001421332359313965,-0.002178177237510681,XArbitraryZVertical,-0.4356998708172887,-0.4311390225113196,-0.107030018453879,0.7828341059737407,-0.7682865858078003,0.5898718237876892,-0.2485695332288742,0,0,0,-1,-1,30655.205061625,unknown,2,2025-04-22T12:34:04.997+03:00,2025-04-21T17:08:51.449+03:00,7321,0.979675,0,0,6105.011,5,20,2025-04-22T12:34:07.576+03:00,767007294.1014569,0,-21.43999,100.4609,1,0.8,2025-04-22T12:34:13.658+03:00,85,1.416666666666667,2025-04-22T09:54:17.825+03:00,0.02225348692287972,0
2025-04-22T12:34:54.135+03:00,1745314493.241297,40.95228637145338,29.14029869593124,76.51794,-1,-1,-1,-1,30,26.39571644227393,-9999,30684.344781,-0.7668914794921875,0.5911407470703125,-0.252044677734375,30684.334705,-0.73783942124609,-1.257858577434906,-0.6309593406103242,0.00928899459540844,-0.005065182223916054,0.01083355769515038,0.001446127891540527,-0.002624213695526123,-0.0003507435321807861,XArbitraryZVertical,-0.4356915228418596,-0.4311406768584428,-0.1069709550263855,0.7828459867434847,-0.7682461738586426,0.5899196863174438,-0.2485812306404114,0,0,0,-1,-1,30655.205061625,unknown,2,2025-04-22T12:34:04.997+03:00,2025-04-21T17:08:51.449+03:00,7321,0.979675,0,0,6105.011,5,20,2025-04-22T12:34:07.576+03:00,767007294.1014569,0,-21.43999,100.4609,1,0.8,2025-04-22T12:34:13.658+03:00,85,1.416666666666667,2025-04-22T09:54:17.825+03:00,0.02225348692287972,0
2025-04-22T12:34:54.145+03:00,1745314493.241297,40.95228637145338,29.14029869593124,76.51794,-1,-1,-1,-1,30,26.39571644227393,-9999,30684.354857,-0.7681121826171875,0.5925445556640625,-0.2512359619140625,30684.344781,-0.7376823395765651,-1.257802855648337,-0.6310370115451983,0.009538399986922741,-0.00335982721298933,0.010135343298316,0.0007784366607666016,-0.002107143402099609,-0.00119173526763916,XArbitraryZVertical,-0.4356799689870239,-0.4311357093627889,-0.1068978392243638,0.7828651474828541,-0.7681887149810791,0.5899823904037476,-0.2486099302768707,0,0,0,-1,-1,30655.205061625,unknown,2,2025-04-22T12:34:04.997+03:00,2025-04-21T17:08:51.449+03:00,7321,0.979675,0,0,6105.011,5,20,2025-04-22T12:34:07.576+03:00,767007294.1014569,0,-21.43999,100.4609,1,0.8,2025-04-22T12:34:13.658+03:00,85,1.416666666666667,2025-04-22T09:54:17.825+03:00,0.02225348692287972,0
2025-04-22T12:34:54.155+03:00,1745314493.241297,40.95228637145338,29.14029869593124,76.51794,-1,-1,-1,-1,30,26.39571644227393,-9999,30684.364933,-0.7694854736328125,0.58978271484375,-0.2477874755859375,30684.354857,-0.7375440548712769,-1.257766357520832,-0.6311042513338712,0.007574851624667645,-0.001618119888007641,0.01004825718700886,0.0005484819412231445,0.001439571380615234,-0.003113791346549988,XArbitraryZVertical,-0.4356701487167801,-0.431136487481748,-0.1068310470911519,0.7828791929224174,-0.7681417465209961,0.5900366902351379,-0.2486256957054138,0,0,0,-1,-1,30655.205061625,unknown,2,2025-04-22T12:34:04.997+03:00,2025-04-21T17:08:51.449+03:00,7321,0.979675,0,0,6105.011,5,20,2025-04-22T12:34:07.576+03:00,767007294.1014569,0,-21.43999,100.4609,1,0.8,2025-04-22T12:34:13.658+03:00,85,1.416666666666667,2025-04-22T09:54:17.825+03:00,0.02225348692287972,0
2025-04-22T12:34:54.165+03:00,1745314493.241297,40.95228637145338,29.14029869593124,76.51794,-1,-1,-1,-1,30,26.39571644227393,-9999,30684.375009,-0.768463134765625,0.5917510986328125,-0.245269775390625,30684.364933,-0.7374025769332989,-1.257681959550657,-0.6311743832506604,0.01064154878258705,1.126853749155998e-05,0.008993945084512234,-0.0009920001029968262,0.002084910869598389,-0.00144428014755249,XArbitraryZVertical,-0.4356579647480904,-0.4311185874970335,-0.1067726022683221,0.782903846105408,-0.7680814862251282,0.5900933146476746,-0.2486778050661087,0,0,0,-1,-1,30655.205061625,unknown,2,2025-04-22T12:34:04.997+03:00,2025-04-21T17:08:51.449+03:00,7321,0.979675,0,0,6105.011,5,20,2025-04-22T12:34:07.576+03:00,767007294.1014569,0,-21.43999,100.4609,1,0.8,2025-04-22T12:34:13.658+03:00,85,1.416666666666667,2025-04-22T09:54:17.825+03:00,0.02225348692287972,0
2025-04-22T12:34:54.175+03:00,1745314493.241297,40.95228637145338,29.14029869593124,76.51794,-1,-1,-1,-1,30,26.39571644227393,-9999,30684.385085,-0.765380859375,0.59326171875,-0.2449493408203125,30684.375009,-0.7372555935091415,-1.257592168237994,-0.6312272636937781,0.009103839285671711,0.0006855810061097145,0.005998421926051378,-0.001318693161010742,-2.443790435791016e-06,0.001025974750518799,XArbitraryZVertical,-0.4356387124742905,-0.4311036258737069,-0.1067184394402276,0.7829301777913097,-0.7680294513702393,0.5901359915733337,-0.2487371563911438,0,0,0,-1,-1,30655.205061625,unknown,2,2025-04-22T12:34:04.997+03:00,2025-04-21T17:08:51.449+03:00,7321,0.979675,0,0,6105.011,5,20,2025-04-22T12:34:07.576+03:00,767007294.1014569,0,-21.43999,100.4609,1,0.8,2025-04-22T12:34:13.658+03:00,85,1.416666666666667,2025-04-22T09:54:17.825+03:00,0.02225348692287972,0
2025-04-22T12:34:54.185+03:00,1745314493.241297,40.95228637145338,29.14029869593124,76.51794,-1,-1,-1,-1,30,26.39571644227393,-9999,30684.395161,-0.764739990234375,0.5901336669921875,-0.246124267578125,30684.385085,-0.7370797220593681,-1.257466658600612,-0.6312538999921228,0.01735837385058403,0.004079579841345549,0.007639095652848482,5.424022674560547e-05,0.002112269401550293,0.003055393695831299,XArbitraryZVertical,-0.4356027729241381,-0.4310868455659791,-0.1066687854636383,0.782966205804874,-0.7679833173751831,0.5901575088500977,-0.2488287091255188,0,0,0,-1,-1,30655.205061625,unknown,2,2025-04-22T12:34:04.997+03:00,2025-04-21T17:08:51.449+03:00,7321,0.979675,0,0,6105.011,5,20,2025-04-22T12:34:07.576+03:00,767007294.1014569,0,-21.43999,100.4609,1,0.8,2025-04-22T12:34:13.658+03:00,85,1.416666666666667,2025-04-22T09:54:17.825+03:00,0.02225348692287972,0
2025-04-22T12:34:54.195+03:00,1745314493.241297,40.95228637145338,29.14029869593124,76.51794,-1,-1,-1,-1,30,26.39571644227393,-9999,30684.405238,-0.764801025390625,0.585906982421875,-0.245208740234375,30684.395161,-0.7368866972317186,-1.257294555216788,-0.6312787189267343,0.01465712860226631,0.006539541762322187,0.007584234233945608,0.002759218215942383,0.002092301845550537,0.003717094659805298,XArbitraryZVertical,-0.4355600710851984,-0.4310559590227127,-0.1066231102061467,0.7830132000110713,-0.7679265737533569,0.5901775360107422,-0.2489563673734665,0,0,0,-1,-1,30655.205061625,unknown,2,2025-04-22T12:34:04.997+03:00,2025-04-21T17:08:51.449+03:00,7321,0.979675,0,0,6105.011,5,20,2025-04-22T12:34:07.576+03:00,767007294.1014569,0,-21.43999,100.4609,1,0.8,2025-04-22T12:34:13.658+03:00,85,1.416666666666667,2025-04-22T09:54:17.825+03:00,0.02225348692287972,0
2025-04-22T12:34:54.206+03:00,1745314493.241297,40.95228637145338,29.14029869593124,76.51794,-1,-1,-1,-1,30,26.39571644227393,-9999,30684.415314,-0.7640228271484375,0.584930419921875,-0.245208740234375,30684.405238,-0.736715507461706,-1.257132214030688,-0.6313093406562134,0.0127374567091465,0.003754341509193182,0.006125587970018387,0.003174662590026855,-0.001014828681945801,0.002356067299842834,XArbitraryZVertical,-0.4355245313139841,-0.4310228209315725,-0.1065820457804693,0.7830567223264799,-0.7678688168525696,0.5902022123336792,-0.2490754276514053,0,0,0,-1,-1,30655.205061625,unknown,2,2025-04-22T12:34:04.997+03:00,2025-04-21T17:08:51.449+03:00,7321,0.979675,0,0,6105.011,5,20,2025-04-22T12:34:07.576+03:00,767007294.1014569,0,-21.43999,100.4609,1,0.8,2025-04-22T12:34:13.658+03:00,85,1.416666666666667,2025-04-22T09:54:17.825+03:00,0.02225348692287972,0
2025-04-22T12:34:54.215+03:00,1745314493.241297,40.95228637145338,29.14029869593124,76.51794,-1,-1,-1,-1,30,26.39571644227393,-9999,30684.42539,-0.76580810546875,0.5843658447265625,-0.24676513671875,30684.415314,-0.7365797607993299,-1.257019334514128,-0.6313281571640961,0.006880632601678371,0.002921304665505886,0.006130115129053593,0.003975272178649902,-0.00493621826171875,0.004453495144844055,XArbitraryZVertical,-0.4354953793424305,-0.4310039824512559,-0.1065477307378799,0.7830880078370588,-0.7678301930427551,0.5902174115180969,-0.2491586804389954,0,0,0,-1,-1,30655.205061625,unknown,2,2025-04-22T12:34:04.997+03:00,2025-04-21T17:08:51.449+03:00,7321,0.979675,0,0,6105.011,5,20,2025-04-22T12:34:07.576+03:00,767007294.1014569,0,-21.43999,100.4609,1,0.8,2025-04-22T12:34:13.658+03:00,85,1.416666666666667,2025-04-22T09:54:17.825+03:00,0.02225348692287972,0
2025-04-22T12:34:54.225+03:00,1745314493.241297,40.95228637145338,29.14029869593124,76.51794,-1,-1,-1,-1,30,26.39571644227393,-9999,30684.435466,-0.7663726806640625,0.58258056640625,-0.24700927734375,30684.42539,-0.7364529907084473,-1.25692071267273,-0.6313464532851979,0.007418524473905563,0.002234941348433495,0.003497280646115541,0.003574192523956299,-0.005088329315185547,0.003732413053512573,XArbitraryZVertical,-0.4354687923779156,-0.4309888712164939,-0.1065139526217177,0.7831156482647403,-0.7677952647209167,0.5902321934700012,-0.2492310404777527,0,0,0,-1,-1,30655.205061625,unknown,2,2025-04-22T12:34:04.997+03:00,2025-04-21T17:08:51.449+03:00,7321,0.979675,0,0,6105.011,5,20,2025-04-22T12:34:07.576+03:00,767007294.1014569,0,-21.43999,100.4609,1,0.8,2025-04-22T12:34:13.658+03:00,85,1.416666666666667,2025-04-22T09:54:17.825+03:00,0.02225348692287972,0
2025-04-22T12:34:54.235+03:00,1745314493.241297,40.95228637145338,29.14029869593124,76.51794,-1,-1,-1,-1,30,26.39571644227393,-9999,30684.445542,-0.766571044921875,0.5837554931640625,-0.249603271484375,30684.435466,-0.7363854401160256,-1.256852990830932,-0.6313660172746857,0.003663200885057449,0.001664492301642895,0.004085839260369539,0.001486361026763916,-0.005287230014801025,0.002544894814491272,XArbitraryZVertical,-0.4354569983641287,-0.4309726909539229,-0.1064962681741652,0.7831335316302264,-0.7677674293518066,0.5902479887008667,-0.2492794841527939,0,0,0,-1,-1,30655.205061625,unknown,2,2025-04-22T12:34:04.997+03:00,2025-04-21T17:08:51.449+03:00,7321,0.979675,0,0,6105.011,5,20,2025-04-22T12:34:07.576+03:00,767007294.1014569,0,-21.43999,100.4609,1,0.8,2025-04-22T12:34:13.658+03:00,85,1.416666666666667,2025-04-22T09:54:17.825+03:00,0.02225348692287972,0
2025-04-22T12:34:54.246+03:00,1745314493.241297,40.95228637145338,29.14029869593124,76.51794,-1,-1,-1,-1,30,26.39571644227393,-9999,30684.455618,-0.7657318115234375,0.5860443115234375,-0.2502899169921875,30684.445542,-0.7363804152065671,-1.256831017621476,-0.631403820841151,-0.001136680948548019,-8.820043876767159e-05,0.001386958640068769,0.001551270484924316,-0.00746917724609375,0.001852929592132568,XArbitraryZVertical,-0.4354670265511201,-0.4309567451138714,-0.1064875516483989,0.7831380088838852,-0.7677408456802368,0.5902785062789917,-0.2492895126342773,0,0,0,-1,-1,30655.205061625,unknown,2,2025-04-22T12:34:04.997+03:00,2025-04-21T17:08:51.449+03:00,7321,0.979675,0,0,6105.011,5,20,2025-04-22T12:34:07.576+03:00,767007294.1014569,0,-21.43999,100.4609,1,0.8,2025-04-22T12:34:13.658+03:00,85,1.416666666666667,2025-04-22T09:54:17.825+03:00,0.02225348692287972,0
2025-04-22T12:34:54.256+03:00,1745314493.241297,40.95228637145338,29.14029869593124,76.51794,-1,-1,-1,-1,30,26.39571644227393,-9999,30684.465695,-0.7667694091796875,0.582855224609375,-0.2493133544921875,30684.455618,-0.7364133508270398,-1.256859582324722,-0.6314359523427804,-0.0103349732235074,0.0004982277750968933,0.002433847403153777,0.00160139799118042,-0.006137073040008545,-0.001043498516082764,XArbitraryZVertical,-0.4354861182912706,-0.4309535748979171,-0.106484397368762,0.7831295578963162,-0.7677299380302429,0.590304434299469,-0.2492617070674896,0,0,0,-1,-1,30655.205061625,unknown,2,2025-04-22T12:34:04.997+03:00,2025-04-21T17:08:51.449+03:00,7321,0.979675,0,0,6105.011,5,20,2025-04-22T12:34:07.576+03:00,767007294.1014569,0,-21.43999,100.4609,1,0.8,2025-04-22T12:34:13.658+03:00,85,1.416666666666667,2025-04-22T09:54:17.825+03:00,0.02225348692287972,0
2025-04-22T12:34:54.266+03:00,1745314493.241297,40.95228637145338,29.14029869593124,76.51794,-1,-1,-1,-1,30,26.39571644227393,-9999,30684.475771,-0.7688446044921875,0.5802459716796875,-0.2528076171875,30684.465695,-0.7365783977882499,-1.256927907642315,-0.631516629920324,-0.0195457823574543,0.006637879181653261,0.004895274061709642,0.003098905086517334,-0.004538953304290771,-0.0008817613124847412,XArbitraryZVertical,-0.4355516079284747,-0.4309263512385089,-0.1065094652820348,0.7831047075452577,-0.7677016258239746,0.5903695821762085,-0.249194547533989,0,0,0,-1,-1,30655.205061625,unknown,2,2025-04-22T12:34:04.997+03:00,2025-04-21T17:08:51.449+03:00,7321,0.979675,0,0,6105.011,5,20,2025-04-22T12:34:07.576+03:00,767007294.1014569,0,-21.43999,100.4609,1,0.8,2025-04-22T12:34:13.658+03:00,85,1.416666666666667,2025-04-22T09:54:17.825+03:00,0.02225348692287972,0
2025-04-22T12:34:54.276+03:00,1745314493.241297,40.95228637145338,29.14029869593124,76.51794,-1,-1,-1,-1,30,26.39571644227393,-9999,30684.485847,-0.7627105712890625,0.5815582275390625,-0.2563629150390625,30684.475771,-0.736848148396511,-1.257038659396271,-0.6316519272787684,-0.02641007862985134,0.004187238402664661,0.006827397271990776,0.0003954768180847168,-0.008386552333831787,-0.00079306960105896,XArbitraryZVertical,-0.4356596951103041,-0.4308807126829183,-0.1065495800942029,0.7830642607549746,-0.7676532864570618,0.590478777885437,-0.2490848898887634,0,0,0,-1,-1,30655.205061625,unknown,2,2025-04-22T12:34:04.997+03:00,2025-04-21T17:08:51.449+03:00,7321,0.979675,0,0,6105.011,5,20,2025-04-22T12:34:07.576+03:00,767007294.1014569,0,-21.43999,100.4609,1,0.8,2025-04-22T12:34:13.658+03:00,85,1.416666666666667,2025-04-22T09:54:17.825+03:00,0.02225348692287972,0
2025-04-22T12:34:54.286+03:00,1745314493.241297,40.95228637145338,29.14029869593124,76.51794,-1,-1,-1,-1,30,26.39571644227393,-9999,30684.495923,-0.760772705078125,0.5903472900390625,-0.248870849609375,30684.485847,-0.7371137076208527,-1.257165430144112,-0.6318058140131277,-0.02417794987559319,0.00212235632352531,0.01037878915667534,-0.0006206035614013672,-0.01087582111358643,-0.003756552934646606,XArbitraryZVertical,-0.4357737686336181,-0.4308380782446981,-0.1065788668183216,0.7830202979172137,-0.7675984501838684,0.5906029343605042,-0.2489595413208008,0,0,0,-1,-1,30655.205061625,unknown,2,2025-04-22T12:34:04.997+03:00,2025-04-21T17:08:51.449+03:00,7321,0.979675,0,0,6105.011,5,20,2025-04-22T12:34:07.576+03:00,767007294.1014569,0,-21.43999,100.4609,1,0.8,2025-04-22T12:34:13.658+03:00,85,1.416666666666667,2025-04-22T09:54:17.825+03:00,0.02225348692287972,0
2025-04-22T12:34:54.296+03:00,1745314493.241297,40.95228637145338,29.14029869593124,76.51794,-1,-1,-1,-1,30,26.39571644227393,-9999,30684.505999,-0.767974853515625,0.5906829833984375,-0.2453765869140625,30684.495923,-0.7373282251889022,-1.257245478716574,-0.6319776210588905,-0.01587953977286816,0.006244397256523371,0.01167707983404398,0.005421578884124756,-0.00796276330947876,-0.007419884204864502,XArbitraryZVertical,-0.4358802220343201,-0.4307842233948287,-0.1065928196971696,0.782988711863535,-0.7675217986106873,0.5907415747642517,-0.2488667666912079,0,0,0,-1,-1,30655.205061625,unknown,2,2025-04-22T12:34:04.997+03:00,2025-04-21T17:08:51.449+03:00,7321,0.979675,0,0,6105.011,5,20,2025-04-22T12:34:07.576+03:00,767007294.1014569,0,-21.43999,100.4609,1,0.8,2025-04-22T12:34:13.658+03:00,85,1.416666666666667,2025-04-22T09:54:17.825+03:00,0.02225348692287972,0
2025-04-22T12:34:54.306+03:00,1745314493.241297,40.95228637145338,29.14029869593124,76.51794,-1,-1,-1,-1,30,26.39571644227393,-9999,30684.516075,-0.7679290771484375,0.598663330078125,-0.2420806884765625,30684.505999,-0.7373682990977342,-1.257185135598301,-0.6321045866004881,0.004152756184339523,0.008342701941728592,0.008797803893685341,0.005152046680450439,-8.642673492431641e-06,0.0007820278406143188,XArbitraryZVertical,-0.4359270091615251,-0.4307234446237531,-0.1065827913295288,0.7829974003680433,-0.7674353122711182,0.5908440351486206,-0.2488899081945419,0,0,0,-1,-1,30655.205061625,unknown,2,2025-04-22T12:34:04.997+03:00,2025-04-21T17:08:51.449+03:00,7321,0.979675,0,0,6105.011,5,20,2025-04-22T12:34:07.576+03:00,767007294.1014569,0,-21.43999,100.4609,1,0.8,2025-04-22T12:34:13.658+03:00,85,1.416666666666667,2025-04-22T09:54:17.825+03:00,0.02225348692287972,0
2025-04-22T12:34:54.316+03:00,1745314493.241297,40.95228637145338,29.14029869593124,76.51794,-1,-1,-1,-1,30,26.39571644227393,-9999,30684.526152,-0.7686004638671875,0.6009674072265625,-0.2341766357421875,30684.516075,-0.7372700256023417,-1.257043095915365,-0.6321864148727319,0.004127189982682467,0.00887240469455719,0.01285912375897169,-0.001231193542480469,-0.0008070468902587891,0.004507675766944885,XArbitraryZVertical,-0.4359249216846592,-0.4306709455996036,-0.1065502426075185,0.7830318768622682,-0.7673539519309998,0.590910017490387,-0.2489839941263199,0,0,0,-1,-1,30655.205061625,unknown,2,2025-04-22T12:34:04.997+03:00,2025-04-21T17:08:51.449+03:00,7321,0.979675,0,0,6105.011,5,20,2025-04-22T12:34:07.576+03:00,767007294.1014569,0,-21.43999,100.4609,1,0.8,2025-04-22T12:34:13.658+03:00,85,1.416666666666667,2025-04-22T09:54:17.825+03:00,0.02225348692287972,0
2025-04-22T12:34:54.326+03:00,1745314493.241297,40.95228637145338,29.14029869593124,76.51794,-1,-1,-1,-1,30,26.39571644227393,-9999,30684.536228,-0.7677001953125,0.577972412109375,-0.2451629638671875,30684.526152,-0.7372341262064704,-1.256883806859881,-0.6322910457596689,-0.005562654696404934,0.01868115924298763,0.01227965392172337,-0.0007040500640869141,0.009194672107696533,0.008623838424682617,XArbitraryZVertical,-0.43594277643651,-0.4305929937364901,-0.1065389004933856,0.7830663601636505,-0.7672554850578308,0.5909944176673889,-0.2490871399641037,0,0,0,-1,-1,30655.205061625,unknown,2,2025-04-22T12:34:04.997+03:00,2025-04-21T17:08:51.449+03:00,7321,0.979675,0,0,6105.011,5,20,2025-04-22T12:34:07.576+03:00,767007294.1014569,0,-21.43999,100.4609,1,0.8,2025-04-22T12:34:13.658+03:00,85,1.416666666666667,2025-04-22T09:54:17.825+03:00,0.02225348692287972,0
2025-04-22T12:34:54.337+03:00,1745314493.241297,40.95228637145338,29.14029869593124,76.51794,-1,-1,-1,-1,30,26.39571644227393,-9999,30684.546304,-0.761566162109375,0.579071044921875,-0.2507781982421875,30684.536228,-0.7373509495265677,-1.256730443854575,-0.6324348154936974,-0.02033547684550285,0.01935946568846703,0.01039120648056269,-0.001738607883453369,0.008468270301818848,0.01492561399936676,XArbitraryZVertical,-0.4360065893302189,-0.4304753013290893,-0.1065740809751757,0.7830907187284596,-0.7671364545822144,0.5911104083061218,-0.2491785436868668,0,0,0,-1,-1,30655.205061625,unknown,2,2025-04-22T12:34:04.997+03:00,2025-04-21T17:08:51.449+03:00,7321,0.979675,0,0,6105.011,5,20,2025-04-22T12:34:07.576+03:00,767007294.1014569,0,-21.43999,100.4609,1,0.8,2025-04-22T12:34:13.658+03:00,85,1.416666666666667,2025-04-22T09:54:17.825+03:00,0.02225348692287972,0
2025-04-22T12:34:54.346+03:00,1745314493.241297,40.95228637145338,29.14029869593124,76.51794,-1,-1,-1,-1,30,26.39571644227393,-9999,30684.55638,-0.754119873046875,0.5941009521484375,-0.254150390625,30684.546304,-0.7375946843010467,-1.256737687264718,-0.6326066031500991,-0.02709577605128288,0.005021140445023775,0.008058476261794567,-0.0003990530967712402,-0.01530611515045166,0.0018271803855896,XArbitraryZVertical,-0.4361153502420498,-0.430386552938025,-0.1066154011153767,0.7830733666487755,-0.7670417428016663,0.5912489891052246,-0.2491416335105896,0,0,0,-1,-1,30655.205061625,unknown,2,2025-04-22T12:34:04.997+03:00,2025-04-21T17:08:51.449+03:00,7321,0.979675,0,0,6105.011,5,20,2025-04-22T12:34:07.576+03:00,767007294.1014569,0,-21.43999,100.4609,1,0.8,2025-04-22T12:34:13.658+03:00,85,1.416666666666667,2025-04-22T09:54:17.825+03:00,0.02225348692287972,0
2025-04-22T12:34:54.357+03:00,1745314493.241297,40.95228637145338,29.14029869593124,76.51794,-1,-1,-1,-1,30,26.39571644227393,-9999,30684.56645679167,-0.7574920654296875,0.5899505615234375,-0.25469970703125,30684.55638,-0.7378598742417459,-1.256906753076545,-0.632723603697344,-0.0247695054858923,-0.004999801516532898,0.006108243949711323,0.00607752799987793,-0.009693682193756104,-0.00154346227645874,XArbitraryZVertical,-0.4362195108436805,-0.4303687224517849,-0.106646575756388,0.7830209343365203,-0.7670180797576904,0.5913433432579041,-0.2489905953407288,0,0,0,-1,-1,30655.205061625,unknown,2,2025-04-22T12:34:04.997+03:00,2025-04-21T17:08:51.449+03:00,7321,0.979675,0,0,6105.011,5,20,2025-04-22T12:34:07.576+03:00,767007294.1014569,0,-21.43999,100.4609,1,0.8,2025-04-22T12:34:13.658+03:00,85,1.416666666666667,2025-04-22T09:54:17.825+03:00,0.02225348692287972,0
2025-04-22T12:34:54.367+03:00,1745314493.241297,40.95228637145338,29.14029869593124,76.51794,-1,-1,-1,-1,30,26.39571644227393,-9999,30684.57653279167,-0.7640533447265625,0.588043212890625,-0.251678466796875,30684.56645679167,-0.7381231287238272,-1.257162196216195,-0.6327984272172947,-0.02305576205253601,-0.01198181137442589,-0.000449790240963921,0.01360630989074707,0.003521203994750977,-0.005888193845748901,XArbitraryZVertical,-0.4363141263970462,-0.4303945507935671,-0.1066710345208562,0.7829507193851077,-0.7670395970344543,0.5914036631584167,-0.2487810254096985,0,0,0,-1,-1,30655.205061625,unknown,2,2025-04-22T12:34:04.997+03:00,2025-04-21T17:08:51.449+03:00,7321,0.979675,0,0,6105.011,5,20,2025-04-22T12:34:07.576+03:00,767007294.1014569,0,-21.43999,100.4609,1,0.8,2025-04-22T12:34:13.658+03:00,85,1.416666666666667,2025-04-22T09:54:17.825+03:00,0.02225348692287972,0
2025-04-22T12:34:54.377+03:00,1745314493.241297,40.95228637145338,29.14029869593124,76.51794,-1,-1,-1,-1,30,26.39571644227393,-9999,30684.58660979167,-0.76177978515625,0.5970306396484375,-0.2553558349609375,30684.57653279167,-0.7383840422554111,-1.257429671984052,-0.6328284281934604,-0.0220181941986084,-0.01661464758217335,-0.005337489768862724,0.008635759353637695,-0.002347111701965332,-0.005732625722885132,XArbitraryZVertical,-0.4363943123463265,-0.4304356093885906,-0.1067056305066263,0.7828787325529215,-0.7670892477035522,0.5914278626441956,-0.2485703825950623,0,0,0,-1,-1,30655.205061625,unknown,2,2025-04-22T12:34:04.997+03:00,2025-04-21T17:08:51.449+03:00,7321,0.979675,0,0,6105.011,5,20,2025-04-22T12:34:07.576+03:00,767007294.1014569,0,-21.43999,100.4609,1,0.8,2025-04-22T12:34:13.658+03:00,85,1.416666666666667,2025-04-22T09:54:17.825+03:00,0.02225348692287972,0
2025-04-22T12:34:54.386+03:00,1745314493.241297,40.95228637145338,29.14029869593124,76.51794,-1,-1,-1,-1,30,26.39571644227393,-9999,30684.59668579167,-0.7600250244140625,0.594024658203125,-0.2503509521484375,30684.58660979167,-0.7386351819923674,-1.2577511806426,-0.6328312953696503,-0.01728282682597637,-0.01829802989959717,-0.00853261724114418,0.003403961658477783,-0.002410471439361572,-0.003614693880081177,XArbitraryZVertical,-0.4364664540401558,-0.4305060093774077,-0.1067328964314634,0.7827960870393852,-0.7671675086021423,0.5914301872253418,-0.2483232170343399,0,0,0,-1,-1,30655.205061625,unknown,2,2025-04-22T12:34:04.997+03:00,2025-04-21T17:08:51.449+03:00,7321,0.979675,0,0,6105.011,5,20,2025-04-22T12:34:07.576+03:00,767007294.1014569,0,-21.43999,100.4609,1,0.8,2025-04-22T12:34:13.658+03:00,85,1.416666666666667,2025-04-22T09:54:17.825+03:00,0.02225348692287972,0
2025-04-22T12:34:54.397+03:00,1745314493.241297,40.95228637145338,29.14029869593124,76.51794,-1,-1,-1,-1,30,26.39571644227393,-9999,30684.60676179167,-0.76031494140625,0.5924072265625,-0.248779296875,30684.59668579167,-0.738871403901725,-1.258091276089476,-0.6327948856736165,-0.01227075792849064,-0.01987994834780693,-0.009261258877813816,0.006072342395782471,0.005629777908325195,-0.006981760263442993,XArbitraryZVertical,-0.4365236159976699,-0.4305957184294284,-0.1067622682646502,0.7827108599145769,-0.767272412776947,0.5914008021354675,-0.2480689138174057,0,0,0,-1,-1,30655.205061625,unknown,2,2025-04-22T12:34:04.997+03:00,2025-04-21T17:08:51.449+03:00,7321,0.979675,0,0,6105.011,5,20,2025-04-22T12:34:07.576+03:00,767007294.1014569,0,-21.43999,100.4609,1,0.8,2025-04-22T12:34:13.658+03:00,85,1.416666666666667,2025-04-22T09:54:17.825+03:00,0.02225348692287972,0
2025-04-22T12:34:54.407+03:00,1745314493.241297,40.95228637145338,29.14029869593124,76.51794,-1,-1,-1,-1,30,26.39571644227393,-9999,30684.61683779167,-0.7589263916015625,0.5903472900390625,-0.2492828369140625,30684.60676179167,-0.739046225777867,-1.258426471518752,-0.6327488483325304,-0.007729070261120796,-0.02310403808951378,-0.01122883427888155,0.007646262645721436,0.001882731914520264,-0.002286761999130249,XArbitraryZVertical,-0.4365641691523178,-0.4306990555459776,-0.1067716231716581,0.782630134559952,-0.7673814296722412,0.5913636684417725,-0.2478200942277908,0,0,0,-1,-1,30655.205061625,unknown,2,2025-04-22T12:34:04.997+03:00,2025-04-21T17:08:51.449+03:00,7321,0.979675,0,0,6105.011,5,20,2025-04-22T12:34:07.576+03:00,767007294.1014569,0,-21.43999,100.4609,1,0.8,2025-04-22T12:34:13.658+03:00,85,1.416666666666667,2025-04-22T09:54:17.825+03:00,0.02225348692287972,0
2025-04-22T12:34:54.417+03:00,1745314493.241297,40.95228637145338,29.14029869593124,76.51794,-1,-1,-1,-1,30,26.39571644227393,-9999,30684.62691379167,-0.7600250244140625,0.5891265869140625,-0.250701904296875,30684.61683779167,-0.7392255743458748,-1.258836209972985,-0.6326787296322609,-0.007675007916986942,-0.02814806625247002,-0.01064453739672899,0.007710874080657959,0.000764310359954834,-0.0009710192680358887,XArbitraryZVertical,-0.436601907113825,-0.4308359355925737,-0.1067738040426835,0.7825333573253124,-0.7675222754478455,0.5913071036338806,-0.2475183457136154,0,0,0,-1,-1,30655.205061625,unknown,2,2025-04-22T12:34:04.997+03:00,2025-04-21T17:08:51.449+03:00,7321,0.979675,0,0,6105.011,5,20,2025-04-22T12:34:07.576+03:00,767007294.1014569,0,-21.43999,100.4609,1,0.8,2025-04-22T12:34:13.658+03:00,85,1.416666666666667,2025-04-22T09:54:17.825+03:00,0.02225348692287972,0
2025-04-22T12:34:54.427+03:00,1745314493.241297,40.95228637145338,29.14029869593124,76.51794,-1,-1,-1,-1,30,26.39571644227393,-9999,30684.63698979167,-0.7628326416015625,0.588836669921875,-0.25250244140625,30684.62691379167,-0.7393680904984776,-1.259191065747179,-0.6325574112615401,-0.007953042164444923,-0.02661115676164627,-0.01189808640629053,0.008843481540679932,-0.00087738037109375,-0.001572370529174805,XArbitraryZVertical,-0.4366121170676858,-0.4309708552649302,-0.1067892580154724,0.7824512613642669,-0.7676783204078674,0.5912092924118042,-0.2472679615020752,0,0,0,-1,-1,30655.205061625,unknown,2,2025-04-22T12:34:04.997+03:00,2025-04-21T17:08:51.449+03:00,7321,0.979675,0,0,6105.011,5,20,2025-04-22T12:34:07.576+03:00,767007294.1014569,0,-21.43999,100.4609,1,0.8,2025-04-22T12:34:13.658+03:00,85,1.416666666666667,2025-04-22T09:54:17.825+03:00,0.02225348692287972,0
2025-04-22T12:34:54.444+03:00,1745314493.241297,40.95228637145338,29.14029869593124,76.51794,-1,-1,-1,-1,30,26.39571644227393,-9999,30684.64706679167,-0.7625732421875,0.5877227783203125,-0.250579833984375,30684.63698979167,-0.7395223671939276,-1.259566670979343,-0.6324652225283878,-0.01174698118120432,-0.03098566457629204,-0.01058834418654442,0.00775223970413208,-0.002008438110351562,-0.003797173500061035,XArbitraryZVertical,-0.4366354714702219,-0.4311047744862329,-0.1067958449193452,0.782363522036929,-0.7678229808807373,0.5911349058151245,-0.246996283531189,0,0,0,-1,-1,30655.205061625,unknown,2,2025-04-22T12:34:04.997+03:00,2025-04-21T17:08:51.449+03:00,7321,0.979675,0,0,6105.011,5,20,2025-04-22T12:34:07.576+03:00,767007294.1014569,0,-21.43999,100.4609,1,0.8,2025-04-22T12:34:13.658+03:00,85,1.416666666666667,2025-04-22T09:54:17.825+03:00,0.02225348692287972,0
2025-04-22T12:34:54.447+03:00,1745314493.241297,40.95228637145338,29.14029869593124,76.51794,-1,-1,-1,-1,30,26.39571644227393,-9999,30684.65714279167,-0.7646331787109375,0.5858001708984375,-0.2507781982421875,30684.64706679167,-0.7397048038000704,-1.259942489151683,-0.63243484255145,-0.01622135937213898,-0.03033531829714775,-0.01015438232570887,0.005817413330078125,-0.002228081226348877,-0.005773931741714478,XArbitraryZVertical,-0.4366849476293156,-0.4312187778292735,-0.1067945022944721,0.7822733788109301,-0.7679330706596375,0.5911104083061218,-0.246713250875473,0,0,0,-1,-1,30655.205061625,unknown,2,2025-04-22T12:34:04.997+03:00,2025-04-21T17:08:51.449+03:00,7321,0.979675,0,0,6105.011,5,20,2025-04-22T12:34:07.576+03:00,767007294.1014569,0,-21.43999,100.4609,1,0.8,2025-04-22T12:34:13.658+03:00,85,1.416666666666667,2025-04-22T09:54:17.825+03:00,0.02225348692287972,0
2025-04-22T12:34:54.458+03:00,1745314493.241297,40.95228637145338,29.14029869593124,76.51794,-1,-1,-1,-1,30,26.39571644227393,-9999,30684.66721879167,-0.7638397216796875,0.5870513916015625,-0.253753662109375,30684.65714279167,-0.7399087981653175,-1.26036198207058,-0.632384172983549,-0.0147555535659194,-0.03595298901200294,-0.01015198510140181,0.004591286182403564,-0.003301143646240234,-0.003874480724334717,XArbitraryZVertical,-0.4367349259876374,-0.4313496456002298,-0.1067981781037164,0.7821726989748838,-0.7680647969245911,0.5910695791244507,-0.2464001774787903,0,0,0,-1,-1,30655.205061625,unknown,2,2025-04-22T12:34:04.997+03:00,2025-04-21T17:08:51.449+03:00,7321,0.979675,0,0,6105.011,5,20,2025-04-22T12:34:07.576+03:00,767007294.1014569,0,-21.43999,100.4609,1,0.8,2025-04-22T12:34:13.658+03:00,85,1.416666666666667,2025-04-22T09:54:17.825+03:00,0.02225348692287972,0
2025-04-22T12:34:54.467+03:00,1745314493.241297,40.95228637145338,29.14029869593124,76.51794,-1,-1,-1,-1,30,26.39571644227393,-9999,30684.67729479167,-0.763153076171875,0.586395263671875,-0.2575225830078125,30684.66721879167,-0.7401159786397998,-1.260861980986989,-0.6323559726895305,-0.01580443978309631,-0.04102618247270584,-0.006276220548897982,0.003021359443664551,-0.005170524120330811,-0.004665419459342957,XArbitraryZVertical,-0.4367971526470425,-0.4315062542184207,-0.1067786534746458,0.7820542342259926,-0.7682037949562073,0.5910468101501465,-0.2460211962461472,0,0,0,-1,-1,30655.205061625,unknown,2,2025-04-22T12:34:04.997+03:00,2025-04-21T17:08:51.449+03:00,7321,0.979675,0,0,6105.011,5,20,2025-04-22T12:34:07.576+03:00,767007294.1014569,0,-21.43999,100.4609,1,0.8,2025-04-22T12:34:13.658+03:00,85,1.416666666666667,2025-04-22T09:54:17.825+03:00,0.02225348692287972,0
2025-04-22T12:34:54.477+03:00,1745314493.241297,40.95228637145338,29.14029869593124,76.51794,-1,-1,-1,-1,30,26.39571644227393,-9999,30684.68737079167,-0.76593017578125,0.5910186767578125,-0.2559051513671875,30684.67729479167,-0.7402975903185126,-1.261385435260633,-0.6323784321129757,-0.01417458523064852,-0.04587393254041672,-0.002965645398944616,0.005349874496459961,-0.004257798194885254,-0.008321762084960938,XArbitraryZVertical,-0.4368715719682317,-0.4316662197505753,-0.1067284476867592,0.7819312393737408,-0.768319845199585,0.5910649299621582,-0.2456150054931641,0,0,0,-1,-1,30655.205061625,unknown,2,2025-04-22T12:34:04.997+03:00,2025-04-21T17:08:51.449+03:00,7321,0.979675,0,0,6105.011,5,20,2025-04-22T12:34:07.576+03:00,767007294.1014569,0,-21.43999,100.4609,1,0.8,2025-04-22T12:34:13.658+03:00,85,1.416666666666667,2025-04-22T09:54:17.825+03:00,0.02225348692287972,0
2025-04-22T12:34:54.487+03:00,1745314493.241297,40.95228637145338,29.14029869593124,76.51794,-1,-1,-1,-1,30,26.39571644227393,-9999,30684.69744679167,-0.761962890625,0.5948486328125,-0.2547760009765625,30684.68737079167,-0.7404806447413355,-1.262007386360567,-0.6324181942875247,-0.01392864249646664,-0.05747825652360916,9.146396769210696e-05,0.003938972949981689,-0.004076182842254639,-0.01227053999900818,XArbitraryZVertical,-0.436957144230174,-0.4318604606907024,-0.1066519666021744,0.781786663595788,-0.7684502005577087,0.5910969972610474,-0.2451299875974655,0,0,0,-1,-1,30655.205061625,unknown,2,2025-04-22T12:34:04.997+03:00,2025-04-21T17:08:51.449+03:00,7321,0.979675,0,0,6105.011,5,20,2025-04-22T12:34:07.576+03:00,767007294.1014569,0,-21.43999,100.4609,1,0.8,2025-04-22T12:34:13.658+03:00,85,1.416666666666667,2025-04-22T09:54:17.825+03:00,0.02225348692287972,0
2025-04-22T12:34:54.498+03:00,1745314493.241297,40.95228637145338,29.14029869593124,76.51794,-1,-1,-1,-1,30,26.39571644227393,-9999,30684.70752379167,-0.7640228271484375,0.5899200439453125,-0.2548370361328125,30684.69744679167,-0.7406583152476282,-1.262705803892993,-0.6324690951266674,-0.01621256768703461,-0.0638490691781044,-0.002394596813246608,0.003440499305725098,0.0004755854606628418,-0.01089382171630859,XArbitraryZVertical,-0.4370492701155296,-0.4320831933131544,-0.1065531775301476,0.7816255259825482,-0.7685924768447876,0.5911380648612976,-0.2445840984582901,0,0,0,-1,-1,30655.205061625,unknown,2,2025-04-22T12:34:04.997+03:00,2025-04-21T17:08:51.449+03:00,7321,0.979675,0,0,6105.011,5,20,2025-04-22T12:34:07.576+03:00,767007294.1014569,0,-21.43999,100.4609,1,0.8,2025-04-22T12:34:13.658+03:00,85,1.416666666666667,2025-04-22T09:54:17.825+03:00,0.02225348692287972,0
2025-04-22T12:34:54.508+03:00,1745314493.241297,40.95228637145338,29.14029869593124,76.51794,-1,-1,-1,-1,30,26.39571644227393,-9999,30684.71759979167,-0.7679443359375,0.5929412841796875,-0.252655029296875,30684.70752379167,-0.740836807868882,-1.263463454061488,-0.6325068204656932,-0.01462259516119957,-0.0664764791727066,-0.002079245401546359,0.007083296775817871,0.004092097282409668,-0.01046058535575867,XArbitraryZVertical,-0.4371404036373772,-0.4323317919497728,-0.1064457791956718,0.7814517576334468,-0.7687563896179199,0.5911684632301331,-0.2439949810504913,0,0,0,-1,-1,30655.205061625,unknown,2,2025-04-22T12:34:04.997+03:00,2025-04-21T17:08:51.449+03:00,7321,0.979675,0,0,6105.011,5,20,2025-04-22T12:34:07.576+03:00,767007294.1014569,0,-21.43999,100.4609,1,0.8,2025-04-22T12:34:13.658+03:00,85,1.416666666666667,2025-04-22T09:54:17.825+03:00,0.02225348692287972,0
2025-04-22T12:34:54.518+03:00,1745314493.241297,40.95228637145338,29.14029869593124,76.51794,-1,-1,-1,-1,30,26.39571644227393,-9999,30684.72767579167,-0.770111083984375,0.6064300537109375,-0.2539215087890625,30684.71759979167,-0.7409485966232056,-1.264195017796917,-0.6325103343010288,-0.007337518502026796,-0.07164460420608521,-0.00600288063287735,0.004223048686981201,-0.001877069473266602,-0.01108478009700775,XArbitraryZVertical,-0.4372046992588881,-0.4325923515580899,-0.1063284088035394,0.7812873839357365,-0.7689324617385864,0.5911713242530823,-0.2434318214654922,0,0,0,-1,-1,30655.205061625,unknown,2,2025-04-22T12:34:04.997+03:00,2025-04-21T17:08:51.449+03:00,7321,0.979675,0,0,6105.011,5,20,2025-04-22T12:34:07.576+03:00,767007294.1014569,0,-21.43999,100.4609,1,0.8,2025-04-22T12:34:13.658+03:00,85,1.416666666666667,2025-04-22T09:54:17.825+03:00,0.02225348692287972,0
2025-04-22T12:34:54.528+03:00,1745314493.241297,40.95228637145338,29.14029869593124,76.51794,-1,-1,-1,-1,30,26.39571644227393,-9999,30684.73775179167,-0.7711944580078125,0.5897216796875,-0.255157470703125,30684.72767579167,-0.7410964284361071,-1.26496285568836,-0.6324731680628515,-0.01744754426181316,-0.07016295939683914,-0.01172781176865101,9.72747802734375e-05,0.003295183181762695,-0.009654462337493896,XArbitraryZVertical,-0.4372653969509353,-0.4328683115025498,-0.1062297442526952,0.7811140862952926,-0.7691402435302734,0.5911413431167603,-0.2428479939699173,0,0,0,-1,-1,30655.205061625,unknown,2,2025-04-22T12:34:04.997+03:00,2025-04-21T17:08:51.449+03:00,7321,0.979675,0,0,6105.011,5,20,2025-04-22T12:34:07.576+03:00,767007294.1014569,0,-21.43999,100.4609,1,0.8,2025-04-22T12:34:13.658+03:00,85,1.416666666666667,2025-04-22T09:54:17.825+03:00,0.02225348692287972,0
2025-04-22T12:34:54.538+03:00,1745314493.241297,40.95228637145338,29.14029869593124,76.51794,-1,-1,-1,-1,30,26.39571644227393,-9999,30684.74782779167,-0.770599365234375,0.582611083984375,-0.250030517578125,30684.73775179167,-0.7415783775725999,-1.265893539484749,-0.632483502441257,-0.04524695128202438,-0.05944160744547844,-0.01041833497583866,-0.0009188055992126465,0.01528024673461914,-0.01237112283706665,XArbitraryZVertical,-0.437422514181941,-0.4331240346083955,-0.1062112546846584,0.7808868421967601,-0.7693601250648499,0.5911496877670288,-0.242130234837532,0,0,0,-1,-1,30655.205061625,unknown,2,2025-04-22T12:34:04.997+03:00,2025-04-21T17:08:51.449+03:00,7321,0.979675,0,0,6105.011,5,20,2025-04-22T12:34:07.576+03:00,767007294.1014569,0,-21.43999,100.4609,1,0.8,2025-04-22T12:34:13.658+03:00,85,1.416666666666667,2025-04-22T09:54:17.825+03:00,0.02225348692287972,0
2025-04-22T12:34:54.548+03:00,1745314493.241297,40.95228637145338,29.14029869593124,76.51794,-1,-1,-1,-1,30,26.39571644227393,-9999,30684.75790379167,-0.7659149169921875,0.59375,-0.2511749267578125,30684.74782779167,-0.7424283915902726,-1.266983461217859,-0.6325520674678368,-0.1049329861998558,-0.06163504719734192,-0.01757068745791912,-0.001441776752471924,-0.004748821258544922,-0.01291680335998535,XArbitraryZVertical,-0.4376867511385862,-0.4333481374737325,-0.1062835286887417,0.7806045242208102,-0.7695848345756531,0.5912050008773804,-0.2412793934345245,0,0,0,-1,-1,30655.205061625,unknown,2,2025-04-22T12:34:04.997+03:00,2025-04-21T17:08:51.449+03:00,7321,0.979675,0,0,6105.011,5,20,2025-04-22T12:34:07.576+03:00,767007294.1014569,0,-21.43999,100.4609,1,0.8,2025-04-22T12:34:13.658+03:00,85,1.416666666666667,2025-04-22T09:54:17.825+03:00,0.02225348692287972,0
2025-04-22T12:34:54.558+03:00,1745314493.241297,40.95228637145338,29.14029869593124,76.51794,-1,-1,-1,-1,30,26.39571644227393,-9999,30684.76798079167,-0.7572784423828125,0.57366943359375,-0.25457763671875,30684.75790379167,-0.7442916853384874,-1.268670547355742,-0.6328633000191908,-0.2238034456968307,-0.0627671554684639,-0.01281774323433638,-0.0008301138877868652,-0.007654786109924316,-0.008944898843765259,XArbitraryZVertical,-0.4382809185937011,-0.433528380504577,-0.1065453317769238,0.7801352810203775,-0.7698151469230652,0.5914559364318848,-0.2399259656667709,0,0,0,-1,-1,30655.205061625,unknown,2,2025-04-22T12:34:04.997+03:00,2025-04-21T17:08:51.449+03:00,7321,0.979675,0,0,6105.011,5,20,2025-04-22T12:34:07.576+03:00,767007294.1014569,0,-21.43999,100.4609,1,0.8,2025-04-22T12:34:13.658+03:00,85,1.416666666666667,2025-04-22T09:54:17.825+03:00,0.02225348692287972,0
2025-04-22T12:34:54.568+03:00,1745314493.241297,40.95228637145338,29.14029869593124,76.51794,-1,-1,-1,-1,30,26.39571644227393,-9999,30684.77805679167,-0.755584716796875,0.54913330078125,-0.2614288330078125,30684.76798079167,-0.7478563395894412,-1.271427121795529,-0.6336014909556046,-0.3646632432937622,-0.07615181058645248,-0.01332953665405512,0.00594174861907959,0.001332640647888184,-0.01467573642730713,XArbitraryZVertical,-0.4394390876271753,-0.4336544888099049,-0.1071027119940317,0.7793368836803575,-0.7700561285018921,0.5920510292053223,-0.2376741468906403,0,0,0,-1,-1,30655.205061625,unknown,2,2025-04-22T12:34:04.997+03:00,2025-04-21T17:08:51.449+03:00,7321,0.979675,0,0,6105.011,5,20,2025-04-22T12:34:07.576+03:00,767007294.1014569,0,-21.43999,100.4609,1,0.8,2025-04-22T12:34:13.658+03:00,85,1.416666666666667,2025-04-22T09:54:17.825+03:00,0.02225348692287972,0
2025-04-22T12:34:54.578+03:00,1745314493.241297,40.95228637145338,29.14029869593124,76.51794,-1,-1,-1,-1,30,26.39571644227393,-9999,30684.78813279167,-0.7506561279296875,0.5437164306640625,-0.2819366455078125,30684.77805679167,-0.7523405117092267,-1.27496831233624,-0.6346713516012427,-0.3765835464000702,-0.1152787059545517,0.005914731882512569,0.01354223489761353,-0.02278363704681396,-0.02006083726882935,XArbitraryZVertical,-0.4409457228804604,-0.4338045548708394,-0.1077392353553581,0.7783139774996208,-0.7702866196632385,0.5929129123687744,-0.2347609549760818,0,0,0,-1,-1,30655.205061625,unknown,2,2025-04-22T12:34:04.997+03:00,2025-04-21T17:08:51.449+03:00,7321,0.979675,0,0,6105.011,5,20,2025-04-22T12:34:07.576+03:00,767007294.1014569,0,-21.43999,100.4609,1,0.8,2025-04-22T12:34:13.658+03:00,85,1.416666666666667,2025-04-22T09:54:17.825+03:00,0.02225348692287972,0
2025-04-22T12:34:54.589+03:00,1745314493.241297,40.95228637145338,29.14029869593124,76.51794,-1,-1,-1,-1,30,26.39571644227393,-9999,30684.79820879167,-0.7509613037109375,0.5624237060546875,-0.2826690673828125,30684.78813279167,-0.7564399970228007,-1.278722373292042,-0.6358970047529082,-0.328105628490448,-0.159843385219574,0.03158900514245033,0.01472872495651245,-0.04623109102249146,-0.03230363130569458,XArbitraryZVertical,-0.4424304104056677,-0.4340809109403364,-0.1081252899689419,0.7772631145052098,-0.7704659700393677,0.5938994288444519,-0.2316581904888153,0,0,0,-1,-1,30655.205061625,unknown,2,2025-04-22T12:34:04.997+03:00,2025-04-21T17:08:51.449+03:00,7321,0.979675,0,0,6105.011,5,20,2025-04-22T12:34:07.576+03:00,767007294.1014569,0,-21.43999,100.4609,1,0.8,2025-04-22T12:34:13.658+03:00,85,1.416666666666667,2025-04-22T09:54:17.825+03:00,0.02225348692287972,0
2025-04-22T12:34:54.598+03:00,1745314493.241297,40.95228637145338,29.14029869593124,76.51794,-1,-1,-1,-1,30,26.39571644227393,-9999,30684.80828479167,-0.7583770751953125,0.5748748779296875,-0.294342041015625,30684.79820879167,-0.7594824269055813,-1.282230804670489,-0.6369235701318645,-0.1888342797756195,-0.1935965418815613,0.02563603781163692,0.02079594135284424,-0.04928445816040039,-0.05512499809265137,XArbitraryZVertical,-0.4436085703266352,-0.4345358748460163,-0.1082115916412135,0.7763247953407739,-0.7706891298294067,0.5947250127792358,-0.2287800163030624,0,0,0,-1,-1,30655.205061625,unknown,2,2025-04-22T12:34:04.997+03:00,2025-04-21T17:08:51.449+03:00,7321,0.979675,0,0,6105.011,5,20,2025-04-22T12:34:07.576+03:00,767007294.1014569,0,-21.43999,100.4609,1,0.8,2025-04-22T12:34:13.658+03:00,85,1.416666666666667,2025-04-22T09:54:17.825+03:00,0.02225348692287972,0
2025-04-22T12:34:54.608+03:00,1745314493.241297,40.95228637145338,29.14029869593124,76.51794,-1,-1,-1,-1,30,26.39571644227393,-9999,30684.81836179167,-0.7492828369140625,0.61578369140625,-0.328125,30684.80828479167,-0.760847233997323,-1.285062210980745,-0.6375043179808155,-0.07234101742506027,-0.2128336876630783,0.01731802150607109,0.01814889907836914,-0.03061676025390625,-0.05615425109863281,XArbitraryZVertical,-0.4442432435545183,-0.4351989768759567,-0.1079323194610115,0.7756289911971301,-0.7710022926330566,0.5951918363571167,-0.2264995872974396,0,0,0,-1,-1,30655.205061625,unknown,2,2025-04-22T12:34:04.997+03:00,2025-04-21T17:08:51.449+03:00,7321,0.979675,0,0,6105.011,5,20,2025-04-22T12:34:07.576+03:00,767007294.1014569,0,-21.43999,100.4609,1,0.8,2025-04-22T12:34:13.658+03:00,85,1.416666666666667,2025-04-22T09:54:17.825+03:00,0.02225348692287972,0
2025-04-22T12:34:54.618+03:00,1745314493.241297,40.95228637145338,29.14029869593124,76.51794,-1,-1,-1,-1,30,26.39571644227393,-9999,30684.82843779167,-0.748199462890625,0.672576904296875,-0.3540191650390625,30684.81836179167,-0.7611233428116282,-1.287134299347028,-0.6376622368372589,0.02631871215999126,-0.1779015362262726,-0.00466211186721921,0.01349091529846191,-0.01771259307861328,-0.07405969500541687,XArbitraryZVertical,-0.4444651639797584,-0.4359049240795727,-0.1075299161793171,0.7751612466148425,-0.771379828453064,0.5953186750411987,-0.2248752266168594,0,0,0,-1,-1,30655.205061625,unknown,2,2025-04-22T12:34:04.997+03:00,2025-04-21T17:08:51.449+03:00,7321,0.979675,0,0,6105.011,5,20,2025-04-22T12:34:07.576+03:00,767007294.1014569,0,-21.43999,100.4609,1,0.8,2025-04-22T12:34:13.658+03:00,85,1.416666666666667,2025-04-22T09:54:17.825+03:00,0.02225348692287972,0
2025-04-22T12:34:54.628+03:00,1745314493.241297,40.95228637145338,29.14029869593124,76.51794,-1,-1,-1,-1,30,26.39571644227393,-9999,30684.83851379167,-0.7412567138671875,0.693817138671875,-0.3774566650390625,30684.82843779167,-0.7599233347326714,-1.287999427542948,-0.6372511211165706,0.1288299709558487,-0.1632167994976044,-0.02301725186407566,0.0225871205329895,0.02918756008148193,-0.1062750816345215,XArbitraryZVertical,-0.4441192194974197,-0.4366006167408117,-0.1070005561729657,0.7750411501638109,-0.771808922290802,0.5949883460998535,-0.2242760360240936,0,0,0,-1,-1,30655.205061625,unknown,2,2025-04-22T12:34:04.997+03:00,2025-04-21T17:08:51.449+03:00,7321,0.979675,0,0,6105.011,5,20,2025-04-22T12:34:07.576+03:00,767007294.1014569,0,-21.43999,100.4609,1,0.8,2025-04-22T12:34:13.658+03:00,85,1.416666666666667,2025-04-22T09:54:17.825+03:00,0.02225348692287972,0
2025-04-22T12:34:54.638+03:00,1745314493.241297,40.95228637145338,29.14029869593124,76.51794,-1,-1,-1,-1,30,26.39571644227393,-9999,30684.84858979167,-0.754364013671875,0.6566619873046875,-0.319122314453125,30684.83851379167,-0.759832305058599,-1.289804371497798,-0.6365216029687644,-0.1070991978049278,-0.2136030197143555,-0.08545506745576859,0.02470451593399048,0.08253896236419678,-0.1358227729797363,XArbitraryZVertical,-0.4439640452847058,-0.4374865330025406,-0.106791692742185,0.7746592193781782,-0.7726293206214905,0.5944018363952637,-0.2230029255151749,0,0,0,-1,-1,30655.205061625,unknown,2,2025-04-22T12:34:04.997+03:00,2025-04-21T17:08:51.449+03:00,7321,0.979675,0,0,6105.011,5,20,2025-04-22T12:34:07.576+03:00,767007294.1014569,0,-21.43999,100.4609,1,0.8,2025-04-22T12:34:13.658+03:00,85,1.416666666666667,2025-04-22T09:54:17.825+03:00,0.02225348692287972,0
2025-04-22T12:34:54.649+03:00,1745314493.241297,40.95228637145338,29.14029869593124,76.51794,-1,-1,-1,-1,30,26.39571644227393,-9999,30684.85866579167,-0.7874603271484375,0.51312255859375,-0.30242919921875,30684.84858979167,-0.7643198515254317,-1.294636106529225,-0.6369236649876341,-0.5999718308448792,-0.2113106995820999,-0.03081665001809597,0.03274518251419067,0.09895455837249756,-0.1563625335693359,XArbitraryZVertical,-0.4453325948534001,-0.4382668910895777,-0.1073287979173245,0.77335729435566,-0.7734678387641907,0.5947251319885254,-0.2192020267248154,0,0,0,-1,-1,30655.205061625,unknown,2,2025-04-22T12:34:04.997+03:00,2025-04-21T17:08:51.449+03:00,7321,0.979675,0,0,6105.011,5,20,2025-04-22T12:34:07.576+03:00,767007294.1014569,0,-21.43999,100.4609,1,0.8,2025-04-22T12:34:13.658+03:00,85,1.416666666666667,2025-04-22T09:54:17.825+03:00,0.02225348692287972,0
2025-04-22T12:34:54.659+03:00,1745314493.241297,40.95228637145338,29.14029869593124,76.51794,-1,-1,-1,-1,30,26.39571644227393,-9999,30684.86874279167,-0.8095855712890625,0.4286956787109375,-0.38336181640625,30684.85866579167,-0.7734477251873138,-1.301576179928598,-0.6387972727177879,-0.921262264251709,-0.1065760254859924,0.002802561968564987,0.01522797346115112,0.04769045114517212,-0.09736573696136475,XArbitraryZVertical,-0.4482985153666162,-0.4384773467055135,-0.1087170627183883,0.7713278339164896,-0.7738949656486511,0.5962303280830383,-0.2135321199893951,0,0,0,-1,-1,30655.205061625,unknown,2,2025-04-22T12:34:04.997+03:00,2025-04-21T17:08:51.449+03:00,7321,0.979675,0,0,6105.011,5,20,2025-04-22T12:34:07.576+03:00,767007294.1014569,0,-21.43999,100.4609,1,0.8,2025-04-22T12:34:13.658+03:00,85,1.416666666666667,2025-04-22T09:54:17.825+03:00,0.02225348692287972,0
2025-04-22T12:34:54.669+03:00,1745314493.241297,40.95228637145338,29.14029869593124,76.51794,-1,-1,-1,-1,30,26.39571644227393,-9999,30684.87881879167,-0.7695159912109375,0.4683990478515625,-0.4137725830078125,30684.86874279167,-0.7854090094932048,-1.309659005580899,-0.6416820588871256,-1.057198643684387,-0.1132590249180794,0.0701095312833786,-0.01702392101287842,-0.1049221158027649,-0.1037676781415939,XArbitraryZVertical,-0.4522646747830441,-0.4382284414630998,-0.1105967365854625,0.7688827781412078,-0.7739306092262268,0.5985437631607056,-0.2068249881267548,0,0,0,-1,-1,30655.205061625,unknown,2,2025-04-22T12:34:04.997+03:00,2025-04-21T17:08:51.449+03:00,7321,0.979675,0,0,6105.011,5,20,2025-04-22T12:34:07.576+03:00,767007294.1014569,0,-21.43999,100.4609,1,0.8,2025-04-22T12:34:13.658+03:00,85,1.416666666666667,2025-04-22T09:54:17.825+03:00,0.02225348692287972,0
2025-04-22T12:34:54.679+03:00,1745314493.241297,40.95228637145338,29.14029869593124,76.51794,-1,-1,-1,-1,30,26.39571644227393,-9999,30684.88889479167,-0.7093505859375,0.5341949462890625,-0.42425537109375,30684.87881879167,-0.7972754771214136,-1.318467853496577,-0.6459538333666005,-0.9598997831344604,-0.2324227094650269,0.2472222596406937,-0.0356440544128418,-0.1722119450569153,-0.1912197470664978,XArbitraryZVertical,-0.4566749352309583,-0.4379135308996793,-0.111801175224395,0.7662768566260201,-0.7732396125793457,0.6019603610038757,-0.1993594914674759,0,0,0,-1,-1,30655.205061625,unknown,2,2025-04-22T12:34:04.997+03:00,2025-04-21T17:08:51.449+03:00,7321,0.979675,0,0,6105.011,5,20,2025-04-22T12:34:07.576+03:00,767007294.1014569,0,-21.43999,100.4609,1,0.8,2025-04-22T12:34:13.658+03:00,85,1.416666666666667,2025-04-22T09:54:17.825+03:00,0.02225348692287972,0
2025-04-22T12:34:54.689+03:00,1745314493.241297,40.95228637145338,29.14029869593124,76.51794,-1,-1,-1,-1,30,26.39571644227393,-9999,30684.89897079167,-0.7148895263671875,0.612060546875,-0.4540863037109375,30684.88889479167,-0.8064243301449239,-1.326716153170751,-0.6507669630292917,-0.6380512118339539,-0.2789348661899567,0.3491195738315582,0.01123398542404175,-0.1300584077835083,-0.222247838973999,XArbitraryZVertical,-0.4606130742323286,-0.4378348686255226,-0.111883610270446,0.763949099039303,-0.7720372080802917,0.6057968139648438,-0.1922724545001984,0,0,0,-1,-1,30655.205061625,unknown,2,2025-04-22T12:34:04.997+03:00,2025-04-21T17:08:51.449+03:00,7321,0.979675,0,0,6105.011,5,20,2025-04-22T12:34:07.576+03:00,767007294.1014569,0,-21.43999,100.4609,1,0.8,2025-04-22T12:34:13.658+03:00,85,1.416666666666667,2025-04-22T09:54:17.825+03:00,0.02225348692287972,0
2025-04-22T12:34:54.699+03:00,1745314493.241297,40.95228637145338,29.14029869593124,76.51794,-1,-1,-1,-1,30,26.39571644227393,-9999,30684.90904679167,-0.7039794921875,0.699981689453125,-0.494659423828125,30684.89897079167,-0.8093835430560544,-1.331603915223493,-0.6559586859938715,-0.1193585246801376,-0.3760310709476471,0.513848602771759,0.06309938430786133,-0.06525683403015137,-0.2391156852245331,XArbitraryZVertical,-0.463109879266855,-0.4377839060051898,-0.1102323523961655,0.762707921433301,-0.7699018716812134,0.6099192500114441,-0.187748983502388,0,0,0,-1,-1,30655.205061625,unknown,2,2025-04-22T12:34:04.997+03:00,2025-04-21T17:08:51.449+03:00,7321,0.979675,0,0,6105.011,5,20,2025-04-22T12:34:07.576+03:00,767007294.1014569,0,-21.43999,100.4609,1,0.8,2025-04-22T12:34:13.658+03:00,85,1.416666666666667,2025-04-22T09:54:17.825+03:00,0.02225348692287972,0
2025-04-22T12:34:54.709+03:00,1745314493.241297,40.95228637145338,29.14029869593124,76.51794,-1,-1,-1,-1,30,26.39571644227393,-9999,30684.91912279167,-0.72967529296875,0.7313232421875,-0.5073089599609375,30684.90904679167,-0.8066713060666459,-1.334393872606675,-0.661097197063353,0.2664777338504791,-0.5050547122955322,0.5742705464363098,0.05091959238052368,0.008407413959503174,-0.2755091190338135,XArbitraryZVertical,-0.4642225188172392,-0.4382528517066699,-0.1069127737119046,0.7622345827143565,-0.767365574836731,0.6139832735061646,-0.1848637759685516,0,0,0,-1,-1,30655.205061625,unknown,2,2025-04-22T12:34:04.997+03:00,2025-04-21T17:08:51.449+03:00,7321,0.979675,0,0,6105.011,5,20,2025-04-22T12:34:07.576+03:00,767007294.1014569,0,-21.43999,100.4609,1,0.8,2025-04-22T12:34:13.658+03:00,85,1.416666666666667,2025-04-22T09:54:17.825+03:00,0.02225348692287972,0
2025-04-22T12:34:54.720+03:00,1745314493.241297,40.95228637145338,29.14029869593124,76.51794,-1,-1,-1,-1,30,26.39571644227393,-9999,30684.92919979167,-0.8116912841796875,0.714202880859375,-0.5376434326171875,30684.91912279167,-0.8000671337427917,-1.335883875524487,-0.666121374273062,0.4853533506393433,-0.5941534042358398,0.6230948567390442,0.06216156482696533,0.09211122989654541,-0.313643217086792,XArbitraryZVertical,-0.4643705325129761,-0.4391583573285051,-0.1024453338446681,0.7622368047716723,-0.7646304965019226,0.6179412007331848,-0.1829998940229416,0,0,0,-1,-1,30655.205061625,unknown,2,2025-04-22T12:34:04.997+03:00,2025-04-21T17:08:51.449+03:00,7321,0.979675,0,0,6105.011,5,20,2025-04-22T12:34:07.576+03:00,767007294.1014569,0,-21.43999,100.4609,1,0.8,2025-04-22T12:34:13.658+03:00,85,1.416666666666667,2025-04-22T09:54:17.825+03:00,0.02225348692287972,0
2025-04-22T12:34:54.729+03:00,1745314493.241297,40.95228637145338,29.14029869593124,76.51794,-1,-1,-1,-1,30,26.39571644227393,-9999,30684.93927579167,-0.8776397705078125,0.7189178466796875,-0.5860748291015625,30684.92919979167,-0.7914845973819448,-1.336774274834214,-0.6711150302178102,0.5907204747200012,-0.6092836856842041,0.6562157273292542,0.02310383319854736,0.106732189655304,-0.3281645178794861,XArbitraryZVertical,-0.4640381497624154,-0.4403044790658917,-0.09737094126894164,0.7624430331538433,-0.7617818117141724,0.621859610080719,-0.1816011220216751,0,0,0,-1,-1,30655.205061625,unknown,2,2025-04-22T12:34:04.997+03:00,2025-04-21T17:08:51.449+03:00,7321,0.979675,0,0,6105.011,5,20,2025-04-22T12:34:07.576+03:00,767007294.1014569,0,-21.43999,100.4609,1,0.8,2025-04-22T12:34:13.658+03:00,85,1.416666666666667,2025-04-22T09:54:17.825+03:00,0.02225348692287972,0
2025-04-22T12:34:54.739+03:00,1745314493.241297,40.95228637145338,29.14029869593124,76.51794,-1,-1,-1,-1,30,26.39571644227393,-9999,30684.94935179167,-0.865447998046875,0.7080841064453125,-0.6131591796875,30684.93927579167,-0.7823139693829041,-1.337377638695732,-0.6763357585963823,0.5248098969459534,-0.6552530527114868,0.6705877780914307,-0.06346690654754639,0.08843100070953369,-0.3614210486412048,XArbitraryZVertical,-0.4636257606666703,-0.4414262411815706,-0.09206441019703113,0.7627044785161017,-0.7587224245071411,0.6259396076202393,-0.1803880482912064,0,0,0,-1,-1,30655.205061625,unknown,2,2025-04-22T12:34:04.997+03:00,2025-04-21T17:08:51.449+03:00,7321,0.979675,0,0,6105.011,5,20,2025-04-22T12:34:07.576+03:00,767007294.1014569,0,-21.43999,100.4609,1,0.8,2025-04-22T12:34:13.658+03:00,85,1.416666666666667,2025-04-22T09:54:17.825+03:00,0.02225348692287972,0
2025-04-22T12:34:54.749+03:00,1745314493.241297,40.95228637145338,29.14029869593124,76.51794,-1,-1,-1,-1,30,26.39571644227393,-9999,30684.95942779167,-0.81011962890625,0.7103424072265625,-0.577911376953125,30684.94935179167,-0.7751679746031631,-1.339960781945869,-0.6819344635669261,0.2581642866134644,-0.7587044239044189,0.6730422377586365,-0.1248680353164673,0.08782827854156494,-0.4150741696357727,XArbitraryZVertical,-0.4638572095706757,-0.4427470911380741,-0.08694815981261912,0.762398543924094,-0.75576251745224,0.6302960515022278,-0.1776230037212372,0,0,0,-1,-1,30655.205061625,unknown,2,2025-04-22T12:34:04.997+03:00,2025-04-21T17:08:51.449+03:00,7321,0.979675,0,0,6105.011,5,20,2025-04-22T12:34:07.576+03:00,767007294.1014569,0,-21.43999,100.4609,1,0.8,2025-04-22T12:34:13.658+03:00,85,1.416666666666667,2025-04-22T09:54:17.825+03:00,0.02225348692287972,0
2025-04-22T12:34:54.759+03:00,1745314493.241297,40.95228637145338,29.14029869593124,76.51794,-1,-1,-1,-1,30,26.39571644227393,-9999,30684.96950379167,-0.7786407470703125,0.729522705078125,-0.5350341796875,30684.95942779167,-0.7732457160397369,-1.346760260496304,-0.6884766860005389,-0.2532659769058228,-0.8363779187202454,0.658052921295166,-0.1052992939949036,0.07136428356170654,-0.4389743208885193,XArbitraryZVertical,-0.4656942354241787,-0.4442394907688512,-0.0825357736514146,0.7608993632440652,-0.7529159784317017,0.6353616118431091,-0.1715603023767471,0,0,0,-1,-1,30655.205061625,unknown,2,2025-04-22T12:34:04.997+03:00,2025-04-21T17:08:51.449+03:00,7321,0.979675,0,0,6105.011,5,20,2025-04-22T12:34:07.576+03:00,767007294.1014569,0,-21.43999,100.4609,1,0.8,2025-04-22T12:34:13.658+03:00,85,1.416666666666667,2025-04-22T09:54:17.825+03:00,0.02225348692287972,0
2025-04-22T12:34:54.770+03:00,1745314493.241297,40.95228637145338,29.14029869593124,76.51794,-1,-1,-1,-1,30,26.39571644227393,-9999,30684.97958079167,-0.765960693359375,0.7572021484375,-0.50048828125,30684.96950379167,-0.7767524811443982,-1.357959541347454,-0.695820019139744,-0.5611916184425354,-0.9374459385871887,0.6441261768341064,-0.05394405126571655,0.07193648815155029,-0.4105194211006165,XArbitraryZVertical,-0.4691263240423372,-0.4459334639396792,-0.07888183119193089,0.7581829273720379,-0.7502093911170959,0.6410150527954102,-0.162127673625946,0,0,0,-1,-1,30655.205061625,unknown,2,2025-04-22T12:34:04.997+03:00,2025-04-21T17:08:51.449+03:00,7321,0.979675,0,0,6105.011,5,20,2025-04-22T12:34:07.576+03:00,767007294.1014569,0,-21.43999,100.4609,1,0.8,2025-04-22T12:34:13.658+03:00,85,1.416666666666667,2025-04-22T09:54:17.825+03:00,0.02225348692287972,0
2025-04-22T12:34:54.780+03:00,1745314493.241297,40.95228637145338,29.14029869593124,76.51794,-1,-1,-1,-1,30,26.39571644227393,-9999,30684.98965679167,-0.777374267578125,0.85162353515625,-0.4432525634765625,30684.97958079167,-0.7824521724938435,-1.371361456119473,-0.7031720822031237,-0.5442355275154114,-0.9829484820365906,0.6082728505134583,-0.02922606468200684,0.08449941873550415,-0.3799912333488464,XArbitraryZVertical,-0.4730945809512374,-0.4479071441140888,-0.07549505442816071,0.7548914758019326,-0.7476751804351807,0.6466405987739563,-0.1511214226484299,0,0,0,-1,-1,30655.205061625,unknown,2,2025-04-22T12:34:04.997+03:00,2025-04-21T17:08:51.449+03:00,7321,0.979675,0,0,6105.011,5,20,2025-04-22T12:34:07.576+03:00,767007294.1014569,0,-21.43999,100.4609,1,0.8,2025-04-22T12:34:13.658+03:00,85,1.416666666666667,2025-04-22T09:54:17.825+03:00,0.02225348692287972,0
2025-04-22T12:34:54.790+03:00,1745314493.241297,40.95228637145338,29.14029869593124,76.51794,-1,-1,-1,-1,30,26.39571644227393,-9999,30684.99973279167,-0.8174896240234375,0.890777587890625,-0.348388671875,30684.98965679167,-0.7864314330919998,-1.383998922482935,-0.7097457777107283,-0.2625274658203125,-1.013126373291016,0.5567618012428284,-0.02027761936187744,0.1148993968963623,-0.3535621762275696,XArbitraryZVertical,-0.4763772149589405,-0.4501450440755289,-0.0718472888762681,0.7518457401088129,-0.7453320622444153,0.6516409516334534,-0.1408683806657791,0,0,0,-1,-1,30655.205061625,unknown,2,2025-04-22T12:34:04.997+03:00,2025-04-21T17:08:51.449+03:00,7321,0.979675,0,0,6105.011,5,20,2025-04-22T12:34:07.576+03:00,767007294.1014569,0,-21.43999,100.4609,1,0.8,2025-04-22T12:34:13.658+03:00,85,1.416666666666667,2025-04-22T09:54:17.825+03:00,0.02225348692287972,0
2025-04-22T12:34:54.800+03:00,1745314493.241297,40.95228637145338,29.14029869593124,76.51794,-1,-1,-1,-1,30,26.39571644227393,-9999,30685.00980879167,-0.87109375,0.8595123291015625,-0.26910400390625,30684.99973279167,-0.7857171128517758,-1.393694905867027,-0.7150819962638691,0.1853222101926804,-0.997313916683197,0.5056195259094238,-0.03802061080932617,0.2068082690238953,-0.3004510998725891,XArbitraryZVertical,-0.4781007937360182,-0.4526691136800023,-0.06751341471056217,0.7496346104275653,-0.7432293295860291,0.6556793451309204,-0.1330206096172333,0,0,0,-1,-1,30655.205061625,unknown,2,2025-04-22T12:34:04.997+03:00,2025-04-21T17:08:51.449+03:00,7321,0.979675,0,0,6105.011,5,20,2025-04-22T12:34:07.576+03:00,767007294.1014569,0,-21.43999,100.4609,1,0.8,2025-04-22T12:34:13.658+03:00,85,1.416666666666667,2025-04-22T09:54:17.825+03:00,0.02225348692287972,0
2025-04-22T12:34:54.810+03:00,1745314493.241297,40.95228637145338,29.14029869593124,76.51794,-1,-1,-1,-1,30,26.39571644227393,-9999,30685.01988479167,-0.8928680419921875,0.8802337646484375,-0.2469482421875,30685.00980879167,-0.7791242757628069,-1.399229983626239,-0.7191909867907085,0.6324505209922791,-0.9655750393867493,0.4691142737865448,-0.08239126205444336,0.2299107909202576,-0.206944465637207,XArbitraryZVertical,-0.477969459502068,-0.4553277165605245,-0.06236722630870725,0.7485533591622061,-0.7412934303283691,0.6587762236595154,-0.1284437328577042,0,0,0,-1,-1,30655.205061625,unknown,2,2025-04-22T12:34:04.997+03:00,2025-04-21T17:08:51.449+03:00,7321,0.979675,0,0,6105.011,5,20,2025-04-22T12:34:07.576+03:00,767007294.1014569,0,-21.43999,100.4609,1,0.8,2025-04-22T12:34:13.658+03:00,85,1.416666666666667,2025-04-22T09:54:17.825+03:00,0.02225348692287972,0
2025-04-22T12:34:54.820+03:00,1745314493.241297,40.95228637145338,29.14029869593124,76.51794,-1,-1,-1,-1,30,26.39571644227393,-9999,30685.02996179167,-0.87481689453125,0.9332733154296875,-0.22528076171875,30685.01988479167,-0.7674540812888555,-1.401317019587248,-0.7223427897340492,0.9584630131721497,-0.9737666249275208,0.4428890347480774,-0.1369094252586365,0.1957129240036011,-0.1379503458738327,XArbitraryZVertical,-0.4762758887726085,-0.4581359322323859,-0.05646162365953934,0.748388064062312,-0.7395095229148865,0.6611441969871521,-0.1265454888343811,0,0,0,-1,-1,30655.205061625,unknown,2,2025-04-22T12:34:04.997+03:00,2025-04-21T17:08:51.449+03:00,7321,0.979675,0,0,6105.011,5,20,2025-04-22T12:34:07.576+03:00,767007294.1014569,0,-21.43999,100.4609,1,0.8,2025-04-22T12:34:13.658+03:00,85,1.416666666666667,2025-04-22T09:54:17.825+03:00,0.02225348692287972,0
2025-04-22T12:34:54.830+03:00,1745314493.241297,40.95228637145338,29.14029869593124,76.51794,-1,-1,-1,-1,30,26.39571644227393,-9999,30685.04003779167,-0.8652496337890625,0.9068603515625,-0.196624755859375,30685.02996179167,-0.752683516070413,-1.40132304395237,-0.7247683341431767,1.104159474372864,-0.9723151326179504,0.3960889577865601,-0.1536130309104919,0.2243974804878235,-0.1193505525588989,XArbitraryZVertical,-0.4735842798771839,-0.461067059928097,-0.05013095338422247,0.7487468607176705,-0.7379274964332581,0.662962019443512,-0.1262701898813248,0,0,0,-1,-1,30655.205061625,unknown,2,2025-04-22T12:34:04.997+03:00,2025-04-21T17:08:51.449+03:00,7321,0.979675,0,0,6105.011,5,20,2025-04-22T12:34:07.576+03:00,767007294.1014569,0,-21.43999,100.4609,1,0.8,2025-04-22T12:34:13.658+03:00,85,1.416666666666667,2025-04-22T09:54:17.825+03:00,0.02225348692287972,0
2025-04-22T12:34:54.841+03:00,1745314493.241297,40.95228637145338,29.14029869593124,76.51794,-1,-1,-1,-1,30,26.39571644227393,-9999,30685.05011379167,-0.8565826416015625,0.805755615234375,-0.1671600341796875,30685.04003779167,-0.7369355880551022,-1.400545019667093,-0.7267483805037679,1.108430624008179,-0.9460513591766357,0.3855305910110474,-0.1357958912849426,0.2709052562713623,-0.09508858621120453,XArbitraryZVertical,-0.470500658803893,-0.4640240615976946,-0.04376342615765935,0.7492631971529328,-0.7365337610244751,0.6644430756568909,-0.1266216039657593,0,0,0,-1,-1,30655.205061625,unknown,2,2025-04-22T12:34:04.997+03:00,2025-04-21T17:08:51.449+03:00,7321,0.979675,0,0,6105.011,5,20,2025-04-22T12:34:07.576+03:00,767007294.1014569,0,-21.43999,100.4609,1,0.8,2025-04-22T12:34:13.658+03:00,85,1.416666666666667,2025-04-22T09:54:17.825+03:00,0.02225348692287972,0
2025-04-22T12:34:54.851+03:00,1745314493.241297,40.95228637145338,29.14029869593124,76.51794,-1,-1,-1,-1,30,26.39571644227393,-9999,30685.06018979167,-0.83685302734375,0.7226715087890625,-0.1253814697265625,30685.05011379167,-0.722213554736441,-1.400148088547085,-0.7287168164714078,0.9617487788200378,-0.9228374361991882,0.3673183917999268,-0.1300106644630432,0.2313036918640137,-0.06651519238948822,XArbitraryZVertical,-0.4676429833193374,-0.4668664072354293,-0.03769064168032198,0.7496165928607095,-0.735193133354187,0.6659128665924072,-0.1266915947198868,0,0,0,-1,-1,30655.205061625,unknown,2,2025-04-22T12:34:04.997+03:00,2025-04-21T17:08:51.449+03:00,7321,0.979675,0,0,6105.011,5,20,2025-04-22T12:34:07.576+03:00,767007294.1014569,0,-21.43999,100.4609,1,0.8,2025-04-22T12:34:13.658+03:00,85,1.416666666666667,2025-04-22T09:54:17.825+03:00,0.02225348692287972,0
2025-04-22T12:34:54.860+03:00,1745314493.241297,40.95228637145338,29.14029869593124,76.51794,-1,-1,-1,-1,30,26.39571644227393,-9999,30685.07026579167,-0.8172607421875,0.6663665771484375,-0.0677337646484375,30685.06018979167,-0.7099238454047144,-1.40116870017084,-0.7307549272135643,0.7550501823425293,-0.9151145219802856,0.3409949243068695,-0.1197920441627502,0.1250788569450378,-0.03687059879302979,XArbitraryZVertical,-0.4653830443002829,-0.4696410405554129,-0.0321744763726317,0.7495469753639129,-0.7339829802513123,0.6674320101737976,-0.1257118284702301,0,0,0,-1,-1,30655.205061625,unknown,2,2025-04-22T12:34:04.997+03:00,2025-04-21T17:08:51.449+03:00,7321,0.979675,0,0,6105.011,5,20,2025-04-22T12:34:07.576+03:00,767007294.1014569,0,-21.43999,100.4609,1,0.8,2025-04-22T12:34:13.658+03:00,85,1.416666666666667,2025-04-22T09:54:17.825+03:00,0.02225348692287972,0
2025-04-22T12:34:54.870+03:00,1745314493.241297,40.95228637145338,29.14029869593124,76.51794,-1,-1,-1,-1,30,26.39571644227393,-9999,30685.08034279167,-0.805755615234375,0.63494873046875,-0.001708984375,30685.07026579167,-0.7001846620725403,-1.403703048247876,-0.7331076486999248,0.5912569761276245,-0.876828670501709,0.3667162656784058,-0.1016628742218018,0.04491376876831055,0.004586458206176758,XArbitraryZVertical,-0.4638210801444038,-0.4723082969839449,-0.02716084611273717,0.7490374705795276,-0.7327487468719482,0.6691821217536926,-0.1235897541046143,0,0,0,-1,-1,30655.205061625,unknown,2,2025-04-22T12:34:04.997+03:00,2025-04-21T17:08:51.449+03:00,7321,0.979675,0,0,6105.011,5,20,2025-04-22T12:34:07.576+03:00,767007294.1014569,0,-21.43999,100.4609,1,0.8,2025-04-22T12:34:13.658+03:00,85,1.416666666666667,2025-04-22T09:54:17.825+03:00,0.02225348692287972,0
2025-04-22T12:34:54.880+03:00,1745314493.241297,40.95228637145338,29.14029869593124,76.51794,-1,-1,-1,-1,30,26.39571644227393,-9999,30685.09041879167,-0.78631591796875,0.62396240234375,0.0728912353515625,30685.08034279167,-0.6921353516305578,-1.406895136126429,-0.7359634937731766,0.5002046227455139,-0.8231558203697205,0.3883824050426483,-0.08443796634674072,-0.01120650768280029,0.06145906448364258,XArbitraryZVertical,-0.4627979849129413,-0.4747095108946462,-0.02246516939078865,0.7483075502768278,-0.7312511205673218,0.6713016033172607,-0.1209378093481064,0,0,0,-1,-1,30655.205061625,unknown,2,2025-04-22T12:34:04.997+03:00,2025-04-21T17:08:51.449+03:00,7321,0.979675,0,0,6105.011,5,20,2025-04-22T12:34:07.576+03:00,767007294.1014569,0,-21.43999,100.4609,1,0.8,2025-04-22T12:34:13.658+03:00,85,1.416666666666667,2025-04-22T09:54:17.825+03:00,0.02225348692287972,0
2025-04-22T12:34:54.891+03:00,1745314493.241297,40.95228637145338,29.14029869593124,76.51794,-1,-1,-1,-1,30,26.39571644227393,-9999,30685.10049479167,-0.7492828369140625,0.592437744140625,0.1591796875,30685.09041879167,-0.6845282023130376,-1.409611641686043,-0.739256707991689,0.5003966093063354,-0.7337913513183594,0.4387442469596863,-0.07532709836959839,-0.04062128067016602,0.1250346899032593,XArbitraryZVertical,-0.4619882733993061,-0.4767274843985195,-0.01790349749753503,0.7476477716622537,-0.7293909192085266,0.6737388372421265,-0.1185954809188843,0,0,0,-1,-1,30655.205061625,unknown,2,2025-04-22T12:34:04.997+03:00,2025-04-21T17:08:51.449+03:00,7321,0.979675,0,0,6105.011,5,20,2025-04-22T12:34:07.576+03:00,767007294.1014569,0,-21.43999,100.4609,1,0.8,2025-04-22T12:34:13.658+03:00,85,1.416666666666667,2025-04-22T09:54:17.825+03:00,0.02225348692287972,0
2025-04-22T12:34:54.901+03:00,1745314493.241297,40.95228637145338,29.14029869593124,76.51794,-1,-1,-1,-1,30,26.39571644227393,-9999,30685.11057079167,-0.7089080810546875,0.5848846435546875,0.2454376220703125,30685.10049479167,-0.6769698857123269,-1.411435896814737,-0.7430447036846736,0.4794678688049316,-0.6375577449798584,0.4817074239253998,-0.05532878637313843,-0.05586689710617065,0.2004312425851822,XArbitraryZVertical,-0.461316730470216,-0.4782859573760544,-0.0134046851639756,0.7471610073093724,-0.7270808219909668,0.6765332221984863,-0.1168588325381279,0,0,0,-1,-1,30655.205061625,unknown,2,2025-04-22T12:34:04.997+03:00,2025-04-21T17:08:51.449+03:00,7321,0.979675,0,0,6105.011,5,20,2025-04-22T12:34:07.576+03:00,767007294.1014569,0,-21.43999,100.4609,1,0.8,2025-04-22T12:34:13.658+03:00,85,1.416666666666667,2025-04-22T09:54:17.825+03:00,0.02225348692287972,0
2025-04-22T12:34:54.911+03:00,1745314493.241297,40.95228637145338,29.14029869593124,76.51794,-1,-1,-1,-1,30,26.39571644227393,-9999,30685.12064679167,-0.6705780029296875,0.5955963134765625,0.3133087158203125,30685.11057079167,-0.6692736533942831,-1.412182915385638,-0.7472210614540824,0.4989612996578217,-0.5420504808425903,0.5131621360778809,-0.01909744739532471,-0.09009486436843872,0.2859123349189758,XArbitraryZVertical,-0.4607125151883545,-0.4793847960242338,-0.008975907249290276,0.7468959671234209,-0.7243717908859253,0.6796028017997742,-0.1158683896064758,0,0,0,-1,-1,30655.205061625,unknown,2,2025-04-22T12:34:04.997+03:00,2025-04-21T17:08:51.449+03:00,7321,0.979675,0,0,6105.011,5,20,2025-04-22T12:34:07.576+03:00,767007294.1014569,0,-21.43999,100.4609,1,0.8,2025-04-22T12:34:13.658+03:00,85,1.416666666666667,2025-04-22T09:54:17.825+03:00,0.02225348692287972,0
2025-04-22T12:34:54.921+03:00,1745314493.241297,40.95228637145338,29.14029869593124,76.51794,-1,-1,-1,-1,30,26.39571644227393,-9999,30685.13072379167,-0.6456298828125,0.614898681640625,0.3814544677734375,30685.12064679167,-0.661278243583295,-1.411602397101853,-0.7516658500391853,0.5091449618339539,-0.4244535863399506,0.5365377068519592,0.01704537868499756,-0.09669035673141479,0.371027410030365,XArbitraryZVertical,-0.4601081453315689,-0.4799958773576789,-0.004653331125335882,0.7469155502720798,-0.7213148474693298,0.6828566789627075,-0.11580890417099,0,0,0,-1,-1,30655.205061625,unknown,2,2025-04-22T12:34:04.997+03:00,2025-04-21T17:08:51.449+03:00,7321,0.979675,0,0,6105.011,5,20,2025-04-22T12:34:07.576+03:00,767007294.1014569,0,-21.43999,100.4609,1,0.8,2025-04-22T12:34:13.658+03:00,85,1.416666666666667,2025-04-22T09:54:17.825+03:00,0.02225348692287972,0
2025-04-22T12:34:54.931+03:00,1745314493.241297,40.95228637145338,29.14029869593124,76.51794,-1,-1,-1,-1,30,26.39571644227393,-9999,30685.14079979167,-0.623687744140625,0.6540679931640625,0.4979095458984375,30685.13072379167,-0.6530168208517839,-1.409593312402048,-0.7562390755979609,0.536341667175293,-0.2952964007854462,0.5477612018585205,0.05083072185516357,-0.08877849578857422,0.4371441602706909,XArbitraryZVertical,-0.459478734123556,-0.4801058210901865,-0.0005178999347197645,0.7472465735725525,-0.7179908156394958,0.6861905455589294,-0.1167553886771202,0,0,0,-1,-1,30655.205061625,unknown,2,2025-04-22T12:34:04.997+03:00,2025-04-21T17:08:51.449+03:00,7321,0.979675,0,0,6105.011,5,20,2025-04-22T12:34:07.576+03:00,767007294.1014569,0,-21.43999,100.4609,1,0.8,2025-04-22T12:34:13.658+03:00,85,1.416666666666667,2025-04-22T09:54:17.825+03:00,0.02225348692287972,0
2025-04-22T12:34:54.951+03:00,1745314493.241297,40.95228637145338,29.14029869593124,76.51794,-1,-1,-1,-1,30,26.39571644227393,-9999,30685.15087579167,-0.6104736328125,0.6940765380859375,0.6325225830078125,30685.14079979167,-0.6431908110506214,-1.405156975696434,-0.7607239942811943,0.7437912821769714,-0.1612113118171692,0.5565570592880249,0.07228738069534302,-0.07018345594406128,0.5130465626716614,XArbitraryZVertical,-0.4584590697800664,-0.4796872681208357,0.003616743755750934,0.7481324669853333,-0.7144230008125305,0.6894460320472717,-0.119430810213089,0,0,0,-1,-1,30655.205061625,unknown,2,2025-04-22T12:34:04.997+03:00,2025-04-21T17:08:51.449+03:00,7321,0.979675,0,0,6105.011,5,20,2025-04-22T12:34:07.576+03:00,767007294.1014569,0,-21.43999,100.4609,1,0.8,2025-04-22T12:34:13.658+03:00,85,1.416666666666667,2025-04-22T09:54:17.825+03:00,0.02225348692287972,0
2025-04-22T12:34:54.954+03:00,1745314493.241297,40.95228637145338,29.14029869593124,76.51794,-1,-1,-1,-1,30,26.39571644227393,-9999,30685.16095179167,-0.6132965087890625,0.7306976318359375,0.8400115966796875,30685.15087579167,-0.6285714618684722,-1.395639034893375,-0.7644671819932231,1.238215327262878,0.05364366993308067,0.5191555023193359,0.08955293893814087,-0.03225582838058472,0.6404381990432739,XArbitraryZVertical,-0.4561061323870494,-0.4786229505601924,0.008146573578013173,0.7502138340264661,-0.7107077240943909,0.6921525597572327,-0.1257745325565338,0,0,0,-1,-1,30655.205061625,unknown,2,2025-04-22T12:34:04.997+03:00,2025-04-21T17:08:51.449+03:00,7321,0.979675,0,0,6105.011,5,20,2025-04-22T12:34:07.576+03:00,767007294.1014569,0,-21.43999,100.4609,1,0.8,2025-04-22T12:34:13.658+03:00,85,1.416666666666667,2025-04-22T09:54:17.825+03:00,0.02225348692287972,0
2025-04-22T12:34:54.961+03:00,1745314493.241297,40.95228637145338,29.14029869593124,76.51794,-1,-1,-1,-1,30,26.39571644227393,-9999,30685.17102779167,-0.6192169189453125,0.833099365234375,1.187606811523438,30685.16095179167,-0.6058562369847522,-1.378266440888272,-0.7661731050627744,1.898072242736816,0.2730687260627747,0.395303875207901,0.09716349840164185,0.004920363426208496,0.7895632982254028,XArbitraryZVertical,-0.4512910331159518,-0.4768632597879109,0.0133050469390848,0.7541623399084254,-0.7072557210922241,0.6933827996253967,-0.1378756761550903,0,0,0,-1,-1,30655.205061625,unknown,2,2025-04-22T12:34:04.997+03:00,2025-04-21T17:08:51.449+03:00,7321,0.979675,0,0,6105.011,5,20,2025-04-22T12:34:07.576+03:00,767007294.1014569,0,-21.43999,100.4609,1,0.8,2025-04-22T12:34:13.658+03:00,85,1.416666666666667,2025-04-22T09:54:17.825+03:00,0.02225348692287972,0
2025-04-22T12:34:54.972+03:00,1745314493.241297,40.95228637145338,29.14029869593124,76.51794,-1,-1,-1,-1,30,26.39571644227393,-9999,30685.18110479167,-0.6368408203125,0.939666748046875,1.594497680664062,30685.17102779167,-0.5737211460299427,-1.351882062964228,-0.7644454755814288,2.704320669174194,0.5502333045005798,0.2026761621236801,0.09051144123077393,0.04692244529724121,1.032218933105469,XArbitraryZVertical,-0.4433253576118339,-0.474436164178993,0.01901461479324605,0.7602705491453815,-0.7045403718948364,0.6921368837356567,-0.1567459106445312,0,0,0,-1,-1,30655.205061625,unknown,2,2025-04-22T12:34:04.997+03:00,2025-04-21T17:08:51.449+03:00,7321,0.979675,0,0,6105.011,5,20,2025-04-22T12:34:07.576+03:00,767007294.1014569,0,-21.43999,100.4609,1,0.8,2025-04-22T12:34:13.658+03:00,85,1.416666666666667,2025-04-22T09:54:17.825+03:00,0.02225348692287972,0
2025-04-22T12:34:54.981+03:00,1745314493.241297,40.95228637145338,29.14029869593124,76.51794,-1,-1,-1,-1,30,26.39571644227393,-9999,30685.19118079167,-0.6685333251953125,0.9933929443359375,1.968582153320312,30685.18110479167,-0.5305063349414952,-1.314953554171019,-0.7582862675638243,3.613175392150879,0.8744625449180603,0.08306560665369034,0.08283132314682007,0.1615341901779175,1.421107053756714,XArbitraryZVertical,-0.4315511626414412,-0.4710632208423358,0.02551270115940888,0.7689031176208463,-0.7023838758468628,0.6876782774925232,-0.1837260723114014,0,0,0,-1,-1,30655.205061625,unknown,2,2025-04-22T12:34:04.997+03:00,2025-04-21T17:08:51.449+03:00,7321,0.979675,0,0,6105.011,5,20,2025-04-22T12:34:07.576+03:00,767007294.1014569,0,-21.43999,100.4609,1,0.8,2025-04-22T12:34:13.658+03:00,85,1.416666666666667,2025-04-22T09:54:17.825+03:00,0.02225348692287972,0
2025-04-22T12:34:54.991+03:00,1745314493.241297,40.95228637145338,29.14029869593124,76.51794,-1,-1,-1,-1,30,26.39571644227393,-9999,30685.20125679167,-0.6789093017578125,0.9208984375,2.021774291992188,30685.19118079167,-0.476120603180324,-1.266311649624823,-0.747516769100937,4.558441638946533,1.445398926734924,0.03754173591732979,0.05882155895233154,0.2684376239776611,1.865787982940674,XArbitraryZVertical,-0.4159414910804293,-0.46589542652703,0.03296051602726333,0.7802869086359383,-0.699644923210144,0.6798197031021118,-0.2198682576417923,0,0,0,-1,-1,30655.205061625,unknown,2,2025-04-22T12:34:04.997+03:00,2025-04-21T17:08:51.449+03:00,7321,0.979675,0,0,6105.011,5,20,2025-04-22T12:34:07.576+03:00,767007294.1014569,0,-21.43999,100.4609,1,0.8,2025-04-22T12:34:13.658+03:00,85,1.416666666666667,2025-04-22T09:54:17.825+03:00,0.02225348692287972,0
2025-04-22T12:34:55.001+03:00,1745314493.241297,40.95228637145338,29.14029869593124,76.51794,-1,-1,-1,-1,30,26.39571644227393,-9999,30685.21133279167,-0.6116943359375,0.5133209228515625,1.693939208984375,30685.20125679167,-0.4118725977500632,-1.204379896667155,-0.7303396315807418,5.397476673126221,2.275649070739746,-0.1804731637239456,0.0240483283996582,0.3289861679077148,2.268404722213745,XArbitraryZVertical,-0.3962653388652447,-0.457740983656715,0.04060589772786657,0.7948571984178009,-0.6954960227012634,0.6671226620674133,-0.2668939530849457,0,0,0,-1,-1,30655.205061625,unknown,2,2025-04-22T12:34:04.997+03:00,2025-04-21T17:08:51.449+03:00,7321,0.979675,0,0,6105.011,5,20,2025-04-22T12:34:07.576+03:00,767007294.1014569,0,-21.43999,100.4609,1,0.8,2025-04-22T12:34:13.658+03:00,85,1.416666666666667,2025-04-22T09:54:17.825+03:00,0.02225348692287972,0
2025-04-22T12:34:55.011+03:00,1745314493.241297,40.95228637145338,29.14029869593124,76.51794,-1,-1,-1,-1,30,26.39571644227393,-9999,30685.22140879167,-0.384857177734375,0.1705474853515625,1.386886596679688,30685.21133279167,-0.3462490325023911,-1.134409815177982,-0.7054785914494364,5.468040943145752,3.007409334182739,-0.5483689308166504,0.01406776905059814,0.2398157715797424,2.315719604492188,XArbitraryZVertical,-0.373869049864228,-0.4464676033895798,0.04649751845261171,0.8116197169147157,-0.6899558305740356,0.6483982801437378,-0.3217772245407104,0,0,0,-1,-1,30655.205061625,unknown,2,2025-04-22T12:34:04.997+03:00,2025-04-21T17:08:51.449+03:00,7321,0.979675,0,0,6105.011,5,20,2025-04-22T12:34:07.576+03:00,767007294.1014569,0,-21.43999,100.4609,1,0.8,2025-04-22T12:34:13.658+03:00,85,1.416666666666667,2025-04-22T09:54:17.825+03:00,0.02225348692287972,0
2025-04-22T12:34:55.022+03:00,1745314493.241297,40.95228637145338,29.14029869593124,76.51794,-1,-1,-1,-1,30,26.39571644227393,-9999,30685.23148579167,-0.05999755859375,0.2650146484375,1.181442260742188,30685.22140879167,-0.2898743415398251,-1.065802177374375,-0.6741836964253868,4.997852325439453,3.459462404251099,-1.102781176567078,0.08973950147628784,-0.1722183227539062,2.026849746704102,XArbitraryZVertical,-0.3511410360658546,-0.4332698492402218,0.04886579436962044,0.828606748051401,-0.6837030649185181,0.6242598295211792,-0.3779544234275818,0,0,0,-1,-1,30655.205061625,unknown,2,2025-04-22T12:34:04.997+03:00,2025-04-21T17:08:51.449+03:00,7321,0.979675,0,0,6105.011,5,20,2025-04-22T12:34:07.576+03:00,767007294.1014569,0,-21.43999,100.4609,1,0.8,2025-04-22T12:34:13.658+03:00,85,1.416666666666667,2025-04-22T09:54:17.825+03:00,0.02225348692287972,0
2025-04-22T12:34:55.032+03:00,1745314493.241297,40.95228637145338,29.14029869593124,76.51794,-1,-1,-1,-1,30,26.39571644227393,-9999,30685.24156179167,-0.0153045654296875,0.3941650390625,1.1258544921875,30685.23148579167,-0.2503182916210364,-1.004413941394498,-0.6386566894209982,3.84164023399353,3.943331003189087,-1.799245119094849,0.3340628743171692,-0.4343895316123962,1.787510395050049,XArbitraryZVertical,-0.33006515823035,-0.4191020528504539,0.04604404805454725,0.8445652549662215,-0.6775230169296265,0.5961174368858337,-0.4308209121227264,0,0,0,-1,-1,30655.205061625,unknown,2,2025-04-22T12:34:04.997+03:00,2025-04-21T17:08:51.449+03:00,7321,0.979675,0,0,6105.011,5,20,2025-04-22T12:34:07.576+03:00,767007294.1014569,0,-21.43999,100.4609,1,0.8,2025-04-22T12:34:13.658+03:00,85,1.416666666666667,2025-04-22T09:54:17.825+03:00,0.02225348692287972,0
2025-04-22T12:34:55.042+03:00,1745314493.241297,40.95228637145338,29.14029869593124,76.51794,-1,-1,-1,-1,30,26.39571644227393,-9999,30685.25163779167,-0.325531005859375,0.1603546142578125,1.332656860351562,30685.24156179167,-0.2353366433469485,-0.9522630975711162,-0.6053490811295198,1.764944314956665,4.710098266601562,-2.308974981307983,0.6390713453292847,-0.2783540487289429,1.639128088951111,XArbitraryZVertical,-0.3144512068120938,-0.403383091367383,0.03607950287043546,0.8585456615487647,-0.6699551343917847,0.5690491795539856,-0.4768050312995911,0,0,0,-1,-1,30655.205061625,unknown,2,2025-04-22T12:34:04.997+03:00,2025-04-21T17:08:51.449+03:00,7321,0.979675,0,0,6105.011,5,20,2025-04-22T12:34:07.576+03:00,767007294.1014569,0,-21.43999,100.4609,1,0.8,2025-04-22T12:34:13.658+03:00,85,1.416666666666667,2025-04-22T09:54:17.825+03:00,0.02225348692287972,0
2025-04-22T12:34:55.052+03:00,1745314493.241297,40.95228637145338,29.14029869593124,76.51794,-1,-1,-1,-1,30,26.39571644227393,-9999,30685.26171379167,-0.507598876953125,-0.239471435546875,1.581787109375,30685.25163779167,-0.2453630984151791,-0.9059969309128895,-0.5822922138901637,-0.26857790350914,5.582898616790771,-2.279933929443359,0.6152253150939941,-0.1619395017623901,1.652933835983276,XArbitraryZVertical,-0.3074629098827751,-0.3845091878563288,0.01928659652637028,0.8701994327748425,-0.6573395133018494,0.5499398708343506,-0.5152384638786316,0,0,0,-1,-1,30655.205061625,unknown,2,2025-04-22T12:34:04.997+03:00,2025-04-21T17:08:51.449+03:00,7321,0.979675,0,0,6105.011,5,20,2025-04-22T12:34:07.576+03:00,767007294.1014569,0,-21.43999,100.4609,1,0.8,2025-04-22T12:34:13.658+03:00,85,1.416666666666667,2025-04-22T09:54:17.825+03:00,0.02225348692287972,0
2025-04-22T12:34:55.062+03:00,1745314493.241297,40.95228637145338,29.14029869593124,76.51794,-1,-1,-1,-1,30,26.39571644227393,-9999,30685.27178979167,-0.4584503173828125,-0.4776458740234375,1.515106201171875,30685.26171379167,-0.2699295822490784,-0.8587060210549379,-0.5724157302519531,-1.487969756126404,6.440001487731934,-1.808093309402466,0.2719484567642212,-0.4323655962944031,1.918842554092407,XArbitraryZVertical,-0.30809222079561,-0.3611778541567204,-0.0009111537231418621,0.8801300687249675,-0.636328399181366,0.5416643023490906,-0.5492594838142395,0,0,0,-1,-1,30655.205061625,unknown,2,2025-04-22T12:34:04.997+03:00,2025-04-21T17:08:51.449+03:00,7321,0.979675,0,0,6105.011,5,20,2025-04-22T12:34:07.576+03:00,767007294.1014569,0,-21.43999,100.4609,1,0.8,2025-04-22T12:34:13.658+03:00,85,1.416666666666667,2025-04-22T09:54:17.825+03:00,0.02225348692287972,0
2025-04-22T12:34:55.072+03:00,1745314493.241297,40.95228637145338,29.14029869593124,76.51794,-1,-1,-1,-1,30,26.39571644227393,-9999,30685.28186679167,0.320343017578125,-0.5126953125,-2.469955444335938,30685.27178979167,-0.3097262055325178,-0.8238022310144187,-0.579689436334885,-7.249244213104248,1.824418306350708,-2.739782810211182,0.104237973690033,-0.8277630209922791,2.166201591491699,XArbitraryZVertical,-0.3179414738460049,-0.3386648835980949,-0.02239559649677934,0.8852782444724463,-0.6138662695884705,0.5477641224861145,-0.5684386491775513,0,0,0,-1,-1,30655.205061625,unknown,2,2025-04-22T12:34:04.997+03:00,2025-04-21T17:08:51.449+03:00,7321,0.979675,0,0,6105.011,5,20,2025-04-22T12:34:07.576+03:00,767007294.1014569,0,-21.43999,100.4609,1,0.8,2025-04-22T12:34:13.658+03:00,85,1.416666666666667,2025-04-22T09:54:17.825+03:00,0.02225348692287972,0
2025-04-22T12:34:55.082+03:00,1745314493.241297,40.95228637145338,29.14029869593124,76.51794,-1,-1,-1,-1,30,26.39571644227393,-9999,30685.29194279167,2.5411376953125,-0.57293701171875,-9.672927856445312,30685.28186679167,-0.3818880181214561,-0.8765105760280125,-0.5954329745029326,-1.157705545425415,-5.161822319030762,-0.9953216314315796,0.1946804523468018,-1.053848266601562,1.962128043174744,XArbitraryZVertical,-0.3377827696724359,-0.347908865708256,-0.04207135352299356,0.873551459525357,-0.6362545490264893,0.5608672499656677,-0.5297244191169739,0,0,0,-1,-1,30655.205061625,unknown,2,2025-04-22T12:34:04.997+03:00,2025-04-21T17:08:51.449+03:00,7321,0.979675,0,0,6105.011,5,20,2025-04-22T12:34:07.576+03:00,767007294.1014569,0,-21.43999,100.4609,1,0.8,2025-04-22T12:34:13.658+03:00,85,1.416666666666667,2025-04-22T09:54:17.825+03:00,0.02225348692287972,0
2025-04-22T12:34:55.092+03:00,1745314493.241297,40.95228637145338,29.14029869593124,76.51794,-1,-1,-1,-1,30,26.39571644227393,-9999,30685.30201879167,0.1878509521484375,1.370086669921875,-6.154098510742188,30685.29194279167,-0.3858755355546331,-0.9368879251953899,-0.6037652981905401,-2.344830751419067,-3.40114426612854,0.2779333293437958,1.251023888587952,-1.094342231750488,-3.191342353820801,XArbitraryZVertical,-0.3430231060231596,-0.3722150850121937,-0.03160209547301548,0.8618539700053028,-0.6632705926895142,0.567746102809906,-0.4875821471214294,0,0,0,-1,-1,30655.205061625,unknown,2,2025-04-22T12:34:04.997+03:00,2025-04-21T17:08:51.449+03:00,7321,0.979675,0,0,6105.011,5,20,2025-04-22T12:34:07.576+03:00,767007294.1014569,0,-21.43999,100.4609,1,0.8,2025-04-22T12:34:13.658+03:00,85,1.416666666666667,2025-04-22T09:54:17.825+03:00,0.02225348692287972,0
2025-04-22T12:34:55.102+03:00,1745314493.241297,40.95228637145338,29.14029869593124,76.51794,-1,-1,-1,-1,30,26.39571644227393,-9999,30685.31209479167,-1.093414306640625,1.447097778320312,-2.42584228515625,30685.30201879167,-0.4177472073857225,-0.9861226703153978,-0.6195050137390566,-2.781434774398804,-2.592909097671509,-0.131610244512558,3.261598825454712,-1.059544682502747,-9.123714447021484,XArbitraryZVertical,-0.3561555248940225,-0.3853220163696539,-0.03282199551459365,0.8506484714588243,-0.6789266467094421,0.580632209777832,-0.4493603706359863,0,0,0,-1,-1,30655.205061625,unknown,2,2025-04-22T12:34:04.997+03:00,2025-04-21T17:08:51.449+03:00,7321,0.979675,0,0,6105.011,5,20,2025-04-22T12:34:07.576+03:00,767007294.1014569,0,-21.43999,100.4609,1,0.8,2025-04-22T12:34:13.658+03:00,85,1.416666666666667,2025-04-22T09:54:17.825+03:00,0.02225348692287972,0
2025-04-22T12:34:55.112+03:00,1745314493.241297,40.95228637145338,29.14029869593124,76.51794,-1,-1,-1,-1,30,26.39571644227393,-9999,30685.32217079167,-0.044281005859375,-0.5824432373046875,1.292068481445312,30685.31209479167,-0.4376395411465046,-1.023530409378779,-0.6291150244301607,-0.7365837097167969,-2.254076957702637,-0.1937402933835983,0.4078217744827271,1.064844965934753,-5.291014671325684,XArbitraryZVertical,-0.3644144114321706,-0.3960255558609198,-0.03207599428983497,0.842221452290723,-0.6904603242874146,0.5884294509887695,-0.420731782913208,0,0,0,-1,-1,30655.205061625,unknown,2,2025-04-22T12:34:04.997+03:00,2025-04-21T17:08:51.449+03:00,7321,0.979675,0,0,6105.011,5,20,2025-04-22T12:34:07.576+03:00,767007294.1014569,0,-21.43999,100.4609,1,0.8,2025-04-22T12:34:13.658+03:00,85,1.416666666666667,2025-04-22T09:54:17.825+03:00,0.02225348692287972,0
2025-04-22T12:34:55.122+03:00,1745314493.241297,40.95228637145338,29.14029869593124,76.51794,-1,-1,-1,-1,30,26.39571644227393,-9999,30685.33224779167,-1.44573974609375,0.701141357421875,1.27587890625,30685.32217079167,-0.4354829779959689,-1.036220816443444,-0.6272581860983981,0.9765761494636536,-0.5483711957931519,-0.1485288739204407,-0.182223379611969,0.5448324680328369,-1.457884669303894,XArbitraryZVertical,-0.3634592956961846,-0.4020589480914608,-0.02933844475216878,0.8398721134723071,-0.696682870388031,0.586927056312561,-0.4124918878078461,0,0,0,-1,-1,30655.205061625,unknown,2,2025-04-22T12:34:04.997+03:00,2025-04-21T17:08:51.449+03:00,7321,0.979675,0,0,6105.011,5,20,2025-04-22T12:34:07.576+03:00,767007294.1014569,0,-21.43999,100.4609,1,0.8,2025-04-22T12:34:13.658+03:00,85,1.416666666666667,2025-04-22T09:54:17.825+03:00,0.02225348692287972,0
