loggingTime(txt),locationTimestamp_since1970(s),locationLatitude(WGS84),locationLongitude(WGS84),locationAltitude(m),locationSpeed(m/s),locationSpeedAccuracy(m/s),locationCourse(°),locationCourseAccuracy(°),locationVerticalAccuracy(m),locationHorizontalAccuracy(m),locationFloor(Z),accelerometerTimestamp_sinceReboot(s),accelerometerAccelerationX(G),accelerometerAccelerationY(G),accelerometerAccelerationZ(G),motionTimestamp_sinceReboot(s),motionYaw(rad),motionRoll(rad),motionPitch(rad),motionRotationRateX(rad/s),motionRotationRateY(rad/s),motionRotationRateZ(rad/s),motionUserAccelerationX(G),motionUserAccelerationY(G),motionUserAccelerationZ(G),motionAttitudeReferenceFrame(txt),motionQuaternionX(R),motionQuaternionY(R),motionQuaternionZ(R),motionQuaternionW(R),motionGravityX(G),motionGravityY(G),motionGravityZ(G),motionMagneticFieldX(µT),motionMagneticFieldY(µT),motionMagneticFieldZ(µT),motionHeading(°),motionMagneticFieldCalibrationAccuracy(Z),activityTimestamp_sinceReboot(s),activity(txt),activityActivityConfidence(Z),activityActivityStartDate(txt),pedometerStartDate(txt),pedometerNumberofSteps(N),pedometerAverageActivePace(s/m),pedometerCurrentPace(s/m),pedometerCurrentCadence(steps/s),pedometerDistance(m),pedometerFloorAscended(N),pedometerFloorDescended(N),pedometerEndDate(txt),altimeterTimestamp_sinceReboot(s),altimeterReset(bool),altimeterRelativeAltitude(m),altimeterPressure(kPa),batteryState(N),batteryLevel(R),heartRateBPMTimestamp(txt),heartRateBPM(N),heartRateBPS(R),heartRateVariabilityTimestamp(txt),heartRateVariability(ms),label
2025-04-28T22:47:10.492+03:00,1745869628.543501,40.9855756091106,29.13738873439781,126.3238,-1,-1,-1,-1,30,19.49210119458397,-9999,1477.785792,-0.6527099609375,0.454498291015625,-0.5817413330078125,1477.775715,0.0435739014558038,-0.8288892999607224,-0.4891648964393955,0.1743732541799545,-0.07760690897703171,-0.0200189258903265,0.03055071830749512,0.034108966588974,-0.02650213241577148,XArbitraryZVertical,-0.2130866843715125,-0.3954332354654198,0.1168341256222182,0.8857632126015539,-0.6507288217544556,0.4698888957500458,-0.5964532494544983,0,0,0,-1,-1,1469.30867825,unknown,2,2025-04-28T22:47:01.989+03:00,2025-04-28T22:17:59.397+03:00,21,0.8668733,0,0,16.08946,0,0,2025-04-28T22:42:51.752+03:00,767562429.8278584,0,-0.9300001,100.8076,1,0.35,2025-04-28T22:45:54.443+03:00,76,1.266666666666667,2025-04-22T14:20:19.516+03:00,0.02197104130929222,0
2025-04-28T22:47:10.493+03:00,1745869628.543501,40.9855756091106,29.13738873439781,126.3238,-1,-1,-1,-1,30,19.49210119458397,-9999,1477.795869,-0.6823883056640625,0.4434967041015625,-0.570404052734375,1477.785792,0.0448466474555349,-0.828809630771623,-0.4879257027225362,0.150952085852623,-0.008963404223322868,-0.00291131273843348,0.002596259117126465,-0.009306728839874268,0.008397102355957031,XArbitraryZVertical,-0.2122881589168067,-0.3955814894523869,0.1171503943036927,0.885846868087965,-0.6511099934577942,0.4687946438789368,-0.5968980193138123,0,0,0,-1,-1,1469.30867825,unknown,2,2025-04-28T22:47:01.989+03:00,2025-04-28T22:17:59.397+03:00,21,0.8668733,0,0,16.08946,0,0,2025-04-28T22:42:51.752+03:00,767562429.8278584,0,-0.9300001,100.8076,1,0.35,2025-04-28T22:45:54.443+03:00,76,1.266666666666667,2025-04-22T14:20:19.516+03:00,0.02197104130929222,0
2025-04-28T22:47:10.494+03:00,1745869628.543501,40.9855756091106,29.13738873439781,126.3238,-1,-1,-1,-1,30,19.49210119458397,-9999,1477.805946,-0.672821044921875,0.419342041015625,-0.564788818359375,1477.795869,0.04563826097121716,-0.8287449325425968,-0.4868314119171182,0.08054044097661972,0.01291759312152863,0.01212193164974451,-0.02222633361816406,-0.01915827393531799,0.02567702531814575,XArbitraryZVertical,-0.2116482302922552,-0.3956788538666803,0.1172831565231645,0.8859390190042257,-0.6514491438865662,0.4678277671337128,-0.5972865223884583,0,0,0,-1,-1,1469.30867825,unknown,2,2025-04-28T22:47:01.989+03:00,2025-04-28T22:17:59.397+03:00,21,0.8668733,0,0,16.08946,0,0,2025-04-28T22:42:51.752+03:00,767562429.8278584,0,-0.9300001,100.8076,1,0.35,2025-04-28T22:45:54.443+03:00,76,1.266666666666667,2025-04-22T14:20:19.516+03:00,0.02197104130929222,0
2025-04-28T22:47:10.504+03:00,1745869628.543501,40.9855756091106,29.13738873439781,126.3238,-1,-1,-1,-1,30,19.49210119458397,-9999,1477.816023,-0.639251708984375,0.4301910400390625,-0.5690155029296875,1477.805946,0.04617594544633485,-0.8284583980231819,-0.4866025221842736,0.02289099246263504,-0.002450976986438036,0.01914788410067558,-0.03122973442077637,-0.04408720135688782,0.0317191481590271,XArbitraryZVertical,-0.2114567686970963,-0.3956175506979091,0.1174468994816034,0.8859904658834639,-0.6513568758964539,0.4676254689693451,-0.5975455641746521,0,0,0,-1,-1,1469.30867825,unknown,2,2025-04-28T22:47:01.989+03:00,2025-04-28T22:17:59.397+03:00,21,0.8668733,0,0,16.08946,0,0,2025-04-28T22:42:51.752+03:00,767562429.8278584,0,-0.9300001,100.8076,1,0.35,2025-04-28T22:45:54.443+03:00,76,1.266666666666667,2025-04-22T14:20:19.516+03:00,0.02197104130929222,0
2025-04-28T22:47:10.511+03:00,1745869628.543501,40.9855756091106,29.13738873439781,126.3238,-1,-1,-1,-1,30,19.49210119458397,-9999,1477.826099,-0.648193359375,0.454833984375,-0.583953857421875,1477.816023,0.04656287764856998,-0.8280349049261068,-0.487002971850912,-0.002807712415233254,0.00792043749243021,0.02685333974659443,0.00811302661895752,-0.04344931244850159,0.03157830238342285,XArbitraryZVertical,-0.2115834441079227,-0.3954555970443234,0.1176506884613418,0.8860054178130586,-0.6509657502174377,0.4679794013500214,-0.5976946353912354,0,0,0,-1,-1,1469.30867825,unknown,2,2025-04-28T22:47:01.989+03:00,2025-04-28T22:17:59.397+03:00,21,0.8668733,0,0,16.08946,0,0,2025-04-28T22:42:51.752+03:00,767562429.8278584,0,-0.9300001,100.8076,1,0.35,2025-04-28T22:45:54.443+03:00,76,1.266666666666667,2025-04-22T14:20:19.516+03:00,0.02197104130929222,0
2025-04-28T22:47:10.521+03:00,1745869628.543501,40.9855756091106,29.13738873439781,126.3238,-1,-1,-1,-1,30,19.49210119458397,-9999,1477.836176,-0.6496734619140625,0.4741058349609375,-0.5954132080078125,1477.826099,0.04679026790914265,-0.8277413340141375,-0.4872807007553219,-0.002241524402052164,0.01629581302404404,0.02880836650729179,0.006209135055541992,-0.01950955390930176,0.01727712154388428,XArbitraryZVertical,-0.2116794278267621,-0.3953390080171785,0.1177738256055551,0.8860181952761763,-0.6506944894790649,0.468224823474884,-0.5977977514266968,0,0,0,-1,-1,1469.30867825,unknown,2,2025-04-28T22:47:01.989+03:00,2025-04-28T22:17:59.397+03:00,21,0.8668733,0,0,16.08946,0,0,2025-04-28T22:42:51.752+03:00,767562429.8278584,0,-0.9300001,100.8076,1,0.35,2025-04-28T22:45:54.443+03:00,76,1.266666666666667,2025-04-22T14:20:19.516+03:00,0.02197104130929222,0
2025-04-28T22:47:10.531+03:00,1745869628.543501,40.9855756091106,29.13738873439781,126.3238,-1,-1,-1,-1,30,19.49210119458397,-9999,1477.846253,-0.63970947265625,0.4881439208984375,-0.6020965576171875,1477.836176,0.04706999478175693,-0.8274032004996256,-0.4874919429866107,0.01305960118770599,0.009599493816494942,0.02202299982309341,-0.00152742862701416,0.001254111528396606,0.00542151927947998,XArbitraryZVertical,-0.2117381260439469,-0.3952107682117156,0.1179026011026695,0.8860442875253344,-0.6504195332527161,0.4684114754199982,-0.59795081615448,0,0,0,-1,-1,1469.30867825,unknown,2,2025-04-28T22:47:01.989+03:00,2025-04-28T22:17:59.397+03:00,21,0.8668733,0,0,16.08946,0,0,2025-04-28T22:42:51.752+03:00,767562429.8278584,0,-0.9300001,100.8076,1,0.35,2025-04-28T22:45:54.443+03:00,76,1.266666666666667,2025-04-22T14:20:19.516+03:00,0.02197104130929222,0
2025-04-28T22:47:10.541+03:00,1745869628.543501,40.9855756091106,29.13738873439781,126.3238,-1,-1,-1,-1,30,19.49210119458397,-9999,1477.85633,-0.6436920166015625,0.4881134033203125,-0.6024627685546875,1477.846253,0.04750317938915179,-0.8269772588399505,-0.4876254065994193,0.03452467918395996,0.01227969862520695,0.01997316442430019,0.009371757507324219,0.01636448502540588,-0.002339482307434082,XArbitraryZVertical,-0.2117371096612348,-0.3950628621854586,0.1180751021794063,0.886087484760369,-0.6501187682151794,0.4685293734073639,-0.5981854796409607,0,0,0,-1,-1,1469.30867825,unknown,2,2025-04-28T22:47:01.989+03:00,2025-04-28T22:17:59.397+03:00,21,0.8668733,0,0,16.08946,0,0,2025-04-28T22:42:51.752+03:00,767562429.8278584,0,-0.9300001,100.8076,1,0.35,2025-04-28T22:45:54.443+03:00,76,1.266666666666667,2025-04-22T14:20:19.516+03:00,0.02197104130929222,0
2025-04-28T22:47:10.551+03:00,1745869628.543501,40.9855756091106,29.13738873439781,126.3238,-1,-1,-1,-1,30,19.49210119458397,-9999,1477.866407,-0.65081787109375,0.4794158935546875,-0.6025238037109375,1477.85633,0.04802902116514467,-0.8264998078641936,-0.4875416985626164,0.04684519395232201,0.01890451274812222,0.01594150438904762,0.008077383041381836,0.02138227224349976,-0.004413425922393799,XArbitraryZVertical,-0.2116241800129361,-0.3949101344496531,0.1182414478513687,0.8861604000262142,-0.6498619318008423,0.46845543384552,-0.5985223650932312,0,0,0,-1,-1,1469.30867825,unknown,2,2025-04-28T22:47:01.989+03:00,2025-04-28T22:17:59.397+03:00,21,0.8668733,0,0,16.08946,0,0,2025-04-28T22:42:51.752+03:00,767562429.8278584,0,-0.9300001,100.8076,1,0.35,2025-04-28T22:45:54.443+03:00,76,1.266666666666667,2025-04-22T14:20:19.516+03:00,0.02197104130929222,0
2025-04-28T22:47:10.562+03:00,1745869628.543501,40.9855756091106,29.13738873439781,126.3238,-1,-1,-1,-1,30,19.49210119458397,-9999,1477.876484,-0.653289794921875,0.4746551513671875,-0.6014251708984375,1477.866407,0.04858906990211938,-0.826050703078127,-0.4872806622056911,0.05624881386756897,0.02004194818437099,0.01425758749246597,-0.0004940032958984375,0.01335790753364563,-0.003413200378417969,XArbitraryZVertical,-0.2114239169978761,-0.3947802316243388,0.1183919919383892,0.8862458875739225,-0.6496829390525818,0.4682247936725616,-0.5988969802856445,0,0,0,-1,-1,1469.30867825,unknown,2,2025-04-28T22:47:01.989+03:00,2025-04-28T22:17:59.397+03:00,21,0.8668733,0,0,16.08946,0,0,2025-04-28T22:42:51.752+03:00,767562429.8278584,0,-0.9300001,100.8076,1,0.35,2025-04-28T22:45:54.443+03:00,76,1.266666666666667,2025-04-22T14:20:19.516+03:00,0.02197104130929222,0
2025-04-28T22:47:10.572+03:00,1745869628.543501,40.9855756091106,29.13738873439781,126.3238,-1,-1,-1,-1,30,19.49210119458397,-9999,1477.886561,-0.6536865234375,0.4676971435546875,-0.5985870361328125,1477.876484,0.04910419767162055,-0.8257113449829981,-0.4869093502644075,0.05992544442415237,0.02300804480910301,0.01362462062388659,-0.002247989177703857,0.007826656103134155,-0.003441095352172852,XArbitraryZVertical,-0.2111769237708361,-0.3946982022036671,0.1185131313446796,0.8863251166812616,-0.6496073603630066,0.4678966701030731,-0.5992352962493896,0,0,0,-1,-1,1469.30867825,unknown,2,2025-04-28T22:47:01.989+03:00,2025-04-28T22:17:59.397+03:00,21,0.8668733,0,0,16.08946,0,0,2025-04-28T22:42:51.752+03:00,767562429.8278584,0,-0.9300001,100.8076,1,0.35,2025-04-28T22:45:54.443+03:00,76,1.266666666666667,2025-04-22T14:20:19.516+03:00,0.02197104130929222,0
2025-04-28T22:47:10.582+03:00,1745869628.543501,40.9855756091106,29.13738873439781,126.3238,-1,-1,-1,-1,30,19.49210119458397,-9999,1477.896638,-0.6511993408203125,0.459442138671875,-0.595184326171875,1477.886561,0.04957960860213372,-0.8254481381830213,-0.4864488997217967,0.05224195867776871,0.02089216187596321,0.01873575896024704,-0.004963517189025879,0.00263369083404541,0.0002175569534301758,XArbitraryZVertical,-0.2108935400498003,-0.3946488944016815,0.1186076741224564,0.8864019730562566,-0.6496079564094543,0.4674896895885468,-0.59955233335495,0,0,0,-1,-1,1469.30867825,unknown,2,2025-04-28T22:47:01.989+03:00,2025-04-28T22:17:59.397+03:00,21,0.8668733,0,0,16.08946,0,0,2025-04-28T22:42:51.752+03:00,767562429.8278584,0,-0.9300001,100.8076,1,0.35,2025-04-28T22:45:54.443+03:00,76,1.266666666666667,2025-04-22T14:20:19.516+03:00,0.02197104130929222,0
2025-04-28T22:47:10.592+03:00,1745869628.543501,40.9855756091106,29.13738873439781,126.3238,-1,-1,-1,-1,30,19.49210119458397,-9999,1477.906715,-0.6470947265625,0.4543304443359375,-0.591949462890625,1477.896638,0.05000427023640088,-0.8252173334675184,-0.4860764601845412,0.0396488681435585,0.01274948101490736,0.01741080358624458,-0.003005683422088623,-0.00582614541053772,0.003750979900360107,XArbitraryZVertical,-0.2106574757658801,-0.3946052064160188,0.1187001264430877,0.8864651713859636,-0.6495974063873291,0.4671604037284851,-0.5998203158378601,0,0,0,-1,-1,1469.30867825,unknown,2,2025-04-28T22:47:01.989+03:00,2025-04-28T22:17:59.397+03:00,21,0.8668733,0,0,16.08946,0,0,2025-04-28T22:42:51.752+03:00,767562429.8278584,0,-0.9300001,100.8076,1,0.35,2025-04-28T22:45:54.443+03:00,76,1.266666666666667,2025-04-22T14:20:19.516+03:00,0.02197104130929222,0
2025-04-28T22:47:10.602+03:00,1745869628.543501,40.9855756091106,29.13738873439781,126.3238,-1,-1,-1,-1,30,19.49210119458397,-9999,1477.916791,-0.6481170654296875,0.4525299072265625,-0.5919189453125,1477.906715,0.05037088247024531,-0.8250564220552546,-0.485920919338762,0.02392796240746975,0.0084189148619771,0.02057943306863308,0.0009184479713439941,-0.01221933960914612,0.007246434688568115,XArbitraryZVertical,-0.2105253859592992,-0.3945782635221095,0.1188158637401679,0.8864929989820853,-0.6495542526245117,0.4670228660106659,-0.5999740958213806,0,0,0,-1,-1,1469.30867825,unknown,2,2025-04-28T22:47:01.989+03:00,2025-04-28T22:17:59.397+03:00,21,0.8668733,0,0,16.08946,0,0,2025-04-28T22:42:51.752+03:00,767562429.8278584,0,-0.9300001,100.8076,1,0.35,2025-04-28T22:45:54.443+03:00,76,1.266666666666667,2025-04-22T14:20:19.516+03:00,0.02197104130929222,0
2025-04-28T22:47:10.612+03:00,1745869628.543501,40.9855756091106,29.13738873439781,126.3238,-1,-1,-1,-1,30,19.49210119458397,-9999,1477.926868,-0.650177001953125,0.454620361328125,-0.596343994140625,1477.916791,0.05061426324139607,-0.8249806861270546,-0.4860019568352304,0.01408531796187162,0.005890376400202513,0.01974446512758732,0.001837074756622314,-0.01438146829605103,0.008292317390441895,XArbitraryZVertical,-0.2105179802972816,-0.3945672963699612,0.1189312873563267,0.8864842277514489,-0.6494809985160828,0.4670945405960083,-0.5999976396560669,0,0,0,-1,-1,1469.30867825,unknown,2,2025-04-28T22:47:01.989+03:00,2025-04-28T22:17:59.397+03:00,21,0.8668733,0,0,16.08946,0,0,2025-04-28T22:42:51.752+03:00,767562429.8278584,0,-0.9300001,100.8076,1,0.35,2025-04-28T22:45:54.443+03:00,76,1.266666666666667,2025-04-22T14:20:19.516+03:00,0.02197104130929222,0
2025-04-28T22:47:10.622+03:00,1745869628.543501,40.9855756091106,29.13738873439781,126.3238,-1,-1,-1,-1,30,19.49210119458397,-9999,1477.936945,-0.6475067138671875,0.4609222412109375,-0.5999298095703125,1477.926868,0.05095410823757298,-0.8246057613209318,-0.4866052089392414,0.01321206707507372,0.005507946480065584,0.01591936685144901,-0.0008990764617919922,-0.01398399472236633,0.004300773143768311,XArbitraryZVertical,-0.2107421328331676,-0.3944146336838223,0.119158059600906,0.8864683973206292,-0.6490489840507507,0.4676278531551361,-0.6000496745109558,0,0,0,-1,-1,1469.30867825,unknown,2,2025-04-28T22:47:01.989+03:00,2025-04-28T22:17:59.397+03:00,21,0.8668733,0,0,16.08946,0,0,2025-04-28T22:42:51.752+03:00,767562429.8278584,0,-0.9300001,100.8076,1,0.35,2025-04-28T22:45:54.443+03:00,76,1.266666666666667,2025-04-22T14:20:19.516+03:00,0.02197104130929222,0
2025-04-28T22:47:10.633+03:00,1745869628.543501,40.9855756091106,29.13738873439781,126.3238,-1,-1,-1,-1,30,19.49210119458397,-9999,1477.947022,-0.645843505859375,0.4716644287109375,-0.60150146484375,1477.936945,0.05132815829745603,-0.8242032074026788,-0.4872669259593774,0.02192073687911034,0.001329047605395317,0.0168647225946188,-0.0001930594444274902,-0.008923053741455078,0.0006285905838012695,XArbitraryZVertical,-0.2109873272397444,-0.3942512462430228,0.1194081592485091,0.8864490254717645,-0.6485800743103027,0.4682126641273499,-0.600100576877594,0,0,0,-1,-1,1469.30867825,unknown,2,2025-04-28T22:47:01.989+03:00,2025-04-28T22:17:59.397+03:00,21,0.8668733,0,0,16.08946,0,0,2025-04-28T22:42:51.752+03:00,767562429.8278584,0,-0.9300001,100.8076,1,0.35,2025-04-28T22:45:54.443+03:00,76,1.266666666666667,2025-04-22T14:20:19.516+03:00,0.02197104130929222,0
2025-04-28T22:47:10.642+03:00,1745869628.543501,40.9855756091106,29.13738873439781,126.3238,-1,-1,-1,-1,30,19.49210119458397,-9999,1477.957098416667,-0.64678955078125,0.4792327880859375,-0.6016845703125,1477.947022,0.05169625907342285,-0.8240017331671807,-0.4875139333479121,0.03626319020986557,0.001800959464162588,0.01531263254582882,0.002073109149932861,-3.182888031005859e-05,-0.0009825229644775391,XArbitraryZVertical,-0.2110369009267089,-0.3941916787077354,0.1195973300693331,0.8864382283775635,-0.6483742594718933,0.4684309065341949,-0.6001526713371277,0,0,0,-1,-1,1469.30867825,unknown,2,2025-04-28T22:47:01.989+03:00,2025-04-28T22:17:59.397+03:00,21,0.8668733,0,0,16.08946,0,0,2025-04-28T22:42:51.752+03:00,767562429.8278584,0,-0.9300001,100.8076,1,0.35,2025-04-28T22:45:54.443+03:00,76,1.266666666666667,2025-04-22T14:20:19.516+03:00,0.02197104130929222,0
2025-04-28T22:47:10.653+03:00,1745869628.543501,40.9855756091106,29.13738873439781,126.3238,-1,-1,-1,-1,30,19.49210119458397,-9999,1477.967175416667,-0.6482391357421875,0.4747314453125,-0.6059722900390625,1477.957098416667,0.05212676775946858,-0.823805647388533,-0.4874348518861282,0.04928484931588173,0.001113996841013432,0.008479027077555656,0.002791285514831543,0.009818941354751587,-0.001654267311096191,XArbitraryZVertical,-0.2109285314350309,-0.3941530763290056,0.1197523108031423,0.8864603140340892,-0.6482837796211243,0.4683610200881958,-0.6003050208091736,0,0,0,-1,-1,1469.30867825,unknown,2,2025-04-28T22:47:01.989+03:00,2025-04-28T22:17:59.397+03:00,21,0.8668733,0,0,16.08946,0,0,2025-04-28T22:42:51.752+03:00,767562429.8278584,0,-0.9300001,100.8076,1,0.35,2025-04-28T22:45:54.443+03:00,76,1.266666666666667,2025-04-22T14:20:19.516+03:00,0.02197104130929222,0
2025-04-28T22:47:10.663+03:00,1745869628.543501,40.9855756091106,29.13738873439781,126.3238,-1,-1,-1,-1,30,19.49210119458397,-9999,1477.977252416667,-0.646331787109375,0.4666595458984375,-0.6000823974609375,1477.967175416667,0.05252063371575253,-0.8237384084253506,-0.4871377176556053,0.04924303665757179,0.0001126485876739025,0.007892066612839699,-0.0003360509872436523,0.008570879697799683,-0.004674673080444336,XArbitraryZVertical,-0.2107224785953848,-0.3941756668884799,0.1198629448057409,0.8864843658377224,-0.6483454704284668,0.4680984914302826,-0.6004431843757629,0,0,0,-1,-1,1469.30867825,unknown,2,2025-04-28T22:47:01.989+03:00,2025-04-28T22:17:59.397+03:00,21,0.8668733,0,0,16.08946,0,0,2025-04-28T22:42:51.752+03:00,767562429.8278584,0,-0.9300001,100.8076,1,0.35,2025-04-28T22:45:54.443+03:00,76,1.266666666666667,2025-04-22T14:20:19.516+03:00,0.02197104130929222,0
2025-04-28T22:47:10.672+03:00,1745869628.543501,40.9855756091106,29.13738873439781,126.3238,-1,-1,-1,-1,30,19.49210119458397,-9999,1477.987329416667,-0.643402099609375,0.457427978515625,-0.5920257568359375,1477.977252416667,0.05284720993884721,-0.8237728899439402,-0.4867115734968099,0.03531011193990707,-0.003056846093386412,0.004695174284279346,0.001387298107147217,0.001180768013000488,-0.002684712409973145,XArbitraryZVertical,-0.2104660832671399,-0.3942409300368451,0.119929841398168,0.8865071079723298,-0.6485124230384827,0.4677218496799469,-0.6005562543869019,0,0,0,-1,-1,1469.30867825,unknown,2,2025-04-28T22:47:01.989+03:00,2025-04-28T22:17:59.397+03:00,21,0.8668733,0,0,16.08946,0,0,2025-04-28T22:42:51.752+03:00,767562429.8278584,0,-0.9300001,100.8076,1,0.35,2025-04-28T22:45:54.443+03:00,76,1.266666666666667,2025-04-22T14:20:19.516+03:00,0.02197104130929222,0
2025-04-28T22:47:10.683+03:00,1745869628.543501,40.9855756091106,29.13738873439781,126.3238,-1,-1,-1,-1,30,19.49210119458397,-9999,1477.997405416667,-0.6460418701171875,0.4505157470703125,-0.5881500244140625,1477.987329416667,0.05302526763343841,-0.8238732590665353,-0.4862852319749394,0.02219697274267673,-0.003028350416570902,0.002461581490933895,0.004981279373168945,-0.007277220487594604,0.006846129894256592,XArbitraryZVertical,-0.2102348959427446,-0.3943196810437518,0.119937767441452,0.8865258561014111,-0.6487189531326294,0.4673449993133545,-0.600626528263092,0,0,0,-1,-1,1469.30867825,unknown,2,2025-04-28T22:47:01.989+03:00,2025-04-28T22:17:59.397+03:00,21,0.8668733,0,0,16.08946,0,0,2025-04-28T22:42:51.752+03:00,767562429.8278584,0,-0.9300001,100.8076,1,0.35,2025-04-28T22:45:54.443+03:00,76,1.266666666666667,2025-04-22T14:20:19.516+03:00,0.02197104130929222,0
2025-04-28T22:47:10.693+03:00,1745869628.543501,40.9855756091106,29.13738873439781,126.3238,-1,-1,-1,-1,30,19.49210119458397,-9999,1478.007482416667,-0.649871826171875,0.45050048828125,-0.5789947509765625,1477.997405416667,0.05312435197634167,-0.8239605656522219,-0.4859274491862286,0.01239507552236319,0.002882402623072267,0.007652281783521175,0.003615260124206543,-0.01510906219482422,0.01102280616760254,XArbitraryZVertical,-0.2100506100525823,-0.3943817910439879,0.1199223976424244,0.8865440330191912,-0.6488941311836243,0.4670286476612091,-0.6006835103034973,0,0,0,-1,-1,1469.30867825,unknown,2,2025-04-28T22:47:01.989+03:00,2025-04-28T22:17:59.397+03:00,21,0.8668733,0,0,16.08946,0,0,2025-04-28T22:42:51.752+03:00,767562429.8278584,0,-0.9300001,100.8076,1,0.35,2025-04-28T22:45:54.443+03:00,76,1.266666666666667,2025-04-22T14:20:19.516+03:00,0.02197104130929222,0
2025-04-28T22:47:10.703+03:00,1745869628.543501,40.9855756091106,29.13738873439781,126.3238,-1,-1,-1,-1,30,19.49210119458397,-9999,1478.017559416667,-0.6484375,0.4585113525390625,-0.5777435302734375,1478.007482416667,0.05318793979563962,-0.8240298703527722,-0.485682241408572,-0.004181503783911467,-0.002376541029661894,0.01542338542640209,-0.0003637075424194336,-0.01747095584869385,0.01957005262374878,XArbitraryZVertical,-0.2099245987101929,-0.3944281080426627,0.1199109546460874,0.8865547751998152,-0.649019718170166,0.4668118059635162,-0.600716233253479,0,0,0,-1,-1,1469.30867825,unknown,2,2025-04-28T22:47:01.989+03:00,2025-04-28T22:17:59.397+03:00,21,0.8668733,0,0,16.08946,0,0,2025-04-28T22:42:51.752+03:00,767562429.8278584,0,-0.9300001,100.8076,1,0.35,2025-04-28T22:45:54.443+03:00,76,1.266666666666667,2025-04-22T14:20:19.516+03:00,0.02197104130929222,0
2025-04-28T22:47:10.713+03:00,1745869628.543501,40.9855756091106,29.13738873439781,126.3238,-1,-1,-1,-1,30,19.49210119458397,-9999,1478.027636416667,-0.649932861328125,0.457733154296875,-0.5893707275390625,1478.017559416667,0.05317413809118836,-0.8241070553952594,-0.4856831077741653,-0.01778066903352737,-0.01051170006394386,0.007974790409207344,9.429454803466797e-05,-0.009354054927825928,0.02455508708953857,XArbitraryZVertical,-0.2099230772492509,-0.3944608374236649,0.1199130994646389,0.8865402998414672,-0.6490657925605774,0.4668125808238983,-0.6006659269332886,0,0,0,-1,-1,1469.30867825,unknown,2,2025-04-28T22:47:01.989+03:00,2025-04-28T22:17:59.397+03:00,21,0.8668733,0,0,16.08946,0,0,2025-04-28T22:42:51.752+03:00,767562429.8278584,0,-0.9300001,100.8076,1,0.35,2025-04-28T22:45:54.443+03:00,76,1.266666666666667,2025-04-22T14:20:19.516+03:00,0.02197104130929222,0
2025-04-28T22:47:10.727+03:00,1745869628.543501,40.9855756091106,29.13738873439781,126.3238,-1,-1,-1,-1,30,19.49210119458397,-9999,1478.037713416667,-0.649444580078125,0.4635009765625,-0.603424072265625,1478.027636416667,0.05308680377950042,-0.8242161545650295,-0.4859273299374295,-0.02020787447690964,-0.01426755636930466,0.003329438855871558,-0.0004426240921020508,-0.009859919548034668,0.0144428014755249,XArbitraryZVertical,-0.2100426337793449,-0.3944911391677463,0.119932568981999,0.8864959132765509,-0.6490476727485657,0.4670285582542419,-0.6005176901817322,0,0,0,-1,-1,1469.30867825,unknown,2,2025-04-28T22:47:01.989+03:00,2025-04-28T22:17:59.397+03:00,21,0.8668733,0,0,16.08946,0,0,2025-04-28T22:42:51.752+03:00,767562429.8278584,0,-0.9300001,100.8076,1,0.35,2025-04-28T22:45:54.443+03:00,76,1.266666666666667,2025-04-22T14:20:19.516+03:00,0.02197104130929222,0
2025-04-28T22:47:10.736+03:00,1745869628.543501,40.9855756091106,29.13738873439781,126.3238,-1,-1,-1,-1,30,19.49210119458397,-9999,1478.047790416667,-0.6463470458984375,0.4676361083984375,-0.6073760986328125,1478.037713416667,0.05302432982120084,-0.8242850565707254,-0.4863548584971847,-0.0115807643160224,-0.01256200112402439,0.0006756323855370283,-0.001616001129150391,-0.00585860013961792,0.0001633167266845703,XArbitraryZVertical,-0.2102414062314784,-0.3944995429599242,0.1199939335272954,0.8864367951359193,-0.6489424109458923,0.4674065411090851,-0.6003373265266418,0,0,0,-1,-1,1469.30867825,unknown,2,2025-04-28T22:47:01.989+03:00,2025-04-28T22:17:59.397+03:00,21,0.8668733,0,0,16.08946,0,0,2025-04-28T22:42:51.752+03:00,767562429.8278584,0,-0.9300001,100.8076,1,0.35,2025-04-28T22:45:54.443+03:00,76,1.266666666666667,2025-04-22T14:20:19.516+03:00,0.02197104130929222,0
2025-04-28T22:47:10.743+03:00,1745869628.543501,40.9855756091106,29.13738873439781,126.3238,-1,-1,-1,-1,30,19.49210119458397,-9999,1478.057867416667,-0.6437225341796875,0.470458984375,-0.6027069091796875,1478.047790416667,0.05301416415370145,-0.824348020470553,-0.4865753249884744,-0.004614733625203371,-0.01423712819814682,-0.00437824847176671,0.001611590385437012,-0.000682443380355835,-0.007546365261077881,XArbitraryZVertical,-0.2103379085963416,-0.3945183448938306,0.1200382443864345,0.886399542606163,-0.64890456199646,0.4676014184951782,-0.6002264618873596,0,0,0,-1,-1,1469.30867825,unknown,2,2025-04-28T22:47:01.989+03:00,2025-04-28T22:17:59.397+03:00,21,0.8668733,0,0,16.08946,0,0,2025-04-28T22:42:51.752+03:00,767562429.8278584,0,-0.9300001,100.8076,1,0.35,2025-04-28T22:45:54.443+03:00,76,1.266666666666667,2025-04-22T14:20:19.516+03:00,0.02197104130929222,0
2025-04-28T22:47:10.753+03:00,1745869628.543501,40.9855756091106,29.13738873439781,126.3238,-1,-1,-1,-1,30,19.49210119458397,-9999,1478.067944416667,-0.6428375244140625,0.4698486328125,-0.5980987548828125,1478.057867416667,0.05305190745872523,-0.8244071040089826,-0.4865522974059178,0.006889123003929853,-0.01463254168629646,-0.003367412369698286,0.005515396595001221,0.001657247543334961,-0.003472805023193359,XArbitraryZVertical,-0.2103166507960772,-0.3945493362667149,0.1200567750008828,0.8863882926971391,-0.6489479541778564,0.4675810635089874,-0.6001954674720764,0,0,0,-1,-1,1469.30867825,unknown,2,2025-04-28T22:47:01.989+03:00,2025-04-28T22:17:59.397+03:00,21,0.8668733,0,0,16.08946,0,0,2025-04-28T22:42:51.752+03:00,767562429.8278584,0,-0.9300001,100.8076,1,0.35,2025-04-28T22:45:54.443+03:00,76,1.266666666666667,2025-04-22T14:20:19.516+03:00,0.02197104130929222,0
2025-04-28T22:47:10.763+03:00,1745869628.543501,40.9855756091106,29.13738873439781,126.3238,-1,-1,-1,-1,30,19.49210119458397,-9999,1478.078021416667,-0.6461639404296875,0.4645538330078125,-0.5996856689453125,1478.067944416667,0.05305424279180149,-0.8245714567563599,-0.4864077251483528,0.005768731236457825,-0.01282105967402458,-0.004613771568983793,0.006167173385620117,0.002532720565795898,0.001242458820343018,XArbitraryZVertical,-0.2102418956600494,-0.3946277218131962,0.1200474446063093,0.8863722807295159,-0.6490961313247681,0.467453271150589,-0.6001346111297607,0,0,0,-1,-1,1469.30867825,unknown,2,2025-04-28T22:47:01.989+03:00,2025-04-28T22:17:59.397+03:00,21,0.8668733,0,0,16.08946,0,0,2025-04-28T22:42:51.752+03:00,767562429.8278584,0,-0.9300001,100.8076,1,0.35,2025-04-28T22:45:54.443+03:00,76,1.266666666666667,2025-04-22T14:20:19.516+03:00,0.02197104130929222,0
2025-04-28T22:47:10.773+03:00,1745869628.543501,40.9855756091106,29.13738873439781,126.3238,-1,-1,-1,-1,30,19.49210119458397,-9999,1478.088097416667,-0.6475677490234375,0.4628753662109375,-0.601959228515625,1478.078021416667,0.05298791098378595,-0.8248648597193229,-0.4861054595676022,0.002931932453066111,-0.01324077323079109,-0.003582729026675224,0.004020810127258301,-0.002021849155426025,0.0009189248085021973,XArbitraryZVertical,-0.2101026498605659,-0.3947618013772742,0.1199910012681401,0.8863532168709477,-0.6493759155273438,0.4671860337257385,-0.6000400185585022,0,0,0,-1,-1,1469.30867825,unknown,2,2025-04-28T22:47:01.989+03:00,2025-04-28T22:17:59.397+03:00,21,0.8668733,0,0,16.08946,0,0,2025-04-28T22:42:51.752+03:00,767562429.8278584,0,-0.9300001,100.8076,1,0.35,2025-04-28T22:45:54.443+03:00,76,1.266666666666667,2025-04-22T14:20:19.516+03:00,0.02197104130929222,0
2025-04-28T22:47:10.790+03:00,1745869628.543501,40.9855756091106,29.13738873439781,126.3238,-1,-1,-1,-1,30,19.49210119458397,-9999,1478.098174416667,-0.6481781005859375,0.46051025390625,-0.600128173828125,1478.088097416667,0.05275719767768224,-0.8254579545887875,-0.4858423113589493,-0.005462085362523794,-0.0159276369959116,-0.00156511808745563,0.0027884840965271,-0.0044441819190979,-0.002282142639160156,XArbitraryZVertical,-0.2099953377879148,-0.3950099848206103,0.1199006071566572,0.8862803708635895,-0.6498220562934875,0.4669533669948578,-0.5997381210327148,0,0,0,-1,-1,1469.30867825,unknown,2,2025-04-28T22:47:01.989+03:00,2025-04-28T22:17:59.397+03:00,21,0.8668733,0,0,16.08946,0,0,2025-04-28T22:42:51.752+03:00,767562429.8278584,0,-0.9300001,100.8076,1,0.35,2025-04-28T22:45:54.443+03:00,76,1.266666666666667,2025-04-22T14:20:19.516+03:00,0.02197104130929222,0
2025-04-28T22:47:10.793+03:00,1745869628.543501,40.9855756091106,29.13738873439781,126.3238,-1,-1,-1,-1,30,19.49210119458397,-9999,1478.108251416667,-0.650665283203125,0.4588165283203125,-0.5975341796875,1478.098174416667,0.05246151657203723,-0.8261455869828103,-0.4858686976963726,-0.008752154186367989,-0.01517635956406593,0.001930147642269731,0.002245604991912842,-0.006039142608642578,-0.00115048885345459,XArbitraryZVertical,-0.2100242928115828,-0.3952826504199757,0.1198468346924477,0.8861592738326852,-0.6502252817153931,0.4669767022132874,-0.5992828607559204,0,0,0,-1,-1,1469.30867825,unknown,2,2025-04-28T22:47:01.989+03:00,2025-04-28T22:17:59.397+03:00,21,0.8668733,0,0,16.08946,0,0,2025-04-28T22:42:51.752+03:00,767562429.8278584,0,-0.9300001,100.8076,1,0.35,2025-04-28T22:45:54.443+03:00,76,1.266666666666667,2025-04-22T14:20:19.516+03:00,0.02197104130929222,0
2025-04-28T22:47:10.804+03:00,1745869628.543501,40.9855756091106,29.13738873439781,126.3238,-1,-1,-1,-1,30,19.49210119458397,-9999,1478.118328416667,-0.65118408203125,0.4611358642578125,-0.5971832275390625,1478.108251416667,0.05223282720191055,-0.8266209987314962,-0.4858238605997851,-0.01251253765076399,-0.01278883405029774,-0.001980704255402088,4.339218139648438e-05,-0.008364617824554443,0.001041650772094727,XArbitraryZVertical,-0.21002104704343,-0.3954709263821298,0.1197868411474351,0.8860841071583797,-0.6505255103111267,0.4669370353221893,-0.5989878177642822,0,0,0,-1,-1,1469.30867825,unknown,2,2025-04-28T22:47:01.989+03:00,2025-04-28T22:17:59.397+03:00,21,0.8668733,0,0,16.08946,0,0,2025-04-28T22:42:51.752+03:00,767562429.8278584,0,-0.9300001,100.8076,1,0.35,2025-04-28T22:45:54.443+03:00,76,1.266666666666667,2025-04-22T14:20:19.516+03:00,0.02197104130929222,0
2025-04-28T22:47:10.814+03:00,1745869628.543501,40.9855756091106,29.13738873439781,126.3238,-1,-1,-1,-1,30,19.49210119458397,-9999,1478.128405416667,-0.6505279541015625,0.46478271484375,-0.5993499755859375,1478.118328416667,0.05213499690545881,-0.8267889014799641,-0.4857709474435883,-0.01362427417188883,-0.01352080516517162,5.827838322147727e-05,0.0001316070556640625,-0.007142841815948486,0.001971423625946045,XArbitraryZVertical,-0.2100067560112657,-0.3955369671563388,0.1197509552738999,0.886062921179445,-0.6506442427635193,0.4668902456760406,-0.5988953113555908,0,0,0,-1,-1,1469.30867825,unknown,2,2025-04-28T22:47:01.989+03:00,2025-04-28T22:17:59.397+03:00,21,0.8668733,0,0,16.08946,0,0,2025-04-28T22:42:51.752+03:00,767562429.8278584,0,-0.9300001,100.8076,1,0.35,2025-04-28T22:45:54.443+03:00,76,1.266666666666667,2025-04-22T14:20:19.516+03:00,0.02197104130929222,0
2025-04-28T22:47:10.824+03:00,1745869628.543501,40.9855756091106,29.13738873439781,126.3238,-1,-1,-1,-1,30,19.49210119458397,-9999,1478.138482416667,-0.6523590087890625,0.4656524658203125,-0.6022491455078125,1478.128405416667,0.05211971258503985,-0.8266938781240685,-0.4858215981098503,-0.01420697383582592,-0.007636284921318293,-0.001961196772754192,-3.427267074584961e-05,-0.00268632173538208,0.0002624988555908203,XArbitraryZVertical,-0.2100380430220209,-0.3954914213063119,0.1197439479220424,0.8860767211825523,-0.6505699157714844,0.4669350385665894,-0.5989410877227783,0,0,0,-1,-1,1469.30867825,unknown,2,2025-04-28T22:47:01.989+03:00,2025-04-28T22:17:59.397+03:00,21,0.8668733,0,0,16.08946,0,0,2025-04-28T22:42:51.752+03:00,767562429.8278584,0,-0.9300001,100.8076,1,0.35,2025-04-28T22:45:54.443+03:00,76,1.266666666666667,2025-04-22T14:20:19.516+03:00,0.02197104130929222,0
2025-04-28T22:47:10.834+03:00,1745869628.543501,40.9855756091106,29.13738873439781,126.3238,-1,-1,-1,-1,30,19.49210119458397,-9999,1478.148559416667,-0.6531524658203125,0.4703521728515625,-0.6005859375,1478.138482416667,0.05211487927450461,-0.8265251657935475,-0.4859542119880572,-0.01027261931449175,0.001367663033306599,-0.003803005442023277,-0.001020073890686035,-0.001415044069290161,-0.002309441566467285,XArbitraryZVertical,-0.2101081866145531,-0.3954112960892546,0.1197495433989234,0.8860951022260115,-0.6504232883453369,0.4670523107051849,-0.5990089178085327,0,0,0,-1,-1,1469.30867825,unknown,2,2025-04-28T22:47:01.989+03:00,2025-04-28T22:17:59.397+03:00,21,0.8668733,0,0,16.08946,0,0,2025-04-28T22:42:51.752+03:00,767562429.8278584,0,-0.9300001,100.8076,1,0.35,2025-04-28T22:45:54.443+03:00,76,1.266666666666667,2025-04-22T14:20:19.516+03:00,0.02197104130929222,0
2025-04-28T22:47:10.844+03:00,1745869628.543501,40.9855756091106,29.13738873439781,126.3238,-1,-1,-1,-1,30,19.49210119458397,-9999,1478.158636416667,-0.65032958984375,0.4703369140625,-0.596435546875,1478.148559416667,0.05207870227341861,-0.8264154344734548,-0.486132377200564,-0.00904516875743866,-0.0003585978411138058,-0.004173185210675001,-0.003161191940307617,0.001326590776443481,-0.002630114555358887,XArbitraryZVertical,-0.2102012893769022,-0.3953523270976957,0.1197561757398595,0.8860984669756409,-0.6502963900566101,0.4672098457813263,-0.5990239381790161,0,0,0,-1,-1,1469.30867825,unknown,2,2025-04-28T22:47:01.989+03:00,2025-04-28T22:17:59.397+03:00,21,0.8668733,0,0,16.08946,0,0,2025-04-28T22:42:51.752+03:00,767562429.8278584,0,-0.9300001,100.8076,1,0.35,2025-04-28T22:45:54.443+03:00,76,1.266666666666667,2025-04-22T14:20:19.516+03:00,0.02197104130929222,0
2025-04-28T22:47:10.854+03:00,1745869628.543501,40.9855756091106,29.13738873439781,126.3238,-1,-1,-1,-1,30,19.49210119458397,-9999,1478.168712416667,-0.6512603759765625,0.463775634765625,-0.595794677734375,1478.158636416667,0.05204268352034735,-0.8263371003852428,-0.4861546737599411,-0.008258737623691559,0.002620947081595659,-0.0008966978639364243,-0.001110076904296875,0.004694312810897827,0.001869261264801025,XArbitraryZVertical,-0.210223035031692,-0.3953130188326205,0.1197362662273834,0.8861135260272945,-0.6502417922019958,0.4672295451164246,-0.5990678071975708,0,0,0,-1,-1,1469.30867825,unknown,2,2025-04-28T22:47:01.989+03:00,2025-04-28T22:17:59.397+03:00,21,0.8668733,0,0,16.08946,0,0,2025-04-28T22:42:51.752+03:00,767562429.8278584,0,-0.9300001,100.8076,1,0.35,2025-04-28T22:45:54.443+03:00,76,1.266666666666667,2025-04-22T14:20:19.516+03:00,0.02197104130929222,0
2025-04-28T22:47:10.864+03:00,1745869628.543501,40.9855756091106,29.13738873439781,126.3238,-1,-1,-1,-1,30,19.49210119458397,-9999,1478.178789416667,-0.65374755859375,0.4628753662109375,-0.5965423583984375,1478.168712416667,0.05202412188176109,-0.8261448276637622,-0.486102552892271,-0.006815037690103054,0.01412953156977892,4.739273572340608e-05,-0.001054763793945312,-0.002721160650253296,0.003902912139892578,XArbitraryZVertical,-0.2102149858056857,-0.3952277862979801,0.1196978243068475,0.8861586702044006,-0.6501445174217224,0.4671834707260132,-0.5992093086242676,0,0,0,-1,-1,1469.30867825,unknown,2,2025-04-28T22:47:01.989+03:00,2025-04-28T22:17:59.397+03:00,21,0.8668733,0,0,16.08946,0,0,2025-04-28T22:42:51.752+03:00,767562429.8278584,0,-0.9300001,100.8076,1,0.35,2025-04-28T22:45:54.443+03:00,76,1.266666666666667,2025-04-22T14:20:19.516+03:00,0.02197104130929222,0
2025-04-28T22:47:10.874+03:00,1745869628.543501,40.9855756091106,29.13738873439781,126.3238,-1,-1,-1,-1,30,19.49210119458397,-9999,1478.188866416667,-0.65008544921875,0.4613800048828125,-0.59912109375,1478.178789416667,0.05200348416085287,-0.8259657114522531,-0.4860211371797339,-0.005433522630482912,0.01287771202623844,0.002029250375926495,-0.003468751907348633,-0.004251331090927124,0.00351107120513916,XArbitraryZVertical,-0.2101935078633886,-0.3951492541336254,0.1196542455983471,0.8862046280455804,-0.6500651240348816,0.4671114981174469,-0.5993515253067017,0,0,0,-1,-1,1469.30867825,unknown,2,2025-04-28T22:47:01.989+03:00,2025-04-28T22:17:59.397+03:00,21,0.8668733,0,0,16.08946,0,0,2025-04-28T22:42:51.752+03:00,767562429.8278584,0,-0.9300001,100.8076,1,0.35,2025-04-28T22:45:54.443+03:00,76,1.266666666666667,2025-04-22T14:20:19.516+03:00,0.02197104130929222,0
2025-04-28T22:47:10.884+03:00,1745869628.543501,40.9855756091106,29.13738873439781,126.3238,-1,-1,-1,-1,30,19.49210119458397,-9999,1478.198943416667,-0.646484375,0.4614410400390625,-0.5994110107421875,1478.188866416667,0.05193200200510798,-0.825921870830207,-0.4859276983686464,-0.01367680449038744,0.007121555972844362,0.004351526964455843,-0.001113057136535645,-0.004718005657196045,0.0006394386291503906,XArbitraryZVertical,-0.2101686169234154,-0.3951257513327444,0.119600043105363,0.8862283101377508,-0.6500709056854248,0.4670288562774658,-0.5994095802307129,0,0,0,-1,-1,1469.30867825,unknown,2,2025-04-28T22:47:01.989+03:00,2025-04-28T22:17:59.397+03:00,21,0.8668733,0,0,16.08946,0,0,2025-04-28T22:42:51.752+03:00,767562429.8278584,0,-0.9300001,100.8076,1,0.35,2025-04-28T22:45:54.443+03:00,76,1.266666666666667,2025-04-22T14:20:19.516+03:00,0.02197104130929222,0
2025-04-28T22:47:10.894+03:00,1745869628.543501,40.9855756091106,29.13738873439781,126.3238,-1,-1,-1,-1,30,19.49210119458397,-9999,1478.209020416667,-0.6418914794921875,0.46173095703125,-0.599822998046875,1478.198943416667,0.05180410304785187,-0.8259920185740792,-0.4859043548671231,-0.01564128696918488,0.0003276988863945007,0.003873822279274464,0.001973450183868408,-0.00559765100479126,-9.119510650634766e-06,XArbitraryZVertical,-0.210179286652709,-0.3951442453095526,0.1195462561860792,0.8862248139720784,-0.6501209735870361,0.4670082330703735,-0.5993713736534119,0,0,0,-1,-1,1469.30867825,unknown,2,2025-04-28T22:47:01.989+03:00,2025-04-28T22:17:59.397+03:00,21,0.8668733,0,0,16.08946,0,0,2025-04-28T22:42:51.752+03:00,767562429.8278584,0,-0.9300001,100.8076,1,0.35,2025-04-28T22:45:54.443+03:00,76,1.266666666666667,2025-04-22T14:20:19.516+03:00,0.02197104130929222,0
2025-04-28T22:47:10.904+03:00,1745869628.543501,40.9855756091106,29.13738873439781,126.3238,-1,-1,-1,-1,30,19.49210119458397,-9999,1478.219097416667,-0.6436920166015625,0.4681549072265625,-0.6023406982421875,1478.209020416667,0.05168036725624284,-0.8260586813045081,-0.4859894981448774,-0.01749990694224834,0.001661143731325865,0.004980099387466908,0.007492601871490479,-0.005688220262527466,-0.0007508397102355957,XArbitraryZVertical,-0.2102376944111538,-0.3951576582847662,0.1195147809156715,0.8862091891336218,-0.6501316428184509,0.4670835137367249,-0.5993010997772217,0,0,0,-1,-1,1469.30867825,unknown,2,2025-04-28T22:47:01.989+03:00,2025-04-28T22:17:59.397+03:00,21,0.8668733,0,0,16.08946,0,0,2025-04-28T22:42:51.752+03:00,767562429.8278584,0,-0.9300001,100.8076,1,0.35,2025-04-28T22:45:54.443+03:00,76,1.266666666666667,2025-04-22T14:20:19.516+03:00,0.02197104130929222,0
2025-04-28T22:47:10.915+03:00,1745869628.543501,40.9855756091106,29.13738873439781,126.3238,-1,-1,-1,-1,30,19.49210119458397,-9999,1478.229174416667,-0.643890380859375,0.4698638916015625,-0.600982666015625,1478.219097416667,0.05157249415752273,-0.8260800461027178,-0.4860433056992055,-0.0140491146594286,0.002823480172082782,-0.0003048769431188703,0.006754517555236816,-0.001020848751068115,-0.003284156322479248,XArbitraryZVertical,-0.2102817121313925,-0.3951538142610313,0.1194795631044669,0.8862051721358407,-0.6501259803771973,0.4671310782432556,-0.5992701053619385,0,0,0,-1,-1,1469.30867825,unknown,2,2025-04-28T22:47:01.989+03:00,2025-04-28T22:17:59.397+03:00,21,0.8668733,0,0,16.08946,0,0,2025-04-28T22:42:51.752+03:00,767562429.8278584,0,-0.9300001,100.8076,1,0.35,2025-04-28T22:45:54.443+03:00,76,1.266666666666667,2025-04-22T14:20:19.516+03:00,0.02197104130929222,0
2025-04-28T22:47:10.925+03:00,1745869628.543501,40.9855756091106,29.13738873439781,126.3238,-1,-1,-1,-1,30,19.49210119458397,-9999,1478.239251416667,-0.64727783203125,0.4666595458984375,-0.5971527099609375,1478.229174416667,0.05143418530720078,-0.8261214114815469,-0.4860926921251926,-0.01270075608044863,0.007860583253204823,-0.004258606117218733,0.006441891193389893,0.004062473773956299,-0.002716362476348877,XArbitraryZVertical,-0.2103285696891947,-0.3951557702344345,0.1194320952254968,0.8861996153864183,-0.6501338481903076,0.467174768447876,-0.5992276072502136,0,0,0,-1,-1,1469.30867825,unknown,2,2025-04-28T22:47:01.989+03:00,2025-04-28T22:17:59.397+03:00,21,0.8668733,0,0,16.08946,0,0,2025-04-28T22:42:51.752+03:00,767562429.8278584,0,-0.9300001,100.8076,1,0.35,2025-04-28T22:45:54.443+03:00,76,1.266666666666667,2025-04-22T14:20:19.516+03:00,0.02197104130929222,0
2025-04-28T22:47:10.935+03:00,1745869628.543501,40.9855756091106,29.13738873439781,126.3238,-1,-1,-1,-1,30,19.49210119458397,-9999,1478.249328416667,-0.6497955322265625,0.4674224853515625,-0.5945281982421875,1478.239251416667,0.05129158181221458,-0.8261471136255374,-0.4862354314428218,-0.009448903612792492,0.01291805878281593,-0.003285686485469341,0.003951609134674072,-0.0008854866027832031,0.0009295940399169922,XArbitraryZVertical,-0.2104188056537555,-0.3951468811688728,0.1193989923267533,0.8861866661840766,-0.6501002311706543,0.4673009514808655,-0.5991657376289368,0,0,0,-1,-1,1469.30867825,unknown,2,2025-04-28T22:47:01.989+03:00,2025-04-28T22:17:59.397+03:00,21,0.8668733,0,0,16.08946,0,0,2025-04-28T22:42:51.752+03:00,767562429.8278584,0,-0.9300001,100.8076,1,0.35,2025-04-28T22:45:54.443+03:00,76,1.266666666666667,2025-04-22T14:20:19.516+03:00,0.02197104130929222,0
2025-04-28T22:47:10.945+03:00,1745869628.543501,40.9855756091106,29.13738873439781,126.3238,-1,-1,-1,-1,30,19.49210119458397,-9999,1478.259404416667,-0.648468017578125,0.4636993408203125,-0.5936279296875,1478.249328416667,0.05113066660663522,-0.8261524031887894,-0.4862470593341075,-0.01478428021073341,0.01543927378952503,-0.002513902494683862,4.446506500244141e-05,-0.0004379749298095703,0.003653824329376221,XArbitraryZVertical,-0.2104554615726981,-0.3951318612030546,0.1193304767308499,0.8861938988821279,-0.6500993967056274,0.4673112332820892,-0.5991586446762085,0,0,0,-1,-1,1469.30867825,unknown,2,2025-04-28T22:47:01.989+03:00,2025-04-28T22:17:59.397+03:00,21,0.8668733,0,0,16.08946,0,0,2025-04-28T22:42:51.752+03:00,767562429.8278584,0,-0.9300001,100.8076,1,0.35,2025-04-28T22:45:54.443+03:00,76,1.266666666666667,2025-04-22T14:20:19.516+03:00,0.02197104130929222,0
2025-04-28T22:47:10.955+03:00,1745869628.543501,40.9855756091106,29.13738873439781,126.3238,-1,-1,-1,-1,30,19.49210119458397,-9999,1478.269481416667,-0.64947509765625,0.4577178955078125,-0.5949249267578125,1478.259404416667,0.05090405199148269,-0.8262061012286609,-0.4862695462777073,-0.02164105512201786,0.01659062504768372,-0.0004448593826964498,0.000999748706817627,-0.002182126045227051,0.00475621223449707,XArbitraryZVertical,-0.2105070461927671,-0.3951309667856557,0.1192400245299015,0.8861942477325836,-0.6501238346099854,0.4673311114311218,-0.5991166234016418,0,0,0,-1,-1,1469.30867825,unknown,2,2025-04-28T22:47:01.989+03:00,2025-04-28T22:17:59.397+03:00,21,0.8668733,0,0,16.08946,0,0,2025-04-28T22:42:51.752+03:00,767562429.8278584,0,-0.9300001,100.8076,1,0.35,2025-04-28T22:45:54.443+03:00,76,1.266666666666667,2025-04-22T14:20:19.516+03:00,0.02197104130929222,0
2025-04-28T22:47:10.965+03:00,1745869628.543501,40.9855756091106,29.13738873439781,126.3238,-1,-1,-1,-1,30,19.49210119458397,-9999,1478.279558416667,-0.648284912109375,0.458404541015625,-0.59765625,1478.269481416667,0.05067013933079496,-0.8261848457439319,-0.4863275292484088,-0.03047609142959118,0.0155290886759758,-0.0004746867634821683,0.001211285591125488,-0.007894396781921387,0.004751682281494141,XArbitraryZVertical,-0.2105803629629319,-0.3950947875037484,0.1191452806224952,0.8862056657512613,-0.6500911712646484,0.4673823714256287,-0.5991120338439941,0,0,0,-1,-1,1469.30867825,unknown,2,2025-04-28T22:47:01.989+03:00,2025-04-28T22:17:59.397+03:00,21,0.8668733,0,0,16.08946,0,0,2025-04-28T22:42:51.752+03:00,767562429.8278584,0,-0.9300001,100.8076,1,0.35,2025-04-28T22:45:54.443+03:00,76,1.266666666666667,2025-04-22T14:20:19.516+03:00,0.02197104130929222,0
2025-04-28T22:47:10.975+03:00,1745869628.543501,40.9855756091106,29.13738873439781,126.3238,-1,-1,-1,-1,30,19.49210119458397,-9999,1478.289635416667,-0.6434478759765625,0.4631195068359375,-0.6021270751953125,1478.279558416667,0.05041759216838102,-0.8261451386810805,-0.4864115307791163,-0.03150653466582298,0.01039418205618858,-0.002933216979727149,0.0003345608711242676,-0.01034906506538391,0.002340018749237061,XArbitraryZVertical,-0.2106700560098661,-0.3950475149345568,0.1190453518434013,0.8862187317096718,-0.6500384211540222,0.4674566388130188,-0.5991111993789673,0,0,0,-1,-1,1469.30867825,unknown,2,2025-04-28T22:47:01.989+03:00,2025-04-28T22:17:59.397+03:00,21,0.8668733,0,0,16.08946,0,0,2025-04-28T22:42:51.752+03:00,767562429.8278584,0,-0.9300001,100.8076,1,0.35,2025-04-28T22:45:54.443+03:00,76,1.266666666666667,2025-04-22T14:20:19.516+03:00,0.02197104130929222,0
2025-04-28T22:47:10.985+03:00,1745869628.543501,40.9855756091106,29.13738873439781,126.3238,-1,-1,-1,-1,30,19.49210119458397,-9999,1478.299712416667,-0.646636962890625,0.4631195068359375,-0.6012725830078125,1478.289635416667,0.05022518998198205,-0.8260096515337672,-0.4865099902321324,-0.02838957123458385,0.01089458912611008,-0.003660792717710137,0.006170511245727539,-0.004546225070953369,-0.001570463180541992,XArbitraryZVertical,-0.210759987872874,-0.3949635544380217,0.1189647239789235,0.8862455850333396,-0.6499233841896057,0.4675436913967133,-0.599168062210083,0,0,0,-1,-1,1469.30867825,unknown,2,2025-04-28T22:47:01.989+03:00,2025-04-28T22:17:59.397+03:00,21,0.8668733,0,0,16.08946,0,0,2025-04-28T22:42:51.752+03:00,767562429.8278584,0,-0.9300001,100.8076,1,0.35,2025-04-28T22:45:54.443+03:00,76,1.266666666666667,2025-04-22T14:20:19.516+03:00,0.02197104130929222,0
2025-04-28T22:47:10.995+03:00,1745869628.543501,40.9855756091106,29.13738873439781,126.3238,-1,-1,-1,-1,30,19.49210119458397,-9999,1478.309789416667,-0.6468353271484375,0.4648590087890625,-0.6019744873046875,1478.299712416667,0.05007233308514544,-0.8258127712458424,-0.4866695319978565,-0.02523192763328552,0.01209427695721388,-0.00429039727896452,0.003800392150878906,-0.004656702280044556,-0.002225518226623535,XArbitraryZVertical,-0.2108729587953991,-0.3948542578390046,0.1189068465849964,0.8862752127456629,-0.6497505903244019,0.4676847159862518,-0.5992454290390015,0,0,0,-1,-1,1469.30867825,unknown,2,2025-04-28T22:47:01.989+03:00,2025-04-28T22:17:59.397+03:00,21,0.8668733,0,0,16.08946,0,0,2025-04-28T22:42:51.752+03:00,767562429.8278584,0,-0.9300001,100.8076,1,0.35,2025-04-28T22:45:54.443+03:00,76,1.266666666666667,2025-04-22T14:20:19.516+03:00,0.02197104130929222,0
2025-04-28T22:47:11.005+03:00,1745869628.543501,40.9855756091106,29.13738873439781,126.3238,-1,-1,-1,-1,30,19.49210119458397,-9999,1478.319866416667,-0.6458282470703125,0.4638824462890625,-0.599853515625,1478.309789416667,0.0498823487172184,-0.8256449070859169,-0.4869233951405079,-0.02746472135186195,0.01479472219944,-0.005216378718614578,0.0022391676902771,-0.003553569316864014,-0.002837836742401123,XArbitraryZVertical,-0.2110335463306282,-0.3947503712342688,0.1188536543947781,0.8862904349932053,-0.6495627164840698,0.4679090678691864,-0.5992739796638489,0,0,0,-1,-1,1469.30867825,unknown,2,2025-04-28T22:47:01.989+03:00,2025-04-28T22:17:59.397+03:00,21,0.8668733,0,0,16.08946,0,0,2025-04-28T22:42:51.752+03:00,767562429.8278584,0,-0.9300001,100.8076,1,0.35,2025-04-28T22:45:54.443+03:00,76,1.266666666666667,2025-04-22T14:20:19.516+03:00,0.02197104130929222,0
2025-04-28T22:47:11.015+03:00,1745869628.543501,40.9855756091106,29.13738873439781,126.3238,-1,-1,-1,-1,30,19.49210119458397,-9999,1478.329943416667,-0.649658203125,0.4633331298828125,-0.6017303466796875,1478.319866416667,0.04963480531167064,-0.8255653949598613,-0.4870783438033985,-0.02900556102395058,0.01883320510387421,-0.006279611960053444,0.003450512886047363,-0.003949910402297974,-0.001080572605133057,XArbitraryZVertical,-0.2111561652585672,-0.3946832359877163,0.1187652986862433,0.8863029517795974,-0.6494618058204651,0.4680460095405579,-0.5992764234542847,0,0,0,-1,-1,1469.30867825,unknown,2,2025-04-28T22:47:01.989+03:00,2025-04-28T22:17:59.397+03:00,21,0.8668733,0,0,16.08946,0,0,2025-04-28T22:42:51.752+03:00,767562429.8278584,0,-0.9300001,100.8076,1,0.35,2025-04-28T22:45:54.443+03:00,76,1.266666666666667,2025-04-22T14:20:19.516+03:00,0.02197104130929222,0
2025-04-28T22:47:11.025+03:00,1745869628.543501,40.9855756091106,29.13738873439781,126.3238,-1,-1,-1,-1,30,19.49210119458397,-9999,1478.340020416667,-0.650909423828125,0.4659576416015625,-0.603240966796875,1478.329943416667,0.04931013700106526,-0.8255928109513798,-0.4872348978339803,-0.02889903448522091,0.0200236402451992,-0.006221022456884384,0.000590205192565918,-0.005507320165634155,-0.001712679862976074,XArbitraryZVertical,-0.2112883603945585,-0.3946552523249627,0.1186543607647395,0.8862987472568078,-0.6494243144989014,0.4681843519210815,-0.5992088913917542,0,0,0,-1,-1,1469.30867825,unknown,2,2025-04-28T22:47:01.989+03:00,2025-04-28T22:17:59.397+03:00,21,0.8668733,0,0,16.08946,0,0,2025-04-28T22:42:51.752+03:00,767562429.8278584,0,-0.9300001,100.8076,1,0.35,2025-04-28T22:45:54.443+03:00,76,1.266666666666667,2025-04-22T14:20:19.516+03:00,0.02197104130929222,0
2025-04-28T22:47:11.036+03:00,1745869628.543501,40.9855756091106,29.13738873439781,126.3238,-1,-1,-1,-1,30,19.49210119458397,-9999,1478.350096416667,-0.64825439453125,0.4652557373046875,-0.6031494140625,1478.340020416667,0.0489865770694302,-0.8256145877283794,-0.4873327728839414,-0.0281624048948288,0.01981005445122719,-0.009599375538527966,-0.002146482467651367,-0.002938747406005859,-0.00461125373840332,XArbitraryZVertical,-0.2113945070668832,-0.3946270165504097,0.118532028446949,0.8863024836657125,-0.6494037508964539,0.4682708382606506,-0.5991637706756592,0,0,0,-1,-1,1469.30867825,unknown,2,2025-04-28T22:47:01.989+03:00,2025-04-28T22:17:59.397+03:00,21,0.8668733,0,0,16.08946,0,0,2025-04-28T22:42:51.752+03:00,767562429.8278584,0,-0.9300001,100.8076,1,0.35,2025-04-28T22:45:54.443+03:00,76,1.266666666666667,2025-04-22T14:20:19.516+03:00,0.02197104130929222,0
2025-04-28T22:47:11.046+03:00,1745869628.543501,40.9855756091106,29.13738873439781,126.3238,-1,-1,-1,-1,30,19.49210119458397,-9999,1478.360173416667,-0.645233154296875,0.4688873291015625,-0.6021728515625,1478.350096416667,0.04866400336555632,-0.8256557706710579,-0.4872864385698038,-0.02232608757913113,0.01498413924127817,-0.01221779547631741,0.001098573207855225,-0.003233492374420166,-0.004165530204772949,XArbitraryZVertical,-0.2114350708017363,-0.3946129046371818,0.118384536450466,0.8863188140523217,-0.6494444012641907,0.4682298898696899,-0.5991517305374146,0,0,0,-1,-1,1469.30867825,unknown,2,2025-04-28T22:47:01.989+03:00,2025-04-28T22:17:59.397+03:00,21,0.8668733,0,0,16.08946,0,0,2025-04-28T22:42:51.752+03:00,767562429.8278584,0,-0.9300001,100.8076,1,0.35,2025-04-28T22:45:54.443+03:00,76,1.266666666666667,2025-04-22T14:20:19.516+03:00,0.02197104130929222,0
2025-04-28T22:47:11.056+03:00,1745869628.543501,40.9855756091106,29.13738873439781,126.3238,-1,-1,-1,-1,30,19.49210119458397,-9999,1478.370250416667,-0.6447296142578125,0.46673583984375,-0.6019134521484375,1478.360173416667,0.04838750075823948,-0.8257078105038034,-0.4871044916433473,-0.01596266217529774,0.007252783048897982,-0.014003811404109,0.004167795181274414,2.47955322265625e-05,-0.003317594528198242,XArbitraryZVertical,-0.2114054945369014,-0.3946135907009448,0.1182325905270808,0.8863457957183931,-0.6495381593704224,0.4680691063404083,-0.5991756916046143,0,0,0,-1,-1,1469.30867825,unknown,2,2025-04-28T22:47:01.989+03:00,2025-04-28T22:17:59.397+03:00,21,0.8668733,0,0,16.08946,0,0,2025-04-28T22:42:51.752+03:00,767562429.8278584,0,-0.9300001,100.8076,1,0.35,2025-04-28T22:45:54.443+03:00,76,1.266666666666667,2025-04-22T14:20:19.516+03:00,0.02197104130929222,0
2025-04-28T22:47:11.066+03:00,1745869628.543501,40.9855756091106,29.13738873439781,126.3238,-1,-1,-1,-1,30,19.49210119458397,-9999,1478.380327416667,-0.6421966552734375,0.4645843505859375,-0.6056060791015625,1478.370250416667,0.04822353811885032,-0.8256261174387699,-0.4870124723279827,-0.01058627385646105,0.001531780697405338,-0.01571808755397797,0.004806578159332275,-7.700920104980469e-05,-0.002197742462158203,XArbitraryZVertical,-0.2114016706501943,-0.3945635080806971,0.1181336176223047,0.8863822307645213,-0.6495208740234375,0.4679878056049347,-0.5992579460144043,0,0,0,-1,-1,1469.30867825,unknown,2,2025-04-28T22:47:01.989+03:00,2025-04-28T22:17:59.397+03:00,21,0.8668733,0,0,16.08946,0,0,2025-04-28T22:42:51.752+03:00,767562429.8278584,0,-0.9300001,100.8076,1,0.35,2025-04-28T22:45:54.443+03:00,76,1.266666666666667,2025-04-22T14:20:19.516+03:00,0.02197104130929222,0
2025-04-28T22:47:11.076+03:00,1745869628.543501,40.9855756091106,29.13738873439781,126.3238,-1,-1,-1,-1,30,19.49210119458397,-9999,1478.390404416667,-0.6413726806640625,0.4618377685546875,-0.607330322265625,1478.380327416667,0.04807362503377614,-0.8256047252189274,-0.4868615655649405,-0.008909480646252632,-0.003792610950767994,-0.01774339005351067,0.007210791110992432,-0.00209510326385498,-0.004806280136108398,XArbitraryZVertical,-0.2113652766608861,-0.3945438666071687,0.1180359505938997,0.8864126509838797,-0.6495599746704102,0.4678544402122498,-0.5993196964263916,0,0,0,-1,-1,1469.30867825,unknown,2,2025-04-28T22:47:01.989+03:00,2025-04-28T22:17:59.397+03:00,21,0.8668733,0,0,16.08946,0,0,2025-04-28T22:42:51.752+03:00,767562429.8278584,0,-0.9300001,100.8076,1,0.35,2025-04-28T22:45:54.443+03:00,76,1.266666666666667,2025-04-22T14:20:19.516+03:00,0.02197104130929222,0
2025-04-28T22:47:11.086+03:00,1745869628.543501,40.9855756091106,29.13738873439781,126.3238,-1,-1,-1,-1,30,19.49210119458397,-9999,1478.400481416667,-0.6425628662109375,0.4608001708984375,-0.605926513671875,1478.390404416667,0.04788832899160938,-0.8256860430507182,-0.48671428939447,-0.01199901383370161,-0.008144215680658817,-0.01954661495983601,0.008271455764770508,-0.005321860313415527,-0.007436871528625488,XArbitraryZVertical,-0.2113314207081649,-0.3945658788403549,0.1179341493555647,0.886424457655248,-0.6496593356132507,0.4677242636680603,-0.5993136167526245,0,0,0,-1,-1,1469.30867825,unknown,2,2025-04-28T22:47:01.989+03:00,2025-04-28T22:17:59.397+03:00,21,0.8668733,0,0,16.08946,0,0,2025-04-28T22:42:51.752+03:00,767562429.8278584,0,-0.9300001,100.8076,1,0.35,2025-04-28T22:45:54.443+03:00,76,1.266666666666667,2025-04-22T14:20:19.516+03:00,0.02197104130929222,0
2025-04-28T22:47:11.096+03:00,1745869628.543501,40.9855756091106,29.13738873439781,126.3238,-1,-1,-1,-1,30,19.49210119458397,-9999,1478.410558416667,-0.64453125,0.4525299072265625,-0.61077880859375,1478.400481416667,0.04770151546102894,-0.8258316777564737,-0.4865628154470958,-0.001985328271985054,-0.01613909192383289,-0.02163709700107574,0.008364975452423096,-0.00628662109375,-0.007758140563964844,XArbitraryZVertical,-0.2112922114858714,-0.3946164040121018,0.1178376574403106,0.8864241263874925,-0.6497986316680908,0.4675903618335724,-0.5992670059204102,0,0,0,-1,-1,1469.30867825,unknown,2,2025-04-28T22:47:01.989+03:00,2025-04-28T22:17:59.397+03:00,21,0.8668733,0,0,16.08946,0,0,2025-04-28T22:42:51.752+03:00,767562429.8278584,0,-0.9300001,100.8076,1,0.35,2025-04-28T22:45:54.443+03:00,76,1.266666666666667,2025-04-22T14:20:19.516+03:00,0.02197104130929222,0
2025-04-28T22:47:11.106+03:00,1745869628.543501,40.9855756091106,29.13738873439781,126.3238,-1,-1,-1,-1,30,19.49210119458397,-9999,1478.420635416667,-0.64959716796875,0.44744873046875,-0.626739501953125,1478.410558416667,0.04765597227670736,-0.8259720224099462,-0.4862132883603102,0.01304581854492426,-0.01328418217599392,-0.02071004919707775,0.005349576473236084,-0.01192855834960938,-0.008898258209228516,XArbitraryZVertical,-0.2111372111035524,-0.394686978522281,0.1177651609576069,0.886439270450877,-0.6500028371810913,0.4672813713550568,-0.5992865562438965,0,0,0,-1,-1,1469.30867825,unknown,2,2025-04-28T22:47:01.989+03:00,2025-04-28T22:17:59.397+03:00,21,0.8668733,0,0,16.08946,0,0,2025-04-28T22:42:51.752+03:00,767562429.8278584,0,-0.9300001,100.8076,1,0.35,2025-04-28T22:45:54.443+03:00,76,1.266666666666667,2025-04-22T14:20:19.516+03:00,0.02197104130929222,0
2025-04-28T22:47:11.116+03:00,1745869628.543501,40.9855756091106,29.13738873439781,126.3238,-1,-1,-1,-1,30,19.49210119458397,-9999,1478.430711416667,-0.6560211181640625,0.45281982421875,-0.635711669921875,1478.420635416667,0.04745093084477022,-0.8260556705250058,-0.4859756314706639,-0.01723598688840866,0.003365566721186042,-0.03092117607593536,0.002460122108459473,-0.01928678154945374,-0.02380049228668213,XArbitraryZVertical,-0.2110668715624136,-0.3947113737386819,0.1176374538156762,0.8864621183423457,-0.6501346230506897,0.4670712649822235,-0.5993074178695679,0,0,0,-1,-1,1469.30867825,unknown,2,2025-04-28T22:47:01.989+03:00,2025-04-28T22:17:59.397+03:00,21,0.8668733,0,0,16.08946,0,0,2025-04-28T22:42:51.752+03:00,767562429.8278584,0,-0.9300001,100.8076,1,0.35,2025-04-28T22:45:54.443+03:00,76,1.266666666666667,2025-04-22T14:20:19.516+03:00,0.02197104130929222,0
2025-04-28T22:47:11.126+03:00,1745869628.543501,40.9855756091106,29.13738873439781,126.3238,-1,-1,-1,-1,30,19.49210119458397,-9999,1478.440788416667,-0.6513214111328125,0.45428466796875,-0.6612701416015625,1478.430711416667,0.04709870078240343,-0.8261157729574384,-0.4857641204870358,-0.0114281652495265,0.0001748334616422653,-0.03865686058998108,-0.00467914342880249,-0.01516297459602356,-0.03367561101913452,XArbitraryZVertical,-0.2110386233535881,-0.3947088357469921,0.117447037860601,0.8864952027105745,-0.6502432823181152,0.4668842256069183,-0.599335253238678,0,0,0,-1,-1,1469.30867825,unknown,2,2025-04-28T22:47:01.989+03:00,2025-04-28T22:17:59.397+03:00,21,0.8668733,0,0,16.08946,0,0,2025-04-28T22:42:51.752+03:00,767562429.8278584,0,-0.9300001,100.8076,1,0.35,2025-04-28T22:45:54.443+03:00,76,1.266666666666667,2025-04-22T14:20:19.516+03:00,0.02197104130929222,0
2025-04-28T22:47:11.136+03:00,1745869628.543501,40.9855756091106,29.13738873439781,126.3238,-1,-1,-1,-1,30,19.49210119458397,-9999,1478.450865416667,-0.650604248046875,0.45428466796875,-0.6656341552734375,1478.440788416667,0.04671850815161587,-0.8262429443396871,-0.4856563072361906,-0.04091288521885872,-0.01115831546485424,-0.0394156277179718,-0.003314673900604248,-0.01422843337059021,-0.05523902177810669,XArbitraryZVertical,-0.2110581668085073,-0.3947291713439856,0.1172712236815043,0.8865047425944735,-0.6503564715385437,0.4667888879776001,-0.599286675453186,0,0,0,-1,-1,1469.30867825,unknown,2,2025-04-28T22:47:01.989+03:00,2025-04-28T22:17:59.397+03:00,21,0.8668733,0,0,16.08946,0,0,2025-04-28T22:42:51.752+03:00,767562429.8278584,0,-0.9300001,100.8076,1,0.35,2025-04-28T22:45:54.443+03:00,76,1.266666666666667,2025-04-22T14:20:19.516+03:00,0.02197104130929222,0
2025-04-28T22:47:11.146+03:00,1745869628.543501,40.9855756091106,29.13738873439781,126.3238,-1,-1,-1,-1,30,19.49210119458397,-9999,1478.460942416667,-0.65863037109375,0.4315185546875,-0.643890380859375,1478.450865416667,0.04577638320951508,-0.8267000813676807,-0.4859113492668597,-0.1246397420763969,-0.01871183887124062,-0.05164699256420135,0.001220345497131348,-0.0108833909034729,-0.06941103935241699,XArbitraryZVertical,-0.2113309705338235,-0.394822600008318,0.1169509424168353,0.886440502150859,-0.6505427956581116,0.4670144021511078,-0.5989086627960205,0,0,0,-1,-1,1469.30867825,unknown,2,2025-04-28T22:47:01.989+03:00,2025-04-28T22:17:59.397+03:00,21,0.8668733,0,0,16.08946,0,0,2025-04-28T22:42:51.752+03:00,767562429.8278584,0,-0.9300001,100.8076,1,0.35,2025-04-28T22:45:54.443+03:00,76,1.266666666666667,2025-04-22T14:20:19.516+03:00,0.02197104130929222,0
2025-04-28T22:47:11.156+03:00,1745869628.543501,40.9855756091106,29.13738873439781,126.3238,-1,-1,-1,-1,30,19.49210119458397,-9999,1478.471019416667,-0.6518096923828125,0.4092864990234375,-0.61279296875,1478.460942416667,0.04374886012194071,-0.8276823015962882,-0.4867913263928736,-0.2728345990180969,-0.03109320625662804,-0.06762412935495377,-0.006337583065032959,-0.02876642346382141,-0.05253684520721436,XArbitraryZVertical,-0.212065928618415,-0.3950094651710798,0.116325773797763,0.8862639822727607,-0.6508278846740723,0.4677923619747162,-0.5979911088943481,0,0,0,-1,-1,1469.30867825,unknown,2,2025-04-28T22:47:01.989+03:00,2025-04-28T22:17:59.397+03:00,21,0.8668733,0,0,16.08946,0,0,2025-04-28T22:42:51.752+03:00,767562429.8278584,0,-0.9300001,100.8076,1,0.35,2025-04-28T22:45:54.443+03:00,76,1.266666666666667,2025-04-22T14:20:19.516+03:00,0.02197104130929222,0
2025-04-28T22:47:11.166+03:00,1745869628.543501,40.9855756091106,29.13738873439781,126.3238,-1,-1,-1,-1,30,19.49210119458397,-9999,1478.481096416667,-0.646484375,0.4001922607421875,-0.5810546875,1478.471019416667,0.04018618325716596,-0.8294372785142622,-0.4887315448973302,-0.5154610872268677,-0.0284540131688118,-0.07338268309831619,-0.003381013870239258,-0.05642032623291016,-0.02467668056488037,XArbitraryZVertical,-0.2135317918259787,-0.395331742873551,0.1153084577563631,0.885901157528127,-0.6512056589126587,0.4695063233375549,-0.5962339639663696,0,0,0,-1,-1,1469.30867825,unknown,2,2025-04-28T22:47:01.989+03:00,2025-04-28T22:17:59.397+03:00,21,0.8668733,0,0,16.08946,0,0,2025-04-28T22:42:51.752+03:00,767562429.8278584,0,-0.9300001,100.8076,1,0.35,2025-04-28T22:45:54.443+03:00,76,1.266666666666667,2025-04-22T14:20:19.516+03:00,0.02197104130929222,0
2025-04-28T22:47:11.176+03:00,1745869628.543501,40.9855756091106,29.13738873439781,126.3238,-1,-1,-1,-1,30,19.49210119458397,-9999,1478.491173416667,-0.64520263671875,0.386962890625,-0.577392578125,1478.481096416667,0.0348130636032954,-0.8321305547203356,-0.4920017208411133,-0.6543699502944946,-0.0501427985727787,-0.07463889569044113,0.005064070224761963,-0.06954380869865417,0.004299163818359375,XArbitraryZVertical,-0.2158942748448483,-0.3958145708538521,0.1138515683566944,0.8853011714323524,-0.6516703963279724,0.4723911285400391,-0.5934409499168396,0,0,0,-1,-1,1469.30867825,unknown,2,2025-04-28T22:47:01.989+03:00,2025-04-28T22:17:59.397+03:00,21,0.8668733,0,0,16.08946,0,0,2025-04-28T22:42:51.752+03:00,767562429.8278584,0,-0.9300001,100.8076,1,0.35,2025-04-28T22:45:54.443+03:00,76,1.266666666666667,2025-04-22T14:20:19.516+03:00,0.02197104130929222,0
2025-04-28T22:47:11.187+03:00,1745869628.543501,40.9855756091106,29.13738873439781,126.3238,-1,-1,-1,-1,30,19.49210119458397,-9999,1478.501250416667,-0.6543121337890625,0.401336669921875,-0.584442138671875,1478.491173416667,0.02854522951101414,-0.8352889331454907,-0.4959631965550835,-0.7268409729003906,-0.04125476256012917,-0.04650020226836205,0.006946206092834473,-0.08510139584541321,0.01591604948043823,XArbitraryZVertical,-0.2187161462349978,-0.3963628023185041,0.1121919298381277,0.8845748356022129,-0.6521487236022949,0.4758790135383606,-0.5901195406913757,0,0,0,-1,-1,1469.30867825,unknown,2,2025-04-28T22:47:01.989+03:00,2025-04-28T22:17:59.397+03:00,21,0.8668733,0,0,16.08946,0,0,2025-04-28T22:42:51.752+03:00,767562429.8278584,0,-0.9300001,100.8076,1,0.35,2025-04-28T22:45:54.443+03:00,76,1.266666666666667,2025-04-22T14:20:19.516+03:00,0.02197104130929222,0
2025-04-28T22:47:11.197+03:00,1745869628.543501,40.9855756091106,29.13738873439781,126.3238,-1,-1,-1,-1,30,19.49210119458397,-9999,1478.511327416667,-0.6640625,0.44561767578125,-0.5804290771484375,1478.501250416667,0.02227245195721321,-0.8382866933408827,-0.5000874775302613,-0.7143399715423584,-0.02841340005397797,-0.02770181372761726,0.0009914040565490723,-0.08733612298965454,0.0007696151733398438,XArbitraryZVertical,-0.2216216839623677,-0.3968143133626085,0.1105546982710548,0.8838551470994741,-0.6524500846862793,0.4795023202896118,-0.5868444442749023,0,0,0,-1,-1,1469.30867825,unknown,2,2025-04-28T22:47:01.989+03:00,2025-04-28T22:17:59.397+03:00,21,0.8668733,0,0,16.08946,0,0,2025-04-28T22:42:51.752+03:00,767562429.8278584,0,-0.9300001,100.8076,1,0.35,2025-04-28T22:45:54.443+03:00,76,1.266666666666667,2025-04-22T14:20:19.516+03:00,0.02197104130929222,0
2025-04-28T22:47:11.207+03:00,1745869628.543501,40.9855756091106,29.13738873439781,126.3238,-1,-1,-1,-1,30,19.49210119458397,-9999,1478.521403416667,-0.664947509765625,0.478485107421875,-0.582366943359375,1478.511327416667,0.01660081242054427,-0.8408410235055169,-0.5038959251619526,-0.6300748586654663,-0.01855544559657574,-0.01354924309998751,-0.009558439254760742,-0.04721766710281372,0.002700924873352051,XArbitraryZVertical,-0.2242933786667802,-0.3971340906393561,0.1090814315902282,0.8832204044601977,-0.6525813937187195,0.482840895652771,-0.5839539766311646,0,0,0,-1,-1,1469.30867825,unknown,2,2025-04-28T22:47:01.989+03:00,2025-04-28T22:17:59.397+03:00,21,0.8668733,0,0,16.08946,0,0,2025-04-28T22:42:51.752+03:00,767562429.8278584,0,-0.9300001,100.8076,1,0.35,2025-04-28T22:45:54.443+03:00,76,1.266666666666667,2025-04-22T14:20:19.516+03:00,0.02197104130929222,0
2025-04-28T22:47:11.217+03:00,1745869628.543501,40.9855756091106,29.13738873439781,126.3238,-1,-1,-1,-1,30,19.49210119458397,-9999,1478.531480416667,-0.6595916748046875,0.4984130859375,-0.574676513671875,1478.521403416667,0.0118453761353944,-0.8426718488489957,-0.5071731532481306,-0.5559577941894531,-0.007025821134448051,-0.001246637315489352,-0.01309305429458618,-0.01543223857879639,-0.000115513801574707,XArbitraryZVertical,-0.2265877485649782,-0.3972492222416061,0.1078338539673235,0.8827360657399385,-0.652464747428894,0.4857081770896912,-0.5817021131515503,0,0,0,-1,-1,1469.30867825,unknown,2,2025-04-28T22:47:01.989+03:00,2025-04-28T22:17:59.397+03:00,21,0.8668733,0,0,16.08946,0,0,2025-04-28T22:42:51.752+03:00,767562429.8278584,0,-0.9300001,100.8076,1,0.35,2025-04-28T22:45:54.443+03:00,76,1.266666666666667,2025-04-22T14:20:19.516+03:00,0.02197104130929222,0
2025-04-28T22:47:11.227+03:00,1745869628.543501,40.9855756091106,29.13738873439781,126.3238,-1,-1,-1,-1,30,19.49210119458397,-9999,1478.541557416667,-0.656524658203125,0.4882049560546875,-0.5583648681640625,1478.531480416667,0.007200443080369641,-0.8449537711652194,-0.5107891024826576,-0.530196487903595,0.002268610754981637,0.001537697622552514,-0.00797349214553833,0.007304280996322632,0.001435935497283936,XArbitraryZVertical,-0.2289854586632752,-0.3975482342915224,0.1067588954589951,0.8821131290790122,-0.6524725556373596,0.4888657927513123,-0.5790421366691589,0,0,0,-1,-1,1469.30867825,unknown,2,2025-04-28T22:47:01.989+03:00,2025-04-28T22:17:59.397+03:00,21,0.8668733,0,0,16.08946,0,0,2025-04-28T22:42:51.752+03:00,767562429.8278584,0,-0.9300001,100.8076,1,0.35,2025-04-28T22:45:54.443+03:00,76,1.266666666666667,2025-04-22T14:20:19.516+03:00,0.02197104130929222,0
2025-04-28T22:47:11.237+03:00,1745869628.543501,40.9855756091106,29.13738873439781,126.3238,-1,-1,-1,-1,30,19.49210119458397,-9999,1478.551634416667,-0.654266357421875,0.48211669921875,-0.5447845458984375,1478.541557416667,0.002671162481576002,-0.8471200546271693,-0.5142951746563859,-0.5152479410171509,0.01094831898808479,-0.0006345430156216025,-0.004881083965301514,-0.0009544789791107178,0.01418721675872803,XArbitraryZVertical,-0.231317739046487,-0.3978035526015898,0.1057063255188551,0.8815160921354075,-0.6524369716644287,0.4919213354587555,-0.5764888525009155,0,0,0,-1,-1,1469.30867825,unknown,2,2025-04-28T22:47:01.989+03:00,2025-04-28T22:17:59.397+03:00,21,0.8668733,0,0,16.08946,0,0,2025-04-28T22:42:51.752+03:00,767562429.8278584,0,-0.9300001,100.8076,1,0.35,2025-04-28T22:45:54.443+03:00,76,1.266666666666667,2025-04-22T14:20:19.516+03:00,0.02197104130929222,0
2025-04-28T22:47:11.247+03:00,1745869628.543501,40.9855756091106,29.13738873439781,126.3238,-1,-1,-1,-1,30,19.49210119458397,-9999,1478.561711416667,-0.6543426513671875,0.4942779541015625,-0.5374298095703125,1478.551634416667,-0.001685756683118057,-0.8490948752097086,-0.5176199637754433,-0.4827728569507599,0.02597307413816452,-0.003629534039646387,-0.002030313014984131,-0.01245242357254028,0.0263250470161438,XArbitraryZVertical,-0.2335457425368694,-0.3979932210318,0.1046773718959275,0.880965583259652,-0.6523427367210388,0.4948132932186127,-0.5741155743598938,0,0,0,-1,-1,1469.30867825,unknown,2,2025-04-28T22:47:01.989+03:00,2025-04-28T22:17:59.397+03:00,21,0.8668733,0,0,16.08946,0,0,2025-04-28T22:42:51.752+03:00,767562429.8278584,0,-0.9300001,100.8076,1,0.35,2025-04-28T22:45:54.443+03:00,76,1.266666666666667,2025-04-22T14:20:19.516+03:00,0.02197104130929222,0
2025-04-28T22:47:11.257+03:00,1745869628.543501,40.9855756091106,29.13738873439781,126.3238,-1,-1,-1,-1,30,19.49210119458397,-9999,1478.571788416667,-0.6509857177734375,0.5185089111328125,-0.533966064453125,1478.561711416667,-0.005641460730119657,-0.8506922184699514,-0.5205475942181853,-0.408405065536499,0.04586349055171013,-0.008095355704426765,-0.002633154392242432,-0.007502317428588867,0.03308308124542236,XArbitraryZVertical,-0.2355384519296201,-0.3980755102734109,0.103706622556846,0.8805125857453578,-0.6521672010421753,0.4973552823066711,-0.5721150636672974,0,0,0,-1,-1,1469.30867825,unknown,2,2025-04-28T22:47:01.989+03:00,2025-04-28T22:17:59.397+03:00,21,0.8668733,0,0,16.08946,0,0,2025-04-28T22:42:51.752+03:00,767562429.8278584,0,-0.9300001,100.8076,1,0.35,2025-04-28T22:45:54.443+03:00,76,1.266666666666667,2025-04-22T14:20:19.516+03:00,0.02197104130929222,0
2025-04-28T22:47:11.267+03:00,1745869628.543501,40.9855756091106,29.13738873439781,126.3238,-1,-1,-1,-1,30,19.49210119458397,-9999,1478.581865416667,-0.65509033203125,0.5247650146484375,-0.5317840576171875,1478.571788416667,-0.008922003557161981,-0.8518011976903366,-0.5229521652983385,-0.3298572599887848,0.05807515233755112,-0.008637042716145515,0.0006392002105712891,0.01357594132423401,0.03588837385177612,XArbitraryZVertical,-0.2371915920336869,-0.3980440477418595,0.1028742999332782,0.8801806705679636,-0.651899516582489,0.499439924955368,-0.5706021785736084,0,0,0,-1,-1,1469.30867825,unknown,2,2025-04-28T22:47:01.989+03:00,2025-04-28T22:17:59.397+03:00,21,0.8668733,0,0,16.08946,0,0,2025-04-28T22:42:51.752+03:00,767562429.8278584,0,-0.9300001,100.8076,1,0.35,2025-04-28T22:45:54.443+03:00,76,1.266666666666667,2025-04-22T14:20:19.516+03:00,0.02197104130929222,0
2025-04-28T22:47:11.277+03:00,1745869628.543501,40.9855756091106,29.13738873439781,126.3238,-1,-1,-1,-1,30,19.49210119458397,-9999,1478.591942416667,-0.662109375,0.5271453857421875,-0.53192138671875,1478.581865416667,-0.01153966189410412,-0.8524173823347827,-0.5247151743930014,-0.2365072220563889,0.08056621253490448,-0.02605791017413139,-0.001687407493591309,0.02459198236465454,0.03692036867141724,XArbitraryZVertical,-0.2384557180820387,-0.3979056200990932,0.102148627733679,0.8799862196299483,-0.6515870690345764,0.500966489315033,-0.5696199536323547,0,0,0,-1,-1,1469.30867825,unknown,2,2025-04-28T22:47:01.989+03:00,2025-04-28T22:17:59.397+03:00,21,0.8668733,0,0,16.08946,0,0,2025-04-28T22:42:51.752+03:00,767562429.8278584,0,-0.9300001,100.8076,1,0.35,2025-04-28T22:45:54.443+03:00,76,1.266666666666667,2025-04-22T14:20:19.516+03:00,0.02197104130929222,0
2025-04-28T22:47:11.294+03:00,1745869628.543501,40.9855756091106,29.13738873439781,126.3238,-1,-1,-1,-1,30,19.49210119458397,-9999,1478.602019416667,-0.6597747802734375,0.5477447509765625,-0.5348663330078125,1478.591942416667,-0.013396875441278,-0.8524298101543982,-0.525711018564357,-0.1310689449310303,0.09881339222192764,-0.03183670341968536,-0.009426236152648926,0.02232658863067627,0.03762125968933105,XArbitraryZVertical,-0.2392619508375403,-0.3976331178062911,0.1015324913443599,0.8799618486294426,-0.6512182354927063,0.501828134059906,-0.5692832469940186,0,0,0,-1,-1,1469.30867825,unknown,2,2025-04-28T22:47:01.989+03:00,2025-04-28T22:17:59.397+03:00,21,0.8668733,0,0,16.08946,0,0,2025-04-28T22:42:51.752+03:00,767562429.8278584,0,-0.9300001,100.8076,1,0.35,2025-04-28T22:45:54.443+03:00,76,1.266666666666667,2025-04-22T14:20:19.516+03:00,0.02197104130929222,0
2025-04-28T22:47:11.297+03:00,1745869628.543501,40.9855756091106,29.13738873439781,126.3238,-1,-1,-1,-1,30,19.49210119458397,-9999,1478.612095416667,-0.6525115966796875,0.54840087890625,-0.543487548828125,1478.602019416667,-0.01437962952540826,-0.8518985013785714,-0.5260148316583854,-0.03883782029151917,0.1052878051996231,-0.03870632871985435,-0.01120162010192871,0.04014545679092407,0.03547108173370361,XArbitraryZVertical,-0.2396176262804959,-0.397264449810669,0.1010973506272886,0.8800816207821525,-0.650800883769989,0.5020909309387207,-0.5695286989212036,0,0,0,-1,-1,1469.30867825,unknown,2,2025-04-28T22:47:01.989+03:00,2025-04-28T22:17:59.397+03:00,21,0.8668733,0,0,16.08946,0,0,2025-04-28T22:42:51.752+03:00,767562429.8278584,0,-0.9300001,100.8076,1,0.35,2025-04-28T22:45:54.443+03:00,76,1.266666666666667,2025-04-22T14:20:19.516+03:00,0.02197104130929222,0
2025-04-28T22:47:11.308+03:00,1745869628.543501,40.9855756091106,29.13738873439781,126.3238,-1,-1,-1,-1,30,19.49210119458397,-9999,1478.622172416667,-0.656341552734375,0.5302581787109375,-0.5548858642578125,1478.612095416667,-0.01472948070157737,-0.8509742120955976,-0.5256872596375181,0.03984260931611061,0.1132189631462097,-0.04781274124979973,-0.003319144248962402,0.0497366189956665,0.02965003252029419,XArbitraryZVertical,-0.2395898218476089,-0.3968343922122291,0.1007670624486838,0.8803210279570206,-0.650397777557373,0.5018075704574585,-0.5702383518218994,0,0,0,-1,-1,1469.30867825,unknown,2,2025-04-28T22:47:01.989+03:00,2025-04-28T22:17:59.397+03:00,21,0.8668733,0,0,16.08946,0,0,2025-04-28T22:42:51.752+03:00,767562429.8278584,0,-0.9300001,100.8076,1,0.35,2025-04-28T22:45:54.443+03:00,76,1.266666666666667,2025-04-22T14:20:19.516+03:00,0.02197104130929222,0
2025-04-28T22:47:11.317+03:00,1745869628.543501,40.9855756091106,29.13738873439781,126.3238,-1,-1,-1,-1,30,19.49210119458397,-9999,1478.632249416667,-0.657867431640625,0.5225982666015625,-0.5634613037109375,1478.622172416667,-0.01442637786587443,-0.8496009771834703,-0.5248142417340292,0.1106854900717735,0.126852348446846,-0.04679201915860176,-0.005010008811950684,0.03283756971359253,0.01966214179992676,XArbitraryZVertical,-0.2392151735202089,-0.3963156464651975,0.1005615127267985,0.8806800314970159,-0.6499428749084473,0.5010522603988647,-0.5714200139045715,0,0,0,-1,-1,1469.30867825,unknown,2,2025-04-28T22:47:01.989+03:00,2025-04-28T22:17:59.397+03:00,21,0.8668733,0,0,16.08946,0,0,2025-04-28T22:42:51.752+03:00,767562429.8278584,0,-0.9300001,100.8076,1,0.35,2025-04-28T22:45:54.443+03:00,76,1.266666666666667,2025-04-22T14:20:19.516+03:00,0.02197104130929222,0
2025-04-28T22:47:11.328+03:00,1745869628.543501,40.9855756091106,29.13738873439781,126.3238,-1,-1,-1,-1,30,19.49210119458397,-9999,1478.642326416667,-0.652099609375,0.5168609619140625,-0.566558837890625,1478.632249416667,-0.0136476444642508,-0.8479075355294479,-0.5235947601231078,0.1417749673128128,0.1314955800771713,-0.04737098887562752,-0.008862555027008057,0.02313584089279175,0.01144599914550781,XArbitraryZVertical,-0.2386098719884728,-0.3957316137544443,0.1004587207737488,0.881118487708156,-0.6494320034980774,0.4999965131282806,-0.5729236602783203,0,0,0,-1,-1,1469.30867825,unknown,2,2025-04-28T22:47:01.989+03:00,2025-04-28T22:17:59.397+03:00,21,0.8668733,0,0,16.08946,0,0,2025-04-28T22:42:51.752+03:00,767562429.8278584,0,-0.9300001,100.8076,1,0.35,2025-04-28T22:45:54.443+03:00,76,1.266666666666667,2025-04-22T14:20:19.516+03:00,0.02197104130929222,0
2025-04-28T22:47:11.338+03:00,1745869628.543501,40.9855756091106,29.13738873439781,126.3238,-1,-1,-1,-1,30,19.49210119458397,-9999,1478.652403416667,-0.6468353271484375,0.4962310791015625,-0.56402587890625,1478.642326416667,-0.01289463376468945,-0.8462089654326104,-0.5223682315765267,0.1019595786929131,0.1305974870920181,-0.05063432455062866,-0.005639553070068359,0.02079573273658752,0.008056282997131348,XArbitraryZVertical,-0.2380066173151093,-0.3951415526342424,0.1003437142461747,0.881559517065453,-0.6489166617393494,0.4989339411258698,-0.5744320154190063,0,0,0,-1,-1,1469.30867825,unknown,2,2025-04-28T22:47:01.989+03:00,2025-04-28T22:17:59.397+03:00,21,0.8668733,0,0,16.08946,0,0,2025-04-28T22:42:51.752+03:00,767562429.8278584,0,-0.9300001,100.8076,1,0.35,2025-04-28T22:45:54.443+03:00,76,1.266666666666667,2025-04-22T14:20:19.516+03:00,0.02197104130929222,0
2025-04-28T22:47:11.348+03:00,1745869628.543501,40.9855756091106,29.13738873439781,126.3238,-1,-1,-1,-1,30,19.49210119458397,-9999,1478.662480416667,-0.6469573974609375,0.4749603271484375,-0.557403564453125,1478.652403416667,-0.01279605970089217,-0.8448331925917536,-0.5215495287224692,0.01566304080188274,0.1297799050807953,-0.05807919427752495,0.001138031482696533,0.004461348056793213,0.0104554295539856,XArbitraryZVertical,-0.237695697766441,-0.3945923885370236,0.1000606807446546,0.8819214850089823,-0.6484310030937195,0.4982242584228516,-0.5755952000617981,0,0,0,-1,-1,1469.30867825,unknown,2,2025-04-28T22:47:01.989+03:00,2025-04-28T22:17:59.397+03:00,21,0.8668733,0,0,16.08946,0,0,2025-04-28T22:42:51.752+03:00,767562429.8278584,0,-0.9300001,100.8076,1,0.35,2025-04-28T22:45:54.443+03:00,76,1.266666666666667,2025-04-22T14:20:19.516+03:00,0.02197104130929222,0
2025-04-28T22:47:11.358+03:00,1745869628.543501,40.9855756091106,29.13738873439781,126.3238,-1,-1,-1,-1,30,19.49210119458397,-9999,1478.672557416667,-0.6451873779296875,0.475006103515625,-0.556854248046875,1478.662480416667,-0.01343787392597634,-0.8438692683729431,-0.5211739333636878,-0.04607802256941795,0.12926384806633,-0.06844870746135712,0.0005242824554443359,-0.01877254247665405,0.01743006706237793,XArbitraryZVertical,-0.2377049870953046,-0.3941119335557513,0.09958844837717472,0.882187139495508,-0.6480156183242798,0.4978985488414764,-0.5763442516326904,0,0,0,-1,-1,1469.30867825,unknown,2,2025-04-28T22:47:01.989+03:00,2025-04-28T22:17:59.397+03:00,21,0.8668733,0,0,16.08946,0,0,2025-04-28T22:42:51.752+03:00,767562429.8278584,0,-0.9300001,100.8076,1,0.35,2025-04-28T22:45:54.443+03:00,76,1.266666666666667,2025-04-22T14:20:19.516+03:00,0.02197104130929222,0
2025-04-28T22:47:11.368+03:00,1745869628.543501,40.9855756091106,29.13738873439781,126.3238,-1,-1,-1,-1,30,19.49210119458397,-9999,1478.682634416667,-0.6438446044921875,0.482391357421875,-0.553497314453125,1478.672557416667,-0.01450730831583463,-0.8431135757592059,-0.5211977778228437,-0.09241516143083572,0.1255932152271271,-0.05458482727408409,0.001025676727294922,-0.02462208271026611,0.02039891481399536,XArbitraryZVertical,-0.2379636203116271,-0.3936500488079053,0.09903153295844784,0.8823863488414112,-0.6475710272789001,0.4979192316532135,-0.5768259167671204,0,0,0,-1,-1,1469.30867825,unknown,2,2025-04-28T22:47:01.989+03:00,2025-04-28T22:17:59.397+03:00,21,0.8668733,0,0,16.08946,0,0,2025-04-28T22:42:51.752+03:00,767562429.8278584,0,-0.9300001,100.8076,1,0.35,2025-04-28T22:45:54.443+03:00,76,1.266666666666667,2025-04-22T14:20:19.516+03:00,0.02197104130929222,0
2025-04-28T22:47:11.378+03:00,1745869628.543501,40.9855756091106,29.13738873439781,126.3238,-1,-1,-1,-1,30,19.49210119458397,-9999,1478.692711416667,-0.6432342529296875,0.47698974609375,-0.5596466064453125,1478.682634416667,-0.01581737412762423,-0.8425048848771471,-0.5215371780012732,-0.1220611408352852,0.1249740868806839,-0.04544202983379364,0.002913475036621094,-0.01586794853210449,0.02246576547622681,XArbitraryZVertical,-0.2384008747922966,-0.3932064545295693,0.0984483951259623,0.8825312708917621,-0.6470935940742493,0.498213529586792,-0.5771074295043945,0,0,0,-1,-1,1469.30867825,unknown,2,2025-04-28T22:47:01.989+03:00,2025-04-28T22:17:59.397+03:00,21,0.8668733,0,0,16.08946,0,0,2025-04-28T22:42:51.752+03:00,767562429.8278584,0,-0.9300001,100.8076,1,0.35,2025-04-28T22:45:54.443+03:00,76,1.266666666666667,2025-04-22T14:20:19.516+03:00,0.02197104130929222,0
2025-04-28T22:47:11.388+03:00,1745869628.543501,40.9855756091106,29.13738873439781,126.3238,-1,-1,-1,-1,30,19.49210119458397,-9999,1478.702787416667,-0.6444549560546875,0.475067138671875,-0.5736541748046875,1478.692711416667,-0.01760225393597274,-0.8427384714343087,-0.5232670678309801,-0.1226374432444572,0.1216504648327827,-0.03419256955385208,0.003975570201873779,-0.02067825198173523,0.02000069618225098,XArbitraryZVertical,-0.2395019526094592,-0.3929985321184483,0.09803216134032161,0.8823721675863347,-0.646584153175354,0.4997127056121826,-0.5763819217681885,0,0,0,-1,-1,1469.30867825,unknown,2,2025-04-28T22:47:01.989+03:00,2025-04-28T22:17:59.397+03:00,21,0.8668733,0,0,16.08946,0,0,2025-04-28T22:42:51.752+03:00,767562429.8278584,0,-0.9300001,100.8076,1,0.35,2025-04-28T22:45:54.443+03:00,76,1.266666666666667,2025-04-22T14:20:19.516+03:00,0.02197104130929222,0
2025-04-28T22:47:11.398+03:00,1745869628.543501,40.9855756091106,29.13738873439781,126.3238,-1,-1,-1,-1,30,19.49210119458397,-9999,1478.712864416667,-0.642791748046875,0.4820404052734375,-0.59246826171875,1478.702787416667,-0.01916908348269988,-0.8427300882285643,-0.5244830695061168,-0.1189082860946655,0.1182783022522926,-0.03358859568834305,0.001456737518310547,-0.02586627006530762,0.007073879241943359,XArbitraryZVertical,-0.2403454256774285,-0.3927375615702279,0.09758143009929331,0.8823089484145381,-0.6461252570152283,0.5007656216621399,-0.5759825706481934,0,0,0,-1,-1,1469.30867825,unknown,2,2025-04-28T22:47:01.989+03:00,2025-04-28T22:17:59.397+03:00,21,0.8668733,0,0,16.08946,0,0,2025-04-28T22:42:51.752+03:00,767562429.8278584,0,-0.9300001,100.8076,1,0.35,2025-04-28T22:45:54.443+03:00,76,1.266666666666667,2025-04-22T14:20:19.516+03:00,0.02197104130929222,0
2025-04-28T22:47:11.408+03:00,1745869628.543501,40.9855756091106,29.13738873439781,126.3238,-1,-1,-1,-1,30,19.49210119458397,-9999,1478.722941416667,-0.6375885009765625,0.4942474365234375,-0.5991973876953125,1478.712864416667,-0.02077445311076095,-0.8426883907211613,-0.5254673525870242,-0.1433116346597672,0.1130806133151054,-0.03696788102388382,0.002300500869750977,-0.02244555950164795,-0.01176685094833374,XArbitraryZVertical,-0.2410957513729295,-0.3924693686966872,0.09706373221207686,0.8822807442123559,-0.6457329988479614,0.5016173720359802,-0.5756812691688538,0,0,0,-1,-1,1469.30867825,unknown,2,2025-04-28T22:47:01.989+03:00,2025-04-28T22:17:59.397+03:00,21,0.8668733,0,0,16.08946,0,0,2025-04-28T22:42:51.752+03:00,767562429.8278584,0,-0.9300001,100.8076,1,0.35,2025-04-28T22:45:54.443+03:00,76,1.266666666666667,2025-04-22T14:20:19.516+03:00,0.02197104130929222,0
2025-04-28T22:47:11.418+03:00,1745869628.543501,40.9855756091106,29.13738873439781,126.3238,-1,-1,-1,-1,30,19.49210119458397,-9999,1478.733018416667,-0.6345062255859375,0.4971466064453125,-0.5980224609375,1478.722941416667,-0.02256994141093785,-0.8426894268785214,-0.5264919985994139,-0.1616078168153763,0.1073601469397545,-0.04374855756759644,0.006220042705535889,-0.01127725839614868,-0.02346241474151611,XArbitraryZVertical,-0.2418987375641854,-0.3921936608770967,0.09647544265526667,0.8822480816918479,-0.6453496217727661,0.502503514289856,-0.5753382444381714,0,0,0,-1,-1,1469.30867825,unknown,2,2025-04-28T22:47:01.989+03:00,2025-04-28T22:17:59.397+03:00,21,0.8668733,0,0,16.08946,0,0,2025-04-28T22:42:51.752+03:00,767562429.8278584,0,-0.9300001,100.8076,1,0.35,2025-04-28T22:45:54.443+03:00,76,1.266666666666667,2025-04-22T14:20:19.516+03:00,0.02197104130929222,0
2025-04-28T22:47:11.429+03:00,1745869628.543501,40.9855756091106,29.13738873439781,126.3238,-1,-1,-1,-1,30,19.49210119458397,-9999,1478.743095416667,-0.636138916015625,0.492431640625,-0.5879669189453125,1478.733018416667,-0.02452613249189692,-0.8427484830776151,-0.5273630490198777,-0.1862007826566696,0.1077574864029884,-0.04494884610176086,0.01016896963119507,-0.006002962589263916,-0.02402091026306152,XArbitraryZVertical,-0.2426625300753101,-0.3919318508121747,0.09579289223377957,0.8822289849366463,-0.6450566053390503,0.5032563805580139,-0.5750086307525635,0,0,0,-1,-1,1469.30867825,unknown,2,2025-04-28T22:47:01.989+03:00,2025-04-28T22:17:59.397+03:00,21,0.8668733,0,0,16.08946,0,0,2025-04-28T22:42:51.752+03:00,767562429.8278584,0,-0.9300001,100.8076,1,0.35,2025-04-28T22:45:54.443+03:00,76,1.266666666666667,2025-04-22T14:20:19.516+03:00,0.02197104130929222,0
2025-04-28T22:47:11.439+03:00,1745869628.543501,40.9855756091106,29.13738873439781,126.3238,-1,-1,-1,-1,30,19.49210119458397,-9999,1478.753172416667,-0.6348114013671875,0.4818572998046875,-0.5758514404296875,1478.743095416667,-0.02679371640856304,-0.8430698167721826,-0.5280637673923327,-0.2292488515377045,0.1035785153508186,-0.04297221451997757,0.008793294429779053,-0.009751677513122559,-0.01694029569625854,XArbitraryZVertical,-0.2433995979828778,-0.3917566956628619,0.09497110706168123,0.8821926347262621,-0.644977867603302,0.5038617849349976,-0.574566662311554,0,0,0,-1,-1,1469.30867825,unknown,2,2025-04-28T22:47:01.989+03:00,2025-04-28T22:17:59.397+03:00,21,0.8668733,0,0,16.08946,0,0,2025-04-28T22:42:51.752+03:00,767562429.8278584,0,-0.9300001,100.8076,1,0.35,2025-04-28T22:45:54.443+03:00,76,1.266666666666667,2025-04-22T14:20:19.516+03:00,0.02197104130929222,0
2025-04-28T22:47:11.449+03:00,1745869628.543501,40.9855756091106,29.13738873439781,126.3238,-1,-1,-1,-1,30,19.49210119458397,-9999,1478.763249416667,-0.6357879638671875,0.4689483642578125,-0.5654144287109375,1478.753172416667,-0.02984810171712484,-0.8438223355308505,-0.5291950253461538,-0.3627009093761444,0.1040275245904922,-0.05161736905574799,0.008997499942779541,-0.02055513858795166,-0.005338549613952637,XArbitraryZVertical,-0.2444595053706942,-0.3916485402278109,0.09394108770551311,0.8820578673748681,-0.6449837684631348,0.5048386454582214,-0.5737019181251526,0,0,0,-1,-1,1469.30867825,unknown,2,2025-04-28T22:47:01.989+03:00,2025-04-28T22:17:59.397+03:00,21,0.8668733,0,0,16.08946,0,0,2025-04-28T22:42:51.752+03:00,767562429.8278584,0,-0.9300001,100.8076,1,0.35,2025-04-28T22:45:54.443+03:00,76,1.266666666666667,2025-04-22T14:20:19.516+03:00,0.02197104130929222,0
2025-04-28T22:47:11.459+03:00,1745869628.543501,40.9855756091106,29.13738873439781,126.3238,-1,-1,-1,-1,30,19.49210119458397,-9999,1478.773326416667,-0.635589599609375,0.45355224609375,-0.5633087158203125,1478.763249416667,-0.03434795200280912,-0.8453662798942595,-0.5315190416089509,-0.5320289731025696,0.09661169350147247,-0.04756270349025726,0.009842157363891602,-0.03508734703063965,0.003260970115661621,XArbitraryZVertical,-0.2462894067720953,-0.3916360313752922,0.0926103604909576,0.8816950247350018,-0.6449891924858093,0.5068433880805969,-0.5719255208969116,0,0,0,-1,-1,1469.30867825,unknown,2,2025-04-28T22:47:01.989+03:00,2025-04-28T22:17:59.397+03:00,21,0.8668733,0,0,16.08946,0,0,2025-04-28T22:42:51.752+03:00,767562429.8278584,0,-0.9300001,100.8076,1,0.35,2025-04-28T22:45:54.443+03:00,76,1.266666666666667,2025-04-22T14:20:19.516+03:00,0.02197104130929222,0
2025-04-28T22:47:11.469+03:00,1745869628.543501,40.9855756091106,29.13738873439781,126.3238,-1,-1,-1,-1,30,19.49210119458397,-9999,1478.783403416667,-0.631866455078125,0.4546356201171875,-0.5801849365234375,1478.773326416667,-0.03997052057417576,-0.8475305750385729,-0.5345099633826794,-0.6185790300369263,0.08614093810319901,-0.03011234104633331,0.008718430995941162,-0.05229657888412476,0.007403790950775146,XArbitraryZVertical,-0.2486033165430134,-0.3917080787361747,0.09099924395108211,0.8811811989565241,-0.6450861692428589,0.5094194412231445,-0.5695223212242126,0,0,0,-1,-1,1469.30867825,unknown,2,2025-04-28T22:47:01.989+03:00,2025-04-28T22:17:59.397+03:00,21,0.8668733,0,0,16.08946,0,0,2025-04-28T22:42:51.752+03:00,767562429.8278584,0,-0.9300001,100.8076,1,0.35,2025-04-28T22:45:54.443+03:00,76,1.266666666666667,2025-04-22T14:20:19.516+03:00,0.02197104130929222,0
2025-04-28T22:47:11.479+03:00,1745869628.543501,40.9855756091106,29.13738873439781,126.3238,-1,-1,-1,-1,30,19.49210119458397,-9999,1478.793479416667,-0.625335693359375,0.4779052734375,-0.604827880859375,1478.783403416667,-0.04560948631290395,-0.8496506509059081,-0.5376924150187828,-0.6142988204956055,0.0627995952963829,-0.02022725343704224,0.01204520463943481,-0.06044942140579224,-0.007581114768981934,XArbitraryZVertical,-0.2510064628583635,-0.3917341964876753,0.08942007989259215,0.8806497998845607,-0.645071268081665,0.5121554136276245,-0.5670801401138306,0,0,0,-1,-1,1469.30867825,unknown,2,2025-04-28T22:47:01.989+03:00,2025-04-28T22:17:59.397+03:00,21,0.8668733,0,0,16.08946,0,0,2025-04-28T22:42:51.752+03:00,767562429.8278584,0,-0.9300001,100.8076,1,0.35,2025-04-28T22:45:54.443+03:00,76,1.266666666666667,2025-04-22T14:20:19.516+03:00,0.02197104130929222,0
2025-04-28T22:47:11.489+03:00,1745869628.543501,40.9855756091106,29.13738873439781,126.3238,-1,-1,-1,-1,30,19.49210119458397,-9999,1478.803556416667,-0.6236114501953125,0.512451171875,-0.6280975341796875,1478.793479416667,-0.05082810243883125,-0.8517530037788386,-0.5414183511698744,-0.5348109006881714,0.04694712907075882,-0.01344950776547194,0.01811277866363525,-0.04533547163009644,-0.03310281038284302,XArbitraryZVertical,-0.2535655081095898,-0.3917570600779094,0.08813982190292098,0.8800353299752702,-0.6448216438293457,0.5153520107269287,-0.564461886882782,0,0,0,-1,-1,1469.30867825,unknown,2,2025-04-28T22:47:01.989+03:00,2025-04-28T22:17:59.397+03:00,21,0.8668733,0,0,16.08946,0,0,2025-04-28T22:42:51.752+03:00,767562429.8278584,0,-0.9300001,100.8076,1,0.35,2025-04-28T22:45:54.443+03:00,76,1.266666666666667,2025-04-22T14:20:19.516+03:00,0.02197104130929222,0
2025-04-28T22:47:11.499+03:00,1745869628.543501,40.9855756091106,29.13738873439781,126.3238,-1,-1,-1,-1,30,19.49210119458397,-9999,1478.813633416667,-0.622955322265625,0.5346832275390625,-0.622650146484375,1478.803556416667,-0.05527135009489059,-0.8537301892777891,-0.5445679791625072,-0.4528422057628632,0.01643542945384979,-0.01556186005473137,0.02067118883132935,-0.01369982957839966,-0.06207489967346191,XArbitraryZVertical,-0.2557255268080844,-0.3918498177380929,0.08707448973444228,0.8794748984949803,-0.6447098255157471,0.5180485844612122,-0.5621163249015808,0,0,0,-1,-1,1469.30867825,unknown,2,2025-04-28T22:47:01.989+03:00,2025-04-28T22:17:59.397+03:00,21,0.8668733,0,0,16.08946,0,0,2025-04-28T22:42:51.752+03:00,767562429.8278584,0,-0.9300001,100.8076,1,0.35,2025-04-28T22:45:54.443+03:00,76,1.266666666666667,2025-04-22T14:20:19.516+03:00,0.02197104130929222,0
2025-04-28T22:47:11.509+03:00,1745869628.543501,40.9855756091106,29.13738873439781,126.3238,-1,-1,-1,-1,30,19.49210119458397,-9999,1478.823710416667,-0.6219329833984375,0.5303955078125,-0.5926513671875,1478.813633416667,-0.05956994950789157,-0.8559999730871773,-0.54745129496769,-0.4901256561279297,-0.02338282391428947,-0.02947421371936798,0.02127242088317871,0.01090514659881592,-0.06729823350906372,XArbitraryZVertical,-0.2577279850509349,-0.3920984850216027,0.08606164954608975,0.8788789761862074,-0.6448532342910767,0.5205127000808716,-0.5596701502799988,0,0,0,-1,-1,1469.30867825,unknown,2,2025-04-28T22:47:01.989+03:00,2025-04-28T22:17:59.397+03:00,21,0.8668733,0,0,16.08946,0,0,2025-04-28T22:42:51.752+03:00,767562429.8278584,0,-0.9300001,100.8076,1,0.35,2025-04-28T22:45:54.443+03:00,76,1.266666666666667,2025-04-22T14:20:19.516+03:00,0.02197104130929222,0
2025-04-28T22:47:11.519+03:00,1745869628.543501,40.9855756091106,29.13738873439781,126.3238,-1,-1,-1,-1,30,19.49210119458397,-9999,1478.833787416667,-0.62841796875,0.5063323974609375,-0.5638885498046875,1478.823710416667,-0.06486072001484609,-0.8591118724624837,-0.5508844499686077,-0.645243763923645,-0.04481827095150948,-0.04274923726916313,0.02357655763626099,0.01015889644622803,-0.04440069198608398,XArbitraryZVertical,-0.2601287915672911,-0.3925402090257727,0.08484033534263374,0.8780930226749573,-0.6452348232269287,0.5234410166740417,-0.556490421295166,0,0,0,-1,-1,1469.30867825,unknown,2,2025-04-28T22:47:01.989+03:00,2025-04-28T22:17:59.397+03:00,21,0.8668733,0,0,16.08946,0,0,2025-04-28T22:42:51.752+03:00,767562429.8278584,0,-0.9300001,100.8076,1,0.35,2025-04-28T22:45:54.443+03:00,76,1.266666666666667,2025-04-22T14:20:19.516+03:00,0.02197104130929222,0
2025-04-28T22:47:11.529+03:00,1745869628.543501,40.9855756091106,29.13738873439781,126.3238,-1,-1,-1,-1,30,19.49210119458397,-9999,1478.843864416667,-0.6385498046875,0.4895782470703125,-0.5495147705078125,1478.833787416667,-0.07179718114113255,-0.8632335799233617,-0.5553437467414168,-0.8184866905212402,-0.05382508412003517,-0.04773760586977005,0.02019345760345459,-0.01455533504486084,-0.01752066612243652,XArbitraryZVertical,-0.2632573424413061,-0.3931206068531149,0.08324969544626121,0.87705260886834,-0.6457427144050598,0.5272354483604431,-0.5523034930229187,0,0,0,-1,-1,1469.30867825,unknown,2,2025-04-28T22:47:01.989+03:00,2025-04-28T22:17:59.397+03:00,21,0.8668733,0,0,16.08946,0,0,2025-04-28T22:42:51.752+03:00,767562429.8278584,0,-0.9300001,100.8076,1,0.35,2025-04-28T22:45:54.443+03:00,76,1.266666666666667,2025-04-22T14:20:19.516+03:00,0.02197104130929222,0
2025-04-28T22:47:11.539+03:00,1745869628.543501,40.9855756091106,29.13738873439781,126.3238,-1,-1,-1,-1,30,19.49210119458397,-9999,1478.853941416667,-0.6387176513671875,0.4942474365234375,-0.5701904296875,1478.843864416667,-0.08015179162103732,-0.868148529533513,-0.5607250415231851,-0.9372804164886475,-0.04931708425283432,-0.04964080452919006,0.01025813817977905,-0.03979593515396118,-0.002996087074279785,XArbitraryZVertical,-0.2670331744332253,-0.3937670179612859,0.08134989228166936,0.8757985695732964,-0.6462749242782593,0.5318003296852112,-0.5472816228866577,0,0,0,-1,-1,1469.30867825,unknown,2,2025-04-28T22:47:01.989+03:00,2025-04-28T22:17:59.397+03:00,21,0.8668733,0,0,16.08946,0,0,2025-04-28T22:42:51.752+03:00,767562429.8278584,0,-0.9300001,100.8076,1,0.35,2025-04-28T22:45:54.443+03:00,76,1.266666666666667,2025-04-22T14:20:19.516+03:00,0.02197104130929222,0
2025-04-28T22:47:11.549+03:00,1745869628.543501,40.9855756091106,29.13738873439781,126.3238,-1,-1,-1,-1,30,19.49210119458397,-9999,1478.864018416667,-0.6263427734375,0.5128173828125,-0.60986328125,1478.853941416667,-0.08926868368792849,-0.8736292506433254,-0.5666206792744374,-0.973866879940033,-0.07864434272050858,-0.04225026071071625,0.006728291511535645,-0.04575598239898682,-0.01989084482192993,XArbitraryZVertical,-0.2711599799768787,-0.394484218950169,0.07932300795210048,0.874392618441,-0.6468497514724731,0.5367839336395264,-0.5417089462280273,0,0,0,-1,-1,1469.30867825,unknown,2,2025-04-28T22:47:01.989+03:00,2025-04-28T22:17:59.397+03:00,21,0.8668733,0,0,16.08946,0,0,2025-04-28T22:42:51.752+03:00,767562429.8278584,0,-0.9300001,100.8076,1,0.35,2025-04-28T22:45:54.443+03:00,76,1.266666666666667,2025-04-22T14:20:19.516+03:00,0.02197104130929222,0
2025-04-28T22:47:11.559+03:00,1745869628.543501,40.9855756091106,29.13738873439781,126.3238,-1,-1,-1,-1,30,19.49210119458397,-9999,1478.874095416667,-0.6168670654296875,0.55694580078125,-0.6634368896484375,1478.864018416667,-0.09832433582519094,-0.8795427879921922,-0.5723854755512956,-0.9233397841453552,-0.128736287355423,-0.04929059371352196,0.01755058765411377,-0.03443664312362671,-0.06261813640594482,XArbitraryZVertical,-0.2752024706338931,-0.3953697883525503,0.07738211044503472,0.8729023167414791,-0.6476469039916992,0.5416388511657715,-0.5358926653862,0,0,0,-1,-1,1469.30867825,unknown,2,2025-04-28T22:47:01.989+03:00,2025-04-28T22:17:59.397+03:00,21,0.8668733,0,0,16.08946,0,0,2025-04-28T22:42:51.752+03:00,767562429.8278584,0,-0.9300001,100.8076,1,0.35,2025-04-28T22:45:54.443+03:00,76,1.266666666666667,2025-04-22T14:20:19.516+03:00,0.02197104130929222,0
2025-04-28T22:47:11.569+03:00,1745869628.543501,40.9855756091106,29.13738873439781,126.3238,-1,-1,-1,-1,30,19.49210119458397,-9999,1478.884171416667,-0.6260833740234375,0.599517822265625,-0.6859130859375,1478.874095416667,-0.1070139899599236,-0.8858877034423667,-0.5776402867027917,-0.8577131032943726,-0.1892318576574326,-0.06542722135782242,0.03164851665496826,-0.001965880393981934,-0.1210209727287292,XArbitraryZVertical,-0.2789389183939813,-0.3964980578777362,0.07558128342734027,0.8713609048131538,-0.648820698261261,0.5460485816001892,-0.5299647450447083,0,0,0,-1,-1,1469.30867825,unknown,2,2025-04-28T22:47:01.989+03:00,2025-04-28T22:17:59.397+03:00,21,0.8668733,0,0,16.08946,0,0,2025-04-28T22:42:51.752+03:00,767562429.8278584,0,-0.9300001,100.8076,1,0.35,2025-04-28T22:45:54.443+03:00,76,1.266666666666667,2025-04-22T14:20:19.516+03:00,0.02197104130929222,0
2025-04-28T22:47:11.579+03:00,1745869628.543501,40.9855756091106,29.13738873439781,126.3238,-1,-1,-1,-1,30,19.49210119458397,-9999,1478.894248416667,-0.6483001708984375,0.6023712158203125,-0.670562744140625,1478.884171416667,-0.1152950674227497,-0.8925271276710283,-0.5823102311062334,-0.818281352519989,-0.2256748825311661,-0.08415327221155167,0.02885723114013672,0.04315429925918579,-0.1610800623893738,XArbitraryZVertical,-0.2823361625006955,-0.3978272296448964,0.07390257000954387,0.8698035365492601,-0.6503323316574097,0.549954891204834,-0.5240395665168762,0,0,0,-1,-1,1469.30867825,unknown,2,2025-04-28T22:47:01.989+03:00,2025-04-28T22:17:59.397+03:00,21,0.8668733,0,0,16.08946,0,0,2025-04-28T22:42:51.752+03:00,767562429.8278584,0,-0.9300001,100.8076,1,0.35,2025-04-28T22:45:54.443+03:00,76,1.266666666666667,2025-04-22T14:20:19.516+03:00,0.02197104130929222,0
2025-04-28T22:47:11.590+03:00,1745869628.543501,40.9855756091106,29.13738873439781,126.3238,-1,-1,-1,-1,30,19.49210119458397,-9999,1478.904325416667,-0.66015625,0.581939697265625,-0.6338653564453125,1478.894248416667,-0.1244106782278303,-0.8999975936450649,-0.5870398311902709,-0.9646870493888855,-0.2621889412403107,-0.1236476823687553,0.009087324142456055,0.04992204904556274,-0.160144567489624,XArbitraryZVertical,-0.2858998780956016,-0.3993610071456851,0.07201947294625134,0.8680929300285075,-0.6521841883659363,0.5538988709449768,-0.5175440907478333,0,0,0,-1,-1,1469.30867825,unknown,2,2025-04-28T22:47:01.989+03:00,2025-04-28T22:17:59.397+03:00,21,0.8668733,0,0,16.08946,0,0,2025-04-28T22:42:51.752+03:00,767562429.8278584,0,-0.9300001,100.8076,1,0.35,2025-04-28T22:45:54.443+03:00,76,1.266666666666667,2025-04-22T14:20:19.516+03:00,0.02197104130929222,0
2025-04-28T22:47:11.600+03:00,1745869628.543501,40.9855756091106,29.13738873439781,126.3238,-1,-1,-1,-1,30,19.49210119458397,-9999,1478.914402416667,-0.65643310546875,0.5262298583984375,-0.6110687255859375,1478.904325416667,-0.1359012751357729,-0.9091646009432676,-0.5928338006736806,-1.263614654541016,-0.2865765690803528,-0.1423725038766861,-0.004562258720397949,0.03146594762802124,-0.1331214904785156,XArbitraryZVertical,-0.2903388575078992,-0.4011503724154752,0.06961674120344286,0.865988016738242,-0.6543579697608948,0.5587134957313538,-0.5095634460449219,0,0,0,-1,-1,1469.30867825,unknown,2,2025-04-28T22:47:01.989+03:00,2025-04-28T22:17:59.397+03:00,21,0.8668733,0,0,16.08946,0,0,2025-04-28T22:42:51.752+03:00,767562429.8278584,0,-0.9300001,100.8076,1,0.35,2025-04-28T22:45:54.443+03:00,76,1.266666666666667,2025-04-22T14:20:19.516+03:00,0.02197104130929222,0
2025-04-28T22:47:11.610+03:00,1745869628.543501,40.9855756091106,29.13738873439781,126.3238,-1,-1,-1,-1,30,19.49210119458397,-9999,1478.924479416667,-0.65374755859375,0.4714508056640625,-0.60369873046875,1478.914402416667,-0.1509104149810341,-0.920570861729089,-0.6005681348600456,-1.615726947784424,-0.3041947185993195,-0.138925313949585,-0.0004514455795288086,-0.02299702167510986,-0.1159054636955261,XArbitraryZVertical,-0.2962405327386296,-0.4031422516952971,0.06650192454941775,0.8633049100989414,-0.6566682457923889,0.5651112794876099,-0.4994357526302338,0,0,0,-1,-1,1469.30867825,unknown,2,2025-04-28T22:47:01.989+03:00,2025-04-28T22:17:59.397+03:00,21,0.8668733,0,0,16.08946,0,0,2025-04-28T22:42:51.752+03:00,767562429.8278584,0,-0.9300001,100.8076,1,0.35,2025-04-28T22:45:54.443+03:00,76,1.266666666666667,2025-04-22T14:20:19.516+03:00,0.02197104130929222,0
2025-04-28T22:47:11.620+03:00,1745869628.543501,40.9855756091106,29.13738873439781,126.3238,-1,-1,-1,-1,30,19.49210119458397,-9999,1478.934556416667,-0.647430419921875,0.4565277099609375,-0.608245849609375,1478.924479416667,-0.1687626353695425,-0.9339488141107246,-0.6100409510721827,-1.819869041442871,-0.3401780128479004,-0.1132023707032204,0.004050016403198242,-0.08959412574768066,-0.1156719923019409,XArbitraryZVertical,-0.3033963454565461,-0.4052777952745714,0.06293197628401613,0.8600814869714721,-0.6589571833610535,0.5729010105133057,-0.4874011278152466,0,0,0,-1,-1,1469.30867825,unknown,2,2025-04-28T22:47:01.989+03:00,2025-04-28T22:17:59.397+03:00,21,0.8668733,0,0,16.08946,0,0,2025-04-28T22:42:51.752+03:00,767562429.8278584,0,-0.9300001,100.8076,1,0.35,2025-04-28T22:45:54.443+03:00,76,1.266666666666667,2025-04-22T14:20:19.516+03:00,0.02197104130929222,0
2025-04-28T22:47:11.630+03:00,1745869628.543501,40.9855756091106,29.13738873439781,126.3238,-1,-1,-1,-1,30,19.49210119458397,-9999,1478.944633416667,-0.6576385498046875,0.4975128173828125,-0.6027374267578125,1478.934556416667,-0.1878834886488904,-0.9485919792694653,-0.6201093172942191,-1.83314323425293,-0.378131777048111,-0.09896617382764816,0.01388740539550781,-0.1259849071502686,-0.1339775919914246,XArbitraryZVertical,-0.3110325269520565,-0.4075558459943269,0.05926340365629933,0.8565307301620373,-0.6613025069236755,0.5811241269111633,-0.4743140041828156,0,0,0,-1,-1,1469.30867825,unknown,2,2025-04-28T22:47:01.989+03:00,2025-04-28T22:17:59.397+03:00,21,0.8668733,0,0,16.08946,0,0,2025-04-28T22:42:51.752+03:00,767562429.8278584,0,-0.9300001,100.8076,1,0.35,2025-04-28T22:45:54.443+03:00,76,1.266666666666667,2025-04-22T14:20:19.516+03:00,0.02197104130929222,0
2025-04-28T22:47:11.640+03:00,1745869628.543501,40.9855756091106,29.13738873439781,126.3238,-1,-1,-1,-1,30,19.49210119458397,-9999,1478.954710416667,-0.6722412109375,0.569366455078125,-0.602294921875,1478.944633416667,-0.2065176129038012,-0.963438377330852,-0.6297098863297441,-1.712403535842896,-0.4053112268447876,-0.07539427280426025,0.009423375129699707,-0.1059390902519226,-0.1431771516799927,XArbitraryZVertical,-0.3183828764922749,-0.4098938550320685,0.05585593892247407,0.8529357907804018,-0.6636591553688049,0.5889103412628174,-0.4612387418746948,0,0,0,-1,-1,1469.30867825,unknown,2,2025-04-28T22:47:01.989+03:00,2025-04-28T22:17:59.397+03:00,21,0.8668733,0,0,16.08946,0,0,2025-04-28T22:42:51.752+03:00,767562429.8278584,0,-0.9300001,100.8076,1,0.35,2025-04-28T22:45:54.443+03:00,76,1.266666666666667,2025-04-22T14:20:19.516+03:00,0.02197104130929222,0
2025-04-28T22:47:11.650+03:00,1745869628.543501,40.9855756091106,29.13738873439781,126.3238,-1,-1,-1,-1,30,19.49210119458397,-9999,1478.964787791667,-0.683807373046875,0.6112213134765625,-0.6139068603515625,1478.954710416667,-0.223508407005829,-0.9777761281542613,-0.6383335327771891,-1.504557728767395,-0.4432522058486938,-0.05372252687811852,-0.003038704395294189,-0.04442054033279419,-0.1528327763080597,XArbitraryZVertical,-0.3250209024905866,-0.4122508727578615,0.05295850521317468,0.8494739295719703,-0.6659675240516663,0.5958579182624817,-0.4488212764263153,0,0,0,-1,-1,1469.30867825,unknown,2,2025-04-28T22:47:01.989+03:00,2025-04-28T22:17:59.397+03:00,21,0.8668733,0,0,16.08946,0,0,2025-04-28T22:42:51.752+03:00,767562429.8278584,0,-0.9300001,100.8076,1,0.35,2025-04-28T22:45:54.443+03:00,76,1.266666666666667,2025-04-22T14:20:19.516+03:00,0.02197104130929222,0
2025-04-28T22:47:11.660+03:00,1745869628.543501,40.9855756091106,29.13738873439781,126.3238,-1,-1,-1,-1,30,19.49210119458397,-9999,1478.974863791667,-0.693115234375,0.61572265625,-0.6234588623046875,1478.964787791667,-0.2388951076187909,-0.9916392480531381,-0.645950628926614,-1.366890907287598,-0.4823239147663116,-0.04160498082637787,-0.01304322481155396,0.004075467586517334,-0.1725699603557587,XArbitraryZVertical,-0.3309411276229832,-0.4146726086951859,0.05052844651397971,0.8461509342572955,-0.668307363986969,0.6019577980041504,-0.4370492100715637,0,0,0,-1,-1,1469.30867825,unknown,2,2025-04-28T22:47:01.989+03:00,2025-04-28T22:17:59.397+03:00,21,0.8668733,0,0,16.08946,0,0,2025-04-28T22:42:51.752+03:00,767562429.8278584,0,-0.9300001,100.8076,1,0.35,2025-04-28T22:45:54.443+03:00,76,1.266666666666667,2025-04-22T14:20:19.516+03:00,0.02197104130929222,0
2025-04-28T22:47:11.670+03:00,1745869628.543501,40.9855756091106,29.13738873439781,126.3238,-1,-1,-1,-1,30,19.49210119458397,-9999,1478.984940791667,-0.6885528564453125,0.6158599853515625,-0.631591796875,1478.974863791667,-0.2531708939987307,-1.005273303037113,-0.6529557953592445,-1.300300121307373,-0.5103691220283508,-0.01615900732576847,-0.02010774612426758,0.009498059749603271,-0.1963212192058563,XArbitraryZVertical,-0.3363992596251004,-0.4171594873386396,0.04847257158971743,0.8428901327521867,-0.6706269383430481,0.607536792755127,-0.4256269931793213,0,0,0,-1,-1,1469.30867825,unknown,2,2025-04-28T22:47:01.989+03:00,2025-04-28T22:17:59.397+03:00,21,0.8668733,0,0,16.08946,0,0,2025-04-28T22:42:51.752+03:00,767562429.8278584,0,-0.9300001,100.8076,1,0.35,2025-04-28T22:45:54.443+03:00,76,1.266666666666667,2025-04-22T14:20:19.516+03:00,0.02197104130929222,0
2025-04-28T22:47:11.680+03:00,1745869628.543501,40.9855756091106,29.13738873439781,126.3238,-1,-1,-1,-1,30,19.49210119458397,-9999,1478.995017791667,-0.6675872802734375,0.6172332763671875,-0.6381378173828125,1478.984940791667,-0.2671496051379774,-1.019090350826588,-0.6598817933636403,-1.294877767562866,-0.5358719825744629,0.01972529105842113,-0.01891309022903442,0.001753151416778564,-0.2149536907672882,XArbitraryZVertical,-0.3417681418656104,-0.4196927128717765,0.04663780492973946,0.8395697277201133,-0.6728439331054688,0.6130234599113464,-0.4141051173210144,0,0,0,-1,-1,1469.30867825,unknown,2,2025-04-28T22:47:01.989+03:00,2025-04-28T22:17:59.397+03:00,21,0.8668733,0,0,16.08946,0,0,2025-04-28T22:42:51.752+03:00,767562429.8278584,0,-0.9300001,100.8076,1,0.35,2025-04-28T22:45:54.443+03:00,76,1.266666666666667,2025-04-22T14:20:19.516+03:00,0.02197104130929222,0
2025-04-28T22:47:11.690+03:00,1745869628.543501,40.9855756091106,29.13738873439781,126.3238,-1,-1,-1,-1,30,19.49210119458397,-9999,1479.005094791667,-0.6397705078125,0.6146697998046875,-0.6461181640625,1478.995017791667,-0.2811738829556114,-1.033403075507648,-0.6670398171636217,-1.333262085914612,-0.5924177765846252,0.05479512736201286,0.0006597638130187988,-0.0007277727127075195,-0.2337184548377991,XArbitraryZVertical,-0.3472345827612755,-0.4223031788870475,0.04501242758904814,0.8360993699066183,-0.674915075302124,0.6186630129814148,-0.4021763503551483,0,0,0,-1,-1,1469.30867825,unknown,2,2025-04-28T22:47:01.989+03:00,2025-04-28T22:17:59.397+03:00,21,0.8668733,0,0,16.08946,0,0,2025-04-28T22:42:51.752+03:00,767562429.8278584,0,-0.9300001,100.8076,1,0.35,2025-04-28T22:45:54.443+03:00,76,1.266666666666667,2025-04-22T14:20:19.516+03:00,0.02197104130929222,0
2025-04-28T22:47:11.700+03:00,1745869628.543501,40.9855756091106,29.13738873439781,126.3238,-1,-1,-1,-1,30,19.49210119458397,-9999,1479.015171791667,-0.633148193359375,0.6060028076171875,-0.6474761962890625,1479.005094791667,-0.2954512923354496,-1.04854465669833,-0.6745291784160306,-1.329379796981812,-0.6551916003227234,0.1111428588628769,0.03103357553482056,-0.009722471237182617,-0.2546370029449463,XArbitraryZVertical,-0.3528717521459494,-0.4250729334749948,0.04360098269325906,0.8324022466976948,-0.6768922209739685,0.6245296597480774,-0.3895890414714813,0,0,0,-1,-1,1469.30867825,unknown,2,2025-04-28T22:47:01.989+03:00,2025-04-28T22:17:59.397+03:00,21,0.8668733,0,0,16.08946,0,0,2025-04-28T22:42:51.752+03:00,767562429.8278584,0,-0.9300001,100.8076,1,0.35,2025-04-28T22:45:54.443+03:00,76,1.266666666666667,2025-04-22T14:20:19.516+03:00,0.02197104130929222,0
2025-04-28T22:47:11.711+03:00,1745869628.543501,40.9855756091106,29.13738873439781,126.3238,-1,-1,-1,-1,30,19.49210119458397,-9999,1479.025248791667,-0.643829345703125,0.594329833984375,-0.631072998046875,1479.015171791667,-0.3094183995859561,-1.06422078879986,-0.6823763905310317,-1.321489453315735,-0.718938410282135,0.1798910200595856,0.04540061950683594,-0.02176749706268311,-0.2720795273780823,XArbitraryZVertical,-0.3585728114202431,-0.4279660800868886,0.04260282699528586,0.8285261941126083,-0.6786097884178162,0.6306390762329102,-0.3765411376953125,0,0,0,-1,-1,1469.30867825,unknown,2,2025-04-28T22:47:01.989+03:00,2025-04-28T22:17:59.397+03:00,21,0.8668733,0,0,16.08946,0,0,2025-04-28T22:42:51.752+03:00,767562429.8278584,0,-0.9300001,100.8076,1,0.35,2025-04-28T22:45:54.443+03:00,76,1.266666666666667,2025-04-22T14:20:19.516+03:00,0.02197104130929222,0
2025-04-28T22:47:11.721+03:00,1745869628.543501,40.9855756091106,29.13738873439781,126.3238,-1,-1,-1,-1,30,19.49210119458397,-9999,1479.035325791667,-0.655303955078125,0.593353271484375,-0.60357666015625,1479.025248791667,-0.3229984572595604,-1.080335587395925,-0.6905829490210944,-1.28003716468811,-0.7759036421775818,0.2495589405298233,0.03939121961593628,-0.04082584381103516,-0.2743289768695831,XArbitraryZVertical,-0.3643172805752109,-0.4309517964220966,0.04203921741291441,0.8244913851901762,-0.6800008416175842,0.6369866728782654,-0.3631069362163544,0,0,0,-1,-1,1469.30867825,unknown,2,2025-04-28T22:47:01.989+03:00,2025-04-28T22:17:59.397+03:00,21,0.8668733,0,0,16.08946,0,0,2025-04-28T22:42:51.752+03:00,767562429.8278584,0,-0.9300001,100.8076,1,0.35,2025-04-28T22:45:54.443+03:00,76,1.266666666666667,2025-04-22T14:20:19.516+03:00,0.02197104130929222,0
2025-04-28T22:47:11.731+03:00,1745869628.543501,40.9855756091106,29.13738873439781,126.3238,-1,-1,-1,-1,30,19.49210119458397,-9999,1479.045402791667,-0.648773193359375,0.61566162109375,-0.583038330078125,1479.035325791667,-0.335513705335069,-1.096389219065297,-0.698895341934511,-1.171160221099854,-0.8218019008636475,0.3259596824645996,0.02748984098434448,-0.05108731985092163,-0.2605467140674591,XArbitraryZVertical,-0.3698643843069723,-0.4339858473279022,0.042033393713531,0.8204204500826082,-0.6810083985328674,0.6433724164962769,-0.3497132360935211,0,0,0,-1,-1,1469.30867825,unknown,2,2025-04-28T22:47:01.989+03:00,2025-04-28T22:17:59.397+03:00,21,0.8668733,0,0,16.08946,0,0,2025-04-28T22:42:51.752+03:00,767562429.8278584,0,-0.9300001,100.8076,1,0.35,2025-04-28T22:45:54.443+03:00,76,1.266666666666667,2025-04-22T14:20:19.516+03:00,0.02197104130929222,0
2025-04-28T22:47:11.741+03:00,1745869628.543501,40.9855756091106,29.13738873439781,126.3238,-1,-1,-1,-1,30,19.49210119458397,-9999,1479.055479791667,-0.6356201171875,0.6532135009765625,-0.56085205078125,1479.045402791667,-0.346286009224942,-1.111749675384881,-0.7071267423678494,-1.020149111747742,-0.845680296421051,0.3958010971546173,0.02947509288787842,-0.04264229536056519,-0.2505638301372528,XArbitraryZVertical,-0.3750010449147561,-0.4369752178624948,0.04268722174578026,0.8164585227028586,-0.6815287470817566,0.6496521234512329,-0.3368537425994873,0,0,0,-1,-1,1469.30867825,unknown,2,2025-04-28T22:47:01.989+03:00,2025-04-28T22:17:59.397+03:00,21,0.8668733,0,0,16.08946,0,0,2025-04-28T22:42:51.752+03:00,767562429.8278584,0,-0.9300001,100.8076,1,0.35,2025-04-28T22:45:54.443+03:00,76,1.266666666666667,2025-04-22T14:20:19.516+03:00,0.02197104130929222,0
2025-04-28T22:47:11.751+03:00,1745869628.543501,40.9855756091106,29.13738873439781,126.3238,-1,-1,-1,-1,30,19.49210119458397,-9999,1479.065555791667,-0.621826171875,0.6677093505859375,-0.52880859375,1479.055479791667,-0.3551349693485619,-1.126131658910395,-0.7151651029147925,-0.8843498229980469,-0.8682180643081665,0.4519242942333221,0.04304718971252441,-0.0110735297203064,-0.2424847781658173,XArbitraryZVertical,-0.3796441101599963,-0.4398750045685534,0.04397240595719586,0.8126786835350016,-0.6815663576126099,0.6557420492172241,-0.3247606456279755,0,0,0,-1,-1,1469.30867825,unknown,2,2025-04-28T22:47:01.989+03:00,2025-04-28T22:17:59.397+03:00,21,0.8668733,0,0,16.08946,0,0,2025-04-28T22:42:51.752+03:00,767562429.8278584,0,-0.9300001,100.8076,1,0.35,2025-04-28T22:45:54.443+03:00,76,1.266666666666667,2025-04-22T14:20:19.516+03:00,0.02197104130929222,0
2025-04-28T22:47:11.761+03:00,1745869628.543501,40.9855756091106,29.13738873439781,126.3238,-1,-1,-1,-1,30,19.49210119458397,-9999,1479.075632791667,-0.6083526611328125,0.67041015625,-0.5154571533203125,1479.065555791667,-0.3623262160493732,-1.139772100064757,-0.7231008518678737,-0.7421388626098633,-0.9046477079391479,0.5209882259368896,0.05557304620742798,0.005248963832855225,-0.223462849855423,XArbitraryZVertical,-0.3838747004467326,-0.4427361690581874,0.04583200471871772,0.8090266996639985,-0.6811832785606384,0.6617127656936646,-0.313249796628952,0,0,0,-1,-1,1469.30867825,unknown,2,2025-04-28T22:47:01.989+03:00,2025-04-28T22:17:59.397+03:00,21,0.8668733,0,0,16.08946,0,0,2025-04-28T22:42:51.752+03:00,767562429.8278584,0,-0.9300001,100.8076,1,0.35,2025-04-28T22:45:54.443+03:00,76,1.266666666666667,2025-04-22T14:20:19.516+03:00,0.02197104130929222,0
2025-04-28T22:47:11.771+03:00,1745869628.543501,40.9855756091106,29.13738873439781,126.3238,-1,-1,-1,-1,30,19.49210119458397,-9999,1479.085709791667,-0.6088409423828125,0.681884765625,-0.5342254638671875,1479.075632791667,-0.3675351610369153,-1.152457993155913,-0.7311316122438092,-0.6229738593101501,-0.9251196980476379,0.6124310493469238,0.06904900074005127,0.00178217887878418,-0.2129965126514435,XArbitraryZVertical,-0.387693158949124,-0.4455183572612056,0.04839526508554978,0.80552169145216,-0.6802243590354919,0.6677124500274658,-0.3024148046970367,0,0,0,-1,-1,1469.30867825,unknown,2,2025-04-28T22:47:01.989+03:00,2025-04-28T22:17:59.397+03:00,21,0.8668733,0,0,16.08946,0,0,2025-04-28T22:42:51.752+03:00,767562429.8278584,0,-0.9300001,100.8076,1,0.35,2025-04-28T22:45:54.443+03:00,76,1.266666666666667,2025-04-22T14:20:19.516+03:00,0.02197104130929222,0
2025-04-28T22:47:11.793+03:00,1745869628.543501,40.9855756091106,29.13738873439781,126.3238,-1,-1,-1,-1,30,19.49210119458397,-9999,1479.095786791667,-0.6243133544921875,0.6951141357421875,-0.5418701171875,1479.085709791667,-0.3712788531764074,-1.164360230480949,-0.7395014549483827,-0.5411378741264343,-0.948110044002533,0.6783599257469177,0.07224941253662109,0.0050201416015625,-0.2365324795246124,XArbitraryZVertical,-0.3912937114642214,-0.4481633230542806,0.0515409615865418,0.8021111921483233,-0.678618311882019,0.673919677734375,-0.2920777201652527,0,0,0,-1,-1,1469.30867825,unknown,2,2025-04-28T22:47:01.989+03:00,2025-04-28T22:17:59.397+03:00,21,0.8668733,0,0,16.08946,0,0,2025-04-28T22:42:51.752+03:00,767562429.8278584,0,-0.9300001,100.8076,1,0.35,2025-04-28T22:45:54.443+03:00,76,1.266666666666667,2025-04-22T14:20:19.516+03:00,0.02197104130929222,0
2025-04-28T22:47:11.796+03:00,1745869628.543501,40.9855756091106,29.13738873439781,126.3238,-1,-1,-1,-1,30,19.49210119458397,-9999,1479.105863791667,-0.634918212890625,0.6970977783203125,-0.5418853759765625,1479.095786791667,-0.3731434500910173,-1.175340451343698,-0.7480349688537579,-0.3839474618434906,-0.9843660593032837,0.7754484415054321,0.0568389892578125,0.01294606924057007,-0.2599905431270599,XArbitraryZVertical,-0.3945179867662708,-0.4507371842111831,0.05534791492385615,0.7988291383458219,-0.6764525175094604,0.6801996827125549,-0.2823830842971802,0,0,0,-1,-1,1469.30867825,unknown,2,2025-04-28T22:47:01.989+03:00,2025-04-28T22:17:59.397+03:00,21,0.8668733,0,0,16.08946,0,0,2025-04-28T22:42:51.752+03:00,767562429.8278584,0,-0.9300001,100.8076,1,0.35,2025-04-28T22:45:54.443+03:00,76,1.266666666666667,2025-04-22T14:20:19.516+03:00,0.02197104130929222,0
2025-04-28T22:47:11.801+03:00,1745869628.543501,40.9855756091106,29.13738873439781,126.3238,-1,-1,-1,-1,30,19.49210119458397,-9999,1479.115940791667,-0.6424102783203125,0.7108306884765625,-0.53125,1479.105863791667,-0.3727353155638439,-1.185215397823977,-0.7568399827758079,-0.2173363864421844,-1.039672255516052,0.8550142049789429,0.03987383842468262,0.01013457775115967,-0.2690388262271881,XArbitraryZVertical,-0.3973173143195674,-0.4532392140041573,0.05995365654424344,0.7956874717472981,-0.6736322641372681,0.6866275072097778,-0.2734263241291046,0,0,0,-1,-1,1469.30867825,unknown,2,2025-04-28T22:47:01.989+03:00,2025-04-28T22:17:59.397+03:00,21,0.8668733,0,0,16.08946,0,0,2025-04-28T22:42:51.752+03:00,767562429.8278584,0,-0.9300001,100.8076,1,0.35,2025-04-28T22:45:54.443+03:00,76,1.266666666666667,2025-04-22T14:20:19.516+03:00,0.02197104130929222,0
2025-04-28T22:47:11.811+03:00,1745869628.543501,40.9855756091106,29.13738873439781,126.3238,-1,-1,-1,-1,30,19.49210119458397,-9999,1479.126017791667,-0.6490325927734375,0.726593017578125,-0.50006103515625,1479.115940791667,-0.3698667752356236,-1.193945877558866,-0.7657344041108681,-0.06984600424766541,-1.092090368270874,0.9287765622138977,0.02951103448867798,0.01385784149169922,-0.2703218162059784,XArbitraryZVertical,-0.3995821132447517,-0.4557364054600173,0.06535848284924224,0.792695789984966,-0.6702885031700134,0.6930665969848633,-0.2652769386768341,0,0,0,-1,-1,1469.30867825,unknown,2,2025-04-28T22:47:01.989+03:00,2025-04-28T22:17:59.397+03:00,21,0.8668733,0,0,16.08946,0,0,2025-04-28T22:42:51.752+03:00,767562429.8278584,0,-0.9300001,100.8076,1,0.35,2025-04-28T22:45:54.443+03:00,76,1.266666666666667,2025-04-22T14:20:19.516+03:00,0.02197104130929222,0
2025-04-28T22:47:11.821+03:00,1745869628.543501,40.9855756091106,29.13738873439781,126.3238,-1,-1,-1,-1,30,19.49210119458397,-9999,1479.136094791667,-0.6539764404296875,0.7548370361328125,-0.44000244140625,1479.126017791667,-0.3649497069866098,-1.201764892871881,-0.7747430774931046,0.05774970725178719,-1.13896656036377,0.9850499033927917,0.01910728216171265,0.02197939157485962,-0.2525344491004944,XArbitraryZVertical,-0.4014066919543413,-0.4582467051326158,0.07143856486108935,0.7897969069607126,-0.6664918065071106,0.6995325088500977,-0.2577652633190155,0,0,0,-1,-1,1469.30867825,unknown,2,2025-04-28T22:47:01.989+03:00,2025-04-28T22:17:59.397+03:00,21,0.8668733,0,0,16.08946,0,0,2025-04-28T22:42:51.752+03:00,767562429.8278584,0,-0.9300001,100.8076,1,0.35,2025-04-28T22:45:54.443+03:00,76,1.266666666666667,2025-04-22T14:20:19.516+03:00,0.02197104130929222,0
2025-04-28T22:47:11.831+03:00,1745869628.543501,40.9855756091106,29.13738873439781,126.3238,-1,-1,-1,-1,30,19.49210119458397,-9999,1479.146171791667,-0.660736083984375,0.7921142578125,-0.35638427734375,1479.136094791667,-0.3592750977976705,-1.209379168432626,-0.783909813644347,0.02570069395005703,-1.167718887329102,0.9954298734664917,0.009683907032012939,0.04094052314758301,-0.2064432203769684,XArbitraryZVertical,-0.4030764583510221,-0.4607894014516073,0.07782933766307068,0.7868577973353057,-0.6624091267585754,0.7060535550117493,-0.2504049837589264,0,0,0,-1,-1,1469.30867825,unknown,2,2025-04-28T22:47:01.989+03:00,2025-04-28T22:17:59.397+03:00,21,0.8668733,0,0,16.08946,0,0,2025-04-28T22:42:51.752+03:00,767562429.8278584,0,-0.9300001,100.8076,1,0.35,2025-04-28T22:45:54.443+03:00,76,1.266666666666667,2025-04-22T14:20:19.516+03:00,0.02197104130929222,0
