loggingTime(txt),locationTimestamp_since1970(s),locationLatitude(WGS84),locationLongitude(WGS84),locationAltitude(m),locationSpeed(m/s),locationSpeedAccuracy(m/s),locationCourse(°),locationCourseAccuracy(°),locationVerticalAccuracy(m),locationHorizontalAccuracy(m),locationFloor(Z),accelerometerTimestamp_sinceReboot(s),accelerometerAccelerationX(G),accelerometerAccelerationY(G),accelerometerAccelerationZ(G),motionTimestamp_sinceReboot(s),motionYaw(rad),motionRoll(rad),motionPitch(rad),motionRotationRateX(rad/s),motionRotationRateY(rad/s),motionRotationRateZ(rad/s),motionUserAccelerationX(G),motionUserAccelerationY(G),motionUserAccelerationZ(G),motionAttitudeReferenceFrame(txt),motionQuaternionX(R),motionQuaternionY(R),motionQuaternionZ(R),motionQuaternionW(R),motionGravityX(G),motionGravityY(G),motionGravityZ(G),motionMagneticFieldX(µT),motionMagneticFieldY(µT),motionMagneticFieldZ(µT),motionHeading(°),motionMagneticFieldCalibrationAccuracy(Z),activityTimestamp_sinceReboot(s),activity(txt),activityActivityConfidence(Z),activityActivityStartDate(txt),pedometerStartDate(txt),pedometerNumberofSteps(N),pedometerAverageActivePace(s/m),pedometerCurrentPace(s/m),pedometerCurrentCadence(steps/s),pedometerDistance(m),pedometerFloorAscended(N),pedometerFloorDescended(N),pedometerEndDate(txt),altimeterTimestamp_sinceReboot(s),altimeterReset(bool),altimeterRelativeAltitude(m),altimeterPressure(kPa),batteryState(N),batteryLevel(R),heartRateBPMTimestamp(txt),heartRateBPM(N),heartRateBPS(R),heartRateVariabilityTimestamp(txt),heartRateVariability(ms),label
2025-04-28T22:25:26.423+03:00,1745868324.265106,40.98553583423499,29.1374642380764,128.2676,-1,-1,-1,-1,30.00575485195334,24.22467901491021,-9999,462.8524928750001,-0.7431640625,0.4888458251953125,-0.471038818359375,462.842415875,-0.9573282488048335,-0.9962174753989997,-0.4642124183033094,-0.0006869040080346167,0.007750782649964094,0.004779133480042219,-0.005743324756622314,-0.03425127267837524,0.02043673396110535,XArbitraryZVertical,-0.3935200068476247,-0.319622377221985,-0.2962278620989678,0.8094643230577689,-0.7505890130996704,0.4477187097072601,-0.4859670698642731,0,0,0,-1,-1,458.117546125,unknown,2,2025-04-28T22:25:21.646+03:00,null,0,0,0,0,0,0,0,null,767561124.3248035,0,0.41,100.7959,1,0.15,2025-04-27T20:36:35.266+03:00,71,1.183333333333333,2025-04-22T14:20:19.516+03:00,0.02197104130929222,0
2025-04-28T22:25:26.426+03:00,1745868324.265106,40.98553583423499,29.1374642380764,128.2676,-1,-1,-1,-1,30.00575485195334,24.22467901491021,-9999,462.862569875,-0.743865966796875,0.462310791015625,-0.47637939453125,462.8524928750001,-0.9572019493516538,-0.9960828302866362,-0.4642138379504294,0.01990079507231712,0.01576436683535576,0.0008214764529839158,-0.02691221237182617,0.0728183388710022,0.01064977049827576,XArbitraryZVertical,-0.3934803969239949,-0.3195923774776845,-0.2962028716420376,0.8095045385458854,-0.7505230307579041,0.4477199614048004,-0.4860677719116211,0,0,0,-1,-1,458.117546125,unknown,2,2025-04-28T22:25:21.646+03:00,null,0,0,0,0,0,0,0,null,767561124.3248035,0,0.41,100.7959,1,0.15,2025-04-27T20:36:35.266+03:00,71,1.183333333333333,2025-04-22T14:20:19.516+03:00,0.02197104130929222,0
2025-04-28T22:25:26.428+03:00,1745868324.265106,40.98553583423499,29.1374642380764,128.2676,-1,-1,-1,-1,30.00575485195334,24.22467901491021,-9999,462.872646125,-0.7548065185546875,0.4478302001953125,-0.481964111328125,462.862569875,-0.9570413003217748,-0.9958180203860639,-0.464114885129028,0.01840809360146523,0.02510646916925907,-0.0001652246864978224,0.01102113723754883,0.03637734055519104,0.01569432020187378,XArbitraryZVertical,-0.3933804400390548,-0.3195411047387667,-0.2962149643167034,0.8095689823167868,-0.7504314780235291,0.4476314783096313,-0.4862906336784363,0,0,0,-1,-1,458.117546125,unknown,2,2025-04-28T22:25:21.646+03:00,null,0,0,0,0,0,0,0,null,767561124.3248035,0,0.41,100.7959,1,0.15,2025-04-27T20:36:35.266+03:00,71,1.183333333333333,2025-04-22T14:20:19.516+03:00,0.02197104130929222,0
2025-04-28T22:25:26.429+03:00,1745868324.265106,40.98553583423499,29.1374642380764,128.2676,-1,-1,-1,-1,30.00575485195334,24.22467901491021,-9999,462.882723125,-0.7412261962890625,0.45037841796875,-0.48297119140625,462.872646125,-0.9569227635116662,-0.9955826611259604,-0.4640309116276344,0.004026491660624743,0.00918236467987299,0.003507806919515133,0.00327831506729126,0.01202309131622314,0.009345382452011108,XArbitraryZVertical,-0.3932969040982948,-0.3194897654813607,-0.2962344938518946,0.8096226670375302,-0.7503485083580017,0.4475564062595367,-0.4864876568317413,0,0,0,-1,-1,458.117546125,unknown,2,2025-04-28T22:25:21.646+03:00,null,0,0,0,0,0,0,0,null,767561124.3248035,0,0.41,100.7959,1,0.15,2025-04-27T20:36:35.266+03:00,71,1.183333333333333,2025-04-22T14:20:19.516+03:00,0.02197104130929222,0
2025-04-28T22:25:26.430+03:00,1745868324.265106,40.98553583423499,29.1374642380764,128.2676,-1,-1,-1,-1,30.00575485195334,24.22467901491021,-9999,462.892800125,-0.743377685546875,0.4373321533203125,-0.486358642578125,462.882723125,-0.9568990404689246,-0.9955029815648714,-0.4640727848266901,-0.009319141507148743,0.002693306654691696,0.006512118969112635,-0.003245949745178223,-0.0003434717655181885,0.004573166370391846,XArbitraryZVertical,-0.3932961546171747,-0.3194518894553735,-0.2962299729047637,0.8096396132084062,-0.750294029712677,0.4475938379764557,-0.4865372478961945,0,0,0,-1,-1,458.117546125,unknown,2,2025-04-28T22:25:21.646+03:00,null,0,0,0,0,0,0,0,null,767561124.3248035,0,0.41,100.7959,1,0.15,2025-04-27T20:36:35.266+03:00,71,1.183333333333333,2025-04-22T14:20:19.516+03:00,0.02197104130929222,0
2025-04-28T22:25:26.437+03:00,1745868324.265106,40.98553583423499,29.1374642380764,128.2676,-1,-1,-1,-1,30.00575485195334,24.22467901491021,-9999,462.902878125,-0.75830078125,0.4293060302734375,-0.4905548095703125,462.892800125,-0.9569878977163383,-0.9954138235783391,-0.4642638388155471,-0.02437245845794678,0.01815049350261688,0.01553633995354176,0.009975135326385498,0.00236964225769043,0.003433942794799805,XArbitraryZVertical,-0.3933647703540584,-0.3193514152753358,-0.296235206621465,0.8096441219934278,-0.7501789927482605,0.4477646946907043,-0.48655766248703,0,0,0,-1,-1,458.117546125,unknown,2,2025-04-28T22:25:21.646+03:00,null,0,0,0,0,0,0,0,null,767561124.3248035,0,0.41,100.7959,1,0.15,2025-04-27T20:36:35.266+03:00,71,1.183333333333333,2025-04-22T14:20:19.516+03:00,0.02197104130929222,0
2025-04-28T22:25:26.446+03:00,1745868324.265106,40.98553583423499,29.1374642380764,128.2676,-1,-1,-1,-1,30.00575485195334,24.22467901491021,-9999,462.9129551250001,-0.7538909912109375,0.4388427734375,-0.484954833984375,462.902878125,-0.9571150351311147,-0.9952599300778721,-0.4645433679042287,-0.02863404899835587,0.01902374252676964,0.01766127720475197,0.005660057067871094,-0.01271185278892517,-0.0007149875164031982,XArbitraryZVertical,-0.3934613544303398,-0.3191954248291143,-0.2962462756484301,0.8096545080467316,-0.749998927116394,0.4480146169662476,-0.4866048991680145,0,0,0,-1,-1,458.117546125,unknown,2,2025-04-28T22:25:21.646+03:00,null,0,0,0,0,0,0,0,null,767561124.3248035,0,0.41,100.7959,1,0.15,2025-04-27T20:36:35.266+03:00,71,1.183333333333333,2025-04-22T14:20:19.516+03:00,0.02197104130929222,0
2025-04-28T22:25:26.456+03:00,1745868324.265106,40.98553583423499,29.1374642380764,128.2676,-1,-1,-1,-1,30.00575485195334,24.22467901491021,-9999,462.923032125,-0.744781494140625,0.4494781494140625,-0.478729248046875,462.9129551250001,-0.9572407425805231,-0.9951682194954371,-0.4648020770651276,-0.023316515609622,0.01273495517671108,0.02199450694024563,-0.008611440658569336,-0.01805484294891357,-0.003837376832962036,XArbitraryZVertical,-0.393559463066575,-0.3190700056398578,-0.2962498240309725,0.80965497050831,-0.7498570680618286,0.4482458829879761,-0.4866105616092682,0,0,0,-1,-1,458.117546125,unknown,2,2025-04-28T22:25:21.646+03:00,null,0,0,0,0,0,0,0,null,767561124.3248035,0,0.41,100.7959,1,0.15,2025-04-27T20:36:35.266+03:00,71,1.183333333333333,2025-04-22T14:20:19.516+03:00,0.02197104130929222,0
2025-04-28T22:25:26.466+03:00,1745868324.265106,40.98553583423499,29.1374642380764,128.2676,-1,-1,-1,-1,30.00575485195334,24.22467901491021,-9999,462.933109125,-0.7503814697265625,0.4509124755859375,-0.4792633056640625,462.923032125,-0.9573255813559209,-0.995067194008327,-0.4651019761332124,-0.02235191874206066,0.01390275172889233,0.02128024585545063,-0.003112435340881348,-0.007946878671646118,0.001948237419128418,XArbitraryZVertical,-0.3936642535082802,-0.3189387180794714,-0.296228252297467,0.8096636410255871,-0.7496951222419739,0.4485139548778534,-0.4866130948066711,0,0,0,-1,-1,458.117546125,unknown,2,2025-04-28T22:25:21.646+03:00,null,0,0,0,0,0,0,0,null,767561124.3248035,0,0.41,100.7959,1,0.15,2025-04-27T20:36:35.266+03:00,71,1.183333333333333,2025-04-22T14:20:19.516+03:00,0.02197104130929222,0
2025-04-28T22:25:26.476+03:00,1745868324.265106,40.98553583423499,29.1374642380764,128.2676,-1,-1,-1,-1,30.00575485195334,24.22467901491021,-9999,462.943186125,-0.749237060546875,0.4525604248046875,-0.4813079833984375,462.933109125,-0.9574074061456083,-0.9950142972293635,-0.4654272636036796,-0.02157041430473328,0.005373045802116394,0.01994021050632,0.004262030124664307,0.001100718975067139,0.008042484521865845,XArbitraryZVertical,-0.3937846568911588,-0.3188212552685193,-0.2961895762064797,0.8096655262395158,-0.749547004699707,0.448804646730423,-0.4865733087062836,0,0,0,-1,-1,458.117546125,unknown,2,2025-04-28T22:25:21.646+03:00,null,0,0,0,0,0,0,0,null,767561124.3248035,0,0.41,100.7959,1,0.15,2025-04-27T20:36:35.266+03:00,71,1.183333333333333,2025-04-22T14:20:19.516+03:00,0.02197104130929222,0
2025-04-28T22:25:26.486+03:00,1745868324.265106,40.98553583423499,29.1374642380764,128.2676,-1,-1,-1,-1,30.00575485195334,24.22467901491021,-9999,462.953263125,-0.7457427978515625,0.453094482421875,-0.482666015625,462.943186125,-0.9575106229534011,-0.9950215929322744,-0.4657109375406276,-0.01917277090251446,0.002414806745946407,0.01446075644344091,-0.00124281644821167,0.001320362091064453,0.007204711437225342,XArbitraryZVertical,-0.3939025905106324,-0.3187341712776446,-0.2961582369450961,0.8096540301838069,-0.7494438290596008,0.4490581452846527,-0.4864985644817352,0,0,0,-1,-1,458.117546125,unknown,2,2025-04-28T22:25:21.646+03:00,null,0,0,0,0,0,0,0,null,767561124.3248035,0,0.41,100.7959,1,0.15,2025-04-27T20:36:35.266+03:00,71,1.183333333333333,2025-04-22T14:20:19.516+03:00,0.02197104130929222,0
2025-04-28T22:25:26.496+03:00,1745868324.265106,40.98553583423499,29.1374642380764,128.2676,-1,-1,-1,-1,30.00575485195334,24.22467901491021,-9999,462.963340125,-0.748260498046875,0.4503326416015625,-0.4804840087890625,462.953263125,-0.9575874553165595,-0.9950397915014928,-0.4659360737475295,-0.01506044995039701,0.002466871403157711,0.01459557842463255,0.0007717013359069824,0.003621608018875122,0.005106627941131592,XArbitraryZVertical,-0.3939972560015952,-0.3186710533982532,-0.2961288389226793,0.8096435395528936,-0.7493678331375122,0.4492592811584473,-0.4864298403263092,0,0,0,-1,-1,458.117546125,unknown,2,2025-04-28T22:25:21.646+03:00,null,0,0,0,0,0,0,0,null,767561124.3248035,0,0.41,100.7959,1,0.15,2025-04-27T20:36:35.266+03:00,71,1.183333333333333,2025-04-22T14:20:19.516+03:00,0.02197104130929222,0
2025-04-28T22:25:26.506+03:00,1745868324.265106,40.98553583423499,29.1374642380764,128.2676,-1,-1,-1,-1,30.00575485195334,24.22467901491021,-9999,462.973418125,-0.7483978271484375,0.4507293701171875,-0.4753570556640625,462.963340125,-0.9575974561773543,-0.9950599639340979,-0.4660757307034809,-0.002681811340153217,-0.004651491530239582,0.01079311687499285,0.003353297710418701,0.002703398466110229,0.003897666931152344,XArbitraryZVertical,-0.3940512932568774,-0.318642909495076,-0.2960936027271022,0.8096411788716594,-0.7493249773979187,0.4493840634822845,-0.48638054728508,0,0,0,-1,-1,458.117546125,unknown,2,2025-04-28T22:25:21.646+03:00,null,0,0,0,0,0,0,0,null,767561124.3248035,0,0.41,100.7959,1,0.15,2025-04-27T20:36:35.266+03:00,71,1.183333333333333,2025-04-22T14:20:19.516+03:00,0.02197104130929222,0
2025-04-28T22:25:26.516+03:00,1745868324.265106,40.98553583423499,29.1374642380764,128.2676,-1,-1,-1,-1,30.00575485195334,24.22467901491021,-9999,462.983495125,-0.7497711181640625,0.4492034912109375,-0.475555419921875,462.973418125,-0.9575650355588408,-0.9950997921371404,-0.4661569494021058,0.00174442888237536,-0.005545448511838913,0.006355392280966043,0.001221120357513428,0.0003725290298461914,0.00610622763633728,XArbitraryZVertical,-0.3940808080571704,-0.3186454423615328,-0.2960520867430065,0.8096409298099559,-0.7493136525154114,0.4494566023349762,-0.4863308072090149,0,0,0,-1,-1,458.117546125,unknown,2,2025-04-28T22:25:21.646+03:00,null,0,0,0,0,0,0,0,null,767561124.3248035,0,0.41,100.7959,1,0.15,2025-04-27T20:36:35.266+03:00,71,1.183333333333333,2025-04-22T14:20:19.516+03:00,0.02197104130929222,0
2025-04-28T22:25:26.526+03:00,1745868324.265106,40.98553583423499,29.1374642380764,128.2676,-1,-1,-1,-1,30.00575485195334,24.22467901491021,-9999,462.993572125,-0.7512969970703125,0.44854736328125,-0.48089599609375,462.983495125,-0.9574548131299311,-0.9951048691120732,-0.4661665505826371,0.009036962874233723,-0.007635762915015221,0.005962575785815716,0.00105208158493042,0.001142174005508423,0.0111355185508728,XArbitraryZVertical,-0.3940673644732672,-0.3186668652574333,-0.2960040492077055,0.8096566813435688,-0.7493125796318054,0.4494651854038239,-0.486324667930603,0,0,0,-1,-1,458.117546125,unknown,2,2025-04-28T22:25:21.646+03:00,null,0,0,0,0,0,0,0,null,767561124.3248035,0,0.41,100.7959,1,0.15,2025-04-27T20:36:35.266+03:00,71,1.183333333333333,2025-04-22T14:20:19.516+03:00,0.02197104130929222,0
2025-04-28T22:25:26.536+03:00,1745868324.265106,40.98553583423499,29.1374642380764,128.2676,-1,-1,-1,-1,30.00575485195334,24.22467901491021,-9999,463.003649125,-0.7506103515625,0.4423828125,-0.486175537109375,462.993572125,-0.9573504928623733,-0.9951553661542215,-0.466134042948072,0.003304042620584369,-0.0100578423589468,0.00506419176235795,-0.0007268190383911133,0.0003929734230041504,0.009518682956695557,XArbitraryZVertical,-0.3940467011270489,-0.3187158549710092,-0.2959600883822917,0.8096635351989121,-0.7493494153022766,0.4494361579418182,-0.4862948060035706,0,0,0,-1,-1,458.117546125,unknown,2,2025-04-28T22:25:21.646+03:00,null,0,0,0,0,0,0,0,null,767561124.3248035,0,0.41,100.7959,1,0.15,2025-04-27T20:36:35.266+03:00,71,1.183333333333333,2025-04-22T14:20:19.516+03:00,0.02197104130929222,0
2025-04-28T22:25:26.547+03:00,1745868324.265106,40.98553583423499,29.1374642380764,128.2676,-1,-1,-1,-1,30.00575485195334,24.22467901491021,-9999,463.013726125,-0.75,0.4391937255859375,-0.48541259765625,463.003649125,-0.9573136191058773,-0.9952858219058804,-0.4661413220921758,-0.001140506821684539,-0.01589602418243885,0.003820229321718216,-0.001718997955322266,-0.001414060592651367,0.00436854362487793,XArbitraryZVertical,-0.3940627028023062,-0.3187741435735936,-0.2959176177303779,0.8096483291174356,-0.749410092830658,0.4494426548480988,-0.4861952662467957,0,0,0,-1,-1,458.117546125,unknown,2,2025-04-28T22:25:21.646+03:00,null,0,0,0,0,0,0,0,null,767561124.3248035,0,0.41,100.7959,1,0.15,2025-04-27T20:36:35.266+03:00,71,1.183333333333333,2025-04-22T14:20:19.516+03:00,0.02197104130929222,0
2025-04-28T22:25:26.556+03:00,1745868324.265106,40.98553583423499,29.1374642380764,128.2676,-1,-1,-1,-1,30.00575485195334,24.22467901491021,-9999,463.023803125,-0.7489166259765625,0.4385986328125,-0.4795074462890625,463.013726125,-0.9573522680463159,-0.9955155173406884,-0.466187043441132,-0.004754549358040094,-0.02441268041729927,0.00100373663008213,-0.001823008060455322,-0.007482081651687622,-0.0006213188171386719,XArbitraryZVertical,-0.3941190319115577,-0.3188482727938811,-0.2958764410549386,0.809606772324308,-0.7495045065879822,0.4494834840297699,-0.4860119223594666,0,0,0,-1,-1,458.117546125,unknown,2,2025-04-28T22:25:21.646+03:00,null,0,0,0,0,0,0,0,null,767561124.3248035,0,0.41,100.7959,1,0.15,2025-04-27T20:36:35.266+03:00,71,1.183333333333333,2025-04-22T14:20:19.516+03:00,0.02197104130929222,0
2025-04-28T22:25:26.566+03:00,1745868324.265106,40.98553583423499,29.1374642380764,128.2676,-1,-1,-1,-1,30.00575485195334,24.22467901491021,-9999,463.0338801250001,-0.749359130859375,0.4448394775390625,-0.47479248046875,463.023803125,-0.9573881347853961,-0.995793379432556,-0.4662121434408502,-0.0006905658519826829,-0.0247354544699192,-0.0005443589761853218,-0.0002631545066833496,-0.01084622740745544,0.001407265663146973,XArbitraryZVertical,-0.3941747772222607,-0.3189474981396713,-0.2958298388142988,0.8095574888425009,-0.7496299743652344,0.4495059251785278,-0.4857974648475647,0,0,0,-1,-1,458.117546125,unknown,2,2025-04-28T22:25:21.646+03:00,null,0,0,0,0,0,0,0,null,767561124.3248035,0,0.41,100.7959,1,0.15,2025-04-27T20:36:35.266+03:00,71,1.183333333333333,2025-04-22T14:20:19.516+03:00,0.02197104130929222,0
2025-04-28T22:25:26.577+03:00,1745868324.265106,40.98553583423499,29.1374642380764,128.2676,-1,-1,-1,-1,30.00575485195334,24.22467901491021,-9999,463.043958125,-0.7540130615234375,0.4500274658203125,-0.4742889404296875,463.0338801250001,-0.9574074893026148,-0.9960376356445657,-0.466217111920301,0.0008792345179244876,-0.02122447639703751,-0.001396903302520514,0.0007386207580566406,-0.01039290428161621,0.006944954395294189,XArbitraryZVertical,-0.3942157484126427,-0.3190413294638244,-0.2957882739869185,0.8095157548071843,-0.7497467398643494,0.4495103359222412,-0.4856131374835968,0,0,0,-1,-1,458.117546125,unknown,2,2025-04-28T22:25:21.646+03:00,null,0,0,0,0,0,0,0,null,767561124.3248035,0,0.41,100.7959,1,0.15,2025-04-27T20:36:35.266+03:00,71,1.183333333333333,2025-04-22T14:20:19.516+03:00,0.02197104130929222,0
2025-04-28T22:25:26.587+03:00,1745868324.265106,40.98553583423499,29.1374642380764,128.2676,-1,-1,-1,-1,30.00575485195334,24.22467901491021,-9999,463.054035125,-0.757965087890625,0.45330810546875,-0.474365234375,463.043958125,-0.9573624697664943,-0.996184445898902,-0.4662009582942052,0.008206921629607677,-0.01203204318881035,-0.001478129765018821,0.000220954418182373,-0.004213899374008179,0.01071462035179138,XArbitraryZVertical,-0.3942245646818978,-0.3191135947744504,-0.2957451998081059,0.8094987034118669,-0.7498241066932678,0.4494959115982056,-0.4855070114135742,0,0,0,-1,-1,458.117546125,unknown,2,2025-04-28T22:25:21.646+03:00,null,0,0,0,0,0,0,0,null,767561124.3248035,0,0.41,100.7959,1,0.15,2025-04-27T20:36:35.266+03:00,71,1.183333333333333,2025-04-22T14:20:19.516+03:00,0.02197104130929222,0
2025-04-28T22:25:26.597+03:00,1745868324.265106,40.98553583423499,29.1374642380764,128.2676,-1,-1,-1,-1,30.00575485195334,24.22467901491021,-9999,463.064112125,-0.7588348388671875,0.4535675048828125,-0.4766387939453125,463.054035125,-0.9572360012867499,-0.9962027846292801,-0.4661663480704646,0.01436741277575493,-0.001087449956685305,0.006563851144164801,-0.004151642322540283,0.000455707311630249,0.01209783554077148,XArbitraryZVertical,-0.3941948382282325,-0.3191544552980658,-0.2956991568383711,0.8095139104204788,-0.7498461008071899,0.4494650065898895,-0.4855017364025116,0,0,0,-1,-1,458.117546125,unknown,2,2025-04-28T22:25:21.646+03:00,null,0,0,0,0,0,0,0,null,767561124.3248035,0,0.41,100.7959,1,0.15,2025-04-27T20:36:35.266+03:00,71,1.183333333333333,2025-04-22T14:20:19.516+03:00,0.02197104130929222,0
2025-04-28T22:25:26.607+03:00,1745868324.265106,40.98553583423499,29.1374642380764,128.2676,-1,-1,-1,-1,30.00575485195334,24.22467901491021,-9999,463.074189125,-0.7568817138671875,0.4482574462890625,-0.478912353515625,463.064112125,-0.9570509999242518,-0.9961320107421127,-0.4661370656328405,0.0173895675688982,0.002872670534998178,0.008287982083857059,-0.007928609848022461,0.004327058792114258,0.0110594630241394,XArbitraryZVertical,-0.3941444731143514,-0.3191694711927942,-0.2956456370998058,0.8095520956928993,-0.7498227953910828,0.4494388401508331,-0.4855619668960571,0,0,0,-1,-1,458.117546125,unknown,2,2025-04-28T22:25:21.646+03:00,null,0,0,0,0,0,0,0,null,767561124.3248035,0,0.41,100.7959,1,0.15,2025-04-27T20:36:35.266+03:00,71,1.183333333333333,2025-04-22T14:20:19.516+03:00,0.02197104130929222,0
2025-04-28T22:25:26.617+03:00,1745868324.265106,40.98553583423499,29.1374642380764,128.2676,-1,-1,-1,-1,30.00575485195334,24.22467901491021,-9999,463.0842661250001,-0.753204345703125,0.4426116943359375,-0.4860992431640625,463.074189125,-0.9568589079111294,-0.9960334410411296,-0.4661422240239255,0.01407113671302795,0.002239237539470196,0.008930934593081474,-0.009748399257659912,0.003422200679779053,0.00881272554397583,XArbitraryZVertical,-0.3941010671663124,-0.3191661601209619,-0.2955860025202368,0.8095963258535404,-0.7497730255126953,0.4494434595108032,-0.4856346249580383,0,0,0,-1,-1,458.117546125,unknown,2,2025-04-28T22:25:21.646+03:00,null,0,0,0,0,0,0,0,null,767561124.3248035,0,0.41,100.7959,1,0.15,2025-04-27T20:36:35.266+03:00,71,1.183333333333333,2025-04-22T14:20:19.516+03:00,0.02197104130929222,0
2025-04-28T22:25:26.627+03:00,1745868324.265106,40.98553583423499,29.1374642380764,128.2676,-1,-1,-1,-1,30.00575485195334,24.22467901491021,-9999,463.094343125,-0.7473297119140625,0.4416351318359375,-0.493072509765625,463.0842661250001,-0.9567190387643965,-0.9959783510665738,-0.4662035255378488,0.002145234495401382,-0.002581882756203413,0.01489268708974123,-0.007295846939086914,-0.002705574035644531,0.005649983882904053,XArbitraryZVertical,-0.3940922953192339,-0.3191563608047958,-0.2955247328973636,0.8096268534555928,-0.7497231364250183,0.4494982063770294,-0.4856609702110291,0,0,0,-1,-1,458.117546125,unknown,2,2025-04-28T22:25:21.646+03:00,null,0,0,0,0,0,0,0,null,767561124.3248035,0,0.41,100.7959,1,0.15,2025-04-27T20:36:35.266+03:00,71,1.183333333333333,2025-04-22T14:20:19.516+03:00,0.02197104130929222,0
2025-04-28T22:25:26.638+03:00,1745868324.265106,40.98553583423499,29.1374642380764,128.2676,-1,-1,-1,-1,30.00575485195334,24.22467901491021,-9999,463.104421125,-0.7448272705078125,0.442901611328125,-0.489105224609375,463.094343125,-0.9566638342410541,-0.9960474856026392,-0.4663192145181472,-0.009135182946920395,-0.01288731675595045,0.0127824991941452,-0.003216564655303955,-0.007600158452987671,-0.001723825931549072,XArbitraryZVertical,-0.394134657245687,-0.3191667989135976,-0.2954594913205454,0.809625925635769,-0.7497130632400513,0.4496015608310699,-0.4855808615684509,0,0,0,-1,-1,458.117546125,unknown,2,2025-04-28T22:25:21.646+03:00,null,0,0,0,0,0,0,0,null,767561124.3248035,0,0.41,100.7959,1,0.15,2025-04-27T20:36:35.266+03:00,71,1.183333333333333,2025-04-22T14:20:19.516+03:00,0.02197104130929222,0
2025-04-28T22:25:26.647+03:00,1745868324.265106,40.98553583423499,29.1374642380764,128.2676,-1,-1,-1,-1,30.00575485195334,24.22467901491021,-9999,463.114498125,-0.7474517822265625,0.444915771484375,-0.47979736328125,463.104421125,-0.9566677723261536,-0.996210370461965,-0.4664515498129078,-0.008243822492659092,-0.01881125196814537,0.01340807508677244,0.002900838851928711,-0.007611572742462158,-0.007813930511474609,XArbitraryZVertical,-0.3942061964208015,-0.3191994409519201,-0.2953954959468848,0.8096015679498298,-0.7497422099113464,0.4497197568416595,-0.4854263961315155,0,0,0,-1,-1,458.117546125,unknown,2,2025-04-28T22:25:21.646+03:00,null,0,0,0,0,0,0,0,null,767561124.3248035,0,0.41,100.7959,1,0.15,2025-04-27T20:36:35.266+03:00,71,1.183333333333333,2025-04-22T14:20:19.516+03:00,0.02197104130929222,0
2025-04-28T22:25:26.657+03:00,1745868324.265106,40.98553583423499,29.1374642380764,128.2676,-1,-1,-1,-1,30.00575485195334,24.22467901491021,-9999,463.124575125,-0.7535247802734375,0.44915771484375,-0.4728851318359375,463.114498125,-0.956686259188598,-0.9963980990370889,-0.4665732701968456,-0.004619460552930832,-0.01383640244603157,0.01184030529111624,0.005372107028961182,-0.006224900484085083,-0.002231895923614502,XArbitraryZVertical,-0.3942799508655386,-0.319241879061003,-0.2953351706783341,0.8095709368579461,-0.7497873902320862,0.4498284757137299,-0.4852558970451355,0,0,0,-1,-1,458.117546125,unknown,2,2025-04-28T22:25:21.646+03:00,null,0,0,0,0,0,0,0,null,767561124.3248035,0,0.41,100.7959,1,0.15,2025-04-27T20:36:35.266+03:00,71,1.183333333333333,2025-04-22T14:20:19.516+03:00,0.02197104130929222,0
2025-04-28T22:25:26.667+03:00,1745868324.265106,40.98553583423499,29.1374642380764,128.2676,-1,-1,-1,-1,30.00575485195334,24.22467901491021,-9999,463.134652125,-0.756988525390625,0.456146240234375,-0.472259521484375,463.124575125,-0.9566216050286417,-0.9964481843114459,-0.4666564554171397,0.004431026056408882,0.0005928715690970421,0.00971696712076664,0.0008637309074401855,-0.004697024822235107,0.006575644016265869,XArbitraryZVertical,-0.3943064367358049,-0.3192544676613712,-0.2952780812457104,0.809573969559473,-0.7497802972793579,0.4499027729034424,-0.485198050737381,0,0,0,-1,-1,458.117546125,unknown,2,2025-04-28T22:25:21.646+03:00,null,0,0,0,0,0,0,0,null,767561124.3248035,0,0.41,100.7959,1,0.15,2025-04-27T20:36:35.266+03:00,71,1.183333333333333,2025-04-22T14:20:19.516+03:00,0.02197104130929222,0
2025-04-28T22:25:26.678+03:00,1745868324.265106,40.98553583423499,29.1374642380764,128.2676,-1,-1,-1,-1,30.00575485195334,24.22467901491021,-9999,463.144729125,-0.7554779052734375,0.4572296142578125,-0.47198486328125,463.134652125,-0.9564980310810433,-0.9963710022427434,-0.4666867787112437,0.01357012894004583,0.007803313434123993,0.01026820857077837,-0.004663169384002686,0.0001891851425170898,0.01233285665512085,XArbitraryZVertical,-0.3942860830915473,-0.3192401256669765,-0.2952355891048087,0.8096049575432035,-0.7497313618659973,0.4499298334121704,-0.4852484464645386,0,0,0,-1,-1,458.117546125,unknown,2,2025-04-28T22:25:21.646+03:00,null,0,0,0,0,0,0,0,null,767561124.3248035,0,0.41,100.7959,1,0.15,2025-04-27T20:36:35.266+03:00,71,1.183333333333333,2025-04-22T14:20:19.516+03:00,0.02197104130929222,0
2025-04-28T22:25:26.688+03:00,1745868324.265106,40.98553583423499,29.1374642380764,128.2676,-1,-1,-1,-1,30.00575485195334,24.22467901491021,-9999,463.1548061250001,-0.7516326904296875,0.4486541748046875,-0.4732208251953125,463.144729125,-0.9563065084608582,-0.996218530101752,-0.4667079274126368,0.01784849725663662,0.008684286847710609,0.01157448906451464,-0.007064461708068848,0.007479280233383179,0.01320487260818481,XArbitraryZVertical,-0.3942405160121892,-0.3192109547222857,-0.2951827548492225,0.8096578625057896,-0.7496493458747864,0.4499487280845642,-0.4853575527667999,0,0,0,-1,-1,458.117546125,unknown,2,2025-04-28T22:25:21.646+03:00,null,0,0,0,0,0,0,0,null,767561124.3248035,0,0.41,100.7959,1,0.15,2025-04-27T20:36:35.266+03:00,71,1.183333333333333,2025-04-22T14:20:19.516+03:00,0.02197104130929222,0
2025-04-28T22:25:26.700+03:00,1745868324.265106,40.98553583423499,29.1374642380764,128.2676,-1,-1,-1,-1,30.00575485195334,24.22467901491021,-9999,463.164883125,-0.747955322265625,0.445068359375,-0.4828033447265625,463.1548061250001,-0.9561271181999806,-0.996056744235856,-0.4667162113338291,0.01188681181520224,0.01036427542567253,0.007171917241066694,-0.005360841751098633,0.00684627890586853,0.01369035243988037,XArbitraryZVertical,-0.3941909134594011,-0.3191787900659459,-0.2951399326430453,0.8097103692803114,-0.7495676875114441,0.4499561190605164,-0.4854768514633179,0,0,0,-1,-1,458.117546125,unknown,2,2025-04-28T22:25:21.646+03:00,null,0,0,0,0,0,0,0,null,767561124.3248035,0,0.41,100.7959,1,0.15,2025-04-27T20:36:35.266+03:00,71,1.183333333333333,2025-04-22T14:20:19.516+03:00,0.02197104130929222,0
2025-04-28T22:25:26.708+03:00,1745868324.265106,40.98553583423499,29.1374642380764,128.2676,-1,-1,-1,-1,30.00575485195334,24.22467901491021,-9999,463.174961125,-0.7436065673828125,0.445953369140625,-0.4870147705078125,463.164883125,-0.9560260979347079,-0.995983879229862,-0.4667208064754991,0.006053689867258072,-0.0004774527624249458,0.005207569804042578,-0.002071559429168701,-0.001702725887298584,0.01136350631713867,XArbitraryZVertical,-0.3941656570800275,-0.319168074042993,-0.2951122347501547,0.8097370057653468,-0.7495306134223938,0.4499602317810059,-0.4855303466320038,0,0,0,-1,-1,458.117546125,unknown,2,2025-04-28T22:25:21.646+03:00,null,0,0,0,0,0,0,0,null,767561124.3248035,0,0.41,100.7959,1,0.15,2025-04-27T20:36:35.266+03:00,71,1.183333333333333,2025-04-22T14:20:19.516+03:00,0.02197104130929222,0
2025-04-28T22:25:26.718+03:00,1745868324.265106,40.98553583423499,29.1374642380764,128.2676,-1,-1,-1,-1,30.00575485195334,24.22467901491021,-9999,463.185038125,-0.73980712890625,0.446319580078125,-0.485443115234375,463.174961125,-0.9559923201258945,-0.9960432179464453,-0.4667254307277414,-0.001287713181227446,-0.01293585263192654,0.002905866131186485,0.002533137798309326,-0.005216419696807861,0.001765906810760498,XArbitraryZVertical,-0.3941706643783736,-0.3191976179037976,-0.2950856925501896,0.8097325832941453,-0.7495576739311218,0.4499643743038177,-0.4854847490787506,0,0,0,-1,-1,458.117546125,unknown,2,2025-04-28T22:25:21.646+03:00,null,0,0,0,0,0,0,0,null,767561124.3248035,0,0.41,100.7959,1,0.15,2025-04-27T20:36:35.266+03:00,71,1.183333333333333,2025-04-22T14:20:19.516+03:00,0.02197104130929222,0
2025-04-28T22:25:26.728+03:00,1745868324.265106,40.98553583423499,29.1374642380764,128.2676,-1,-1,-1,-1,30.00575485195334,24.22467901491021,-9999,463.195115125,-0.74334716796875,0.45166015625,-0.4829559326171875,463.185038125,-0.9559567986438444,-0.9961552843597513,-0.4667063847372634,0.004038874991238117,-0.01533749140799046,0.0001154058845713735,0.00662308931350708,-0.0034903883934021,-0.001227855682373047,XArbitraryZVertical,-0.394174769833939,-0.3192546731863419,-0.2950540494689565,0.8097196579523374,-0.7496193051338196,0.4499473571777344,-0.4854054152965546,0,0,0,-1,-1,458.117546125,unknown,2,2025-04-28T22:25:21.646+03:00,null,0,0,0,0,0,0,0,null,767561124.3248035,0,0.41,100.7959,1,0.15,2025-04-27T20:36:35.266+03:00,71,1.183333333333333,2025-04-22T14:20:19.516+03:00,0.02197104130929222,0
2025-04-28T22:25:26.738+03:00,1745868324.265106,40.98553583423499,29.1374642380764,128.2676,-1,-1,-1,-1,30.00575485195334,24.22467901491021,-9999,463.2051921250001,-0.7481536865234375,0.4593658447265625,-0.47833251953125,463.195115125,-0.9558737845749505,-0.9962328416246211,-0.4666568582111433,0.01200578827410936,-0.01058714557439089,-8.895841892808676e-05,0.009487032890319824,-0.003491878509521484,-0.0001142621040344238,XArbitraryZVertical,-0.3941554322825271,-0.3193145950715068,-0.295017686345156,0.8097186727582062,-0.7496756315231323,0.449903130531311,-0.4853593707084656,0,0,0,-1,-1,458.117546125,unknown,2,2025-04-28T22:25:21.646+03:00,null,0,0,0,0,0,0,0,null,767561124.3248035,0,0.41,100.7959,1,0.15,2025-04-27T20:36:35.266+03:00,71,1.183333333333333,2025-04-22T14:20:19.516+03:00,0.02197104130929222,0
2025-04-28T22:25:26.748+03:00,1745868324.265106,40.98553583423499,29.1374642380764,128.2676,-1,-1,-1,-1,30.00575485195334,24.22467901491021,-9999,463.215269125,-0.7517242431640625,0.4565887451171875,-0.478912353515625,463.2051921250001,-0.9557286821607492,-0.9962517115225805,-0.4665756916770749,0.01834411174058914,-0.003875712864100933,0.00240216264501214,0.005590081214904785,0.003263890743255615,0.002958476543426514,XArbitraryZVertical,-0.3941063067625614,-0.319370763289462,-0.2949757635465898,0.8097357108366591,-0.7497154474258423,0.4498306214809418,-0.4853650629520416,0,0,0,-1,-1,458.117546125,unknown,2,2025-04-28T22:25:21.646+03:00,null,0,0,0,0,0,0,0,null,767561124.3248035,0,0.41,100.7959,1,0.15,2025-04-27T20:36:35.266+03:00,71,1.183333333333333,2025-04-22T14:20:19.516+03:00,0.02197104130929222,0
2025-04-28T22:25:26.758+03:00,1745868324.265106,40.98553583423499,29.1374642380764,128.2676,-1,-1,-1,-1,30.00575485195334,24.22467901491021,-9999,463.225346125,-0.7519683837890625,0.449615478515625,-0.480621337890625,463.215269125,-0.9555581437034629,-0.9962155610243539,-0.4664965832971829,0.01852660439908504,0.002976134652271867,0.002575700636953115,0.000811159610748291,0.009956866502761841,0.007384181022644043,XArbitraryZVertical,-0.3940457246566739,-0.3194091559816827,-0.294933861892327,0.8097653255126321,-0.7497277855873108,0.4497599899768829,-0.485411524772644,0,0,0,-1,-1,458.117546125,unknown,2,2025-04-28T22:25:21.646+03:00,null,0,0,0,0,0,0,0,null,767561124.3248035,0,0.41,100.7959,1,0.15,2025-04-27T20:36:35.266+03:00,71,1.183333333333333,2025-04-22T14:20:19.516+03:00,0.02197104130929222,0
2025-04-28T22:25:26.789+03:00,1745868324.265106,40.98553583423499,29.1374642380764,128.2676,-1,-1,-1,-1,30.00575485195334,24.22467901491021,-9999,463.235424125,-0.75006103515625,0.4449615478515625,-0.481964111328125,463.225346125,-0.9553551636160761,-0.9961205341039074,-0.4664535319766392,0.01671192795038223,0.003427540417760611,0.006549935787916183,-0.00162959098815918,0.00599747896194458,0.005665421485900879,XArbitraryZVertical,-0.3939840524834085,-0.3194212374230487,-0.2948812911290043,0.8098097058750734,-0.7496978640556335,0.4497215151786804,-0.4854932725429535,0,0,0,-1,-1,458.117546125,unknown,2,2025-04-28T22:25:21.646+03:00,null,0,0,0,0,0,0,0,null,767561124.3248035,0,0.41,100.7959,1,0.15,2025-04-27T20:36:35.266+03:00,71,1.183333333333333,2025-04-22T14:20:19.516+03:00,0.02197104130929222,0
2025-04-28T22:25:26.790+03:00,1745868324.265106,40.98553583423499,29.1374642380764,128.2676,-1,-1,-1,-1,30.00575485195334,24.22467901491021,-9999,463.245501125,-0.7470245361328125,0.4441680908203125,-0.4860687255859375,463.235424125,-0.9551941235825505,-0.9960521572231273,-0.4664493259575375,0.008929370902478695,0.002302887383848429,0.006715051829814911,-0.002729356288909912,-0.0007430315017700195,0.004863202571868896,XArbitraryZVertical,-0.393946760203005,-0.3194263059097607,-0.2948306179032,0.8098443033080832,-0.7496662735939026,0.4497177600860596,-0.4855455756187439,0,0,0,-1,-1,458.117546125,unknown,2,2025-04-28T22:25:21.646+03:00,null,0,0,0,0,0,0,0,null,767561124.3248035,0,0.41,100.7959,1,0.15,2025-04-27T20:36:35.266+03:00,71,1.183333333333333,2025-04-22T14:20:19.516+03:00,0.02197104130929222,0
2025-04-28T22:25:26.802+03:00,1745868324.265106,40.98553583423499,29.1374642380764,128.2676,-1,-1,-1,-1,30.00575485195334,24.22467901491021,-9999,463.2555781250001,-0.747344970703125,0.4456787109375,-0.4858245849609375,463.245501125,-0.9550905782939652,-0.9960314512912898,-0.466472514156222,0.003892268519848585,-0.003642353694885969,0.007735841441899538,0.0003035664558410645,-0.005448311567306519,0.003301411867141724,XArbitraryZVertical,-0.3939354309638468,-0.3194326103398216,-0.2947868844228833,0.8098631368731908,-0.7496473789215088,0.449738472700119,-0.4855553805828094,0,0,0,-1,-1,458.117546125,unknown,2,2025-04-28T22:25:21.646+03:00,null,0,0,0,0,0,0,0,null,767561124.3248035,0,0.41,100.7959,1,0.15,2025-04-27T20:36:35.266+03:00,71,1.183333333333333,2025-04-22T14:20:19.516+03:00,0.02197104130929222,0
2025-04-28T22:25:26.803+03:00,1745868324.265106,40.98553583423499,29.1374642380764,128.2676,-1,-1,-1,-1,30.00575485195334,24.22467901491021,-9999,463.265655125,-0.748016357421875,0.4489898681640625,-0.4846954345703125,463.2555781250001,-0.9550367927304149,-0.9960388916187999,-0.4665038576848269,0.003110963385552168,-0.003721116110682487,0.00549628958106041,0.002202689647674561,-0.005522072315216064,-0.001228451728820801,XArbitraryZVertical,-0.3939390312370793,-0.31943852646496,-0.2947557106215715,0.8098704157696626,-0.7496391534805298,0.4497664868831635,-0.4855421483516693,0,0,0,-1,-1,458.117546125,unknown,2,2025-04-28T22:25:21.646+03:00,null,0,0,0,0,0,0,0,null,767561124.3248035,0,0.41,100.7959,1,0.15,2025-04-27T20:36:35.266+03:00,71,1.183333333333333,2025-04-22T14:20:19.516+03:00,0.02197104130929222,0
2025-04-28T22:25:26.809+03:00,1745868324.265106,40.98553583423499,29.1374642380764,128.2676,-1,-1,-1,-1,30.00575485195334,24.22467901491021,-9999,463.275732125,-0.750885009765625,0.4546661376953125,-0.4792938232421875,463.265655125,-0.9549322071178008,-0.9960152348190701,-0.4665027577901146,0.0119694359600544,-0.001378865912556648,0.006513351108878851,0.002206921577453613,-0.003720521926879883,0.0001323223114013672,XArbitraryZVertical,-0.3939184535921997,-0.3194498155852405,-0.2947182966302184,0.8098895813666417,-0.7496281266212463,0.4497655034065247,-0.4855601489543915,0,0,0,-1,-1,458.117546125,unknown,2,2025-04-28T22:25:21.646+03:00,null,0,0,0,0,0,0,0,null,767561124.3248035,0,0.41,100.7959,1,0.15,2025-04-27T20:36:35.266+03:00,71,1.183333333333333,2025-04-22T14:20:19.516+03:00,0.02197104130929222,0
2025-04-28T22:25:26.818+03:00,1745868324.265106,40.98553583423499,29.1374642380764,128.2676,-1,-1,-1,-1,30.00575485195334,24.22467901491021,-9999,463.285809125,-0.7537994384765625,0.4535675048828125,-0.477294921875,463.275732125,-0.9547517528722915,-0.9959106539596565,-0.466449825915762,0.01952642202377319,0.006336044985800982,0.00150487688370049,0.001107990741729736,0.000141441822052002,0.001658022403717041,XArbitraryZVertical,-0.3938554462242823,-0.3194560015277474,-0.2946792187232148,0.8099320593123084,-0.7495973706245422,0.4497182071208954,-0.4856514930725098,0,0,0,-1,-1,458.117546125,unknown,2,2025-04-28T22:25:21.646+03:00,null,0,0,0,0,0,0,0,null,767561124.3248035,0,0.41,100.7959,1,0.15,2025-04-27T20:36:35.266+03:00,71,1.183333333333333,2025-04-22T14:20:19.516+03:00,0.02197104130929222,0
2025-04-28T22:25:26.828+03:00,1745868324.265106,40.98553583423499,29.1374642380764,128.2676,-1,-1,-1,-1,30.00575485195334,24.22467901491021,-9999,463.295887125,-0.756134033203125,0.45355224609375,-0.4786529541015625,463.285809125,-0.9545169288325568,-0.9956991481960084,-0.4663752029806061,0.02608578652143478,0.0136693250387907,0.006308154202997684,-0.001911520957946777,0.004877299070358276,0.00648874044418335,XArbitraryZVertical,-0.3937603203604624,-0.3194348992167043,-0.2946446517260419,0.8099992551158082,-0.7495228052139282,0.4496515691280365,-0.485828310251236,0,0,0,-1,-1,458.117546125,unknown,2,2025-04-28T22:25:21.646+03:00,null,0,0,0,0,0,0,0,null,767561124.3248035,0,0.41,100.7959,1,0.15,2025-04-27T20:36:35.266+03:00,71,1.183333333333333,2025-04-22T14:20:19.516+03:00,0.02197104130929222,0
2025-04-28T22:25:26.839+03:00,1745868324.265106,40.98553583423499,29.1374642380764,128.2676,-1,-1,-1,-1,30.00575485195334,24.22467901491021,-9999,463.305964125,-0.7558441162109375,0.4478912353515625,-0.48309326171875,463.295887125,-0.954244139237407,-0.9954073457905545,-0.4663063815693675,0.02367882244288921,0.01949126273393631,0.004193071275949478,-0.004514575004577637,0.004679352045059204,0.008799463510513306,XArbitraryZVertical,-0.3936494407210472,-0.3193872768326557,-0.2946089965736505,0.8100847541032168,-0.7494068741798401,0.4495900869369507,-0.4860637784004211,0,0,0,-1,-1,458.117546125,unknown,2,2025-04-28T22:25:21.646+03:00,null,0,0,0,0,0,0,0,null,767561124.3248035,0,0.41,100.7959,1,0.15,2025-04-27T20:36:35.266+03:00,71,1.183333333333333,2025-04-22T14:20:19.516+03:00,0.02197104130929222,0
2025-04-28T22:25:26.849+03:00,1745868324.265106,40.98553583423499,29.1374642380764,128.2676,-1,-1,-1,-1,30.00575485195334,24.22467901491021,-9999,463.316041125,-0.75311279296875,0.4411773681640625,-0.4852752685546875,463.305964125,-0.9540091725590728,-0.9951224945980641,-0.4662487135658537,0.01952828466892242,0.01700200513005257,0.006438116542994976,-0.006874382495880127,0.003326982259750366,0.007470607757568359,XArbitraryZVertical,-0.3935495283498878,-0.3193322785909958,-0.2945844618047876,0.8101638898989618,-0.7492901086807251,0.4495385885238647,-0.4862913191318512,0,0,0,-1,-1,458.117546125,unknown,2,2025-04-28T22:25:21.646+03:00,null,0,0,0,0,0,0,0,null,767561124.3248035,0,0.41,100.7959,1,0.15,2025-04-27T20:36:35.266+03:00,71,1.183333333333333,2025-04-22T14:20:19.516+03:00,0.02197104130929222,0
2025-04-28T22:25:26.859+03:00,1745868324.265106,40.98553583423499,29.1374642380764,128.2676,-1,-1,-1,-1,30.00575485195334,24.22467901491021,-9999,463.3261181250001,-0.748626708984375,0.441925048828125,-0.4854278564453125,463.316041125,-0.9538364025053444,-0.9948961545720013,-0.4662020976134811,0.01111402921378613,0.01430528797209263,0.006679665297269821,-0.005791962146759033,-0.002307593822479248,0.002906113862991333,XArbitraryZVertical,-0.3934720926765377,-0.3192860108596732,-0.2945707902730784,0.8102246829128351,-0.7491976022720337,0.4494969248771667,-0.4864723086357117,0,0,0,-1,-1,458.117546125,unknown,2,2025-04-28T22:25:21.646+03:00,null,0,0,0,0,0,0,0,null,767561124.3248035,0,0.41,100.7959,1,0.15,2025-04-27T20:36:35.266+03:00,71,1.183333333333333,2025-04-22T14:20:19.516+03:00,0.02197104130929222,0
2025-04-28T22:25:26.869+03:00,1745868324.265106,40.98553583423499,29.1374642380764,128.2676,-1,-1,-1,-1,30.00575485195334,24.22467901491021,-9999,463.336195125,-0.7436370849609375,0.4451751708984375,-0.489044189453125,463.3261181250001,-0.9537007410607118,-0.9947451471817382,-0.4661755386400457,0.01138966623693705,0.005634568631649017,0.001633507665246725,-0.004054844379425049,-0.008829891681671143,0.001850813627243042,XArbitraryZVertical,-0.3934187817654153,-0.3192580335857175,-0.2945522510688903,0.8102683293660925,-0.7491341233253479,0.4494732022285461,-0.4865919351577759,0,0,0,-1,-1,458.117546125,unknown,2,2025-04-28T22:25:21.646+03:00,null,0,0,0,0,0,0,0,null,767561124.3248035,0,0.41,100.7959,1,0.15,2025-04-27T20:36:35.266+03:00,71,1.183333333333333,2025-04-22T14:20:19.516+03:00,0.02197104130929222,0
2025-04-28T22:25:26.879+03:00,1745868324.265106,40.98553583423499,29.1374642380764,128.2676,-1,-1,-1,-1,30.00575485195334,24.22467901491021,-9999,463.346272125,-0.746337890625,0.4465484619140625,-0.4878692626953125,463.336195125,-0.9535876306510093,-0.9946611811435672,-0.466128294382476,0.01134465914219618,0.001252869609743357,-0.000747092068195343,0.00115591287612915,-0.007078647613525391,0.0008419156074523926,XArbitraryZVertical,-0.3933715440253843,-0.3192578673072587,-0.2945349060861338,0.8102977849603207,-0.7491111755371094,0.4494310021400452,-0.4866664707660675,0,0,0,-1,-1,458.117546125,unknown,2,2025-04-28T22:25:21.646+03:00,null,0,0,0,0,0,0,0,null,767561124.3248035,0,0.41,100.7959,1,0.15,2025-04-27T20:36:35.266+03:00,71,1.183333333333333,2025-04-22T14:20:19.516+03:00,0.02197104130929222,0
2025-04-28T22:25:26.889+03:00,1745868324.265106,40.98553583423499,29.1374642380764,128.2676,-1,-1,-1,-1,30.00575485195334,24.22467901491021,-9999,463.356350125,-0.7510528564453125,0.4486541748046875,-0.4825439453125,463.346272125,-0.9534619464411443,-0.9945877436629866,-0.466036892802231,0.01591411046683788,0.003738930448889732,-3.975650179199874e-05,0.005594909191131592,-0.003518015146255493,-0.002880126237869263,XArbitraryZVertical,-0.3933082839079648,-0.319275230237142,-0.2945215216403172,0.8103264496451126,-0.7491098642349243,0.4493493437767029,-0.486743837594986,0,0,0,-1,-1,458.117546125,unknown,2,2025-04-28T22:25:21.646+03:00,null,0,0,0,0,0,0,0,null,767561124.3248035,0,0.41,100.7959,1,0.15,2025-04-27T20:36:35.266+03:00,71,1.183333333333333,2025-04-22T14:20:19.516+03:00,0.02197104130929222,0
2025-04-28T22:25:26.899+03:00,1745868324.265106,40.98553583423499,29.1374642380764,128.2676,-1,-1,-1,-1,30.00575485195334,24.22467901491021,-9999,463.366427125,-0.75311279296875,0.4448699951171875,-0.4791259765625,463.356350125,-0.9533079222045601,-0.9944853485603428,-0.4659244679788958,0.01673835888504982,0.005418586079031229,-0.002991071669384837,0.001711606979370117,-0.00224265456199646,-0.0004718303680419922,XArbitraryZVertical,-0.3932287475106858,-0.3192915862074224,-0.2945076650864966,0.8103636397769184,-0.7491023540496826,0.4492489099502563,-0.4868480563163757,0,0,0,-1,-1,458.117546125,unknown,2,2025-04-28T22:25:21.646+03:00,null,0,0,0,0,0,0,0,null,767561124.3248035,0,0.41,100.7959,1,0.15,2025-04-27T20:36:35.266+03:00,71,1.183333333333333,2025-04-22T14:20:19.516+03:00,0.02197104130929222,0
2025-04-28T22:25:26.909+03:00,1745868324.265106,40.98553583423499,29.1374642380764,128.2676,-1,-1,-1,-1,30.00575485195334,24.22467901491021,-9999,463.3765041250001,-0.753692626953125,0.4434814453125,-0.4788360595703125,463.366427125,-0.9531742373887948,-0.9943767276296848,-0.4658102325576942,0.01559492945671082,0.006629658862948418,-0.004474518820643425,-0.002860605716705322,-0.001667559146881104,0.004703402519226074,XArbitraryZVertical,-0.3931508852041549,-0.3193018556731155,-0.2945037246568095,0.8103988227703979,-0.7490925192832947,0.4491468667984009,-0.4869574010372162,0,0,0,-1,-1,463.277000125,unknown,2,2025-04-28T22:25:26.805+03:00,null,0,0,0,0,0,0,0,null,767561126.8967664,0,0.4899999,100.7916,1,0.15,2025-04-27T20:36:35.266+03:00,71,1.183333333333333,2025-04-22T14:20:19.516+03:00,0.02197104130929222,0
2025-04-28T22:25:26.919+03:00,1745868324.265106,40.98553583423499,29.1374642380764,128.2676,-1,-1,-1,-1,30.00575485195334,24.22467901491021,-9999,463.386581125,-0.7510833740234375,0.4424591064453125,-0.48095703125,463.3765041250001,-0.9530606842126039,-0.9942672660636587,-0.4657007429323658,0.01352385710924864,0.008051586337387562,-0.003888989798724651,-0.004734218120574951,-0.004056960344314575,0.007986068725585938,XArbitraryZVertical,-0.3930777989395349,-0.319306651922444,-0.2945068958171151,0.8104312351194838,-0.7490804195404053,0.4490490257740021,-0.4870662093162537,0,0,0,-1,-1,463.277000125,unknown,2,2025-04-28T22:25:26.805+03:00,null,0,0,0,0,0,0,0,null,767561126.8967664,0,0.4899999,100.7916,1,0.15,2025-04-27T20:36:35.266+03:00,71,1.183333333333333,2025-04-22T14:20:19.516+03:00,0.02197104130929222,0
2025-04-28T22:25:26.929+03:00,1745868324.265106,40.98553583423499,29.1374642380764,128.2676,-1,-1,-1,-1,30.00575485195334,24.22467901491021,-9999,463.396658125,-0.748565673828125,0.4396209716796875,-0.4835357666015625,463.386581125,-0.9529786402026769,-0.9941648056409,-0.4656231711570102,0.01155178621411324,0.007409764919430017,-0.003030386753380299,-0.003946244716644287,-0.005330413579940796,0.007746100425720215,XArbitraryZVertical,-0.3930221018598364,-0.319300261373653,-0.2945133835628679,0.810458388781066,-0.7490596771240234,0.4489797055721283,-0.4871619343757629,0,0,0,-1,-1,463.277000125,unknown,2,2025-04-28T22:25:26.805+03:00,null,0,0,0,0,0,0,0,null,767561126.8967664,0,0.4899999,100.7916,1,0.15,2025-04-27T20:36:35.266+03:00,71,1.183333333333333,2025-04-22T14:20:19.516+03:00,0.02197104130929222,0
2025-04-28T22:25:26.939+03:00,1745868324.265106,40.98553583423499,29.1374642380764,128.2676,-1,-1,-1,-1,30.00575485195334,24.22467901491021,-9999,463.406735125,-0.7467803955078125,0.43865966796875,-0.486724853515625,463.396658125,-0.9529221015832224,-0.9940934257532794,-0.4655730620553467,0.003981750458478928,0.002877597697079182,0.0003154759178869426,-0.002115845680236816,-0.00643002986907959,0.006194353103637695,XArbitraryZVertical,-0.3929847964038258,-0.3192947202025452,-0.29451715556014,0.8104772683296325,-0.7490437626838684,0.448934942483902,-0.4872276484966278,0,0,0,-1,-1,463.277000125,unknown,2,2025-04-28T22:25:26.805+03:00,null,0,0,0,0,0,0,0,null,767561126.8967664,0,0.4899999,100.7916,1,0.15,2025-04-27T20:36:35.266+03:00,71,1.183333333333333,2025-04-22T14:20:19.516+03:00,0.02197104130929222,0
2025-04-28T22:25:26.949+03:00,1745868324.265106,40.98553583423499,29.1374642380764,128.2676,-1,-1,-1,-1,30.00575485195334,24.22467901491021,-9999,463.416813125,-0.7479248046875,0.440765380859375,-0.4882049560546875,463.406735125,-0.9529231574898405,-0.9940673927129008,-0.4655498663157756,-0.0001195175282191485,0.003112754784524441,0.0006502352771349251,0.001389682292938232,-0.009171187877655029,0.003366202116012573,XArbitraryZVertical,-0.3929729144128753,-0.3192896422938334,-0.2945285546822958,0.8104808580668912,-0.7490397691726685,0.4489142298698425,-0.4872528314590454,0,0,0,-1,-1,463.277000125,unknown,2,2025-04-28T22:25:26.805+03:00,null,0,0,0,0,0,0,0,null,767561126.8967664,0,0.4899999,100.7916,1,0.15,2025-04-27T20:36:35.266+03:00,71,1.183333333333333,2025-04-22T14:20:19.516+03:00,0.02197104130929222,0
2025-04-28T22:25:26.959+03:00,1745868324.265106,40.98553583423499,29.1374642380764,128.2676,-1,-1,-1,-1,30.00575485195334,24.22467901491021,-9999,463.426890125,-0.747955322265625,0.445709228515625,-0.48602294921875,463.416813125,-0.9529419507948347,-0.9940378253001931,-0.4655542610775997,-0.002539665205404162,0.004611714743077755,0.0007674809312447906,0.002975821495056152,-0.00980067253112793,0.0002591609954833984,XArbitraryZVertical,-0.3929731147849214,-0.319272892440419,-0.2945408713915102,0.8104828943530638,-0.7490237355232239,0.4489181339740753,-0.4872739017009735,0,0,0,-1,-1,463.277000125,unknown,2,2025-04-28T22:25:26.805+03:00,null,0,0,0,0,0,0,0,null,767561126.8967664,0,0.4899999,100.7916,1,0.15,2025-04-27T20:36:35.266+03:00,71,1.183333333333333,2025-04-22T14:20:19.516+03:00,0.02197104130929222,0
2025-04-28T22:25:26.970+03:00,1745868324.265106,40.98553583423499,29.1374642380764,128.2676,-1,-1,-1,-1,30.00575485195334,24.22467901491021,-9999,463.436967125,-0.7467193603515625,0.447296142578125,-0.4865875244140625,463.426890125,-0.9529588550720777,-0.9939839588017162,-0.4655633909686137,-0.001130054006353021,0.005182962864637375,0.0005227364599704742,0.0009319782257080078,-0.007611572742462158,-0.0008776187896728516,XArbitraryZVertical,-0.3929710965070751,-0.3192455120583681,-0.2945560068806858,0.8104892107902469,-0.7489940524101257,0.4489262998104095,-0.4873120486736298,0,0,0,-1,-1,463.277000125,unknown,2,2025-04-28T22:25:26.805+03:00,null,0,0,0,0,0,0,0,null,767561126.8967664,0,0.4899999,100.7916,1,0.15,2025-04-27T20:36:35.266+03:00,71,1.183333333333333,2025-04-22T14:20:19.516+03:00,0.02197104130929222,0
2025-04-28T22:25:26.980+03:00,1745868324.265106,40.98553583423499,29.1374642380764,128.2676,-1,-1,-1,-1,30.00575485195334,24.22467901491021,-9999,463.447044125,-0.7497711181640625,0.4509429931640625,-0.484222412109375,463.436967125,-0.9529923682333217,-0.9939121481191188,-0.4655940797630987,-0.01026929076761007,0.009572850540280342,0.0001985963899642229,0.001190662384033203,-0.003259718418121338,0.002052575349807739,XArbitraryZVertical,-0.3929767627856621,-0.3192023051873658,-0.294575943402196,0.8104962230402124,-0.7489475011825562,0.4489537179470062,-0.4873583018779755,0,0,0,-1,-1,463.277000125,unknown,2,2025-04-28T22:25:26.805+03:00,null,0,0,0,0,0,0,0,null,767561126.8967664,0,0.4899999,100.7916,1,0.15,2025-04-27T20:36:35.266+03:00,71,1.183333333333333,2025-04-22T14:20:19.516+03:00,0.02197104130929222,0
2025-04-28T22:25:26.990+03:00,1745868324.265106,40.98553583423499,29.1374642380764,128.2676,-1,-1,-1,-1,30.00575485195334,24.22467901491021,-9999,463.457121125,-0.74969482421875,0.44580078125,-0.480712890625,463.447044125,-0.9531094355198373,-0.9938737730014539,-0.4656770270676686,-0.01422994397580624,0.009400544688105583,0.0006340232212096453,0.002315640449523926,-0.001197636127471924,0.001130163669586182,XArbitraryZVertical,-0.3930192313360033,-0.3191434220993556,-0.294609968063636,0.8104864291772471,-0.7488976120948792,0.4490278363227844,-0.4873667061328888,0,0,0,-1,-1,463.277000125,unknown,2,2025-04-28T22:25:26.805+03:00,null,0,0,0,0,0,0,0,null,767561126.8967664,0,0.4899999,100.7916,1,0.15,2025-04-27T20:36:35.266+03:00,71,1.183333333333333,2025-04-22T14:20:19.516+03:00,0.02197104130929222,0
2025-04-28T22:25:27.000+03:00,1745868324.265106,40.98553583423499,29.1374642380764,128.2676,-1,-1,-1,-1,30.00575485195334,24.22467901491021,-9999,463.467198125,-0.749725341796875,0.442962646484375,-0.4798126220703125,463.457121125,-0.953271486864775,-0.9938606715770676,-0.4657669930362289,-0.01870059035718441,0.01397425681352615,0.001228840323165059,-0.0008984804153442383,0.001163393259048462,0.003788292407989502,XArbitraryZVertical,-0.3930750799321979,-0.3190842165881693,-0.2946554836339361,0.8104660982623962,-0.748857319355011,0.449108213186264,-0.4873544871807098,0,0,0,-1,-1,463.277000125,unknown,2,2025-04-28T22:25:26.805+03:00,null,0,0,0,0,0,0,0,null,767561126.8967664,0,0.4899999,100.7916,1,0.15,2025-04-27T20:36:35.266+03:00,71,1.183333333333333,2025-04-22T14:20:19.516+03:00,0.02197104130929222,0
2025-04-28T22:25:27.010+03:00,1745868324.265106,40.98553583423499,29.1374642380764,128.2676,-1,-1,-1,-1,30.00575485195334,24.22467901491021,-9999,463.477276125,-0.7461700439453125,0.4434661865234375,-0.4814453125,463.467198125,-0.9534520559952332,-0.9938049221730891,-0.4658841619335552,-0.0198015421628952,0.01476521603763103,0.002220601541921496,-0.0008934736251831055,-0.004052966833114624,0.006944596767425537,XArbitraryZVertical,-0.393137224305583,-0.3189974182002524,-0.2947100180240576,0.8104503204081827,-0.7487860918045044,0.449212908744812,-0.4873675405979156,0,0,0,-1,-1,463.277000125,unknown,2,2025-04-28T22:25:26.805+03:00,null,0,0,0,0,0,0,0,null,767561126.8967664,0,0.4899999,100.7916,1,0.15,2025-04-27T20:36:35.266+03:00,71,1.183333333333333,2025-04-22T14:20:19.516+03:00,0.02197104130929222,0
2025-04-28T22:25:27.020+03:00,1745868324.265106,40.98553583423499,29.1374642380764,128.2676,-1,-1,-1,-1,30.00575485195334,24.22467901491021,-9999,463.487353125,-0.7449798583984375,0.4444427490234375,-0.4803009033203125,463.477276125,-0.9536154445138328,-0.993758218142592,-0.4660006829253966,-0.01494866423308849,0.01353543438017368,0.002294803969562054,-0.001326322555541992,-0.006384819746017456,0.007225692272186279,XArbitraryZVertical,-0.3931977288570634,-0.3189178088731192,-0.2947559735203055,0.8104355905932591,-0.7487194538116455,0.4493170082569122,-0.487373948097229,0,0,0,-1,-1,463.277000125,unknown,2,2025-04-28T22:25:26.805+03:00,null,0,0,0,0,0,0,0,null,767561126.8967664,0,0.4899999,100.7916,1,0.15,2025-04-27T20:36:35.266+03:00,71,1.183333333333333,2025-04-22T14:20:19.516+03:00,0.02197104130929222,0
2025-04-28T22:25:27.030+03:00,1745868324.265106,40.98553583423499,29.1374642380764,128.2676,-1,-1,-1,-1,30.00575485195334,24.22467901491021,-9999,463.4974301250001,-0.7509307861328125,0.4438323974609375,-0.4812774658203125,463.487353125,-0.953771557108782,-0.9936754589406106,-0.4661120401973192,-0.0207959022372961,0.01599113643169403,0.001929684425704181,0.002406120300292969,-0.006026536226272583,0.005642950534820557,XArbitraryZVertical,-0.3932499000211104,-0.3188262824744471,-0.294807380520249,0.8104276336803444,-0.7486371994018555,0.4494164884090424,-0.4874086380004883,0,0,0,-1,-1,463.277000125,unknown,2,2025-04-28T22:25:26.805+03:00,null,0,0,0,0,0,0,0,null,767561126.8967664,0,0.4899999,100.7916,1,0.15,2025-04-27T20:36:35.266+03:00,71,1.183333333333333,2025-04-22T14:20:19.516+03:00,0.02197104130929222,0
2025-04-28T22:25:27.040+03:00,1745868324.265106,40.98553583423499,29.1374642380764,128.2676,-1,-1,-1,-1,30.00575485195334,24.22467901491021,-9999,463.507507125,-0.747711181640625,0.4472808837890625,-0.48419189453125,463.4974301250001,-0.9539647319189735,-0.9936034862951891,-0.4662533954430325,-0.02569744922220707,0.01390721276402473,0.004196167457848787,0.00356900691986084,-0.004169225692749023,0.006882786750793457,XArbitraryZVertical,-0.3933202388457677,-0.3187244602012457,-0.2948640945671163,0.8104128602833861,-0.7485488057136536,0.449542760848999,-0.487427830696106,0,0,0,-1,-1,463.277000125,unknown,2,2025-04-28T22:25:26.805+03:00,null,0,0,0,0,0,0,0,null,767561126.8967664,0,0.4899999,100.7916,1,0.15,2025-04-27T20:36:35.266+03:00,71,1.183333333333333,2025-04-22T14:20:19.516+03:00,0.02197104130929222,0
2025-04-28T22:25:27.050+03:00,1745868324.265106,40.98553583423499,29.1374642380764,128.2676,-1,-1,-1,-1,30.00575485195334,24.22467901491021,-9999,463.517584125,-0.745880126953125,0.4499053955078125,-0.48583984375,463.507507125,-0.9541913642040643,-0.9936184515645556,-0.4663795434486506,-0.02421699836850166,0.004300124943256378,-0.0009607774554751813,-0.002269506454467773,-0.006616443395614624,0.005070626735687256,XArbitraryZVertical,-0.3934032854939398,-0.318655011642722,-0.2949211192590723,0.8103791311958407,-0.748508632183075,0.4496554434299469,-0.4873856902122498,0,0,0,-1,-1,463.277000125,unknown,2,2025-04-28T22:25:26.805+03:00,null,0,0,0,0,0,0,0,null,767561126.8967664,0,0.4899999,100.7916,1,0.15,2025-04-27T20:36:35.266+03:00,71,1.183333333333333,2025-04-22T14:20:19.516+03:00,0.02197104130929222,0
2025-04-28T22:25:27.060+03:00,1745868324.265106,40.98553583423499,29.1374642380764,128.2676,-1,-1,-1,-1,30.00575485195334,24.22467901491021,-9999,463.527661125,-0.746551513671875,0.4484100341796875,-0.4860992431640625,463.517584125,-0.9544321305439946,-0.9936776155329344,-0.4665028837772393,-0.02459809556603432,0.006862352136522532,-0.001372235827147961,0.001481711864471436,-0.001874387264251709,0.003119289875030518,XArbitraryZVertical,-0.3934941149841404,-0.3186013567196823,-0.2949758713700736,0.8103361725185627,-0.7484909296035767,0.4497655928134918,-0.4873111248016357,0,0,0,-1,-1,463.277000125,unknown,2,2025-04-28T22:25:26.805+03:00,null,0,0,0,0,0,0,0,null,767561126.8967664,0,0.4899999,100.7916,1,0.15,2025-04-27T20:36:35.266+03:00,71,1.183333333333333,2025-04-22T14:20:19.516+03:00,0.02197104130929222,0
2025-04-28T22:25:27.071+03:00,1745868324.265106,40.98553583423499,29.1374642380764,128.2676,-1,-1,-1,-1,30.00575485195334,24.22467901491021,-9999,463.537739125,-0.743743896484375,0.44793701171875,-0.4813385009765625,463.527661125,-0.954679359373783,-0.9937471150489802,-0.4666128847254704,-0.02315759286284447,0.00194828724488616,-0.004644195549190044,0.002771139144897461,-0.000538259744644165,0.0008735060691833496,XArbitraryZVertical,-0.3935827343083604,-0.3185538798811074,-0.2950345760505109,0.8102904559940607,-0.7484833598136902,0.4498638510704041,-0.487232118844986,0,0,0,-1,-1,463.277000125,unknown,2,2025-04-28T22:25:26.805+03:00,null,0,0,0,0,0,0,0,null,767561126.8967664,0,0.4899999,100.7916,1,0.15,2025-04-27T20:36:35.266+03:00,71,1.183333333333333,2025-04-22T14:20:19.516+03:00,0.02197104130929222,0
2025-04-28T22:25:27.081+03:00,1745868324.265106,40.98553583423499,29.1374642380764,128.2676,-1,-1,-1,-1,30.00575485195334,24.22467901491021,-9999,463.5478161250001,-0.743072509765625,0.4479827880859375,-0.4808502197265625,463.537739125,-0.9549247776495992,-0.9938775165341626,-0.466677402636164,-0.01814858615398407,-0.003255396150052547,-0.007761625107377768,0.001910150051116943,-0.00151139497756958,0.0009279251098632812,XArbitraryZVertical,-0.3936639005406892,-0.3185425837468269,-0.2950920476003516,0.8102346115930369,-0.7485226392745972,0.4499214589595795,-0.4871187210083008,0,0,0,-1,-1,463.277000125,unknown,2,2025-04-28T22:25:26.805+03:00,null,0,0,0,0,0,0,0,null,767561126.8967664,0,0.4899999,100.7916,1,0.15,2025-04-27T20:36:35.266+03:00,71,1.183333333333333,2025-04-22T14:20:19.516+03:00,0.02197104130929222,0
2025-04-28T22:25:27.091+03:00,1745868324.265106,40.98553583423499,29.1374642380764,128.2676,-1,-1,-1,-1,30.00575485195334,24.22467901491021,-9999,463.557893125,-0.7454071044921875,0.4494171142578125,-0.4847869873046875,463.5478161250001,-0.9551471281544942,-0.9940604582314801,-0.4666839401323939,-0.01638530567288399,-0.01108748652040958,-0.0118772741407156,0.005429983139038086,-0.002005487680435181,0.005244970321655273,XArbitraryZVertical,-0.3937286289066119,-0.318571319441159,-0.2951444582115124,0.8101727675759428,-0.7486092448234558,0.4499273002147675,-0.4869801700115204,0,0,0,-1,-1,463.277000125,unknown,2,2025-04-28T22:25:26.805+03:00,null,0,0,0,0,0,0,0,null,767561126.8967664,0,0.4899999,100.7916,1,0.15,2025-04-27T20:36:35.266+03:00,71,1.183333333333333,2025-04-22T14:20:19.516+03:00,0.02197104130929222,0
2025-04-28T22:25:27.101+03:00,1745868324.265106,40.98553583423499,29.1374642380764,128.2676,-1,-1,-1,-1,30.00575485195334,24.22467901491021,-9999,463.567970125,-0.746490478515625,0.4468536376953125,-0.4891204833984375,463.557893125,-0.9553757907944577,-0.9942976050117206,-0.4666314928695136,-0.01358559168875217,-0.01353020593523979,-0.01342899817973375,0.006129801273345947,-0.001424610614776611,0.005187094211578369,XArbitraryZVertical,-0.3937814595666159,-0.3186352405573624,-0.2952036510022409,0.8101004055828117,-0.7487445473670959,0.4498804807662964,-0.486815482378006,0,0,0,-1,-1,463.277000125,unknown,2,2025-04-28T22:25:26.805+03:00,null,0,0,0,0,0,0,0,null,767561126.8967664,0,0.4899999,100.7916,1,0.15,2025-04-27T20:36:35.266+03:00,71,1.183333333333333,2025-04-22T14:20:19.516+03:00,0.02197104130929222,0
2025-04-28T22:25:27.111+03:00,1745868324.265106,40.98553583423499,29.1374642380764,128.2676,-1,-1,-1,-1,30.00575485195334,24.22467901491021,-9999,463.578047125,-0.7487945556640625,0.445587158203125,-0.487274169921875,463.567970125,-0.9555787930719847,-0.994539545704449,-0.46657546033601,-0.01319357473403215,-0.0141573790460825,-0.01548336073756218,0.003079593181610107,-0.001176208257675171,0.001861095428466797,XArbitraryZVertical,-0.3938296728529775,-0.3187070184523484,-0.2952523948531332,0.8100309469634936,-0.7488834261894226,0.4498304128646851,-0.4866480529308319,0,0,0,-1,-1,463.277000125,unknown,2,2025-04-28T22:25:26.805+03:00,null,0,0,0,0,0,0,0,null,767561126.8967664,0,0.4899999,100.7916,1,0.15,2025-04-27T20:36:35.266+03:00,71,1.183333333333333,2025-04-22T14:20:19.516+03:00,0.02197104130929222,0
2025-04-28T22:25:27.121+03:00,1745868324.265106,40.98553583423499,29.1374642380764,128.2676,-1,-1,-1,-1,30.00575485195334,24.22467901491021,-9999,463.588125125,-0.75048828125,0.4420013427734375,-0.4821319580078125,463.578047125,-0.9558002341912157,-0.9947966509685374,-0.466509749573681,-0.01610480807721615,-0.01383793167769909,-0.01765923015773296,0.002359747886657715,-0.002948552370071411,-0.002236843109130859,XArbitraryZVertical,-0.3938796344584261,-0.3187836768863404,-0.2953080613403641,0.809956215049896,-0.7490333318710327,0.4497717320919037,-0.4864715933799744,0,0,0,-1,-1,463.277000125,unknown,2,2025-04-28T22:25:26.805+03:00,null,0,0,0,0,0,0,0,null,767561126.8967664,0,0.4899999,100.7916,1,0.15,2025-04-27T20:36:35.266+03:00,71,1.183333333333333,2025-04-22T14:20:19.516+03:00,0.02197104130929222,0
2025-04-28T22:25:27.131+03:00,1745868324.265106,40.98553583423499,29.1374642380764,128.2676,-1,-1,-1,-1,30.00575485195334,24.22467901491021,-9999,463.598202125,-0.751708984375,0.4445037841796875,-0.47821044921875,463.588125125,-0.956027335278325,-0.9950376707654127,-0.4664444834866812,-0.01256813108921051,-0.01030418463051319,-0.01225913781672716,0.0002890229225158691,-0.004141539335250854,-0.0006161630153656006,XArbitraryZVertical,-0.3939283724719536,-0.3188525618073458,-0.2953690388753037,0.8098830113553908,-0.7491750121116638,0.4497134387493134,-0.4863069653511047,0,0,0,-1,-1,463.277000125,unknown,2,2025-04-28T22:25:26.805+03:00,null,0,0,0,0,0,0,0,null,767561126.8967664,0,0.4899999,100.7916,1,0.15,2025-04-27T20:36:35.266+03:00,71,1.183333333333333,2025-04-22T14:20:19.516+03:00,0.02197104130929222,0
2025-04-28T22:25:27.141+03:00,1745868324.265106,40.98553583423499,29.1374642380764,128.2676,-1,-1,-1,-1,30.00575485195334,24.22467901491021,-9999,463.608279125,-0.7518310546875,0.448760986328125,-0.4786376953125,463.598202125,-0.9562190870201158,-0.9952145096283087,-0.46639725149177,-0.01195487193763256,-0.005115880630910397,-0.01296770572662354,-0.001270413398742676,-0.007853001356124878,0.004191428422927856,XArbitraryZVertical,-0.3939683429510755,-0.3188979978217812,-0.2954237923981747,0.8098256878387535,-0.7492788434028625,0.4496712684631348,-0.4861860275268555,0,0,0,-1,-1,463.277000125,unknown,2,2025-04-28T22:25:26.805+03:00,null,0,0,0,0,0,0,0,null,767561126.8967664,0,0.4899999,100.7916,1,0.15,2025-04-27T20:36:35.266+03:00,71,1.183333333333333,2025-04-22T14:20:19.516+03:00,0.02197104130929222,0
2025-04-28T22:25:27.151+03:00,1745868324.265106,40.98553583423499,29.1374642380764,128.2676,-1,-1,-1,-1,30.00575485195334,24.22467901491021,-9999,463.618356125,-0.754638671875,0.453033447265625,-0.4816436767578125,463.608279125,-0.9563937118681619,-0.9953306212441867,-0.4663448535035178,-0.009654167108237743,-0.002508379518985748,-0.01244253013283014,-0.002323329448699951,-0.005410552024841309,0.008328676223754883,XArbitraryZVertical,-0.393994761886087,-0.3189234912097862,-0.2954848836571324,0.8097805577012801,-0.7493550777435303,0.4496244490146637,-0.4861118793487549,0,0,0,-1,-1,463.277000125,unknown,2,2025-04-28T22:25:26.805+03:00,null,0,0,0,0,0,0,0,null,767561126.8967664,0,0.4899999,100.7916,1,0.15,2025-04-27T20:36:35.266+03:00,71,1.183333333333333,2025-04-22T14:20:19.516+03:00,0.02197104130929222,0
2025-04-28T22:25:27.161+03:00,1745868324.265106,40.98553583423499,29.1374642380764,128.2676,-1,-1,-1,-1,30.00575485195334,24.22467901491021,-9999,463.628433125,-0.7560577392578125,0.450836181640625,-0.482757568359375,463.618356125,-0.9565332949220777,-0.9953904225192626,-0.4662871437891761,-0.005935861263424158,-0.000147220678627491,-0.009735028259456158,-0.002211451530456543,0.0005461573600769043,0.007107853889465332,XArbitraryZVertical,-0.3940054157307666,-0.3189343855971256,-0.2955442137304427,0.8097494419046827,-0.7494059205055237,0.4495729207992554,-0.4860811829566956,0,0,0,-1,-1,463.277000125,unknown,2,2025-04-28T22:25:26.805+03:00,null,0,0,0,0,0,0,0,null,767561126.8967664,0,0.4899999,100.7916,1,0.15,2025-04-27T20:36:35.266+03:00,71,1.183333333333333,2025-04-22T14:20:19.516+03:00,0.02197104130929222,0
2025-04-28T22:25:27.172+03:00,1745868324.265106,40.98553583423499,29.1374642380764,128.2676,-1,-1,-1,-1,30.00575485195334,24.22467901491021,-9999,463.638510125,-0.7580718994140625,0.448516845703125,-0.485809326171875,463.628433125,-0.9566339420588951,-0.995387420800359,-0.4662497093430548,-0.004741966258734465,0.009707540273666382,-0.006995433941483498,-0.005601465702056885,0.003692388534545898,0.004220068454742432,XArbitraryZVertical,-0.3940077519695549,-0.3189225445167921,-0.2955950259975007,0.809734453998309,-0.7494186162948608,0.4495394825935364,-0.48609259724617,0,0,0,-1,-1,463.277000125,unknown,2,2025-04-28T22:25:26.805+03:00,null,0,0,0,0,0,0,0,null,767561126.8967664,0,0.4899999,100.7916,1,0.15,2025-04-27T20:36:35.266+03:00,71,1.183333333333333,2025-04-22T14:20:19.516+03:00,0.02197104130929222,0
2025-04-28T22:25:27.181+03:00,1745868324.265106,40.98553583423499,29.1374642380764,128.2676,-1,-1,-1,-1,30.00575485195334,24.22467901491021,-9999,463.648588125,-0.755401611328125,0.4487457275390625,-0.48614501953125,463.638510125,-0.9567437631356643,-0.9953334391172864,-0.4662179784366154,-0.00552466930821538,0.01131076365709305,-0.008235534653067589,-0.007278978824615479,0.0005011558532714844,0.003352761268615723,XArbitraryZVertical,-0.3940060576346652,-0.3188868479086253,-0.2956581444878723,0.8097262708312575,-0.7494043111801147,0.4495111107826233,-0.4861408174037933,0,0,0,-1,-1,463.277000125,unknown,2,2025-04-28T22:25:26.805+03:00,null,0,0,0,0,0,0,0,null,767561126.8967664,0,0.4899999,100.7916,1,0.15,2025-04-27T20:36:35.266+03:00,71,1.183333333333333,2025-04-22T14:20:19.516+03:00,0.02197104130929222,0
2025-04-28T22:25:27.191+03:00,1745868324.265106,40.98553583423499,29.1374642380764,128.2676,-1,-1,-1,-1,30.00575485195334,24.22467901491021,-9999,463.658665125,-0.7529449462890625,0.4451141357421875,-0.4844207763671875,463.648588125,-0.9568630206998687,-0.9952700102403995,-0.4661837405653232,-0.009033916518092155,0.01178613677620888,-0.008919434621930122,-0.008258223533630371,-0.00102466344833374,5.960464477539062e-06,XArbitraryZVertical,-0.3940035679227735,-0.3188460880864161,-0.2957275815017106,0.8097181812789958,-0.7493863701820374,0.4494805335998535,-0.4861967265605927,0,0,0,-1,-1,463.277000125,unknown,2,2025-04-28T22:25:26.805+03:00,null,0,0,0,0,0,0,0,null,767561126.8967664,0,0.4899999,100.7916,1,0.15,2025-04-27T20:36:35.266+03:00,71,1.183333333333333,2025-04-22T14:20:19.516+03:00,0.02197104130929222,0
2025-04-28T22:25:27.201+03:00,1745868324.265106,40.98553583423499,29.1374642380764,128.2676,-1,-1,-1,-1,30.00575485195334,24.22467901491021,-9999,463.6687421250001,-0.7534942626953125,0.4454803466796875,-0.4835662841796875,463.658665125,-0.9569956844303859,-0.9951944850194712,-0.4661491125183276,-0.006826555356383324,0.01280492916703224,-0.006492962129414082,-0.005611598491668701,-0.0008259415626525879,0.0006661117076873779,XArbitraryZVertical,-0.3940013162486711,-0.3187978766587179,-0.2958049155833957,0.8097099405264635,-0.7493626475334167,0.4494495987892151,-0.4862617552280426,0,0,0,-1,-1,463.277000125,unknown,2,2025-04-28T22:25:26.805+03:00,null,0,0,0,0,0,0,0,null,767561126.8967664,0,0.4899999,100.7916,1,0.15,2025-04-27T20:36:35.266+03:00,71,1.183333333333333,2025-04-22T14:20:19.516+03:00,0.02197104130929222,0
2025-04-28T22:25:27.211+03:00,1745868324.265106,40.98553583423499,29.1374642380764,128.2676,-1,-1,-1,-1,30.00575485195334,24.22467901491021,-9999,463.678819125,-0.748046875,0.448577880859375,-0.481048583984375,463.6687421250001,-0.9571037408559037,-0.9951086369557554,-0.4661405830091385,-0.0100519098341465,0.01278495602309704,-0.004549386911094189,-0.002979874610900879,-0.004099011421203613,0.001419186592102051,XArbitraryZVertical,-0.3940028262594094,-0.3187439278996042,-0.2958677294306145,0.809707480685833,-0.7493241429328918,0.4494419991970062,-0.4863281548023224,0,0,0,-1,-1,463.277000125,unknown,2,2025-04-28T22:25:26.805+03:00,null,0,0,0,0,0,0,0,null,767561126.8967664,0,0.4899999,100.7916,1,0.15,2025-04-27T20:36:35.266+03:00,71,1.183333333333333,2025-04-22T14:20:19.516+03:00,0.02197104130929222,0
2025-04-28T22:25:27.221+03:00,1745868324.265106,40.98553583423499,29.1374642380764,128.2676,-1,-1,-1,-1,30.00575485195334,24.22467901491021,-9999,463.688896125,-0.7482147216796875,0.4469757080078125,-0.4798583984375,463.678819125,-0.9572234982586634,-0.9950640923202275,-0.4661224956035129,-0.006647124886512756,0.008431419730186462,-0.007258387748152018,-0.0041390061378479,-0.004418432712554932,0.002952396869659424,XArbitraryZVertical,-0.3940088448676347,-0.3187067695242007,-0.2959295858514431,0.8096967396102267,-0.7493094205856323,0.4494258165359497,-0.4863660633563995,0,0,0,-1,-1,463.277000125,unknown,2,2025-04-28T22:25:26.805+03:00,null,0,0,0,0,0,0,0,null,767561126.8967664,0,0.4899999,100.7916,1,0.15,2025-04-27T20:36:35.266+03:00,71,1.183333333333333,2025-04-22T14:20:19.516+03:00,0.02197104130929222,0
2025-04-28T22:25:27.232+03:00,1745868324.265106,40.98553583423499,29.1374642380764,128.2676,-1,-1,-1,-1,30.00575485195334,24.22467901491021,-9999,463.698973125,-0.7531280517578125,0.44610595703125,-0.478973388671875,463.688896125,-0.9573301091384534,-0.9949986052535608,-0.4661196070375101,-0.008819731883704662,0.01430235896259546,-0.002207170240581036,0.001262307167053223,-0.001150518655776978,0.004695862531661987,XArbitraryZVertical,-0.3940151521842811,-0.3186599539475637,-0.2959863673648823,0.8096912643438707,-0.7492786049842834,0.4494232535362244,-0.4864157736301422,0,0,0,-1,-1,463.277000125,unknown,2,2025-04-28T22:25:26.805+03:00,null,0,0,0,0,0,0,0,null,767561126.8967664,0,0.4899999,100.7916,1,0.15,2025-04-27T20:36:35.266+03:00,71,1.183333333333333,2025-04-22T14:20:19.516+03:00,0.02197104130929222,0
2025-04-28T22:25:27.242+03:00,1745868324.265106,40.98553583423499,29.1374642380764,128.2676,-1,-1,-1,-1,30.00575485195334,24.22467901491021,-9999,463.709051125,-0.748870849609375,0.4453277587890625,-0.4780120849609375,463.698973125,-0.957422794081754,-0.9949329766226139,-0.4661578363867034,-0.008084299974143505,0.01022758893668652,-0.002213761443272233,-2.002716064453125e-05,-0.002588480710983276,0.006337821483612061,XArbitraryZVertical,-0.3940337379398819,-0.3186057273981828,-0.2960271565110824,0.809688655300969,-0.7492322325706482,0.4494574069976807,-0.4864556193351746,0,0,0,-1,-1,463.277000125,unknown,2,2025-04-28T22:25:26.805+03:00,null,0,0,0,0,0,0,0,null,767561126.8967664,0,0.4899999,100.7916,1,0.15,2025-04-27T20:36:35.266+03:00,71,1.183333333333333,2025-04-22T14:20:19.516+03:00,0.02197104130929222,0
2025-04-28T22:25:27.252+03:00,1745868324.265106,40.98553583423499,29.1374642380764,128.2676,-1,-1,-1,-1,30.00575485195334,24.22467901491021,-9999,463.7191281250001,-0.75018310546875,0.4479217529296875,-0.4752960205078125,463.709051125,-0.9575179914396922,-0.9949167058440868,-0.4661928689429405,-0.00784461572766304,0.005343617871403694,-0.001144502311944962,-0.00420677661895752,-0.003153830766677856,0.007211208343505859,XArbitraryZVertical,-0.3940589027609125,-0.3185717697453073,-0.2960600441053004,0.8096777335475889,-0.7492111325263977,0.4494886994361877,-0.4864592254161835,0,0,0,-1,-1,463.277000125,unknown,2,2025-04-28T22:25:26.805+03:00,null,0,0,0,0,0,0,0,null,767561126.8967664,0,0.4899999,100.7916,1,0.15,2025-04-27T20:36:35.266+03:00,71,1.183333333333333,2025-04-22T14:20:19.516+03:00,0.02197104130929222,0
2025-04-28T22:25:27.262+03:00,1745868324.265106,40.98553583423499,29.1374642380764,128.2676,-1,-1,-1,-1,30.00575485195334,24.22467901491021,-9999,463.729205125,-0.755096435546875,0.448150634765625,-0.47686767578125,463.7191281250001,-0.9576082597707906,-0.9948897300930909,-0.466194985238217,-0.005291709210723639,0.01017539110034704,-0.003261848585680127,0.0009672641754150391,-0.003598183393478394,0.008680522441864014,XArbitraryZVertical,-0.3940700199553733,-0.3185425480005846,-0.2961013736551266,0.8096687445670321,-0.749197244644165,0.4494905769824982,-0.4864789247512817,0,0,0,-1,-1,463.277000125,unknown,2,2025-04-28T22:25:26.805+03:00,null,0,0,0,0,0,0,0,null,767561126.8967664,0,0.4899999,100.7916,1,0.15,2025-04-27T20:36:35.266+03:00,71,1.183333333333333,2025-04-22T14:20:19.516+03:00,0.02197104130929222,0
2025-04-28T22:25:27.274+03:00,1745868324.265106,40.98553583423499,29.1374642380764,128.2676,-1,-1,-1,-1,30.00575485195334,24.22467901491021,-9999,463.739282125,-0.7521209716796875,0.449310302734375,-0.4827880859375,463.729205125,-0.9576868214259402,-0.9948363753475228,-0.4661626224052056,-0.004260799381881952,0.00826537236571312,-0.008904554881155491,-0.002494931221008301,-0.001478821039199829,0.01168859004974365,XArbitraryZVertical,-0.3940631666183579,-0.3185134288548072,-0.2961518741731828,0.8096650828988176,-0.7491834759712219,0.4494616687297821,-0.4865268468856812,0,0,0,-1,-1,463.277000125,unknown,2,2025-04-28T22:25:26.805+03:00,null,0,0,0,0,0,0,0,null,767561126.8967664,0,0.4899999,100.7916,1,0.15,2025-04-27T20:36:35.266+03:00,71,1.183333333333333,2025-04-22T14:20:19.516+03:00,0.02197104130929222,0
2025-04-28T22:25:27.289+03:00,1745868324.265106,40.98553583423499,29.1374642380764,128.2676,-1,-1,-1,-1,30.00575485195334,24.22467901491021,-9999,463.749359125,-0.7467041015625,0.4509429931640625,-0.4834136962890625,463.739282125,-0.9577320305848924,-0.9948004973810297,-0.4660894832097414,0.004865587223321199,0.004873836413025856,-0.006620626896619797,-0.00507885217666626,-0.001016795635223389,0.008483290672302246,XArbitraryZVertical,-0.394039153492044,-0.3185079828530513,-0.2961957346220538,0.8096628786527417,-0.7491936087608337,0.4493963420391083,-0.4865716099739075,0,0,0,-1,-1,463.277000125,unknown,2,2025-04-28T22:25:26.805+03:00,null,0,0,0,0,0,0,0,null,767561126.8967664,0,0.4899999,100.7916,1,0.15,2025-04-27T20:36:35.266+03:00,71,1.183333333333333,2025-04-22T14:20:19.516+03:00,0.02197104130929222,0
2025-04-28T22:25:27.293+03:00,1745868324.265106,40.98553583423499,29.1374642380764,128.2676,-1,-1,-1,-1,30.00575485195334,24.22467901491021,-9999,463.759437125,-0.7458343505859375,0.4483795166015625,-0.485137939453125,463.749359125,-0.9577503237283687,-0.9947681544598723,-0.4659914712671667,0.004283686634153128,0.004822437651455402,-0.01031762734055519,-0.001807510852813721,0.0002456903457641602,0.003435045480728149,XArbitraryZVertical,-0.3940026156798095,-0.3185153728876745,-0.2962342720882611,0.8096635570163305,-0.7492147088050842,0.4493087828159332,-0.4866198003292084,0,0,0,-1,-1,463.277000125,unknown,2,2025-04-28T22:25:26.805+03:00,null,0,0,0,0,0,0,0,null,767561126.8967664,0,0.4899999,100.7916,1,0.15,2025-04-27T20:36:35.266+03:00,71,1.183333333333333,2025-04-22T14:20:19.516+03:00,0.02197104130929222,0
2025-04-28T22:25:27.302+03:00,1745868324.265106,40.98553583423499,29.1374642380764,128.2676,-1,-1,-1,-1,30.00575485195334,24.22467901491021,-9999,463.769514125,-0.7484283447265625,0.448577880859375,-0.486907958984375,463.759437125,-0.9577779366980339,-0.9947608849783859,-0.4658751977719571,0.003335601184517145,0.0006242301315069199,-0.008660209365189075,0.003695309162139893,0.001402437686920166,0.002858579158782959,XArbitraryZVertical,-0.3939647588831648,-0.3185355833689895,-0.2962762739423377,0.8096586780690741,-0.7492550015449524,0.4492048919200897,-0.4866537153720856,0,0,0,-1,-1,463.277000125,unknown,2,2025-04-28T22:25:26.805+03:00,null,0,0,0,0,0,0,0,null,767561126.8967664,0,0.4899999,100.7916,1,0.15,2025-04-27T20:36:35.266+03:00,71,1.183333333333333,2025-04-22T14:20:19.516+03:00,0.02197104130929222,0
2025-04-28T22:25:27.312+03:00,1745868324.265106,40.98553583423499,29.1374642380764,128.2676,-1,-1,-1,-1,30.00575485195334,24.22467901491021,-9999,463.779591125,-0.7482452392578125,0.45086669921875,-0.483551025390625,463.769514125,-0.9577773907635817,-0.9947337812914619,-0.4657976317881574,0.003104172414168715,0.004768641665577888,-0.002791400998830795,0.003162086009979248,-0.0008628964424133301,0.001280456781387329,XArbitraryZVertical,-0.3939332013980092,-0.318543787700284,-0.2963009926611181,0.8096617370104263,-0.749271035194397,0.4491356015205383,-0.4866929650306702,0,0,0,-1,-1,463.277000125,unknown,2,2025-04-28T22:25:26.805+03:00,null,0,0,0,0,0,0,0,null,767561126.8967664,0,0.4899999,100.7916,1,0.15,2025-04-27T20:36:35.266+03:00,71,1.183333333333333,2025-04-22T14:20:19.516+03:00,0.02197104130929222,0
2025-04-28T22:25:27.322+03:00,1745868324.265106,40.98553583423499,29.1374642380764,128.2676,-1,-1,-1,-1,30.00575485195334,24.22467901491021,-9999,463.789668125,-0.74859619140625,0.4482421875,-0.4824676513671875,463.779591125,-0.9577549823926119,-0.99469948515648,-0.4657727499690926,0.003020881908014417,0.006550096441060305,-0.0009441993315704167,0.000804901123046875,-0.0006270408630371094,0.0009612441062927246,XArbitraryZVertical,-0.3939157532999929,-0.3185404310850007,-0.2963049603383759,0.8096700656571193,-0.7492637038230896,0.4491133689880371,-0.4867247343063354,0,0,0,-1,-1,463.277000125,unknown,2,2025-04-28T22:25:26.805+03:00,null,0,0,0,0,0,0,0,null,767561126.8967664,0,0.4899999,100.7916,1,0.15,2025-04-27T20:36:35.266+03:00,71,1.183333333333333,2025-04-22T14:20:19.516+03:00,0.02197104130929222,0
2025-04-28T22:25:27.333+03:00,1745868324.265106,40.98553583423499,29.1374642380764,128.2676,-1,-1,-1,-1,30.00575485195334,24.22467901491021,-9999,463.799745125,-0.75244140625,0.447052001953125,-0.4811248779296875,463.789668125,-0.9577323792901685,-0.994623081761282,-0.465759542362746,0.005239561665803194,0.01049210783094168,0.001891268184408545,0.0007116794586181641,0.001109033823013306,0.003142714500427246,XArbitraryZVertical,-0.3938961385340176,-0.3185172049350525,-0.2963142016728983,0.8096854063464358,-0.7492315173149109,0.4491015672683716,-0.4867852330207825,0,0,0,-1,-1,463.277000125,unknown,2,2025-04-28T22:25:26.805+03:00,null,0,0,0,0,0,0,0,null,767561126.8967664,0,0.4899999,100.7916,1,0.15,2025-04-27T20:36:35.266+03:00,71,1.183333333333333,2025-04-22T14:20:19.516+03:00,0.02197104130929222,0
2025-04-28T22:25:27.343+03:00,1745868324.265106,40.98553583423499,29.1374642380764,128.2676,-1,-1,-1,-1,30.00575485195334,24.22467901491021,-9999,463.809822125,-0.754486083984375,0.44989013671875,-0.479705810546875,463.799745125,-0.9576262700394634,-0.9944336198451199,-0.4657559636128143,0.01324728783220053,0.01644919998943806,0.009341394528746605,-0.0004625916481018066,-0.001024007797241211,0.004963994026184082,XArbitraryZVertical,-0.3938498711079116,-0.3184622874121841,-0.2963094702478957,0.8097313214658816,-0.7491406798362732,0.4490983784198761,-0.4869281053543091,0,0,0,-1,-1,463.277000125,unknown,2,2025-04-28T22:25:26.805+03:00,null,0,0,0,0,0,0,0,null,767561126.8967664,0,0.4899999,100.7916,1,0.15,2025-04-27T20:36:35.266+03:00,71,1.183333333333333,2025-04-22T14:20:19.516+03:00,0.02197104130929222,0
2025-04-28T22:25:27.353+03:00,1745868324.265106,40.98553583423499,29.1374642380764,128.2676,-1,-1,-1,-1,30.00575485195334,24.22467901491021,-9999,463.819900125,-0.75048828125,0.450439453125,-0.4829864501953125,463.809822125,-0.9574637829331168,-0.9942041587055523,-0.4657856020517737,0.01216178294271231,0.0192180871963501,0.01089215371757746,-0.003927171230316162,-0.001782894134521484,0.006746053695678711,XArbitraryZVertical,-0.3938005100273457,-0.3183940904756239,-0.2962813754771547,0.8097924113253874,-0.7490177750587463,0.4491248428821564,-0.4870927333831787,0,0,0,-1,-1,463.277000125,unknown,2,2025-04-28T22:25:26.805+03:00,null,0,0,0,0,0,0,0,null,767561126.8967664,0,0.4899999,100.7916,1,0.15,2025-04-27T20:36:35.266+03:00,71,1.183333333333333,2025-04-22T14:20:19.516+03:00,0.02197104130929222,0
2025-04-28T22:25:27.363+03:00,1745868324.265106,40.98553583423499,29.1374642380764,128.2676,-1,-1,-1,-1,30.00575485195334,24.22467901491021,-9999,463.829977125,-0.7474517822265625,0.4492645263671875,-0.48675537109375,463.819900125,-0.9572717122725077,-0.9939519801859712,-0.4658059181270899,0.01350095309317112,0.01628767885267735,0.01245243288576603,-0.005064785480499268,0.001098185777664185,0.007875978946685791,XArbitraryZVertical,-0.3937397599660425,-0.3183248071763922,-0.296248127016309,0.8098613899396804,-0.748887300491333,0.4491429924964905,-0.4872766435146332,0,0,0,-1,-1,463.277000125,unknown,2,2025-04-28T22:25:26.805+03:00,null,0,0,0,0,0,0,0,null,767561126.8967664,0,0.4899999,100.7916,1,0.15,2025-04-27T20:36:35.266+03:00,71,1.183333333333333,2025-04-22T14:20:19.516+03:00,0.02197104130929222,0
2025-04-28T22:25:27.373+03:00,1745868324.265106,40.98553583423499,29.1374642380764,128.2676,-1,-1,-1,-1,30.00575485195334,24.22467901491021,-9999,463.8400541250001,-0.7459564208984375,0.44769287109375,-0.4882354736328125,463.829977125,-0.9570904702467871,-0.993722529299047,-0.4658503754023023,0.008531227707862854,0.01212196238338947,0.01402502972632647,-0.001424431800842285,0.001317828893661499,0.003077805042266846,XArbitraryZVertical,-0.3936927235681921,-0.3182566306249465,-0.2962086594415654,0.8099253869150669,-0.7487586140632629,0.4491827189922333,-0.487437516450882,0,0,0,-1,-1,463.277000125,unknown,2,2025-04-28T22:25:26.805+03:00,null,0,0,0,0,0,0,0,null,767561126.8967664,0,0.4899999,100.7916,1,0.15,2025-04-27T20:36:35.266+03:00,71,1.183333333333333,2025-04-22T14:20:19.516+03:00,0.02197104130929222,0
2025-04-28T22:25:27.383+03:00,1745868324.265106,40.98553583423499,29.1374642380764,128.2676,-1,-1,-1,-1,30.00575485195334,24.22467901491021,-9999,463.850131125,-0.7421112060546875,0.4432830810546875,-0.48760986328125,463.8400541250001,-0.9569567290498842,-0.993561128508003,-0.4659491889102285,0.001460469327867031,0.006863750517368317,0.01252843253314495,0.001740336418151855,-0.0003574192523956299,0.0005956888198852539,XArbitraryZVertical,-0.393682542818573,-0.3181933116075041,-0.2961613153921661,0.8099725475430547,-0.7486428022384644,0.4492709934711456,-0.4875341355800629,0,0,0,-1,-1,463.277000125,unknown,2,2025-04-28T22:25:26.805+03:00,null,0,0,0,0,0,0,0,null,767561126.8967664,0,0.4899999,100.7916,1,0.15,2025-04-27T20:36:35.266+03:00,71,1.183333333333333,2025-04-22T14:20:19.516+03:00,0.02197104130929222,0
2025-04-28T22:25:27.393+03:00,1745868324.265106,40.98553583423499,29.1374642380764,128.2676,-1,-1,-1,-1,30.00575485195334,24.22467901491021,-9999,463.860208125,-0.7454071044921875,0.4459075927734375,-0.485626220703125,463.850131125,-0.9568555188103594,-0.9934613722733239,-0.4660520972407016,0.0009920194279402494,0.006309013813734055,0.01565391942858696,0.002492189407348633,-0.001486927270889282,-0.0009417533874511719,XArbitraryZVertical,-0.3936881391109154,-0.3181475419963034,-0.2961139717912637,0.8100051049113757,-0.7485553622245789,0.4493629336357117,-0.4875835776329041,0,0,0,-1,-1,463.277000125,unknown,2,2025-04-28T22:25:26.805+03:00,null,0,0,0,0,0,0,0,null,767561126.8967664,0,0.4899999,100.7916,1,0.15,2025-04-27T20:36:35.266+03:00,71,1.183333333333333,2025-04-22T14:20:19.516+03:00,0.02197104130929222,0
2025-04-28T22:25:27.403+03:00,1745868324.265106,40.98553583423499,29.1374642380764,128.2676,-1,-1,-1,-1,30.00575485195334,24.22467901491021,-9999,463.870287,-0.749664306640625,0.4454345703125,-0.481475830078125,463.860208125,-0.9567647951006845,-0.9933472814696058,-0.4661702797665508,0.0008281682967208326,0.008867712691426277,0.01583551242947578,0.005687952041625977,-0.005788594484329224,0.0003963708877563477,XArbitraryZVertical,-0.393698665388593,-0.3180901592162949,-0.2960698511611606,0.8100387221159397,-0.748455286026001,0.4494685232639313,-0.4876400232315063,0,0,0,-1,-1,463.277000125,unknown,2,2025-04-28T22:25:26.805+03:00,null,0,0,0,0,0,0,0,null,767561126.8967664,0,0.4899999,100.7916,1,0.15,2025-04-27T20:36:35.266+03:00,71,1.183333333333333,2025-04-22T14:20:19.516+03:00,0.02197104130929222,0
2025-04-28T22:25:27.413+03:00,1745868324.265106,40.98553583423499,29.1374642380764,128.2676,-1,-1,-1,-1,30.00575485195334,24.22467901491021,-9999,463.880364,-0.751434326171875,0.4454498291015625,-0.4782257080078125,463.870287,-0.9566517364315756,-0.9931718701489963,-0.4662751657883626,0.003067354205995798,0.01649101078510284,0.01377901993691921,0.001519381999969482,-0.003349363803863525,0.002149879932403564,XArbitraryZVertical,-0.3936918961670671,-0.3180155908121727,-0.2960321002421902,0.810085069016517,-0.7483302354812622,0.4495622217655182,-0.4877455532550812,0,0,0,-1,-1,463.277000125,unknown,2,2025-04-28T22:25:26.805+03:00,null,0,0,0,0,0,0,0,null,767561126.8967664,0,0.4899999,100.7916,1,0.15,2025-04-27T20:36:35.266+03:00,71,1.183333333333333,2025-04-22T14:20:19.516+03:00,0.02197104130929222,0
2025-04-28T22:25:27.423+03:00,1745868324.265106,40.98553583423499,29.1374642380764,128.2676,-1,-1,-1,-1,30.00575485195334,24.22467901491021,-9999,463.890441,-0.7480010986328125,0.4464569091796875,-0.4788970947265625,463.880364,-0.9565183650148128,-0.9929645351884211,-0.4663712787482812,0.004531892947852612,0.01561356708407402,0.01411780714988708,-0.002402126789093018,-0.004167675971984863,0.007332086563110352,XArbitraryZVertical,-0.3936740725315167,-0.3179342424001693,-0.2959946198528298,0.8101393423041838,-0.7481929063796997,0.4496480524539948,-0.4878770709037781,0,0,0,-1,-1,463.277000125,unknown,2,2025-04-28T22:25:26.805+03:00,null,0,0,0,0,0,0,0,null,767561126.8967664,0,0.4899999,100.7916,1,0.15,2025-04-27T20:36:35.266+03:00,71,1.183333333333333,2025-04-22T14:20:19.516+03:00,0.02197104130929222,0
2025-04-28T22:25:27.433+03:00,1745868324.265106,40.98553583423499,29.1374642380764,128.2676,-1,-1,-1,-1,30.00575485195334,24.22467901491021,-9999,463.900518,-0.7454376220703125,0.447052001953125,-0.4837799072265625,463.890441,-0.9563919508152698,-0.9927854240369265,-0.4664659656722855,0.002113476395606995,0.0122409388422966,0.01428904943168163,-0.003761172294616699,-0.003931820392608643,0.009884238243103027,XArbitraryZVertical,-0.393661029679382,-0.3178633055200323,-0.2959547626442344,0.8101880819426341,-0.7480698227882385,0.449732631444931,-0.4879878163337708,0,0,0,-1,-1,463.277000125,unknown,2,2025-04-28T22:25:26.805+03:00,null,0,0,0,0,0,0,0,null,767561126.8967664,0,0.4899999,100.7916,1,0.15,2025-04-27T20:36:35.266+03:00,71,1.183333333333333,2025-04-22T14:20:19.516+03:00,0.02197104130929222,0
2025-04-28T22:25:27.444+03:00,1745868324.265106,40.98553583423499,29.1374642380764,128.2676,-1,-1,-1,-1,30.00575485195334,24.22467901491021,-9999,463.910595,-0.74591064453125,0.442413330078125,-0.486236572265625,463.900518,-0.9563206962353628,-0.992677629911386,-0.4665886842251137,-0.002317024860531092,0.007189654745161533,0.01314585376530886,0.0001072883605957031,-0.002744406461715698,0.008073151111602783,XArbitraryZVertical,-0.3936772384957915,-0.3178035155158367,-0.2959161397043115,0.8102178025429707,-0.7479710578918457,0.449842244386673,-0.4880383014678955,0,0,0,-1,-1,463.277000125,unknown,2,2025-04-28T22:25:26.805+03:00,null,0,0,0,0,0,0,0,null,767561126.8967664,0,0.4899999,100.7916,1,0.15,2025-04-27T20:36:35.266+03:00,71,1.183333333333333,2025-04-22T14:20:19.516+03:00,0.02197104130929222,0
2025-04-28T22:25:27.453+03:00,1745868324.265106,40.98553583423499,29.1374642380764,128.2676,-1,-1,-1,-1,30.00575485195334,24.22467901491021,-9999,463.920672,-0.7441253662109375,0.441314697265625,-0.4876708984375,463.910595,-0.9562890797724425,-0.9926308187041324,-0.4667039491137605,-0.006705115083605051,0.002298227045685053,0.01013355236500502,0.002894401550292969,-0.003381401300430298,0.003227472305297852,XArbitraryZVertical,-0.3937061594484791,-0.3177624496337149,-0.2958834432387207,0.8102317633807707,-0.7479047179222107,0.4499451816082001,-0.4880449771881104,0,0,0,-1,-1,463.277000125,unknown,2,2025-04-28T22:25:26.805+03:00,null,0,0,0,0,0,0,0,null,767561126.8967664,0,0.4899999,100.7916,1,0.15,2025-04-27T20:36:35.266+03:00,71,1.183333333333333,2025-04-22T14:20:19.516+03:00,0.02197104130929222,0
2025-04-28T22:25:27.464+03:00,1745868324.265106,40.98553583423499,29.1374642380764,128.2676,-1,-1,-1,-1,30.00575485195334,24.22467901491021,-9999,463.93075,-0.7420196533203125,0.446319580078125,-0.48614501953125,463.920672,-0.9562855702895866,-0.9926438783538328,-0.4668100844443632,-0.005118004512041807,-0.005053562112152576,0.009650787338614464,0.002174139022827148,-0.008236944675445557,0.0008875727653503418,XArbitraryZVertical,-0.3937451492069057,-0.3177423537737041,-0.2958526579347723,0.8102319476910002,-0.7478711009025574,0.4500399529933929,-0.4880090951919556,0,0,0,-1,-1,463.277000125,unknown,2,2025-04-28T22:25:26.805+03:00,null,0,0,0,0,0,0,0,null,767561126.8967664,0,0.4899999,100.7916,1,0.15,2025-04-27T20:36:35.266+03:00,71,1.183333333333333,2025-04-22T14:20:19.516+03:00,0.02197104130929222,0
2025-04-28T22:25:27.474+03:00,1745868324.265106,40.98553583423499,29.1374642380764,128.2676,-1,-1,-1,-1,30.00575485195334,24.22467901491021,-9999,463.940827,-0.745086669921875,0.44598388671875,-0.4856414794921875,463.93075,-0.9562982892887747,-0.9927220551282463,-0.4669287983698375,-0.008012061938643456,-0.009525010362267494,0.01018874533474445,0.003968000411987305,-0.007717341184616089,0.0007540583610534668,XArbitraryZVertical,-0.3938008501331842,-0.3177423367536481,-0.2958124335470831,0.8102194743440019,-0.7478644251823425,0.450145959854126,-0.4879213869571686,0,0,0,-1,-1,463.277000125,unknown,2,2025-04-28T22:25:26.805+03:00,null,0,0,0,0,0,0,0,null,767561126.8967664,0,0.4899999,100.7916,1,0.15,2025-04-27T20:36:35.266+03:00,71,1.183333333333333,2025-04-22T14:20:19.516+03:00,0.02197104130929222,0
2025-04-28T22:25:27.484+03:00,1745868324.265106,40.98553583423499,29.1374642380764,128.2676,-1,-1,-1,-1,30.00575485195334,24.22467901491021,-9999,463.950904,-0.74847412109375,0.447845458984375,-0.482818603515625,463.940827,-0.9562801459378931,-0.9928016139129743,-0.467010106425822,-0.002299314830452204,-0.006892741657793522,0.008591648191213608,0.005181610584259033,-0.002968192100524902,0.001284956932067871,XArbitraryZVertical,-0.3938385548638068,-0.3177581581909705,-0.295768886779017,0.8102108291848865,-0.7478725910186768,0.4502185583114624,-0.4878419041633606,0,0,0,-1,-1,463.277000125,unknown,2,2025-04-28T22:25:26.805+03:00,null,0,0,0,0,0,0,0,null,767561126.8967664,0,0.4899999,100.7916,1,0.15,2025-04-27T20:36:35.266+03:00,71,1.183333333333333,2025-04-22T14:20:19.516+03:00,0.02197104130929222,0
2025-04-28T22:25:27.494+03:00,1745868324.265106,40.98553583423499,29.1374642380764,128.2676,-1,-1,-1,-1,30.00575485195334,24.22467901491021,-9999,463.960981,-0.751708984375,0.4478302001953125,-0.4821014404296875,463.950904,-0.9562330508232452,-0.9928398091007885,-0.4670865568754225,-0.0008002215181477368,-0.005099634639918804,0.008683526888489723,0.002577483654022217,-0.004302918910980225,0.002244710922241211,XArbitraryZVertical,-0.3938637622462163,-0.3177641358010737,-0.2957230000303107,0.8102131012443073,-0.7478624582290649,0.4502868354320526,-0.4877945780754089,0,0,0,-1,-1,463.277000125,unknown,2,2025-04-28T22:25:26.805+03:00,null,0,0,0,0,0,0,0,null,767561126.8967664,0,0.4899999,100.7916,1,0.15,2025-04-27T20:36:35.266+03:00,71,1.183333333333333,2025-04-22T14:20:19.516+03:00,0.02197104130929222,0
2025-04-28T22:25:27.505+03:00,1745868324.265106,40.98553583423499,29.1374642380764,128.2676,-1,-1,-1,-1,30.00575485195334,24.22467901491021,-9999,463.971058,-0.747528076171875,0.4421539306640625,-0.482940673828125,463.960981,-0.9562107151895716,-0.9929097998282729,-0.4671584451356067,-0.006904120091348886,-0.006887881550937891,0.009524986147880554,-0.001184463500976562,-0.002581804990768433,0.004738122224807739,XArbitraryZVertical,-0.3938960994642313,-0.3177792041147873,-0.2956819939237886,0.8102062935526415,-0.7478693723678589,0.4503510296344757,-0.4877244830131531,0,0,0,-1,-1,463.277000125,unknown,2,2025-04-28T22:25:26.805+03:00,null,0,0,0,0,0,0,0,null,767561126.8967664,0,0.4899999,100.7916,1,0.15,2025-04-27T20:36:35.266+03:00,71,1.183333333333333,2025-04-22T14:20:19.516+03:00,0.02197104130929222,0
2025-04-28T22:25:27.514+03:00,1745868324.265106,40.98553583423499,29.1374642380764,128.2676,-1,-1,-1,-1,30.00575485195334,24.22467901491021,-9999,463.981136,-0.7435760498046875,0.438873291015625,-0.4844512939453125,463.971058,-0.9562230581419522,-0.9930079516002798,-0.4672576015556198,-0.005742981564253569,-0.008993376046419144,0.009363865479826927,-0.003447592258453369,-0.003204464912414551,0.005769461393356323,XArbitraryZVertical,-0.3939477104165992,-0.317792167779008,-0.2956426202747826,0.8101904788723323,-0.7478798627853394,0.4504395425319672,-0.4876266717910767,0,0,0,-1,-1,463.277000125,unknown,2,2025-04-28T22:25:26.805+03:00,null,0,0,0,0,0,0,0,null,767561126.8967664,0,0.4899999,100.7916,1,0.15,2025-04-27T20:36:35.266+03:00,71,1.183333333333333,2025-04-22T14:20:19.516+03:00,0.02197104130929222,0
2025-04-28T22:25:27.524+03:00,1745868324.265106,40.98553583423499,29.1374642380764,128.2676,-1,-1,-1,-1,30.00575485195334,24.22467901491021,-9999,463.991213,-0.7394561767578125,0.440704345703125,-0.4914398193359375,463.981136,-0.9561908149309769,-0.9931049743952365,-0.4673355388525952,0.003988874610513449,-0.0124052856117487,0.006000758614391088,0.001331090927124023,-0.009407967329025269,0.005097866058349609,XArbitraryZVertical,-0.3939844750184625,-0.3178186921455993,-0.2955907861143696,0.8101812712331166,-0.7478978633880615,0.4505091309547424,-0.4875350296497345,0,0,0,-1,-1,463.277000125,unknown,2,2025-04-28T22:25:26.805+03:00,null,0,0,0,0,0,0,0,null,767561126.8967664,0,0.4899999,100.7916,1,0.15,2025-04-27T20:36:35.266+03:00,71,1.183333333333333,2025-04-22T14:20:19.516+03:00,0.02197104130929222,0
2025-04-28T22:25:27.534+03:00,1745868324.265106,40.98553583423499,29.1374642380764,128.2676,-1,-1,-1,-1,30.00575485195334,24.22467901491021,-9999,464.00129,-0.7339019775390625,0.44598388671875,-0.5032806396484375,463.991213,-0.9559760489068759,-0.9931671151430802,-0.4672972595130898,0.02794054709374905,-0.01874174550175667,0.007616764400154352,0.004259765148162842,-0.01213568449020386,0.002497345209121704,XArbitraryZVertical,-0.3939460132593515,-0.317895559750285,-0.295501195685502,0.8102023767398263,-0.7479425072669983,0.4504749476909637,-0.4874978959560394,0,0,0,-1,-1,463.277000125,unknown,2,2025-04-28T22:25:26.805+03:00,null,0,0,0,0,0,0,0,null,767561126.8967664,0,0.4899999,100.7916,1,0.15,2025-04-27T20:36:35.266+03:00,71,1.183333333333333,2025-04-22T14:20:19.516+03:00,0.02197104130929222,0
2025-04-28T22:25:27.545+03:00,1745868324.265106,40.98553583423499,29.1374642380764,128.2676,-1,-1,-1,-1,30.00575485195334,24.22467901491021,-9999,464.011367,-0.7282257080078125,0.4481201171875,-0.5037841796875,464.00129,-0.9556708375193126,-0.9933084590184784,-0.4671474139141213,0.03262744471430779,-0.0348631888628006,0.001302676391787827,0.009115397930145264,-0.009240001440048218,-0.00544506311416626,XArbitraryZVertical,-0.393865217281909,-0.3180497576878293,-0.295387581158165,0.8102226854904269,-0.7480680346488953,0.4503411650657654,-0.4874290823936462,0,0,0,-1,-1,463.277000125,unknown,2,2025-04-28T22:25:26.805+03:00,null,0,0,0,0,0,0,0,null,767561126.8967664,0,0.4899999,100.7916,1,0.15,2025-04-27T20:36:35.266+03:00,71,1.183333333333333,2025-04-22T14:20:19.516+03:00,0.02197104130929222,0
2025-04-28T22:25:27.554+03:00,1745868324.265106,40.98553583423499,29.1374642380764,128.2676,-1,-1,-1,-1,30.00575485195334,24.22467901491021,-9999,464.021444,-0.724884033203125,0.4415283203125,-0.4979705810546875,464.011367,-0.9553821769993929,-0.9935872762073039,-0.467012862789609,0.02430240251123905,-0.05131247267127037,0.005035362672060728,0.01554292440414429,-0.004313379526138306,-0.01622539758682251,XArbitraryZVertical,-0.3938127817705664,-0.3182525977387723,-0.295249728435246,0.8102187735319781,-0.7482547163963318,0.4502210319042206,-0.4872535467147827,0,0,0,-1,-1,463.277000125,unknown,2,2025-04-28T22:25:26.805+03:00,null,0,0,0,0,0,0,0,null,767561126.8967664,0,0.4899999,100.7916,1,0.15,2025-04-27T20:36:35.266+03:00,71,1.183333333333333,2025-04-22T14:20:19.516+03:00,0.02197104130929222,0
2025-04-28T22:25:27.564+03:00,1745868324.265106,40.98553583423499,29.1374642380764,128.2676,-1,-1,-1,-1,30.00575485195334,24.22467901491021,-9999,464.0315220000001,-0.7256622314453125,0.426177978515625,-0.4915924072265625,464.021444,-0.9551968468972694,-0.99409614469056,-0.4669931625996994,0.001038225134834647,-0.06508274376392365,0.01060276757925749,0.02022325992584229,-0.00278511643409729,-0.01582324504852295,XArbitraryZVertical,-0.3938513950833133,-0.3185000708381043,-0.2950794265627003,0.8101648054958746,-0.7485100030899048,0.4502034485340118,-0.4868775606155396,0,0,0,-1,-1,463.277000125,unknown,2,2025-04-28T22:25:26.805+03:00,null,0,0,0,0,0,0,0,null,767561126.8967664,0,0.4899999,100.7916,1,0.15,2025-04-27T20:36:35.266+03:00,71,1.183333333333333,2025-04-22T14:20:19.516+03:00,0.02197104130929222,0
2025-04-28T22:25:27.575+03:00,1745868324.265106,40.98553583423499,29.1374642380764,128.2676,-1,-1,-1,-1,30.00575485195334,24.22467901491021,-9999,464.041599,-0.727783203125,0.42138671875,-0.4894561767578125,464.0315220000001,-0.9552412619279351,-0.9948371523471107,-0.4671720306327108,-0.02369987778365612,-0.07612181454896927,0.01645479910075665,0.02477341890335083,-0.01060479879379272,-0.01181375980377197,XArbitraryZVertical,-0.3940311831265858,-0.3187475383080789,-0.2949062273377743,0.8100430185502198,-0.7488029599189758,0.4503631591796875,-0.4862788617610931,0,0,0,-1,-1,463.277000125,unknown,2,2025-04-28T22:25:26.805+03:00,null,0,0,0,0,0,0,0,null,767561126.8967664,0,0.4899999,100.7916,1,0.15,2025-04-27T20:36:35.266+03:00,71,1.183333333333333,2025-04-22T14:20:19.516+03:00,0.02197104130929222,0
2025-04-28T22:25:27.585+03:00,1745868324.265106,40.98553583423499,29.1374642380764,128.2676,-1,-1,-1,-1,30.00575485195334,24.22467901491021,-9999,464.051676,-0.7221527099609375,0.42236328125,-0.4948272705078125,464.041599,-0.9554883610358981,-0.9958002660147739,-0.467567781854704,-0.05276521667838097,-0.09290385246276855,0.0249057412147522,0.02373379468917847,-0.02609485387802124,-0.005475729703903198,XArbitraryZVertical,-0.3943526987395582,-0.3189916898237474,-0.2947163570265624,0.8098595482139007,-0.7491213083267212,0.4507164657115936,-0.485460489988327,0,0,0,-1,-1,463.277000125,unknown,2,2025-04-28T22:25:26.805+03:00,null,0,0,0,0,0,0,0,null,767561126.8967664,0,0.4899999,100.7916,1,0.15,2025-04-27T20:36:35.266+03:00,71,1.183333333333333,2025-04-22T14:20:19.516+03:00,0.02197104130929222,0
2025-04-28T22:25:27.595+03:00,1745868324.265106,40.98553583423499,29.1374642380764,128.2676,-1,-1,-1,-1,30.00575485195334,24.22467901491021,-9999,464.061753,-0.72125244140625,0.4249267578125,-0.5010223388671875,464.051676,-0.9559114950085494,-0.9970298971141655,-0.468132066604984,-0.06901635974645615,-0.1098535507917404,0.03009677492082119,0.02228540182113647,-0.0295281708240509,-0.005116313695907593,XArbitraryZVertical,-0.3948010628014314,-0.3192674248579525,-0.2945021994382698,0.809610312585922,-0.7495039701461792,0.4512200951576233,-0.4844008684158325,0,0,0,-1,-1,463.277000125,unknown,2,2025-04-28T22:25:26.805+03:00,null,0,0,0,0,0,0,0,null,767561126.8967664,0,0.4899999,100.7916,1,0.15,2025-04-27T20:36:35.266+03:00,71,1.183333333333333,2025-04-22T14:20:19.516+03:00,0.02197104130929222,0
2025-04-28T22:25:27.605+03:00,1745868324.265106,40.98553583423499,29.1374642380764,128.2676,-1,-1,-1,-1,30.00575485195334,24.22467901491021,-9999,464.07183,-0.7302093505859375,0.431365966796875,-0.5060272216796875,464.061753,-0.9564400132822642,-0.9983972029439264,-0.4687962135962412,-0.08063140511512756,-0.1152458488941193,0.03036072663962841,0.02913415431976318,-0.02845755219459534,-0.01294159889221191,XArbitraryZVertical,-0.3953216194610482,-0.3195531791381035,-0.2942776739016154,0.8093251174543027,-0.7499134540557861,0.4518127143383026,-0.4832131564617157,0,0,0,-1,-1,463.277000125,unknown,2,2025-04-28T22:25:26.805+03:00,null,0,0,0,0,0,0,0,null,767561126.8967664,0,0.4899999,100.7916,1,0.15,2025-04-27T20:36:35.266+03:00,71,1.183333333333333,2025-04-22T14:20:19.516+03:00,0.02197104130929222,0
2025-04-28T22:25:27.615+03:00,1745868324.265106,40.98553583423499,29.1374642380764,128.2676,-1,-1,-1,-1,30.00575485195334,24.22467901491021,-9999,464.0819080000001,-0.7366943359375,0.4423828125,-0.5079498291015625,464.07183,-0.9570848824485596,-0.9998925183017184,-0.4694911754328585,-0.09395892918109894,-0.1228734031319618,0.02258003503084183,0.02757734060287476,-0.02688020467758179,-0.01960435509681702,XArbitraryZVertical,-0.3958901827283958,-0.3198596901553144,-0.2940664391611254,0.8090028536946697,-0.7503708600997925,0.4524325728416443,-0.4819214940071106,0,0,0,-1,-1,463.277000125,unknown,2,2025-04-28T22:25:26.805+03:00,null,0,0,0,0,0,0,0,null,767561126.8967664,0,0.4899999,100.7916,1,0.15,2025-04-27T20:36:35.266+03:00,71,1.183333333333333,2025-04-22T14:20:19.516+03:00,0.02197104130929222,0
2025-04-28T22:25:27.625+03:00,1745868324.265106,40.98553583423499,29.1374642380764,128.2676,-1,-1,-1,-1,30.00575485195334,24.22467901491021,-9999,464.091985,-0.74432373046875,0.45513916015625,-0.506622314453125,464.0819080000001,-0.9579093901250982,-1.001529398734093,-0.4701634669043673,-0.1030305847525597,-0.1273662894964218,0.01260190270841122,0.01967072486877441,-0.02018588781356812,-0.02609372138977051,XArbitraryZVertical,-0.3964999816331953,-0.3201928862475407,-0.2939048042539483,0.8086311551724585,-0.7509024143218994,0.4530320167541504,-0.4805285632610321,0,0,0,-1,-1,463.277000125,unknown,2,2025-04-28T22:25:26.805+03:00,null,0,0,0,0,0,0,0,null,767561126.8967664,0,0.4899999,100.7916,1,0.15,2025-04-27T20:36:35.266+03:00,71,1.183333333333333,2025-04-22T14:20:19.516+03:00,0.02197104130929222,0
2025-04-28T22:25:27.635+03:00,1745868324.265106,40.98553583423499,29.1374642380764,128.2676,-1,-1,-1,-1,30.00575485195334,24.22467901491021,-9999,464.102062,-0.7588653564453125,0.4619598388671875,-0.49981689453125,464.091985,-0.9587575438310364,-1.00306503656768,-0.4707366085125357,-0.09156567603349686,-0.1091028675436974,0.002885626163333654,0.01364266872406006,-0.01000043749809265,-0.02839425206184387,XArbitraryZVertical,-0.3970636170713297,-0.3205041856419082,-0.293797155292873,0.8082701457016276,-0.751420259475708,0.4535428881645203,-0.4792351126670837,0,0,0,-1,-1,463.277000125,unknown,2,2025-04-28T22:25:26.805+03:00,null,0,0,0,0,0,0,0,null,767561126.8967664,0,0.4899999,100.7916,1,0.15,2025-04-27T20:36:35.266+03:00,71,1.183333333333333,2025-04-22T14:20:19.516+03:00,0.02197104130929222,0
2025-04-28T22:25:27.645+03:00,1745868324.265106,40.98553583423499,29.1374642380764,128.2676,-1,-1,-1,-1,30.00575485195334,24.22467901491021,-9999,464.112139,-0.77496337890625,0.4619903564453125,-0.4827423095703125,464.102062,-0.9595306936658599,-1.004368193910319,-0.4711668541615853,-0.07798648625612259,-0.0893201008439064,-0.007906967774033546,0.005968868732452393,0.002143651247024536,-0.02856305241584778,XArbitraryZVertical,-0.3975305422565819,-0.3207711133428802,-0.2937411017986374,0.8079550616006586,-0.7518793940544128,0.453926295042038,-0.4781507253646851,0,0,0,-1,-1,463.277000125,unknown,2,2025-04-28T22:25:26.805+03:00,null,0,0,0,0,0,0,0,null,767561126.8967664,0,0.4899999,100.7916,1,0.15,2025-04-27T20:36:35.266+03:00,71,1.183333333333333,2025-04-22T14:20:19.516+03:00,0.02197104130929222,0
2025-04-28T22:25:27.655+03:00,1745868324.265106,40.98553583423499,29.1374642380764,128.2676,-1,-1,-1,-1,30.00575485195334,24.22467901491021,-9999,464.122216,-0.7796173095703125,0.4584808349609375,-0.469451904296875,464.112139,-0.9602902574149091,-1.005486065418776,-0.4714366201138406,-0.07013654708862305,-0.07587353885173798,-0.01883764564990997,-0.00956118106842041,0.008174657821655273,-0.02003955841064453,XArbitraryZVertical,-0.397911502492244,-0.3210050700091933,-0.2937568408533396,0.8076689528012758,-0.7523100972175598,0.4541666507720947,-0.4772443771362305,0,0,0,-1,-1,463.277000125,unknown,2,2025-04-28T22:25:26.805+03:00,null,0,0,0,0,0,0,0,null,767561126.8967664,0,0.4899999,100.7916,1,0.15,2025-04-27T20:36:35.266+03:00,71,1.183333333333333,2025-04-22T14:20:19.516+03:00,0.02197104130929222,0
2025-04-28T22:25:27.665+03:00,1745868324.265106,40.98553583423499,29.1374642380764,128.2676,-1,-1,-1,-1,30.00575485195334,24.22467901491021,-9999,464.132293,-0.7856292724609375,0.4624786376953125,-0.4654083251953125,464.122216,-0.961033389805599,-1.006428661782545,-0.4715663107427343,-0.0623326264321804,-0.05118197947740555,-0.02343476191163063,-0.02397775650024414,0.006731629371643066,-0.003919422626495361,XArbitraryZVertical,-0.3982149008774128,-0.3212057533776739,-0.2938362021002318,0.8074107199025821,-0.7527098655700684,0.4542821943759918,-0.4765035212039948,0,0,0,-1,-1,463.277000125,unknown,2,2025-04-28T22:25:26.805+03:00,null,0,0,0,0,0,0,0,null,767561126.8967664,0,0.4899999,100.7916,1,0.15,2025-04-27T20:36:35.266+03:00,71,1.183333333333333,2025-04-22T14:20:19.516+03:00,0.02197104130929222,0
2025-04-28T22:25:27.676+03:00,1745868324.265106,40.98553583423499,29.1374642380764,128.2676,-1,-1,-1,-1,30.00575485195334,24.22467901491021,-9999,464.142371,-0.7966461181640625,0.4655303955078125,-0.465118408203125,464.132293,-0.9617580969194033,-1.007098302371083,-0.4715895837066679,-0.05760578066110611,-0.02409363351762295,-0.03183490410447121,-0.02702468633651733,0.00396430492401123,0.007899850606918335,XArbitraryZVertical,-0.3984379236032851,-0.3213259675820083,-0.2939894156549845,0.8071970109004237,-0.7530198097229004,0.4543029367923737,-0.4759936928749084,0,0,0,-1,-1,463.277000125,unknown,2,2025-04-28T22:25:26.805+03:00,null,0,0,0,0,0,0,0,null,767561126.8967664,0,0.4899999,100.7916,1,0.15,2025-04-27T20:36:35.266+03:00,71,1.183333333333333,2025-04-22T14:20:19.516+03:00,0.02197104130929222,0
2025-04-28T22:25:27.685+03:00,1745868324.265106,40.98553583423499,29.1374642380764,128.2676,-1,-1,-1,-1,30.00575485195334,24.22467901491021,-9999,464.152448,-0.8033905029296875,0.4701690673828125,-0.458831787109375,464.142371,-0.9623961987569624,-1.007386834658559,-0.4715474624285424,-0.04159831628203392,0.01097806822508574,-0.03532830625772476,-0.0332493782043457,0.008655726909637451,0.01001214981079102,XArbitraryZVertical,-0.3985680404349924,-0.3213256789278638,-0.2942002048232634,0.8070561445621438,-0.7531733512878418,0.4542654156684875,-0.4757866561412811,0,0,0,-1,-1,463.277000125,unknown,2,2025-04-28T22:25:26.805+03:00,null,0,0,0,0,0,0,0,null,767561126.8967664,0,0.4899999,100.7916,1,0.15,2025-04-27T20:36:35.266+03:00,71,1.183333333333333,2025-04-22T14:20:19.516+03:00,0.02197104130929222,0
2025-04-28T22:25:27.696+03:00,1745868324.265106,40.98553583423499,29.1374642380764,128.2676,-1,-1,-1,-1,30.00575485195334,24.22467901491021,-9999,464.162525,-0.8001251220703125,0.46923828125,-0.45269775390625,464.152448,-0.9629129032428755,-1.007324578888359,-0.4713615978556313,-0.02421559952199459,0.03930051997303963,-0.04312257841229439,-0.04503315687179565,0.01173576712608337,0.01123327016830444,XArbitraryZVertical,-0.3985765887392653,-0.3212435084390536,-0.2944685640505823,0.8069867499938248,-0.7532150745391846,0.4540998339653015,-0.4758786261081696,0,0,0,-1,-1,463.277000125,unknown,2,2025-04-28T22:25:26.805+03:00,null,0,0,0,0,0,0,0,null,767561126.8967664,0,0.4899999,100.7916,1,0.15,2025-04-27T20:36:35.266+03:00,71,1.183333333333333,2025-04-22T14:20:19.516+03:00,0.02197104130929222,0
2025-04-28T22:25:27.706+03:00,1745868324.265106,40.98553583423499,29.1374642380764,128.2676,-1,-1,-1,-1,30.00575485195334,24.22467901491021,-9999,464.172602,-0.793487548828125,0.4685516357421875,-0.446319580078125,464.162525,-0.9633277694540803,-1.006964174873174,-0.4710376412300925,-0.006457441486418247,0.06013436242938042,-0.05047266930341721,-0.05029898881912231,0.0157780647277832,0.01802247762680054,XArbitraryZVertical,-0.3984763590727822,-0.3210954678860035,-0.2947904539826826,0.8069775185828512,-0.7531676888465881,0.4538111686706543,-0.4762285947799683,0,0,0,-1,-1,463.277000125,unknown,2,2025-04-28T22:25:26.805+03:00,null,0,0,0,0,0,0,0,null,767561126.8967664,0,0.4899999,100.7916,1,0.15,2025-04-27T20:36:35.266+03:00,71,1.183333333333333,2025-04-22T14:20:19.516+03:00,0.02197104130929222,0
2025-04-28T22:25:27.716+03:00,1745868324.265106,40.98553583423499,29.1374642380764,128.2676,-1,-1,-1,-1,30.00575485195334,24.22467901491021,-9999,464.182679,-0.7845916748046875,0.4756011962890625,-0.4434814453125,464.172602,-0.9636026686057326,-1.006311150733489,-0.470570310141776,0.01663216389715672,0.08542187511920929,-0.05398564413189888,-0.0464789867401123,0.01572155952453613,0.02518889307975769,XArbitraryZVertical,-0.3982599460670307,-0.3208927334259023,-0.2951506951171454,0.8070333398353968,-0.7530356645584106,0.4533946812152863,-0.4768337309360504,0,0,0,-1,-1,463.277000125,unknown,2,2025-04-28T22:25:26.805+03:00,null,0,0,0,0,0,0,0,null,767561126.8967664,0,0.4899999,100.7916,1,0.15,2025-04-27T20:36:35.266+03:00,71,1.183333333333333,2025-04-22T14:20:19.516+03:00,0.02197104130929222,0
2025-04-28T22:25:27.726+03:00,1745868324.265106,40.98553583423499,29.1374642380764,128.2676,-1,-1,-1,-1,30.00575485195334,24.22467901491021,-9999,464.192757,-0.7740478515625,0.4775390625,-0.4443511962890625,464.182679,-0.96372562024407,-1.005427675801408,-0.4699669720954117,0.03009364567697048,0.09490006417036057,-0.06040359660983086,-0.03966593742370605,0.01575580239295959,0.0329585075378418,XArbitraryZVertical,-0.397937139098424,-0.3206608658070683,-0.2955300012668127,0.8071458875533336,-0.7528449296951294,0.4528568387031555,-0.4776452779769897,0,0,0,-1,-1,463.277000125,unknown,2,2025-04-28T22:25:26.805+03:00,null,0,0,0,0,0,0,0,null,767561126.8967664,0,0.4899999,100.7916,1,0.15,2025-04-27T20:36:35.266+03:00,71,1.183333333333333,2025-04-22T14:20:19.516+03:00,0.02197104130929222,0
2025-04-28T22:25:27.736+03:00,1745868324.265106,40.98553583423499,29.1374642380764,128.2676,-1,-1,-1,-1,30.00575485195334,24.22467901491021,-9999,464.2028340000001,-0.7658233642578125,0.4679718017578125,-0.44573974609375,464.192757,-0.9637851876190243,-1.004475028773718,-0.4693136173520679,0.02984064444899559,0.09796110540628433,-0.05834656953811646,-0.03057914972305298,0.02349483966827393,0.03540581464767456,XArbitraryZVertical,-0.3975759939833596,-0.3204260242209691,-0.2959099828950136,0.8072780426250578,-0.7526391744613647,0.4522742331027985,-0.4785209894180298,0,0,0,-1,-1,463.277000125,unknown,2,2025-04-28T22:25:26.805+03:00,null,0,0,0,0,0,0,0,null,767561126.8967664,0,0.4899999,100.7916,1,0.15,2025-04-27T20:36:35.266+03:00,71,1.183333333333333,2025-04-22T14:20:19.516+03:00,0.02197104130929222,0
2025-04-28T22:25:27.746+03:00,1745868324.265106,40.98553583423499,29.1374642380764,128.2676,-1,-1,-1,-1,30.00575485195334,24.22467901491021,-9999,464.212911,-0.7597503662109375,0.4564971923828125,-0.44647216796875,464.2028340000001,-0.9638796778169646,-1.003531397216091,-0.4686624498161708,0.02427323907613754,0.1014937162399292,-0.05756469815969467,-0.02033054828643799,0.02502173185348511,0.03444284200668335,XArbitraryZVertical,-0.3972223133746877,-0.3201872482615823,-0.2963013807543892,0.8074032968606728,-0.7524355053901672,0.4516933560371399,-0.4793891310691833,0,0,0,-1,-1,463.277000125,unknown,2,2025-04-28T22:25:26.805+03:00,null,0,0,0,0,0,0,0,null,767561126.8967664,0,0.4899999,100.7916,1,0.15,2025-04-27T20:36:35.266+03:00,71,1.183333333333333,2025-04-22T14:20:19.516+03:00,0.02197104130929222,0
2025-04-28T22:25:27.756+03:00,1745868324.265106,40.98553583423499,29.1374642380764,128.2676,-1,-1,-1,-1,30.00575485195334,24.22467901491021,-9999,464.222988,-0.75286865234375,0.451080322265625,-0.450469970703125,464.212911,-0.964043033859135,-1.002618067500243,-0.4680875534938904,0.01426454819738865,0.09673864394426346,-0.05251454934477806,-0.0133478045463562,0.01476204395294189,0.03485754132270813,XArbitraryZVertical,-0.3969107209745266,-0.3199281254717631,-0.2966948681062218,0.8075146546342645,-0.7522160410881042,0.4511803686618805,-0.4802157580852509,0,0,0,-1,-1,463.277000125,unknown,2,2025-04-28T22:25:26.805+03:00,null,0,0,0,0,0,0,0,null,767561126.8967664,0,0.4899999,100.7916,1,0.15,2025-04-27T20:36:35.266+03:00,71,1.183333333333333,2025-04-22T14:20:19.516+03:00,0.02197104130929222,0
2025-04-28T22:25:27.766+03:00,1745868324.265106,40.98553583423499,29.1374642380764,128.2676,-1,-1,-1,-1,30.00575485195334,24.22467901491021,-9999,464.233065,-0.744384765625,0.4500885009765625,-0.4534912109375,464.222988,-0.9642856845781821,-1.001834892935402,-0.4676086072935431,0.006941387895494699,0.08751478791236877,-0.04730447381734848,-0.00666046142578125,0.004859298467636108,0.03377759456634521,XArbitraryZVertical,-0.39666456853527,-0.3196821189457986,-0.2970699617133472,0.8075952114572751,-0.7520217299461365,0.4507529139518738,-0.4809211194515228,0,0,0,-1,-1,463.277000125,unknown,2,2025-04-28T22:25:26.805+03:00,null,0,0,0,0,0,0,0,null,767561126.8967664,0,0.4899999,100.7916,1,0.15,2025-04-27T20:36:35.266+03:00,71,1.183333333333333,2025-04-22T14:20:19.516+03:00,0.02197104130929222,0
2025-04-28T22:25:27.787+03:00,1745868324.265106,40.98553583423499,29.1374642380764,128.2676,-1,-1,-1,-1,30.00575485195334,24.22467901491021,-9999,464.243143,-0.74029541015625,0.446929931640625,-0.4565582275390625,464.233065,-0.964514917406293,-1.001144081460741,-0.4672067102611902,0.002319205552339554,0.08017218858003616,-0.0414937250316143,-0.0004622936248779297,0.0007320642471313477,0.03141915798187256,XArbitraryZVertical,-0.3964569461264066,-0.3194570267528432,-0.2974015861274725,0.8076642021554675,-0.7518418431282043,0.4503941237926483,-0.4815382063388824,0,0,0,-1,-1,463.277000125,unknown,2,2025-04-28T22:25:26.805+03:00,null,0,0,0,0,0,0,0,null,767561126.8967664,0,0.4899999,100.7916,1,0.15,2025-04-27T20:36:35.266+03:00,71,1.183333333333333,2025-04-22T14:20:19.516+03:00,0.02197104130929222,0
2025-04-28T22:25:27.789+03:00,1745868324.265106,40.98553583423499,29.1374642380764,128.2676,-1,-1,-1,-1,30.00575485195334,24.22467901491021,-9999,464.2532200000001,-0.7382354736328125,0.4460906982421875,-0.455902099609375,464.243143,-0.9647595499945621,-1.000578238831776,-0.4668874122644717,0.001179705606773496,0.06862505525350571,-0.03476281836628914,0.008678853511810303,-0.0005850791931152344,0.02792435884475708,XArbitraryZVertical,-0.3962993226143857,-0.319258941763049,-0.2976935779523545,0.8077123127862665,-0.7516902685165405,0.4501090049743652,-0.4820411503314972,0,0,0,-1,-1,463.277000125,unknown,2,2025-04-28T22:25:26.805+03:00,null,0,0,0,0,0,0,0,null,767561126.8967664,0,0.4899999,100.7916,1,0.15,2025-04-27T20:36:35.266+03:00,71,1.183333333333333,2025-04-22T14:20:19.516+03:00,0.02197104130929222,0
2025-04-28T22:25:27.797+03:00,1745868324.265106,40.98553583423499,29.1374642380764,128.2676,-1,-1,-1,-1,30.00575485195334,24.22467901491021,-9999,464.263297,-0.737518310546875,0.4451446533203125,-0.457489013671875,464.2532200000001,-0.9649791494357255,-1.000098052385994,-0.4666105007209959,0.003676152788102627,0.06310485303401947,-0.02989429049193859,0.01125293970108032,-0.003526836633682251,0.02510243654251099,XArbitraryZVertical,-0.3961653013271088,-0.319089937874891,-0.2979476529454738,0.8077510997961482,-0.751563549041748,0.4498617053031921,-0.4824693202972412,0,0,0,-1,-1,463.277000125,unknown,2,2025-04-28T22:25:26.805+03:00,null,0,0,0,0,0,0,0,null,767561126.8967664,0,0.4899999,100.7916,1,0.15,2025-04-27T20:36:35.266+03:00,71,1.183333333333333,2025-04-22T14:20:19.516+03:00,0.02197104130929222,0
2025-04-28T22:25:27.806+03:00,1745868324.265106,40.98553583423499,29.1374642380764,128.2676,-1,-1,-1,-1,30.00575485195334,24.22467901491021,-9999,464.273374,-0.735321044921875,0.44500732421875,-0.4617156982421875,464.263297,-0.9651694063691109,-0.9996806437569391,-0.4663876952660245,0.001728516537696123,0.0577198714017868,-0.02135343477129936,0.01406550407409668,-0.003251552581787109,0.02743864059448242,XArbitraryZVertical,-0.3960548962352469,-0.3189387496616893,-0.2981636811712857,0.8077852725167817,-0.7514464259147644,0.4496627151966095,-0.4828372001647949,0,0,0,-1,-1,463.277000125,unknown,2,2025-04-28T22:25:26.805+03:00,null,0,0,0,0,0,0,0,null,767561126.8967664,0,0.4899999,100.7916,1,0.15,2025-04-27T20:36:35.266+03:00,71,1.183333333333333,2025-04-22T14:20:19.516+03:00,0.02197104130929222,0
2025-04-28T22:25:27.816+03:00,1745868324.265106,40.98553583423499,29.1374642380764,128.2676,-1,-1,-1,-1,30.00575485195334,24.22467901491021,-9999,464.283451,-0.733367919921875,0.4417877197265625,-0.46295166015625,464.273374,-0.9653134807628649,-0.9992932070130645,-0.4662394591252882,0.002258485648781061,0.04824328050017357,-0.01967670768499374,0.01370543241500854,-0.004492372274398804,0.02488189935684204,XArbitraryZVertical,-0.3959678081982669,-0.3187903876441027,-0.2983361818415967,0.8078228998427628,-0.7513154149055481,0.449530303478241,-0.483164370059967,0,0,0,-1,-1,463.277000125,unknown,2,2025-04-28T22:25:26.805+03:00,null,0,0,0,0,0,0,0,null,767561126.8967664,0,0.4899999,100.7916,1,0.15,2025-04-27T20:36:35.266+03:00,71,1.183333333333333,2025-04-22T14:20:19.516+03:00,0.02197104130929222,0
2025-04-28T22:25:27.826+03:00,1745868324.265106,40.98553583423499,29.1374642380764,128.2676,-1,-1,-1,-1,30.00575485195334,24.22467901491021,-9999,464.293529,-0.7371826171875,0.4369659423828125,-0.468841552734375,464.283451,-0.9654257239250942,-0.9989641384858399,-0.4661319647381525,-0.001235182280652225,0.03932635113596916,-0.01355723012238741,0.01654726266860962,-0.0045185387134552,0.02185931801795959,XArbitraryZVertical,-0.3958987712153941,-0.3186618010119982,-0.2984738863440347,0.8078564361582163,-0.7511968612670898,0.4494342803955078,-0.4834376275539398,0,0,0,-1,-1,463.277000125,unknown,2,2025-04-28T22:25:26.805+03:00,null,0,0,0,0,0,0,0,null,767561126.8967664,0,0.4899999,100.7916,1,0.15,2025-04-27T20:36:35.266+03:00,71,1.183333333333333,2025-04-22T14:20:19.516+03:00,0.02197104130929222,0
2025-04-28T22:25:27.836+03:00,1745868324.265106,40.98553583423499,29.1374642380764,128.2676,-1,-1,-1,-1,30.00575485195334,24.22467901491021,-9999,464.303606,-0.74090576171875,0.43798828125,-0.475860595703125,464.293529,-0.9655583904988314,-0.9986897969339216,-0.4660937767772044,-0.007065640762448311,0.03440776094794273,-0.01004984695464373,0.01775658130645752,-0.007963389158248901,0.01964855194091797,XArbitraryZVertical,-0.3958654713891614,-0.3185341723080046,-0.2985914622340269,0.8078796827173736,-0.7510786652565002,0.4494001865386963,-0.4836530089378357,0,0,0,-1,-1,463.277000125,unknown,2,2025-04-28T22:25:26.805+03:00,null,0,0,0,0,0,0,0,null,767561126.8967664,0,0.4899999,100.7916,1,0.15,2025-04-27T20:36:35.266+03:00,71,1.183333333333333,2025-04-22T14:20:19.516+03:00,0.02197104130929222,0
2025-04-28T22:25:27.847+03:00,1745868324.265106,40.98553583423499,29.1374642380764,128.2676,-1,-1,-1,-1,30.00575485195334,24.22467901491021,-9999,464.313683,-0.7450714111328125,0.44366455078125,-0.4830169677734375,464.303606,-0.9656923994945787,-0.9984636490599108,-0.4661095558022637,-0.005401497706770897,0.031432144343853,-0.004161098040640354,0.01301777362823486,-0.01307386159896851,0.01389414072036743,XArbitraryZVertical,-0.3958586003475302,-0.3184123970571653,-0.2986863600539464,0.8078959877355741,-0.7509633302688599,0.4494142830371857,-0.4838190376758575,0,0,0,-1,-1,463.277000125,unknown,2,2025-04-28T22:25:26.805+03:00,null,0,0,0,0,0,0,0,null,767561126.8967664,0,0.4899999,100.7916,1,0.15,2025-04-27T20:36:35.266+03:00,71,1.183333333333333,2025-04-22T14:20:19.516+03:00,0.02197104130929222,0
