loggingTime(txt),locationTimestamp_since1970(s),locationLatitude(WGS84),locationLongitude(WGS84),locationAltitude(m),locationSpeed(m/s),locationSpeedAccuracy(m/s),locationCourse(°),locationCourseAccuracy(°),locationVerticalAccuracy(m),locationHorizontalAccuracy(m),locationFloor(Z),accelerometerTimestamp_sinceReboot(s),accelerometerAccelerationX(G),accelerometerAccelerationY(G),accelerometerAccelerationZ(G),motionTimestamp_sinceReboot(s),motionYaw(rad),motionRoll(rad),motionPitch(rad),motionRotationRateX(rad/s),motionRotationRateY(rad/s),motionRotationRateZ(rad/s),motionUserAccelerationX(G),motionUserAccelerationY(G),motionUserAccelerationZ(G),motionAttitudeReferenceFrame(txt),motionQuaternionX(R),motionQuaternionY(R),motionQuaternionZ(R),motionQuaternionW(R),motionGravityX(G),motionGravityY(G),motionGravityZ(G),motionMagneticFieldX(µT),motionMagneticFieldY(µT),motionMagneticFieldZ(µT),motionHeading(°),motionMagneticFieldCalibrationAccuracy(Z),activityTimestamp_sinceReboot(s),activity(txt),activityActivityConfidence(Z),activityActivityStartDate(txt),pedometerStartDate(txt),pedometerNumberofSteps(N),pedometerAverageActivePace(s/m),pedometerCurrentPace(s/m),pedometerCurrentCadence(steps/s),pedometerDistance(m),pedometerFloorAscended(N),pedometerFloorDescended(N),pedometerEndDate(txt),altimeterTimestamp_sinceReboot(s),altimeterReset(bool),altimeterRelativeAltitude(m),altimeterPressure(kPa),batteryState(N),batteryLevel(R),heartRateBPMTimestamp(txt),heartRateBPM(N),heartRateBPS(R),heartRateVariabilityTimestamp(txt),heartRateVariability(ms),label
2025-04-22T12:38:30.994+03:00,1745314709.016206,40.9522176802633,29.1402617935129,76.03027,-1,-1,-1,-1,30,19.23138545864953,-9999,30896.098085125,-0.719024658203125,0.49969482421875,-0.4502105712890625,30896.088008125,-0.3843906677387875,-1.01859737881219,-0.5341072314941477,-0.02233284711837769,-0.03390801325440407,0.0112902894616127,0.008065342903137207,-0.00653994083404541,0.003137409687042236,XArbitraryZVertical,-0.3159877177899018,-0.417613396763743,-0.03456556735715497,0.8512085649466008,-0.7327967882156372,0.5090728402137756,-0.4515016376972198,0,0,0,-1,-1,30888.08373166667,unknown,2,2025-04-22T12:38:22.953+03:00,2025-04-21T17:08:51.449+03:00,7335,0.9820014,0,0,6115.4,5,20,2025-04-22T12:38:30.691+03:00,767007510.7936115,0,-21.73,100.4643,1,0.8,2025-04-22T12:37:49.783+03:00,101,1.683333333333333,2025-04-22T09:54:17.825+03:00,0.02225348692287972,0
2025-04-22T12:38:30.995+03:00,1745314709.016206,40.9522176802633,29.1402617935129,76.03027,-1,-1,-1,-1,30,19.23138545864953,-9999,30896.108161125,-0.728485107421875,0.50421142578125,-0.4514312744140625,30896.098085125,-0.3845515509050449,-1.018963264378906,-0.5342611780298551,-0.02085292898118496,-0.02352461777627468,0.01274836994707584,0.0159151554107666,-0.009464800357818604,0.002095699310302734,XArbitraryZVertical,-0.3160893805596809,-0.417721584346132,-0.03453728373979063,0.851118838262606,-0.7328951358795166,0.5092053413391113,-0.4511923491954803,0,0,0,-1,-1,30888.08373166667,unknown,2,2025-04-22T12:38:22.953+03:00,2025-04-21T17:08:51.449+03:00,7335,0.9820014,0,0,6115.4,5,20,2025-04-22T12:38:30.691+03:00,767007510.7936115,0,-21.73,100.4643,1,0.8,2025-04-22T12:37:49.783+03:00,101,1.683333333333333,2025-04-22T09:54:17.825+03:00,0.02225348692287972,0
2025-04-22T12:38:30.996+03:00,1745314709.016206,40.9522176802633,29.1402617935129,76.03027,-1,-1,-1,-1,30,19.23138545864953,-9999,30896.118237125,-0.7292327880859375,0.5048370361328125,-0.4491729736328125,30896.108161125,-0.3846493958947756,-1.019148337099544,-0.5344853977006284,-0.01766885258257389,-0.01082267053425312,0.01060559041798115,0.007188618183135986,-0.006804347038269043,-6.812810897827148e-05,XArbitraryZVertical,-0.3162029052294699,-0.4177526614811641,-0.03449295945257848,0.8510632224637353,-0.7328814268112183,0.5093982815742493,-0.4509968757629395,0,0,0,-1,-1,30888.08373166667,unknown,2,2025-04-22T12:38:22.953+03:00,2025-04-21T17:08:51.449+03:00,7335,0.9820014,0,0,6115.4,5,20,2025-04-22T12:38:30.691+03:00,767007510.7936115,0,-21.73,100.4643,1,0.8,2025-04-22T12:37:49.783+03:00,101,1.683333333333333,2025-04-22T09:54:17.825+03:00,0.02225348692287972,0
2025-04-22T12:38:31.002+03:00,1745314709.016206,40.9522176802633,29.1402617935129,76.03027,-1,-1,-1,-1,30,19.23138545864953,-9999,30896.128313125,-0.7346954345703125,0.5000762939453125,-0.44976806640625,30896.118237125,-0.3846924277621865,-1.019094091551151,-0.5347622456118715,-0.01803410425782204,0.01179355941712856,0.02175005525350571,0.003885447978973389,-0.003884077072143555,0.0007063448429107666,XArbitraryZVertical,-0.3163219710726557,-0.4176829968172786,-0.03444980585886415,0.8510548395597424,-0.7327367067337036,0.5096365213394165,-0.4509626626968384,0,0,0,-1,-1,30888.08373166667,unknown,2,2025-04-22T12:38:22.953+03:00,2025-04-21T17:08:51.449+03:00,7335,0.9820014,0,0,6115.4,5,20,2025-04-22T12:38:30.691+03:00,767007510.7936115,0,-21.73,100.4643,1,0.8,2025-04-22T12:37:49.783+03:00,101,1.683333333333333,2025-04-22T09:54:17.825+03:00,0.02225348692287972,0
2025-04-22T12:38:31.012+03:00,1745314709.016206,40.9522176802633,29.1402617935129,76.03027,-1,-1,-1,-1,30,19.23138545864953,-9999,30896.138390125,-0.73590087890625,0.5074615478515625,-0.449188232421875,30896.128313125,-0.3847502257794827,-1.018947846081464,-0.5350628405833973,-0.02767501398921013,0.01123349647969007,0.01998677663505077,0.0006677508354187012,-0.008338809013366699,0.001404523849487305,XArbitraryZVertical,-0.316452017000124,-0.4175684105364121,-0.0344215164241139,0.8510638976386522,-0.7325403094291687,0.5098950862884521,-0.4509894847869873,0,0,0,-1,-1,30888.08373166667,unknown,2,2025-04-22T12:38:22.953+03:00,2025-04-21T17:08:51.449+03:00,7335,0.9820014,0,0,6115.4,5,20,2025-04-22T12:38:30.691+03:00,767007510.7936115,0,-21.73,100.4643,1,0.8,2025-04-22T12:37:49.783+03:00,101,1.683333333333333,2025-04-22T09:54:17.825+03:00,0.02225348692287972,0
2025-04-22T12:38:31.026+03:00,1745314709.016206,40.9522176802633,29.1402617935129,76.03027,-1,-1,-1,-1,30,19.23138545864953,-9999,30896.148466125,-0.72686767578125,0.5192413330078125,-0.4517364501953125,30896.138390125,-0.3848750554012969,-1.018930157607628,-0.535437696315379,-0.02466697432100773,0.002054645447060466,0.01802109740674496,-0.004355251789093018,-0.007165908813476562,0.001668244600296021,XArbitraryZVertical,-0.3166280302690406,-0.417487222515096,-0.03438263606762253,0.8510398605582606,-0.7323695421218872,0.510217547416687,-0.4509022235870361,0,0,0,-1,-1,30888.08373166667,unknown,2,2025-04-22T12:38:22.953+03:00,2025-04-21T17:08:51.449+03:00,7335,0.9820014,0,0,6115.4,5,20,2025-04-22T12:38:30.691+03:00,767007510.7936115,0,-21.73,100.4643,1,0.8,2025-04-22T12:37:49.783+03:00,101,1.683333333333333,2025-04-22T09:54:17.825+03:00,0.02225348692287972,0
2025-04-22T12:38:31.032+03:00,1745314709.016206,40.9522176802633,29.1402617935129,76.03027,-1,-1,-1,-1,30,19.23138545864953,-9999,30896.158542125,-0.72430419921875,0.517791748046875,-0.454315185546875,30896.148466125,-0.3849887896292098,-1.018984580597921,-0.5357251881737529,-0.01830095425248146,-0.006452023517340422,0.009785003960132599,0.003066897392272949,0.006365537643432617,0.0007427632808685303,XArbitraryZVertical,-0.3167679557522255,-0.4174510189182447,-0.03434968961051899,0.8510068300984452,-0.7322691082954407,0.5104647874832153,-0.4507854282855988,0,0,0,-1,-1,30888.08373166667,unknown,2,2025-04-22T12:38:22.953+03:00,2025-04-21T17:08:51.449+03:00,7335,0.9820014,0,0,6115.4,5,20,2025-04-22T12:38:30.691+03:00,767007510.7936115,0,-21.73,100.4643,1,0.8,2025-04-22T12:37:49.783+03:00,101,1.683333333333333,2025-04-22T09:54:17.825+03:00,0.02225348692287972,0
2025-04-22T12:38:31.042+03:00,1745314709.016206,40.9522176802633,29.1402617935129,76.03027,-1,-1,-1,-1,30,19.23138545864953,-9999,30896.168618125,-0.72442626953125,0.51873779296875,-0.453582763671875,30896.158542125,-0.3851164037404793,-1.01914693848619,-0.5358281275620066,-0.01278461515903473,-0.008049787953495979,-0.0005874090711586177,0.006665885448455811,0.009023666381835938,-0.003843963146209717,XArbitraryZVertical,-0.3168386159312415,-0.4174850666524867,-0.03435224927567841,0.8509637899704227,-0.7322975993156433,0.5105533003807068,-0.450639009475708,0,0,0,-1,-1,30888.08373166667,unknown,2,2025-04-22T12:38:22.953+03:00,2025-04-21T17:08:51.449+03:00,7335,0.9820014,0,0,6115.4,5,20,2025-04-22T12:38:30.691+03:00,767007510.7936115,0,-21.73,100.4643,1,0.8,2025-04-22T12:37:49.783+03:00,101,1.683333333333333,2025-04-22T09:54:17.825+03:00,0.02225348692287972,0
2025-04-22T12:38:31.052+03:00,1745314709.016206,40.9522176802633,29.1402617935129,76.03027,-1,-1,-1,-1,30,19.23138545864953,-9999,30896.178694125,-0.730072021484375,0.51751708984375,-0.4535064697265625,30896.168618125,-0.3851728496438513,-1.019244841239031,-0.5358306002927132,0.000424930069129914,-0.007189053576439619,-0.002696366515010595,0.008768856525421143,0.007282018661499023,-0.002558290958404541,XArbitraryZVertical,-0.3168530709719893,-0.417517423493611,-0.03436013071448035,0.8509422169909616,-0.7323406338691711,0.5105553865432739,-0.4505666792392731,0,0,0,-1,-1,30888.08373166667,unknown,2,2025-04-22T12:38:22.953+03:00,2025-04-21T17:08:51.449+03:00,7335,0.9820014,0,0,6115.4,5,20,2025-04-22T12:38:30.691+03:00,767007510.7936115,0,-21.73,100.4643,1,0.8,2025-04-22T12:37:49.783+03:00,101,1.683333333333333,2025-04-22T09:54:17.825+03:00,0.02225348692287972,0
2025-04-22T12:38:31.062+03:00,1745314709.016206,40.9522176802633,29.1402617935129,76.03027,-1,-1,-1,-1,30,19.23138545864953,-9999,30896.188771125,-0.73358154296875,0.51458740234375,-0.4508209228515625,30896.178694125,-0.3851177611686477,-1.019200327564767,-0.5358093717952739,0.006198197137564421,0.004739577881991863,0.002714944072067738,0.004531323909759521,0.007422387599945068,-0.00277942419052124,XArbitraryZVertical,-0.3168322991355805,-0.4175102667909187,-0.03434911405007098,0.8509539061151148,-0.732329785823822,0.5105371475219727,-0.4506049454212189,0,0,0,-1,-1,30888.08373166667,unknown,2,2025-04-22T12:38:22.953+03:00,2025-04-21T17:08:51.449+03:00,7335,0.9820014,0,0,6115.4,5,20,2025-04-22T12:38:30.691+03:00,767007510.7936115,0,-21.73,100.4643,1,0.8,2025-04-22T12:37:49.783+03:00,101,1.683333333333333,2025-04-22T09:54:17.825+03:00,0.02225348692287972,0
2025-04-22T12:38:31.072+03:00,1745314709.016206,40.9522176802633,29.1402617935129,76.03027,-1,-1,-1,-1,30,19.23138545864953,-9999,30896.198847125,-0.734649658203125,0.5102996826171875,-0.449462890625,30896.188771125,-0.3849979554078672,-1.018981531195114,-0.5357684923022741,0.01265476457774639,0.01926605589687824,0.005073705688118935,0.0003306269645690918,0.005367040634155273,-0.0009450912475585938,XArbitraryZVertical,-0.3167871508815988,-0.4174420320587763,-0.03434313616105576,0.8510044271433423,-0.7322489619255066,0.5105019807815552,-0.4507761001586914,0,0,0,-1,-1,30888.08373166667,unknown,2,2025-04-22T12:38:22.953+03:00,2025-04-21T17:08:51.449+03:00,7335,0.9820014,0,0,6115.4,5,20,2025-04-22T12:38:30.691+03:00,767007510.7936115,0,-21.73,100.4643,1,0.8,2025-04-22T12:37:49.783+03:00,101,1.683333333333333,2025-04-22T09:54:17.825+03:00,0.02225348692287972,0
2025-04-22T12:38:31.082+03:00,1745314709.016206,40.9522176802633,29.1402617935129,76.03027,-1,-1,-1,-1,30,19.23138545864953,-9999,30896.208923125,-0.730621337890625,0.506011962890625,-0.44976806640625,30896.198847125,-0.3848253629070096,-1.018630326636232,-0.5357244101509242,0.01470060460269451,0.03075812943279743,0.001540756202302873,-0.002936601638793945,0.001941204071044922,0.001643240451812744,XArbitraryZVertical,-0.3167274160066793,-0.417326258331096,-0.0343364775701089,0.8510837601960921,-0.7321097850799561,0.510464072227478,-0.4510450661182404,0,0,0,-1,-1,30888.08373166667,unknown,2,2025-04-22T12:38:22.953+03:00,2025-04-21T17:08:51.449+03:00,7335,0.9820014,0,0,6115.4,5,20,2025-04-22T12:38:30.691+03:00,767007510.7936115,0,-21.73,100.4643,1,0.8,2025-04-22T12:37:49.783+03:00,101,1.683333333333333,2025-04-22T09:54:17.825+03:00,0.02225348692287972,0
2025-04-22T12:38:31.092+03:00,1745314709.016206,40.9522176802633,29.1402617935129,76.03027,-1,-1,-1,-1,30,19.23138545864953,-9999,30896.218999125,-0.7245635986328125,0.509185791015625,-0.4530487060546875,30896.208923125,-0.3847019040096152,-1.018272478297253,-0.5356296397960756,0.01367049477994442,0.02930031530559063,0.0001055786851793528,-0.0009206533432006836,-0.003073692321777344,0.002235710620880127,XArbitraryZVertical,-0.3166575151404177,-0.4172071484432532,-0.03436456423343603,0.8511670426620731,-0.7319895625114441,0.5103825926780701,-0.4513324201107025,0,0,0,-1,-1,30888.08373166667,unknown,2,2025-04-22T12:38:22.953+03:00,2025-04-21T17:08:51.449+03:00,7335,0.9820014,0,0,6115.4,5,20,2025-04-22T12:38:30.691+03:00,767007510.7936115,0,-21.73,100.4643,1,0.8,2025-04-22T12:37:49.783+03:00,101,1.683333333333333,2025-04-22T09:54:17.825+03:00,0.02225348692287972,0
2025-04-22T12:38:31.102+03:00,1745314709.016206,40.9522176802633,29.1402617935129,76.03027,-1,-1,-1,-1,30,19.23138545864953,-9999,30896.229076125,-0.72210693359375,0.5081939697265625,-0.4547882080078125,30896.218999125,-0.3845856217714598,-1.017951928174044,-0.5355225064149612,0.01032636314630508,0.02660439722239971,-0.0004419672186486423,0.005389809608459473,-0.002584874629974365,-0.0005527138710021973,XArbitraryZVertical,-0.3165848223911799,-0.4171045405671718,-0.03439287785825552,0.8512431402329655,-0.7318912744522095,0.5102904438972473,-0.4515956938266754,0,0,0,-1,-1,30888.08373166667,unknown,2,2025-04-22T12:38:22.953+03:00,2025-04-21T17:08:51.449+03:00,7335,0.9820014,0,0,6115.4,5,20,2025-04-22T12:38:30.691+03:00,767007510.7936115,0,-21.73,100.4643,1,0.8,2025-04-22T12:37:49.783+03:00,101,1.683333333333333,2025-04-22T09:54:17.825+03:00,0.02225348692287972,0
2025-04-22T12:38:31.113+03:00,1745314709.016206,40.9522176802633,29.1402617935129,76.03027,-1,-1,-1,-1,30,19.23138545864953,-9999,30896.239152125,-0.72149658203125,0.5037384033203125,-0.451629638671875,30896.229076125,-0.3845021421152724,-1.017679426125848,-0.5354934649523351,0.003951554652303457,0.01657120324671268,-0.004738179035484791,0.008544743061065674,1.883506774902344e-05,-0.003488838672637939,XArbitraryZVertical,-0.3165510792605803,-0.417005940495965,-0.03440781848773306,0.8513033985403461,-0.7317808270454407,0.5102654695510864,-0.4518029093742371,0,0,0,-1,-1,30888.08373166667,unknown,2,2025-04-22T12:38:22.953+03:00,2025-04-21T17:08:51.449+03:00,7335,0.9820014,0,0,6115.4,5,20,2025-04-22T12:38:30.691+03:00,767007510.7936115,0,-21.73,100.4643,1,0.8,2025-04-22T12:37:49.783+03:00,101,1.683333333333333,2025-04-22T09:54:17.825+03:00,0.02225348692287972,0
2025-04-22T12:38:31.123+03:00,1745314709.016206,40.9522176802633,29.1402617935129,76.03027,-1,-1,-1,-1,30,19.23138545864953,-9999,30896.249228125,-0.72296142578125,0.5049591064453125,-0.4488067626953125,30896.239152125,-0.3845354709690325,-1.017541991210852,-0.5354931764904938,-0.004836078267544508,0.01011570170521736,-0.01157065108418465,0.01000863313674927,-0.00538259744644165,-0.001282483339309692,XArbitraryZVertical,-0.3165555752360429,-0.4169422153142769,-0.03444380972627382,0.8513313940732055,-0.7317187786102295,0.5102652311325073,-0.4519035220146179,0,0,0,-1,-1,30888.08373166667,unknown,2,2025-04-22T12:38:22.953+03:00,2025-04-21T17:08:51.449+03:00,7335,0.9820014,0,0,6115.4,5,20,2025-04-22T12:38:30.691+03:00,767007510.7936115,0,-21.73,100.4643,1,0.8,2025-04-22T12:37:49.783+03:00,101,1.683333333333333,2025-04-22T09:54:17.825+03:00,0.02225348692287972,0
2025-04-22T12:38:31.133+03:00,1745314709.016206,40.9522176802633,29.1402617935129,76.03027,-1,-1,-1,-1,30,19.23138545864953,-9999,30896.259304125,-0.722991943359375,0.50579833984375,-0.4532470703125,30896.249228125,-0.3846505751790941,-1.017511232663484,-0.5354690834865701,-0.006566600408405066,0.004973935894668102,-0.01192511804401875,0.009013354778289795,-0.005987465381622314,0.002515405416488647,XArbitraryZVertical,-0.3165693693460375,-0.4169143636707984,-0.03450376700921452,0.8513375036514707,-0.7317153215408325,0.5102445483207703,-0.4519324898719788,0,0,0,-1,-1,30888.08373166667,unknown,2,2025-04-22T12:38:22.953+03:00,2025-04-21T17:08:51.449+03:00,7335,0.9820014,0,0,6115.4,5,20,2025-04-22T12:38:30.691+03:00,767007510.7936115,0,-21.73,100.4643,1,0.8,2025-04-22T12:37:49.783+03:00,101,1.683333333333333,2025-04-22T09:54:17.825+03:00,0.02225348692287972,0
2025-04-22T12:38:31.143+03:00,1745314709.016206,40.9522176802633,29.1402617935129,76.03027,-1,-1,-1,-1,30,19.23138545864953,-9999,30896.269381125,-0.728271484375,0.50701904296875,-0.4537811279296875,30896.259304125,-0.3847518139289521,-1.017523327757904,-0.5354343088129799,-0.001804069033823907,-0.002319663297384977,-0.01011709775775671,0.00930863618850708,-0.004919946193695068,0.001127392053604126,XArbitraryZVertical,-0.3165767197896309,-0.4169084810008807,-0.03455374347443457,0.8513356752003759,-0.7317359447479248,0.510214626789093,-0.4519329965114594,0,0,0,-1,-1,30888.08373166667,unknown,2,2025-04-22T12:38:22.953+03:00,2025-04-21T17:08:51.449+03:00,7335,0.9820014,0,0,6115.4,5,20,2025-04-22T12:38:30.691+03:00,767007510.7936115,0,-21.73,100.4643,1,0.8,2025-04-22T12:37:49.783+03:00,101,1.683333333333333,2025-04-22T09:54:17.825+03:00,0.02225348692287972,0
2025-04-22T12:38:31.153+03:00,1745314709.016206,40.9522176802633,29.1402617935129,76.03027,-1,-1,-1,-1,30,19.23138545864953,-9999,30896.279457125,-0.731842041015625,0.5061187744140625,-0.450958251953125,30896.269381125,-0.3848255618503186,-1.01758566230081,-0.5353854077335134,-0.001546807703562081,0.001741923624649644,-0.006353518925607204,0.005985796451568604,-0.003947079181671143,-0.00239938497543335,XArbitraryZVertical,-0.3165735550163755,-0.4169303696076259,-0.03458762628367347,0.85132477242163,-0.7317853569984436,0.5101725459098816,-0.4519005119800568,0,0,0,-1,-1,30888.08373166667,unknown,2,2025-04-22T12:38:22.953+03:00,2025-04-21T17:08:51.449+03:00,7335,0.9820014,0,0,6115.4,5,20,2025-04-22T12:38:30.691+03:00,767007510.7936115,0,-21.73,100.4643,1,0.8,2025-04-22T12:37:49.783+03:00,101,1.683333333333333,2025-04-22T09:54:17.825+03:00,0.02225348692287972,0
2025-04-22T12:38:31.163+03:00,1745314709.016206,40.9522176802633,29.1402617935129,76.03027,-1,-1,-1,-1,30,19.23138545864953,-9999,30896.289533125,-0.7349700927734375,0.5099945068359375,-0.453887939453125,30896.279457125,-0.3849010412296102,-1.017569936609308,-0.5354075628039281,-0.008793868124485016,0.0149330273270607,0.00161648984067142,0.001635611057281494,-0.004027187824249268,0.001008898019790649,XArbitraryZVertical,-0.3165979082813467,-0.4169085445923056,-0.03461664243617642,0.8513252054146797,-0.7317686080932617,0.5101916193962097,-0.4519060552120209,0,0,0,-1,-1,30888.08373166667,unknown,2,2025-04-22T12:38:22.953+03:00,2025-04-21T17:08:51.449+03:00,7335,0.9820014,0,0,6115.4,5,20,2025-04-22T12:38:30.691+03:00,767007510.7936115,0,-21.73,100.4643,1,0.8,2025-04-22T12:37:49.783+03:00,101,1.683333333333333,2025-04-22T09:54:17.825+03:00,0.02225348692287972,0
2025-04-22T12:38:31.173+03:00,1745314709.016206,40.9522176802633,29.1402617935129,76.03027,-1,-1,-1,-1,30,19.23138545864953,-9999,30896.299609125,-0.7289276123046875,0.50555419921875,-0.450408935546875,30896.289533125,-0.3850064687245696,-1.017495207315696,-0.5354589938438488,-0.0123601071536541,0.01217825338244438,0.00018956811982207,-0.002006351947784424,-0.001172244548797607,-0.0005676448345184326,XArbitraryZVertical,-0.3166392264570297,-0.416852653221112,-0.0346603473000579,0.8513353907757369,-0.7317124605178833,0.5102358460426331,-0.4519469439983368,0,0,0,-1,-1,30888.08373166667,unknown,2,2025-04-22T12:38:22.953+03:00,2025-04-21T17:08:51.449+03:00,7335,0.9820014,0,0,6115.4,5,20,2025-04-22T12:38:30.691+03:00,767007510.7936115,0,-21.73,100.4643,1,0.8,2025-04-22T12:37:49.783+03:00,101,1.683333333333333,2025-04-22T09:54:17.825+03:00,0.02225348692287972,0
2025-04-22T12:38:31.183+03:00,1745314709.016206,40.9522176802633,29.1402617935129,76.03027,-1,-1,-1,-1,30,19.23138545864953,-9999,30896.309686125,-0.7235107421875,0.508148193359375,-0.4463348388671875,30896.299609125,-0.3850928704785223,-1.017451583507488,-0.5355166924047572,-0.008104641921818256,0.007410928141325712,0.0002648024528753012,-2.169609069824219e-05,-0.003098666667938232,-0.0005207061767578125,XArbitraryZVertical,-0.3166795943474572,-0.4168120994587901,-0.03468947221332357,0.8513391117212589,-0.7316677570343018,0.5102854371070862,-0.4519634246826172,0,0,0,-1,-1,30888.08373166667,unknown,2,2025-04-22T12:38:22.953+03:00,2025-04-21T17:08:51.449+03:00,7335,0.9820014,0,0,6115.4,5,20,2025-04-22T12:38:30.691+03:00,767007510.7936115,0,-21.73,100.4643,1,0.8,2025-04-22T12:37:49.783+03:00,101,1.683333333333333,2025-04-22T09:54:17.825+03:00,0.02225348692287972,0
2025-04-22T12:38:31.193+03:00,1745314709.016206,40.9522176802633,29.1402617935129,76.03027,-1,-1,-1,-1,30,19.23138545864953,-9999,30896.319762125,-0.7212066650390625,0.5091705322265625,-0.4504241943359375,30896.309686125,-0.3851481989775232,-1.017356775643212,-0.5355544523434734,-0.005371972918510437,0.009677810594439507,-0.001402602647431195,0.00660240650177002,-0.00488591194152832,0.005565762519836426,XArbitraryZVertical,-0.3167046245428819,-0.4167575510472591,-0.03471849561887649,0.8513553128462357,-0.731608510017395,0.5103179216384888,-0.4520226418972015,0,0,0,-1,-1,30888.08373166667,unknown,2,2025-04-22T12:38:22.953+03:00,2025-04-21T17:08:51.449+03:00,7335,0.9820014,0,0,6115.4,5,20,2025-04-22T12:38:30.691+03:00,767007510.7936115,0,-21.73,100.4643,1,0.8,2025-04-22T12:37:49.783+03:00,101,1.683333333333333,2025-04-22T09:54:17.825+03:00,0.02225348692287972,0
2025-04-22T12:38:31.203+03:00,1745314709.016206,40.9522176802633,29.1402617935129,76.03027,-1,-1,-1,-1,30,19.23138545864953,-9999,30896.329838125,-0.719207763671875,0.5098724365234375,-0.452117919921875,30896.319762125,-0.3851860722241207,-1.017272927758458,-0.5355788159443207,-0.005310719832777977,0.005138718988746405,-0.0006465312908403575,0.009559929370880127,-0.0008937716484069824,0.003179192543029785,XArbitraryZVertical,-0.3167208225610449,-0.4167123541799033,-0.03474174690420619,0.8513704863405945,-0.7315600514411926,0.5103389024734497,-0.4520774781703949,0,0,0,-1,-1,30888.08373166667,unknown,2,2025-04-22T12:38:22.953+03:00,2025-04-21T17:08:51.449+03:00,7335,0.9820014,0,0,6115.4,5,20,2025-04-22T12:38:30.691+03:00,767007510.7936115,0,-21.73,100.4643,1,0.8,2025-04-22T12:37:49.783+03:00,101,1.683333333333333,2025-04-22T09:54:17.825+03:00,0.02225348692287972,0
2025-04-22T12:38:31.213+03:00,1745314709.016206,40.9522176802633,29.1402617935129,76.03027,-1,-1,-1,-1,30,19.23138545864953,-9999,30896.339914125,-0.721588134765625,0.5130767822265625,-0.4569244384765625,30896.329838125,-0.3852930736549711,-1.017298782365575,-0.5356118779425717,-0.01371192838996649,-0.001121574081480503,-0.002589307259768248,0.01201391220092773,-0.001196861267089844,0.0006183981895446777,XArbitraryZVertical,-0.3167568287268885,-0.4167016593999618,-0.03477484649645596,0.8513609603975734,-0.7315573692321777,0.5103673338890076,-0.4520496726036072,0,0,0,-1,-1,30888.08373166667,unknown,2,2025-04-22T12:38:22.953+03:00,2025-04-21T17:08:51.449+03:00,7335,0.9820014,0,0,6115.4,5,20,2025-04-22T12:38:30.691+03:00,767007510.7936115,0,-21.73,100.4643,1,0.8,2025-04-22T12:37:49.783+03:00,101,1.683333333333333,2025-04-22T09:54:17.825+03:00,0.02225348692287972,0
2025-04-22T12:38:31.223+03:00,1745314709.016206,40.9522176802633,29.1402617935129,76.03027,-1,-1,-1,-1,30,19.23138545864953,-9999,30896.349990125,-0.7266845703125,0.512359619140625,-0.4593963623046875,30896.339914125,-0.3854526353847483,-1.017404767387375,-0.5356607403940901,-0.01663248427212238,-0.007049902807921171,-0.005645750556141138,0.01144552230834961,0.001904428005218506,-0.002676606178283691,XArbitraryZVertical,-0.316811519771425,-0.4167144727849629,-0.03481363106196134,0.851332727017678,-0.7315840721130371,0.5104093551635742,-0.4519590139389038,0,0,0,-1,-1,30888.08373166667,unknown,2,2025-04-22T12:38:22.953+03:00,2025-04-21T17:08:51.449+03:00,7335,0.9820014,0,0,6115.4,5,20,2025-04-22T12:38:30.691+03:00,767007510.7936115,0,-21.73,100.4643,1,0.8,2025-04-22T12:37:49.783+03:00,101,1.683333333333333,2025-04-22T09:54:17.825+03:00,0.02225348692287972,0
2025-04-22T12:38:31.234+03:00,1745314709.016206,40.9522176802633,29.1402617935129,76.03027,-1,-1,-1,-1,30,19.23138545864953,-9999,30896.360067125,-0.7293548583984375,0.509918212890625,-0.4544525146484375,30896.349990125,-0.3856461753149561,-1.017574624340682,-0.5356562331067907,-0.009964460507035255,-0.008299192413687706,-0.0125713013112545,0.0074654221534729,0.003357887268066406,-0.006843209266662598,XArbitraryZVertical,-0.3168529939029485,-0.416756760848056,-0.03487024712830104,0.851294289830117,-0.7316628098487854,0.5104054808616638,-0.451835960149765,0,0,0,-1,-1,30888.08373166667,unknown,2,2025-04-22T12:38:22.953+03:00,2025-04-21T17:08:51.449+03:00,7335,0.9820014,0,0,6115.4,5,20,2025-04-22T12:38:30.691+03:00,767007510.7936115,0,-21.73,100.4643,1,0.8,2025-04-22T12:37:49.783+03:00,101,1.683333333333333,2025-04-22T09:54:17.825+03:00,0.02225348692287972,0
2025-04-22T12:38:31.244+03:00,1745314709.016206,40.9522176802633,29.1402617935129,76.03027,-1,-1,-1,-1,30,19.23138545864953,-9999,30896.370143125,-0.7327117919921875,0.51055908203125,-0.45440673828125,30896.360067125,-0.3857866178128916,-1.017699905394775,-0.5355901477448498,-0.005795881617814302,-0.004597464576363564,-0.01032322645187378,0.003217160701751709,0.0003171563148498535,-0.005467593669891357,XArbitraryZVertical,-0.316857970795115,-0.4167973560496424,-0.03492686110783828,0.8512701788509294,-0.7317480444908142,0.5103486180305481,-0.4517619907855988,0,0,0,-1,-1,30888.08373166667,unknown,2,2025-04-22T12:38:22.953+03:00,2025-04-21T17:08:51.449+03:00,7335,0.9820014,0,0,6115.4,5,20,2025-04-22T12:38:30.691+03:00,767007510.7936115,0,-21.73,100.4643,1,0.8,2025-04-22T12:37:49.783+03:00,101,1.683333333333333,2025-04-22T09:54:17.825+03:00,0.02225348692287972,0
2025-04-22T12:38:31.254+03:00,1745314709.016206,40.9522176802633,29.1402617935129,76.03027,-1,-1,-1,-1,30,19.23138545864953,-9999,30896.380219125,-0.7265472412109375,0.5059051513671875,-0.456573486328125,30896.370143125,-0.3859020888115463,-1.017810961372277,-0.5354941972215098,-0.006999097764492035,-0.004690675064921379,-0.01874733716249466,-0.0001089572906494141,0.0003996491432189941,-0.001830518245697021,XArbitraryZVertical,-0.3168455115261906,-0.4168401479869928,-0.03498266064128286,0.8512515638888222,-0.7318398356437683,0.510266125202179,-0.4517064392566681,0,0,0,-1,-1,30888.08373166667,unknown,2,2025-04-22T12:38:22.953+03:00,2025-04-21T17:08:51.449+03:00,7335,0.9820014,0,0,6115.4,5,20,2025-04-22T12:38:30.691+03:00,767007510.7936115,0,-21.73,100.4643,1,0.8,2025-04-22T12:37:49.783+03:00,101,1.683333333333333,2025-04-22T09:54:17.825+03:00,0.02225348692287972,0
2025-04-22T12:38:31.264+03:00,1745314709.016206,40.9522176802633,29.1402617935129,76.03027,-1,-1,-1,-1,30,19.23138545864953,-9999,30896.390295125,-0.726776123046875,0.5030059814453125,-0.453582763671875,30896.380219125,-0.3860484651241483,-1.01791572599223,-0.5353692869647055,-0.005200065672397614,-0.003245577681809664,-0.01475722435861826,0.002159357070922852,-0.002041161060333252,-0.004940778017044067,XArbitraryZVertical,-0.3168277864989618,-0.4168795400005449,-0.03505992826090314,0.8512356667644321,-0.7319414019584656,0.5101587176322937,-0.4516631960868835,0,0,0,-1,-1,30888.08373166667,unknown,2,2025-04-22T12:38:22.953+03:00,2025-04-21T17:08:51.449+03:00,7335,0.9820014,0,0,6115.4,5,20,2025-04-22T12:38:30.691+03:00,767007510.7936115,0,-21.73,100.4643,1,0.8,2025-04-22T12:37:49.783+03:00,101,1.683333333333333,2025-04-22T09:54:17.825+03:00,0.02225348692287972,0
2025-04-22T12:38:31.274+03:00,1745314709.016206,40.9522176802633,29.1402617935129,76.03027,-1,-1,-1,-1,30,19.23138545864953,-9999,30896.400372125,-0.7292633056640625,0.5027618408203125,-0.4512481689453125,30896.390295125,-0.3862366360738871,-1.018053059129238,-0.5352881902991202,-0.01531821303069592,-0.004572631325572729,-0.01424962561577559,0.006590127944946289,-0.00673210620880127,-0.003402054309844971,XArbitraryZVertical,-0.3168368595570242,-0.41691984627324,-0.03513879590694342,0.8512094565897556,-0.7320387363433838,0.5100889205932617,-0.4515844881534576,0,0,0,-1,-1,30888.08373166667,unknown,2,2025-04-22T12:38:22.953+03:00,2025-04-21T17:08:51.449+03:00,7335,0.9820014,0,0,6115.4,5,20,2025-04-22T12:38:30.691+03:00,767007510.7936115,0,-21.73,100.4643,1,0.8,2025-04-22T12:37:49.783+03:00,101,1.683333333333333,2025-04-22T09:54:17.825+03:00,0.02225348692287972,0
2025-04-22T12:38:31.284+03:00,1745314709.016206,40.9522176802633,29.1402617935129,76.03027,-1,-1,-1,-1,30,19.23138545864953,-9999,30896.410448125,-0.7265472412109375,0.5050048828125,-0.4491729736328125,30896.400372125,-0.386452935041116,-1.018183907249326,-0.5352813530078367,-0.01674873009324074,-0.001537559553980827,-0.01202408783137798,0.002730667591094971,-0.006726205348968506,-0.001115620136260986,XArbitraryZVertical,-0.3168815151538693,-0.416942253062542,-0.03521184729135132,0.8511788263175778,-0.732100784778595,0.5100830793380737,-0.4514905214309692,0,0,0,-1,-1,30888.08373166667,unknown,2,2025-04-22T12:38:22.953+03:00,2025-04-21T17:08:51.449+03:00,7335,0.9820014,0,0,6115.4,5,20,2025-04-22T12:38:30.691+03:00,767007510.7936115,0,-21.73,100.4643,1,0.8,2025-04-22T12:37:49.783+03:00,101,1.683333333333333,2025-04-22T09:54:17.825+03:00,0.02225348692287972,0
2025-04-22T12:38:31.294+03:00,1745314709.016206,40.9522176802633,29.1402617935129,76.03027,-1,-1,-1,-1,30,19.23138545864953,-9999,30896.420524125,-0.7256622314453125,0.5074615478515625,-0.449981689453125,30896.410448125,-0.3866524529992752,-1.018264031557225,-0.535280430764852,-0.01539983879774809,4.808651283383369e-05,-0.00854759756475687,0.003896355628967285,-0.006359219551086426,0.001480937004089355,XArbitraryZVertical,-0.3169241602234106,-0.4169448744136363,-0.03528428996009748,0.8511586375743146,-0.7321373224258423,0.5100822448730469,-0.4514321088790894,0,0,0,-1,-1,30888.08373166667,unknown,2,2025-04-22T12:38:22.953+03:00,2025-04-21T17:08:51.449+03:00,7335,0.9820014,0,0,6115.4,5,20,2025-04-22T12:38:30.691+03:00,767007510.7936115,0,-21.73,100.4643,1,0.8,2025-04-22T12:37:49.783+03:00,101,1.683333333333333,2025-04-22T09:54:17.825+03:00,0.02225348692287972,0
2025-04-22T12:38:31.304+03:00,1745314709.016206,40.9522176802633,29.1402617935129,76.03027,-1,-1,-1,-1,30,19.23138545864953,-9999,30896.430600125,-0.7271575927734375,0.5099945068359375,-0.452972412109375,30896.420524125,-0.3868111978974779,-1.018245236314026,-0.5353157450956728,-0.01050574891269207,0.01169675309211016,-0.007024802267551422,0.005886733531951904,-0.0042533278465271,0.002324461936950684,XArbitraryZVertical,-0.3169710803362999,-0.4169066293714111,-0.03534589433837899,0.8511573270020723,-0.7321135401725769,0.5101126432418823,-0.4514364004135132,0,0,0,-1,-1,30888.08373166667,unknown,2,2025-04-22T12:38:22.953+03:00,2025-04-21T17:08:51.449+03:00,7335,0.9820014,0,0,6115.4,5,20,2025-04-22T12:38:30.691+03:00,767007510.7936115,0,-21.73,100.4643,1,0.8,2025-04-22T12:37:49.783+03:00,101,1.683333333333333,2025-04-22T09:54:17.825+03:00,0.02225348692287972,0
2025-04-22T12:38:31.314+03:00,1745314709.016206,40.9522176802633,29.1402617935129,76.03027,-1,-1,-1,-1,30,19.23138545864953,-9999,30896.440677125,-0.7259521484375,0.5097198486328125,-0.453125,30896.430600125,-0.3869194636704648,-1.018162954870641,-0.5353664304550397,-0.0141990203410387,0.003939763642847538,-0.004413039889186621,0.005003571510314941,-0.0009400248527526855,-0.0006043314933776855,XArbitraryZVertical,-0.3170125119926572,-0.416847145553249,-0.03539219279260616,0.8511690903099994,-0.7320543527603149,0.5101562142372131,-0.4514830410480499,0,0,0,-1,-1,30888.08373166667,unknown,2,2025-04-22T12:38:22.953+03:00,2025-04-21T17:08:51.449+03:00,7335,0.9820014,0,0,6115.4,5,20,2025-04-22T12:38:30.691+03:00,767007510.7936115,0,-21.73,100.4643,1,0.8,2025-04-22T12:37:49.783+03:00,101,1.683333333333333,2025-04-22T09:54:17.825+03:00,0.02225348692287972,0
2025-04-22T12:38:31.324+03:00,1745314709.016206,40.9522176802633,29.1402617935129,76.03027,-1,-1,-1,-1,30,19.23138545864953,-9999,30896.450753125,-0.7254638671875,0.5119171142578125,-0.4499053955078125,30896.440677125,-0.3870542514491924,-1.01819392713867,-0.5354059082097364,-0.01558652799576521,-0.001419581472873688,-0.003015945665538311,0.004954695701599121,-0.0002110600471496582,-0.002575427293777466,XArbitraryZVertical,-0.3170569782013667,-0.4168332680992398,-0.03543466299128569,0.8511575479845522,-0.7320511937141418,0.5101901888847351,-0.4514498114585876,0,0,0,-1,-1,30888.08373166667,unknown,2,2025-04-22T12:38:22.953+03:00,2025-04-21T17:08:51.449+03:00,7335,0.9820014,0,0,6115.4,5,20,2025-04-22T12:38:30.691+03:00,767007510.7936115,0,-21.73,100.4643,1,0.8,2025-04-22T12:37:49.783+03:00,101,1.683333333333333,2025-04-22T09:54:17.825+03:00,0.02225348692287972,0
2025-04-22T12:38:31.334+03:00,1745314709.016206,40.9522176802633,29.1402617935129,76.03027,-1,-1,-1,-1,30,19.23138545864953,-9999,30896.460829125,-0.7317047119140625,0.511566162109375,-0.4492950439453125,30896.450753125,-0.3872445555809206,-1.018279361877615,-0.5354399365197231,-0.01981296204030514,0.002602057764306664,-0.007555569987744093,0.007435083389282227,-2.6702880859375e-05,0.000252068042755127,XArbitraryZVertical,-0.3171117830137629,-0.4168345436582373,-0.03549350975410127,0.8511340865625251,-0.7320749759674072,0.5102194547653198,-0.4513781666755676,0,0,0,-1,-1,30888.08373166667,unknown,2,2025-04-22T12:38:22.953+03:00,2025-04-21T17:08:51.449+03:00,7335,0.9820014,0,0,6115.4,5,20,2025-04-22T12:38:30.691+03:00,767007510.7936115,0,-21.73,100.4643,1,0.8,2025-04-22T12:37:49.783+03:00,101,1.683333333333333,2025-04-22T09:54:17.825+03:00,0.02225348692287972,0
2025-04-22T12:38:31.345+03:00,1745314709.016206,40.9522176802633,29.1402617935129,76.03027,-1,-1,-1,-1,30,19.23138545864953,-9999,30896.470905125,-0.7296295166015625,0.5077362060546875,-0.44921875,30896.460829125,-0.3874689052015305,-1.018385236556236,-0.5354620273511118,-0.02068834379315376,-0.008439141325652599,-0.008659983053803444,0.001980125904083252,0.001907467842102051,0.001679301261901855,XArbitraryZVertical,-0.3171692732904003,-0.4168408361366465,-0.03556661066025515,0.8511065376608807,-0.7321131825447083,0.5102384686470032,-0.4512947499752045,0,0,0,-1,-1,30888.08373166667,unknown,2,2025-04-22T12:38:22.953+03:00,2025-04-21T17:08:51.449+03:00,7335,0.9820014,0,0,6115.4,5,20,2025-04-22T12:38:30.691+03:00,767007510.7936115,0,-21.73,100.4643,1,0.8,2025-04-22T12:37:49.783+03:00,101,1.683333333333333,2025-04-22T09:54:17.825+03:00,0.02225348692287972,0
2025-04-22T12:38:31.355+03:00,1745314709.016206,40.9522176802633,29.1402617935129,76.03027,-1,-1,-1,-1,30,19.23138545864953,-9999,30896.480982125,-0.7282257080078125,0.509033203125,-0.4495849609375,30896.470905125,-0.3877329003177727,-1.018559794346014,-0.5354950648028212,-0.02370623871684074,-0.004821503534913063,-0.007029063068330288,0.001327395439147949,-0.001920402050018311,0.0009475350379943848,XArbitraryZVertical,-0.3172406323570496,-0.4168684751207073,-0.03564291859410466,0.8510632447784587,-0.7321776151657104,0.5102668404579163,-0.4511581063270569,0,0,0,-1,-1,30888.08373166667,unknown,2,2025-04-22T12:38:22.953+03:00,2025-04-21T17:08:51.449+03:00,7335,0.9820014,0,0,6115.4,5,20,2025-04-22T12:38:30.691+03:00,767007510.7936115,0,-21.73,100.4643,1,0.8,2025-04-22T12:37:49.783+03:00,101,1.683333333333333,2025-04-22T09:54:17.825+03:00,0.02225348692287972,0
2025-04-22T12:38:31.365+03:00,1745314709.016206,40.9522176802633,29.1402617935129,76.03027,-1,-1,-1,-1,30,19.23138545864953,-9999,30896.491058125,-0.7305450439453125,0.5084075927734375,-0.4538116455078125,30896.480982125,-0.3880034098418393,-1.018715239289961,-0.5355576366284253,-0.02526871487498283,-0.002596965059638023,-0.003891060594469309,0.005261361598968506,-0.002340435981750488,0.002464950084686279,XArbitraryZVertical,-0.3173248513821639,-0.4168826667735971,-0.03571754453703081,0.8510217928315027,-0.7322205901145935,0.5103206634521484,-0.4510275721549988,0,0,0,-1,-1,30888.08373166667,unknown,2,2025-04-22T12:38:22.953+03:00,2025-04-21T17:08:51.449+03:00,7335,0.9820014,0,0,6115.4,5,20,2025-04-22T12:38:30.691+03:00,767007510.7936115,0,-21.73,100.4643,1,0.8,2025-04-22T12:37:49.783+03:00,101,1.683333333333333,2025-04-22T09:54:17.825+03:00,0.02225348692287972,0
2025-04-22T12:38:31.404+03:00,1745314709.016206,40.9522176802633,29.1402617935129,76.03027,-1,-1,-1,-1,30,19.23138545864953,-9999,30896.501134125,-0.7334442138671875,0.513458251953125,-0.452117919921875,30896.491058125,-0.3882349923280072,-1.018839479341231,-0.5356212174994359,-0.01642216183245182,-0.0003057806752622128,-0.0005583473830483854,0.002573609352111816,-0.001693248748779297,-0.001289933919906616,XArbitraryZVertical,-0.3174008705323518,-0.4168896135336316,-0.03578024316181896,0.8509872350476853,-0.732248842716217,0.5103753805160522,-0.4509194791316986,0,0,0,-1,-1,30888.08373166667,unknown,2,2025-04-22T12:38:22.953+03:00,2025-04-21T17:08:51.449+03:00,7335,0.9820014,0,0,6115.4,5,20,2025-04-22T12:38:30.691+03:00,767007510.7936115,0,-21.73,100.4643,1,0.8,2025-04-22T12:37:49.783+03:00,101,1.683333333333333,2025-04-22T09:54:17.825+03:00,0.02225348692287972,0
2025-04-22T12:38:31.406+03:00,1745314709.016206,40.9522176802633,29.1402617935129,76.03027,-1,-1,-1,-1,30,19.23138545864953,-9999,30896.511210125,-0.73681640625,0.517333984375,-0.4500885009765625,30896.501134125,-0.3883746031697467,-1.018830369530814,-0.5357081475404412,-0.01101607643067837,0.01471990719437599,0.002177185146138072,0.0008075237274169922,-0.0008524656295776367,-0.002771347761154175,XArbitraryZVertical,-0.3174646097968234,-0.4168510082575544,-0.03581911345909654,0.8509808008559024,-0.7322070002555847,0.5104501247406006,-0.450902909040451,0,0,0,-1,-1,30888.08373166667,unknown,2,2025-04-22T12:38:22.953+03:00,2025-04-21T17:08:51.449+03:00,7335,0.9820014,0,0,6115.4,5,20,2025-04-22T12:38:30.691+03:00,767007510.7936115,0,-21.73,100.4643,1,0.8,2025-04-22T12:37:49.783+03:00,101,1.683333333333333,2025-04-22T09:54:17.825+03:00,0.02225348692287972,0
2025-04-22T12:38:31.407+03:00,1745314709.016206,40.9522176802633,29.1402617935129,76.03027,-1,-1,-1,-1,30,19.23138545864953,-9999,30896.521287125,-0.7341156005859375,0.513519287109375,-0.449371337890625,30896.511210125,-0.3884400250082318,-1.018691283127753,-0.5357748309313476,-0.009264514781534672,0.0186304934322834,0.002290369477123022,-0.004609525203704834,0.007146835327148438,5.921721458435059e-05,XArbitraryZVertical,-0.3175024766583394,-0.4167718063515348,-0.03585214926313107,0.8510040374612023,-0.7321152687072754,0.5105074644088745,-0.4509868919849396,0,0,0,-1,-1,30888.08373166667,unknown,2,2025-04-22T12:38:22.953+03:00,2025-04-21T17:08:51.449+03:00,7335,0.9820014,0,0,6115.4,5,20,2025-04-22T12:38:30.691+03:00,767007510.7936115,0,-21.73,100.4643,1,0.8,2025-04-22T12:37:49.783+03:00,101,1.683333333333333,2025-04-22T09:54:17.825+03:00,0.02225348692287972,0
2025-04-22T12:38:31.407+03:00,1745314709.016206,40.9522176802633,29.1402617935129,76.03027,-1,-1,-1,-1,30,19.23138545864953,-9999,30896.531363125,-0.7328033447265625,0.514007568359375,-0.451263427734375,30896.521287125,-0.3885012355552027,-1.018528662542161,-0.5358385768475434,-0.01189685054123402,0.01703652366995811,0.001383929280564189,-0.003901898860931396,0.004040300846099854,0.0008630752563476562,XArbitraryZVertical,-0.317537842754479,-0.4166836736983285,-0.03588789232207432,0.8510325169059999,-0.7320142388343811,0.5105622410774231,-0.4510888755321503,0,0,0,-1,-1,30888.08373166667,unknown,2,2025-04-22T12:38:22.953+03:00,2025-04-21T17:08:51.449+03:00,7335,0.9820014,0,0,6115.4,5,20,2025-04-22T12:38:30.691+03:00,767007510.7936115,0,-21.73,100.4643,1,0.8,2025-04-22T12:37:49.783+03:00,101,1.683333333333333,2025-04-22T09:54:17.825+03:00,0.02225348692287972,0
2025-04-22T12:38:31.416+03:00,1745314709.016206,40.9522176802633,29.1402617935129,76.03027,-1,-1,-1,-1,30,19.23138545864953,-9999,30896.541439125,-0.7267913818359375,0.5160675048828125,-0.4571990966796875,30896.531363125,-0.3886047163204046,-1.018427482649537,-0.5359226618520888,-0.009368444792926311,0.01029393263161182,-0.001042476738803089,-0.00129854679107666,0.002548873424530029,0.001204520463943481,XArbitraryZVertical,-0.317591284082097,-0.4166120354294395,-0.0359267102527733,0.8510459609739066,-0.7319319844245911,0.5106345415115356,-0.4511403739452362,0,0,0,-1,-1,30888.08373166667,unknown,2,2025-04-22T12:38:22.953+03:00,2025-04-21T17:08:51.449+03:00,7335,0.9820014,0,0,6115.4,5,20,2025-04-22T12:38:30.691+03:00,767007510.7936115,0,-21.73,100.4643,1,0.8,2025-04-22T12:37:49.783+03:00,101,1.683333333333333,2025-04-22T09:54:17.825+03:00,0.02225348692287972,0
2025-04-22T12:38:31.425+03:00,1745314709.016206,40.9522176802633,29.1402617935129,76.03027,-1,-1,-1,-1,30,19.23138545864953,-9999,30896.551515125,-0.7274322509765625,0.510589599609375,-0.4562225341796875,30896.541439125,-0.388657271939693,-1.018346904902159,-0.5359318793288383,-0.00299157272092998,0.01045365631580353,-0.003744553308933973,0.002430081367492676,0.004921376705169678,-0.004186332225799561,XArbitraryZVertical,-0.3176044347823152,-0.4165680563547685,-0.03595956815498255,0.851061320492407,-0.7318917512893677,0.5106424689292908,-0.4511969685554504,0,0,0,-1,-1,30888.08373166667,unknown,2,2025-04-22T12:38:22.953+03:00,2025-04-21T17:08:51.449+03:00,7335,0.9820014,0,0,6115.4,5,20,2025-04-22T12:38:30.691+03:00,767007510.7936115,0,-21.73,100.4643,1,0.8,2025-04-22T12:37:49.783+03:00,101,1.683333333333333,2025-04-22T09:54:17.825+03:00,0.02225348692287972,0
2025-04-22T12:38:31.435+03:00,1745314709.016206,40.9522176802633,29.1402617935129,76.03027,-1,-1,-1,-1,30,19.23138545864953,-9999,30896.561592125,-0.730010986328125,0.51202392578125,-0.45159912109375,30896.551515125,-0.3886847435969923,-1.018249133895075,-0.5359346482705435,-0.002858947264030576,0.0158779826015234,0.004013501573354006,0.006290972232818604,0.001974105834960938,-0.005839765071868896,XArbitraryZVertical,-0.3176094958753522,-0.4165216848886234,-0.03598609257823081,0.8510810414286298,-0.7318464517593384,0.5106448531150818,-0.4512677788734436,0,0,0,-1,-1,30888.08373166667,unknown,2,2025-04-22T12:38:22.953+03:00,2025-04-21T17:08:51.449+03:00,7335,0.9820014,0,0,6115.4,5,20,2025-04-22T12:38:30.691+03:00,767007510.7936115,0,-21.73,100.4643,1,0.8,2025-04-22T12:37:49.783+03:00,101,1.683333333333333,2025-04-22T09:54:17.825+03:00,0.02225348692287972,0
2025-04-22T12:38:31.445+03:00,1745314709.016206,40.9522176802633,29.1402617935129,76.03027,-1,-1,-1,-1,30,19.23138545864953,-9999,30896.571668125,-0.729949951171875,0.507781982421875,-0.4488067626953125,30896.561592125,-0.3886984405360386,-1.018083771830152,-0.5359801430963752,-0.004450718872249126,0.01726176217198372,0.002544767921790481,0.00253450870513916,0.0001649260520935059,-0.001305878162384033,XArbitraryZVertical,-0.317627599278835,-0.4164425610749595,-0.03600667630745357,0.8511121309619861,-0.7317520380020142,0.5106839537620544,-0.4513766169548035,0,0,0,-1,-1,30888.08373166667,unknown,2,2025-04-22T12:38:22.953+03:00,2025-04-21T17:08:51.449+03:00,7335,0.9820014,0,0,6115.4,5,20,2025-04-22T12:38:30.691+03:00,767007510.7936115,0,-21.73,100.4643,1,0.8,2025-04-22T12:37:49.783+03:00,101,1.683333333333333,2025-04-22T09:54:17.825+03:00,0.02225348692287972,0
2025-04-22T12:38:31.455+03:00,1745314709.016206,40.9522176802633,29.1402617935129,76.03027,-1,-1,-1,-1,30,19.23138545864953,-9999,30896.581744125,-0.72772216796875,0.5045166015625,-0.44781494140625,30896.571668125,-0.3887781129689862,-1.01796692531976,-0.5360414842629854,-0.01381439249962568,0.0115149263292551,0.002107476815581322,0.002180337905883789,-0.00109332799911499,0.001616537570953369,XArbitraryZVertical,-0.3176667102475161,-0.4163713260558411,-0.03604359056902951,0.8511306610900758,-0.7316725254058838,0.5107367038726807,-0.4514455497264862,0,0,0,-1,-1,30888.08373166667,unknown,2,2025-04-22T12:38:22.953+03:00,2025-04-21T17:08:51.449+03:00,7335,0.9820014,0,0,6115.4,5,20,2025-04-22T12:38:30.691+03:00,767007510.7936115,0,-21.73,100.4643,1,0.8,2025-04-22T12:37:49.783+03:00,101,1.683333333333333,2025-04-22T09:54:17.825+03:00,0.02225348692287972,0
2025-04-22T12:38:31.465+03:00,1745314709.016206,40.9522176802633,29.1402617935129,76.03027,-1,-1,-1,-1,30,19.23138545864953,-9999,30896.591820125,-0.7255096435546875,0.505889892578125,-0.4533843994140625,30896.581744125,-0.3889369841685243,-1.01796373533003,-0.5361512803574606,-0.02192258648574352,0.005840328522026539,0.002874234225600958,0.003062069416046143,-0.005536377429962158,0.004320740699768066,XArbitraryZVertical,-0.3177436695199312,-0.4163288352591774,-0.03608397589624242,0.8511211440206907,-0.7316234707832336,0.5108311176300049,-0.4514185190200806,0,0,0,-1,-1,30888.08373166667,unknown,2,2025-04-22T12:38:22.953+03:00,2025-04-21T17:08:51.449+03:00,7335,0.9820014,0,0,6115.4,5,20,2025-04-22T12:38:30.691+03:00,767007510.7936115,0,-21.73,100.4643,1,0.8,2025-04-22T12:37:49.783+03:00,101,1.683333333333333,2025-04-22T09:54:17.825+03:00,0.02225348692287972,0
2025-04-22T12:38:31.475+03:00,1745314709.016206,40.9522176802633,29.1402617935129,76.03027,-1,-1,-1,-1,30,19.23138545864953,-9999,30896.601897125,-0.7291107177734375,0.5138397216796875,-0.4525604248046875,30896.591820125,-0.3890847819766065,-1.017971744114075,-0.536278494536806,-0.01406279858201742,0.01445911638438702,0.001889929873868823,0.005894243717193604,-0.0064849853515625,-0.0004799365997314453,XArbitraryZVertical,-0.317825544303961,-0.4162903521514192,-0.03611342984445057,0.8511081405231844,-0.7315717339515686,0.5109404921531677,-0.4513785243034363,0,0,0,-1,-1,30888.08373166667,unknown,2,2025-04-22T12:38:22.953+03:00,2025-04-21T17:08:51.449+03:00,7335,0.9820014,0,0,6115.4,5,20,2025-04-22T12:38:30.691+03:00,767007510.7936115,0,-21.73,100.4643,1,0.8,2025-04-22T12:37:49.783+03:00,101,1.683333333333333,2025-04-22T09:54:17.825+03:00,0.02225348692287972,0
2025-04-22T12:38:31.485+03:00,1745314709.016206,40.9522176802633,29.1402617935129,76.03027,-1,-1,-1,-1,30,19.23138545864953,-9999,30896.611973125,-0.7283477783203125,0.514678955078125,-0.44903564453125,30896.601897125,-0.389196809818497,-1.017880300071074,-0.5363362302155449,-0.007131922524422407,0.01647592894732952,-0.00266713835299015,0.004530906677246094,-0.0001106858253479004,-0.001801848411560059,XArbitraryZVertical,-0.3178703244747985,-0.4162252733660764,-0.03616104664797381,0.8511212627440128,-0.7315053939819336,0.5109900832176208,-0.4514299631118774,0,0,0,-1,-1,30888.08373166667,unknown,2,2025-04-22T12:38:22.953+03:00,2025-04-21T17:08:51.449+03:00,7335,0.9820014,0,0,6115.4,5,20,2025-04-22T12:38:30.691+03:00,767007510.7936115,0,-21.73,100.4643,1,0.8,2025-04-22T12:37:49.783+03:00,101,1.683333333333333,2025-04-22T09:54:17.825+03:00,0.02225348692287972,0
2025-04-22T12:38:31.496+03:00,1745314709.016206,40.9522176802633,29.1402617935129,76.03027,-1,-1,-1,-1,30,19.23138545864953,-9999,30896.622049125,-0.722564697265625,0.5094451904296875,-0.4500732421875,30896.611973125,-0.3892880525212015,-1.017842072852049,-0.5363480290762165,-0.00517583079636097,0.004970273934304714,-0.002581650856882334,0.001792430877685547,0.005372345447540283,0.0009390115737915039,XArbitraryZVertical,-0.3178933515666644,-0.4161927963727646,-0.03620296557222985,0.8511267493582538,-0.731482982635498,0.5110002160072327,-0.451454758644104,0,0,0,-1,-1,30888.08373166667,unknown,2,2025-04-22T12:38:22.953+03:00,2025-04-21T17:08:51.449+03:00,7335,0.9820014,0,0,6115.4,5,20,2025-04-22T12:38:30.691+03:00,767007510.7936115,0,-21.73,100.4643,1,0.8,2025-04-22T12:37:49.783+03:00,101,1.683333333333333,2025-04-22T09:54:17.825+03:00,0.02225348692287972,0
2025-04-22T12:38:31.506+03:00,1745314709.016206,40.9522176802633,29.1402617935129,76.03027,-1,-1,-1,-1,30,19.23138545864953,-9999,30896.632125125,-0.727813720703125,0.5106201171875,-0.449676513671875,30896.622049125,-0.3893618505568748,-1.017806394974394,-0.5363910293353258,-0.009413786232471466,0.004430650733411312,-0.000735447509214282,0.008151054382324219,-0.0001424551010131836,0.002876102924346924,XArbitraryZVertical,-0.3179252862006643,-0.4161596568143109,-0.03622917089101639,0.8511299145116276,-0.731448233127594,0.5110372304916382,-0.4514693021774292,0,0,0,-1,-1,30888.08373166667,unknown,2,2025-04-22T12:38:22.953+03:00,2025-04-21T17:08:51.449+03:00,7335,0.9820014,0,0,6115.4,5,20,2025-04-22T12:38:30.691+03:00,767007510.7936115,0,-21.73,100.4643,1,0.8,2025-04-22T12:37:49.783+03:00,101,1.683333333333333,2025-04-22T09:54:17.825+03:00,0.02225348692287972,0
2025-04-22T12:38:31.516+03:00,1745314709.016206,40.9522176802633,29.1402617935129,76.03027,-1,-1,-1,-1,30,19.23138545864953,-9999,30896.642202125,-0.731536865234375,0.506683349609375,-0.448822021484375,30896.632125125,-0.3894392122974099,-1.017738963087711,-0.5364612451052331,-0.01005906984210014,0.01003207825124264,0.00198177550919354,0.005709648132324219,-0.0003554821014404297,0.001029789447784424,XArbitraryZVertical,-0.3179683154182507,-0.4161085028634912,-0.0362550400168694,0.8511376646486506,-0.7313871383666992,0.5110975503921509,-0.451499730348587,0,0,0,-1,-1,30888.08373166667,unknown,2,2025-04-22T12:38:22.953+03:00,2025-04-21T17:08:51.449+03:00,7335,0.9820014,0,0,6115.4,5,20,2025-04-22T12:38:30.691+03:00,767007510.7936115,0,-21.73,100.4643,1,0.8,2025-04-22T12:37:49.783+03:00,101,1.683333333333333,2025-04-22T09:54:17.825+03:00,0.02225348692287972,0
2025-04-22T12:38:31.526+03:00,1745314709.016206,40.9522176802633,29.1402617935129,76.03027,-1,-1,-1,-1,30,19.23138545864953,-9999,30896.652278125,-0.729888916015625,0.508453369140625,-0.449462890625,30896.642202125,-0.3895033819349773,-1.017640997419989,-0.536504289165749,-0.005634094588458538,0.01461977139115334,0.001690492499619722,0.0004740357398986816,-0.003093242645263672,0.002692043781280518,XArbitraryZVertical,-0.3179971161572078,-0.416050370968619,-0.03628705300943882,0.8511540059495352,-0.7313242554664612,0.5111345648765564,-0.451559841632843,0,0,0,-1,-1,30888.08373166667,unknown,2,2025-04-22T12:38:22.953+03:00,2025-04-21T17:08:51.449+03:00,7335,0.9820014,0,0,6115.4,5,20,2025-04-22T12:38:30.691+03:00,767007510.7936115,0,-21.73,100.4643,1,0.8,2025-04-22T12:37:49.783+03:00,101,1.683333333333333,2025-04-22T09:54:17.825+03:00,0.02225348692287972,0
2025-04-22T12:38:31.536+03:00,1745314709.016206,40.9522176802633,29.1402617935129,76.03027,-1,-1,-1,-1,30,19.23138545864953,-9999,30896.662354125,-0.7271728515625,0.5106658935546875,-0.44879150390625,30896.652278125,-0.3895421078627351,-1.017489491967385,-0.5365445483130133,-0.002280109096318483,0.01990934275090694,0.001529371249489486,0.000845789909362793,-0.004363834857940674,0.001342475414276123,XArbitraryZVertical,-0.3180185624094755,-0.415973908665633,-0.0363174366393317,0.8511820273257598,-0.7312382459640503,0.5111691355705261,-0.4516597986221313,0,0,0,-1,-1,30888.08373166667,unknown,2,2025-04-22T12:38:22.953+03:00,2025-04-21T17:08:51.449+03:00,7335,0.9820014,0,0,6115.4,5,20,2025-04-22T12:38:30.691+03:00,767007510.7936115,0,-21.73,100.4643,1,0.8,2025-04-22T12:37:49.783+03:00,101,1.683333333333333,2025-04-22T09:54:17.825+03:00,0.02225348692287972,0
2025-04-22T12:38:31.546+03:00,1745314709.016206,40.9522176802633,29.1402617935129,76.03027,-1,-1,-1,-1,30,19.23138545864953,-9999,30896.672430125,-0.7269287109375,0.508697509765625,-0.450408935546875,30896.662354125,-0.3895784090210093,-1.017279212090677,-0.5365381782757617,0.0003894434776157141,0.0250987783074379,-0.001511426060460508,0.003088235855102539,-0.0009251236915588379,0.003618896007537842,XArbitraryZVertical,-0.3180197192319537,-0.4158795575972786,-0.03636794735699448,0.8512256021521701,-0.7311460971832275,0.5111637115478516,-0.4518153071403503,0,0,0,-1,-1,30888.08373166667,unknown,2,2025-04-22T12:38:22.953+03:00,2025-04-21T17:08:51.449+03:00,7335,0.9820014,0,0,6115.4,5,20,2025-04-22T12:38:30.691+03:00,767007510.7936115,0,-21.73,100.4643,1,0.8,2025-04-22T12:37:49.783+03:00,101,1.683333333333333,2025-04-22T09:54:17.825+03:00,0.02225348692287972,0
2025-04-22T12:38:31.556+03:00,1745314709.016206,40.9522176802633,29.1402617935129,76.03027,-1,-1,-1,-1,30,19.23138545864953,-9999,30896.682507125,-0.7266387939453125,0.5052337646484375,-0.44879150390625,30896.672430125,-0.38962703920113,-1.01705685295666,-0.536540641350656,-0.008544929325580597,0.01941506005823612,-0.0009050243534147739,0.004192054271697998,-0.002086937427520752,0.002026021480560303,XArbitraryZVertical,-0.3180267992016601,-0.4157768353500295,-0.03642335981550739,0.8512706777656643,-0.7310444712638855,0.5111657977104187,-0.4519771635532379,0,0,0,-1,-1,30888.08373166667,unknown,2,2025-04-22T12:38:22.953+03:00,2025-04-21T17:08:51.449+03:00,7335,0.9820014,0,0,6115.4,5,20,2025-04-22T12:38:30.691+03:00,767007510.7936115,0,-21.73,100.4643,1,0.8,2025-04-22T12:37:49.783+03:00,101,1.683333333333333,2025-04-22T09:54:17.825+03:00,0.02225348692287972,0
2025-04-22T12:38:31.567+03:00,1745314709.016206,40.9522176802633,29.1402617935129,76.03027,-1,-1,-1,-1,30,19.23138545864953,-9999,30896.692583125,-0.722869873046875,0.50787353515625,-0.447296142578125,30896.682507125,-0.3897274955864598,-1.016929168593912,-0.5366102632152026,-0.01115782279521227,0.01208730600774288,0.000503621413372457,0.003463268280029297,-0.004694938659667969,0.002634763717651367,XArbitraryZVertical,-0.318073217698575,-0.4156964194279465,-0.03646885221843157,0.8512907550934466,-0.7309565544128418,0.5112256407737732,-0.4520518183708191,0,0,0,-1,-1,30888.08373166667,unknown,2,2025-04-22T12:38:22.953+03:00,2025-04-21T17:08:51.449+03:00,7335,0.9820014,0,0,6115.4,5,20,2025-04-22T12:38:30.691+03:00,767007510.7936115,0,-21.73,100.4643,1,0.8,2025-04-22T12:37:49.783+03:00,101,1.683333333333333,2025-04-22T09:54:17.825+03:00,0.02225348692287972,0
2025-04-22T12:38:31.576+03:00,1745314709.016206,40.9522176802633,29.1402617935129,76.03027,-1,-1,-1,-1,30,19.23138545864953,-9999,30896.702659125,-0.7209930419921875,0.510894775390625,-0.4467926025390625,30896.692583125,-0.389870699395614,-1.016939656391401,-0.5367043604148323,-0.01547214481979609,0.001680471003055573,-0.0006053188117220998,0.006219446659088135,-0.004668951034545898,0.003715634346008301,XArbitraryZVertical,-0.3181408702208524,-0.4156644739157466,-0.03650436174534454,0.8512795578220353,-0.7309203743934631,0.5113065242767334,-0.4520188570022583,0,0,0,-1,-1,30888.08373166667,unknown,2,2025-04-22T12:38:22.953+03:00,2025-04-21T17:08:51.449+03:00,7335,0.9820014,0,0,6115.4,5,20,2025-04-22T12:38:30.691+03:00,767007510.7936115,0,-21.73,100.4643,1,0.8,2025-04-22T12:37:49.783+03:00,101,1.683333333333333,2025-04-22T09:54:17.825+03:00,0.02225348692287972,0
2025-04-22T12:38:31.586+03:00,1745314709.016206,40.9522176802633,29.1402617935129,76.03027,-1,-1,-1,-1,30,19.23138545864953,-9999,30896.712735125,-0.727081298828125,0.51287841796875,-0.445953369140625,30896.702659125,-0.3900113273113899,-1.017015887286638,-0.5367976105480471,-0.01352670509368181,-0.0003358079120516777,-0.000301319028949365,0.00970757007598877,-0.002017796039581299,0.004931807518005371,XArbitraryZVertical,-0.318208846558461,-0.4156610351746824,-0.03652852598148158,0.8512547946295074,-0.730914294719696,0.5113866329193115,-0.4519380629062653,0,0,0,-1,-1,30888.08373166667,unknown,2,2025-04-22T12:38:22.953+03:00,2025-04-21T17:08:51.449+03:00,7335,0.9820014,0,0,6115.4,5,20,2025-04-22T12:38:30.691+03:00,767007510.7936115,0,-21.73,100.4643,1,0.8,2025-04-22T12:37:49.783+03:00,101,1.683333333333333,2025-04-22T09:54:17.825+03:00,0.02225348692287972,0
2025-04-22T12:38:31.597+03:00,1745314709.016206,40.9522176802633,29.1402617935129,76.03027,-1,-1,-1,-1,30,19.23138545864953,-9999,30896.722812125,-0.733245849609375,0.5146636962890625,-0.449462890625,30896.712735125,-0.3901197416176062,-1.01704455317528,-0.5368711947259157,-0.01219725515693426,0.002788878744468093,0.0007074864115566015,0.00715559720993042,0.001214921474456787,0.005623519420623779,XArbitraryZVertical,-0.3182613755890478,-0.415645318582373,-0.03655151514555649,0.8512418564024732,-0.7308952808380127,0.5114498734474182,-0.4518973231315613,0,0,0,-1,-1,30888.08373166667,unknown,2,2025-04-22T12:38:22.953+03:00,2025-04-21T17:08:51.449+03:00,7335,0.9820014,0,0,6115.4,5,20,2025-04-22T12:38:30.691+03:00,767007510.7936115,0,-21.73,100.4643,1,0.8,2025-04-22T12:37:49.783+03:00,101,1.683333333333333,2025-04-22T09:54:17.825+03:00,0.02225348692287972,0
2025-04-22T12:38:31.607+03:00,1745314709.016206,40.9522176802633,29.1402617935129,76.03027,-1,-1,-1,-1,30,19.23138545864953,-9999,30896.732888125,-0.7288970947265625,0.5169525146484375,-0.4501190185546875,30896.722812125,-0.3902304549607803,-1.01708106610621,-0.5369441558655668,-0.009779704734683037,0.003110522171482444,0.000918508623726666,-0.00175553560256958,0.001396298408508301,0.004417538642883301,XArbitraryZVertical,-0.3183143026883897,-0.4156326693990028,-0.03657436866487981,0.8512271857183882,-0.7308799624443054,0.5115125775337219,-0.4518509805202484,0,0,0,-1,-1,30888.08373166667,unknown,2,2025-04-22T12:38:22.953+03:00,2025-04-21T17:08:51.449+03:00,7335,0.9820014,0,0,6115.4,5,20,2025-04-22T12:38:30.691+03:00,767007510.7936115,0,-21.73,100.4643,1,0.8,2025-04-22T12:37:49.783+03:00,101,1.683333333333333,2025-04-22T09:54:17.825+03:00,0.02225348692287972,0
2025-04-22T12:38:31.617+03:00,1745314709.016206,40.9522176802633,29.1402617935129,76.03027,-1,-1,-1,-1,30,19.23138545864953,-9999,30896.742964125,-0.7285003662109375,0.5148162841796875,-0.4483184814453125,30896.732888125,-0.3903572868132259,-1.01711825196633,-0.5369783225807574,-0.009096603840589523,0.001061219722032547,-0.003636828390881419,0.0002300143241882324,0.004845917224884033,0.001420915126800537,XArbitraryZVertical,-0.3183550299533305,-0.4156233552295008,-0.03661379296225882,0.8512147970658187,-0.7308818697929382,0.5115419030189514,-0.451814591884613,0,0,0,-1,-1,30888.08373166667,unknown,2,2025-04-22T12:38:22.953+03:00,2025-04-21T17:08:51.449+03:00,7335,0.9820014,0,0,6115.4,5,20,2025-04-22T12:38:30.691+03:00,767007510.7936115,0,-21.73,100.4643,1,0.8,2025-04-22T12:37:49.783+03:00,101,1.683333333333333,2025-04-22T09:54:17.825+03:00,0.02225348692287972,0
2025-04-22T12:38:31.627+03:00,1745314709.016206,40.9522176802633,29.1402617935129,76.03027,-1,-1,-1,-1,30,19.23138545864953,-9999,30896.753040125,-0.72991943359375,0.5134124755859375,-0.4478759765625,30896.742964125,-0.390491077225185,-1.017213205424931,-0.53704091440431,-0.01633001491427422,-0.004731421824544668,0.0007055889582261443,0.00349581241607666,0.003663003444671631,0.002662241458892822,XArbitraryZVertical,-0.318409637707436,-0.4156333892882662,-0.03663980171901282,0.851188369900193,-0.7308975458145142,0.5115957260131836,-0.4517283737659454,0,0,0,-1,-1,30888.08373166667,unknown,2,2025-04-22T12:38:22.953+03:00,2025-04-21T17:08:51.449+03:00,7335,0.9820014,0,0,6115.4,5,20,2025-04-22T12:38:30.691+03:00,767007510.7936115,0,-21.73,100.4643,1,0.8,2025-04-22T12:37:49.783+03:00,101,1.683333333333333,2025-04-22T09:54:17.825+03:00,0.02225348692287972,0
2025-04-22T12:38:31.637+03:00,1745314709.016206,40.9522176802633,29.1402617935129,76.03027,-1,-1,-1,-1,30,19.23138545864953,-9999,30896.763117125,-0.7340087890625,0.5137481689453125,-0.4487457275390625,30896.753040125,-0.3906237431055148,-1.017299936417447,-0.537139226925843,-0.01066121086478233,-2.801325172185898e-05,0.004131745547056198,0.0009592771530151367,0.002342581748962402,0.002984404563903809,XArbitraryZVertical,-0.3184781592670412,-0.4156349104902561,-0.03665761125694702,0.8511612671413399,-0.7308939695358276,0.5116801857948303,-0.4516385793685913,0,0,0,-1,-1,30888.08373166667,unknown,2,2025-04-22T12:38:22.953+03:00,2025-04-21T17:08:51.449+03:00,7335,0.9820014,0,0,6115.4,5,20,2025-04-22T12:38:30.691+03:00,767007510.7936115,0,-21.73,100.4643,1,0.8,2025-04-22T12:37:49.783+03:00,101,1.683333333333333,2025-04-22T09:54:17.825+03:00,0.02225348692287972,0
2025-04-22T12:38:31.647+03:00,1745314709.016206,40.9522176802633,29.1402617935129,76.03027,-1,-1,-1,-1,30,19.23138545864953,-9999,30896.773193125,-0.73223876953125,0.515472412109375,-0.44879150390625,30896.763117125,-0.3906984303401065,-1.0173661532731,-0.5372449341972594,-0.0100100003182888,-0.001543018966913223,0.0100851422175765,-0.0009794235229492188,0.001610875129699707,0.00325852632522583,XArbitraryZVertical,-0.3185372293833413,-0.4156358572192712,-0.03665212742584874,0.8511389349906094,-0.7308778762817383,0.511771023273468,-0.4515617489814758,0,0,0,-1,-1,30888.08373166667,unknown,2,2025-04-22T12:38:22.953+03:00,2025-04-21T17:08:51.449+03:00,7335,0.9820014,0,0,6115.4,5,20,2025-04-22T12:38:30.691+03:00,767007510.7936115,0,-21.73,100.4643,1,0.8,2025-04-22T12:37:49.783+03:00,101,1.683333333333333,2025-04-22T09:54:17.825+03:00,0.02225348692287972,0
2025-04-22T12:38:31.657+03:00,1745314709.016206,40.9522176802633,29.1402617935129,76.03027,-1,-1,-1,-1,30,19.23138545864953,-9999,30896.783269125,-0.7285003662109375,0.5114593505859375,-0.448699951171875,30896.773193125,-0.3908006590593429,-1.01759075923584,-0.5374728797473034,-0.02789765596389771,-0.03003671020269394,0.01859420910477638,-0.00283890962600708,0.003948032855987549,0.002148032188415527,XArbitraryZVertical,-0.3186538727675771,-0.4156820682138699,-0.03660221685325066,0.8510748432984916,-0.7308799624443054,0.5119668245315552,-0.4513362646102905,0,0,0,-1,-1,30888.08373166667,unknown,2,2025-04-22T12:38:22.953+03:00,2025-04-21T17:08:51.449+03:00,7335,0.9820014,0,0,6115.4,5,20,2025-04-22T12:38:30.691+03:00,767007510.7936115,0,-21.73,100.4643,1,0.8,2025-04-22T12:37:49.783+03:00,101,1.683333333333333,2025-04-22T09:54:17.825+03:00,0.02225348692287972,0
2025-04-22T12:38:31.667+03:00,1745314709.016206,40.9522176802633,29.1402617935129,76.03027,-1,-1,-1,-1,30,19.23138545864953,-9999,30896.793345375,-0.7244110107421875,0.50982666015625,-0.4500885009765625,30896.783269125,-0.3909971056841914,-1.018113881533865,-0.5378298025042429,-0.03883732110261917,-0.05459125712513924,0.02042143605649471,0.001590251922607422,0.0008033514022827148,0.002661466598510742,XArbitraryZVertical,-0.3188471680140543,-0.4158215141245125,-0.03651216316036492,0.8509382010085436,-0.7309604287147522,0.512273371219635,-0.4508579075336456,0,0,0,-1,-1,30888.08373166667,unknown,2,2025-04-22T12:38:22.953+03:00,2025-04-21T17:08:51.449+03:00,7335,0.9820014,0,0,6115.4,5,20,2025-04-22T12:38:30.691+03:00,767007510.7936115,0,-21.73,100.4643,1,0.8,2025-04-22T12:37:49.783+03:00,101,1.683333333333333,2025-04-22T09:54:17.825+03:00,0.02225348692287972,0
2025-04-22T12:38:31.677+03:00,1745314709.016206,40.9522176802633,29.1402617935129,76.03027,-1,-1,-1,-1,30,19.23138545864953,-9999,30896.803422375,-0.7242889404296875,0.5091094970703125,-0.4516143798828125,30896.793345375,-0.3913200514797922,-1.018810526723267,-0.5381259750765975,-0.03099804185330868,-0.03550784289836884,-0.001788261695764959,0.005131900310516357,-0.002807974815368652,0.0004093647003173828,XArbitraryZVertical,-0.319045591726885,-0.4160233441393633,-0.0364635006429619,0.8507672122157419,-0.7311450839042664,0.5125277042388916,-0.4502689838409424,0,0,0,-1,-1,30888.08373166667,unknown,2,2025-04-22T12:38:22.953+03:00,2025-04-21T17:08:51.449+03:00,7335,0.9820014,0,0,6115.4,5,20,2025-04-22T12:38:30.691+03:00,767007510.7936115,0,-21.73,100.4643,1,0.8,2025-04-22T12:37:49.783+03:00,101,1.683333333333333,2025-04-22T09:54:17.825+03:00,0.02225348692287972,0
2025-04-22T12:38:31.687+03:00,1745314709.016206,40.9522176802633,29.1402617935129,76.03027,-1,-1,-1,-1,30,19.23138545864953,-9999,30896.813498375,-0.811492919921875,0.505126953125,-0.4556884765625,30896.803422375,-0.3899649577965305,-1.015652602231208,-0.5381148115124739,-0.01892453245818615,0.1873372942209244,0.09345493465662003,0.007953166961669922,-0.002310097217559814,0.00378715991973877,XArbitraryZVertical,-0.3187021042848392,-0.4148971481879576,-0.03639314984597363,0.8514486684414188,-0.7297244071960449,0.5125181078910828,-0.4525786638259888,0,0,0,-1,-1,30888.08373166667,unknown,2,2025-04-22T12:38:22.953+03:00,2025-04-21T17:08:51.449+03:00,7335,0.9820014,0,0,6115.4,5,20,2025-04-22T12:38:30.691+03:00,767007510.7936115,0,-21.73,100.4643,1,0.8,2025-04-22T12:37:49.783+03:00,101,1.683333333333333,2025-04-22T09:54:17.825+03:00,0.02225348692287972,0
2025-04-22T12:38:31.697+03:00,1745314709.016206,40.9522176802633,29.1402617935129,76.03027,-1,-1,-1,-1,30,19.23138545864953,-9999,30896.823574375,-0.6844482421875,0.53497314453125,-0.429534912109375,30896.813498375,-0.389565917722689,-1.014444237995495,-0.5386286549976935,0.008764619007706642,-0.002712545916438103,-0.01344302017241716,-0.04292786121368408,-0.01260846853256226,-0.007250279188156128,XArbitraryZVertical,-0.3188033549722982,-0.4143717563642197,-0.03628616639603305,0.8516711173242674,-0.7289532423019409,0.5129593014717102,-0.4533209502696991,0,0,0,-1,-1,30888.08373166667,unknown,2,2025-04-22T12:38:22.953+03:00,2025-04-21T17:08:51.449+03:00,7335,0.9820014,0,0,6115.4,5,20,2025-04-22T12:38:30.691+03:00,767007510.7936115,0,-21.73,100.4643,1,0.8,2025-04-22T12:37:49.783+03:00,101,1.683333333333333,2025-04-22T09:54:17.825+03:00,0.02225348692287972,0
2025-04-22T12:38:31.707+03:00,1745314709.016206,40.9522176802633,29.1402617935129,76.03027,-1,-1,-1,-1,30,19.23138545864953,-9999,30896.833650375,-0.65887451171875,0.4992218017578125,-0.4512939453125,30896.823574375,-0.3896547874944279,-1.014731339296141,-0.5384200015821531,-0.001927173812873662,-0.02928583510220051,-0.02391243912279606,-0.03915154933929443,0.02063649892807007,0.02093243598937988,XArbitraryZVertical,-0.3187433450510737,-0.4145100874212044,-0.03633088363629791,0.8516243806308391,-0.7291742563247681,0.5127801895141602,-0.453168123960495,0,0,0,-1,-1,30888.08373166667,unknown,2,2025-04-22T12:38:22.953+03:00,2025-04-21T17:08:51.449+03:00,7335,0.9820014,0,0,6115.4,5,20,2025-04-22T12:38:30.691+03:00,767007510.7936115,0,-21.73,100.4643,1,0.8,2025-04-22T12:37:49.783+03:00,101,1.683333333333333,2025-04-22T09:54:17.825+03:00,0.02225348692287972,0
2025-04-22T12:38:31.717+03:00,1745314709.016206,40.9522176802633,29.1402617935129,76.03027,-1,-1,-1,-1,30,19.23138545864953,-9999,30896.843727375,-0.7828216552734375,0.5243072509765625,-0.4535980224609375,30896.833650375,-0.3896144065763008,-1.0145795242938,-0.5384652510514049,-0.001277628820389509,0.03738293796777725,0.01933383569121361,0.1092126965522766,-0.006196796894073486,0.009617269039154053,XArbitraryZVertical,-0.3187503628361659,-0.4144453209371797,-0.03632646437183665,0.8516534392313996,-0.7290856838226318,0.5128189921379089,-0.4532665610313416,0,0,0,-1,-1,30888.08373166667,unknown,2,2025-04-22T12:38:22.953+03:00,2025-04-21T17:08:51.449+03:00,7335,0.9820014,0,0,6115.4,5,20,2025-04-22T12:38:30.691+03:00,767007510.7936115,0,-21.73,100.4643,1,0.8,2025-04-22T12:37:49.783+03:00,101,1.683333333333333,2025-04-22T09:54:17.825+03:00,0.02225348692287972,0
2025-04-22T12:38:31.727+03:00,1745314709.016206,40.9522176802633,29.1402617935129,76.03027,-1,-1,-1,-1,30,19.23138545864953,-9999,30896.853803375,-0.723541259765625,0.51312255859375,-0.45233154296875,30896.843727375,-0.3895052096625925,-1.014247486545208,-0.5385780254777588,0.002367239911109209,0.007431234698742628,-0.002678489778190851,-0.02947574853897095,0.003578841686248779,-0.0003335475921630859,XArbitraryZVertical,-0.3187669062600237,-0.4143049824251238,-0.03630444771666728,0.8517164875968097,-0.7288860678672791,0.5129158496856689,-0.453478068113327,0,0,0,-1,-1,30888.08373166667,unknown,2,2025-04-22T12:38:22.953+03:00,2025-04-21T17:08:51.449+03:00,7335,0.9820014,0,0,6115.4,5,20,2025-04-22T12:38:30.691+03:00,767007510.7936115,0,-21.73,100.4643,1,0.8,2025-04-22T12:37:49.783+03:00,101,1.683333333333333,2025-04-22T09:54:17.825+03:00,0.02225348692287972,0
2025-04-22T12:38:31.738+03:00,1745314709.016206,40.9522176802633,29.1402617935129,76.03027,-1,-1,-1,-1,30,19.23138545864953,-9999,30896.863879375,-0.7095184326171875,0.512359619140625,-0.455291748046875,30896.853803375,-0.3894777623726262,-1.014255385971046,-0.5385464755290014,0.005881014745682478,0.0003142030909657478,-0.002531749662011862,-0.02420938014984131,0.006962835788726807,0.001057803630828857,XArbitraryZVertical,-0.3187487157390055,-0.4143172927043913,-0.03629945645467556,0.8517175233314243,-0.7289034128189087,0.5128887295722961,-0.4534808695316315,0,0,0,-1,-1,30888.08373166667,unknown,2,2025-04-22T12:38:22.953+03:00,2025-04-21T17:08:51.449+03:00,7335,0.9820014,0,0,6115.4,5,20,2025-04-22T12:38:30.691+03:00,767007510.7936115,0,-21.73,100.4643,1,0.8,2025-04-22T12:37:49.783+03:00,101,1.683333333333333,2025-04-22T09:54:17.825+03:00,0.02225348692287972,0
2025-04-22T12:38:31.748+03:00,1745314709.016206,40.9522176802633,29.1402617935129,76.03027,-1,-1,-1,-1,30,19.23138545864953,-9999,30896.873955375,-0.7413177490234375,0.5146484375,-0.4536285400390625,30896.863879375,-0.3893826663029125,-1.014130865264814,-0.5385558976083942,0.007412998005747795,0.01653032377362251,0.006127584725618362,0.02649605274200439,-0.002383649349212646,1.692771911621094e-05,XArbitraryZVertical,-0.3187305141220259,-0.4142780477276622,-0.03627644219173574,0.8517444676154078,-0.7288429141044617,0.5128968358039856,-0.4535691142082214,0,0,0,-1,-1,30888.08373166667,unknown,2,2025-04-22T12:38:22.953+03:00,2025-04-21T17:08:51.449+03:00,7335,0.9820014,0,0,6115.4,5,20,2025-04-22T12:38:30.691+03:00,767007510.7936115,0,-21.73,100.4643,1,0.8,2025-04-22T12:37:49.783+03:00,101,1.683333333333333,2025-04-22T09:54:17.825+03:00,0.02225348692287972,0
2025-04-22T12:38:31.758+03:00,1745314709.016206,40.9522176802633,29.1402617935129,76.03027,-1,-1,-1,-1,30,19.23138545864953,-9999,30896.884032375,-0.7286224365234375,0.5103759765625,-0.4470672607421875,30896.873955375,-0.389280042050907,-1.013929777226771,-0.5385993642162319,0.004067002795636654,0.01196886226534843,0.002792242215946317,-0.004772543907165527,0.001531064510345459,-0.001893043518066406,XArbitraryZVertical,-0.3187230556286678,-0.414202470500725,-0.03625381108723297,0.8517849225366406,-0.728732705116272,0.512934148311615,-0.4537038505077362,0,0,0,-1,-1,30888.08373166667,unknown,2,2025-04-22T12:38:22.953+03:00,2025-04-21T17:08:51.449+03:00,7335,0.9820014,0,0,6115.4,5,20,2025-04-22T12:38:30.691+03:00,767007510.7936115,0,-21.73,100.4643,1,0.8,2025-04-22T12:37:49.783+03:00,101,1.683333333333333,2025-04-22T09:54:17.825+03:00,0.02225348692287972,0
2025-04-22T12:38:31.768+03:00,1745314709.016206,40.9522176802633,29.1402617935129,76.03027,-1,-1,-1,-1,30,19.23138545864953,-9999,30896.894108375,-0.720794677734375,0.5084686279296875,-0.4459381103515625,30896.884032375,-0.389221513834919,-1.013801904740508,-0.5386285415668044,-7.561099482700229e-05,0.009917628020048141,0.004645369481295347,-0.007544100284576416,-0.0009811520576477051,0.004234731197357178,XArbitraryZVertical,-0.3187203115204333,-0.414153109159922,-0.03624190969778221,0.8518104686757161,-0.7286619544029236,0.5129591822624207,-0.4537891447544098,0,0,0,-1,-1,30888.08373166667,unknown,2,2025-04-22T12:38:22.953+03:00,2025-04-21T17:08:51.449+03:00,7335,0.9820014,0,0,6115.4,5,20,2025-04-22T12:38:30.691+03:00,767007510.7936115,0,-21.73,100.4643,1,0.8,2025-04-22T12:37:49.783+03:00,101,1.683333333333333,2025-04-22T09:54:17.825+03:00,0.02225348692287972,0
2025-04-22T12:38:31.778+03:00,1745314709.016206,40.9522176802633,29.1402617935129,76.03027,-1,-1,-1,-1,30,19.23138545864953,-9999,30896.904184375,-0.72479248046875,0.5098876953125,-0.449371337890625,30896.894108375,-0.3892054497284085,-1.013734367525734,-0.5386371069156889,-0.001842618337832391,0.009313889779150486,0.003715393366292119,0.007176756858825684,-0.004803180694580078,0.007958948612213135,XArbitraryZVertical,-0.3187192098633751,-0.4141256681237009,-0.0362436611057789,0.8518241028850709,-0.7286275625228882,0.5129665732383728,-0.4538359940052032,0,0,0,-1,-1,30888.08373166667,unknown,2,2025-04-22T12:38:22.953+03:00,2025-04-21T17:08:51.449+03:00,7335,0.9820014,0,0,6115.4,5,20,2025-04-22T12:38:30.691+03:00,767007510.7936115,0,-21.73,100.4643,1,0.8,2025-04-22T12:37:49.783+03:00,101,1.683333333333333,2025-04-22T09:54:17.825+03:00,0.02225348692287972,0
2025-04-22T12:38:31.788+03:00,1745314709.016206,40.9522176802633,29.1402617935129,76.03027,-1,-1,-1,-1,30,19.23138545864953,-9999,30896.914260375,-0.723663330078125,0.5102081298828125,-0.44415283203125,30896.904184375,-0.389232091679243,-1.013738562377849,-0.5387223689315213,-0.001772244344465435,0.007971988990902901,0.006308946292847395,0.004852712154388428,-0.002877533435821533,0.005537122488021851,XArbitraryZVertical,-0.3187589985557008,-0.4141108618979853,-0.03623284075719611,0.8518168355405257,-0.7285922765731812,0.5130397081375122,-0.4538097977638245,0,0,0,-1,-1,30888.08373166667,unknown,2,2025-04-22T12:38:22.953+03:00,2025-04-21T17:08:51.449+03:00,7335,0.9820014,0,0,6115.4,5,20,2025-04-22T12:38:30.691+03:00,767007510.7936115,0,-21.73,100.4643,1,0.8,2025-04-22T12:37:49.783+03:00,101,1.683333333333333,2025-04-22T09:54:17.825+03:00,0.02225348692287972,0
2025-04-22T12:38:31.798+03:00,1745314709.016206,40.9522176802633,29.1402617935129,76.03027,-1,-1,-1,-1,30,19.23138545864953,-9999,30896.924337375,-0.7288818359375,0.5142669677734375,-0.44073486328125,30896.914260375,-0.3891647321220387,-1.013535325585502,-0.5388649046240053,-0.002968003507703543,0.01517823711037636,0.008197926916182041,0.004759371280670166,-0.003350794315338135,0.007004499435424805,XArbitraryZVertical,-0.3187985257270511,-0.4140143904199828,-0.03620061804126336,0.851850289882387,-0.7284379601478577,0.5131620764732361,-0.4539191722869873,0,0,0,-1,-1,30888.08373166667,unknown,2,2025-04-22T12:38:22.953+03:00,2025-04-21T17:08:51.449+03:00,7335,0.9820014,0,0,6115.4,5,20,2025-04-22T12:38:30.691+03:00,767007510.7936115,0,-21.73,100.4643,1,0.8,2025-04-22T12:37:49.783+03:00,101,1.683333333333333,2025-04-22T09:54:17.825+03:00,0.02225348692287972,0
2025-04-22T12:38:31.808+03:00,1745314709.016206,40.9522176802633,29.1402617935129,76.03027,-1,-1,-1,-1,30,19.23138545864953,-9999,30896.934413375,-0.72705078125,0.513275146484375,-0.443267822265625,30896.924337375,-0.3891185730777159,-1.013355936314774,-0.5389483073336734,0.001868430059403181,0.02074943669140339,0.01202135998755693,0.001559436321258545,-0.0008130669593811035,0.01355177164077759,XArbitraryZVertical,-0.3188191193399474,-0.4139332455027868,-0.03618856996621077,0.8518826711434773,-0.7283203601837158,0.5132336616516113,-0.4540272653102875,0,0,0,-1,-1,30888.08373166667,unknown,2,2025-04-22T12:38:22.953+03:00,2025-04-21T17:08:51.449+03:00,7335,0.9820014,0,0,6115.4,5,20,2025-04-22T12:38:30.691+03:00,767007510.7936115,0,-21.73,100.4643,1,0.8,2025-04-22T12:37:49.783+03:00,101,1.683333333333333,2025-04-22T09:54:17.825+03:00,0.02225348692287972,0
2025-04-22T12:38:31.818+03:00,1745314709.016206,40.9522176802633,29.1402617935129,76.03027,-1,-1,-1,-1,30,19.23138545864953,-9999,30896.944489375,-0.723419189453125,0.5071563720703125,-0.438446044921875,30896.934413375,-0.3890398038572684,-1.013144816469914,-0.5390473809312328,-0.0006290824967436492,0.0186010655015707,0.01247542910277843,-0.000456392765045166,0.002351999282836914,0.01109993457794189,XArbitraryZVertical,-0.3188387365552178,-0.41384152888234,-0.03616370457468143,0.8519209119606538,-0.7281813025474548,0.5133187174797058,-0.4541541039943695,0,0,0,-1,-1,30888.08373166667,unknown,2,2025-04-22T12:38:22.953+03:00,2025-04-21T17:08:51.449+03:00,7335,0.9820014,0,0,6115.4,5,20,2025-04-22T12:38:30.691+03:00,767007510.7936115,0,-21.73,100.4643,1,0.8,2025-04-22T12:37:49.783+03:00,101,1.683333333333333,2025-04-22T09:54:17.825+03:00,0.02225348692287972,0
2025-04-22T12:38:31.828+03:00,1745314709.016206,40.9522176802633,29.1402617935129,76.03027,-1,-1,-1,-1,30,19.23138545864953,-9999,30896.954565375,-0.725555419921875,0.5072784423828125,-0.4387969970703125,30896.944489375,-0.3889758167608198,-1.012889270512385,-0.5391745032845868,-0.001560989068821073,0.01944894902408123,0.01221187692135572,0.003675103187561035,-0.004242062568664551,0.01320457458496094,XArbitraryZVertical,-0.3188718505551937,-0.4137244621440034,-0.03614517001371636,0.8519661769401699,-0.7280098795890808,0.5134277939796448,-0.4543056190013885,0,0,0,-1,-1,30888.08373166667,unknown,2,2025-04-22T12:38:22.953+03:00,2025-04-21T17:08:51.449+03:00,7335,0.9820014,0,0,6115.4,5,20,2025-04-22T12:38:30.691+03:00,767007510.7936115,0,-21.73,100.4643,1,0.8,2025-04-22T12:37:49.783+03:00,101,1.683333333333333,2025-04-22T09:54:17.825+03:00,0.02225348692287972,0
2025-04-22T12:38:31.838+03:00,1745314709.016206,40.9522176802633,29.1402617935129,76.03027,-1,-1,-1,-1,30,19.23138545864953,-9999,30896.964642375,-0.721649169921875,0.508270263671875,-0.4447479248046875,30896.954565375,-0.3889027841379948,-1.012670845983456,-0.5393008967776272,0.001888603437691927,0.01774266175925732,0.01645269244909286,0.002681553363800049,-0.006395280361175537,0.01754060387611389,XArbitraryZVertical,-0.3189035223396084,-0.4136247658162613,-0.03611702619927644,0.852003810084607,-0.7278554439544678,0.5135362148284912,-0.4544301927089691,0,0,0,-1,-1,30888.08373166667,unknown,2,2025-04-22T12:38:22.953+03:00,2025-04-21T17:08:51.449+03:00,7335,0.9820014,0,0,6115.4,5,20,2025-04-22T12:38:30.691+03:00,767007510.7936115,0,-21.73,100.4643,1,0.8,2025-04-22T12:37:49.783+03:00,101,1.683333333333333,2025-04-22T09:54:17.825+03:00,0.02225348692287972,0
2025-04-22T12:38:31.848+03:00,1745314709.016206,40.9522176802633,29.1402617935129,76.03027,-1,-1,-1,-1,30,19.23138545864953,-9999,30896.974718375,-0.7180938720703125,0.515380859375,-0.449951171875,30896.964642375,-0.3888293718577994,-1.012524591586514,-0.5394187105714467,0.0008023665868677199,0.008070659823715687,0.01117780338972807,0.004211723804473877,-0.0065268874168396,0.01134362816810608,XArbitraryZVertical,-0.3189329531160662,-0.4135571063532238,-0.03607940415941228,0.8520272215298147,-0.7277376651763916,0.5136373043060303,-0.4545045793056488,0,0,0,-1,-1,30888.08373166667,unknown,2,2025-04-22T12:38:22.953+03:00,2025-04-21T17:08:51.449+03:00,7335,0.9820014,0,0,6115.4,5,20,2025-04-22T12:38:30.691+03:00,767007510.7936115,0,-21.73,100.4643,1,0.8,2025-04-22T12:37:49.783+03:00,101,1.683333333333333,2025-04-22T09:54:17.825+03:00,0.02225348692287972,0
2025-04-22T12:38:31.858+03:00,1745314709.016206,40.9522176802633,29.1402617935129,76.03027,-1,-1,-1,-1,30,19.23138545864953,-9999,30896.984794375,-0.7230072021484375,0.5154266357421875,-0.4559326171875,30896.974718375,-0.3888124632058212,-1.012481353411723,-0.5395084006399082,-0.006632912904024124,-0.002828060183674097,0.00599582539871335,0.009279906749725342,-0.001522600650787354,0.006849348545074463,XArbitraryZVertical,-0.3189646342864956,-0.413528390473865,-0.03605652244811067,0.8520303091117735,-0.7276789546012878,0.5137142539024353,-0.4545116722583771,0,0,0,-1,-1,30888.08373166667,unknown,2,2025-04-22T12:38:22.953+03:00,2025-04-21T17:08:51.449+03:00,7335,0.9820014,0,0,6115.4,5,20,2025-04-22T12:38:30.691+03:00,767007510.7936115,0,-21.73,100.4643,1,0.8,2025-04-22T12:37:49.783+03:00,101,1.683333333333333,2025-04-22T09:54:17.825+03:00,0.02225348692287972,0
2025-04-22T12:38:31.869+03:00,1745314709.016206,40.9522176802633,29.1402617935129,76.03027,-1,-1,-1,-1,30,19.23138545864953,-9999,30896.994870375,-0.723480224609375,0.51348876953125,-0.45367431640625,30896.984794375,-0.3888644313512661,-1.012584787137457,-0.5395796367726595,-0.008667168207466602,-0.01038171723484993,0.003714628051966429,0.006244182586669922,0.002154648303985596,0.0001934468746185303,XArbitraryZVertical,-0.3190058140305423,-0.4135538491054958,-0.03604422613805506,0.8520030514425867,-0.7276949286460876,0.5137754082679749,-0.4544170200824738,0,0,0,-1,-1,30888.08373166667,unknown,2,2025-04-22T12:38:22.953+03:00,2025-04-21T17:08:51.449+03:00,7335,0.9820014,0,0,6115.4,5,20,2025-04-22T12:38:30.691+03:00,767007510.7936115,0,-21.73,100.4643,1,0.8,2025-04-22T12:37:49.783+03:00,101,1.683333333333333,2025-04-22T09:54:17.825+03:00,0.02225348692287972,0
2025-04-22T12:38:31.887+03:00,1745314709.016206,40.9522176802633,29.1402617935129,76.03027,-1,-1,-1,-1,30,19.23138545864953,-9999,30897.004947375,-0.7232208251953125,0.51776123046875,-0.4510955810546875,30896.994870375,-0.3889267485838743,-1.012768999553078,-0.5396082638439874,-0.001242807833477855,-0.01510323584079742,-0.002801594557240605,0.004301190376281738,-0.0007995963096618652,-0.0002383589744567871,XArbitraryZVertical,-0.3190335134881321,-0.4136182392366582,-0.03603417006923482,0.8519618060187842,-0.7277660965919495,0.5137999653816223,-0.4542751312255859,0,0,0,-1,-1,30888.08373166667,unknown,2,2025-04-22T12:38:22.953+03:00,2025-04-21T17:08:51.449+03:00,7335,0.9820014,0,0,6115.4,5,20,2025-04-22T12:38:30.691+03:00,767007510.7936115,0,-21.73,100.4643,1,0.8,2025-04-22T12:37:49.783+03:00,101,1.683333333333333,2025-04-22T09:54:17.825+03:00,0.02225348692287972,0
2025-04-22T12:38:31.890+03:00,1745314709.016206,40.9522176802633,29.1402617935129,76.03027,-1,-1,-1,-1,30,19.23138545864953,-9999,30897.015023375,-0.7229461669921875,0.5146026611328125,-0.4501800537109375,30897.004947375,-0.3889839918731138,-1.013008664242425,-0.5396065362217944,0.0009294659830629826,-0.01681598275899887,-0.002287105191498995,0.004395544528961182,0.001994192600250244,0.002715736627578735,XArbitraryZVertical,-0.3190489865891373,-0.4137114502484101,-0.03602075115681778,0.8519112923340494,-0.7278757095336914,0.5137984752655029,-0.454101175069809,0,0,0,-1,-1,30888.08373166667,unknown,2,2025-04-22T12:38:22.953+03:00,2025-04-21T17:08:51.449+03:00,7335,0.9820014,0,0,6115.4,5,20,2025-04-22T12:38:30.691+03:00,767007510.7936115,0,-21.73,100.4643,1,0.8,2025-04-22T12:37:49.783+03:00,101,1.683333333333333,2025-04-22T09:54:17.825+03:00,0.02225348692287972,0
2025-04-22T12:38:31.899+03:00,1745314709.016206,40.9522176802633,29.1402617935129,76.03027,-1,-1,-1,-1,30,19.23138545864953,-9999,30897.025099375,-0.7215728759765625,0.5084991455078125,-0.447052001953125,30897.015023375,-0.3890598274450557,-1.0132905975314,-0.5395998254519947,-0.005497806705534458,-0.01985038816928864,-0.004673563875257969,0.00437396764755249,0.002579867839813232,0.002390265464782715,XArbitraryZVertical,-0.3190670112943803,-0.4138203962816661,-0.0360098036847504,0.8518522450316331,-0.7280067205429077,0.5137926936149597,-0.4538978338241577,0,0,0,-1,-1,30888.08373166667,unknown,2,2025-04-22T12:38:22.953+03:00,2025-04-21T17:08:51.449+03:00,7335,0.9820014,0,0,6115.4,5,20,2025-04-22T12:38:30.691+03:00,767007510.7936115,0,-21.73,100.4643,1,0.8,2025-04-22T12:37:49.783+03:00,101,1.683333333333333,2025-04-22T09:54:17.825+03:00,0.02225348692287972,0
2025-04-22T12:38:31.909+03:00,1745314709.016206,40.9522176802633,29.1402617935129,76.03027,-1,-1,-1,-1,30,19.23138545864953,-9999,30897.035175375,-0.7223052978515625,0.5066070556640625,-0.4474945068359375,30897.025099375,-0.3891882399075229,-1.013622138126189,-0.5395980252740902,-0.01097346562892199,-0.0250868946313858,-0.003871253225952387,0.006447732448577881,-0.002835512161254883,0.005658894777297974,XArbitraryZVertical,-0.31909886857261,-0.4139413866994288,-0.03601202877900746,0.8517813203243819,-0.7281578779220581,0.5137911438941956,-0.4536568820476532,0,0,0,-1,-1,30888.08373166667,unknown,2,2025-04-22T12:38:22.953+03:00,2025-04-21T17:08:51.449+03:00,7335,0.9820014,0,0,6115.4,5,20,2025-04-22T12:38:30.691+03:00,767007510.7936115,0,-21.73,100.4643,1,0.8,2025-04-22T12:37:49.783+03:00,101,1.683333333333333,2025-04-22T09:54:17.825+03:00,0.02225348692287972,0
2025-04-22T12:38:31.919+03:00,1745314709.016206,40.9522176802633,29.1402617935129,76.03027,-1,-1,-1,-1,30,19.23138545864953,-9999,30897.045252375,-0.7230072021484375,0.5094146728515625,-0.4519195556640625,30897.035175375,-0.3893375122014459,-1.014015133828346,-0.5396334226288466,-0.01228081155568361,-0.02529994770884514,-0.001031790859997272,0.006305336952209473,-0.007000923156738281,0.006614327430725098,XArbitraryZVertical,-0.3191510091489395,-0.4140797947063842,-0.03600398648884405,0.8516949212216263,-0.7283207178115845,0.513821542263031,-0.4533611238002777,0,0,0,-1,-1,30888.08373166667,unknown,2,2025-04-22T12:38:22.953+03:00,2025-04-21T17:08:51.449+03:00,7335,0.9820014,0,0,6115.4,5,20,2025-04-22T12:38:30.691+03:00,767007510.7936115,0,-21.73,100.4643,1,0.8,2025-04-22T12:37:49.783+03:00,101,1.683333333333333,2025-04-22T09:54:17.825+03:00,0.02225348692287972,0
2025-04-22T12:38:31.929+03:00,1745314709.016206,40.9522176802633,29.1402617935129,76.03027,-1,-1,-1,-1,30,19.23138545864953,-9999,30897.055328375,-0.7253265380859375,0.512298583984375,-0.452972412109375,30897.045252375,-0.3894721948066272,-1.014327963339708,-0.5396895615532775,-0.01070069149136543,-0.02027289755642414,0.00224233279004693,0.005797028541564941,-0.005981028079986572,0.003960311412811279,XArbitraryZVertical,-0.3192070320699616,-0.4141833735060097,-0.03599725555844969,0.8516238303008218,-0.7284380197525024,0.5138697028160095,-0.4531179964542389,0,0,0,-1,-1,30888.08373166667,unknown,2,2025-04-22T12:38:22.953+03:00,2025-04-21T17:08:51.449+03:00,7335,0.9820014,0,0,6115.4,5,20,2025-04-22T12:38:30.691+03:00,767007510.7936115,0,-21.73,100.4643,1,0.8,2025-04-22T12:37:49.783+03:00,101,1.683333333333333,2025-04-22T09:54:17.825+03:00,0.02225348692287972,0
2025-04-22T12:38:31.939+03:00,1745314709.016206,40.9522176802633,29.1402617935129,76.03027,-1,-1,-1,-1,30,19.23138545864953,-9999,30897.065404375,-0.7270660400390625,0.5157012939453125,-0.447479248046875,30897.055328375,-0.389544344247892,-1.014538971729838,-0.5397851745223221,-0.009624508209526539,-0.01556895673274994,0.003282297169789672,0.004172384738922119,-0.00238567590713501,-0.0005223751068115234,XArbitraryZVertical,-0.3192641106600276,-0.4142478431756904,-0.03597016442782346,0.8515721467335351,-0.7284918427467346,0.5139517188072205,-0.4529383182525635,0,0,0,-1,-1,30888.08373166667,unknown,2,2025-04-22T12:38:22.953+03:00,2025-04-21T17:08:51.449+03:00,7335,0.9820014,0,0,6115.4,5,20,2025-04-22T12:38:30.691+03:00,767007510.7936115,0,-21.73,100.4643,1,0.8,2025-04-22T12:37:49.783+03:00,101,1.683333333333333,2025-04-22T09:54:17.825+03:00,0.02225348692287972,0
2025-04-22T12:38:31.949+03:00,1745314709.016206,40.9522176802633,29.1402617935129,76.03027,-1,-1,-1,-1,30,19.23138545864953,-9999,30897.075481375,-0.7282867431640625,0.516448974609375,-0.4458160400390625,30897.065404375,-0.389586219032391,-1.014653884856379,-0.5398561243764531,-0.00597737543284893,-0.007732138503342867,0.001671583973802626,0.002255618572235107,-0.000142514705657959,0.003418236970901489,XArbitraryZVertical,-0.3193032825010571,-0.4142797935665041,-0.03595175084683865,0.8515426877852305,-0.7285128831863403,0.5140125751495361,-0.4528353214263916,0,0,0,-1,-1,30888.08373166667,unknown,2,2025-04-22T12:38:22.953+03:00,2025-04-21T17:08:51.449+03:00,7335,0.9820014,0,0,6115.4,5,20,2025-04-22T12:38:30.691+03:00,767007510.7936115,0,-21.73,100.4643,1,0.8,2025-04-22T12:37:49.783+03:00,101,1.683333333333333,2025-04-22T09:54:17.825+03:00,0.02225348692287972,0
2025-04-22T12:38:31.959+03:00,1745314709.016206,40.9522176802633,29.1402617935129,76.03027,-1,-1,-1,-1,30,19.23138545864953,-9999,30897.085557375,-0.7301788330078125,0.516510009765625,-0.4469451904296875,30897.075481375,-0.3896139458943009,-1.014697209481379,-0.5398849776418905,-0.001154124736785889,-0.002883587498217821,3.507148358039558e-05,0.0008893609046936035,0.002579391002655029,0.007071554660797119,XArbitraryZVertical,-0.3193213274574475,-0.4142896153606144,-0.03594938856005568,0.8515313612549759,-0.7285200357437134,0.5140373110771179,-0.4527960121631622,0,0,0,-1,-1,30888.08373166667,unknown,2,2025-04-22T12:38:22.953+03:00,2025-04-21T17:08:51.449+03:00,7335,0.9820014,0,0,6115.4,5,20,2025-04-22T12:38:30.691+03:00,767007510.7936115,0,-21.73,100.4643,1,0.8,2025-04-22T12:37:49.783+03:00,101,1.683333333333333,2025-04-22T09:54:17.825+03:00,0.02225348692287972,0
2025-04-22T12:38:31.969+03:00,1745314709.016206,40.9522176802633,29.1402617935129,76.03027,-1,-1,-1,-1,30,19.23138545864953,-9999,30897.095633375,-0.731658935546875,0.5164642333984375,-0.4481353759765625,30897.085557375,-0.3896172800334858,-1.014708222528236,-0.5398981371848895,0.0002615451230667531,0.0007757954299449921,0.001844256650656462,-0.001354455947875977,0.001667797565460205,0.00556454062461853,XArbitraryZVertical,-0.3193275208523985,-0.4142918721993186,-0.03594570669106701,0.8515279972714955,-0.7285191416740417,0.5140486359596252,-0.4527843594551086,0,0,0,-1,-1,30888.08373166667,unknown,2,2025-04-22T12:38:22.953+03:00,2025-04-21T17:08:51.449+03:00,7335,0.9820014,0,0,6115.4,5,20,2025-04-22T12:38:30.691+03:00,767007510.7936115,0,-21.73,100.4643,1,0.8,2025-04-22T12:37:49.783+03:00,101,1.683333333333333,2025-04-22T09:54:17.825+03:00,0.02225348692287972,0
2025-04-22T12:38:31.979+03:00,1745314709.016206,40.9522176802633,29.1402617935129,76.03027,-1,-1,-1,-1,30,19.23138545864953,-9999,30897.105709375,-0.731689453125,0.5182952880859375,-0.4513092041015625,30897.095633375,-0.3895666096479173,-1.014652528301827,-0.5399072839709519,0.006229156162589788,0.001330265775322914,-0.0007288895430974662,-0.002695918083190918,0.001980364322662354,0.006014615297317505,XArbitraryZVertical,-0.3193196942461135,-0.4142749240020126,-0.0359307140361989,0.8515397946839521,-0.7284899353981018,0.5140564441680908,-0.4528224468231201,0,0,0,-1,-1,30888.08373166667,unknown,2,2025-04-22T12:38:22.953+03:00,2025-04-21T17:08:51.449+03:00,7335,0.9820014,0,0,6115.4,5,20,2025-04-22T12:38:30.691+03:00,767007510.7936115,0,-21.73,100.4643,1,0.8,2025-04-22T12:37:49.783+03:00,101,1.683333333333333,2025-04-22T09:54:17.825+03:00,0.02225348692287972,0
2025-04-22T12:38:31.989+03:00,1745314709.016206,40.9522176802633,29.1402617935129,76.03027,-1,-1,-1,-1,30,19.23138545864953,-9999,30897.115786375,-0.7300262451171875,0.5174102783203125,-0.4529571533203125,30897.105709375,-0.3894967275759709,-1.014583490749334,-0.5398739484033708,0.009848657995462418,0.003805940039455891,0.0003676670312415808,-0.004406392574310303,0.003168642520904541,0.001679450273513794,XArbitraryZVertical,-0.3192906224497137,-0.4142615227713862,-0.03592039021790306,0.8515576482459664,-0.7284732460975647,0.5140278935432434,-0.452881783246994,0,0,0,-1,-1,30888.08373166667,unknown,2,2025-04-22T12:38:22.953+03:00,2025-04-21T17:08:51.449+03:00,7335,0.9820014,0,0,6115.4,5,20,2025-04-22T12:38:30.691+03:00,767007510.7936115,0,-21.73,100.4643,1,0.8,2025-04-22T12:37:49.783+03:00,101,1.683333333333333,2025-04-22T09:54:17.825+03:00,0.02225348692287972,0
2025-04-22T12:38:32.000+03:00,1745314709.016206,40.9522176802633,29.1402617935129,76.03027,-1,-1,-1,-1,30,19.23138545864953,-9999,30897.125862375,-0.729705810546875,0.51068115234375,-0.4541473388671875,30897.115786375,-0.3894400258933579,-1.014513905455999,-0.5398333289234173,0.001820825971662998,0.003825381398200989,-0.002459278330206871,-0.001963496208190918,0.004057943820953369,0.0003525912761688232,XArbitraryZVertical,-0.3192613643528237,-0.4142468421487722,-0.03591759201203287,0.8515758374375908,-0.7284594178199768,0.5139930248260498,-0.4529434740543365,0,0,0,-1,-1,30888.08373166667,unknown,2,2025-04-22T12:38:22.953+03:00,2025-04-21T17:08:51.449+03:00,7335,0.9820014,0,0,6115.4,5,20,2025-04-22T12:38:30.691+03:00,767007510.7936115,0,-21.73,100.4643,1,0.8,2025-04-22T12:37:49.783+03:00,101,1.683333333333333,2025-04-22T09:54:17.825+03:00,0.02225348692287972,0
2025-04-22T12:38:32.010+03:00,1745314709.016206,40.9522176802633,29.1402617935129,76.03027,-1,-1,-1,-1,30,19.23138545864953,-9999,30897.135938375,-0.7302398681640625,0.5118865966796875,-0.4537506103515625,30897.125862375,-0.3894126731916333,-1.014449347401918,-0.5397707813153227,0.007524318527430296,0.006755191367119551,-0.002198521746322513,-0.00129401683807373,-0.0004201531410217285,-0.0005446672439575195,XArbitraryZVertical,-0.3192294375768058,-0.414232780609341,-0.03593205281469695,0.851594150778226,-0.7284575700759888,0.513939380645752,-0.4530075490474701,0,0,0,-1,-1,30888.08373166667,unknown,2,2025-04-22T12:38:22.953+03:00,2025-04-21T17:08:51.449+03:00,7335,0.9820014,0,0,6115.4,5,20,2025-04-22T12:38:30.691+03:00,767007510.7936115,0,-21.73,100.4643,1,0.8,2025-04-22T12:37:49.783+03:00,101,1.683333333333333,2025-04-22T09:54:17.825+03:00,0.02225348692287972,0
2025-04-22T12:38:32.020+03:00,1745314709.016206,40.9522176802633,29.1402617935129,76.03027,-1,-1,-1,-1,30,19.23138545864953,-9999,30897.146014375,-0.72991943359375,0.5123138427734375,-0.45220947265625,30897.135938375,-0.3893166965415919,-1.014321223620348,-0.5396993273732086,0.009754449129104614,0.006652393378317356,-0.0006205987883731723,-0.001229345798492432,-0.003319084644317627,-0.0004472136497497559,XArbitraryZVertical,-0.3191786185806557,-0.4142039035626389,-0.03592965738493344,0.8516273583695695,-0.7284306883811951,0.5138781070709229,-0.4531202614307404,0,0,0,-1,-1,30888.08373166667,unknown,2,2025-04-22T12:38:22.953+03:00,2025-04-21T17:08:51.449+03:00,7335,0.9820014,0,0,6115.4,5,20,2025-04-22T12:38:30.691+03:00,767007510.7936115,0,-21.73,100.4643,1,0.8,2025-04-22T12:37:49.783+03:00,101,1.683333333333333,2025-04-22T09:54:17.825+03:00,0.02225348692287972,0
2025-04-22T12:38:32.030+03:00,1745314709.016206,40.9522176802633,29.1402617935129,76.03027,-1,-1,-1,-1,30,19.23138545864953,-9999,30897.156091375,-0.7332305908203125,0.51531982421875,-0.4493865966796875,30897.146014375,-0.3892077936854753,-1.01415877186559,-0.5396332620390391,0.01219576876610518,0.01543762907385826,2.601672895252705e-05,-0.001854002475738525,-0.00153815746307373,-0.0006771683692932129,XArbitraryZVertical,-0.3191266740529883,-0.4141616857682829,-0.0359258630431024,0.8516675022023136,-0.7283859252929688,0.5138214230537415,-0.4532565176486969,0,0,0,-1,-1,30888.08373166667,unknown,2,2025-04-22T12:38:22.953+03:00,2025-04-21T17:08:51.449+03:00,7335,0.9820014,0,0,6115.4,5,20,2025-04-22T12:38:30.691+03:00,767007510.7936115,0,-21.73,100.4643,1,0.8,2025-04-22T12:37:49.783+03:00,101,1.683333333333333,2025-04-22T09:54:17.825+03:00,0.02225348692287972,0
2025-04-22T12:38:32.040+03:00,1745314709.016206,40.9522176802633,29.1402617935129,76.03027,-1,-1,-1,-1,30,19.23138545864953,-9999,30897.166167375,-0.734375,0.512115478515625,-0.4518890380859375,30897.156091375,-0.3890883647939897,-1.01392250314183,-0.5396000219734464,0.0137145696207881,0.02188380993902683,0.0006848828634247184,-0.003914952278137207,-0.0001058578491210938,0.003929018974304199,XArbitraryZVertical,-0.3190843651244193,-0.4140849409078528,-0.03592109143882606,0.8517209104711436,-0.7282932996749878,0.513792872428894,-0.4534376561641693,0,0,0,-1,-1,30888.08373166667,unknown,2,2025-04-22T12:38:22.953+03:00,2025-04-21T17:08:51.449+03:00,7335,0.9820014,0,0,6115.4,5,20,2025-04-22T12:38:30.691+03:00,767007510.7936115,0,-21.73,100.4643,1,0.8,2025-04-22T12:37:49.783+03:00,101,1.683333333333333,2025-04-22T09:54:17.825+03:00,0.02225348692287972,0
2025-04-22T12:38:32.050+03:00,1745314709.016206,40.9522176802633,29.1402617935129,76.03027,-1,-1,-1,-1,30,19.23138545864953,-9999,30897.176243375,-0.7285614013671875,0.5136260986328125,-0.4532318115234375,30897.166167375,-0.3889730733387452,-1.013661457886747,-0.5395619639487557,0.01432323455810547,0.01929828152060509,0.001304933219216764,-0.00627511739730835,0.0003693103790283203,0.003030776977539062,XArbitraryZVertical,-0.3190405905095776,-0.4139976872616281,-0.03592320183308531,0.8517795166814344,-0.7281914353370667,0.5137602090835571,-0.4536380469799042,0,0,0,-1,-1,30888.08373166667,unknown,2,2025-04-22T12:38:22.953+03:00,2025-04-21T17:08:51.449+03:00,7335,0.9820014,0,0,6115.4,5,20,2025-04-22T12:38:30.691+03:00,767007510.7936115,0,-21.73,100.4643,1,0.8,2025-04-22T12:37:49.783+03:00,101,1.683333333333333,2025-04-22T09:54:17.825+03:00,0.02225348692287972,0
2025-04-22T12:38:32.060+03:00,1745314709.016206,40.9522176802633,29.1402617935129,76.03027,-1,-1,-1,-1,30,19.23138545864953,-9999,30897.186319375,-0.728973388671875,0.5100860595703125,-0.4503021240234375,30897.176243375,-0.3888421804708939,-1.013424168768347,-0.5395050037100939,0.01711422763764858,0.02143972739577293,0.0009635159512981772,-0.001917600631713867,-0.0007720589637756348,-1.582503318786621e-05,XArbitraryZVertical,-0.3189863931284291,-0.4139257531069656,-0.03591966292553524,0.851834944735426,-0.7281085848808289,0.5137113928794861,-0.4538263082504272,0,0,0,-1,-1,30888.08373166667,unknown,2,2025-04-22T12:38:22.953+03:00,2025-04-21T17:08:51.449+03:00,7335,0.9820014,0,0,6115.4,5,20,2025-04-22T12:38:30.691+03:00,767007510.7936115,0,-21.73,100.4643,1,0.8,2025-04-22T12:37:49.783+03:00,101,1.683333333333333,2025-04-22T09:54:17.825+03:00,0.02225348692287972,0
2025-04-22T12:38:32.070+03:00,1745314709.016206,40.9522176802633,29.1402617935129,76.03027,-1,-1,-1,-1,30,19.23138545864953,-9999,30897.196396375,-0.7293853759765625,0.510650634765625,-0.451690673828125,30897.186319375,-0.3886429033753656,-1.013081378866856,-0.5394425575810894,0.0225132554769516,0.02795435301959515,0.006770804990082979,-0.0002912282943725586,-0.002274811267852783,0.002890467643737793,XArbitraryZVertical,-0.318913959035057,-0.4138205688078263,-0.03590518450760033,0.8519137857594065,-0.7279801964759827,0.513657808303833,-0.4540928602218628,0,0,0,-1,-1,30888.08373166667,unknown,2,2025-04-22T12:38:22.953+03:00,2025-04-21T17:08:51.449+03:00,7335,0.9820014,0,0,6115.4,5,20,2025-04-22T12:38:30.691+03:00,767007510.7936115,0,-21.73,100.4643,1,0.8,2025-04-22T12:37:49.783+03:00,101,1.683333333333333,2025-04-22T09:54:17.825+03:00,0.02225348692287972,0
2025-04-22T12:38:32.080+03:00,1745314709.016206,40.9522176802633,29.1402617935129,76.03027,-1,-1,-1,-1,30,19.23138545864953,-9999,30897.206472375,-0.7234649658203125,0.508514404296875,-0.4524688720703125,30897.196396375,-0.3883773256936262,-1.012663653435783,-0.5393918217172683,0.02243628911674023,0.02621371112763882,0.006439507938921452,-0.002640843391418457,-0.003131568431854248,0.003818750381469727,XArbitraryZVertical,-0.3188311491775257,-0.4136923054542334,-0.03587145067890208,0.8520085701664213,-0.727812647819519,0.5136142373085022,-0.4544107615947723,0,0,0,-1,-1,30888.08373166667,unknown,2,2025-04-22T12:38:22.953+03:00,2025-04-21T17:08:51.449+03:00,7335,0.9820014,0,0,6115.4,5,20,2025-04-22T12:38:30.691+03:00,767007510.7936115,0,-21.73,100.4643,1,0.8,2025-04-22T12:37:49.783+03:00,101,1.683333333333333,2025-04-22T09:54:17.825+03:00,0.02225348692287972,0
2025-04-22T12:38:32.090+03:00,1745314709.016206,40.9522176802633,29.1402617935129,76.03027,-1,-1,-1,-1,30,19.23138545864953,-9999,30897.216548375,-0.719390869140625,0.5029449462890625,-0.4520263671875,30897.206472375,-0.3881853393854723,-1.012320869458421,-0.539350332057289,0.006704197730869055,0.02000295370817184,0.003645718563348055,0.001356542110443115,-0.003385841846466064,0.002172112464904785,XArbitraryZVertical,-0.3187686410098309,-0.4135828732182448,-0.03585475561215147,0.8520858283391033,-0.7276749610900879,0.5135786533355713,-0.4546715319156647,0,0,0,-1,-1,30888.08373166667,unknown,2,2025-04-22T12:38:22.953+03:00,2025-04-21T17:08:51.449+03:00,7335,0.9820014,0,0,6115.4,5,20,2025-04-22T12:38:30.691+03:00,767007510.7936115,0,-21.73,100.4643,1,0.8,2025-04-22T12:37:49.783+03:00,101,1.683333333333333,2025-04-22T09:54:17.825+03:00,0.02225348692287972,0
2025-04-22T12:38:32.100+03:00,1745314709.016206,40.9522176802633,29.1402617935129,76.03027,-1,-1,-1,-1,30,19.23138545864953,-9999,30897.226624375,-0.7210235595703125,0.502349853515625,-0.4541473388671875,30897.216548375,-0.3881631625542371,-1.012153164161907,-0.539355870137386,-0.003595045302063227,0.01360950246453285,0.002156479051336646,0.0076865553855896,-0.008700668811798096,0.003452301025390625,XArbitraryZVertical,-0.3187632793615979,-0.413514158468158,-0.03587063549959283,0.852120485224226,-0.7275962829589844,0.5135834217071533,-0.4547920227050781,0,0,0,-1,-1,30888.08373166667,unknown,2,2025-04-22T12:38:22.953+03:00,2025-04-21T17:08:51.449+03:00,7335,0.9820014,0,0,6115.4,5,20,2025-04-22T12:38:30.691+03:00,767007510.7936115,0,-21.73,100.4643,1,0.8,2025-04-22T12:37:49.783+03:00,101,1.683333333333333,2025-04-22T09:54:17.825+03:00,0.02225348692287972,0
2025-04-22T12:38:32.110+03:00,1745314709.016206,40.9522176802633,29.1402617935129,76.03027,-1,-1,-1,-1,30,19.23138545864953,-9999,30897.236701375,-0.7211151123046875,0.5105438232421875,-0.4520111083984375,30897.226624375,-0.3882018172953896,-1.012058903662019,-0.5393856960805853,-0.003020534757524729,0.008309612050652504,0.001831207307986915,0.007325470447540283,-0.01330393552780151,0.002246260643005371,XArbitraryZVertical,-0.3187815839511208,-0.4134635335961379,-0.03589459321822466,0.8521370727195395,-0.7275402545928955,0.513608992099762,-0.4548524022102356,0,0,0,-1,-1,30888.08373166667,unknown,2,2025-04-22T12:38:22.953+03:00,2025-04-21T17:08:51.449+03:00,7335,0.9820014,0,0,6115.4,5,20,2025-04-22T12:38:30.691+03:00,767007510.7936115,0,-21.73,100.4643,1,0.8,2025-04-22T12:37:49.783+03:00,101,1.683333333333333,2025-04-22T09:54:17.825+03:00,0.02225348692287972,0
2025-04-22T12:38:32.120+03:00,1745314709.016206,40.9522176802633,29.1402617935129,76.03027,-1,-1,-1,-1,30,19.23138545864953,-9999,30897.246777375,-0.720611572265625,0.5132904052734375,-0.44866943359375,30897.236701375,-0.3882430594212111,-1.012050141656048,-0.5393703417703436,-0.001685225521214306,0.002829625271260738,-0.005667988210916519,0.005481839179992676,-0.005966544151306152,0.002195775508880615,XArbitraryZVertical,-0.3187837878710416,-0.4134554464411536,-0.0359174300271892,0.852139226090318,-0.7275429964065552,0.5135958194732666,-0.4548629820346832,0,0,0,-1,-1,30888.08373166667,unknown,2,2025-04-22T12:38:22.953+03:00,2025-04-21T17:08:51.449+03:00,7335,0.9820014,0,0,6115.4,5,20,2025-04-22T12:38:30.691+03:00,767007510.7936115,0,-21.73,100.4643,1,0.8,2025-04-22T12:37:49.783+03:00,101,1.683333333333333,2025-04-22T09:54:17.825+03:00,0.02225348692287972,0
2025-04-22T12:38:32.131+03:00,1745314709.016206,40.9522176802633,29.1402617935129,76.03027,-1,-1,-1,-1,30,19.23138545864953,-9999,30897.256853375,-0.72613525390625,0.5096435546875,-0.44635009765625,30897.246777375,-0.3883402672027184,-1.012078420087533,-0.5393114560556853,-0.004877756349742413,0.006847603246569633,-0.01008320972323418,0.007183670997619629,-0.0009263753890991211,0.004892110824584961,XArbitraryZVertical,-0.318780734039361,-0.4134605097669746,-0.03596918639737905,0.8521358381833891,-0.7275816202163696,0.5135452747344971,-0.4548585116863251,0,0,0,-1,-1,30888.08373166667,unknown,2,2025-04-22T12:38:22.953+03:00,2025-04-21T17:08:51.449+03:00,7335,0.9820014,0,0,6115.4,5,20,2025-04-22T12:38:30.691+03:00,767007510.7936115,0,-21.73,100.4643,1,0.8,2025-04-22T12:37:49.783+03:00,101,1.683333333333333,2025-04-22T09:54:17.825+03:00,0.02225348692287972,0
2025-04-22T12:38:32.141+03:00,1745314709.016206,40.9522176802633,29.1402617935129,76.03027,-1,-1,-1,-1,30,19.23138545864953,-9999,30897.266930375,-0.7264251708984375,0.5080413818359375,-0.4481658935546875,30897.256853375,-0.3884451117857328,-1.01206025446828,-0.5392530209090115,-0.004986679647117853,0.008715011179447174,-0.006862382404506207,0.004057526588439941,-0.002402126789093018,0.008049249649047852,XArbitraryZVertical,-0.3187786408731847,-0.4134445143016797,-0.03603145965899013,0.8521417479724609,-0.7275987863540649,0.513495147228241,-0.4548876285552979,0,0,0,-1,-1,30888.08373166667,unknown,2,2025-04-22T12:38:22.953+03:00,2025-04-21T17:08:51.449+03:00,7335,0.9820014,0,0,6115.4,5,20,2025-04-22T12:38:30.691+03:00,767007510.7936115,0,-21.73,100.4643,1,0.8,2025-04-22T12:37:49.783+03:00,101,1.683333333333333,2025-04-22T09:54:17.825+03:00,0.02225348692287972,0
2025-04-22T12:38:32.151+03:00,1745314709.016206,40.9522176802633,29.1402617935129,76.03027,-1,-1,-1,-1,30,19.23138545864953,-9999,30897.277006375,-0.7243804931640625,0.510986328125,-0.4530487060546875,30897.266930375,-0.3885105197100156,-1.012019183710838,-0.5392062087686983,0.001567026716656983,0.01026011072099209,-0.008037002757191658,0.000442802906036377,-0.00518488883972168,0.008229196071624756,XArbitraryZVertical,-0.3187726824630949,-0.4134233758919242,-0.03607762737056121,0.8521521557622055,-0.7276003956794739,0.5134549736976624,-0.4549301862716675,0,0,0,-1,-1,30888.08373166667,unknown,2,2025-04-22T12:38:22.953+03:00,2025-04-21T17:08:51.449+03:00,7335,0.9820014,0,0,6115.4,5,20,2025-04-22T12:38:30.691+03:00,767007510.7936115,0,-21.73,100.4643,1,0.8,2025-04-22T12:37:49.783+03:00,101,1.683333333333333,2025-04-22T09:54:17.825+03:00,0.02225348692287972,0
2025-04-22T12:38:32.161+03:00,1745314709.016206,40.9522176802633,29.1402617935129,76.03027,-1,-1,-1,-1,30,19.23138545864953,-9999,30897.287082375,-0.722747802734375,0.510284423828125,-0.4536895751953125,30897.277006375,-0.3885583644073764,-1.011955177734295,-0.5391440661721014,7.299333810806274e-05,0.00985238142311573,-0.005472112912684679,0.003126323223114014,-0.004231274127960205,0.003943949937820435,XArbitraryZVertical,-0.3187564828839726,-0.4133974696822983,-0.03612385790089739,0.8521688398641738,-0.7275983095169067,0.5134016871452332,-0.4549936652183533,0,0,0,-1,-1,30888.08373166667,unknown,2,2025-04-22T12:38:22.953+03:00,2025-04-21T17:08:51.449+03:00,7335,0.9820014,0,0,6115.4,5,20,2025-04-22T12:38:30.691+03:00,767007510.7936115,0,-21.73,100.4643,1,0.8,2025-04-22T12:37:49.783+03:00,101,1.683333333333333,2025-04-22T09:54:17.825+03:00,0.02225348692287972,0
2025-04-22T12:38:32.171+03:00,1745314709.016206,40.9522176802633,29.1402617935129,76.03027,-1,-1,-1,-1,30,19.23138545864953,-9999,30897.297158375,-0.71917724609375,0.504058837890625,-0.4532318115234375,30897.287082375,-0.3886334638962779,-1.011913958459965,-0.5391112851119774,-0.006721862591803074,0.00524957338348031,-0.007797218859195709,0.002877712249755859,-0.002021074295043945,0.001770317554473877,XArbitraryZVertical,-0.318758073482638,-0.4133726703470543,-0.03617070261675171,0.8521784000091123,-0.7275939583778381,0.5133735537528992,-0.4550326466560364,0,0,0,-1,-1,30888.08373166667,unknown,2,2025-04-22T12:38:22.953+03:00,2025-04-21T17:08:51.449+03:00,7335,0.9820014,0,0,6115.4,5,20,2025-04-22T12:38:30.691+03:00,767007510.7936115,0,-21.73,100.4643,1,0.8,2025-04-22T12:37:49.783+03:00,101,1.683333333333333,2025-04-22T09:54:17.825+03:00,0.02225348692287972,0
2025-04-22T12:38:32.181+03:00,1745314709.016206,40.9522176802633,29.1402617935129,76.03027,-1,-1,-1,-1,30,19.23138545864953,-9999,30897.307235375,-0.7180938720703125,0.504608154296875,-0.45245361328125,30897.297158375,-0.3887771635111469,-1.011945439398942,-0.5391162147434826,-0.01721711456775665,0.003868191502988338,-0.002156643429771066,0.006780862808227539,-0.006664037704467773,0.001150995492935181,XArbitraryZVertical,-0.318790353817733,-0.4133624764546463,-0.03622564912461061,0.8521688348393173,-0.7276059985160828,0.5133777856826782,-0.4550083577632904,0,0,0,-1,-1,30888.08373166667,unknown,2,2025-04-22T12:38:22.953+03:00,2025-04-21T17:08:51.449+03:00,7335,0.9820014,0,0,6115.4,5,20,2025-04-22T12:38:30.691+03:00,767007510.7936115,0,-21.73,100.4643,1,0.8,2025-04-22T12:37:49.783+03:00,101,1.683333333333333,2025-04-22T09:54:17.825+03:00,0.02225348692287972,0
2025-04-22T12:38:32.191+03:00,1745314709.016206,40.9522176802633,29.1402617935129,76.03027,-1,-1,-1,-1,30,19.23138545864953,-9999,30897.317311375,-0.7168426513671875,0.5098114013671875,-0.451568603515625,30897.307235375,-0.388987934538838,-1.01203809080611,-0.539147485982617,-0.01753802411258221,-0.003559364471584558,-0.005672282539308071,0.009159266948699951,-0.0106123685836792,0.001807481050491333,XArbitraryZVertical,-0.3188481379345589,-0.4133638263471995,-0.0362928154732956,0.8521437100152121,-0.7276345491409302,0.5134046077728271,-0.4549324214458466,0,0,0,-1,-1,30888.08373166667,unknown,2,2025-04-22T12:38:22.953+03:00,2025-04-21T17:08:51.449+03:00,7335,0.9820014,0,0,6115.4,5,20,2025-04-22T12:38:30.691+03:00,767007510.7936115,0,-21.73,100.4643,1,0.8,2025-04-22T12:37:49.783+03:00,101,1.683333333333333,2025-04-22T09:54:17.825+03:00,0.02225348692287972,0
2025-04-22T12:38:32.201+03:00,1745314709.016206,40.9522176802633,29.1402617935129,76.03027,-1,-1,-1,-1,30,19.23138545864953,-9999,30897.327387375,-0.719451904296875,0.510528564453125,-0.450592041015625,30897.317311375,-0.3891790088729556,-1.012174993179239,-0.5392017043315374,-0.01280212588608265,-0.004757521208375692,-0.003553205169737339,0.0101439356803894,-0.005089461803436279,0.003020614385604858,XArbitraryZVertical,-0.3189118860270814,-0.4133838451958346,-0.03633873334016707,0.8521081170469594,-0.7276731729507446,0.513451099395752,-0.4548180103302002,0,0,0,-1,-1,30888.08373166667,unknown,2,2025-04-22T12:38:22.953+03:00,2025-04-21T17:08:51.449+03:00,7335,0.9820014,0,0,6115.4,5,20,2025-04-22T12:38:30.691+03:00,767007510.7936115,0,-21.73,100.4643,1,0.8,2025-04-22T12:37:49.783+03:00,101,1.683333333333333,2025-04-22T09:54:17.825+03:00,0.02225348692287972,0
2025-04-22T12:38:32.211+03:00,1745314709.016206,40.9522176802633,29.1402617935129,76.03027,-1,-1,-1,-1,30,19.23138545864953,-9999,30897.337463375,-0.72467041015625,0.5110931396484375,-0.449432373046875,30897.327387375,-0.3893407086916067,-1.01230548414107,-0.5392471146394637,-0.01406905706971884,-0.002127183135598898,-0.002693969523534179,0.009924113750457764,-0.004167079925537109,0.004225552082061768,XArbitraryZVertical,-0.3189658547834295,-0.4134070638856904,-0.03637541181251717,0.8520752079372164,-0.727712869644165,0.5134900808334351,-0.4547107517719269,0,0,0,-1,-1,30888.08373166667,unknown,2,2025-04-22T12:38:22.953+03:00,2025-04-21T17:08:51.449+03:00,7335,0.9820014,0,0,6115.4,5,20,2025-04-22T12:38:30.691+03:00,767007510.7936115,0,-21.73,100.4643,1,0.8,2025-04-22T12:37:49.783+03:00,101,1.683333333333333,2025-04-22T09:54:17.825+03:00,0.02225348692287972,0
2025-04-22T12:38:32.221+03:00,1745314709.016206,40.9522176802633,29.1402617935129,76.03027,-1,-1,-1,-1,30,19.23138545864953,-9999,30897.347540375,-0.7266082763671875,0.5076446533203125,-0.4495391845703125,30897.337463375,-0.3895497313199565,-1.012422058940676,-0.5393055604998617,-0.01855195686221123,0.002210839884355664,-0.004191731102764606,0.004412829875946045,-0.002477705478668213,0.004368960857391357,XArbitraryZVertical,-0.3190346095193363,-0.4134149157332805,-0.03643116108178208,0.8520433136383622,-0.7277404069900513,0.5135402679443359,-0.4546100497245789,0,0,0,-1,-1,30888.08373166667,unknown,2,2025-04-22T12:38:22.953+03:00,2025-04-21T17:08:51.449+03:00,7335,0.9820014,0,0,6115.4,5,20,2025-04-22T12:38:30.691+03:00,767007510.7936115,0,-21.73,100.4643,1,0.8,2025-04-22T12:37:49.783+03:00,101,1.683333333333333,2025-04-22T09:54:17.825+03:00,0.02225348692287972,0
2025-04-22T12:38:32.231+03:00,1745314709.016206,40.9522176802633,29.1402617935129,76.03027,-1,-1,-1,-1,30,19.23138545864953,-9999,30897.357616375,-0.7298126220703125,0.5089569091796875,-0.448822021484375,30897.347540375,-0.3897936849112519,-1.012523248799785,-0.5393843117176133,-0.02380557544529438,0.009274874813854694,-0.004276952240616083,0.002410292625427246,-0.004162728786468506,0.004914760589599609,XArbitraryZVertical,-0.3191184650127718,-0.4134076888213064,-0.03649911103142674,0.8520124952714235,-0.7277520895004272,0.5136078000068665,-0.4545149803161621,0,0,0,-1,-1,30888.08373166667,unknown,2,2025-04-22T12:38:22.953+03:00,2025-04-21T17:08:51.449+03:00,7335,0.9820014,0,0,6115.4,5,20,2025-04-22T12:38:30.691+03:00,767007510.7936115,0,-21.73,100.4643,1,0.8,2025-04-22T12:37:49.783+03:00,101,1.683333333333333,2025-04-22T09:54:17.825+03:00,0.02225348692287972,0
2025-04-22T12:38:32.241+03:00,1745314709.016206,40.9522176802633,29.1402617935129,76.03027,-1,-1,-1,-1,30,19.23138545864953,-9999,30897.367692375,-0.72991943359375,0.51068115234375,-0.4540252685546875,30897.357616375,-0.3900604066958849,-1.012552486778061,-0.5394829913587421,-0.02625062316656113,0.01211140770465136,-0.0005700985202565789,-0.0009916424751281738,-0.005544364452362061,0.005370140075683594,XArbitraryZVertical,-0.3192137122395539,-0.4133632729584147,-0.0365832061384439,0.8519947091125899,-0.7277223467826843,0.5136924982070923,-0.4544668197631836,0,0,0,-1,-1,30888.08373166667,unknown,2,2025-04-22T12:38:22.953+03:00,2025-04-21T17:08:51.449+03:00,7335,0.9820014,0,0,6115.4,5,20,2025-04-22T12:38:30.691+03:00,767007510.7936115,0,-21.73,100.4643,1,0.8,2025-04-22T12:37:49.783+03:00,101,1.683333333333333,2025-04-22T09:54:17.825+03:00,0.02225348692287972,0
2025-04-22T12:38:32.252+03:00,1745314709.016206,40.9522176802633,29.1402617935129,76.03027,-1,-1,-1,-1,30,19.23138545864953,-9999,30897.377768375,-0.7280731201171875,0.5125732421875,-0.4549102783203125,30897.367692375,-0.3902822952985376,-1.012542389475252,-0.5395943261494124,-0.02031536772847176,0.01090326439589262,0.0006518262671306729,-0.002417981624603271,-0.003412127494812012,0.002020776271820068,XArbitraryZVertical,-0.3193040129267697,-0.4133073945413916,-0.03665130936007379,0.8519850858471145,-0.7276692986488342,0.5137879848480225,-0.4544439017772675,0,0,0,-1,-1,30888.08373166667,unknown,2,2025-04-22T12:38:22.953+03:00,2025-04-21T17:08:51.449+03:00,7335,0.9820014,0,0,6115.4,5,20,2025-04-22T12:38:30.691+03:00,767007510.7936115,0,-21.73,100.4643,1,0.8,2025-04-22T12:37:49.783+03:00,101,1.683333333333333,2025-04-22T09:54:17.825+03:00,0.02225348692287972,0
2025-04-22T12:38:32.262+03:00,1745314709.016206,40.9522176802633,29.1402617935129,76.03027,-1,-1,-1,-1,30,19.23138545864953,-9999,30897.387845375,-0.7247161865234375,0.515106201171875,-0.45391845703125,30897.377768375,-0.3904510377632763,-1.01251484831492,-0.5396758206236185,-0.01891800761222839,0.008662214502692223,-0.001126898918300867,-0.001169025897979736,-0.00305485725402832,-0.000575333833694458,XArbitraryZVertical,-0.3193710753342939,-0.4132568986487636,-0.03670704663046792,0.8519819665966681,-0.7276211977005005,0.513857901096344,-0.4544416964054108,0,0,0,-1,-1,30888.08373166667,unknown,2,2025-04-22T12:38:22.953+03:00,2025-04-21T17:08:51.449+03:00,7335,0.9820014,0,0,6115.4,5,20,2025-04-22T12:38:30.691+03:00,767007510.7936115,0,-21.73,100.4643,1,0.8,2025-04-22T12:37:49.783+03:00,101,1.683333333333333,2025-04-22T09:54:17.825+03:00,0.02225348692287972,0
2025-04-22T12:38:32.272+03:00,1745314709.016206,40.9522176802633,29.1402617935129,76.03027,-1,-1,-1,-1,30,19.23138545864953,-9999,30897.397921375,-0.72393798828125,0.511016845703125,-0.4512939453125,30897.387845375,-0.390655177224973,-1.012533115572106,-0.5397419342207808,-0.02293152548372746,0.004865212365984917,-0.0005234932177700102,0.002014756202697754,0.0006726980209350586,-0.0001488924026489258,XArbitraryZVertical,-0.3194400811082634,-0.4132224755713865,-0.03677444926676358,0.8519699301905522,-0.7276006937026978,0.5139146447181702,-0.4544104337692261,0,0,0,-1,-1,30888.08373166667,unknown,2,2025-04-22T12:38:22.953+03:00,2025-04-21T17:08:51.449+03:00,7335,0.9820014,0,0,6115.4,5,20,2025-04-22T12:38:30.691+03:00,767007510.7936115,0,-21.73,100.4643,1,0.8,2025-04-22T12:37:49.783+03:00,101,1.683333333333333,2025-04-22T09:54:17.825+03:00,0.02225348692287972,0
2025-04-22T12:38:32.282+03:00,1745314709.016206,40.9522176802633,29.1402617935129,76.03027,-1,-1,-1,-1,30,19.23138545864953,-9999,30897.407997375,-0.723541259765625,0.509765625,-0.44866943359375,30897.397921375,-0.3909209524894028,-1.012592911932792,-0.5398689576648069,-0.02910926006734371,0.006563776638358831,-0.001953877042979002,0.004138052463531494,-0.0006417036056518555,0.002519667148590088,XArbitraryZVertical,-0.3195470098201551,-0.4131870406448697,-0.0368461188179798,0.8519439267860055,-0.727572500705719,0.5140236020088196,-0.4543323516845703,0,0,0,-1,-1,30888.08373166667,unknown,2,2025-04-22T12:38:22.953+03:00,2025-04-21T17:08:51.449+03:00,7335,0.9820014,0,0,6115.4,5,20,2025-04-22T12:38:30.691+03:00,767007510.7936115,0,-21.73,100.4643,1,0.8,2025-04-22T12:37:49.783+03:00,101,1.683333333333333,2025-04-22T09:54:17.825+03:00,0.02225348692287972,0
2025-04-22T12:38:32.292+03:00,1745314709.016206,40.9522176802633,29.1402617935129,76.03027,-1,-1,-1,-1,30,19.23138545864953,-9999,30897.418074375,-0.725189208984375,0.511993408203125,-0.447479248046875,30897.407997375,-0.3911981622393791,-1.012672773313902,-0.5400270425858552,-0.02688019536435604,0.006991746835410595,0.0003873078676406294,0.003601908683776855,-0.005599081516265869,0.00562286376953125,XArbitraryZVertical,-0.3196691036120771,-0.4131537835145953,-0.03691162497492027,0.8519114531237946,-0.7275398969650269,0.5141592025756836,-0.4542312324047089,0,0,0,-1,-1,30888.08373166667,unknown,2,2025-04-22T12:38:22.953+03:00,2025-04-21T17:08:51.449+03:00,7335,0.9820014,0,0,6115.4,5,20,2025-04-22T12:38:30.691+03:00,767007510.7936115,0,-21.73,100.4643,1,0.8,2025-04-22T12:37:49.783+03:00,101,1.683333333333333,2025-04-22T09:54:17.825+03:00,0.02225348692287972,0
2025-04-22T12:38:32.302+03:00,1745314709.016206,40.9522176802633,29.1402617935129,76.03027,-1,-1,-1,-1,30,19.23138545864953,-9999,30897.428150375,-0.7265472412109375,0.511077880859375,-0.4479217529296875,30897.418074375,-0.3914587289769499,-1.012731960653494,-0.5401856580826051,-0.02850152738392353,0.009378471411764622,0.002554055768996477,0.003681659698486328,-0.003232717514038086,0.00626903772354126,XArbitraryZVertical,-0.319787591094754,-0.4131142773315549,-0.03697319343535037,0.8518834793569074,-0.7274975776672363,0.514295220375061,-0.4541449844837189,0,0,0,-1,-1,30888.08373166667,unknown,2,2025-04-22T12:38:22.953+03:00,2025-04-21T17:08:51.449+03:00,7335,0.9820014,0,0,6115.4,5,20,2025-04-22T12:38:30.691+03:00,767007510.7936115,0,-21.73,100.4643,1,0.8,2025-04-22T12:37:49.783+03:00,101,1.683333333333333,2025-04-22T09:54:17.825+03:00,0.02225348692287972,0
2025-04-22T12:38:32.312+03:00,1745314709.016206,40.9522176802633,29.1402617935129,76.03027,-1,-1,-1,-1,30,19.23138545864953,-9999,30897.438226375,-0.7279815673828125,0.5120086669921875,-0.4460601806640625,30897.428150375,-0.3917199839624723,-1.012780487569004,-0.5403435984717077,-0.02660695463418961,0.01079820282757282,0.004231181461364031,0.002322494983673096,-0.003032445907592773,0.005855023860931396,XArbitraryZVertical,-0.3199057551242349,-0.4130701947496073,-0.03703691100479224,0.8518576925283244,-0.7274506688117981,0.5144306421279907,-0.4540666341781616,0,0,0,-1,-1,30888.08373166667,unknown,2,2025-04-22T12:38:22.953+03:00,2025-04-21T17:08:51.449+03:00,7335,0.9820014,0,0,6115.4,5,20,2025-04-22T12:38:30.691+03:00,767007510.7936115,0,-21.73,100.4643,1,0.8,2025-04-22T12:37:49.783+03:00,101,1.683333333333333,2025-04-22T09:54:17.825+03:00,0.02225348692287972,0
2025-04-22T12:38:32.322+03:00,1745314709.016206,40.9522176802633,29.1402617935129,76.03027,-1,-1,-1,-1,30,19.23138545864953,-9999,30897.448302375,-0.726531982421875,0.508575439453125,-0.4469757080078125,30897.438226375,-0.3920042735422926,-1.012844184648641,-0.5405040109980123,-0.02993031404912472,0.009356900118291378,0.001240185229107738,3.838539123535156e-05,-0.002162933349609375,0.007077217102050781,XArbitraryZVertical,-0.3200299162481486,-0.4130284940872181,-0.03710739530830162,0.8518282455282867,-0.7274096012115479,0.5145682096481323,-0.4539766311645508,0,0,0,-1,-1,30888.08373166667,unknown,2,2025-04-22T12:38:22.953+03:00,2025-04-21T17:08:51.449+03:00,7335,0.9820014,0,0,6115.4,5,20,2025-04-22T12:38:30.691+03:00,767007510.7936115,0,-21.73,100.4643,1,0.8,2025-04-22T12:37:49.783+03:00,101,1.683333333333333,2025-04-22T09:54:17.825+03:00,0.02225348692287972,0
2025-04-22T12:38:32.332+03:00,1745314709.016206,40.9522176802633,29.1402617935129,76.03027,-1,-1,-1,-1,30,19.23138545864953,-9999,30897.458379375,-0.7272796630859375,0.510284423828125,-0.4527740478515625,30897.448302375,-0.3922822562854497,-1.012889195765309,-0.5406744674847134,-0.02565860189497471,0.01029326766729355,0.005274874158203602,0.0007168054580688477,-0.004628419876098633,0.007135391235351562,XArbitraryZVertical,-0.3201564558033779,-0.4129783552697167,-0.03717563126465999,0.8518020229004407,-0.7273556590080261,0.5147143602371216,-0.4538974463939667,0,0,0,-1,-1,30888.08373166667,unknown,2,2025-04-22T12:38:22.953+03:00,2025-04-21T17:08:51.449+03:00,7335,0.9820014,0,0,6115.4,5,20,2025-04-22T12:38:30.691+03:00,767007510.7936115,0,-21.73,100.4643,1,0.8,2025-04-22T12:37:49.783+03:00,101,1.683333333333333,2025-04-22T09:54:17.825+03:00,0.02225348692287972,0
