loggingTime(txt),locationTimestamp_since1970(s),locationLatitude(WGS84),locationLongitude(WGS84),locationAltitude(m),locationSpeed(m/s),locationSpeedAccuracy(m/s),locationCourse(°),locationCourseAccuracy(°),locationVerticalAccuracy(m),locationHorizontalAccuracy(m),locationFloor(Z),accelerometerTimestamp_sinceReboot(s),accelerometerAccelerationX(G),accelerometerAccelerationY(G),accelerometerAccelerationZ(G),motionTimestamp_sinceReboot(s),motionYaw(rad),motionRoll(rad),motionPitch(rad),motionRotationRateX(rad/s),motionRotationRateY(rad/s),motionRotationRateZ(rad/s),motionUserAccelerationX(G),motionUserAccelerationY(G),motionUserAccelerationZ(G),motionAttitudeReferenceFrame(txt),motionQuaternionX(R),motionQuaternionY(R),motionQuaternionZ(R),motionQuaternionW(R),motionGravityX(G),motionGravityY(G),motionGravityZ(G),motionMagneticFieldX(µT),motionMagneticFieldY(µT),motionMagneticFieldZ(µT),motionHeading(°),motionMagneticFieldCalibrationAccuracy(Z),activityTimestamp_sinceReboot(s),activity(txt),activityActivityConfidence(Z),activityActivityStartDate(txt),pedometerStartDate(txt),pedometerNumberofSteps(N),pedometerAverageActivePace(s/m),pedometerCurrentPace(s/m),pedometerCurrentCadence(steps/s),pedometerDistance(m),pedometerFloorAscended(N),pedometerFloorDescended(N),pedometerEndDate(txt),altimeterTimestamp_sinceReboot(s),altimeterReset(bool),altimeterRelativeAltitude(m),altimeterPressure(kPa),batteryState(N),batteryLevel(R),heartRateBPMTimestamp(txt),heartRateBPM(N),heartRateBPS(R),heartRateVariabilityTimestamp(txt),heartRateVariability(ms),label
2025-04-22T12:15:40.250+03:00,1745313339.469681,40.95212370955056,29.14023444794606,75.95811,-1,-1,-1,-1,30,23.14434125577553,-9999,29675.55936241667,-0.823974609375,0.5058441162109375,-0.2235107421875,29675.55686141667,-1.093872661873446,-1.284599223340588,-0.530935769076034,-0.005097060464322567,0.05014688521623611,0.04780517518520355,0.004961609840393066,0.007300734519958496,0.02560746669769287,XArbitraryZVertical,-0.4800620926038634,-0.3844728547440608,-0.2676078979554071,0.7416920267740811,-0.8272576928138733,0.506340503692627,-0.24344202876091,0,0,0,-1,-1,29661.316794875,unknown,2,2025-04-22T12:15:07.401+03:00,2025-04-21T17:08:51.449+03:00,7224,0.9707136,0,0,6027.237,5,20,2025-04-22T12:15:09.980+03:00,767006094.6096033,0,-20.45,100.4477,1,0.85,2025-04-22T12:14:03.331+03:00,112,1.866666666666667,2025-04-22T09:54:17.825+03:00,0.02225348692287972,0
2025-04-22T12:15:40.253+03:00,1745313339.469681,40.95212370955056,29.14023444794606,75.95811,-1,-1,-1,-1,30,23.14434125577553,-9999,29675.56943841667,-0.815521240234375,0.494384765625,-0.222991943359375,29675.56693641667,-1.093705088914878,-1.283780026897832,-0.5314510253009663,0.05919391289353371,0.2053794860839844,0.0602339468896389,0.003367125988006592,-0.001169681549072266,0.0200924277305603,XArbitraryZVertical,-0.480069291912733,-0.3840711049100458,-0.2675870423050803,0.741902968442686,-0.8268076181411743,0.5067847371101379,-0.2440457195043564,0,0,0,-1,-1,29661.316794875,unknown,2,2025-04-22T12:15:07.401+03:00,2025-04-21T17:08:51.449+03:00,7224,0.9707136,0,0,6027.237,5,20,2025-04-22T12:15:09.980+03:00,767006094.6096033,0,-20.45,100.4477,1,0.85,2025-04-22T12:14:03.331+03:00,112,1.866666666666667,2025-04-22T09:54:17.825+03:00,0.02225348692287972,0
2025-04-22T12:15:40.254+03:00,1745313339.469681,40.95212370955056,29.14023444794606,75.95811,-1,-1,-1,-1,30,23.14434125577553,-9999,29675.57951441667,-0.8119354248046875,0.4687042236328125,-0.23333740234375,29675.57701241667,-1.093209209481912,-1.282600259051753,-0.5311718367553602,-0.05827945470809937,0.09431634843349457,0.01848490163683891,0.01261353492736816,-0.01489073038101196,0.02126047015190125,XArbitraryZVertical,-0.4797354144551813,-0.3838272153819212,-0.2677702769058627,0.7421790021634234,-0.8266547918319702,0.5065440535545349,-0.2450612038373947,0,0,0,-1,-1,29661.316794875,unknown,2,2025-04-22T12:15:07.401+03:00,2025-04-21T17:08:51.449+03:00,7224,0.9707136,0,0,6027.237,5,20,2025-04-22T12:15:09.980+03:00,767006094.6096033,0,-20.45,100.4477,1,0.85,2025-04-22T12:14:03.331+03:00,112,1.866666666666667,2025-04-22T09:54:17.825+03:00,0.02225348692287972,0
2025-04-22T12:15:40.255+03:00,1745313339.469681,40.95212370955056,29.14023444794606,75.95811,-1,-1,-1,-1,30,23.14434125577553,-9999,29675.58959041667,-0.816162109375,0.4996490478515625,-0.22540283203125,29675.58708841667,-1.093345752066698,-1.282176126004089,-0.5314312369508672,-0.008277140557765961,0.04400110989809036,0.004114951472729445,0.01319229602813721,-0.04262596368789673,0.01189962029457092,XArbitraryZVertical,-0.4797798821441281,-0.3835675449433699,-0.2678445725196272,0.742257753075742,-0.8264248371124268,0.5067676901817322,-0.2453744113445282,0,0,0,-1,-1,29661.316794875,unknown,2,2025-04-22T12:15:07.401+03:00,2025-04-21T17:08:51.449+03:00,7224,0.9707136,0,0,6027.237,5,20,2025-04-22T12:15:09.980+03:00,767006094.6096033,0,-20.45,100.4477,1,0.85,2025-04-22T12:14:03.331+03:00,112,1.866666666666667,2025-04-22T09:54:17.825+03:00,0.02225348692287972,0
2025-04-22T12:15:40.262+03:00,1745313339.469681,40.95212370955056,29.14023444794606,75.95811,-1,-1,-1,-1,30,23.14434125577553,-9999,29675.59966641667,-0.81768798828125,0.546356201171875,-0.2426605224609375,29675.59716441667,-1.093500190461236,-1.282014720403749,-0.5315618761476772,-0.01399148534983397,0.02514779381453991,-0.003999699838459492,0.01208215951919556,0.005280792713165283,0.02043700218200684,XArbitraryZVertical,-0.4798257377154464,-0.3834355385311913,-0.2679012350535807,0.7422757623325142,-0.8263216018676758,0.5068803429603577,-0.2454888969659805,0,0,0,-1,-1,29661.316794875,unknown,2,2025-04-22T12:15:07.401+03:00,2025-04-21T17:08:51.449+03:00,7224,0.9707136,0,0,6027.237,5,20,2025-04-22T12:15:09.980+03:00,767006094.6096033,0,-20.45,100.4477,1,0.85,2025-04-22T12:14:03.331+03:00,112,1.866666666666667,2025-04-22T09:54:17.825+03:00,0.02225348692287972,0
2025-04-22T12:15:40.272+03:00,1745313339.469681,40.95212370955056,29.14023444794606,75.95811,-1,-1,-1,-1,30,23.14434125577553,-9999,29675.60974241667,-0.8231048583984375,0.499969482421875,-0.2434539794921875,29675.60724041667,-1.093749141187162,-1.282142746765183,-0.5315640405719191,-0.008857309818267822,0.00773298367857933,-0.01005273219197989,0.00605475902557373,0.03324824571609497,0.0001893192529678345,XArbitraryZVertical,-0.47989125941313,-0.3834227301724226,-0.2679622456654694,0.7422179558956129,-0.8263519406318665,0.5068821907043457,-0.2453827708959579,0,0,0,-1,-1,29661.316794875,unknown,2,2025-04-22T12:15:07.401+03:00,2025-04-21T17:08:51.449+03:00,7224,0.9707136,0,0,6027.237,5,20,2025-04-22T12:15:09.980+03:00,767006094.6096033,0,-20.45,100.4477,1,0.85,2025-04-22T12:14:03.331+03:00,112,1.866666666666667,2025-04-22T09:54:17.825+03:00,0.02225348692287972,0
2025-04-22T12:15:40.282+03:00,1745313339.469681,40.95212370955056,29.14023444794606,75.95811,-1,-1,-1,-1,30,23.14434125577553,-9999,29675.61981841667,-0.8177337646484375,0.51544189453125,-0.2296600341796875,29675.61731641667,-1.093925657740576,-1.2822926199189,-0.5314719222138337,-0.006605341099202633,0.005726824514567852,-0.0123856607824564,0.004335701465606689,-0.007550537586212158,0.004045933485031128,XArbitraryZVertical,-0.479918497423898,-0.3834607124105566,-0.2680195514815135,0.742160093987511,-0.826433539390564,0.5068027973175049,-0.245272234082222,0,0,0,-1,-1,29661.316794875,unknown,2,2025-04-22T12:15:07.401+03:00,2025-04-21T17:08:51.449+03:00,7224,0.9707136,0,0,6027.237,5,20,2025-04-22T12:15:09.980+03:00,767006094.6096033,0,-20.45,100.4477,1,0.85,2025-04-22T12:14:03.331+03:00,112,1.866666666666667,2025-04-22T09:54:17.825+03:00,0.02225348692287972,0
2025-04-22T12:15:40.292+03:00,1745313339.469681,40.95212370955056,29.14023444794606,75.95811,-1,-1,-1,-1,30,23.14434125577553,-9999,29675.62989441667,-0.826385498046875,0.519561767578125,-0.2297210693359375,29675.62739241667,-1.094115057287714,-1.282454086565962,-0.5314883898242198,-0.009329156018793583,0.006773779634386301,-0.01576012000441551,0.007785379886627197,0.01079148054122925,0.01630029082298279,XArbitraryZVertical,-0.479981239027667,-0.3834707443033883,-0.2680461068032827,0.7421046868934347,-0.8264650702476501,0.5068169832229614,-0.2451363950967789,0,0,0,-1,-1,29661.316794875,unknown,2,2025-04-22T12:15:07.401+03:00,2025-04-21T17:08:51.449+03:00,7224,0.9707136,0,0,6027.237,5,20,2025-04-22T12:15:09.980+03:00,767006094.6096033,0,-20.45,100.4477,1,0.85,2025-04-22T12:14:03.331+03:00,112,1.866666666666667,2025-04-22T09:54:17.825+03:00,0.02225348692287972,0
2025-04-22T12:15:40.303+03:00,1745313339.469681,40.95212370955056,29.14023444794606,75.95811,-1,-1,-1,-1,30,23.14434125577553,-9999,29675.63997041667,-0.8218231201171875,0.508697509765625,-0.22772216796875,29675.63746841667,-1.094400746560832,-1.282700425804579,-0.5314536601985436,-0.0160531047731638,0.001355844549834728,-0.01471962314099073,0.0002789497375488281,0.01158446073532104,0.01610174775123596,XArbitraryZVertical,-0.4800589390201062,-0.3835029237954521,-0.2681034794270853,0.7420171915416908,-0.8265424966812134,0.5067870616912842,-0.244937852025032,0,0,0,-1,-1,29661.316794875,unknown,2,2025-04-22T12:15:07.401+03:00,2025-04-21T17:08:51.449+03:00,7224,0.9707136,0,0,6027.237,5,20,2025-04-22T12:15:09.980+03:00,767006094.6096033,0,-20.45,100.4477,1,0.85,2025-04-22T12:14:03.331+03:00,112,1.866666666666667,2025-04-22T09:54:17.825+03:00,0.02225348692287972,0
2025-04-22T12:15:40.312+03:00,1745313339.469681,40.95212370955056,29.14023444794606,75.95811,-1,-1,-1,-1,30,23.14434125577553,-9999,29675.65004641667,-0.8187408447265625,0.5060882568359375,-0.229400634765625,29675.64754441667,-1.094707457501988,-1.282949912142523,-0.5313762921032574,-0.02104480192065239,0.002998349256813526,-0.01267784368246794,0.0055808424949646,0.001961767673492432,0.01641011238098145,XArbitraryZVertical,-0.4801288756833175,-0.3835425747495319,-0.2681806481512879,0.7419234347946815,-0.8266410231590271,0.5067203640937805,-0.2447427064180374,0,0,0,-1,-1,29661.316794875,unknown,2,2025-04-22T12:15:07.401+03:00,2025-04-21T17:08:51.449+03:00,7224,0.9707136,0,0,6027.237,5,20,2025-04-22T12:15:09.980+03:00,767006094.6096033,0,-20.45,100.4477,1,0.85,2025-04-22T12:14:03.331+03:00,112,1.866666666666667,2025-04-22T09:54:17.825+03:00,0.02225348692287972,0
2025-04-22T12:15:40.322+03:00,1745313339.469681,40.95212370955056,29.14023444794606,75.95811,-1,-1,-1,-1,30,23.14434125577553,-9999,29675.66012241667,-0.8221282958984375,0.505950927734375,-0.2318572998046875,29675.65762041667,-1.095024899946303,-1.283164317130742,-0.5312996357461987,-0.02020750381052494,0.004942190833389759,-0.008499077521264553,0.007730543613433838,-0.0003525018692016602,0.01499271392822266,XArbitraryZVertical,-0.4801963311113023,-0.3835664662034494,-0.2682700274565647,0.7418351365311988,-0.8267307281494141,0.5066542625427246,-0.2445764988660812,0,0,0,-1,-1,29661.316794875,unknown,2,2025-04-22T12:15:07.401+03:00,2025-04-21T17:08:51.449+03:00,7224,0.9707136,0,0,6027.237,5,20,2025-04-22T12:15:09.980+03:00,767006094.6096033,0,-20.45,100.4477,1,0.85,2025-04-22T12:14:03.331+03:00,112,1.866666666666667,2025-04-22T09:54:17.825+03:00,0.02225348692287972,0
2025-04-22T12:15:40.332+03:00,1745313339.469681,40.95212370955056,29.14023444794606,75.95811,-1,-1,-1,-1,30,23.14434125577553,-9999,29675.67019841667,-0.8210296630859375,0.5056915283203125,-0.234466552734375,29675.66769641667,-1.095321868854545,-1.283310758058737,-0.5311021973303998,-0.02538708411157131,0.003580516204237938,-0.009580986574292183,0.004871487617492676,-0.0006857514381408691,0.01229080557823181,XArbitraryZVertical,-0.4802158148513256,-0.3836024758153374,-0.2684045224145715,0.7417553464460437,-0.8268625736236572,0.5064840316772461,-0.2444838285446167,0,0,0,-1,-1,29661.316794875,unknown,2,2025-04-22T12:15:07.401+03:00,2025-04-21T17:08:51.449+03:00,7224,0.9707136,0,0,6027.237,5,20,2025-04-22T12:15:09.980+03:00,767006094.6096033,0,-20.45,100.4477,1,0.85,2025-04-22T12:14:03.331+03:00,112,1.866666666666667,2025-04-22T09:54:17.825+03:00,0.02225348692287972,0
2025-04-22T12:15:40.342+03:00,1745313339.469681,40.95212370955056,29.14023444794606,75.95811,-1,-1,-1,-1,30,23.14434125577553,-9999,29675.68027441667,-0.8192596435546875,0.5046539306640625,-0.2335357666015625,29675.67777241667,-1.095671847970231,-1.283549620746028,-0.5311726421066556,-0.02431649342179298,0.002102994592860341,-0.006573479156941175,0.006680905818939209,-0.001402676105499268,0.009794354438781738,XArbitraryZVertical,-0.4803353926735499,-0.3835880922337225,-0.2684557073050976,0.7416667534741563,-0.8268866539001465,0.5065447688102722,-0.2442761659622192,0,0,0,-1,-1,29661.316794875,unknown,2,2025-04-22T12:15:07.401+03:00,2025-04-21T17:08:51.449+03:00,7224,0.9707136,0,0,6027.237,5,20,2025-04-22T12:15:09.980+03:00,767006094.6096033,0,-20.45,100.4477,1,0.85,2025-04-22T12:14:03.331+03:00,112,1.866666666666667,2025-04-22T09:54:17.825+03:00,0.02225348692287972,0
2025-04-22T12:15:40.353+03:00,1745313339.469681,40.95212370955056,29.14023444794606,75.95811,-1,-1,-1,-1,30,23.14434125577553,-9999,29675.69035041667,-0.82421875,0.5078125,-0.2338714599609375,29675.68784841667,-1.095942072176861,-1.28362257372809,-0.5313807035092947,-0.02184734493494034,0.007824396714568138,-0.003308110404759645,0.006933391094207764,-0.002482354640960693,0.01055866479873657,XArbitraryZVertical,-0.4804571148493609,-0.3834944060746074,-0.2684757082231456,0.7416291508985039,-0.8268033862113953,0.5067241191864014,-0.2441859990358353,0,0,0,-1,-1,29661.316794875,unknown,2,2025-04-22T12:15:07.401+03:00,2025-04-21T17:08:51.449+03:00,7224,0.9707136,0,0,6027.237,5,20,2025-04-22T12:15:09.980+03:00,767006094.6096033,0,-20.45,100.4477,1,0.85,2025-04-22T12:14:03.331+03:00,112,1.866666666666667,2025-04-22T09:54:17.825+03:00,0.02225348692287972,0
2025-04-22T12:15:40.363+03:00,1745313339.469681,40.95212370955056,29.14023444794606,75.95811,-1,-1,-1,-1,30,23.14434125577553,-9999,29675.70042641667,-0.8261871337890625,0.5147857666015625,-0.2322235107421875,29675.69792441667,-1.096186908379601,-1.283679639104067,-0.5313659932847387,-0.01807763986289501,0.008254230953752995,-0.006467950996011496,0.001919090747833252,0.001695990562438965,0.01002532243728638,XArbitraryZVertical,-0.4805074681769408,-0.383460696963532,-0.2685572193754568,0.7415844519466032,-0.8268244862556458,0.506711483001709,-0.2441409379243851,0,0,0,-1,-1,29661.316794875,unknown,2,2025-04-22T12:15:07.401+03:00,2025-04-21T17:08:51.449+03:00,7224,0.9707136,0,0,6027.237,5,20,2025-04-22T12:15:09.980+03:00,767006094.6096033,0,-20.45,100.4477,1,0.85,2025-04-22T12:14:03.331+03:00,112,1.866666666666667,2025-04-22T09:54:17.825+03:00,0.02225348692287972,0
2025-04-22T12:15:40.373+03:00,1745313339.469681,40.95212370955056,29.14023444794606,75.95811,-1,-1,-1,-1,30,23.14434125577553,-9999,29675.71050241667,-0.8253173828125,0.516082763671875,-0.2301177978515625,29675.70800041667,-1.09643598057876,-1.283809050545741,-0.5314097952140114,-0.01361131947487593,0.003870334941893816,-0.01156527455896139,0.001059591770172119,0.008051633834838867,0.01195669174194336,XArbitraryZVertical,-0.4805852619701774,-0.3834370691062364,-0.2686052706137349,0.7415288311178324,-0.8268347382545471,0.5067492127418518,-0.2440276443958282,0,0,0,-1,-1,29661.316794875,unknown,2,2025-04-22T12:15:07.401+03:00,2025-04-21T17:08:51.449+03:00,7224,0.9707136,0,0,6027.237,5,20,2025-04-22T12:15:09.980+03:00,767006094.6096033,0,-20.45,100.4477,1,0.85,2025-04-22T12:14:03.331+03:00,112,1.866666666666667,2025-04-22T09:54:17.825+03:00,0.02225348692287972,0
2025-04-22T12:15:40.383+03:00,1745313339.469681,40.95212370955056,29.14023444794606,75.95811,-1,-1,-1,-1,30,23.14434125577553,-9999,29675.72057841667,-0.8261566162109375,0.51654052734375,-0.2293548583984375,29675.71807641667,-1.096696281838644,-1.28395697108497,-0.5314209078333944,-0.01655224896967411,0.005708182230591774,-0.01298180967569351,0.001013994216918945,0.009705305099487305,0.01393848657608032,XArbitraryZVertical,-0.4806582428713165,-0.3834263738758257,-0.2686628817803938,0.7414661867038699,-0.8268654346466064,0.5067588090896606,-0.2439037412405014,0,0,0,-1,-1,29661.316794875,unknown,2,2025-04-22T12:15:07.401+03:00,2025-04-21T17:08:51.449+03:00,7224,0.9707136,0,0,6027.237,5,20,2025-04-22T12:15:09.980+03:00,767006094.6096033,0,-20.45,100.4477,1,0.85,2025-04-22T12:14:03.331+03:00,112,1.866666666666667,2025-04-22T09:54:17.825+03:00,0.02225348692287972,0
2025-04-22T12:15:40.393+03:00,1745313339.469681,40.95212370955056,29.14023444794606,75.95811,-1,-1,-1,-1,30,23.14434125577553,-9999,29675.73065441667,-0.8267059326171875,0.5126495361328125,-0.2294921875,29675.72815241667,-1.096973058647425,-1.284093316329408,-0.5313796514780043,-0.01628872752189636,0.007961615920066833,-0.01380625832825899,0.0004110932350158691,0.01001548767089844,0.01453351974487305,XArbitraryZVertical,-0.4807177455817223,-0.3834214525490067,-0.2687451252276019,0.7414002622781345,-0.8269186615943909,0.5067232251167297,-0.2437968850135803,0,0,0,-1,-1,29661.316794875,unknown,2,2025-04-22T12:15:07.401+03:00,2025-04-21T17:08:51.449+03:00,7224,0.9707136,0,0,6027.237,5,20,2025-04-22T12:15:09.980+03:00,767006094.6096033,0,-20.45,100.4477,1,0.85,2025-04-22T12:14:03.331+03:00,112,1.866666666666667,2025-04-22T09:54:17.825+03:00,0.02225348692287972,0
2025-04-22T12:15:40.406+03:00,1745313339.469681,40.95212370955056,29.14023444794606,75.95811,-1,-1,-1,-1,30,23.14434125577553,-9999,29675.74073041667,-0.8265838623046875,0.5083770751953125,-0.2310638427734375,29675.73822841667,-1.097238121777325,-1.284192518114394,-0.5313568532108461,-0.01844189316034317,0.009718770161271095,-0.008705772459506989,0.0001869797706604004,0.004892885684967041,0.01442421972751617,XArbitraryZVertical,-0.480775311905329,-0.3834006326808672,-0.2688264040540687,0.7413442279302179,-0.8269538879394531,0.5067035555839539,-0.2437181025743484,0,0,0,-1,-1,29661.316794875,unknown,2,2025-04-22T12:15:07.401+03:00,2025-04-21T17:08:51.449+03:00,7224,0.9707136,0,0,6027.237,5,20,2025-04-22T12:15:09.980+03:00,767006094.6096033,0,-20.45,100.4477,1,0.85,2025-04-22T12:14:03.331+03:00,112,1.866666666666667,2025-04-22T09:54:17.825+03:00,0.02225348692287972,0
2025-04-22T12:15:40.413+03:00,1745313339.469681,40.95212370955056,29.14023444794606,75.95811,-1,-1,-1,-1,30,23.14434125577553,-9999,29675.75080641667,-0.826324462890625,0.5078277587890625,-0.2326507568359375,29675.74830441667,-1.097520005010931,-1.284263348579981,-0.5313475251641421,-0.01943292282521725,0.01163111906498671,-0.009158809669315815,0.0001477599143981934,0.001925468444824219,0.0126274973154068,XArbitraryZVertical,-0.4808361760019337,-0.3833616265467356,-0.2689166698443731,0.7412921859937613,-0.8269757032394409,0.5066955089569092,-0.2436608672142029,0,0,0,-1,-1,29661.316794875,unknown,2,2025-04-22T12:15:07.401+03:00,2025-04-21T17:08:51.449+03:00,7224,0.9707136,0,0,6027.237,5,20,2025-04-22T12:15:09.980+03:00,767006094.6096033,0,-20.45,100.4477,1,0.85,2025-04-22T12:14:03.331+03:00,112,1.866666666666667,2025-04-22T09:54:17.825+03:00,0.02225348692287972,0
2025-04-22T12:15:40.423+03:00,1745313339.469681,40.95212370955056,29.14023444794606,75.95811,-1,-1,-1,-1,30,23.14434125577553,-9999,29675.76088241667,-0.8257598876953125,0.5079345703125,-0.235015869140625,29675.75838041667,-1.097788945620004,-1.284299993688415,-0.5313491401772114,-0.02242738008499146,0.01473663188517094,-0.009446164593100548,0.0007510781288146973,0.00131380558013916,0.01055228710174561,XArbitraryZVertical,-0.4808930746804948,-0.3833101413166149,-0.2690070817449884,0.741249199696325,-0.8269839286804199,0.5066969394683838,-0.2436303794384003,0,0,0,-1,-1,29661.316794875,unknown,2,2025-04-22T12:15:07.401+03:00,2025-04-21T17:08:51.449+03:00,7224,0.9707136,0,0,6027.237,5,20,2025-04-22T12:15:09.980+03:00,767006094.6096033,0,-20.45,100.4477,1,0.85,2025-04-22T12:14:03.331+03:00,112,1.866666666666667,2025-04-22T09:54:17.825+03:00,0.02225348692287972,0
2025-04-22T12:15:40.433+03:00,1745313339.469681,40.95212370955056,29.14023444794606,75.95811,-1,-1,-1,-1,30,23.14434125577553,-9999,29675.77095841667,-0.82464599609375,0.5113525390625,-0.23626708984375,29675.76845641667,-1.098072106395066,-1.284331671275661,-0.5313549739191096,-0.02217964082956314,0.0128671582788229,-0.006840227637439966,0.0005269646644592285,0.001568257808685303,0.008327990770339966,XArbitraryZVertical,-0.4809532733884594,-0.3832522323396012,-0.2691026577183266,0.7412054204683393,-0.8269888758659363,0.5067019462585449,-0.2436033487319946,0,0,0,-1,-1,29661.316794875,unknown,2,2025-04-22T12:15:07.401+03:00,2025-04-21T17:08:51.449+03:00,7224,0.9707136,0,0,6027.237,5,20,2025-04-22T12:15:09.980+03:00,767006094.6096033,0,-20.45,100.4477,1,0.85,2025-04-22T12:14:03.331+03:00,112,1.866666666666667,2025-04-22T09:54:17.825+03:00,0.02225348692287972,0
2025-04-22T12:15:40.443+03:00,1745313339.469681,40.95212370955056,29.14023444794606,75.95811,-1,-1,-1,-1,30,23.14434125577553,-9999,29675.78103441667,-0.82623291015625,0.51373291015625,-0.2379150390625,29675.77853241667,-1.098384175670653,-1.284381457638918,-0.5313715777676498,-0.0187260527163744,0.01303014345467091,-0.007141431327909231,0.001797497272491455,0.005215883255004883,0.006331339478492737,XArbitraryZVertical,-0.4810246275126483,-0.3831911244653199,-0.2692012823340543,0.7411547306586496,-0.8269927501678467,0.506716251373291,-0.2435597330331802,0,0,0,-1,-1,29661.316794875,unknown,2,2025-04-22T12:15:07.401+03:00,2025-04-21T17:08:51.449+03:00,7224,0.9707136,0,0,6027.237,5,20,2025-04-22T12:15:09.980+03:00,767006094.6096033,0,-20.45,100.4477,1,0.85,2025-04-22T12:14:03.331+03:00,112,1.866666666666667,2025-04-22T09:54:17.825+03:00,0.02225348692287972,0
2025-04-22T12:15:40.453+03:00,1745313339.469681,40.95212370955056,29.14023444794606,75.95811,-1,-1,-1,-1,30,23.14434125577553,-9999,29675.79111041667,-0.8267974853515625,0.5173187255859375,-0.2386932373046875,29675.78860841667,-1.098599889642514,-1.284380082440454,-0.5313782491617939,-0.009063838049769402,0.01890401169657707,-0.01171660795807838,0.000649571418762207,0.007209062576293945,0.005522757768630981,XArbitraryZVertical,-0.4810676833300961,-0.3831369447029531,-0.269279547311883,0.7411263888296198,-0.8269891738891602,0.5067220330238342,-0.2435599267482758,0,0,0,-1,-1,29661.316794875,unknown,2,2025-04-22T12:15:07.401+03:00,2025-04-21T17:08:51.449+03:00,7224,0.9707136,0,0,6027.237,5,20,2025-04-22T12:15:09.980+03:00,767006094.6096033,0,-20.45,100.4477,1,0.85,2025-04-22T12:14:03.331+03:00,112,1.866666666666667,2025-04-22T09:54:17.825+03:00,0.02225348692287972,0
2025-04-22T12:15:40.463+03:00,1745313339.469681,40.95212370955056,29.14023444794606,75.95811,-1,-1,-1,-1,30,23.14434125577553,-9999,29675.80118641667,-0.8289947509765625,0.5146331787109375,-0.2306671142578125,29675.79868441667,-1.09878485457745,-1.284307978909665,-0.5313631215145617,-0.009864650666713715,0.02404125034809113,-0.009091796353459358,-0.0005508661270141602,0.01071637868881226,0.005462542176246643,XArbitraryZVertical,-0.4810890341112062,-0.3830698050827401,-0.2693699947523027,0.7411143824373564,-0.8269789814949036,0.5067089796066284,-0.2436217367649078,0,0,0,-1,-1,29661.316794875,unknown,2,2025-04-22T12:15:07.401+03:00,2025-04-21T17:08:51.449+03:00,7224,0.9707136,0,0,6027.237,5,20,2025-04-22T12:15:09.980+03:00,767006094.6096033,0,-20.45,100.4477,1,0.85,2025-04-22T12:14:03.331+03:00,112,1.866666666666667,2025-04-22T09:54:17.825+03:00,0.02225348692287972,0
2025-04-22T12:15:40.473+03:00,1745313339.469681,40.95212370955056,29.14023444794606,75.95811,-1,-1,-1,-1,30,23.14434125577553,-9999,29675.81126241667,-0.8265838623046875,0.50518798828125,-0.23046875,29675.80876041667,-1.09897390822142,-1.284218779806885,-0.5313952105524149,-0.0104080680757761,0.02643396705389023,-0.00305940443649888,-0.002770185470581055,0.00768280029296875,0.01386302709579468,XArbitraryZVertical,-0.4811224573922873,-0.3829826637827664,-0.2694518539545162,0.7411080203444466,-0.8269417285919189,0.5067366361618042,-0.2436909228563309,0,0,0,-1,-1,29661.316794875,unknown,2,2025-04-22T12:15:07.401+03:00,2025-04-21T17:08:51.449+03:00,7224,0.9707136,0,0,6027.237,5,20,2025-04-22T12:15:09.980+03:00,767006094.6096033,0,-20.45,100.4477,1,0.85,2025-04-22T12:14:03.331+03:00,112,1.866666666666667,2025-04-22T09:54:17.825+03:00,0.02225348692287972,0
2025-04-22T12:15:40.483+03:00,1745313339.469681,40.95212370955056,29.14023444794606,75.95811,-1,-1,-1,-1,30,23.14434125577553,-9999,29675.82133841667,-0.8200225830078125,0.506805419921875,-0.2303009033203125,29675.81883641667,-1.099202086798654,-1.284165564098566,-0.5314180059376853,-0.01789128594100475,0.01954436860978603,-0.007661879528313875,0.001142561435699463,-0.002026200294494629,0.01324760913848877,XArbitraryZVertical,-0.4811655352995807,-0.3829019331727567,-0.2695423501692677,0.7410888973533496,-0.8269177079200745,0.5067563056945801,-0.243731677532196,0,0,0,-1,-1,29661.316794875,unknown,2,2025-04-22T12:15:07.401+03:00,2025-04-21T17:08:51.449+03:00,7224,0.9707136,0,0,6027.237,5,20,2025-04-22T12:15:09.980+03:00,767006094.6096033,0,-20.45,100.4477,1,0.85,2025-04-22T12:14:03.331+03:00,112,1.866666666666667,2025-04-22T09:54:17.825+03:00,0.02225348692287972,0
2025-04-22T12:15:40.494+03:00,1745313339.469681,40.95212370955056,29.14023444794606,75.95811,-1,-1,-1,-1,30,23.14434125577553,-9999,29675.83141441667,-0.8205718994140625,0.506805419921875,-0.2319488525390625,29675.82891241667,-1.099523060357868,-1.284165643463763,-0.5314514271627706,-0.02721254900097847,0.0237911120057106,-0.005393898114562035,0.007199347019195557,2.014636993408203e-05,0.01368522644042969,XArbitraryZVertical,-0.4812366290900487,-0.3828157484444362,-0.2696511920855459,0.7410476599401848,-0.8269014954566956,0.5067850947380066,-0.2437268197536469,0,0,0,-1,-1,29661.316794875,unknown,2,2025-04-22T12:15:07.401+03:00,2025-04-21T17:08:51.449+03:00,7224,0.9707136,0,0,6027.237,5,20,2025-04-22T12:15:09.980+03:00,767006094.6096033,0,-20.45,100.4477,1,0.85,2025-04-22T12:14:03.331+03:00,112,1.866666666666667,2025-04-22T09:54:17.825+03:00,0.02225348692287972,0
2025-04-22T12:15:40.504+03:00,1745313339.469681,40.95212370955056,29.14023444794606,75.95811,-1,-1,-1,-1,30,23.14434125577553,-9999,29675.84149041667,-0.8248443603515625,0.5046234130859375,-0.2340545654296875,29675.83898841667,-1.099877933389631,-1.284146557230122,-0.5315014869920834,-0.02710149623453617,0.02442973852157593,-0.003136070445179939,0.005690217018127441,-0.0005112290382385254,0.01200017333030701,XArbitraryZVertical,-0.4813163963075734,-0.3827098230436998,-0.2697721940264093,0.7410065470511932,-0.8268725275993347,0.506828248500824,-0.2437354326248169,0,0,0,-1,-1,29661.316794875,unknown,2,2025-04-22T12:15:07.401+03:00,2025-04-21T17:08:51.449+03:00,7224,0.9707136,0,0,6027.237,5,20,2025-04-22T12:15:09.980+03:00,767006094.6096033,0,-20.45,100.4477,1,0.85,2025-04-22T12:14:03.331+03:00,112,1.866666666666667,2025-04-22T09:54:17.825+03:00,0.02225348692287972,0
2025-04-22T12:15:40.514+03:00,1745313339.469681,40.95212370955056,29.14023444794606,75.95811,-1,-1,-1,-1,30,23.14434125577553,-9999,29675.85156641667,-0.824249267578125,0.508087158203125,-0.2334747314453125,29675.84906441667,-1.100230733779021,-1.284134282771095,-0.5315590200805056,-0.02817634679377079,0.02122116088867188,-0.005533847026526928,0.001951336860656738,-0.001537442207336426,0.009850561618804932,XArbitraryZVertical,-0.4813988575770994,-0.3826048663621571,-0.2698885027890563,0.7409647506470369,-0.8268414735794067,0.5068778395652771,-0.2437373101711273,0,0,0,-1,-1,29661.316794875,unknown,2,2025-04-22T12:15:07.401+03:00,2025-04-21T17:08:51.449+03:00,7224,0.9707136,0,0,6027.237,5,20,2025-04-22T12:15:09.980+03:00,767006094.6096033,0,-20.45,100.4477,1,0.85,2025-04-22T12:14:03.331+03:00,112,1.866666666666667,2025-04-22T09:54:17.825+03:00,0.02225348692287972,0
2025-04-22T12:15:40.526+03:00,1745313339.469681,40.95212370955056,29.14023444794606,75.95811,-1,-1,-1,-1,30,23.14434125577553,-9999,29675.86164241667,-0.82025146484375,0.5126495361328125,-0.2323760986328125,29675.85914041667,-1.100576839040018,-1.284137298865457,-0.5316041687002792,-0.02715262770652771,0.0183396227657795,-0.006174337584525347,0.003272891044616699,0.002619743347167969,0.009902611374855042,XArbitraryZVertical,-0.4814785019703494,-0.3825105071806917,-0.2700023814351237,0.7409201771782833,-0.8268201947212219,0.5069167613983154,-0.2437283247709274,0,0,0,-1,-1,29661.316794875,unknown,2,2025-04-22T12:15:07.401+03:00,2025-04-21T17:08:51.449+03:00,7224,0.9707136,0,0,6027.237,5,20,2025-04-22T12:15:09.980+03:00,767006094.6096033,0,-20.45,100.4477,1,0.85,2025-04-22T12:14:03.331+03:00,112,1.866666666666667,2025-04-22T09:54:17.825+03:00,0.02225348692287972,0
2025-04-22T12:15:40.539+03:00,1745313339.469681,40.95212370955056,29.14023444794606,75.95811,-1,-1,-1,-1,30,23.14434125577553,-9999,29675.87171841667,-0.823516845703125,0.51171875,-0.2314910888671875,29675.86921641667,-1.100946200649789,-1.284151690517641,-0.5316615687845957,-0.02833180874586105,0.02254881523549557,-0.006973252631723881,0.00625455379486084,0.00545424222946167,0.01162201166152954,XArbitraryZVertical,-0.4815675768704124,-0.3824114918035293,-0.2701184834324835,0.7408711826732349,-0.8267959356307983,0.506966233253479,-0.2437082380056381,0,0,0,-1,-1,29661.316794875,unknown,2,2025-04-22T12:15:07.401+03:00,2025-04-21T17:08:51.449+03:00,7224,0.9707136,0,0,6027.237,5,20,2025-04-22T12:15:09.980+03:00,767006094.6096033,0,-20.45,100.4477,1,0.85,2025-04-22T12:14:03.331+03:00,112,1.866666666666667,2025-04-22T09:54:17.825+03:00,0.02225348692287972,0
2025-04-22T12:15:40.544+03:00,1745313339.469681,40.95212370955056,29.14023444794606,75.95811,-1,-1,-1,-1,30,23.14434125577553,-9999,29675.88179441667,-0.8260040283203125,0.5113525390625,-0.2310333251953125,29675.87929241667,-1.101305099121746,-1.284141747706789,-0.5317246597399728,-0.02559967152774334,0.02205133624374866,-0.006882971152663231,0.002635657787322998,0.003950297832489014,0.01229256391525269,XArbitraryZVertical,-0.4816530357462455,-0.3823043943144349,-0.2702348083262746,0.7408284529725039,-0.8267627954483032,0.5070206522941589,-0.2437074035406113,0,0,0,-1,-1,29661.316794875,unknown,2,2025-04-22T12:15:07.401+03:00,2025-04-21T17:08:51.449+03:00,7224,0.9707136,0,0,6027.237,5,20,2025-04-22T12:15:09.980+03:00,767006094.6096033,0,-20.45,100.4477,1,0.85,2025-04-22T12:14:03.331+03:00,112,1.866666666666667,2025-04-22T09:54:17.825+03:00,0.02225348692287972,0
2025-04-22T12:15:40.554+03:00,1745313339.469681,40.95212370955056,29.14023444794606,75.95811,-1,-1,-1,-1,30,23.14434125577553,-9999,29675.89187041667,-0.8232269287109375,0.5124359130859375,-0.23406982421875,29675.88936841667,-1.101688597441485,-1.284181603527299,-0.5317681415378892,-0.02623137459158897,0.02166730910539627,-0.009430950507521629,0.0008083581924438477,0.004187405109405518,0.01208551228046417,XArbitraryZVertical,-0.4817442772011954,-0.3822150633301413,-0.2703541351737466,0.7407716030801926,-0.8267512321472168,0.5070581436157227,-0.2436681985855103,0,0,0,-1,-1,29661.316794875,unknown,2,2025-04-22T12:15:07.401+03:00,2025-04-21T17:08:51.449+03:00,7224,0.9707136,0,0,6027.237,5,20,2025-04-22T12:15:09.980+03:00,767006094.6096033,0,-20.45,100.4477,1,0.85,2025-04-22T12:14:03.331+03:00,112,1.866666666666667,2025-04-22T09:54:17.825+03:00,0.02225348692287972,0
2025-04-22T12:15:40.564+03:00,1745313339.469681,40.95212370955056,29.14023444794606,75.95811,-1,-1,-1,-1,30,23.14434125577553,-9999,29675.90194641667,-0.8218536376953125,0.512542724609375,-0.2349853515625,29675.89944441667,-1.102067940885805,-1.284240635632034,-0.5317747223568791,-0.02981625497341156,0.01854128949344158,-0.00666898675262928,0.003932356834411621,0.005463480949401855,0.009624853730201721,XArbitraryZVertical,-0.4818266346856103,-0.3821437792361591,-0.27047843555047,0.7407094575283383,-0.8267624378204346,0.5070638060569763,-0.2436184585094452,0,0,0,-1,-1,29661.316794875,unknown,2,2025-04-22T12:15:07.401+03:00,2025-04-21T17:08:51.449+03:00,7224,0.9707136,0,0,6027.237,5,20,2025-04-22T12:15:09.980+03:00,767006094.6096033,0,-20.45,100.4477,1,0.85,2025-04-22T12:14:03.331+03:00,112,1.866666666666667,2025-04-22T09:54:17.825+03:00,0.02225348692287972,0
2025-04-22T12:15:40.574+03:00,1745313339.469681,40.95212370955056,29.14023444794606,75.95811,-1,-1,-1,-1,30,23.14434125577553,-9999,29675.91202241667,-0.8217315673828125,0.5102081298828125,-0.2354583740234375,29675.90952041667,-1.102461565786868,-1.284298739607524,-0.5318109775236295,-0.02895905077457428,0.01952952146530151,-0.009778260253369808,0.004920721054077148,0.005661129951477051,0.008137315511703491,XArbitraryZVertical,-0.4819201392912816,-0.3820606912194474,-0.2705992866729712,0.7406473380098708,-0.8267589807510376,0.5070950388908386,-0.2435652166604996,0,0,0,-1,-1,29661.316794875,unknown,2,2025-04-22T12:15:07.401+03:00,2025-04-21T17:08:51.449+03:00,7224,0.9707136,0,0,6027.237,5,20,2025-04-22T12:15:09.980+03:00,767006094.6096033,0,-20.45,100.4477,1,0.85,2025-04-22T12:14:03.331+03:00,112,1.866666666666667,2025-04-22T09:54:17.825+03:00,0.02225348692287972,0
2025-04-22T12:15:40.584+03:00,1745313339.469681,40.95212370955056,29.14023444794606,75.95811,-1,-1,-1,-1,30,23.14434125577553,-9999,29675.92209841667,-0.8223876953125,0.5081024169921875,-0.2344512939453125,29675.91959641667,-1.102852692078352,-1.284365726793979,-0.5318521563115182,-0.02867569029331207,0.01717662066221237,-0.003944606054574251,0.005222082138061523,0.002772271633148193,0.008213400840759277,XArbitraryZVertical,-0.4820157740457773,-0.3819801438293986,-0.2707155713964193,0.740584137471445,-0.8267552256584167,0.50713050365448,-0.2435039281845093,0,0,0,-1,-1,29661.316794875,unknown,2,2025-04-22T12:15:07.401+03:00,2025-04-21T17:08:51.449+03:00,7224,0.9707136,0,0,6027.237,5,20,2025-04-22T12:15:09.980+03:00,767006094.6096033,0,-20.45,100.4477,1,0.85,2025-04-22T12:14:03.331+03:00,112,1.866666666666667,2025-04-22T09:54:17.825+03:00,0.02225348692287972,0
2025-04-22T12:15:40.594+03:00,1745313339.469681,40.95212370955056,29.14023444794606,75.95811,-1,-1,-1,-1,30,23.14434125577553,-9999,29675.93217441667,-0.823760986328125,0.5091552734375,-0.2340545654296875,29675.92967241667,-1.10326073635771,-1.28443400785078,-0.5318990670483101,-0.03400454297661781,0.01865347474813461,-0.006021538749337196,0.004361391067504883,0.001190721988677979,0.009477734565734863,XArbitraryZVertical,-0.4821164312867461,-0.3818944415204811,-0.2708360787845335,0.7405187801849336,-0.8267490863800049,0.5071709752082825,-0.2434407621622086,0,0,0,-1,-1,29661.316794875,unknown,2,2025-04-22T12:15:07.401+03:00,2025-04-21T17:08:51.449+03:00,7224,0.9707136,0,0,6027.237,5,20,2025-04-22T12:15:09.980+03:00,767006094.6096033,0,-20.45,100.4477,1,0.85,2025-04-22T12:14:03.331+03:00,112,1.866666666666667,2025-04-22T09:54:17.825+03:00,0.02225348692287972,0
2025-04-22T12:15:40.604+03:00,1745313339.469681,40.95212370955056,29.14023444794606,75.95811,-1,-1,-1,-1,30,23.14434125577553,-9999,29675.94225041667,-0.8265380859375,0.5107421875,-0.233001708984375,29675.93974841667,-1.103684290860373,-1.284494124287159,-0.5319913052368145,-0.03450654819607735,0.02233822643756866,-0.0018054882530123,0.00250011682510376,0.001477420330047607,0.009033381938934326,XArbitraryZVertical,-0.4822319731798595,-0.3817897282768662,-0.2709506207703936,0.7404556494506597,-0.826718807220459,0.5072504281997681,-0.2433778494596481,0,0,0,-1,-1,29661.316794875,unknown,2,2025-04-22T12:15:07.401+03:00,2025-04-21T17:08:51.449+03:00,7224,0.9707136,0,0,6027.237,5,20,2025-04-22T12:15:09.980+03:00,767006094.6096033,0,-20.45,100.4477,1,0.85,2025-04-22T12:14:03.331+03:00,112,1.866666666666667,2025-04-22T09:54:17.825+03:00,0.02225348692287972,0
2025-04-22T12:15:40.615+03:00,1745313339.469681,40.95212370955056,29.14023444794606,75.95811,-1,-1,-1,-1,30,23.14434125577553,-9999,29675.95232641667,-0.82635498046875,0.511932373046875,-0.2300567626953125,29675.94982441667,-1.104121575464841,-1.284533020892601,-0.5321312769951608,-0.03598147258162498,0.02429771237075329,-0.001635745167732239,-0.0003203153610229492,0.004057586193084717,0.01130044460296631,XArbitraryZVertical,-0.4823609438458297,-0.3816609570415848,-0.2710609793317811,0.7403976909937305,-0.8266602158546448,0.5073710680007935,-0.2433256655931473,0,0,0,-1,-1,29661.316794875,unknown,2,2025-04-22T12:15:07.401+03:00,2025-04-21T17:08:51.449+03:00,7224,0.9707136,0,0,6027.237,5,20,2025-04-22T12:15:09.980+03:00,767006094.6096033,0,-20.45,100.4477,1,0.85,2025-04-22T12:14:03.331+03:00,112,1.866666666666667,2025-04-22T09:54:17.825+03:00,0.02225348692287972,0
2025-04-22T12:15:40.625+03:00,1745313339.469681,40.95212370955056,29.14023444794606,75.95811,-1,-1,-1,-1,30,23.14434125577553,-9999,29675.96240241667,-0.823516845703125,0.509033203125,-0.2315216064453125,29675.95990041667,-1.104578164297148,-1.284565069354686,-0.5322595396924384,-0.03913971409201622,0.02380422875285149,-0.0003054961853194982,0.0007541775703430176,0.003596127033233643,0.01337659358978271,XArbitraryZVertical,-0.4824892770345647,-0.3815281035995262,-0.2711836388470306,0.7403376497483385,-0.8266056180000305,0.507481575012207,-0.2432808130979538,0,0,0,-1,-1,29661.316794875,unknown,2,2025-04-22T12:15:07.401+03:00,2025-04-21T17:08:51.449+03:00,7224,0.9707136,0,0,6027.237,5,20,2025-04-22T12:15:09.980+03:00,767006094.6096033,0,-20.45,100.4477,1,0.85,2025-04-22T12:14:03.331+03:00,112,1.866666666666667,2025-04-22T09:54:17.825+03:00,0.02225348692287972,0
2025-04-22T12:15:40.635+03:00,1745313339.469681,40.95212370955056,29.14023444794606,75.95811,-1,-1,-1,-1,30,23.14434125577553,-9999,29675.97247841667,-0.823486328125,0.5093231201171875,-0.2320556640625,29675.96997641667,-1.105041529586736,-1.284577105098943,-0.5324252546808641,-0.03870262205600739,0.02786162123084068,0.002604972803965211,0.002690494060516357,0.001485049724578857,0.01175597310066223,XArbitraryZVertical,-0.4826269222620925,-0.3813760572575513,-0.2713023318012317,0.7402827873832174,-0.8265278935432434,0.5076243877410889,-0.2432471066713333,0,0,0,-1,-1,29661.316794875,unknown,2,2025-04-22T12:15:07.401+03:00,2025-04-21T17:08:51.449+03:00,7224,0.9707136,0,0,6027.237,5,20,2025-04-22T12:15:09.980+03:00,767006094.6096033,0,-20.45,100.4477,1,0.85,2025-04-22T12:14:03.331+03:00,112,1.866666666666667,2025-04-22T09:54:17.825+03:00,0.02225348692287972,0
2025-04-22T12:15:40.645+03:00,1745313339.469681,40.95212370955056,29.14023444794606,75.95811,-1,-1,-1,-1,30,23.14434125577553,-9999,29675.98255441667,-0.82489013671875,0.509002685546875,-0.2344970703125,29675.98005241667,-1.105488072684102,-1.284571736801228,-0.5326178102776596,-0.03574438393115997,0.02455104514956474,0.003735218429937959,0.002519190311431885,0.00220412015914917,0.0104205310344696,XArbitraryZVertical,-0.4827666472747972,-0.3812143513813057,-0.2714109121498018,0.7402352102729449,-0.8264328241348267,0.5077902674674988,-0.2432239651679993,0,0,0,-1,-1,29661.316794875,unknown,2,2025-04-22T12:15:07.401+03:00,2025-04-21T17:08:51.449+03:00,7224,0.9707136,0,0,6027.237,5,20,2025-04-22T12:15:09.980+03:00,767006094.6096033,0,-20.45,100.4477,1,0.85,2025-04-22T12:14:03.331+03:00,112,1.866666666666667,2025-04-22T09:54:17.825+03:00,0.02225348692287972,0
2025-04-22T12:15:40.655+03:00,1745313339.469681,40.95212370955056,29.14023444794606,75.95811,-1,-1,-1,-1,30,23.14434125577553,-9999,29675.99263041667,-0.8220062255859375,0.509735107421875,-0.234466552734375,29675.99012841667,-1.105883969955103,-1.284553050234212,-0.5328035921616144,-0.03244219720363617,0.0235343836247921,0.003565241815522313,0.001737475395202637,0.001387953758239746,0.008669853210449219,XArbitraryZVertical,-0.4828929789934662,-0.3810616841084861,-0.2715059502565231,0.7401964522128882,-0.8263376355171204,0.5079503059387207,-0.2432127296924591,0,0,0,-1,-1,29661.316794875,unknown,2,2025-04-22T12:15:07.401+03:00,2025-04-21T17:08:51.449+03:00,7224,0.9707136,0,0,6027.237,5,20,2025-04-22T12:15:09.980+03:00,767006094.6096033,0,-20.45,100.4477,1,0.85,2025-04-22T12:14:03.331+03:00,112,1.866666666666667,2025-04-22T09:54:17.825+03:00,0.02225348692287972,0
2025-04-22T12:15:40.665+03:00,1745313339.469681,40.95212370955056,29.14023444794606,75.95811,-1,-1,-1,-1,30,23.14434125577553,-9999,29676.00270641667,-0.8225250244140625,0.51446533203125,-0.2368621826171875,29676.00020441667,-1.106279361235771,-1.284540894745814,-0.5329837095590446,-0.04237046092748642,0.02472455054521561,0.004828912205994129,0.004637420177459717,0.001965224742889404,0.009218573570251465,XArbitraryZVertical,-0.4830183926941513,-0.3809130721572865,-0.2716009506323187,0.7401562431752077,-0.8262468576431274,0.508105456829071,-0.2431969344615936,0,0,0,-1,-1,29661.316794875,unknown,2,2025-04-22T12:15:07.401+03:00,2025-04-21T17:08:51.449+03:00,7224,0.9707136,0,0,6027.237,5,20,2025-04-22T12:15:09.980+03:00,767006094.6096033,0,-20.45,100.4477,1,0.85,2025-04-22T12:14:03.331+03:00,112,1.866666666666667,2025-04-22T09:54:17.825+03:00,0.02225348692287972,0
2025-04-22T12:15:40.675+03:00,1745313339.469681,40.95212370955056,29.14023444794606,75.95811,-1,-1,-1,-1,30,23.14434125577553,-9999,29676.01278241667,-0.8275146484375,0.51116943359375,-0.2342987060546875,29676.01028041667,-1.106800318874753,-1.284579478082054,-0.5331823425222433,-0.04731734842061996,0.02674715407192707,0.006553541868925095,0.003787040710449219,0.006722688674926758,0.006030216813087463,XArbitraryZVertical,-0.4831798818027257,-0.3807478596870396,-0.2717245719375313,0.7400904400938892,-0.8261594176292419,0.5082765221595764,-0.243136540055275,0,0,0,-1,-1,29661.316794875,unknown,2,2025-04-22T12:15:07.401+03:00,2025-04-21T17:08:51.449+03:00,7224,0.9707136,0,0,6027.237,5,20,2025-04-22T12:15:09.980+03:00,767006094.6096033,0,-20.45,100.4477,1,0.85,2025-04-22T12:14:03.331+03:00,112,1.866666666666667,2025-04-22T09:54:17.825+03:00,0.02225348692287972,0
2025-04-22T12:15:40.685+03:00,1745313339.469681,40.95212370955056,29.14023444794606,75.95811,-1,-1,-1,-1,30,23.14434125577553,-9999,29676.02285841667,-0.8270263671875,0.505096435546875,-0.2331695556640625,29676.02035641667,-1.107367664955921,-1.28463139744907,-0.5334198213185958,-0.04998317360877991,0.02629175409674644,0.009300592355430126,-0.001916110515594482,0.002230525016784668,0.009111762046813965,XArbitraryZVertical,-0.4833630608736207,-0.3805658380324282,-0.2718504385748109,0.740018283541546,-0.8260563015937805,0.5084810256958008,-0.2430595904588699,0,0,0,-1,-1,29661.316794875,unknown,2,2025-04-22T12:15:07.401+03:00,2025-04-21T17:08:51.449+03:00,7224,0.9707136,0,0,6027.237,5,20,2025-04-22T12:15:09.980+03:00,767006094.6096033,0,-20.45,100.4477,1,0.85,2025-04-22T12:14:03.331+03:00,112,1.866666666666667,2025-04-22T09:54:17.825+03:00,0.02225348692287972,0
2025-04-22T12:15:40.695+03:00,1745313339.469681,40.95212370955056,29.14023444794606,75.95811,-1,-1,-1,-1,30,23.14434125577553,-9999,29676.03293441667,-0.825225830078125,0.510009765625,-0.2352752685546875,29676.03043241667,-1.107909189880203,-1.284690331263361,-0.5336765058523653,-0.04272039979696274,0.02610433474183083,0.01072408445179462,-0.0006384849548339844,-0.00371253490447998,0.009682416915893555,XArbitraryZVertical,-0.4835477329915253,-0.3803873737826966,-0.2719592323134599,0.7399494405867189,-0.8259453773498535,0.5087020397186279,-0.2429740726947784,0,0,0,-1,-1,29661.316794875,unknown,2,2025-04-22T12:15:07.401+03:00,2025-04-21T17:08:51.449+03:00,7224,0.9707136,0,0,6027.237,5,20,2025-04-22T12:15:09.980+03:00,767006094.6096033,0,-20.45,100.4477,1,0.85,2025-04-22T12:14:03.331+03:00,112,1.866666666666667,2025-04-22T09:54:17.825+03:00,0.02225348692287972,0
2025-04-22T12:15:40.705+03:00,1745313339.469681,40.95212370955056,29.14023444794606,75.95811,-1,-1,-1,-1,30,23.14434125577553,-9999,29676.04301041667,-0.8245849609375,0.511322021484375,-0.2357635498046875,29676.04050841667,-1.10844484654991,-1.284751580396153,-0.5339443684953082,-0.05412352457642555,0.02684282884001732,0.01186578162014484,0.0005274415016174316,0.001214325428009033,0.007884383201599121,XArbitraryZVertical,-0.483734731843367,-0.3802080875467312,-0.2720619039684881,0.7398816480819481,-0.8258295655250549,0.5089326500892639,-0.2428850382566452,0,0,0,-1,-1,29661.316794875,unknown,2,2025-04-22T12:15:07.401+03:00,2025-04-21T17:08:51.449+03:00,7224,0.9707136,0,0,6027.237,5,20,2025-04-22T12:15:09.980+03:00,767006094.6096033,0,-20.45,100.4477,1,0.85,2025-04-22T12:14:03.331+03:00,112,1.866666666666667,2025-04-22T09:54:17.825+03:00,0.02225348692287972,0
2025-04-22T12:15:40.716+03:00,1745313339.469681,40.95212370955056,29.14023444794606,75.95811,-1,-1,-1,-1,30,23.14434125577553,-9999,29676.05308641667,-0.82513427734375,0.5072174072265625,-0.23260498046875,29676.05058441667,-1.109452452983673,-1.285061482732616,-0.5343578449105063,-0.1719983667135239,0.02145858108997345,0.02049688808619976,0.0011025071144104,0.002231717109680176,0.006897687911987305,XArbitraryZVertical,-0.4840869459453793,-0.379967051723933,-0.2722350326218741,0.7397113265595332,-0.8257027268409729,0.509288489818573,-0.2425697296857834,0,0,0,-1,-1,29661.316794875,unknown,2,2025-04-22T12:15:07.401+03:00,2025-04-21T17:08:51.449+03:00,7224,0.9707136,0,0,6027.237,5,20,2025-04-22T12:15:09.980+03:00,767006094.6096033,0,-20.45,100.4477,1,0.85,2025-04-22T12:14:03.331+03:00,112,1.866666666666667,2025-04-22T09:54:17.825+03:00,0.02225348692287972,0
2025-04-22T12:15:40.726+03:00,1745313339.469681,40.95212370955056,29.14023444794606,75.95811,-1,-1,-1,-1,30,23.14434125577553,-9999,29676.06316241667,-0.828887939453125,0.485565185546875,-0.2148284912109375,29676.06066041667,-1.11193558770329,-1.285956793642874,-0.5351820251964787,-0.2411760985851288,0.05116667598485947,0.02326391264796257,0.0006263852119445801,-0.004458844661712646,0.009824454784393311,XArbitraryZVertical,-0.4849162614004326,-0.379473369080319,-0.2726878957205727,0.7392546585984123,-0.8255165219306946,0.5099976062774658,-0.241712361574173,0,0,0,-1,-1,29661.316794875,unknown,2,2025-04-22T12:15:07.401+03:00,2025-04-21T17:08:51.449+03:00,7224,0.9707136,0,0,6027.237,5,20,2025-04-22T12:15:09.980+03:00,767006094.6096033,0,-20.45,100.4477,1,0.85,2025-04-22T12:14:03.331+03:00,112,1.866666666666667,2025-04-22T09:54:17.825+03:00,0.02225348692287972,0
2025-04-22T12:15:40.736+03:00,1745313339.469681,40.95212370955056,29.14023444794606,75.95811,-1,-1,-1,-1,30,23.14434125577553,-9999,29676.07323841667,-0.8320465087890625,0.460052490234375,-0.243011474609375,29676.07073641667,-1.114593471683859,-1.286902988832383,-0.5361882273133115,-0.2364029884338379,0.03009914234280586,0.03441226854920387,-0.004872024059295654,-0.03126400709152222,0.02586722373962402,XArbitraryZVertical,-0.4858366939816083,-0.3789050649708545,-0.2731370407449919,0.7387759088428185,-0.8252518773078918,0.5108628869056702,-0.2407873123884201,0,0,0,-1,-1,29661.316794875,unknown,2,2025-04-22T12:15:07.401+03:00,2025-04-21T17:08:51.449+03:00,7224,0.9707136,0,0,6027.237,5,20,2025-04-22T12:15:09.980+03:00,767006094.6096033,0,-20.45,100.4477,1,0.85,2025-04-22T12:14:03.331+03:00,112,1.866666666666667,2025-04-22T09:54:17.825+03:00,0.02225348692287972,0
2025-04-22T12:15:40.746+03:00,1745313339.469681,40.95212370955056,29.14023444794606,75.95811,-1,-1,-1,-1,30,23.14434125577553,-9999,29676.08331441667,-0.8207244873046875,0.509613037109375,-0.2379150390625,29676.08081241667,-1.11691375918423,-1.287828479791426,-0.5370558539803377,-0.1918749362230301,0.02584607526659966,0.02018273621797562,-0.005456984043121338,-0.04868757724761963,-0.005888998508453369,XArbitraryZVertical,-0.4866498237854269,-0.3784470266774514,-0.273507183876791,0.7383384040649448,-0.8250483870506287,0.5116085410118103,-0.2398995906114578,0,0,0,-1,-1,29661.316794875,unknown,2,2025-04-22T12:15:07.401+03:00,2025-04-21T17:08:51.449+03:00,7224,0.9707136,0,0,6027.237,5,20,2025-04-22T12:15:09.980+03:00,767006094.6096033,0,-20.45,100.4477,1,0.85,2025-04-22T12:14:03.331+03:00,112,1.866666666666667,2025-04-22T09:54:17.825+03:00,0.02225348692287972,0
2025-04-22T12:15:40.756+03:00,1745313339.469681,40.95212370955056,29.14023444794606,75.95811,-1,-1,-1,-1,30,23.14434125577553,-9999,29676.09339041667,-0.8210906982421875,0.527587890625,-0.236785888671875,29676.09088841667,-1.118925079721501,-1.288593505309938,-0.5378396624220365,-0.1807455122470856,0.03006112575531006,0.03011262975633144,0.005144059658050537,0.003617644309997559,0.002004444599151611,XArbitraryZVertical,-0.4873579262758411,-0.3780264061216781,-0.2738267324473115,0.7379682215071773,-0.8248462080955505,0.5122818350791931,-0.239156574010849,0,0,0,-1,-1,29661.316794875,unknown,2,2025-04-22T12:15:07.401+03:00,2025-04-21T17:08:51.449+03:00,7224,0.9707136,0,0,6027.237,5,20,2025-04-22T12:15:09.980+03:00,767006094.6096033,0,-20.45,100.4477,1,0.85,2025-04-22T12:14:03.331+03:00,112,1.866666666666667,2025-04-22T09:54:17.825+03:00,0.02225348692287972,0
2025-04-22T12:15:40.766+03:00,1745313339.469681,40.95212370955056,29.14023444794606,75.95811,-1,-1,-1,-1,30,23.14434125577553,-9999,29676.10346641667,-0.82965087890625,0.52362060546875,-0.2311859130859375,29676.10096441667,-1.120857969399913,-1.289237407493935,-0.5386164614738281,-0.1762466430664062,0.04271566867828369,0.03007827512919903,0.003130078315734863,0.01434898376464844,0.002400219440460205,XArbitraryZVertical,-0.4880319367571496,-0.3775810546918739,-0.2741483158713524,0.7376312831432954,-0.8246174454689026,0.5129488110542297,-0.2385147511959076,0,0,0,-1,-1,29661.316794875,unknown,2,2025-04-22T12:15:07.401+03:00,2025-04-21T17:08:51.449+03:00,7224,0.9707136,0,0,6027.237,5,20,2025-04-22T12:15:09.980+03:00,767006094.6096033,0,-20.45,100.4477,1,0.85,2025-04-22T12:14:03.331+03:00,112,1.866666666666667,2025-04-22T09:54:17.825+03:00,0.02225348692287972,0
2025-04-22T12:15:40.776+03:00,1745313339.469681,40.95212370955056,29.14023444794606,75.95811,-1,-1,-1,-1,30,23.14434125577553,-9999,29676.11354241667,-0.831268310546875,0.51837158203125,-0.229705810546875,29676.11104041667,-1.122688921294432,-1.289789393146051,-0.5393365037248581,-0.1565460413694382,0.03706377372145653,0.02720452472567558,-0.005806148052215576,0.009626388549804688,0.007259398698806763,XArbitraryZVertical,-0.4886573333617267,-0.377141203918812,-0.2744713157270666,0.7373220738987998,-0.8243939280509949,0.513566792011261,-0.2379570454359055,0,0,0,-1,-1,29661.316794875,unknown,2,2025-04-22T12:15:07.401+03:00,2025-04-21T17:08:51.449+03:00,7224,0.9707136,0,0,6027.237,5,20,2025-04-22T12:15:09.980+03:00,767006094.6096033,0,-20.45,100.4477,1,0.85,2025-04-22T12:14:03.331+03:00,112,1.866666666666667,2025-04-22T09:54:17.825+03:00,0.02225348692287972,0
2025-04-22T12:15:40.786+03:00,1745313339.469681,40.95212370955056,29.14023444794606,75.95811,-1,-1,-1,-1,30,23.14434125577553,-9999,29676.12361841667,-0.8239898681640625,0.527984619140625,-0.2272491455078125,29676.12111641667,-1.124287212896063,-1.29029797016801,-0.5399383321801723,-0.141844853758812,0.03103571012616158,0.01592417247593403,-0.007264137268066406,0.005203843116760254,0.007929399609565735,XArbitraryZVertical,-0.489198849808431,-0.3767736843894802,-0.2747543998125955,0.7370454294534059,-0.8242177367210388,0.5140830874443054,-0.2374521493911743,0,0,0,-1,-1,29661.316794875,unknown,2,2025-04-22T12:15:07.401+03:00,2025-04-21T17:08:51.449+03:00,7224,0.9707136,0,0,6027.237,5,20,2025-04-22T12:15:09.980+03:00,767006094.6096033,0,-20.45,100.4477,1,0.85,2025-04-22T12:14:03.331+03:00,112,1.866666666666667,2025-04-22T09:54:17.825+03:00,0.02225348692287972,0
2025-04-22T12:15:40.796+03:00,1745313339.469681,40.95212370955056,29.14023444794606,75.95811,-1,-1,-1,-1,30,23.14434125577553,-9999,29676.13369441667,-0.822662353515625,0.525482177734375,-0.2299652099609375,29676.13119241667,-1.125928948687494,-1.290776228636543,-0.5404544948818529,-0.158711314201355,0.0422472208738327,0.01031815353780985,0.00110858678817749,0.01496928930282593,0.009475961327552795,XArbitraryZVertical,-0.4897197373191974,-0.3764070930491569,-0.2750863710465489,0.7367629179298226,-0.8240760564804077,0.5145257711410522,-0.2369845509529114,0,0,0,-1,-1,29661.316794875,unknown,2,2025-04-22T12:15:07.401+03:00,2025-04-21T17:08:51.449+03:00,7224,0.9707136,0,0,6027.237,5,20,2025-04-22T12:15:09.980+03:00,767006094.6096033,0,-20.45,100.4477,1,0.85,2025-04-22T12:14:03.331+03:00,112,1.866666666666667,2025-04-22T09:54:17.825+03:00,0.02225348692287972,0
2025-04-22T12:15:40.806+03:00,1745313339.469681,40.95212370955056,29.14023444794606,75.95811,-1,-1,-1,-1,30,23.14434125577553,-9999,29676.14377041667,-0.8326263427734375,0.5004425048828125,-0.223663330078125,29676.14126841667,-1.127912822925474,-1.291345030830319,-0.541047736899185,-0.1863530725240707,0.05024868622422218,0.01558615174144506,-0.0001336932182312012,0.006816089153289795,0.006710410118103027,XArbitraryZVertical,-0.4903387381847508,-0.3759682680096609,-0.275498487270017,0.736421257675695,-0.8239172101020813,0.5150343775749207,-0.2364315688610077,0,0,0,-1,-1,29661.316794875,unknown,2,2025-04-22T12:15:07.401+03:00,2025-04-21T17:08:51.449+03:00,7224,0.9707136,0,0,6027.237,5,20,2025-04-22T12:15:09.980+03:00,767006094.6096033,0,-20.45,100.4477,1,0.85,2025-04-22T12:14:03.331+03:00,112,1.866666666666667,2025-04-22T09:54:17.825+03:00,0.02225348692287972,0
2025-04-22T12:15:40.816+03:00,1745313339.469681,40.95212370955056,29.14023444794606,75.95811,-1,-1,-1,-1,30,23.14434125577553,-9999,29676.15384641667,-0.8282623291015625,0.506622314453125,-0.2272186279296875,29676.15134441667,-1.130061931337922,-1.29207676146519,-0.5415374414522806,-0.1827458143234253,0.04723265394568443,0.01336520910263062,-0.008519470691680908,-0.01653760671615601,0.01296557486057281,XArbitraryZVertical,-0.4909815249708452,-0.375576287326979,-0.2759621278519417,0.7360192659611476,-0.8238473534584045,0.5154540538787842,-0.2357591837644577,0,0,0,-1,-1,29661.316794875,unknown,2,2025-04-22T12:15:07.401+03:00,2025-04-21T17:08:51.449+03:00,7224,0.9707136,0,0,6027.237,5,20,2025-04-22T12:15:09.980+03:00,767006094.6096033,0,-20.45,100.4477,1,0.85,2025-04-22T12:14:03.331+03:00,112,1.866666666666667,2025-04-22T09:54:17.825+03:00,0.02225348692287972,0
2025-04-22T12:15:40.826+03:00,1745313339.469681,40.95212370955056,29.14023444794606,75.95811,-1,-1,-1,-1,30,23.14434125577553,-9999,29676.16392241667,-0.8249969482421875,0.523681640625,-0.240386962890625,29676.16142041667,-1.131970380060951,-1.292530904872446,-0.5418912293391432,-0.1700931340456009,0.05094696581363678,0.01307092979550362,-0.003079473972320557,-0.005884945392608643,0.006575062870979309,XArbitraryZVertical,-0.4915020613991472,-0.3751776457220621,-0.2764458564233164,0.7356935636727923,-0.8237789869308472,0.5157572031021118,-0.2353349179029465,0,0,0,-1,-1,29661.316794875,unknown,2,2025-04-22T12:15:07.401+03:00,2025-04-21T17:08:51.449+03:00,7224,0.9707136,0,0,6027.237,5,20,2025-04-22T12:15:09.980+03:00,767006094.6096033,0,-20.45,100.4477,1,0.85,2025-04-22T12:14:03.331+03:00,112,1.866666666666667,2025-04-22T09:54:17.825+03:00,0.02225348692287972,0
2025-04-22T12:15:40.836+03:00,1745313339.469681,40.95212370955056,29.14023444794606,75.95811,-1,-1,-1,-1,30,23.14434125577553,-9999,29676.17399841667,-0.831085205078125,0.526611328125,-0.2337188720703125,29676.17149641667,-1.133827740494249,-1.292936706922618,-0.5425425895923551,-0.1584276258945465,0.05976609140634537,0.02146844193339348,-0.0017203688621521,0.007610440254211426,-0.005417555570602417,XArbitraryZVertical,-0.4920895733907777,-0.3746914120878678,-0.2768323160072907,0.7354032177443812,-0.8235511183738708,0.5163151025772095,-0.234908401966095,0,0,0,-1,-1,29661.316794875,unknown,2,2025-04-22T12:15:07.401+03:00,2025-04-21T17:08:51.449+03:00,7224,0.9707136,0,0,6027.237,5,20,2025-04-22T12:15:09.980+03:00,767006094.6096033,0,-20.45,100.4477,1,0.85,2025-04-22T12:14:03.331+03:00,112,1.866666666666667,2025-04-22T09:54:17.825+03:00,0.02225348692287972,0
2025-04-22T12:15:40.847+03:00,1745313339.469681,40.95212370955056,29.14023444794606,75.95811,-1,-1,-1,-1,30,23.14434125577553,-9999,29676.18407441667,-0.834381103515625,0.5339202880859375,-0.22869873046875,29676.18157241667,-1.135493852367788,-1.293150908743829,-0.5432262616992087,-0.1436902284622192,0.0670277327299118,0.01592400670051575,-0.008632063865661621,0.01135855913162231,0.002213254570960999,XArbitraryZVertical,-0.4926231685135383,-0.3741721852418915,-0.2771855040934351,0.7351772730422984,-0.8232617974281311,0.5169004797935486,-0.2346351742744446,0,0,0,-1,-1,29661.316794875,unknown,2,2025-04-22T12:15:07.401+03:00,2025-04-21T17:08:51.449+03:00,7224,0.9707136,0,0,6027.237,5,20,2025-04-22T12:15:09.980+03:00,767006094.6096033,0,-20.45,100.4477,1,0.85,2025-04-22T12:14:03.331+03:00,112,1.866666666666667,2025-04-22T09:54:17.825+03:00,0.02225348692287972,0
2025-04-22T12:15:40.857+03:00,1745313339.469681,40.95212370955056,29.14023444794606,75.95811,-1,-1,-1,-1,30,23.14434125577553,-9999,29676.19415041667,-0.8325958251953125,0.5275726318359375,-0.222412109375,29676.19164841667,-1.137067176930012,-1.293272846653914,-0.5438035022611177,-0.1452970504760742,0.06578975915908813,0.01819468475878239,-0.01110309362411499,0.0164949893951416,0.006929174065589905,XArbitraryZVertical,-0.4930961627267667,-0.3736705425202183,-0.2775592453467784,0.7349742749625449,-0.8230032920837402,0.5173945426940918,-0.2344529926776886,0,0,0,-1,-1,29661.316794875,unknown,2,2025-04-22T12:15:07.401+03:00,2025-04-21T17:08:51.449+03:00,7224,0.9707136,0,0,6027.237,5,20,2025-04-22T12:15:09.980+03:00,767006094.6096033,0,-20.45,100.4477,1,0.85,2025-04-22T12:14:03.331+03:00,112,1.866666666666667,2025-04-22T09:54:17.825+03:00,0.02225348692287972,0
2025-04-22T12:15:40.866+03:00,1745313339.469681,40.95212370955056,29.14023444794606,75.95811,-1,-1,-1,-1,30,23.14434125577553,-9999,29676.20422641667,-0.8244781494140625,0.5314788818359375,-0.2275390625,29676.20172441667,-1.138531607777808,-1.293383493777588,-0.5443265902293424,-0.1183959171175957,0.06950434297323227,0.01647907681763172,-0.008758842945098877,0.01061528921127319,0.01147891581058502,XArbitraryZVertical,-0.4935315480967921,-0.3732060010544611,-0.2779119462853603,0.7347847741068548,-0.8227688074111938,0.5178421139717102,-0.2342877835035324,0,0,0,-1,-1,29661.316794875,unknown,2,2025-04-22T12:15:07.401+03:00,2025-04-21T17:08:51.449+03:00,7224,0.9707136,0,0,6027.237,5,20,2025-04-22T12:15:09.980+03:00,767006094.6096033,0,-20.45,100.4477,1,0.85,2025-04-22T12:14:03.331+03:00,112,1.866666666666667,2025-04-22T09:54:17.825+03:00,0.02225348692287972,0
2025-04-22T12:15:40.877+03:00,1745313339.469681,40.95212370955056,29.14023444794606,75.95811,-1,-1,-1,-1,30,23.14434125577553,-9999,29676.21430241667,-0.8247528076171875,0.4996490478515625,-0.2306365966796875,29676.21180041667,-1.139622774671079,-1.293238935860616,-0.5447689814018047,-0.07287377864122391,0.07560157775878906,0.00844202283769846,-0.001231133937835693,0.01016062498092651,0.00663699209690094,XArbitraryZVertical,-0.4938387982512418,-0.3727616849949446,-0.2782147959607305,0.734689296587955,-0.822514533996582,0.5182205438613892,-0.2343439310789108,0,0,0,-1,-1,29661.316794875,unknown,2,2025-04-22T12:15:07.401+03:00,2025-04-21T17:08:51.449+03:00,7224,0.9707136,0,0,6027.237,5,20,2025-04-22T12:15:09.980+03:00,767006094.6096033,0,-20.45,100.4477,1,0.85,2025-04-22T12:14:03.331+03:00,112,1.866666666666667,2025-04-22T09:54:17.825+03:00,0.02225348692287972,0
2025-04-22T12:15:40.887+03:00,1745313339.469681,40.95212370955056,29.14023444794606,75.95811,-1,-1,-1,-1,30,23.14434125577553,-9999,29676.22437841667,-0.8262939453125,0.5103759765625,-0.2293701171875,29676.22187641667,-1.140170428510075,-1.292757082993442,-0.5449117911477511,-0.02267079427838326,0.08210741728544235,-0.008655471727252007,-0.003246307373046875,-0.02137929201126099,0.003534018993377686,XArbitraryZVertical,-0.493913709912372,-0.3724100910727827,-0.2784918266938538,0.7347123365980713,-0.8223304152488708,0.5183426737785339,-0.2347199469804764,0,0,0,-1,-1,29661.316794875,unknown,2,2025-04-22T12:15:07.401+03:00,2025-04-21T17:08:51.449+03:00,7224,0.9707136,0,0,6027.237,5,20,2025-04-22T12:15:09.980+03:00,767006094.6096033,0,-20.45,100.4477,1,0.85,2025-04-22T12:14:03.331+03:00,112,1.866666666666667,2025-04-22T09:54:17.825+03:00,0.02225348692287972,0
2025-04-22T12:15:40.900+03:00,1745313339.469681,40.95212370955056,29.14023444794606,75.95811,-1,-1,-1,-1,30,23.14434125577553,-9999,29676.23445441667,-0.8234405517578125,0.538421630859375,-0.209442138671875,29676.23195241667,-1.140451045061639,-1.292116589986271,-0.5447274973834462,-0.01401572022587061,0.08846578001976013,-0.01438815891742706,-0.003060817718505859,-0.003567278385162354,0.006879270076751709,XArbitraryZVertical,-0.4938251010181261,-0.3721563228884661,-0.2788087638874663,0.7347803241001657,-0.8222718238830566,0.518185019493103,-0.2352728843688965,0,0,0,-1,-1,29661.316794875,unknown,2,2025-04-22T12:15:07.401+03:00,2025-04-21T17:08:51.449+03:00,7224,0.9707136,0,0,6027.237,5,20,2025-04-22T12:15:09.980+03:00,767006094.6096033,0,-20.45,100.4477,1,0.85,2025-04-22T12:14:03.331+03:00,112,1.866666666666667,2025-04-22T09:54:17.825+03:00,0.02225348692287972,0
2025-04-22T12:15:40.913+03:00,1745313339.469681,40.95212370955056,29.14023444794606,75.95811,-1,-1,-1,-1,30,23.14434125577553,-9999,29676.24453041667,-0.82110595703125,0.5355987548828125,-0.20806884765625,29676.24202841667,-1.140755838585616,-1.291345154325804,-0.5446403387210951,-0.03600970283150673,0.0973556786775589,-0.006229565013200045,-0.001062929630279541,0.02067720890045166,0.02887308597564697,XArbitraryZVertical,-0.4937497752882834,-0.3718216745649322,-0.2791375352737945,0.7348755470126224,-0.822133481502533,0.5181105136871338,-0.2359196096658707,0,0,0,-1,-1,29661.316794875,unknown,2,2025-04-22T12:15:07.401+03:00,2025-04-21T17:08:51.449+03:00,7224,0.9707136,0,0,6027.237,5,20,2025-04-22T12:15:09.980+03:00,767006094.6096033,0,-20.45,100.4477,1,0.85,2025-04-22T12:14:03.331+03:00,112,1.866666666666667,2025-04-22T09:54:17.825+03:00,0.02225348692287972,0
2025-04-22T12:15:40.917+03:00,1745313339.469681,40.95212370955056,29.14023444794606,75.95811,-1,-1,-1,-1,30,23.14434125577553,-9999,29676.25460741667,-0.8168487548828125,0.5185699462890625,-0.21319580078125,29676.25210441667,-1.141237032091723,-1.2905254679739,-0.5447235388175358,-0.04623903706669807,0.1033335402607918,-0.002983637386932969,0.000929713249206543,0.01491451263427734,0.02770388126373291,XArbitraryZVertical,-0.4937480357440966,-0.3713787071788853,-0.2794915801990682,0.7349660678079124,-0.821898341178894,0.5181816816329956,-0.2365814596414566,0,0,0,-1,-1,29661.316794875,unknown,2,2025-04-22T12:15:07.401+03:00,2025-04-21T17:08:51.449+03:00,7224,0.9707136,0,0,6027.237,5,20,2025-04-22T12:15:09.980+03:00,767006094.6096033,0,-20.45,100.4477,1,0.85,2025-04-22T12:14:03.331+03:00,112,1.866666666666667,2025-04-22T09:54:17.825+03:00,0.02225348692287972,0
2025-04-22T12:15:40.927+03:00,1745313339.469681,40.95212370955056,29.14023444794606,75.95811,-1,-1,-1,-1,30,23.14434125577553,-9999,29676.26468341667,-0.812347412109375,0.51416015625,-0.2139434814453125,29676.26218141667,-1.142041007061622,-1.289945799563938,-0.5449342548569601,-0.08326922357082367,0.1025258004665375,0.006711600348353386,0.005021035671234131,-0.001302719116210938,0.02323663234710693,XArbitraryZVertical,-0.4938751858692951,-0.3709090295132618,-0.2798665726688248,0.7349751186262466,-0.8216561079025269,0.5183618664741516,-0.2370275855064392,0,0,0,-1,-1,29661.316794875,unknown,2,2025-04-22T12:15:07.401+03:00,2025-04-21T17:08:51.449+03:00,7224,0.9707136,0,0,6027.237,5,20,2025-04-22T12:15:09.980+03:00,767006094.6096033,0,-20.45,100.4477,1,0.85,2025-04-22T12:14:03.331+03:00,112,1.866666666666667,2025-04-22T09:54:17.825+03:00,0.02225348692287972,0
2025-04-22T12:15:40.937+03:00,1745313339.469681,40.95212370955056,29.14023444794606,75.95811,-1,-1,-1,-1,30,23.14434125577553,-9999,29676.27475941667,-0.8076324462890625,0.502716064453125,-0.2262725830078125,29676.27225641667,-1.143298902805363,-1.289637715005017,-0.5453409127069425,-0.1553322970867157,0.1038701087236404,0.004165052436292171,0.01019269227981567,-0.003847718238830566,0.02243943512439728,XArbitraryZVertical,-0.4941790388926104,-0.3703727732078671,-0.2802822071083841,0.7348828295261215,-0.8213803768157959,0.5187095999717712,-0.2372221797704697,0,0,0,-1,-1,29661.316794875,unknown,2,2025-04-22T12:15:07.401+03:00,2025-04-21T17:08:51.449+03:00,7224,0.9707136,0,0,6027.237,5,20,2025-04-22T12:15:09.980+03:00,767006094.6096033,0,-20.45,100.4477,1,0.85,2025-04-22T12:14:03.331+03:00,112,1.866666666666667,2025-04-22T09:54:17.825+03:00,0.02225348692287972,0
2025-04-22T12:15:40.947+03:00,1745313339.469681,40.95212370955056,29.14023444794606,75.95811,-1,-1,-1,-1,30,23.14434125577553,-9999,29676.28483541667,-0.8095550537109375,0.4757080078125,-0.226348876953125,29676.28233341667,-1.145623964113424,-1.289963776565745,-0.5459597721147125,-0.2506598830223083,0.09951344132423401,0.008599481545388699,0.01420342922210693,-0.02065777778625488,0.00946354866027832,XArbitraryZVertical,-0.4948280057324328,-0.3697466204262477,-0.2808690726275028,0.7345374062141503,-0.8211492300033569,0.5192385911941528,-0.2368653565645218,0,0,0,-1,-1,29661.316794875,unknown,2,2025-04-22T12:15:07.401+03:00,2025-04-21T17:08:51.449+03:00,7224,0.9707136,0,0,6027.237,5,20,2025-04-22T12:15:09.980+03:00,767006094.6096033,0,-20.45,100.4477,1,0.85,2025-04-22T12:14:03.331+03:00,112,1.866666666666667,2025-04-22T09:54:17.825+03:00,0.02225348692287972,0
2025-04-22T12:15:40.957+03:00,1745313339.469681,40.95212370955056,29.14023444794606,75.95811,-1,-1,-1,-1,30,23.14434125577553,-9999,29676.29491141667,-0.807830810546875,0.4955291748046875,-0.23187255859375,29676.29240941667,-1.148624621776482,-1.290659930978431,-0.5468997315888297,-0.278666764497757,0.08144735544919968,0.01881030760705471,0.01125890016555786,-0.0436776876449585,0.01064890623092651,XArbitraryZVertical,-0.4957424271741889,-0.3689988460147639,-0.2815147814154653,0.7340494634275283,-0.8208444714546204,0.5200416445732117,-0.2361585944890976,0,0,0,-1,-1,29661.316794875,unknown,2,2025-04-22T12:15:07.401+03:00,2025-04-21T17:08:51.449+03:00,7224,0.9707136,0,0,6027.237,5,20,2025-04-22T12:15:09.980+03:00,767006094.6096033,0,-20.45,100.4477,1,0.85,2025-04-22T12:14:03.331+03:00,112,1.866666666666667,2025-04-22T09:54:17.825+03:00,0.02225348692287972,0
2025-04-22T12:15:40.967+03:00,1745313339.469681,40.95212370955056,29.14023444794606,75.95811,-1,-1,-1,-1,30,23.14434125577553,-9999,29676.30498741667,-0.8054046630859375,0.5176239013671875,-0.2372894287109375,29676.30248541667,-1.151752669914112,-1.291574163125865,-0.5477516750624555,-0.2755921185016632,0.06845858693122864,0.02117040194571018,0.01361179351806641,-0.02188318967819214,0.001215994358062744,XArbitraryZVertical,-0.4966850651823459,-0.3683218829355417,-0.2821785318141923,0.7334972044876185,-0.8206338882446289,0.5207691788673401,-0.2352858781814575,0,0,0,-1,-1,29661.316794875,unknown,2,2025-04-22T12:15:07.401+03:00,2025-04-21T17:08:51.449+03:00,7224,0.9707136,0,0,6027.237,5,20,2025-04-22T12:15:09.980+03:00,767006094.6096033,0,-20.45,100.4477,1,0.85,2025-04-22T12:14:03.331+03:00,112,1.866666666666667,2025-04-22T09:54:17.825+03:00,0.02225348692287972,0
2025-04-22T12:15:40.977+03:00,1745313339.469681,40.95212370955056,29.14023444794606,75.95811,-1,-1,-1,-1,30,23.14434125577553,-9999,29676.31506341667,-0.808990478515625,0.5236968994140625,-0.2360076904296875,29676.31256141667,-1.154699076984532,-1.292532640775431,-0.5486183875290427,-0.250012993812561,0.05753855407238007,0.01208262983709574,0.01424181461334229,-0.002664446830749512,-0.002319276332855225,XArbitraryZVertical,-0.4976033593397806,-0.3677000625465782,-0.2827588607172552,0.7329630716701185,-0.8204246759414673,0.5215088725090027,-0.2343751192092896,0,0,0,-1,-1,29661.316794875,unknown,2,2025-04-22T12:15:07.401+03:00,2025-04-21T17:08:51.449+03:00,7224,0.9707136,0,0,6027.237,5,20,2025-04-22T12:15:09.980+03:00,767006094.6096033,0,-20.45,100.4477,1,0.85,2025-04-22T12:14:03.331+03:00,112,1.866666666666667,2025-04-22T09:54:17.825+03:00,0.02225348692287972,0
2025-04-22T12:15:40.987+03:00,1745313339.469681,40.95212370955056,29.14023444794606,75.95811,-1,-1,-1,-1,30,23.14434125577553,-9999,29676.32513941667,-0.815185546875,0.521759033203125,-0.2326812744140625,29676.32263741667,-1.157482524848524,-1.29356657130409,-0.5494410833378165,-0.238389641046524,0.04847688227891922,0.006648450158536434,0.01053076982498169,0.00142514705657959,-0.003681868314743042,XArbitraryZVertical,-0.4984889667461131,-0.367156797015121,-0.2832727384923043,0.7324351475762839,-0.8202537298202515,0.5222106575965881,-0.2334092706441879,0,0,0,-1,-1,29661.316794875,unknown,2,2025-04-22T12:15:07.401+03:00,2025-04-21T17:08:51.449+03:00,7224,0.9707136,0,0,6027.237,5,20,2025-04-22T12:15:09.980+03:00,767006094.6096033,0,-20.45,100.4477,1,0.85,2025-04-22T12:14:03.331+03:00,112,1.866666666666667,2025-04-22T09:54:17.825+03:00,0.02225348692287972,0
2025-04-22T12:15:40.998+03:00,1745313339.469681,40.95212370955056,29.14023444794606,75.95811,-1,-1,-1,-1,30,23.14434125577553,-9999,29676.33521541667,-0.816741943359375,0.53179931640625,-0.2242279052734375,29676.33271341667,-1.160149853947557,-1.294575436221125,-0.5501525064771555,-0.2252136468887329,0.03883491083979607,-0.0007612629560753703,0.003801167011260986,-5.483627319335938e-06,0.0009891390800476074,XArbitraryZVertical,-0.4993180476949546,-0.3666624765114259,-0.2837826596961285,0.7319204135799792,-0.8201311230659485,0.5228172540664673,-0.2324802279472351,0,0,0,-1,-1,29661.316794875,unknown,2,2025-04-22T12:15:07.401+03:00,2025-04-21T17:08:51.449+03:00,7224,0.9707136,0,0,6027.237,5,20,2025-04-22T12:15:09.980+03:00,767006094.6096033,0,-20.45,100.4477,1,0.85,2025-04-22T12:14:03.331+03:00,112,1.866666666666667,2025-04-22T09:54:17.825+03:00,0.02225348692287972,0
2025-04-22T12:15:41.008+03:00,1745313339.469681,40.95212370955056,29.14023444794606,75.95811,-1,-1,-1,-1,30,23.14434125577553,-9999,29676.34529141667,-0.80621337890625,0.5327301025390625,-0.2253570556640625,29676.34278941667,-1.162835326862485,-1.295722723469877,-0.5507355421206689,-0.229265108704567,0.02871835976839066,-0.007690808270126581,0.005025029182434082,0.009949862957000732,0.007182538509368896,XArbitraryZVertical,-0.5001339084906729,-0.3662484462564879,-0.2843022232915239,0.7313687772936864,-0.8201037049293518,0.5233141779899597,-0.2314562946557999,0,0,0,-1,-1,29661.316794875,unknown,2,2025-04-22T12:15:07.401+03:00,2025-04-21T17:08:51.449+03:00,7224,0.9707136,0,0,6027.237,5,20,2025-04-22T12:15:09.980+03:00,767006094.6096033,0,-20.45,100.4477,1,0.85,2025-04-22T12:14:03.331+03:00,112,1.866666666666667,2025-04-22T09:54:17.825+03:00,0.02225348692287972,0
2025-04-22T12:15:41.018+03:00,1745313339.469681,40.95212370955056,29.14023444794606,75.95811,-1,-1,-1,-1,30,23.14434125577553,-9999,29676.35536741667,-0.8084869384765625,0.51873779296875,-0.2305755615234375,29676.35286541667,-1.165562657803742,-1.296942724385767,-0.5512417129405039,-0.2270544171333313,0.01956347748637199,-0.01878287456929684,0.01390182971954346,0.007031440734863281,0.004111289978027344,XArbitraryZVertical,-0.5009459913625816,-0.3658703890015295,-0.2848408624161277,0.7307924440285553,-0.8201304078102112,0.5237454175949097,-0.2303839474916458,0,0,0,-1,-1,29661.316794875,unknown,2,2025-04-22T12:15:07.401+03:00,2025-04-21T17:08:51.449+03:00,7224,0.9707136,0,0,6027.237,5,20,2025-04-22T12:15:09.980+03:00,767006094.6096033,0,-20.45,100.4477,1,0.85,2025-04-22T12:14:03.331+03:00,112,1.866666666666667,2025-04-22T09:54:17.825+03:00,0.02225348692287972,0
2025-04-22T12:15:41.028+03:00,1745313339.469681,40.95212370955056,29.14023444794606,75.95811,-1,-1,-1,-1,30,23.14434125577553,-9999,29676.36544341667,-0.81549072265625,0.522186279296875,-0.2324371337890625,29676.36294141667,-1.167928285108865,-1.298063204944964,-0.5514751033452888,-0.1638741195201874,0.005343795288354158,-0.03332053497433662,0.01044052839279175,-0.005557596683502197,-0.001906663179397583,XArbitraryZVertical,-0.5016024814963653,-0.3656214022716072,-0.2853535021953348,0.7302664399005829,-0.8202701210975647,0.5239441990852356,-0.2294318825006485,0,0,0,-1,-1,29661.316794875,unknown,2,2025-04-22T12:15:07.401+03:00,2025-04-21T17:08:51.449+03:00,7224,0.9707136,0,0,6027.237,5,20,2025-04-22T12:15:09.980+03:00,767006094.6096033,0,-20.45,100.4477,1,0.85,2025-04-22T12:14:03.331+03:00,112,1.866666666666667,2025-04-22T09:54:17.825+03:00,0.02225348692287972,0
2025-04-22T12:15:41.038+03:00,1745313339.469681,40.95212370955056,29.14023444794606,75.95811,-1,-1,-1,-1,30,23.14434125577553,-9999,29676.37551941667,-0.8194580078125,0.5447540283203125,-0.2383270263671875,29676.37301741667,-1.170187113374728,-1.299051670220533,-0.551488618150962,-0.2206951975822449,0.02791688218712807,-0.02270084992051125,0.004175186157226562,0.0006412863731384277,-0.004993021488189697,XArbitraryZVertical,-0.5021601315739089,-0.3654116189394688,-0.2859258960533801,0.7297642483648268,-0.8204898238182068,0.523955762386322,-0.2286190986633301,0,0,0,-1,-1,29661.316794875,unknown,2,2025-04-22T12:15:07.401+03:00,2025-04-21T17:08:51.449+03:00,7224,0.9707136,0,0,6027.237,5,20,2025-04-22T12:15:09.980+03:00,767006141.0259913,0,-20.15,100.4448,1,0.85,2025-04-22T12:14:03.331+03:00,112,1.866666666666667,2025-04-22T09:54:17.825+03:00,0.02225348692287972,0
2025-04-22T12:15:41.048+03:00,1745313339.469681,40.95212370955056,29.14023444794606,75.95811,-1,-1,-1,-1,30,23.14434125577553,-9999,29676.38559541667,-0.8223876953125,0.5410003662109375,-0.2074737548828125,29676.38309341667,-1.173250680172038,-1.30037550799582,-0.5519714636840051,-0.3137441277503967,0.02659761719405651,-0.01361597515642643,-0.0002071261405944824,0.02372860908508301,-0.008863091468811035,XArbitraryZVertical,-0.5030411186315058,-0.3649891587244105,-0.2865644947581139,0.7291181314767723,-0.820547878742218,0.5243669152259827,-0.2274650931358337,0,0,0,-1,-1,29661.316794875,unknown,2,2025-04-22T12:15:07.401+03:00,2025-04-21T17:08:51.449+03:00,7224,0.9707136,0,0,6027.237,5,20,2025-04-22T12:15:09.980+03:00,767006141.0259913,0,-20.15,100.4448,1,0.85,2025-04-22T12:14:03.331+03:00,112,1.866666666666667,2025-04-22T09:54:17.825+03:00,0.02225348692287972,0
2025-04-22T12:15:41.058+03:00,1745313339.469681,40.95212370955056,29.14023444794606,75.95811,-1,-1,-1,-1,30,23.14434125577553,-9999,29676.39567141667,-0.8178253173828125,0.4833984375,-0.224853515625,29676.39316941667,-1.177213957837767,-1.302102762829015,-0.5528611040231943,-0.3769993782043457,0.03632787615060806,-0.0006618937477469444,-0.00208127498626709,0.00946730375289917,0.02035707235336304,XArbitraryZVertical,-0.5042542577540722,-0.3643705186921687,-0.2873043354429818,0.7282979724697528,-0.8204894661903381,0.5251242518424988,-0.2259235382080078,0,0,0,-1,-1,29661.316794875,unknown,2,2025-04-22T12:15:07.401+03:00,2025-04-21T17:08:51.449+03:00,7224,0.9707136,0,0,6027.237,5,20,2025-04-22T12:15:09.980+03:00,767006141.0259913,0,-20.15,100.4448,1,0.85,2025-04-22T12:14:03.331+03:00,112,1.866666666666667,2025-04-22T09:54:17.825+03:00,0.02225348692287972,0
2025-04-22T12:15:41.069+03:00,1745313339.469681,40.95212370955056,29.14023444794606,75.95811,-1,-1,-1,-1,30,23.14434125577553,-9999,29676.40574741667,-0.8197021484375,0.473968505859375,-0.23504638671875,29676.40324541667,-1.181667716199086,-1.304053837612725,-0.553949614967003,-0.4065119922161102,0.03032724186778069,0.005274292081594467,0.002673566341400146,-0.04724496603012085,-0.003916963934898376,XArbitraryZVertical,-0.505641401782932,-0.3636496233510267,-0.2881029187120341,0.7273804321927619,-0.8203767538070679,0.5260502696037292,-0.224171444773674,0,0,0,-1,-1,29661.316794875,unknown,2,2025-04-22T12:15:07.401+03:00,2025-04-21T17:08:51.449+03:00,7224,0.9707136,0,0,6027.237,5,20,2025-04-22T12:15:09.980+03:00,767006141.0259913,0,-20.15,100.4448,1,0.85,2025-04-22T12:14:03.331+03:00,112,1.866666666666667,2025-04-22T09:54:17.825+03:00,0.02225348692287972,0
2025-04-22T12:15:41.080+03:00,1745313339.469681,40.95212370955056,29.14023444794606,75.95811,-1,-1,-1,-1,30,23.14434125577553,-9999,29676.41582341667,-0.819549560546875,0.5004425048828125,-0.2290802001953125,29676.41332141667,-1.186196430598649,-1.306089635687324,-0.5550349936763646,-0.386768102645874,0.03432384878396988,0.002843625145033002,0.0003031492233276367,-0.05062437057495117,-0.0116269439458847,XArbitraryZVertical,-0.5070515154326256,-0.3629367420745611,-0.2889046338357776,0.7264363006017844,-0.8202798962593079,0.5269730687141418,-0.2223513573408127,0,0,0,-1,-1,29661.316794875,unknown,2,2025-04-22T12:15:07.401+03:00,2025-04-21T17:08:51.449+03:00,7224,0.9707136,0,0,6027.237,5,20,2025-04-22T12:15:09.980+03:00,767006141.0259913,0,-20.15,100.4448,1,0.85,2025-04-22T12:14:03.331+03:00,112,1.866666666666667,2025-04-22T09:54:17.825+03:00,0.02225348692287972,0
2025-04-22T12:15:41.088+03:00,1745313339.469681,40.95212370955056,29.14023444794606,75.95811,-1,-1,-1,-1,30,23.14434125577553,-9999,29676.42589941667,-0.818328857421875,0.535736083984375,-0.2236328125,29676.42339741667,-1.190397747238201,-1.30792749067068,-0.5560843896681729,-0.3516330420970917,0.03817638009786606,0.00311659905128181,0.0008320212364196777,-0.02318030595779419,-0.007678687572479248,XArbitraryZVertical,-0.5083620021506844,-0.3622406190919604,-0.2896450285525286,0.7255725243636884,-0.820152759552002,0.5278646349906921,-0.2206996232271194,0,0,0,-1,-1,29661.316794875,unknown,2,2025-04-22T12:15:07.401+03:00,2025-04-21T17:08:51.449+03:00,7224,0.9707136,0,0,6027.237,5,20,2025-04-22T12:15:09.980+03:00,767006141.0259913,0,-20.15,100.4448,1,0.85,2025-04-22T12:14:03.331+03:00,112,1.866666666666667,2025-04-22T09:54:17.825+03:00,0.02225348692287972,0
2025-04-22T12:15:41.106+03:00,1745313339.469681,40.95212370955056,29.14023444794606,75.95811,-1,-1,-1,-1,30,23.14434125577553,-9999,29676.43597541667,-0.81524658203125,0.5560302734375,-0.220794677734375,29676.43347341667,-1.194254804818556,-1.309583800626115,-0.5570025075187933,-0.3265945315361023,0.03720512241125107,0.004418085794895887,0.00193333625793457,0.01043349504470825,-0.003333836793899536,XArbitraryZVertical,-0.5095468373272835,-0.361599500873594,-0.2903435719218305,0.7247816116463477,-0.8200486302375793,0.5286442041397095,-0.2192156463861465,0,0,0,-1,-1,29661.316794875,unknown,2,2025-04-22T12:15:07.401+03:00,2025-04-21T17:08:51.449+03:00,7224,0.9707136,0,0,6027.237,5,20,2025-04-22T12:15:09.980+03:00,767006141.0259913,0,-20.15,100.4448,1,0.85,2025-04-22T12:14:03.331+03:00,112,1.866666666666667,2025-04-22T09:54:17.825+03:00,0.02225348692287972,0
2025-04-22T12:15:41.109+03:00,1745313339.469681,40.95212370955056,29.14023444794606,75.95811,-1,-1,-1,-1,30,23.14434125577553,-9999,29676.44605141667,-0.813385009765625,0.55474853515625,-0.217681884765625,29676.44354941667,-1.197894939022419,-1.311110225843352,-0.5578485974927655,-0.3096165955066681,0.04250667989253998,-0.001685879193246365,0.005069315433502197,0.02775132656097412,-0.002686619758605957,XArbitraryZVertical,-0.5106528790034819,-0.3609837718802882,-0.2910159617220294,0.7240400404416119,-0.8199496865272522,0.5293622016906738,-0.2178487032651901,0,0,0,-1,-1,29661.316794875,unknown,2,2025-04-22T12:15:07.401+03:00,2025-04-21T17:08:51.449+03:00,7224,0.9707136,0,0,6027.237,5,20,2025-04-22T12:15:09.980+03:00,767006141.0259913,0,-20.15,100.4448,1,0.85,2025-04-22T12:14:03.331+03:00,112,1.866666666666667,2025-04-22T09:54:17.825+03:00,0.02225348692287972,0
2025-04-22T12:15:41.119+03:00,1745313339.469681,40.95212370955056,29.14023444794606,75.95811,-1,-1,-1,-1,30,23.14434125577553,-9999,29676.45612741667,-0.8180694580078125,0.5525970458984375,-0.208953857421875,29676.45362541667,-1.201359191725864,-1.31250716443996,-0.5585517488949612,-0.2914286851882935,0.04780863225460052,-0.007926264777779579,0.006935358047485352,0.02419471740722656,0.0007723569869995117,XArbitraryZVertical,-0.5116689106304013,-0.3604038844328884,-0.2916989675298939,0.7233363897266728,-0.8198930621147156,0.5299586057662964,-0.216607928276062,0,0,0,-1,-1,29661.316794875,unknown,2,2025-04-22T12:15:07.401+03:00,2025-04-21T17:08:51.449+03:00,7224,0.9707136,0,0,6027.237,5,20,2025-04-22T12:15:09.980+03:00,767006141.0259913,0,-20.15,100.4448,1,0.85,2025-04-22T12:14:03.331+03:00,112,1.866666666666667,2025-04-22T09:54:17.825+03:00,0.02225348692287972,0
2025-04-22T12:15:41.129+03:00,1745313339.469681,40.95212370955056,29.14023444794606,75.95811,-1,-1,-1,-1,30,23.14434125577553,-9999,29676.46620341667,-0.82525634765625,0.5544281005859375,-0.210113525390625,29676.46370141667,-1.204741386277914,-1.313731232701482,-0.5592404172732649,-0.2967832386493683,0.06696075201034546,-0.004994656890630722,0.00112462043762207,0.02202379703521729,0.007167801260948181,XArbitraryZVertical,-0.5126399836801253,-0.359784101118035,-0.2923990179997867,0.722674336476625,-0.819804310798645,0.5305424928665161,-0.215511292219162,0,0,0,-1,-1,29661.316794875,unknown,2,2025-04-22T12:15:07.401+03:00,2025-04-21T17:08:51.449+03:00,7224,0.9707136,0,0,6027.237,5,20,2025-04-22T12:15:09.980+03:00,767006141.0259913,0,-20.15,100.4448,1,0.85,2025-04-22T12:14:03.331+03:00,112,1.866666666666667,2025-04-22T09:54:17.825+03:00,0.02225348692287972,0
2025-04-22T12:15:41.139+03:00,1745313339.469681,40.95212370955056,29.14023444794606,75.95811,-1,-1,-1,-1,30,23.14434125577553,-9999,29676.47628054167,-0.83245849609375,0.5381622314453125,-0.2036285400390625,29676.47377741667,-1.208505373698543,-1.314943741525785,-0.5600153505921535,-0.3659144341945648,0.09062446653842926,-0.004215849097818136,-0.006580889225006104,0.02197754383087158,0.004589378833770752,XArbitraryZVertical,-0.5136995462406259,-0.3590351637997083,-0.2932119576953498,0.7219648291229721,-0.8196672201156616,0.5311992168426514,-0.2144130617380142,0,0,0,-1,-1,29661.316794875,unknown,2,2025-04-22T12:15:07.401+03:00,2025-04-21T17:08:51.449+03:00,7224,0.9707136,0,0,6027.237,5,20,2025-04-22T12:15:09.980+03:00,767006141.0259913,0,-20.15,100.4448,1,0.85,2025-04-22T12:14:03.331+03:00,112,1.866666666666667,2025-04-22T09:54:17.825+03:00,0.02225348692287972,0
2025-04-22T12:15:41.149+03:00,1745313339.469681,40.95212370955056,29.14023444794606,75.95811,-1,-1,-1,-1,30,23.14434125577553,-9999,29676.48635654167,-0.8295135498046875,0.5204315185546875,-0.195831298828125,29676.48385454167,-1.213457864936922,-1.316642638596219,-0.5611038955436186,-0.5010166168212891,0.09658968448638916,0.006517222616821527,-0.01369023323059082,0.00378262996673584,0.0113823413848877,XArbitraryZVertical,-0.5151247965472242,-0.3580629701827562,-0.2942308172159757,0.7210170048760781,-0.8194701671600342,0.5321211814880371,-0.212874710559845,0,0,0,-1,-1,29661.316794875,unknown,2,2025-04-22T12:15:07.401+03:00,2025-04-21T17:08:51.449+03:00,7224,0.9707136,0,0,6027.237,5,20,2025-04-22T12:15:09.980+03:00,767006141.0259913,0,-20.15,100.4448,1,0.85,2025-04-22T12:14:03.331+03:00,112,1.866666666666667,2025-04-22T09:54:17.825+03:00,0.02225348692287972,0
2025-04-22T12:15:41.159+03:00,1745313339.469681,40.95212370955056,29.14023444794606,75.95811,-1,-1,-1,-1,30,23.14434125577553,-9999,29676.49643254167,-0.8165740966796875,0.503265380859375,-0.2116851806640625,29676.49393054167,-1.22000029521364,-1.319145796670374,-0.5626862685942403,-0.6412635445594788,0.097421795129776,0.02357829920947552,-0.009627699851989746,-0.01513463258743286,0.01490356028079987,XArbitraryZVertical,-0.517079537729334,-0.3568225563424711,-0.2954602905718059,0.7197287568932351,-0.8191838264465332,0.533460259437561,-0.2106128334999084,0,0,0,-1,-1,29661.316794875,unknown,2,2025-04-22T12:15:07.401+03:00,2025-04-21T17:08:51.449+03:00,7224,0.9707136,0,0,6027.237,5,20,2025-04-22T12:15:09.980+03:00,767006141.0259913,0,-20.15,100.4448,1,0.85,2025-04-22T12:14:03.331+03:00,112,1.866666666666667,2025-04-22T09:54:17.825+03:00,0.02225348692287972,0
2025-04-22T12:15:41.169+03:00,1745313339.469681,40.95212370955056,29.14023444794606,75.95811,-1,-1,-1,-1,30,23.14434125577553,-9999,29676.50650854167,-0.80584716796875,0.486724853515625,-0.24725341796875,29676.50400654167,-1.228045770673822,-1.322539109618906,-0.564762225718128,-0.7594035267829895,0.07763183861970901,0.04063930734992027,0.00363314151763916,-0.03426909446716309,-0.00827634334564209,XArbitraryZVertical,-0.5195571631061392,-0.3553599415655964,-0.296841303213696,0.7180980734606364,-0.8188186287879944,0.5352149605751038,-0.2075593322515488,0,0,0,-1,-1,29661.316794875,unknown,2,2025-04-22T12:15:07.401+03:00,2025-04-21T17:08:51.449+03:00,7224,0.9707136,0,0,6027.237,5,20,2025-04-22T12:15:09.980+03:00,767006141.0259913,0,-20.15,100.4448,1,0.85,2025-04-22T12:14:03.331+03:00,112,1.866666666666667,2025-04-22T09:54:17.825+03:00,0.02225348692287972,0
2025-04-22T12:15:41.179+03:00,1745313339.469681,40.95212370955056,29.14023444794606,75.95811,-1,-1,-1,-1,30,23.14434125577553,-9999,29676.51658454167,-0.7972412109375,0.49884033203125,-0.26385498046875,29676.51408254167,-1.237061036941547,-1.326782742495043,-0.5670922794195552,-0.8175863027572632,0.0377253033220768,0.03844479843974113,0.01376163959503174,-0.05173885822296143,-0.04649387300014496,XArbitraryZVertical,-0.5223912659667368,-0.3538600725358009,-0.2982588349932735,0.7161926250121543,-0.818479597568512,0.5371817350387573,-0.2037808299064636,0,0,0,-1,-1,29661.316794875,unknown,2,2025-04-22T12:15:07.401+03:00,2025-04-21T17:08:51.449+03:00,7224,0.9707136,0,0,6027.237,5,20,2025-04-22T12:15:09.980+03:00,767006141.0259913,0,-20.15,100.4448,1,0.85,2025-04-22T12:14:03.331+03:00,112,1.866666666666667,2025-04-22T09:54:17.825+03:00,0.02225348692287972,0
2025-04-22T12:15:41.189+03:00,1745313339.469681,40.95212370955056,29.14023444794606,75.95811,-1,-1,-1,-1,30,23.14434125577553,-9999,29676.52666054167,-0.796722412109375,0.522491455078125,-0.2557373046875,29676.52415854167,-1.246832910641073,-1.331817800630535,-0.569470875932192,-0.8708924055099487,0.008475006558001041,0.02971228957176208,0.02169704437255859,-0.03633332252502441,-0.06402783095836639,XArbitraryZVertical,-0.5254805662984235,-0.3524104080229599,-0.2997084631511672,0.7140390290789391,-0.8182514905929565,0.5391864776611328,-0.1993541568517685,0,0,0,-1,-1,29661.316794875,unknown,2,2025-04-22T12:15:07.401+03:00,2025-04-21T17:08:51.449+03:00,7224,0.9707136,0,0,6027.237,5,20,2025-04-22T12:15:09.980+03:00,767006141.0259913,0,-20.15,100.4448,1,0.85,2025-04-22T12:14:03.331+03:00,112,1.866666666666667,2025-04-22T09:54:17.825+03:00,0.02225348692287972,0
2025-04-22T12:15:41.199+03:00,1745313339.469681,40.95212370955056,29.14023444794606,75.95811,-1,-1,-1,-1,30,23.14434125577553,-9999,29676.53673654167,-0.8090667724609375,0.5162353515625,-0.2394866943359375,29676.53423454167,-1.257228125863044,-1.337413245989354,-0.5719228254782076,-0.9259535074234009,-0.004271415062248707,0.03957051411271095,0.0203208327293396,-0.01726317405700684,-0.05957737565040588,XArbitraryZVertical,-0.5287726853862523,-0.3509505736792062,-0.3011901623624196,0.711700528543716,-0.8180657029151917,0.5412498712539673,-0.1944662779569626,0,0,0,-1,-1,29661.316794875,unknown,2,2025-04-22T12:15:07.401+03:00,2025-04-21T17:08:51.449+03:00,7224,0.9707136,0,0,6027.237,5,20,2025-04-22T12:15:09.980+03:00,767006141.0259913,0,-20.15,100.4448,1,0.85,2025-04-22T12:14:03.331+03:00,112,1.866666666666667,2025-04-22T09:54:17.825+03:00,0.02225348692287972,0
2025-04-22T12:15:41.209+03:00,1745313339.469681,40.95212370955056,29.14023444794606,75.95811,-1,-1,-1,-1,30,23.14434125577553,-9999,29676.54681354167,-0.8209686279296875,0.517669677734375,-0.2265777587890625,29676.54431054167,-1.268122958883942,-1.343386152555879,-0.5745313401410614,-0.9556328654289246,-0.006448282860219479,0.04660072550177574,0.006524443626403809,-0.02864056825637817,-0.04873377084732056,XArbitraryZVertical,-0.5322383096054411,-0.3494188865374864,-0.3026781860870841,0.7092352909645012,-0.8178342580795288,0.5434414148330688,-0.1892576515674591,0,0,0,-1,-1,29661.316794875,unknown,2,2025-04-22T12:15:07.401+03:00,2025-04-21T17:08:51.449+03:00,7224,0.9707136,0,0,6027.237,5,20,2025-04-22T12:15:09.980+03:00,767006141.0259913,0,-20.15,100.4448,1,0.85,2025-04-22T12:14:03.331+03:00,112,1.866666666666667,2025-04-22T09:54:17.825+03:00,0.02225348692287972,0
2025-04-22T12:15:41.219+03:00,1745313339.469681,40.95212370955056,29.14023444794606,75.95811,-1,-1,-1,-1,30,23.14434125577553,-9999,29676.55688954167,-0.8232269287109375,0.5300445556640625,-0.2134246826171875,29676.55438754167,-1.279145274632381,-1.349446464144423,-0.5771560122208185,-0.9378989934921265,-0.005857726559042931,0.05551812052726746,-0.003656148910522461,-0.02530300617218018,-0.04044228792190552,XArbitraryZVertical,-0.5357319072822416,-0.3478495119214136,-0.3041579256228064,0.7067389451896098,-0.8175718188285828,0.5456428527832031,-0.1839840859174728,0,0,0,-1,-1,29661.316794875,unknown,2,2025-04-22T12:15:07.401+03:00,2025-04-21T17:08:51.449+03:00,7224,0.9707136,0,0,6027.237,5,20,2025-04-22T12:15:09.980+03:00,767006141.0259913,0,-20.15,100.4448,1,0.85,2025-04-22T12:14:03.331+03:00,112,1.866666666666667,2025-04-22T09:54:17.825+03:00,0.02225348692287972,0
2025-04-22T12:15:41.229+03:00,1745313339.469681,40.95212370955056,29.14023444794606,75.95811,-1,-1,-1,-1,30,23.14434125577553,-9999,29676.56696554167,-0.8197021484375,0.537994384765625,-0.19854736328125,29676.56446354167,-1.290065243209474,-1.355485521143441,-0.5797428054060335,-0.9385802149772644,-0.002614528872072697,0.05407069250941277,-0.005833745002746582,-0.0170319676399231,-0.03271514177322388,XArbitraryZVertical,-0.5391833698310424,-0.3462812133903965,-0.3055934709885375,0.7042607240567955,-0.8172863721847534,0.5478087663650513,-0.1787412315607071,0,0,0,-1,-1,29661.316794875,unknown,2,2025-04-22T12:15:07.401+03:00,2025-04-21T17:08:51.449+03:00,7224,0.9707136,0,0,6027.237,5,20,2025-04-22T12:15:09.980+03:00,767006141.0259913,0,-20.15,100.4448,1,0.85,2025-04-22T12:14:03.331+03:00,112,1.866666666666667,2025-04-22T09:54:17.825+03:00,0.02225348692287972,0
2025-04-22T12:15:41.240+03:00,1745313339.469681,40.95212370955056,29.14023444794606,75.95811,-1,-1,-1,-1,30,23.14434125577553,-9999,29676.57704154167,-0.814422607421875,0.541168212890625,-0.180023193359375,29676.57453954167,-1.301005522436454,-1.361492572329068,-0.5821458926334986,-0.9357367157936096,-0.003407019656151533,0.04131485149264336,-0.002067029476165771,-0.01023644208908081,-0.02244468033313751,XArbitraryZVertical,-0.5425771926685414,-0.3447212144075137,-0.3070762839604359,0.7017702384132238,-0.817055344581604,0.5498176217079163,-0.1735545545816422,0,0,0,-1,-1,29661.316794875,unknown,2,2025-04-22T12:15:07.401+03:00,2025-04-21T17:08:51.449+03:00,7224,0.9707136,0,0,6027.237,5,20,2025-04-22T12:15:09.980+03:00,767006141.0259913,0,-20.15,100.4448,1,0.85,2025-04-22T12:14:03.331+03:00,112,1.866666666666667,2025-04-22T09:54:17.825+03:00,0.02225348692287972,0
2025-04-22T12:15:41.250+03:00,1745313339.469681,40.95212370955056,29.14023444794606,75.95811,-1,-1,-1,-1,30,23.14434125577553,-9999,29676.58711754167,-0.8001251220703125,0.559051513671875,-0.173309326171875,29676.58461554167,-1.311205792699398,-1.367290131699768,-0.5845639816050597,-0.7922426462173462,-0.0207508560270071,0.08417576551437378,0.003220915794372559,-0.01005744934082031,-0.009677216410636902,XArbitraryZVertical,-0.54580427927342,-0.3432563732908406,-0.308328063343247,0.6994329200539716,-0.8167431950569153,0.551835834980011,-0.1685454994440079,0,0,0,-1,-1,29661.316794875,unknown,2,2025-04-22T12:15:07.401+03:00,2025-04-21T17:08:51.449+03:00,7224,0.9707136,0,0,6027.237,5,20,2025-04-22T12:15:09.980+03:00,767006141.0259913,0,-20.15,100.4448,1,0.85,2025-04-22T12:14:03.331+03:00,112,1.866666666666667,2025-04-22T09:54:17.825+03:00,0.02225348692287972,0
2025-04-22T12:15:41.259+03:00,1745313339.469681,40.95212370955056,29.14023444794606,75.95811,-1,-1,-1,-1,30,23.14434125577553,-9999,29676.59719354167,-0.7814788818359375,0.6067352294921875,-0.1887359619140625,29676.59469154167,-1.319564842479504,-1.372315830963391,-0.5867150932814067,-0.6656948328018188,-0.0686427503824234,0.04431396722793579,0.01902055740356445,0.01126700639724731,-0.009700238704681396,XArbitraryZVertical,-0.5485234751473751,-0.3420816722002313,-0.309209845851727,0.6974892966256101,-0.8164143562316895,0.5536284446716309,-0.1642042547464371,0,0,0,-1,-1,29661.316794875,unknown,2,2025-04-22T12:15:07.401+03:00,2025-04-21T17:08:51.449+03:00,7224,0.9707136,0,0,6027.237,5,20,2025-04-22T12:15:09.980+03:00,767006141.0259913,0,-20.15,100.4448,1,0.85,2025-04-22T12:14:03.331+03:00,112,1.866666666666667,2025-04-22T09:54:17.825+03:00,0.02225348692287972,0
2025-04-22T12:15:41.270+03:00,1745313339.469681,40.95212370955056,29.14023444794606,75.95811,-1,-1,-1,-1,30,23.14434125577553,-9999,29676.60726954167,-0.7914276123046875,0.578125,-0.1929779052734375,29676.60476754167,-1.326685074661161,-1.376891149755731,-0.5883687473163606,-0.5680699944496155,-0.05367311835289001,0.05562121793627739,0.03522121906280518,0.05441582202911377,-0.03024601936340332,XArbitraryZVertical,-0.5508373523437092,-0.3412227086994618,-0.3099225509356712,0.6957680252077957,-0.8162575364112854,0.5550048351287842,-0.1602905541658401,0,0,0,-1,-1,29661.316794875,unknown,2,2025-04-22T12:15:07.401+03:00,2025-04-21T17:08:51.449+03:00,7224,0.9707136,0,0,6027.237,5,20,2025-04-22T12:15:09.980+03:00,767006141.0259913,0,-20.15,100.4448,1,0.85,2025-04-22T12:14:03.331+03:00,112,1.866666666666667,2025-04-22T09:54:17.825+03:00,0.02225348692287972,0
2025-04-22T12:15:41.280+03:00,1745313339.469681,40.95212370955056,29.14023444794606,75.95811,-1,-1,-1,-1,30,23.14434125577553,-9999,29676.61734554167,-0.8048248291015625,0.541961669921875,-0.1966400146484375,29676.61484354167,-1.332567453845473,-1.380561197851446,-0.5900625764292396,-0.4456488192081451,-0.02811669372022152,0.08309569209814072,0.02154356241226196,0.01435703039169312,-0.03624366223812103,XArbitraryZVertical,-0.5528045691552748,-0.3403662956630107,-0.3104315635247653,0.6943990196796046,-0.8159160017967224,0.5564129948616028,-0.1571157872676849,0,0,0,-1,-1,29661.316794875,unknown,2,2025-04-22T12:15:07.401+03:00,2025-04-21T17:08:51.449+03:00,7224,0.9707136,0,0,6027.237,5,20,2025-04-22T12:15:09.980+03:00,767006141.0259913,0,-20.15,100.4448,1,0.85,2025-04-22T12:14:03.331+03:00,112,1.866666666666667,2025-04-22T09:54:17.825+03:00,0.02225348692287972,0
2025-04-22T12:15:41.290+03:00,1745313339.469681,40.95212370955056,29.14023444794606,75.95811,-1,-1,-1,-1,30,23.14434125577553,-9999,29676.62742154167,-0.800750732421875,0.5518646240234375,-0.18865966796875,29676.62491954167,-1.337280548023561,-1.383550404057696,-0.5917825691747001,-0.4099523425102234,-0.04960919916629791,0.1149460300803185,0.0104174017906189,-0.01478117704391479,-0.04165399074554443,XArbitraryZVertical,-0.5544690376489919,-0.3395809148241976,-0.3107079739069626,0.6933320810310041,-0.8154405951499939,0.5578413605690002,-0.1544977724552155,0,0,0,-1,-1,29661.316794875,unknown,2,2025-04-22T12:15:07.401+03:00,2025-04-21T17:08:51.449+03:00,7224,0.9707136,0,0,6027.237,5,20,2025-04-22T12:15:09.980+03:00,767006141.0259913,0,-20.15,100.4448,1,0.85,2025-04-22T12:14:03.331+03:00,112,1.866666666666667,2025-04-22T09:54:17.825+03:00,0.02225348692287972,0
2025-04-22T12:15:41.300+03:00,1745313339.469681,40.95212370955056,29.14023444794606,75.95811,-1,-1,-1,-1,30,23.14434125577553,-9999,29676.63749754167,-0.782073974609375,0.5472869873046875,-0.1799774169921875,29676.63499554167,-1.342134345255338,-1.386755942411437,-0.5938522813391093,-0.4250828921794891,-0.04218597337603569,0.1427154541015625,0.01529532670974731,-0.00699150562286377,-0.03576761484146118,XArbitraryZVertical,-0.5562675049310777,-0.3387192612144453,-0.3108593431152303,0.6922442811328817,-0.8147948384284973,0.5595579147338867,-0.1516714543104172,0,0,0,-1,-1,29661.316794875,unknown,2,2025-04-22T12:15:07.401+03:00,2025-04-21T17:08:51.449+03:00,7224,0.9707136,0,0,6027.237,5,20,2025-04-22T12:15:09.980+03:00,767006141.0259913,0,-20.15,100.4448,1,0.85,2025-04-22T12:14:03.331+03:00,112,1.866666666666667,2025-04-22T09:54:17.825+03:00,0.02225348692287972,0
2025-04-22T12:15:41.310+03:00,1745313339.469681,40.95212370955056,29.14023444794606,75.95811,-1,-1,-1,-1,30,23.14434125577553,-9999,29676.64757354167,-0.77362060546875,0.54278564453125,-0.1734771728515625,29676.64507154167,-1.347060787038242,-1.389960667108664,-0.5962330602316392,-0.4347451031208038,-0.04668404906988144,0.1738206297159195,0.03425508737564087,-0.01557022333145142,-0.02914391458034515,XArbitraryZVertical,-0.5581441549047863,-0.3377356612735014,-0.3109336201553445,0.6911800669782564,-0.8139638900756836,0.5615294575691223,-0.1488194465637207,0,0,0,-1,-1,29661.316794875,unknown,2,2025-04-22T12:15:07.401+03:00,2025-04-21T17:08:51.449+03:00,7224,0.9707136,0,0,6027.237,5,20,2025-04-22T12:15:09.980+03:00,767006141.0259913,0,-20.15,100.4448,1,0.85,2025-04-22T12:14:03.331+03:00,112,1.866666666666667,2025-04-22T09:54:17.825+03:00,0.02225348692287972,0
2025-04-22T12:15:41.320+03:00,1745313339.469681,40.95212370955056,29.14023444794606,75.95811,-1,-1,-1,-1,30,23.14434125577553,-9999,29676.65764954167,-0.76678466796875,0.57086181640625,-0.19091796875,29676.65514754167,-1.351654602377836,-1.393117012482026,-0.5988525703553444,-0.3907975554466248,-0.07156696915626526,0.1926137953996658,0.03914481401443481,-0.01938378810882568,-0.02855627238750458,XArbitraryZVertical,-0.5600053239006976,-0.3367484220458076,-0.3108263646062919,0.6902038516233467,-0.812978982925415,0.5636950731277466,-0.1459890753030777,0,0,0,-1,-1,29661.316794875,unknown,2,2025-04-22T12:15:07.401+03:00,2025-04-21T17:08:51.449+03:00,7224,0.9707136,0,0,6027.237,5,20,2025-04-22T12:15:09.980+03:00,767006141.0259913,0,-20.15,100.4448,1,0.85,2025-04-22T12:14:03.331+03:00,112,1.866666666666667,2025-04-22T09:54:17.825+03:00,0.02225348692287972,0
2025-04-22T12:15:41.330+03:00,1745313339.469681,40.95212370955056,29.14023444794606,75.95811,-1,-1,-1,-1,30,23.14434125577553,-9999,29676.66772554167,-0.7639312744140625,0.6074371337890625,-0.2070770263671875,29676.66522354167,-1.355138039081673,-1.395811594125414,-0.6014537987056759,-0.2682026624679565,-0.06389120221138,0.2107358127832413,0.04640460014343262,0.01043671369552612,-0.04984782636165619,XArbitraryZVertical,-0.561597692228475,-0.3359121271275015,-0.3104657400430612,0.6894794735798955,-0.8119227290153503,0.5658417344093323,-0.143542155623436,0,0,0,-1,-1,29661.316794875,unknown,2,2025-04-22T12:15:07.401+03:00,2025-04-21T17:08:51.449+03:00,7224,0.9707136,0,0,6027.237,5,20,2025-04-22T12:15:09.980+03:00,767006141.0259913,0,-20.15,100.4448,1,0.85,2025-04-22T12:14:03.331+03:00,112,1.866666666666667,2025-04-22T09:54:17.825+03:00,0.02225348692287972,0
2025-04-22T12:15:41.340+03:00,1745313339.469681,40.95212370955056,29.14023444794606,75.95811,-1,-1,-1,-1,30,23.14434125577553,-9999,29676.67780154167,-0.77294921875,0.628204345703125,-0.2306671142578125,29676.67529954167,-1.357797609022577,-1.398056934727289,-0.6040515909413293,-0.2310955077409744,-0.08027124404907227,0.2411392480134964,0.04615908861160278,0.04301047325134277,-0.06794606149196625,XArbitraryZVertical,-0.5629762395430575,-0.3351491379907708,-0.3099446622521765,0.6889608036812128,-0.8107922077178955,0.5679817795753479,-0.1414656192064285,0,0,0,-1,-1,29661.316794875,unknown,2,2025-04-22T12:15:07.401+03:00,2025-04-21T17:08:51.449+03:00,7224,0.9707136,0,0,6027.237,5,20,2025-04-22T12:15:09.980+03:00,767006141.0259913,0,-20.15,100.4448,1,0.85,2025-04-22T12:14:03.331+03:00,112,1.866666666666667,2025-04-22T09:54:17.825+03:00,0.02225348692287972,0
2025-04-22T12:15:41.350+03:00,1745313339.469681,40.95212370955056,29.14023444794606,75.95811,-1,-1,-1,-1,30,23.14434125577553,-9999,29676.68787754167,-0.7614593505859375,0.62420654296875,-0.2476806640625,29676.68537554167,-1.359093887519633,-1.399772865933854,-0.607354986303815,-0.08292867243289948,-0.1198109239339828,0.3514164686203003,0.03565150499343872,0.05865108966827393,-0.09376651048660278,XArbitraryZVertical,-0.5641980349345542,-0.3343703609754037,-0.308881151289041,0.6888174315231332,-0.8091805577278137,0.5706974864006042,-0.1397540718317032,0,0,0,-1,-1,29661.316794875,unknown,2,2025-04-22T12:15:07.401+03:00,2025-04-21T17:08:51.449+03:00,7224,0.9707136,0,0,6027.237,5,20,2025-04-22T12:15:09.980+03:00,767006141.0259913,0,-20.15,100.4448,1,0.85,2025-04-22T12:14:03.331+03:00,112,1.866666666666667,2025-04-22T09:54:17.825+03:00,0.02225348692287972,0
2025-04-22T12:15:41.360+03:00,1745313339.469681,40.95212370955056,29.14023444794606,75.95811,-1,-1,-1,-1,30,23.14434125577553,-9999,29676.69795354167,-0.7138671875,0.64398193359375,-0.266754150390625,29676.69545154167,-1.35880272787978,-1.401404439975549,-0.6104683723129927,0.02938368543982506,-0.2266218513250351,0.2636655569076538,0.05165547132492065,0.05066514015197754,-0.1115919798612595,XArbitraryZVertical,-0.5650951616406621,-0.3340669750993331,-0.3073514779686017,0.688913396907078,-0.8076521158218384,0.5732513070106506,-0.1381334215402603,0,0,0,-1,-1,29661.316794875,unknown,2,2025-04-22T12:15:07.401+03:00,2025-04-21T17:08:51.449+03:00,7224,0.9707136,0,0,6027.237,5,20,2025-04-22T12:15:09.980+03:00,767006141.0259913,0,-20.15,100.4448,1,0.85,2025-04-22T12:14:03.331+03:00,112,1.866666666666667,2025-04-22T09:54:17.825+03:00,0.02225348692287972,0
2025-04-22T12:15:41.371+03:00,1745313339.469681,40.95212370955056,29.14023444794606,75.95811,-1,-1,-1,-1,30,23.14434125577553,-9999,29676.70802954167,-0.74725341796875,0.6466827392578125,-0.2519683837890625,29676.70552754167,-1.356945109115346,-1.402659673710272,-0.613022007567589,0.165953516960144,-0.2321993112564087,0.3065528571605682,0.09487694501876831,0.07382798194885254,-0.1307346373796463,XArbitraryZVertical,-0.5655454745547016,-0.3342472898681805,-0.3055610135902746,0.6892528889547845,-0.8063791394233704,0.5753418207168579,-0.1368741244077682,0,0,0,-1,-1,29661.316794875,unknown,2,2025-04-22T12:15:07.401+03:00,2025-04-21T17:08:51.449+03:00,7224,0.9707136,0,0,6027.237,5,20,2025-04-22T12:15:09.980+03:00,767006141.0259913,0,-20.15,100.4448,1,0.85,2025-04-22T12:14:03.331+03:00,112,1.866666666666667,2025-04-22T09:54:17.825+03:00,0.02225348692287972,0
2025-04-22T12:15:41.380+03:00,1745313339.469681,40.95212370955056,29.14023444794606,75.95811,-1,-1,-1,-1,30,23.14434125577553,-9999,29676.71810554167,-0.7901458740234375,0.5979461669921875,-0.2284088134765625,29676.71560354167,-1.353832037274735,-1.403258607116526,-0.6159594731587593,0.214526578783989,-0.2456760555505753,0.3224875628948212,0.04865694046020508,0.06323391199111938,-0.1120450645685196,XArbitraryZVertical,-0.5657696006562076,-0.334440425405272,-0.3034016734042465,0.6899288131882728,-0.8047910332679749,0.5777419209480286,-0.1361087262630463,0,0,0,-1,-1,29661.316794875,unknown,2,2025-04-22T12:15:07.401+03:00,2025-04-21T17:08:51.449+03:00,7224,0.9707136,0,0,6027.237,5,20,2025-04-22T12:15:09.980+03:00,767006141.0259913,0,-20.15,100.4448,1,0.85,2025-04-22T12:14:03.331+03:00,112,1.866666666666667,2025-04-22T09:54:17.825+03:00,0.02225348692287972,0
2025-04-22T12:15:41.391+03:00,1745313339.469681,40.95212370955056,29.14023444794606,75.95811,-1,-1,-1,-1,30,23.14434125577553,-9999,29676.72818154167,-0.791900634765625,0.5831146240234375,-0.220855712890625,29676.72567954167,-1.350405884755712,-1.404030239953638,-0.6189749761361018,0.2156357765197754,-0.2897287011146545,0.3552002608776093,0.01240265369415283,0.01454108953475952,-0.09113581478595734,XArbitraryZVertical,-0.5659836156886769,-0.3347590277474015,-0.3010585416695588,0.690624885899966,-0.8031742572784424,0.5802006125450134,-0.1351978778839111,0,0,0,-1,-1,29661.316794875,unknown,2,2025-04-22T12:15:07.401+03:00,2025-04-21T17:08:51.449+03:00,7224,0.9707136,0,0,6027.237,5,20,2025-04-22T12:15:09.980+03:00,767006141.0259913,0,-20.15,100.4448,1,0.85,2025-04-22T12:14:03.331+03:00,112,1.866666666666667,2025-04-22T09:54:17.825+03:00,0.02225348692287972,0
2025-04-22T12:15:41.411+03:00,1745313339.469681,40.95212370955056,29.14023444794606,75.95811,-1,-1,-1,-1,30,23.14434125577553,-9999,29676.73825754167,-0.77777099609375,0.5745391845703125,-0.2117462158203125,29676.73575554167,-1.347399536432684,-1.405465791928977,-0.6222323683998172,0.1453066915273666,-0.3380478620529175,0.3604061603546143,0.009949266910552979,-0.001231491565704346,-0.08683288097381592,XArbitraryZVertical,-0.56641937743627,-0.3351158051650115,-0.2985939550767199,0.6911642912724243,-0.8014989495277405,0.5828505754470825,-0.1337329745292664,0,0,0,-1,-1,29661.316794875,unknown,2,2025-04-22T12:15:07.401+03:00,2025-04-21T17:08:51.449+03:00,7224,0.9707136,0,0,6027.237,5,20,2025-04-22T12:15:09.980+03:00,767006141.0259913,0,-20.15,100.4448,1,0.85,2025-04-22T12:14:03.331+03:00,112,1.866666666666667,2025-04-22T09:54:17.825+03:00,0.02225348692287972,0
2025-04-22T12:15:41.414+03:00,1745313339.469681,40.95212370955056,29.14023444794606,75.95811,-1,-1,-1,-1,30,23.14434125577553,-9999,29676.74833454167,-0.761810302734375,0.5762481689453125,-0.20098876953125,29676.74583254167,-1.345525791433778,-1.408004604240936,-0.625678330417483,0.05005607381463051,-0.3867869079113007,0.3622714281082153,0.02393972873687744,-0.0112149715423584,-0.07962723076343536,XArbitraryZVertical,-0.5672472034128583,-0.3354771463431218,-0.2961461073231154,0.691363250881079,-0.799849271774292,0.5856472253799438,-0.1313713937997818,0,0,0,-1,-1,29661.316794875,unknown,2,2025-04-22T12:15:07.401+03:00,2025-04-21T17:08:51.449+03:00,7224,0.9707136,0,0,6027.237,5,20,2025-04-22T12:15:09.980+03:00,767006141.0259913,0,-20.15,100.4448,1,0.85,2025-04-22T12:14:03.331+03:00,112,1.866666666666667,2025-04-22T09:54:17.825+03:00,0.02225348692287972,0
2025-04-22T12:15:41.422+03:00,1745313339.469681,40.95212370955056,29.14023444794606,75.95811,-1,-1,-1,-1,30,23.14434125577553,-9999,29676.75841054167,-0.7535552978515625,0.5825653076171875,-0.1931915283203125,29676.75590854167,-1.344648584118784,-1.411658884285405,-0.6292385981223877,-0.01594831049442291,-0.4362399876117706,0.3557105660438538,0.03730428218841553,-0.01072502136230469,-0.07163648307323456,XArbitraryZVertical,-0.5684259368342217,-0.3359073618982098,-0.2936864192749193,0.6912353600461928,-0.7982600331306458,0.5885293483734131,-0.1281163990497589,0,0,0,-1,-1,29661.316794875,unknown,2,2025-04-22T12:15:07.401+03:00,2025-04-21T17:08:51.449+03:00,7224,0.9707136,0,0,6027.237,5,20,2025-04-22T12:15:09.980+03:00,767006141.0259913,0,-20.15,100.4448,1,0.85,2025-04-22T12:14:03.331+03:00,112,1.866666666666667,2025-04-22T09:54:17.825+03:00,0.02225348692287972,0
2025-04-22T12:15:41.431+03:00,1745313339.469681,40.95212370955056,29.14023444794606,75.95811,-1,-1,-1,-1,30,23.14434125577553,-9999,29676.76848654167,-0.7638397216796875,0.5805206298828125,-0.175811767578125,29676.76598454167,-1.344263495328997,-1.416083850745631,-0.6327534004938138,-0.02590187452733517,-0.4861391186714172,0.346121072769165,0.04330676794052124,-0.009122610092163086,-0.06712770462036133,XArbitraryZVertical,-0.5697815520600712,-0.3364777788815995,-0.2911870374931834,0.6908992381726377,-0.7967705130577087,0.5913673639297485,-0.1242633759975433,0,0,0,-1,-1,29661.316794875,unknown,2,2025-04-22T12:15:07.401+03:00,2025-04-21T17:08:51.449+03:00,7224,0.9707136,0,0,6027.237,5,20,2025-04-22T12:15:09.980+03:00,767006141.0259913,0,-20.15,100.4448,1,0.85,2025-04-22T12:14:03.331+03:00,112,1.866666666666667,2025-04-22T09:54:17.825+03:00,0.02225348692287972,0
2025-04-22T12:15:41.441+03:00,1745313339.469681,40.95212370955056,29.14023444794606,75.95811,-1,-1,-1,-1,30,23.14434125577553,-9999,29676.77856254167,-0.7864837646484375,0.5856475830078125,-0.157318115234375,29676.77606054167,-1.34383457852568,-1.420790672951694,-0.6361778482125821,-0.00714409863576293,-0.4965397715568542,0.3410910367965698,0.02849376201629639,-0.01406270265579224,-0.05259751528501511,XArbitraryZVertical,-0.5711411411163141,-0.3371848178063417,-0.2886149321795105,0.6905110180248103,-0.7953394055366516,0.5941253304481506,-0.1202083900570869,0,0,0,-1,-1,29661.316794875,unknown,2,2025-04-22T12:15:07.401+03:00,2025-04-21T17:08:51.449+03:00,7224,0.9707136,0,0,6027.237,5,20,2025-04-22T12:15:09.980+03:00,767006141.0259913,0,-20.15,100.4448,1,0.85,2025-04-22T12:14:03.331+03:00,112,1.866666666666667,2025-04-22T09:54:17.825+03:00,0.02225348692287972,0
2025-04-22T12:15:41.451+03:00,1745313339.469681,40.95212370955056,29.14023444794606,75.95811,-1,-1,-1,-1,30,23.14434125577553,-9999,29676.78863854167,-0.79473876953125,0.6142578125,-0.1583099365234375,29676.78613654167,-1.343083635664937,-1.425381996363685,-0.6395309440784448,0.0297625195235014,-0.5045756101608276,0.3301651775836945,0.004616022109985352,-0.009157538414001465,-0.03992289304733276,XArbitraryZVertical,-0.5724040598695729,-0.3379652545050372,-0.2859816390077415,0.69017929652513,-0.7939073443412781,0.5968191623687744,-0.1162661612033844,0,0,0,-1,-1,29661.316794875,unknown,2,2025-04-22T12:15:07.401+03:00,2025-04-21T17:08:51.449+03:00,7224,0.9707136,0,0,6027.237,5,20,2025-04-22T12:15:09.980+03:00,767006141.0259913,0,-20.15,100.4448,1,0.85,2025-04-22T12:14:03.331+03:00,112,1.866666666666667,2025-04-22T09:54:17.825+03:00,0.02225348692287972,0
2025-04-22T12:15:41.461+03:00,1745313339.469681,40.95212370955056,29.14023444794606,75.95811,-1,-1,-1,-1,30,23.14434125577553,-9999,29676.79871454167,-0.7840728759765625,0.6523895263671875,-0.1439971923828125,29676.79621254167,-1.341767467109733,-1.429761857568736,-0.6425730732655389,0.09450583159923553,-0.5226607918739319,0.2932621240615845,-0.00130695104598999,0.01986789703369141,-0.04496914148330688,XArbitraryZVertical,-0.5734640112786292,-0.338929143778237,-0.2833074718265904,0.6899296341625759,-0.7926077842712402,0.5992572903633118,-0.1125321239233017,0,0,0,-1,-1,29661.316794875,unknown,2,2025-04-22T12:15:07.401+03:00,2025-04-21T17:08:51.449+03:00,7224,0.9707136,0,0,6027.237,5,20,2025-04-22T12:15:09.980+03:00,767006141.0259913,0,-20.15,100.4448,1,0.85,2025-04-22T12:14:03.331+03:00,112,1.866666666666667,2025-04-22T09:54:17.825+03:00,0.02225348692287972,0
2025-04-22T12:15:41.471+03:00,1745313339.469681,40.95212370955056,29.14023444794606,75.95811,-1,-1,-1,-1,30,23.14434125577553,-9999,29676.80879054167,-0.7639923095703125,0.6808013916015625,-0.1336517333984375,29676.80628854167,-1.33955533308599,-1.43365066995429,-0.6451417637101065,0.1708575934171677,-0.5217319130897522,0.2650025188922882,0.009285449981689453,0.05501443147659302,-0.03260761499404907,XArbitraryZVertical,-0.5741914161081915,-0.3401251701182718,-0.2806116257017808,0.6898377853222193,-0.7915119528770447,0.6013117432594299,-0.1092381700873375,0,0,0,-1,-1,29661.316794875,unknown,2,2025-04-22T12:15:07.401+03:00,2025-04-21T17:08:51.449+03:00,7224,0.9707136,0,0,6027.237,5,20,2025-04-22T12:15:09.980+03:00,767006141.0259913,0,-20.15,100.4448,1,0.85,2025-04-22T12:14:03.331+03:00,112,1.866666666666667,2025-04-22T09:54:17.825+03:00,0.02225348692287972,0
2025-04-22T12:15:41.481+03:00,1745313339.469681,40.95212370955056,29.14023444794606,75.95811,-1,-1,-1,-1,30,23.14434125577553,-9999,29676.81886654167,-0.7470245361328125,0.693756103515625,-0.1224212646484375,29676.81636454167,-1.33664406161877,-1.437299643733113,-0.6475358747986648,0.2224690467119217,-0.5428397059440613,0.261025071144104,0.02880316972732544,0.07969921827316284,-0.02721981704235077,XArbitraryZVertical,-0.5747204206657055,-0.3414934679657979,-0.2777961031941639,0.6898606705743789,-0.7904760241508484,0.6032229065895081,-0.1061572954058647,0,0,0,-1,-1,29661.316794875,unknown,2,2025-04-22T12:15:07.401+03:00,2025-04-21T17:08:51.449+03:00,7224,0.9707136,0,0,6027.237,5,20,2025-04-22T12:15:09.980+03:00,767006141.0259913,0,-20.15,100.4448,1,0.85,2025-04-22T12:14:03.331+03:00,112,1.866666666666667,2025-04-22T09:54:17.825+03:00,0.02225348692287972,0
2025-04-22T12:15:41.491+03:00,1745313339.469681,40.95212370955056,29.14023444794606,75.95811,-1,-1,-1,-1,30,23.14434125577553,-9999,29676.82894254167,-0.7477569580078125,0.683807373046875,-0.12811279296875,29676.82644054167,-1.333304943488172,-1.440737633678191,-0.649716379297482,0.2325432598590851,-0.5401136875152588,0.2387375980615616,0.04383337497711182,0.08917683362960815,-0.01864957809448242,XArbitraryZVertical,-0.5750928076966187,-0.3429783566787539,-0.2749594315678774,0.6899502592594019,-0.7895303964614868,0.6049606204032898,-0.1032682210206985,0,0,0,-1,-1,29661.316794875,unknown,2,2025-04-22T12:15:07.401+03:00,2025-04-21T17:08:51.449+03:00,7224,0.9707136,0,0,6027.237,5,20,2025-04-22T12:15:09.980+03:00,767006141.0259913,0,-20.15,100.4448,1,0.85,2025-04-22T12:14:03.331+03:00,112,1.866666666666667,2025-04-22T09:54:17.825+03:00,0.02225348692287972,0
2025-04-22T12:15:41.501+03:00,1745313339.469681,40.95212370955056,29.14023444794606,75.95811,-1,-1,-1,-1,30,23.14434125577553,-9999,29676.83901854167,-0.7693023681640625,0.664794921875,-0.112335205078125,29676.83651654167,-1.329957343186537,-1.444159371295908,-0.6516741254805709,0.2431131452322006,-0.538409948348999,0.2140818387269974,0.03963351249694824,0.07454240322113037,-0.02755923569202423,XArbitraryZVertical,-0.5754056302766813,-0.3445289736727689,-0.2721936163623519,0.6900136477619173,-0.7887028455734253,0.6065183281898499,-0.1004162952303886,0,0,0,-1,-1,29661.316794875,unknown,2,2025-04-22T12:15:07.401+03:00,2025-04-21T17:08:51.449+03:00,7224,0.9707136,0,0,6027.237,5,20,2025-04-22T12:15:09.980+03:00,767006141.0259913,0,-20.15,100.4448,1,0.85,2025-04-22T12:14:03.331+03:00,112,1.866666666666667,2025-04-22T09:54:17.825+03:00,0.02225348692287972,0
2025-04-22T12:15:41.511+03:00,1745313339.469681,40.95212370955056,29.14023444794606,75.95811,-1,-1,-1,-1,30,23.14434125577553,-9999,29676.84909454167,-0.79595947265625,0.65362548828125,-0.0868072509765625,29676.84659254167,-1.326562329815005,-1.447379393466018,-0.6533890744293562,0.240977555513382,-0.5117575526237488,0.1918601542711258,0.01461219787597656,0.05522012710571289,-0.01054376363754272,XArbitraryZVertical,-0.5756231535651272,-0.3460982766311161,-0.2695454818990094,0.690086353271734,-0.7879886627197266,0.6078808903694153,-0.09774793684482574,0,0,0,-1,-1,29661.316794875,unknown,2,2025-04-22T12:15:07.401+03:00,2025-04-21T17:08:51.449+03:00,7224,0.9707136,0,0,6027.237,5,20,2025-04-22T12:15:09.980+03:00,767006141.0259913,0,-20.15,100.4448,1,0.85,2025-04-22T12:14:03.331+03:00,112,1.866666666666667,2025-04-22T09:54:17.825+03:00,0.02225348692287972,0
2025-04-22T12:15:41.522+03:00,1745313339.469681,40.95212370955056,29.14023444794606,75.95811,-1,-1,-1,-1,30,23.14434125577553,-9999,29676.85917054167,-0.8016510009765625,0.6491546630859375,-0.07659912109375,29676.85666854167,-1.323259013911044,-1.450484769569023,-0.6549150650501293,0.2387799769639969,-0.5091848969459534,0.1717089861631393,-0.01071387529373169,0.04285502433776855,0.009831294417381287,XArbitraryZVertical,-0.575793473960002,-0.3476598290158491,-0.2670213130947269,0.6901407255352685,-0.7873666882514954,0.6090918779373169,-0.09518903493881226,0,0,0,-1,-1,29661.316794875,unknown,2,2025-04-22T12:15:07.401+03:00,2025-04-21T17:08:51.449+03:00,7224,0.9707136,0,0,6027.237,5,20,2025-04-22T12:15:09.980+03:00,767006141.0259913,0,-20.15,100.4448,1,0.85,2025-04-22T12:14:03.331+03:00,112,1.866666666666667,2025-04-22T09:54:17.825+03:00,0.02225348692287972,0
2025-04-22T12:15:41.532+03:00,1745313339.469681,40.95212370955056,29.14023444794606,75.95811,-1,-1,-1,-1,30,23.14434125577553,-9999,29676.86924654167,-0.786285400390625,0.6550750732421875,-0.0638580322265625,29676.86674454167,-1.319811483172333,-1.453652146492841,-0.6562089523272239,0.2712806761264801,-0.5399467945098877,0.1457958966493607,-0.01412945985794067,0.03964728116989136,0.01730024814605713,XArbitraryZVertical,-0.5758904302025125,-0.3493550935559727,-0.264502978489679,0.6901733723754673,-0.7868806123733521,0.6101175546646118,-0.09260246157646179,0,0,0,-1,-1,29661.316794875,unknown,2,2025-04-22T12:15:07.401+03:00,2025-04-21T17:08:51.449+03:00,7224,0.9707136,0,0,6027.237,5,20,2025-04-22T12:15:09.980+03:00,767006141.0259913,0,-20.15,100.4448,1,0.85,2025-04-22T12:14:03.331+03:00,112,1.866666666666667,2025-04-22T09:54:17.825+03:00,0.02225348692287972,0
2025-04-22T12:15:41.542+03:00,1745313339.469681,40.95212370955056,29.14023444794606,75.95811,-1,-1,-1,-1,30,23.14434125577553,-9999,29676.87932254167,-0.777435302734375,0.6598663330078125,-0.0608978271484375,29676.87682054167,-1.315928658833462,-1.456792867993528,-0.6572254961665858,0.3089851140975952,-0.5494328141212463,0.125756099820137,0.002890169620513916,0.04563230276107788,0.02728528529405594,XArbitraryZVertical,-0.5758410023023912,-0.3512507936107173,-0.2619307591319636,0.6902334405842382,-0.7865510582923889,0.610922634601593,-0.0900600403547287,0,0,0,-1,-1,29661.316794875,unknown,2,2025-04-22T12:15:07.401+03:00,2025-04-21T17:08:51.449+03:00,7224,0.9707136,0,0,6027.237,5,20,2025-04-22T12:15:09.980+03:00,767006141.0259913,0,-20.15,100.4448,1,0.85,2025-04-22T12:14:03.331+03:00,112,1.866666666666667,2025-04-22T09:54:17.825+03:00,0.02225348692287972,0
2025-04-22T12:15:41.552+03:00,1745313339.469681,40.95212370955056,29.14023444794606,75.95811,-1,-1,-1,-1,30,23.14434125577553,-9999,29676.88939854167,-0.786895751953125,0.6639862060546875,-0.0646514892578125,29676.88689654167,-1.311618082132431,-1.459715992255147,-0.6580621716749513,0.3486457169055939,-0.5551713705062866,0.1127257794141769,0.008195996284484863,0.04924273490905762,0.02563100308179855,XArbitraryZVertical,-0.5756415558042641,-0.3532490636246707,-0.2593311236816964,0.6903617169677905,-0.7863028049468994,0.6115848422050476,-0.08770379424095154,0,0,0,-1,-1,29661.316794875,unknown,2,2025-04-22T12:15:07.401+03:00,2025-04-21T17:08:51.449+03:00,7224,0.9707136,0,0,6027.237,5,20,2025-04-22T12:15:09.980+03:00,767006141.0259913,0,-20.15,100.4448,1,0.85,2025-04-22T12:14:03.331+03:00,112,1.866666666666667,2025-04-22T09:54:17.825+03:00,0.02225348692287972,0
2025-04-22T12:15:41.562+03:00,1745313339.469681,40.95212370955056,29.14023444794606,75.95811,-1,-1,-1,-1,30,23.14434125577553,-9999,29676.89947554167,-0.7939453125,0.65521240234375,-0.0636749267578125,29676.89697254167,-1.306781151241514,-1.462295650708322,-0.6587830291182299,0.3890189528465271,-0.5434854626655579,0.1131275221705437,-0.00230330228805542,0.05233460664749146,0.02074688673019409,XArbitraryZVertical,-0.5752717587491591,-0.3553149841969871,-0.2566855462564835,0.6905983391230147,-0.7860877513885498,0.612155020236969,-0.08562733232975006,0,0,0,-1,-1,29661.316794875,unknown,2,2025-04-22T12:15:07.401+03:00,2025-04-21T17:08:51.449+03:00,7224,0.9707136,0,0,6027.237,5,20,2025-04-22T12:15:09.980+03:00,767006141.0259913,0,-20.15,100.4448,1,0.85,2025-04-22T12:14:03.331+03:00,112,1.866666666666667,2025-04-22T09:54:17.825+03:00,0.02225348692287972,0
2025-04-22T12:15:41.572+03:00,1745313339.469681,40.95212370955056,29.14023444794606,75.95811,-1,-1,-1,-1,30,23.14434125577553,-9999,29676.90955154167,-0.7989501953125,0.651275634765625,-0.065277099609375,29676.90704954167,-1.301331692529344,-1.464299812184288,-0.6594279315789009,0.4377252459526062,-0.5202941298484802,0.1054674685001373,-0.008721053600311279,0.04149460792541504,0.02018218487501144,XArbitraryZVertical,-0.5746947958604396,-0.3573807729587284,-0.254018032559729,0.690999074142216,-0.7858652472496033,0.6126648187637329,-0.08400975167751312,0,0,0,-1,-1,29661.316794875,unknown,2,2025-04-22T12:15:07.401+03:00,2025-04-21T17:08:51.449+03:00,7224,0.9707136,0,0,6027.237,5,20,2025-04-22T12:15:09.980+03:00,767006141.0259913,0,-20.15,100.4448,1,0.85,2025-04-22T12:14:03.331+03:00,112,1.866666666666667,2025-04-22T09:54:17.825+03:00,0.02225348692287972,0
2025-04-22T12:15:41.582+03:00,1745313339.469681,40.95212370955056,29.14023444794606,75.95811,-1,-1,-1,-1,30,23.14434125577553,-9999,29676.91962754167,-0.796966552734375,0.654327392578125,-0.057830810546875,29676.91712554167,-1.295724789190668,-1.465981429796508,-0.6600034778952195,0.4077096879482269,-0.4987500607967377,0.1059112250804901,-0.01433330774307251,0.03745394945144653,0.01789283752441406,XArbitraryZVertical,-0.5740261063642182,-0.3594001019006831,-0.25141031696953,0.6914610483340194,-0.7856544852256775,0.6131196022033691,-0.08265119045972824,0,0,0,-1,-1,29661.316794875,unknown,2,2025-04-22T12:15:07.401+03:00,2025-04-21T17:08:51.449+03:00,7224,0.9707136,0,0,6027.237,5,20,2025-04-22T12:15:09.980+03:00,767006141.0259913,0,-20.15,100.4448,1,0.85,2025-04-22T12:14:03.331+03:00,112,1.866666666666667,2025-04-22T09:54:17.825+03:00,0.02225348692287972,0
