loggingTime(txt),locationTimestamp_since1970(s),locationLatitude(WGS84),locationLongitude(WGS84),locationAltitude(m),locationSpeed(m/s),locationSpeedAccuracy(m/s),locationCourse(°),locationCourseAccuracy(°),locationVerticalAccuracy(m),locationHorizontalAccuracy(m),locationFloor(Z),accelerometerTimestamp_sinceReboot(s),accelerometerAccelerationX(G),accelerometerAccelerationY(G),accelerometerAccelerationZ(G),motionTimestamp_sinceReboot(s),motionYaw(rad),motionRoll(rad),motionPitch(rad),motionRotationRateX(rad/s),motionRotationRateY(rad/s),motionRotationRateZ(rad/s),motionUserAccelerationX(G),motionUserAccelerationY(G),motionUserAccelerationZ(G),motionAttitudeReferenceFrame(txt),motionQuaternionX(R),motionQuaternionY(R),motionQuaternionZ(R),motionQuaternionW(R),motionGravityX(G),motionGravityY(G),motionGravityZ(G),motionMagneticFieldX(µT),motionMagneticFieldY(µT),motionMagneticFieldZ(µT),motionHeading(°),motionMagneticFieldCalibrationAccuracy(Z),activityTimestamp_sinceReboot(s),activity(txt),activityActivityConfidence(Z),activityActivityStartDate(txt),pedometerStartDate(txt),pedometerNumberofSteps(N),pedometerAverageActivePace(s/m),pedometerCurrentPace(s/m),pedometerCurrentCadence(steps/s),pedometerDistance(m),pedometerFloorAscended(N),pedometerFloorDescended(N),pedometerEndDate(txt),altimeterTimestamp_sinceReboot(s),altimeterReset(bool),altimeterRelativeAltitude(m),altimeterPressure(kPa),batteryState(N),batteryLevel(R),heartRateBPMTimestamp(txt),heartRateBPM(N),heartRateBPS(R),heartRateVariabilityTimestamp(txt),heartRateVariability(ms),label
2025-04-21T10:41:50.743+03:00,1745221310.133824,40.95362769991429,29.1409764702767,93.06094,-1,-1,-1,-1,30,25.31866889715085,-9999,12278.22832066667,-0.7752838134765625,0.47705078125,-0.4270477294921875,12278.21824466667,-1.940818616767163,-1.06034225545164,-0.4866003728275308,0.03629537671804428,0.01757002249360085,-0.03347000852227211,-0.01863938570022583,-0.005358517169952393,0.006784379482269287,XArbitraryZVertical,0.522376396185306,0.1057878895342294,0.6220554958213778,-0.5735667347314511,-0.7712470293045044,0.4676235616207123,-0.4318636357784271,0,0,0,-1,-1,12269.271095375,unknown,2,2025-04-21T10:41:41.760+03:00,2025-04-20T21:57:49.637+03:00,1464,1.041328,0,0,1097.988,1,4,2025-04-21T10:25:37.107+03:00,766914109.5956278,0,-47.6,100.3025,1,0.7,2025-04-21T10:41:46.384+03:00,103,1.716666666666667,2025-04-21T09:28:58.093+03:00,0.01174319131481236,0
2025-04-21T10:41:50.745+03:00,1745221310.133824,40.95362769991429,29.1409764702767,93.06094,-1,-1,-1,-1,30,25.31866889715085,-9999,12278.23839566667,-0.7718505859375,0.4651336669921875,-0.4256134033203125,12278.22832066667,-1.940590911533473,-1.060001031490889,-0.4862343491874097,0.03973138704895973,0.0162336491048336,-0.0324404314160347,-0.01116073131561279,0.01734969019889832,0.00182110071182251,XArbitraryZVertical,0.5221900113946558,0.1058885192150802,0.6221614044974983,-0.5736029878131342,-0.7712488770484924,0.4672999978065491,-0.4322104156017303,0,0,0,-1,-1,12269.271095375,unknown,2,2025-04-21T10:41:41.760+03:00,2025-04-20T21:57:49.637+03:00,1464,1.041328,0,0,1097.988,1,4,2025-04-21T10:25:37.107+03:00,766914109.5956278,0,-47.6,100.3025,1,0.7,2025-04-21T10:41:46.384+03:00,103,1.716666666666667,2025-04-21T09:28:58.093+03:00,0.01174319131481236,0
2025-04-21T10:41:50.746+03:00,1745221310.133824,40.95362769991429,29.1409764702767,93.06094,-1,-1,-1,-1,30,25.31866889715085,-9999,12278.24847166667,-0.76397705078125,0.465576171875,-0.427825927734375,12278.23839566667,-1.940321350137203,-1.059668007861874,-0.4857009305959165,0.04101316258311272,0.00935736671090126,-0.03283897787332535,-0.003961563110351562,0.01022246479988098,0.005541443824768066,XArbitraryZVertical,0.5219726492351238,0.106065986876748,0.6222906539574883,-0.5736278387019808,-0.7713221907615662,0.4668283462524414,-0.4325891137123108,0,0,0,-1,-1,12269.271095375,unknown,2,2025-04-21T10:41:41.760+03:00,2025-04-20T21:57:49.637+03:00,1464,1.041328,0,0,1097.988,1,4,2025-04-21T10:25:37.107+03:00,766914109.5956278,0,-47.6,100.3025,1,0.7,2025-04-21T10:41:46.384+03:00,103,1.716666666666667,2025-04-21T09:28:58.093+03:00,0.01174319131481236,0
2025-04-21T10:41:50.755+03:00,1745221310.133824,40.95362769991429,29.1409764702767,93.06094,-1,-1,-1,-1,30,25.31866889715085,-9999,12278.25854766667,-0.770965576171875,0.4640045166015625,-0.4288177490234375,12278.24847166667,-1.94012164020489,-1.059502769834848,-0.4850635856678868,0.03906426206231117,0.01265808846801519,-0.03219502419233322,-0.0003404617309570312,-0.001130908727645874,0.00724869966506958,XArbitraryZVertical,0.5217916832995734,0.1063127842654361,0.6224193647496149,-0.5736071516729223,-0.7715100646018982,0.4662646055221558,-0.4328620731830597,0,0,0,-1,-1,12269.271095375,unknown,2,2025-04-21T10:41:41.760+03:00,2025-04-20T21:57:49.637+03:00,1464,1.041328,0,0,1097.988,1,4,2025-04-21T10:25:37.107+03:00,766914109.5956278,0,-47.6,100.3025,1,0.7,2025-04-21T10:41:46.384+03:00,103,1.716666666666667,2025-04-21T09:28:58.093+03:00,0.01174319131481236,0
2025-04-21T10:41:50.762+03:00,1745221310.133824,40.95362769991429,29.1409764702767,93.06094,-1,-1,-1,-1,30,25.31866889715085,-9999,12278.26862266667,-0.7736968994140625,0.4590606689453125,-0.4277801513671875,12278.25854766667,-1.939953099167536,-1.059324794942837,-0.4846558719262781,0.03339758887887001,-7.639173418283463e-06,-0.02590889669954777,0.007621705532073975,-0.00032767653465271,0.005266487598419189,XArbitraryZVertical,0.5216511872147224,0.1064605565528038,0.6225088152503654,-0.573610465088659,-0.7715986967086792,0.4659038782119751,-0.4330923855304718,0,0,0,-1,-1,12269.271095375,unknown,2,2025-04-21T10:41:41.760+03:00,2025-04-20T21:57:49.637+03:00,1464,1.041328,0,0,1097.988,1,4,2025-04-21T10:25:37.107+03:00,766914109.5956278,0,-47.6,100.3025,1,0.7,2025-04-21T10:41:46.384+03:00,103,1.716666666666667,2025-04-21T09:28:58.093+03:00,0.01174319131481236,0
2025-04-21T10:41:50.772+03:00,1745221310.133824,40.95362769991429,29.1409764702767,93.06094,-1,-1,-1,-1,30,25.31866889715085,-9999,12278.27869866667,-0.76995849609375,0.457183837890625,-0.423248291015625,12278.26862266667,-1.939817428025959,-1.059295141426622,-0.4843412549081569,0.02971976436674595,-0.001899548806250095,-0.02786818519234657,0.0007480382919311523,-0.001620888710021973,0.004369258880615234,XArbitraryZVertical,0.5215759433646333,0.1066069296840915,0.6225481320943227,-0.5736090597680976,-0.7717136740684509,0.4656254947185516,-0.4331870079040527,0,0,0,-1,-1,12269.271095375,unknown,2,2025-04-21T10:41:41.760+03:00,2025-04-20T21:57:49.637+03:00,1464,1.041328,0,0,1097.988,1,4,2025-04-21T10:25:37.107+03:00,766914109.5956278,0,-47.6,100.3025,1,0.7,2025-04-21T10:41:46.384+03:00,103,1.716666666666667,2025-04-21T09:28:58.093+03:00,0.01174319131481236,0
2025-04-21T10:41:50.785+03:00,1745221310.133824,40.95362769991429,29.1409764702767,93.06094,-1,-1,-1,-1,30,25.31866889715085,-9999,12278.28877466667,-0.7672576904296875,0.4562835693359375,-0.4237823486328125,12278.27869866667,-1.939687202603486,-1.059307134445265,-0.484042694129158,0.02821560949087143,-0.005497745238244534,-0.01977044530212879,-0.001856863498687744,-0.006300568580627441,0.00546562671661377,XArbitraryZVertical,0.5215169600797427,0.1067576736608664,0.6225744704958277,-0.573605933775227,-0.77183997631073,0.4653612375259399,-0.4332457184791565,0,0,0,-1,-1,12269.271095375,unknown,2,2025-04-21T10:41:41.760+03:00,2025-04-20T21:57:49.637+03:00,1464,1.041328,0,0,1097.988,1,4,2025-04-21T10:25:37.107+03:00,766914109.5956278,0,-47.6,100.3025,1,0.7,2025-04-21T10:41:46.384+03:00,103,1.716666666666667,2025-04-21T09:28:58.093+03:00,0.01174319131481236,0
2025-04-21T10:41:50.792+03:00,1745221310.133824,40.95362769991429,29.1409764702767,93.06094,-1,-1,-1,-1,30,25.31866889715085,-9999,12278.29884966667,-0.76153564453125,0.4544219970703125,-0.4279632568359375,12278.28877466667,-1.939489512673932,-1.059342176243739,-0.4838129355723901,0.03407562896609306,-0.007730007171630859,-0.009237376973032951,0.001989960670471191,-0.007974028587341309,0.01002281904220581,XArbitraryZVertical,0.5214743285035022,0.1069065484545024,0.6225601357947,-0.5736326248544968,-0.7719483971595764,0.4651578664779663,-0.4332710206508636,0,0,0,-1,-1,12269.271095375,unknown,2,2025-04-21T10:41:41.760+03:00,2025-04-20T21:57:49.637+03:00,1464,1.041328,0,0,1097.988,1,4,2025-04-21T10:25:37.107+03:00,766914109.5956278,0,-47.6,100.3025,1,0.7,2025-04-21T10:41:46.384+03:00,103,1.716666666666667,2025-04-21T09:28:58.093+03:00,0.01174319131481236,0
2025-04-21T10:41:50.802+03:00,1745221310.133824,40.95362769991429,29.1409764702767,93.06094,-1,-1,-1,-1,30,25.31866889715085,-9999,12278.30892566667,-0.760711669921875,0.4559173583984375,-0.4282989501953125,12278.29884966667,-1.939250513627633,-1.059400757941335,-0.4835308756913094,0.0343456044793129,-0.01629985868930817,-0.008510766550898552,0.004830539226531982,-0.00862458348274231,0.009507715702056885,XArbitraryZVertical,0.5214270335660743,0.1070927519290847,0.6225394556335266,-0.5736632815270488,-0.7720881700515747,0.4649081528186798,-0.4332899749279022,0,0,0,-1,-1,12269.271095375,unknown,2,2025-04-21T10:41:41.760+03:00,2025-04-20T21:57:49.637+03:00,1464,1.041328,0,0,1097.988,1,4,2025-04-21T10:25:37.107+03:00,766914109.5956278,0,-47.6,100.3025,1,0.7,2025-04-21T10:41:46.384+03:00,103,1.716666666666667,2025-04-21T09:28:58.093+03:00,0.01174319131481236,0
2025-04-21T10:41:50.812+03:00,1745221310.133824,40.95362769991429,29.1409764702767,93.06094,-1,-1,-1,-1,30,25.31866889715085,-9999,12278.31900066667,-0.7583465576171875,0.458831787109375,-0.4302520751953125,12278.30892566667,-1.939006615576812,-1.059515376846886,-0.4834101464033042,0.02244074456393719,-0.02068422175943851,-0.001052050734870136,0.01065117120742798,-0.01037925481796265,0.005265712738037109,XArbitraryZVertical,0.5214270548157358,0.1072350524534227,0.6224666432500912,-0.5737156788687378,-0.7721867561340332,0.4648012816905975,-0.4332289397716522,0,0,0,-1,-1,12269.271095375,unknown,2,2025-04-21T10:41:41.760+03:00,2025-04-20T21:57:49.637+03:00,1464,1.041328,0,0,1097.988,1,4,2025-04-21T10:25:37.107+03:00,766914109.5956278,0,-47.6,100.3025,1,0.7,2025-04-21T10:41:46.384+03:00,103,1.716666666666667,2025-04-21T09:28:58.093+03:00,0.01174319131481236,0
2025-04-21T10:41:50.822+03:00,1745221310.133824,40.95362769991429,29.1409764702767,93.06094,-1,-1,-1,-1,30,25.31866889715085,-9999,12278.32907666667,-0.7653350830078125,0.456298828125,-0.4269866943359375,12278.31900066667,-1.938796082083723,-1.059635791266332,-0.4833329346546431,0.02143580093979836,-0.01914345100522041,-0.002797286724671721,0.01155859231948853,-0.008815526962280273,0.004854589700698853,XArbitraryZVertical,0.5214388014107038,0.1073537791100519,0.6223921150572809,-0.5737635855075567,-0.7722702026367188,0.4647329151630402,-0.4331534802913666,0,0,0,-1,-1,12269.271095375,unknown,2,2025-04-21T10:41:41.760+03:00,2025-04-20T21:57:49.637+03:00,1464,1.041328,0,0,1097.988,1,4,2025-04-21T10:25:37.107+03:00,766914109.5956278,0,-47.6,100.3025,1,0.7,2025-04-21T10:41:46.384+03:00,103,1.716666666666667,2025-04-21T09:28:58.093+03:00,0.01174319131481236,0
2025-04-21T10:41:50.833+03:00,1745221310.133824,40.95362769991429,29.1409764702767,93.06094,-1,-1,-1,-1,30,25.31866889715085,-9999,12278.33915266667,-0.7656097412109375,0.4556732177734375,-0.4241485595703125,12278.32907666667,-1.93862912287175,-1.059748138783939,-0.4832457937094214,0.01555021572858095,-0.01360327564179897,-0.0004678198019973934,0.01400768756866455,-0.005823969841003418,0.002834558486938477,XArbitraryZVertical,0.5214484668615618,0.1074626428749227,0.6223344757520362,-0.5737970227443026,-0.7723541855812073,0.464655727148056,-0.4330865442752838,0,0,0,-1,-1,12269.271095375,unknown,2,2025-04-21T10:41:41.760+03:00,2025-04-20T21:57:49.637+03:00,1464,1.041328,0,0,1097.988,1,4,2025-04-21T10:25:37.107+03:00,766914109.5956278,0,-47.6,100.3025,1,0.7,2025-04-21T10:41:46.384+03:00,103,1.716666666666667,2025-04-21T09:28:58.093+03:00,0.01174319131481236,0
2025-04-21T10:41:50.842+03:00,1745221310.133824,40.95362769991429,29.1409764702767,93.06094,-1,-1,-1,-1,30,25.31866889715085,-9999,12278.34922766667,-0.76739501953125,0.45361328125,-0.4222259521484375,12278.33915266667,-1.938524444515796,-1.059846646743704,-0.4832308978990104,0.005626678001135588,-0.01330853160470724,0.003685346804559231,0.007067859172821045,-0.008343726396560669,0.006027191877365112,XArbitraryZVertical,0.5214707195145327,0.1075238328875699,0.6222820647915124,-0.5738221087916847,-0.7724028825759888,0.4646425545215607,-0.4330138266086578,0,0,0,-1,-1,12269.271095375,unknown,2,2025-04-21T10:41:41.760+03:00,2025-04-20T21:57:49.637+03:00,1464,1.041328,0,0,1097.988,1,4,2025-04-21T10:25:37.107+03:00,766914109.5956278,0,-47.6,100.3025,1,0.7,2025-04-21T10:41:46.384+03:00,103,1.716666666666667,2025-04-21T09:28:58.093+03:00,0.01174319131481236,0
2025-04-21T10:41:50.853+03:00,1745221310.133824,40.95362769991429,29.1409764702767,93.06094,-1,-1,-1,-1,30,25.31866889715085,-9999,12278.35930366667,-0.7686920166015625,0.4539337158203125,-0.4268035888671875,12278.34922766667,-1.938445541671004,-1.059898135547349,-0.4832657788203642,0.005415223073214293,-0.003272408619523048,0.007487541995942593,0.006801366806030273,-0.009000182151794434,0.008817672729492188,XArbitraryZVertical,0.5214890091244745,0.1075459602174444,0.6222382213526673,-0.5738489600398425,-0.772411048412323,0.4646734297275543,-0.4329661726951599,0,0,0,-1,-1,12269.271095375,unknown,2,2025-04-21T10:41:41.760+03:00,2025-04-20T21:57:49.637+03:00,1464,1.041328,0,0,1097.988,1,4,2025-04-21T10:25:37.107+03:00,766914109.5956278,0,-47.6,100.3025,1,0.7,2025-04-21T10:41:46.384+03:00,103,1.716666666666667,2025-04-21T09:28:58.093+03:00,0.01174319131481236,0
2025-04-21T10:41:50.863+03:00,1745221310.133824,40.95362769991429,29.1409764702767,93.06094,-1,-1,-1,-1,30,25.31866889715085,-9999,12278.36937966667,-0.766387939453125,0.4565887451171875,-0.43109130859375,12278.35930366667,-1.938383650801072,-1.059986064081918,-0.4833203638843878,-0.001967458985745907,-0.01275685615837574,0.0132525535300374,0.005032062530517578,-0.01110848784446716,0.01065993309020996,XArbitraryZVertical,0.5215232426486304,0.1075666229869123,0.6221853299613556,-0.5738713744722858,-0.7724270224571228,0.4647217690944672,-0.4328858554363251,0,0,0,-1,-1,12269.271095375,unknown,2,2025-04-21T10:41:41.760+03:00,2025-04-20T21:57:49.637+03:00,1464,1.041328,0,0,1097.988,1,4,2025-04-21T10:25:37.107+03:00,766914109.5956278,0,-47.6,100.3025,1,0.7,2025-04-21T10:41:46.384+03:00,103,1.716666666666667,2025-04-21T09:28:58.093+03:00,0.01174319131481236,0
2025-04-21T10:41:50.873+03:00,1745221310.133824,40.95362769991429,29.1409764702767,93.06094,-1,-1,-1,-1,30,25.31866889715085,-9999,12278.37945466667,-0.7684478759765625,0.4614715576171875,-0.4325408935546875,12278.36937966667,-1.938329613443156,-1.060132563795859,-0.4834420852702335,-0.001782369334250689,-0.01287643238902092,0.01556284539401531,0.003749072551727295,-0.01089584827423096,0.005941510200500488,XArbitraryZVertical,0.5215887024509686,0.107576539512807,0.6221043322219043,-0.5738977913486097,-0.7724410891532898,0.4648295342922211,-0.4327450394630432,0,0,0,-1,-1,12269.271095375,unknown,2,2025-04-21T10:41:41.760+03:00,2025-04-20T21:57:49.637+03:00,1464,1.041328,0,0,1097.988,1,4,2025-04-21T10:25:37.107+03:00,766914109.5956278,0,-47.6,100.3025,1,0.7,2025-04-21T10:41:46.384+03:00,103,1.716666666666667,2025-04-21T09:28:58.093+03:00,0.01174319131481236,0
2025-04-21T10:41:50.883+03:00,1745221310.133824,40.95362769991429,29.1409764702767,93.06094,-1,-1,-1,-1,30,25.31866889715085,-9999,12278.38953066667,-0.7720489501953125,0.4640350341796875,-0.431671142578125,12278.37945466667,-1.938261759005046,-1.060265019837633,-0.4835608195637914,-0.003372543025761843,-0.01505809463560581,0.01542875450104475,0.00606226921081543,-0.008345872163772583,0.001524448394775391,XArbitraryZVertical,0.5216484562242114,0.1075872018887776,0.6220237435766788,-0.5739289086447226,-0.7724502682685852,0.4649346768856049,-0.4326157569885254,0,0,0,-1,-1,12269.271095375,unknown,2,2025-04-21T10:41:41.760+03:00,2025-04-20T21:57:49.637+03:00,1464,1.041328,0,0,1097.988,1,4,2025-04-21T10:25:37.107+03:00,766914109.5956278,0,-47.6,100.3025,1,0.7,2025-04-21T10:41:46.384+03:00,103,1.716666666666667,2025-04-21T09:28:58.093+03:00,0.01174319131481236,0
2025-04-21T10:41:50.893+03:00,1745221310.133824,40.95362769991429,29.1409764702767,93.06094,-1,-1,-1,-1,30,25.31866889715085,-9999,12278.39960666667,-0.7716827392578125,0.46380615234375,-0.425872802734375,12278.38953066667,-1.938204622823656,-1.060414062486074,-0.4837374265500105,-0.007403237279504538,-0.01668288931250572,0.01929726265370846,0.003995239734649658,-0.003619462251663208,-8.034706115722656e-05,XArbitraryZVertical,0.521724788916172,0.1075778424993406,0.6219288814500754,-0.5739640594866442,-0.7724430561065674,0.4650910198688507,-0.4324605166912079,0,0,0,-1,-1,12269.271095375,unknown,2,2025-04-21T10:41:41.760+03:00,2025-04-20T21:57:49.637+03:00,1464,1.041328,0,0,1097.988,1,4,2025-04-21T10:25:37.107+03:00,766914109.5956278,0,-47.6,100.3025,1,0.7,2025-04-21T10:41:46.384+03:00,103,1.716666666666667,2025-04-21T09:28:58.093+03:00,0.01174319131481236,0
2025-04-21T10:41:50.903+03:00,1745221310.133824,40.95362769991429,29.1409764702767,93.06094,-1,-1,-1,-1,30,25.31866889715085,-9999,12278.40968166667,-0.7764129638671875,0.4655303955078125,-0.4262237548828125,12278.39960666667,-1.938126722395333,-1.060491718261069,-0.4839232275940494,-0.001106658717617393,-0.01079084351658821,0.01920861192047596,0.000352323055267334,-0.001220434904098511,0.0006871819496154785,XArbitraryZVertical,0.5217795179660106,0.1075499293248012,0.6218446080499496,-0.5740108249341923,-0.7724012136459351,0.4652554988861084,-0.4323582947254181,0,0,0,-1,-1,12269.271095375,unknown,2,2025-04-21T10:41:41.760+03:00,2025-04-20T21:57:49.637+03:00,1464,1.041328,0,0,1097.988,1,4,2025-04-21T10:25:37.107+03:00,766914109.5956278,0,-47.6,100.3025,1,0.7,2025-04-21T10:41:46.384+03:00,103,1.716666666666667,2025-04-21T09:28:58.093+03:00,0.01174319131481236,0
2025-04-21T10:41:50.913+03:00,1745221310.133824,40.95362769991429,29.1409764702767,93.06094,-1,-1,-1,-1,30,25.31866889715085,-9999,12278.41975766667,-0.780853271484375,0.46856689453125,-0.4299774169921875,12278.40968166667,-1.938016618107354,-1.060456676507912,-0.4840981551242767,-0.0009111827821470797,0.004377455450594425,0.01957612857222557,0.0006323456764221191,-0.001604199409484863,0.006472855806350708,XArbitraryZVertical,0.5217954426247357,0.1075021991194426,0.6217829155553205,-0.5740720817516651,-0.7723150253295898,0.4654103219509125,-0.4323455989360809,0,0,0,-1,-1,12269.271095375,unknown,2,2025-04-21T10:41:41.760+03:00,2025-04-20T21:57:49.637+03:00,1464,1.041328,0,0,1097.988,1,4,2025-04-21T10:25:37.107+03:00,766914109.5956278,0,-47.6,100.3025,1,0.7,2025-04-21T10:41:46.384+03:00,103,1.716666666666667,2025-04-21T09:28:58.093+03:00,0.01174319131481236,0
2025-04-21T10:41:50.924+03:00,1745221310.133824,40.95362769991429,29.1409764702767,93.06094,-1,-1,-1,-1,30,25.31866889715085,-9999,12278.42983266667,-0.7845458984375,0.4674530029296875,-0.4365234375,12278.41975766667,-1.937920683338722,-1.060301144160722,-0.4842042734401977,0.005289388820528984,0.01762741431593895,0.01268503349274397,-0.004208207130432129,2.616643905639648e-05,0.006217896938323975,XArbitraryZVertical,0.5217617738677059,0.1074423294854026,0.6217721948246998,-0.5741255766721158,-0.7722046971321106,0.4655042588710785,-0.4324415922164917,0,0,0,-1,-1,12269.271095375,unknown,2,2025-04-21T10:41:41.760+03:00,2025-04-20T21:57:49.637+03:00,1464,1.041328,0,0,1097.988,1,4,2025-04-21T10:25:37.107+03:00,766914109.5956278,0,-47.6,100.3025,1,0.7,2025-04-21T10:41:46.384+03:00,103,1.716666666666667,2025-04-21T09:28:58.093+03:00,0.01174319131481236,0
2025-04-21T10:41:50.934+03:00,1745221310.133824,40.95362769991429,29.1409764702767,93.06094,-1,-1,-1,-1,30,25.31866889715085,-9999,12278.43990866667,-0.781402587890625,0.4676513671875,-0.43829345703125,12278.42983266667,-1.93778385853062,-1.060022666936763,-0.4842392934869433,0.01675136759877205,0.0249822661280632,0.007484145928174257,-0.008783280849456787,0.003031641244888306,0.002671241760253906,XArbitraryZVertical,0.5216744402145269,0.107384740564885,0.6217976364301656,-0.5741879956049846,-0.7720699310302734,0.4655352532863617,-0.4326485991477966,0,0,0,-1,-1,12269.271095375,unknown,2,2025-04-21T10:41:41.760+03:00,2025-04-20T21:57:49.637+03:00,1464,1.041328,0,0,1097.988,1,4,2025-04-21T10:25:37.107+03:00,766914109.5956278,0,-47.6,100.3025,1,0.7,2025-04-21T10:41:46.384+03:00,103,1.716666666666667,2025-04-21T09:28:58.093+03:00,0.01174319131481236,0
2025-04-21T10:41:50.943+03:00,1745221310.133824,40.95362769991429,29.1409764702767,93.06094,-1,-1,-1,-1,30,25.31866889715085,-9999,12278.44998466667,-0.7725067138671875,0.46612548828125,-0.4332427978515625,12278.43990866667,-1.937592214103255,-1.059731488346978,-0.4841909165452179,0.01739645190536976,0.02370667830109596,0.006935035809874535,-0.01258224248886108,0.001960545778274536,-0.003638982772827148,XArbitraryZVertical,0.5215645559547674,0.1073694935212535,0.6218294172986382,-0.5742562866031373,-0.7719635963439941,0.4654924273490906,-0.4328844249248505,0,0,0,-1,-1,12269.271095375,unknown,2,2025-04-21T10:41:41.760+03:00,2025-04-20T21:57:49.637+03:00,1464,1.041328,0,0,1097.988,1,4,2025-04-21T10:25:37.107+03:00,766914109.5956278,0,-47.6,100.3025,1,0.7,2025-04-21T10:41:46.384+03:00,103,1.716666666666667,2025-04-21T09:28:58.093+03:00,0.01174319131481236,0
2025-04-21T10:41:50.954+03:00,1745221310.133824,40.95362769991429,29.1409764702767,93.06094,-1,-1,-1,-1,30,25.31866889715085,-9999,12278.46005966667,-0.7711944580078125,0.4653167724609375,-0.4276275634765625,12278.44998466667,-1.937366633906717,-1.059377554939803,-0.4841044789782587,0.02375767752528191,0.02728436887264252,0.004038315266370773,-0.009557068347930908,0.002235472202301025,-0.005116045475006104,XArbitraryZVertical,0.5214261781319107,0.1073595250181146,0.6218763644091058,-0.574333103059978,-0.7718455195426941,0.4654159247875214,-0.4331773519515991,0,0,0,-1,-1,12269.271095375,unknown,2,2025-04-21T10:41:41.760+03:00,2025-04-20T21:57:49.637+03:00,1464,1.041328,0,0,1097.988,1,4,2025-04-21T10:25:37.107+03:00,766914109.5956278,0,-47.6,100.3025,1,0.7,2025-04-21T10:41:46.384+03:00,103,1.716666666666667,2025-04-21T09:28:58.093+03:00,0.01174319131481236,0
2025-04-21T10:41:50.964+03:00,1745221310.133824,40.95362769991429,29.1409764702767,93.06094,-1,-1,-1,-1,30,25.31866889715085,-9999,12278.47013566667,-0.770416259765625,0.4677886962890625,-0.42657470703125,12278.46005966667,-1.937099393243551,-1.058962634424622,-0.483985719226188,0.02570638060569763,0.02804743126034737,0.001428051153197885,-0.0007929205894470215,0.0008147358894348145,0.0002818107604980469,XArbitraryZVertical,0.5212605647778417,0.1073550885511067,0.6219343741356844,-0.5744214036917502,-0.7717138528823853,0.46531081199646,-0.4335246086120605,0,0,0,-1,-1,12269.271095375,unknown,2,2025-04-21T10:41:41.760+03:00,2025-04-20T21:57:49.637+03:00,1464,1.041328,0,0,1097.988,1,4,2025-04-21T10:25:37.107+03:00,766914109.5956278,0,-47.6,100.3025,1,0.7,2025-04-21T10:41:46.384+03:00,103,1.716666666666667,2025-04-21T09:28:58.093+03:00,0.01174319131481236,0
2025-04-21T10:41:50.974+03:00,1745221310.133824,40.95362769991429,29.1409764702767,93.06094,-1,-1,-1,-1,30,25.31866889715085,-9999,12278.48021166667,-0.7689666748046875,0.46929931640625,-0.43310546875,12278.47013566667,-1.936833437579712,-1.058586128496046,-0.4838423914799782,0.02810668759047985,0.0255240872502327,-0.001235109753906727,0.0004142522811889648,0.0001328587532043457,0.00622028112411499,XArbitraryZVertical,0.5211023392045383,0.1073706296261549,0.6219881883598818,-0.5745037220216196,-0.7716086506843567,0.4651839435100555,-0.4338478147983551,0,0,0,-1,-1,12269.271095375,unknown,2,2025-04-21T10:41:41.760+03:00,2025-04-20T21:57:49.637+03:00,1464,1.041328,0,0,1097.988,1,4,2025-04-21T10:25:37.107+03:00,766914109.5956278,0,-47.6,100.3025,1,0.7,2025-04-21T10:41:46.384+03:00,103,1.716666666666667,2025-04-21T09:28:58.093+03:00,0.01174319131481236,0
2025-04-21T10:41:50.984+03:00,1745221310.133824,40.95362769991429,29.1409764702767,93.06094,-1,-1,-1,-1,30,25.31866889715085,-9999,12278.49028666667,-0.772308349609375,0.4656219482421875,-0.43756103515625,12278.48021166667,-1.936570737263031,-1.058229581089884,-0.4836614208192427,0.03074441477656364,0.02004077099263668,-0.004422847181558609,0.001111090183258057,0.002764970064163208,0.007589519023895264,XArbitraryZVertical,0.5209433738725061,0.1074053414974645,0.6220461808545648,-0.5745786679007723,-0.7715272903442383,0.4650237262248993,-0.4341641962528229,0,0,0,-1,-1,12269.271095375,unknown,2,2025-04-21T10:41:41.760+03:00,2025-04-20T21:57:49.637+03:00,1464,1.041328,0,0,1097.988,1,4,2025-04-21T10:25:37.107+03:00,766914109.5956278,0,-47.6,100.3025,1,0.7,2025-04-21T10:41:46.384+03:00,103,1.716666666666667,2025-04-21T09:28:58.093+03:00,0.01174319131481236,0
2025-04-21T10:41:50.994+03:00,1745221310.133824,40.95362769991429,29.1409764702767,93.06094,-1,-1,-1,-1,30,25.31866889715085,-9999,12278.50036325,-0.7698974609375,0.46624755859375,-0.4350738525390625,12278.49028666667,-1.936265817428815,-1.057979081045743,-0.4834463109523626,0.03667314350605011,0.01063608378171921,-0.004438559524714947,0.00253903865814209,0.004466056823730469,0.001301050186157227,XArbitraryZVertical,0.5208087057275834,0.1074944057367365,0.6220719770235368,-0.5746561030272189,-0.7715056538581848,0.4648332893848419,-0.4344064891338348,0,0,0,-1,-1,12269.271095375,unknown,2,2025-04-21T10:41:41.760+03:00,2025-04-20T21:57:49.637+03:00,1464,1.041328,0,0,1097.988,1,4,2025-04-21T10:25:37.107+03:00,766914109.5956278,0,-47.6,100.3025,1,0.7,2025-04-21T10:41:46.384+03:00,103,1.716666666666667,2025-04-21T09:28:58.093+03:00,0.01174319131481236,0
2025-04-21T10:41:51.004+03:00,1745221310.133824,40.95362769991429,29.1409764702767,93.06094,-1,-1,-1,-1,30,25.31866889715085,-9999,12278.51043925,-0.773406982421875,0.4613800048828125,-0.4296417236328125,12278.50036325,-1.935964196591655,-1.057737809904284,-0.4832107849988634,0.03670729696750641,0.01861311681568623,-0.0107203908264637,-0.0008121132850646973,0.0009971857070922852,-0.002914607524871826,XArbitraryZVertical,0.5206731894161755,0.1075929995937564,0.6221008896412409,-0.5747291718372857,-0.7714961767196655,0.4646247327327728,-0.434646338224411,0,0,0,-1,-1,12269.271095375,unknown,2,2025-04-21T10:41:41.760+03:00,2025-04-20T21:57:49.637+03:00,1464,1.041328,0,0,1097.988,1,4,2025-04-21T10:25:37.107+03:00,766914109.5956278,0,-47.6,100.3025,1,0.7,2025-04-21T10:41:46.384+03:00,103,1.716666666666667,2025-04-21T09:28:58.093+03:00,0.01174319131481236,0
2025-04-21T10:41:51.015+03:00,1745221310.133824,40.95362769991429,29.1409764702767,93.06094,-1,-1,-1,-1,30,25.31866889715085,-9999,12278.52051425,-0.7722625732421875,0.460113525390625,-0.426361083984375,12278.51043925,-1.935657262266693,-1.057440274408497,-0.4829655695865254,0.03754912316799164,0.02002112939953804,-0.00718744145706296,0.001568615436553955,0.001839995384216309,-0.0001419782638549805,XArbitraryZVertical,0.5205180326280627,0.1076804310630609,0.6221450234483089,-0.5748055181369496,-0.7714660167694092,0.4644075930118561,-0.4349318146705627,0,0,0,-1,-1,12269.271095375,unknown,2,2025-04-21T10:41:41.760+03:00,2025-04-20T21:57:49.637+03:00,1464,1.041328,0,0,1097.988,1,4,2025-04-21T10:25:37.107+03:00,766914109.5956278,0,-47.6,100.3025,1,0.7,2025-04-21T10:41:46.384+03:00,103,1.716666666666667,2025-04-21T09:28:58.093+03:00,0.01174319131481236,0
2025-04-21T10:41:51.024+03:00,1745221310.133824,40.95362769991429,29.1409764702767,93.06094,-1,-1,-1,-1,30,25.31866889715085,-9999,12278.53059025,-0.7654571533203125,0.45904541015625,-0.4271392822265625,12278.52051425,-1.935397233583375,-1.05714686921717,-0.4827392074015361,0.02435935288667679,0.01693139597773552,-0.005611482076346874,-0.001977026462554932,-0.002827107906341553,0.005568116903305054,XArbitraryZVertical,0.5203701963118754,0.107749639345065,0.6221972777662841,-0.5748697484404289,-0.7714298367500305,0.4642071127891541,-0.4352097511291504,0,0,0,-1,-1,12269.271095375,unknown,2,2025-04-21T10:41:41.760+03:00,2025-04-20T21:57:49.637+03:00,1464,1.041328,0,0,1097.988,1,4,2025-04-21T10:25:37.107+03:00,766914109.5956278,0,-47.6,100.3025,1,0.7,2025-04-21T10:41:46.384+03:00,103,1.716666666666667,2025-04-21T09:28:58.093+03:00,0.01174319131481236,0
2025-04-21T10:41:51.034+03:00,1745221310.133824,40.95362769991429,29.1409764702767,93.06094,-1,-1,-1,-1,30,25.31866889715085,-9999,12278.54066625,-0.76220703125,0.45391845703125,-0.423095703125,12278.53059025,-1.935235373461227,-1.056961570889958,-0.4825854723591036,0.01200628001242876,0.004218531306833029,-0.006281799636781216,-0.0008511543273925781,-0.003957420587539673,0.00902673602104187,XArbitraryZVertical,0.5202749026482816,0.1077968140624103,0.622233359114381,-0.5749080676479948,-0.7714112997055054,0.4640709161758423,-0.4353877305984497,0,0,0,-1,-1,12269.271095375,unknown,2,2025-04-21T10:41:41.760+03:00,2025-04-20T21:57:49.637+03:00,1464,1.041328,0,0,1097.988,1,4,2025-04-21T10:25:37.107+03:00,766914109.5956278,0,-47.6,100.3025,1,0.7,2025-04-21T10:41:46.384+03:00,103,1.716666666666667,2025-04-21T09:28:58.093+03:00,0.01174319131481236,0
2025-04-21T10:41:51.044+03:00,1745221310.133824,40.95362769991429,29.1409764702767,93.06094,-1,-1,-1,-1,30,25.31866889715085,-9999,12278.55074125,-0.7615814208984375,0.4503631591796875,-0.424407958984375,12278.54066625,-1.935193116439823,-1.056940432239658,-0.4825252634391126,0.001897919457405806,-0.001965395174920559,-0.002933174837380648,0.005969464778900146,-0.004972189664840698,0.008278638124465942,XArbitraryZVertical,0.5202546914238737,0.1078246052834049,0.6222402318560848,-0.5749138078732858,-0.7714264988899231,0.4640175998210907,-0.4354178309440613,0,0,0,-1,-1,12269.271095375,unknown,2,2025-04-21T10:41:41.760+03:00,2025-04-20T21:57:49.637+03:00,1464,1.041328,0,0,1097.988,1,4,2025-04-21T10:25:37.107+03:00,766914109.5956278,0,-47.6,100.3025,1,0.7,2025-04-21T10:41:46.384+03:00,103,1.716666666666667,2025-04-21T09:28:58.093+03:00,0.01174319131481236,0
2025-04-21T10:41:51.054+03:00,1745221310.133824,40.95362769991429,29.1409764702767,93.06094,-1,-1,-1,-1,30,25.31866889715085,-9999,12278.56081725,-0.7644805908203125,0.45196533203125,-0.4281463623046875,12278.55074125,-1.935239123942025,-1.057041923782971,-0.4825453621502545,-0.007526475004851818,-0.00826110877096653,-0.001041264971718192,0.009255588054656982,-0.01011696457862854,0.01223927736282349,XArbitraryZVertical,0.5202925384012701,0.1078341751600104,0.6222225418843458,-0.5748968757877551,-0.7714625597000122,0.4640353918075562,-0.4353349208831787,0,0,0,-1,-1,12269.271095375,unknown,2,2025-04-21T10:41:41.760+03:00,2025-04-20T21:57:49.637+03:00,1464,1.041328,0,0,1097.988,1,4,2025-04-21T10:25:37.107+03:00,766914109.5956278,0,-47.6,100.3025,1,0.7,2025-04-21T10:41:46.384+03:00,103,1.716666666666667,2025-04-21T09:28:58.093+03:00,0.01174319131481236,0
2025-04-21T10:41:51.064+03:00,1745221310.133824,40.95362769991429,29.1409764702767,93.06094,-1,-1,-1,-1,30,25.31866889715085,-9999,12278.57089225,-0.7658233642578125,0.4563140869140625,-0.4283599853515625,12278.56081725,-1.935359748752104,-1.057213803739036,-0.4826004096833772,-0.006929327733814716,-0.01036227587610483,-0.001397562678903341,0.009933829307556152,-0.01372101902961731,0.01078188419342041,XArbitraryZVertical,0.5203628831975234,0.1078312993761175,0.6222001587483662,-0.5748579350309219,-0.7715150713920593,0.4640841484069824,-0.4351897537708282,0,0,0,-1,-1,12269.271095375,unknown,2,2025-04-21T10:41:41.760+03:00,2025-04-20T21:57:49.637+03:00,1464,1.041328,0,0,1097.988,1,4,2025-04-21T10:25:37.107+03:00,766914109.5956278,0,-47.6,100.3025,1,0.7,2025-04-21T10:41:46.384+03:00,103,1.716666666666667,2025-04-21T09:28:58.093+03:00,0.01174319131481236,0
2025-04-21T10:41:51.074+03:00,1745221310.133824,40.95362769991429,29.1409764702767,93.06094,-1,-1,-1,-1,30,25.31866889715085,-9999,12278.58096825,-0.7675323486328125,0.4603271484375,-0.430938720703125,12278.57089225,-1.935406921759871,-1.057330068855517,-0.4826507004445833,0.000167996680829674,-0.007388057187199593,0.001794235780835152,0.007064878940582275,-0.01216334104537964,0.006942272186279297,XArbitraryZVertical,0.520411046540678,0.1078333742239175,0.6221722303972114,-0.5748442257590007,-0.77154541015625,0.464128702878952,-0.4350886046886444,0,0,0,-1,-1,12269.271095375,unknown,2,2025-04-21T10:41:41.760+03:00,2025-04-20T21:57:49.637+03:00,1464,1.041328,0,0,1097.988,1,4,2025-04-21T10:25:37.107+03:00,766914109.5956278,0,-47.6,100.3025,1,0.7,2025-04-21T10:41:46.384+03:00,103,1.716666666666667,2025-04-21T09:28:58.093+03:00,0.01174319131481236,0
2025-04-21T10:41:51.084+03:00,1745221310.133824,40.95362769991429,29.1409764702767,93.06094,-1,-1,-1,-1,30,25.31866889715085,-9999,12278.59104425,-0.770416259765625,0.461944580078125,-0.4271240234375,12278.58096825,-1.935402329829508,-1.057415636450557,-0.4826518020858213,-0.001433961326256394,-0.008033940568566322,0.000247438729275018,0.005758881568908691,-0.007815629243850708,0.00666239857673645,XArbitraryZVertical,0.5204376400262568,0.1078587262520689,0.6221483689422096,-0.5748411522863359,-0.7715821266174316,0.4641296863555908,-0.4350223243236542,0,0,0,-1,-1,12269.271095375,unknown,2,2025-04-21T10:41:41.760+03:00,2025-04-20T21:57:49.637+03:00,1464,1.041328,0,0,1097.988,1,4,2025-04-21T10:25:37.107+03:00,766914109.5956278,0,-47.6,100.3025,1,0.7,2025-04-21T10:41:46.384+03:00,103,1.716666666666667,2025-04-21T09:28:58.093+03:00,0.01174319131481236,0
2025-04-21T10:41:51.107+03:00,1745221310.133824,40.95362769991429,29.1409764702767,93.06094,-1,-1,-1,-1,30,25.31866889715085,-9999,12278.60111925,-0.767852783203125,0.460052490234375,-0.425262451171875,12278.59104425,-1.935537966577929,-1.057592800407478,-0.4826862502494211,-0.01772931218147278,-0.01432379335165024,-0.005211775191128254,0.004113078117370605,-0.003833025693893433,0.003939151763916016,XArbitraryZVertical,0.5205065043353986,0.1078613258661213,0.6221336131481141,-0.5747944595313599,-0.7716453671455383,0.4641602039337158,-0.4348778128623962,0,0,0,-1,-1,12269.271095375,unknown,2,2025-04-21T10:41:41.760+03:00,2025-04-20T21:57:49.637+03:00,1464,1.041328,0,0,1097.988,1,4,2025-04-21T10:25:37.107+03:00,766914109.5956278,0,-47.6,100.3025,1,0.7,2025-04-21T10:41:46.384+03:00,103,1.716666666666667,2025-04-21T09:28:58.093+03:00,0.01174319131481236,0
2025-04-21T10:41:51.110+03:00,1745221310.133824,40.95362769991429,29.1409764702767,93.06094,-1,-1,-1,-1,30,25.31866889715085,-9999,12278.61119525,-0.7706298828125,0.462371826171875,-0.434112548828125,12278.60111925,-1.935720616448387,-1.057695285084571,-0.4826594375005938,0.004777129739522934,0.04011181741952896,-0.02244106307625771,0.001284539699554443,-0.002191871404647827,0.00768086314201355,XArbitraryZVertical,0.5205432222443951,0.1078533788525954,0.6221653765527607,-0.574728185762946,-0.7717006802558899,0.4641364514827728,-0.4348047971725464,0,0,0,-1,-1,12269.271095375,unknown,2,2025-04-21T10:41:41.760+03:00,2025-04-20T21:57:49.637+03:00,1464,1.041328,0,0,1097.988,1,4,2025-04-21T10:25:37.107+03:00,766914109.5956278,0,-47.6,100.3025,1,0.7,2025-04-21T10:41:46.384+03:00,103,1.716666666666667,2025-04-21T09:28:58.093+03:00,0.01174319131481236,0
2025-04-21T10:41:51.115+03:00,1745221310.133824,40.95362769991429,29.1409764702767,93.06094,-1,-1,-1,-1,30,25.31866889715085,-9999,12278.62127125,-0.7949371337890625,0.48175048828125,-0.4354095458984375,12278.61119525,-1.935738539765505,-1.057071868155178,-0.482513844478318,0.01273199170827866,0.09577907621860504,0.0004117889329791069,0.003635644912719727,-0.00395500659942627,0.01005667448043823,XArbitraryZVertical,0.5203228083639341,0.1077248528609307,0.6223653984637495,-0.5747354466613648,-0.7714884281158447,0.4640074670314789,-0.4353190660476685,0,0,0,-1,-1,12269.271095375,unknown,2,2025-04-21T10:41:41.760+03:00,2025-04-20T21:57:49.637+03:00,1464,1.041328,0,0,1097.988,1,4,2025-04-21T10:25:37.107+03:00,766914109.5956278,0,-47.6,100.3025,1,0.7,2025-04-21T10:41:46.384+03:00,103,1.716666666666667,2025-04-21T09:28:58.093+03:00,0.01174319131481236,0
2025-04-21T10:41:51.125+03:00,1745221310.133824,40.95362769991429,29.1409764702767,93.06094,-1,-1,-1,-1,30,25.31866889715085,-9999,12278.63134625,-0.7623138427734375,0.4526824951171875,-0.4269256591796875,12278.62127125,-1.93565045329034,-1.05634417778099,-0.4824111999566842,0.006958191748708487,0.04791401326656342,-0.008687200024724007,0.0005829334259033203,-0.001544684171676636,0.001791238784790039,XArbitraryZVertical,0.5200722611347436,0.1075776093073176,0.6225523448287199,-0.5747873745177042,-0.7712129354476929,0.463916540145874,-0.435903787612915,0,0,0,-1,-1,12269.271095375,unknown,2,2025-04-21T10:41:41.760+03:00,2025-04-20T21:57:49.637+03:00,1464,1.041328,0,0,1097.988,1,4,2025-04-21T10:25:37.107+03:00,766914109.5956278,0,-47.6,100.3025,1,0.7,2025-04-21T10:41:46.384+03:00,103,1.716666666666667,2025-04-21T09:28:58.093+03:00,0.01174319131481236,0
2025-04-21T10:41:51.135+03:00,1745221310.133824,40.95362769991429,29.1409764702767,93.06094,-1,-1,-1,-1,30,25.31866889715085,-9999,12278.64142225,-0.746002197265625,0.4358367919921875,-0.422393798828125,12278.63134625,-1.935780912543471,-1.056275710073723,-0.4823399330888479,-0.02131312713027,0.007616924587637186,-0.004666093736886978,-0.02372527122497559,0.0178970992565155,0.0005633831024169922,XArbitraryZVertical,0.5200445656938049,0.1075510387095191,0.6226235515661901,-0.5747402021451532,-0.7712118029594421,0.4638534188270569,-0.4359728395938873,0,0,0,-1,-1,12269.271095375,unknown,2,2025-04-21T10:41:41.760+03:00,2025-04-20T21:57:49.637+03:00,1464,1.041328,0,0,1097.988,1,4,2025-04-21T10:25:37.107+03:00,766914109.5956278,0,-47.6,100.3025,1,0.7,2025-04-21T10:41:46.384+03:00,103,1.716666666666667,2025-04-21T09:28:58.093+03:00,0.01174319131481236,0
2025-04-21T10:41:51.145+03:00,1745221310.133824,40.95362769991429,29.1409764702767,93.06094,-1,-1,-1,-1,30,25.31866889715085,-9999,12278.65149825,-0.7716827392578125,0.4578094482421875,-0.42437744140625,12278.64142225,-1.936009356112015,-1.056329628900069,-0.4824293959376433,-0.02583737298846245,0.0113772414624691,0.003158639883622527,0.008885383605957031,-0.01125019788742065,0.008985251188278198,XArbitraryZVertical,0.5200904833025366,0.107473154864086,0.6226551352216542,-0.5746789408025949,-0.7711991667747498,0.4639326632022858,-0.4359108209609985,0,0,0,-1,-1,12269.271095375,unknown,2,2025-04-21T10:41:41.760+03:00,2025-04-20T21:57:49.637+03:00,1464,1.041328,0,0,1097.988,1,4,2025-04-21T10:25:37.107+03:00,766914109.5956278,0,-47.6,100.3025,1,0.7,2025-04-21T10:41:46.384+03:00,103,1.716666666666667,2025-04-21T09:28:58.093+03:00,0.01174319131481236,0
2025-04-21T10:41:51.155+03:00,1745221310.133824,40.95362769991429,29.1409764702767,93.06094,-1,-1,-1,-1,30,25.31866889715085,-9999,12278.66157325,-0.772003173828125,0.4652252197265625,-0.42633056640625,12278.65149825,-1.936268653026119,-1.056358761072394,-0.4825812931712418,-0.03277730196714401,0.008469335734844208,0.004763194359838963,0.02514839172363281,-0.02823039889335632,0.01345992088317871,XArbitraryZVertical,0.5201420426213098,0.1073564510628011,0.6226881076941603,-0.5746184217410198,-0.771150529384613,0.4640672206878662,-0.4358536899089813,0,0,0,-1,-1,12269.271095375,unknown,2,2025-04-21T10:41:41.760+03:00,2025-04-20T21:57:49.637+03:00,1464,1.041328,0,0,1097.988,1,4,2025-04-21T10:25:37.107+03:00,766914109.5956278,0,-47.6,100.3025,1,0.7,2025-04-21T10:41:46.384+03:00,103,1.716666666666667,2025-04-21T09:28:58.093+03:00,0.01174319131481236,0
2025-04-21T10:41:51.165+03:00,1745221310.133824,40.95362769991429,29.1409764702767,93.06094,-1,-1,-1,-1,30,25.31866889715085,-9999,12278.67164925,-0.7635345458984375,0.45648193359375,-0.4351959228515625,12278.66157325,-1.936607371384722,-1.056484798184254,-0.4827606971866715,-0.03625459223985672,-0.002009137533605099,0.0009848347399383783,-0.0005497932434082031,-0.006416618824005127,0.01133811473846436,XArbitraryZVertical,0.5202331729311901,0.1072364802190551,0.6227125372789699,-0.5745319306637584,-0.7711330056190491,0.4642261266708374,-0.4357155561447144,0,0,0,-1,-1,12269.271095375,unknown,2,2025-04-21T10:41:41.760+03:00,2025-04-20T21:57:49.637+03:00,1464,1.041328,0,0,1097.988,1,4,2025-04-21T10:25:37.107+03:00,766914109.5956278,0,-47.6,100.3025,1,0.7,2025-04-21T10:41:46.384+03:00,103,1.716666666666667,2025-04-21T09:28:58.093+03:00,0.01174319131481236,0
2025-04-21T10:41:51.175+03:00,1745221310.133824,40.95362769991429,29.1409764702767,93.06094,-1,-1,-1,-1,30,25.31866889715085,-9999,12278.68172525,-0.7632904052734375,0.46075439453125,-0.429718017578125,12278.67164925,-1.93698930434027,-1.056748746336885,-0.4829433786288566,-0.03749828785657883,-0.01291664689779282,-0.001283645862713456,-0.0008291006088256836,0.0008372962474822998,0.009139716625213623,XArbitraryZVertical,0.5203701939611654,0.1071435372122598,0.6227126335657365,-0.5744249082266099,-0.7711740136146545,0.4643879234790802,-0.4354702532291412,0,0,0,-1,-1,12269.271095375,unknown,2,2025-04-21T10:41:41.760+03:00,2025-04-20T21:57:49.637+03:00,1464,1.041328,0,0,1097.988,1,4,2025-04-21T10:25:37.107+03:00,766914109.5956278,0,-47.6,100.3025,1,0.7,2025-04-21T10:41:46.384+03:00,103,1.716666666666667,2025-04-21T09:28:58.093+03:00,0.01174319131481236,0
2025-04-21T10:41:51.185+03:00,1745221310.133824,40.95362769991429,29.1409764702767,93.06094,-1,-1,-1,-1,30,25.31866889715085,-9999,12278.69180025,-0.7681121826171875,0.469390869140625,-0.4271240234375,12278.68172525,-1.93736516275175,-1.057126931558936,-0.4830756599011455,-0.03158953040838242,-0.02218577824532986,-0.007453790865838528,0.00775068998336792,-0.00802314281463623,-4.747509956359863e-05,XArbitraryZVertical,0.5205329232965039,0.1071041083679032,0.6226925488582455,-0.5743065573021376,-0.7712851166725159,0.4645050764083862,-0.4351483583450317,0,0,0,-1,-1,12269.271095375,unknown,2,2025-04-21T10:41:41.760+03:00,2025-04-20T21:57:49.637+03:00,1464,1.041328,0,0,1097.988,1,4,2025-04-21T10:25:37.107+03:00,766914109.5956278,0,-47.6,100.3025,1,0.7,2025-04-21T10:41:46.384+03:00,103,1.716666666666667,2025-04-21T09:28:58.093+03:00,0.01174319131481236,0
2025-04-21T10:41:51.195+03:00,1745221310.133824,40.95362769991429,29.1409764702767,93.06094,-1,-1,-1,-1,30,25.31866889715085,-9999,12278.70187625,-0.775360107421875,0.467864990234375,-0.4321441650390625,12278.69180025,-1.93775375966568,-1.057564811190784,-0.4831515661088032,-0.03556243702769279,-0.02050772123038769,-0.01027194783091545,0.008154630661010742,-0.003817886114120483,0.005075365304946899,XArbitraryZVertical,0.5207042940758365,0.1070998756004861,0.6226731793530274,-0.5741730456926543,-0.7714449167251587,0.4645723104476929,-0.4347933232784271,0,0,0,-1,-1,12269.271095375,unknown,2,2025-04-21T10:41:41.760+03:00,2025-04-20T21:57:49.637+03:00,1464,1.041328,0,0,1097.988,1,4,2025-04-21T10:25:37.107+03:00,766914109.5956278,0,-47.6,100.3025,1,0.7,2025-04-21T10:41:46.384+03:00,103,1.716666666666667,2025-04-21T09:28:58.093+03:00,0.01174319131481236,0
2025-04-21T10:41:51.205+03:00,1745221310.133824,40.95362769991429,29.1409764702767,93.06094,-1,-1,-1,-1,30,25.31866889715085,-9999,12278.71195225,-0.7803497314453125,0.463165283203125,-0.4348602294921875,12278.70187625,-1.938176408971231,-1.057935727011068,-0.4832293830224859,-0.03405994549393654,-0.01538866013288498,-0.01458736695349216,0.003462553024291992,0.004749655723571777,0.00736546516418457,XArbitraryZVertical,0.5208569775490751,0.1070667727848486,0.6226805405375962,-0.5740328215414957,-0.7715746760368347,0.4646412134170532,-0.4344894289970398,0,0,0,-1,-1,12269.271095375,unknown,2,2025-04-21T10:41:41.760+03:00,2025-04-20T21:57:49.637+03:00,1464,1.041328,0,0,1097.988,1,4,2025-04-21T10:25:37.107+03:00,766914109.5956278,0,-47.6,100.3025,1,0.7,2025-04-21T10:41:46.384+03:00,103,1.716666666666667,2025-04-21T09:28:58.093+03:00,0.01174319131481236,0
2025-04-21T10:41:51.216+03:00,1745221310.133824,40.95362769991429,29.1409764702767,93.06094,-1,-1,-1,-1,30,25.31866889715085,-9999,12278.72202725,-0.7793426513671875,0.4695587158203125,-0.435546875,12278.71195225,-1.93859419420588,-1.058312518509778,-0.4832476091491923,-0.02289091609418392,-0.01256491057574749,-0.01975629664957523,-0.003629088401794434,0.003207653760910034,0.002050399780273438,XArbitraryZVertical,0.5210000678653622,0.1070591684460861,0.6226982203742653,-0.5738851991943048,-0.7717309594154358,0.464657336473465,-0.4341945350170135,0,0,0,-1,-1,12269.271095375,unknown,2,2025-04-21T10:41:41.760+03:00,2025-04-20T21:57:49.637+03:00,1464,1.041328,0,0,1097.988,1,4,2025-04-21T10:25:37.107+03:00,766914109.5956278,0,-47.6,100.3025,1,0.7,2025-04-21T10:41:46.384+03:00,103,1.716666666666667,2025-04-21T09:28:58.093+03:00,0.01174319131481236,0
2025-04-21T10:41:51.226+03:00,1745221310.133824,40.95362769991429,29.1409764702767,93.06094,-1,-1,-1,-1,30,25.31866889715085,-9999,12278.73210325,-0.775787353515625,0.4695281982421875,-0.431396484375,12278.72202725,-1.938894603883215,-1.058571239112632,-0.4831471180548083,-0.01817712187767029,-0.01025222055613995,-0.0166019145399332,-0.008465766906738281,-0.001403093338012695,-0.0008424520492553711,XArbitraryZVertical,0.521077903676588,0.1070932672836362,0.6227394620967959,-0.5737633134752661,-0.7718839049339294,0.4645683765411377,-0.434017688035965,0,0,0,-1,-1,12269.271095375,unknown,2,2025-04-21T10:41:41.760+03:00,2025-04-20T21:57:49.637+03:00,1464,1.041328,0,0,1097.988,1,4,2025-04-21T10:25:37.107+03:00,766914109.5956278,0,-47.6,100.3025,1,0.7,2025-04-21T10:41:46.384+03:00,103,1.716666666666667,2025-04-21T09:28:58.093+03:00,0.01174319131481236,0
2025-04-21T10:41:51.236+03:00,1745221310.133824,40.95362769991429,29.1409764702767,93.06094,-1,-1,-1,-1,30,25.31866889715085,-9999,12278.74217825,-0.769866943359375,0.4611358642578125,-0.426971435546875,12278.73210325,-1.939151516674629,-1.058800656199391,-0.483011508743411,-0.0158963892608881,-0.01308555714786053,-0.01703521050512791,-0.007304191589355469,0.005110442638397217,-0.00167536735534668,XArbitraryZVertical,0.5211377006991522,0.1071436364065969,0.6227837450559112,-0.5736515511818672,-0.7720384001731873,0.4644482731819153,-0.4338714778423309,0,0,0,-1,-1,12269.271095375,unknown,2,2025-04-21T10:41:41.760+03:00,2025-04-20T21:57:49.637+03:00,1464,1.041328,0,0,1097.988,1,4,2025-04-21T10:25:37.107+03:00,766914109.5956278,0,-47.6,100.3025,1,0.7,2025-04-21T10:41:46.384+03:00,103,1.716666666666667,2025-04-21T09:28:58.093+03:00,0.01174319131481236,0
2025-04-21T10:41:51.246+03:00,1745221310.133824,40.95362769991429,29.1409764702767,93.06094,-1,-1,-1,-1,30,25.31866889715085,-9999,12278.75225425,-0.765533447265625,0.4551849365234375,-0.422607421875,12278.74217825,-1.939461472934655,-1.059135501273375,-0.4829481159659601,-0.02296542003750801,-0.01931728795170784,-0.01675927639007568,-0.003578007221221924,0.005136072635650635,0.00223088264465332,XArbitraryZVertical,0.521246722399202,0.1071829535458104,0.6227995474012915,-0.5735279409149475,-0.7722092866897583,0.4643921256065369,-0.4336273372173309,0,0,0,-1,-1,12269.271095375,unknown,2,2025-04-21T10:41:41.760+03:00,2025-04-20T21:57:49.637+03:00,1464,1.041328,0,0,1097.988,1,4,2025-04-21T10:25:37.107+03:00,766914109.5956278,0,-47.6,100.3025,1,0.7,2025-04-21T10:41:46.384+03:00,103,1.716666666666667,2025-04-21T09:28:58.093+03:00,0.01174319131481236,0
2025-04-21T10:41:51.256+03:00,1745221310.133824,40.95362769991429,29.1409764702767,93.06094,-1,-1,-1,-1,30,25.31866889715085,-9999,12278.76233025,-0.766876220703125,0.45355224609375,-0.4252471923828125,12278.75225425,-1.93982576949455,-1.059507112155727,-0.482970623389493,-0.02987232804298401,-0.01639766432344913,-0.01221751980483532,0.002494394779205322,-0.003276228904724121,0.006363838911056519,XArbitraryZVertical,0.5213861885340139,0.1071859877430359,0.6228020785730911,-0.5733977875634714,-0.7723612189292908,0.4644120633602142,-0.4333352148532867,0,0,0,-1,-1,12269.271095375,unknown,2,2025-04-21T10:41:41.760+03:00,2025-04-20T21:57:49.637+03:00,1464,1.041328,0,0,1097.988,1,4,2025-04-21T10:25:37.107+03:00,766914109.5956278,0,-47.6,100.3025,1,0.7,2025-04-21T10:41:46.384+03:00,103,1.716666666666667,2025-04-21T09:28:58.093+03:00,0.01174319131481236,0
2025-04-21T10:41:51.266+03:00,1745221310.133824,40.95362769991429,29.1409764702767,93.06094,-1,-1,-1,-1,30,25.31866889715085,-9999,12278.77240525,-0.773651123046875,0.4645538330078125,-0.43670654296875,12278.76233025,-1.940159698872649,-1.059715613407654,-0.4829845954542686,-0.02356562949717045,0.0006354479119181633,-0.01137978956103325,0.006912529468536377,-0.009239494800567627,0.01056364178657532,XArbitraryZVertical,0.5214716310309651,0.107153384552921,0.6228403065604098,-0.5732846180840061,-0.7724458575248718,0.4644244313240051,-0.4331709742546082,0,0,0,-1,-1,12269.271095375,unknown,2,2025-04-21T10:41:41.760+03:00,2025-04-20T21:57:49.637+03:00,1464,1.041328,0,0,1097.988,1,4,2025-04-21T10:25:37.107+03:00,766914109.5956278,0,-47.6,100.3025,1,0.7,2025-04-21T10:41:46.384+03:00,103,1.716666666666667,2025-04-21T09:28:58.093+03:00,0.01174319131481236,0
2025-04-21T10:41:51.276+03:00,1745221310.133824,40.95362769991429,29.1409764702767,93.06094,-1,-1,-1,-1,30,25.31866889715085,-9999,12278.78248125,-0.772979736328125,0.47021484375,-0.43701171875,12278.77240525,-1.940387952542597,-1.059802147109949,-0.4829507470656587,-0.01043544616550207,0.0005624773912131786,-0.01333534810692072,0.005621016025543213,-0.01084217429161072,0.007864713668823242,XArbitraryZVertical,0.5215044442421979,0.1071315709132613,0.6228908131169312,-0.5732041292362323,-0.7724971771240234,0.4643944501876831,-0.4331118762493134,0,0,0,-1,-1,12269.271095375,unknown,2,2025-04-21T10:41:41.760+03:00,2025-04-20T21:57:49.637+03:00,1464,1.041328,0,0,1097.988,1,4,2025-04-21T10:25:37.107+03:00,766914109.5956278,0,-47.6,100.3025,1,0.7,2025-04-21T10:41:46.384+03:00,103,1.716666666666667,2025-04-21T09:28:58.093+03:00,0.01174319131481236,0
2025-04-21T10:41:51.286+03:00,1745221310.133824,40.95362769991429,29.1409764702767,93.06094,-1,-1,-1,-1,30,25.31866889715085,-9999,12278.79255725,-0.7689971923828125,0.4696197509765625,-0.427154541015625,12278.78248125,-1.94052531568084,-1.059861450536908,-0.4828664835177398,0.0007320542354136705,0.004066730849444866,-0.01518208440393209,-0.00109410285949707,0.0002340376377105713,-0.003621280193328857,XArbitraryZVertical,0.5215145330809948,0.107144740027066,0.622933560344512,-0.5731460027136959,-0.7725569605827332,0.4643198251724243,-0.4330852031707764,0,0,0,-1,-1,12269.271095375,unknown,2,2025-04-21T10:41:41.760+03:00,2025-04-20T21:57:49.637+03:00,1464,1.041328,0,0,1097.988,1,4,2025-04-21T10:25:37.107+03:00,766914109.5956278,0,-47.6,100.3025,1,0.7,2025-04-21T10:41:46.384+03:00,103,1.716666666666667,2025-04-21T09:28:58.093+03:00,0.01174319131481236,0
2025-04-21T10:41:51.296+03:00,1745221310.133824,40.95362769991429,29.1409764702767,93.06094,-1,-1,-1,-1,30,25.31866889715085,-9999,12278.80263225,-0.7675628662109375,0.4661102294921875,-0.42474365234375,12278.79255725,-1.940608100534675,-1.059898268446399,-0.4827308587109324,0.004216534085571766,-0.003685996867716312,-0.02045487798750401,-0.0003518462181091309,0.006015151739120483,-0.003924161195755005,XArbitraryZVertical,0.5215051139679875,0.1071851844275183,0.62297799235369,-0.5730986278589805,-0.7726277709007263,0.4641997218132019,-0.4330874979496002,0,0,0,-1,-1,12269.271095375,unknown,2,2025-04-21T10:41:41.760+03:00,2025-04-20T21:57:49.637+03:00,1464,1.041328,0,0,1097.988,1,4,2025-04-21T10:25:37.107+03:00,766914109.5956278,0,-47.6,100.3025,1,0.7,2025-04-21T10:41:46.384+03:00,103,1.716666666666667,2025-04-21T09:28:58.093+03:00,0.01174319131481236,0
2025-04-21T10:41:51.306+03:00,1745221310.133824,40.95362769991429,29.1409764702767,93.06094,-1,-1,-1,-1,30,25.31866889715085,-9999,12278.81270825,-0.7675323486328125,0.4655303955078125,-0.422454833984375,12278.80263225,-1.940698475246918,-1.059988184171741,-0.4825741456088458,-0.001984236994758248,-0.005197740159928799,-0.01108154840767384,0.00373309850692749,0.005558878183364868,0.005899131298065186,XArbitraryZVertical,0.5215086586184453,0.107246927976399,0.6230155549273362,-0.5730431278534535,-0.7727302312850952,0.46406090259552,-0.4330536425113678,0,0,0,-1,-1,12269.271095375,unknown,2,2025-04-21T10:41:41.760+03:00,2025-04-20T21:57:49.637+03:00,1464,1.041328,0,0,1097.988,1,4,2025-04-21T10:25:37.107+03:00,766914109.5956278,0,-47.6,100.3025,1,0.7,2025-04-21T10:41:46.384+03:00,103,1.716666666666667,2025-04-21T09:28:58.093+03:00,0.01174319131481236,0
2025-04-21T10:41:51.316+03:00,1745221310.133824,40.95362769991429,29.1409764702767,93.06094,-1,-1,-1,-1,30,25.31866889715085,-9999,12278.82278425,-0.772705078125,0.4613189697265625,-0.4240570068359375,12278.81270825,-1.940816091294908,-1.060109161636259,-0.4825234703322838,-0.01012765057384968,-0.00442355964332819,-0.008718525990843773,0.005240321159362793,0.002094238996505737,0.008228003978729248,XArbitraryZVertical,0.5215431911727425,0.1072701548579703,0.6230290302852773,-0.5729926681933326,-0.7728031277656555,0.4640160202980042,-0.4329716265201569,0,0,0,-1,-1,12269.271095375,unknown,2,2025-04-21T10:41:41.760+03:00,2025-04-20T21:57:49.637+03:00,1464,1.041328,0,0,1097.988,1,4,2025-04-21T10:25:37.107+03:00,766914109.5956278,0,-47.6,100.3025,1,0.7,2025-04-21T10:41:46.384+03:00,103,1.716666666666667,2025-04-21T09:28:58.093+03:00,0.01174319131481236,0
2025-04-21T10:41:51.326+03:00,1745221310.133824,40.95362769991429,29.1409764702767,93.06094,-1,-1,-1,-1,30,25.31866889715085,-9999,12278.83285925,-0.780029296875,0.4583892822265625,-0.42596435546875,12278.82278425,-1.941014979332492,-1.060214244503696,-0.4825463101653257,-0.01507327426224947,0.001236057374626398,-0.00841659028083086,0.00530707836151123,0.001494139432907104,0.01043042540550232,XArbitraryZVertical,0.5215908842293678,0.1072396876093963,0.6230534455774285,-0.5729282969455481,-0.7728393077850342,0.464036226272583,-0.4328851997852325,0,0,0,-1,-1,12269.271095375,unknown,2,2025-04-21T10:41:41.760+03:00,2025-04-20T21:57:49.637+03:00,1464,1.041328,0,0,1097.988,1,4,2025-04-21T10:25:37.107+03:00,766914109.5956278,0,-47.6,100.3025,1,0.7,2025-04-21T10:41:46.384+03:00,103,1.716666666666667,2025-04-21T09:28:58.093+03:00,0.01174319131481236,0
2025-04-21T10:41:51.336+03:00,1745221310.133824,40.95362769991429,29.1409764702767,93.06094,-1,-1,-1,-1,30,25.31866889715085,-9999,12278.84293525,-0.7771453857421875,0.468414306640625,-0.4349212646484375,12278.83285925,-1.941175661451385,-1.060288138313387,-0.4824912215272579,-0.002033638535067439,0.001170010771602392,-0.01281693112105131,0.0001885890960693359,-0.002668470144271851,0.008783638477325439,XArbitraryZVertical,0.5216122329254134,0.1072398691668179,0.6230925246602833,-0.5728663220323646,-0.7728936076164246,0.4639874398708344,-0.4328405857086182,0,0,0,-1,-1,12269.271095375,unknown,2,2025-04-21T10:41:41.760+03:00,2025-04-20T21:57:49.637+03:00,1464,1.041328,0,0,1097.988,1,4,2025-04-21T10:25:37.107+03:00,766914109.5956278,0,-47.6,100.3025,1,0.7,2025-04-21T10:41:46.384+03:00,103,1.716666666666667,2025-04-21T09:28:58.093+03:00,0.01174319131481236,0
2025-04-21T10:41:51.347+03:00,1745221310.133824,40.95362769991429,29.1409764702767,93.06094,-1,-1,-1,-1,30,25.31866889715085,-9999,12278.85301125,-0.7716827392578125,0.4683380126953125,-0.43536376953125,12278.84293525,-1.941194095432656,-1.060336175299194,-0.4822859304943544,0.01782841607928276,-0.00289164250716567,-0.01811572164297104,-0.007031738758087158,-0.005416303873062134,0.006885707378387451,XArbitraryZVertical,0.5215898407660329,0.10732679655232,0.6231312173586911,-0.5728283836146463,-0.7729974985122681,0.4638055860996246,-0.4328500032424927,0,0,0,-1,-1,12269.271095375,unknown,2,2025-04-21T10:41:41.760+03:00,2025-04-20T21:57:49.637+03:00,1464,1.041328,0,0,1097.988,1,4,2025-04-21T10:25:37.107+03:00,766914109.5956278,0,-47.6,100.3025,1,0.7,2025-04-21T10:41:46.384+03:00,103,1.716666666666667,2025-04-21T09:28:58.093+03:00,0.01174319131481236,0
2025-04-21T10:41:51.356+03:00,1745221310.133824,40.95362769991429,29.1409764702767,93.06094,-1,-1,-1,-1,30,25.31866889715085,-9999,12278.86308625,-0.770721435546875,0.46551513671875,-0.423736572265625,12278.85301125,-1.941140692439997,-1.060330143205481,-0.4820421831970279,0.01196839660406113,-0.0024120076559484,-0.01531460974365473,-0.004051804542541504,0.004824697971343994,-0.002011299133300781,XArbitraryZVertical,0.5215395502143442,0.1074315834141205,0.6231720456501318,-0.5728101890294832,-0.7730935215950012,0.463589608669281,-0.4329099059104919,0,0,0,-1,-1,12269.271095375,unknown,2,2025-04-21T10:41:41.760+03:00,2025-04-20T21:57:49.637+03:00,1464,1.041328,0,0,1097.988,1,4,2025-04-21T10:25:37.107+03:00,766914109.5956278,0,-47.6,100.3025,1,0.7,2025-04-21T10:41:46.384+03:00,103,1.716666666666667,2025-04-21T09:28:58.093+03:00,0.01174319131481236,0
2025-04-21T10:41:51.366+03:00,1745221310.133824,40.95362769991429,29.1409764702767,93.06094,-1,-1,-1,-1,30,25.31866889715085,-9999,12278.87316225,-0.76654052734375,0.4610748291015625,-0.4170684814453125,12278.86308625,-1.94109981046659,-1.060353716384912,-0.4818809536473072,0.005841661710292101,-0.008983757346868515,-0.009829763323068619,0.001486241817474365,0.004891276359558105,-0.002435505390167236,XArbitraryZVertical,0.5215145775521617,0.1075102247533287,0.6231902491997163,-0.572798371547087,-0.7731689810752869,0.4634467661380768,-0.432928204536438,0,0,0,-1,-1,12269.271095375,unknown,2,2025-04-21T10:41:41.760+03:00,2025-04-20T21:57:49.637+03:00,1464,1.041328,0,0,1097.988,1,4,2025-04-21T10:25:37.107+03:00,766914109.5956278,0,-47.6,100.3025,1,0.7,2025-04-21T10:41:46.384+03:00,103,1.716666666666667,2025-04-21T09:28:58.093+03:00,0.01174319131481236,0
2025-04-21T10:41:51.377+03:00,1745221310.133824,40.95362769991429,29.1409764702767,93.06094,-1,-1,-1,-1,30,25.31866889715085,-9999,12278.88323825,-0.7669830322265625,0.456634521484375,-0.419403076171875,12278.87316225,-1.941100192574648,-1.060449417607467,-0.4818462495022081,-0.003928943537175655,-0.01034942641854286,-0.002709002932533622,0.002502977848052979,0.002099156379699707,0.00912553071975708,XArbitraryZVertical,0.5215379506741429,0.1075506922839736,0.6231731325219179,-0.5727880438862542,-0.7732243537902832,0.4634160101413727,-0.4328620433807373,0,0,0,-1,-1,12269.271095375,unknown,2,2025-04-21T10:41:41.760+03:00,2025-04-20T21:57:49.637+03:00,1464,1.041328,0,0,1097.988,1,4,2025-04-21T10:25:37.107+03:00,766914109.5956278,0,-47.6,100.3025,1,0.7,2025-04-21T10:41:46.384+03:00,103,1.716666666666667,2025-04-21T09:28:58.093+03:00,0.01174319131481236,0
2025-04-21T10:41:51.387+03:00,1745221310.133824,40.95362769991429,29.1409764702767,93.06094,-1,-1,-1,-1,30,25.31866889715085,-9999,12278.89331325,-0.7722930908203125,0.458831787109375,-0.4219512939453125,12278.88323825,-1.941182072245679,-1.060570026972911,-0.4818979508153917,-0.00567364739254117,-0.005466853268444538,-0.002247510477900505,0.006715238094329834,-0.002387046813964844,0.01568865776062012,XArbitraryZVertical,0.5215896088557981,0.107544225845872,0.623153532992816,-0.572763465746448,-0.7732556462287903,0.4634618163108826,-0.4327570497989655,0,0,0,-1,-1,12269.271095375,unknown,2,2025-04-21T10:41:41.760+03:00,2025-04-20T21:57:49.637+03:00,1464,1.041328,0,0,1097.988,1,4,2025-04-21T10:25:37.107+03:00,766914109.5956278,0,-47.6,100.3025,1,0.7,2025-04-21T10:41:46.384+03:00,103,1.716666666666667,2025-04-21T09:28:58.093+03:00,0.01174319131481236,0
2025-04-21T10:41:51.397+03:00,1745221310.133824,40.95362769991429,29.1409764702767,93.06094,-1,-1,-1,-1,30,25.31866889715085,-9999,12278.90338925,-0.7700958251953125,0.4605560302734375,-0.4351959228515625,12278.89331325,-1.941241957498579,-1.060663588635042,-0.4819081792580505,0.003810402005910873,-0.006093494594097137,-0.00414128415286541,0.006309032440185547,-0.006836354732513428,0.01327937841415405,XArbitraryZVertical,0.521623884562588,0.1075515250093534,0.6231440061620431,-0.5727412731037487,-0.7732920050621033,0.4634708762168884,-0.4326823949813843,0,0,0,-1,-1,12269.271095375,unknown,2,2025-04-21T10:41:41.760+03:00,2025-04-20T21:57:49.637+03:00,1464,1.041328,0,0,1097.988,1,4,2025-04-21T10:25:37.107+03:00,766914109.5956278,0,-47.6,100.3025,1,0.7,2025-04-21T10:41:46.384+03:00,103,1.716666666666667,2025-04-21T09:28:58.093+03:00,0.01174319131481236,0
2025-04-21T10:41:51.407+03:00,1745221310.133824,40.95362769991429,29.1409764702767,93.06094,-1,-1,-1,-1,30,25.31866889715085,-9999,12278.91346425,-0.77008056640625,0.462158203125,-0.4336090087890625,12278.90338925,-1.941177059674895,-1.060760842561462,-0.4818487778030196,0.01316981576383114,-0.01163553353399038,-0.004562729503959417,0.001065075397491455,-0.004586488008499146,0.01066938042640686,XArbitraryZVertical,0.5216396045849485,0.1076188537576916,0.6231133328117413,-0.5727476613939517,-0.7733581066131592,0.4634182453155518,-0.4326206147670746,0,0,0,-1,-1,12269.271095375,unknown,2,2025-04-21T10:41:41.760+03:00,2025-04-20T21:57:49.637+03:00,1464,1.041328,0,0,1097.988,1,4,2025-04-21T10:25:37.107+03:00,766914109.5956278,0,-47.6,100.3025,1,0.7,2025-04-21T10:41:46.384+03:00,103,1.716666666666667,2025-04-21T09:28:58.093+03:00,0.01174319131481236,0
2025-04-21T10:41:51.417+03:00,1745221310.133824,40.95362769991429,29.1409764702767,93.06094,-1,-1,-1,-1,30,25.31866889715085,-9999,12278.92354025,-0.7713165283203125,0.45623779296875,-0.4293975830078125,12278.91346425,-1.941078640091743,-1.060873478549362,-0.4817653180819239,0.01098415907472372,-0.01713336259126663,-0.002296113176271319,0.003344893455505371,-0.00278821587562561,-0.002643406391143799,XArbitraryZVertical,0.5216537654236209,0.1077085251235118,0.6230745202391601,-0.5727603232391059,-0.7734406590461731,0.4633442759513855,-0.4325524568557739,0,0,0,-1,-1,12269.271095375,unknown,2,2025-04-21T10:41:41.760+03:00,2025-04-20T21:57:49.637+03:00,1464,1.041328,0,0,1097.988,1,4,2025-04-21T10:25:37.107+03:00,766914109.5956278,0,-47.6,100.3025,1,0.7,2025-04-21T10:41:46.384+03:00,103,1.716666666666667,2025-04-21T09:28:58.093+03:00,0.01174319131481236,0
2025-04-21T10:41:51.427+03:00,1745221310.133824,40.95362769991429,29.1409764702767,93.06094,-1,-1,-1,-1,30,25.31866889715085,-9999,12278.93361625,-0.76727294921875,0.456085205078125,-0.4199066162109375,12278.92354025,-1.941067720645753,-1.061074392093799,-0.4817201393799369,-0.003558631055057049,-0.01843864284455776,0.001075548585504293,0.00346529483795166,-0.001146018505096436,-0.001201748847961426,XArbitraryZVertical,0.5217073470211272,0.1077860419745821,0.6230290561191593,-0.5727463125754384,-0.7735458016395569,0.4633042514324188,-0.4324072301387787,0,0,0,-1,-1,12269.271095375,unknown,2,2025-04-21T10:41:41.760+03:00,2025-04-20T21:57:49.637+03:00,1464,1.041328,0,0,1097.988,1,4,2025-04-21T10:25:37.107+03:00,766914109.5956278,0,-47.6,100.3025,1,0.7,2025-04-21T10:41:46.384+03:00,103,1.716666666666667,2025-04-21T09:28:58.093+03:00,0.01174319131481236,0
2025-04-21T10:41:51.437+03:00,1745221310.133824,40.95362769991429,29.1409764702767,93.06094,-1,-1,-1,-1,30,25.31866889715085,-9999,12278.94369125,-0.766082763671875,0.460601806640625,-0.41546630859375,12278.93361625,-1.941112383296613,-1.061301949895243,-0.4817776854732033,-0.01252682693302631,-0.02230848371982574,0.002686494728550315,0.002304434776306152,-0.00711745023727417,0.002820670604705811,XArbitraryZVertical,0.5217913855804742,0.1078177063762005,0.6229696094969615,-0.5727284585793261,-0.7736209034919739,0.4633552432060242,-0.4322181940078735,0,0,0,-1,-1,12269.271095375,unknown,2,2025-04-21T10:41:41.760+03:00,2025-04-20T21:57:49.637+03:00,1464,1.041328,0,0,1097.988,1,4,2025-04-21T10:25:37.107+03:00,766914109.5956278,0,-47.6,100.3025,1,0.7,2025-04-21T10:41:46.384+03:00,103,1.716666666666667,2025-04-21T09:28:58.093+03:00,0.01174319131481236,0
2025-04-21T10:41:51.448+03:00,1745221310.133824,40.95362769991429,29.1409764702767,93.06094,-1,-1,-1,-1,30,25.31866889715085,-9999,12278.95376725,-0.7711181640625,0.463958740234375,-0.4213104248046875,12278.94369125,-1.941236161571429,-1.061517186759766,-0.4818750490939232,-0.0124623104929924,-0.01096867676824331,-3.282568650320172e-05,0.006401658058166504,-0.00735628604888916,0.01212310791015625,XArbitraryZVertical,0.5218832611098545,0.1078100965449294,0.6229271432923891,-0.5726924365001936,-0.7736745476722717,0.4634415209293365,-0.4320296943187714,0,0,0,-1,-1,12269.271095375,unknown,2,2025-04-21T10:41:41.760+03:00,2025-04-20T21:57:49.637+03:00,1464,1.041328,0,0,1097.988,1,4,2025-04-21T10:25:37.107+03:00,766914109.5956278,0,-47.6,100.3025,1,0.7,2025-04-21T10:41:46.384+03:00,103,1.716666666666667,2025-04-21T09:28:58.093+03:00,0.01174319131481236,0
2025-04-21T10:41:51.457+03:00,1745221310.133824,40.95362769991429,29.1409764702767,93.06094,-1,-1,-1,-1,30,25.31866889715085,-9999,12278.96384325,-0.7787322998046875,0.467926025390625,-0.4400787353515625,12278.95376725,-1.941284103472579,-1.061633188776369,-0.4818840325286161,0.009853115305304527,-0.006567536853253841,-0.006549580954015255,0.007638275623321533,-0.002847641706466675,0.01647162437438965,XArbitraryZVertical,0.5219236746955878,0.1078273640340166,0.6229085473302584,-0.572672485123434,-0.7737209796905518,0.4634494781494141,-0.4319378733634949,0,0,0,-1,-1,12269.271095375,unknown,2,2025-04-21T10:41:41.760+03:00,2025-04-20T21:57:49.637+03:00,1464,1.041328,0,0,1097.988,1,4,2025-04-21T10:25:37.107+03:00,766914109.5956278,0,-47.6,100.3025,1,0.7,2025-04-21T10:41:46.384+03:00,103,1.716666666666667,2025-04-21T09:28:58.093+03:00,0.01174319131481236,0
2025-04-21T10:41:51.468+03:00,1745221310.133824,40.95362769991429,29.1409764702767,93.06094,-1,-1,-1,-1,30,25.31866889715085,-9999,12278.97391825,-0.7779083251953125,0.471527099609375,-0.438262939453125,12278.96384325,-1.941128701682028,-1.061664101179797,-0.4817512240382932,0.03620322793722153,-0.01158147025853395,-0.008830312639474869,0.002669990062713623,0.0006268918514251709,0.01063358783721924,XArbitraryZVertical,0.5219001554574806,0.10792715895465,0.6228856446163501,-0.5726999151012074,-0.7737879753112793,0.4633317887783051,-0.4319439232349396,0,0,0,-1,-1,12269.271095375,unknown,2,2025-04-21T10:41:41.760+03:00,2025-04-20T21:57:49.637+03:00,1464,1.041328,0,0,1097.988,1,4,2025-04-21T10:25:37.107+03:00,766914109.5956278,0,-47.6,100.3025,1,0.7,2025-04-21T10:41:46.384+03:00,103,1.716666666666667,2025-04-21T09:28:58.093+03:00,0.01174319131481236,0
2025-04-21T10:41:51.478+03:00,1745221310.133824,40.95362769991429,29.1409764702767,93.06094,-1,-1,-1,-1,30,25.31866889715085,-9999,12278.98399425,-0.7767181396484375,0.46441650390625,-0.4254913330078125,12278.97391825,-1.940856347856077,-1.061599184748177,-0.4815287923606734,0.02760894224047661,-0.001850812695920467,-0.005971674807369709,-0.004882276058197021,0.004791349172592163,-0.008034288883209229,XArbitraryZVertical,0.5218236754234047,0.108064103848558,0.6228743913157184,-0.5727561055649715,-0.7738499641418457,0.4631346762180328,-0.4320444166660309,0,0,0,-1,-1,12269.271095375,unknown,2,2025-04-21T10:41:41.760+03:00,2025-04-20T21:57:49.637+03:00,1464,1.041328,0,0,1097.988,1,4,2025-04-21T10:25:37.107+03:00,766914109.5956278,0,-47.6,100.3025,1,0.7,2025-04-21T10:41:46.384+03:00,103,1.716666666666667,2025-04-21T09:28:58.093+03:00,0.01174319131481236,0
2025-04-21T10:41:51.487+03:00,1745221310.133824,40.95362769991429,29.1409764702767,93.06094,-1,-1,-1,-1,30,25.31866889715085,-9999,12278.99407025,-0.766937255859375,0.4528656005859375,-0.4187469482421875,12278.98399425,-1.940665726080864,-1.061629258932773,-0.4814086760725904,0.009251306764781475,-0.01017924956977367,0.003029709681868553,-0.003996670246124268,0.008498877286911011,-0.006214618682861328,XArbitraryZVertical,0.5218003133844805,0.1081680312808168,0.6228387952896317,-0.5727964153460604,-0.7739114761352539,0.4630281925201416,-0.4320482313632965,0,0,0,-1,-1,12269.271095375,unknown,2,2025-04-21T10:41:41.760+03:00,2025-04-20T21:57:49.637+03:00,1464,1.041328,0,0,1097.988,1,4,2025-04-21T10:25:37.107+03:00,766914109.5956278,0,-47.6,100.3025,1,0.7,2025-04-21T10:41:46.384+03:00,103,1.716666666666667,2025-04-21T09:28:58.093+03:00,0.01174319131481236,0
2025-04-21T10:41:51.497+03:00,1745221310.133824,40.95362769991429,29.1409764702767,93.06094,-1,-1,-1,-1,30,25.31866889715085,-9999,12279.00414525,-0.7656402587890625,0.4579315185546875,-0.419921875,12278.99407025,-1.940632106036473,-1.061673912236125,-0.4814764168883506,-0.009435828775167465,-0.005825780797749758,0.009578955359756947,-0.002814590930938721,0.001328259706497192,0.006507158279418945,XArbitraryZVertical,0.521825018815435,0.1081639228199067,0.62280243328419,-0.5728143852355445,-0.773903489112854,0.4630882441997528,-0.4319984316825867,0,0,0,-1,-1,12269.271095375,unknown,2,2025-04-21T10:41:41.760+03:00,2025-04-20T21:57:49.637+03:00,1464,1.041328,0,0,1097.988,1,4,2025-04-21T10:25:37.107+03:00,766914109.5956278,0,-47.6,100.3025,1,0.7,2025-04-21T10:41:46.384+03:00,103,1.716666666666667,2025-04-21T09:28:58.093+03:00,0.01174319131481236,0
2025-04-21T10:41:51.507+03:00,1745221310.133824,40.95362769991429,29.1409764702767,93.06094,-1,-1,-1,-1,30,25.31866889715085,-9999,12279.01422125,-0.76983642578125,0.459320068359375,-0.4248504638671875,12279.00414525,-1.940739209704088,-1.061724949999076,-0.4816823351141062,-0.0275875348597765,-4.179403185844421e-05,0.01640923134982586,0.006905078887939453,-0.01040512323379517,0.01316553354263306,XArbitraryZVertical,0.5218851626674865,0.1080724298731411,0.6227737259966337,-0.5728080873865787,-0.7738422751426697,0.4632707536220551,-0.4319124519824982,0,0,0,-1,-1,12269.271095375,unknown,2,2025-04-21T10:41:41.760+03:00,2025-04-20T21:57:49.637+03:00,1464,1.041328,0,0,1097.988,1,4,2025-04-21T10:25:37.107+03:00,766914109.5956278,0,-47.6,100.3025,1,0.7,2025-04-21T10:41:46.384+03:00,103,1.716666666666667,2025-04-21T09:28:58.093+03:00,0.01174319131481236,0
2025-04-21T10:41:51.517+03:00,1745221310.133824,40.95362769991429,29.1409764702767,93.06094,-1,-1,-1,-1,30,25.31866889715085,-9999,12279.02429725,-0.768646240234375,0.4574737548828125,-0.4303131103515625,12279.01422125,-1.941003264590197,-1.061824431365356,-0.4819760810193527,-0.03770462051033974,0.004774000030010939,0.01540095917880535,0.008126139640808105,-0.005599498748779297,0.01184731721878052,XArbitraryZVertical,0.521985256241546,0.1079204841586563,0.6227576362642032,-0.5727629762725578,-0.7737663388252258,0.4635310471057892,-0.4317691326141357,0,0,0,-1,-1,12269.271095375,unknown,2,2025-04-21T10:41:41.760+03:00,2025-04-20T21:57:49.637+03:00,1464,1.041328,0,0,1097.988,1,4,2025-04-21T10:25:37.107+03:00,766914109.5956278,0,-47.6,100.3025,1,0.7,2025-04-21T10:41:46.384+03:00,103,1.716666666666667,2025-04-21T09:28:58.093+03:00,0.01174319131481236,0
2025-04-21T10:41:51.528+03:00,1745221310.133824,40.95362769991429,29.1409764702767,93.06094,-1,-1,-1,-1,30,25.31866889715085,-9999,12279.03437225,-0.778228759765625,0.4676666259765625,-0.4469757080078125,12279.02429725,-1.941222763853121,-1.061868226674966,-0.482182768429059,-0.01323263067752123,0.01381137035787106,0.003733216784894466,0.003865182399749756,-0.004394084215164185,0.006838142871856689,XArbitraryZVertical,0.5220493015417683,0.1077972700167668,0.6227628142520041,-0.5727221923034397,-0.773701548576355,0.4637141823768616,-0.4316885471343994,0,0,0,-1,-1,12269.271095375,unknown,2,2025-04-21T10:41:41.760+03:00,2025-04-20T21:57:49.637+03:00,1464,1.041328,0,0,1097.988,1,4,2025-04-21T10:25:37.107+03:00,766914109.5956278,0,-47.6,100.3025,1,0.7,2025-04-21T10:41:46.384+03:00,103,1.716666666666667,2025-04-21T09:28:58.093+03:00,0.01174319131481236,0
2025-04-21T10:41:51.538+03:00,1745221310.133824,40.95362769991429,29.1409764702767,93.06094,-1,-1,-1,-1,30,25.31866889715085,-9999,12279.04444825,-0.787567138671875,0.4733123779296875,-0.4470672607421875,12279.03437225,-1.941241804589849,-1.061792948017294,-0.482181355360188,0.01277846377342939,0.008842444978654385,-0.004577976185828447,0.005023419857025146,-0.006239175796508789,0.001434028148651123,XArbitraryZVertical,0.5220266278513955,0.1077712739369714,0.6227882231688789,-0.5727201018088257,-0.7736696004867554,0.4637129306793213,-0.4317471086978912,0,0,0,-1,-1,12269.271095375,unknown,2,2025-04-21T10:41:41.760+03:00,2025-04-20T21:57:49.637+03:00,1464,1.041328,0,0,1097.988,1,4,2025-04-21T10:25:37.107+03:00,766914109.5956278,0,-47.6,100.3025,1,0.7,2025-04-21T10:41:46.384+03:00,103,1.716666666666667,2025-04-21T09:28:58.093+03:00,0.01174319131481236,0
2025-04-21T10:41:51.548+03:00,1745221310.133824,40.95362769991429,29.1409764702767,93.06094,-1,-1,-1,-1,30,25.31866889715085,-9999,12279.05452425,-0.7840576171875,0.465087890625,-0.4281005859375,12279.04444825,-1.941146230414318,-1.061693387420073,-0.4820566715828251,0.01362088788300753,0.01009286567568779,-0.008907443843781948,-0.004551589488983154,0.004064202308654785,-0.01512336730957031,XArbitraryZVertical,0.521967205444714,0.1078150453910753,0.6228147406106486,-0.5727371831886154,-0.7736771106719971,0.4636024534702301,-0.4318523108959198,0,0,0,-1,-1,12269.271095375,unknown,2,2025-04-21T10:41:41.760+03:00,2025-04-20T21:57:49.637+03:00,1464,1.041328,0,0,1097.988,1,4,2025-04-21T10:25:37.107+03:00,766914109.5956278,0,-47.6,100.3025,1,0.7,2025-04-21T10:41:46.384+03:00,103,1.716666666666667,2025-04-21T09:28:58.093+03:00,0.01174319131481236,0
2025-04-21T10:41:51.558+03:00,1745221310.133824,40.95362769991429,29.1409764702767,93.06094,-1,-1,-1,-1,30,25.31866889715085,-9999,12279.06459925,-0.7835235595703125,0.4656219482421875,-0.41925048828125,12279.05452425,-1.941060731697404,-1.061499563002522,-0.4819041191356245,0.01203071512281895,0.01971140503883362,-0.01086912769824266,-0.01391196250915527,0.009845137596130371,-0.01503050327301025,XArbitraryZVertical,0.5218737662670152,0.1078397587298031,0.6228749539272026,-0.57275215726427,-0.773655116558075,0.4634672701358795,-0.4320367276668549,0,0,0,-1,-1,12269.271095375,unknown,2,2025-04-21T10:41:41.760+03:00,2025-04-20T21:57:49.637+03:00,1464,1.041328,0,0,1097.988,1,4,2025-04-21T10:25:37.107+03:00,766914109.5956278,0,-47.6,100.3025,1,0.7,2025-04-21T10:41:46.384+03:00,103,1.716666666666667,2025-04-21T09:28:58.093+03:00,0.01174319131481236,0
2025-04-21T10:41:51.568+03:00,1745221310.133824,40.95362769991429,29.1409764702767,93.06094,-1,-1,-1,-1,30,25.31866889715085,-9999,12279.07467525,-0.7793731689453125,0.4633026123046875,-0.4200439453125,12279.06459925,-1.941036070220107,-1.061241022867035,-0.4817567117223881,0.006271229591220617,0.03050479665398598,-0.01217534206807613,-0.01045453548431396,0.00175127387046814,0.0041695237159729,XArbitraryZVertical,0.5217643845999841,0.1078281218158924,0.6229683278869982,-0.5727524565873519,-0.7736030220985413,0.4633366465568542,-0.4322700500488281,0,0,0,-1,-1,12269.271095375,unknown,2,2025-04-21T10:41:41.760+03:00,2025-04-20T21:57:49.637+03:00,1464,1.041328,0,0,1097.988,1,4,2025-04-21T10:25:37.107+03:00,766914109.5956278,0,-47.6,100.3025,1,0.7,2025-04-21T10:41:46.384+03:00,103,1.716666666666667,2025-04-21T09:28:58.093+03:00,0.01174319131481236,0
2025-04-21T10:41:51.578+03:00,1745221310.133824,40.95362769991429,29.1409764702767,93.06094,-1,-1,-1,-1,30,25.31866889715085,-9999,12279.08475025,-0.76751708984375,0.4623870849609375,-0.4248809814453125,12279.07467525,-1.94104274622431,-1.06094841274741,-0.4816254330180799,0.0110294995829463,0.03127019107341766,-0.01115588378161192,-0.009993910789489746,0.002401679754257202,0.0132756233215332,XArbitraryZVertical,0.5216490691161926,0.1077924336894149,0.6230759387470056,-0.5727471730731052,-0.773529589176178,0.4632203280925751,-0.4325260818004608,0,0,0,-1,-1,12269.271095375,unknown,2,2025-04-21T10:41:41.760+03:00,2025-04-20T21:57:49.637+03:00,1464,1.041328,0,0,1097.988,1,4,2025-04-21T10:25:37.107+03:00,766914109.5956278,0,-47.6,100.3025,1,0.7,2025-04-21T10:41:46.384+03:00,103,1.716666666666667,2025-04-21T09:28:58.093+03:00,0.01174319131481236,0
2025-04-21T10:41:51.588+03:00,1745221310.133824,40.95362769991429,29.1409764702767,93.06094,-1,-1,-1,-1,30,25.31866889715085,-9999,12279.09482625,-0.765869140625,0.4610137939453125,-0.4273834228515625,12279.08475025,-1.941013998485848,-1.060677867792993,-0.4814551726900131,0.01309717819094658,0.02522720955312252,-0.01397484075278044,-0.005891740322113037,0.0002331733703613281,0.01272997260093689,XArbitraryZVertical,0.5215314294036302,0.1077870880406086,0.6231763145476461,-0.5727460550209427,-0.7734813094139099,0.4630694091320038,-0.4327738285064697,0,0,0,-1,-1,12269.271095375,unknown,2,2025-04-21T10:41:41.760+03:00,2025-04-20T21:57:49.637+03:00,1464,1.041328,0,0,1097.988,1,4,2025-04-21T10:25:37.107+03:00,766914109.5956278,0,-47.6,100.3025,1,0.7,2025-04-21T10:41:46.384+03:00,103,1.716666666666667,2025-04-21T09:28:58.093+03:00,0.01174319131481236,0
2025-04-21T10:41:51.606+03:00,1745221310.133824,40.95362769991429,29.1409764702767,93.06094,-1,-1,-1,-1,30,25.31866889715085,-9999,12279.10490225,-0.766754150390625,0.4578399658203125,-0.4305267333984375,12279.09482625,-1.940965199906465,-1.060487006314721,-0.4812959129404807,0.01284950412809849,0.01662200316786766,-0.01104882545769215,0.005946040153503418,-0.0005410611629486084,0.00807654857635498,XArbitraryZVertical,0.5214395151759408,0.1078056840047707,0.6232478023196604,-0.5727486597656205,-0.7734631896018982,0.4629282653331757,-0.4329575300216675,0,0,0,-1,-1,12269.271095375,unknown,2,2025-04-21T10:41:41.760+03:00,2025-04-20T21:57:49.637+03:00,1464,1.041328,0,0,1097.988,1,4,2025-04-21T10:25:37.107+03:00,766914109.5956278,0,-47.6,100.3025,1,0.7,2025-04-21T10:41:46.384+03:00,103,1.716666666666667,2025-04-21T09:28:58.093+03:00,0.01174319131481236,0
2025-04-21T10:41:51.609+03:00,1745221310.133824,40.95362769991429,29.1409764702767,93.06094,-1,-1,-1,-1,30,25.31866889715085,-9999,12279.11497725,-0.7717132568359375,0.4633331298828125,-0.4348602294921875,12279.10490225,-1.940916031446454,-1.060320424030234,-0.4811190862772682,0.01259929966181517,0.01852363534271717,-0.01492232549935579,0.007593333721160889,-0.001757711172103882,0.005742967128753662,XArbitraryZVertical,0.5213519174861084,0.1078379132924085,0.6233166335358599,-0.5727473326140781,-0.7734624147415161,0.4627715051174164,-0.4331263303756714,0,0,0,-1,-1,12269.271095375,unknown,2,2025-04-21T10:41:41.760+03:00,2025-04-20T21:57:49.637+03:00,1464,1.041328,0,0,1097.988,1,4,2025-04-21T10:25:37.107+03:00,766914109.5956278,0,-47.6,100.3025,1,0.7,2025-04-21T10:41:46.384+03:00,103,1.716666666666667,2025-04-21T09:28:58.093+03:00,0.01174319131481236,0
2025-04-21T10:41:51.619+03:00,1745221310.133824,40.95362769991429,29.1409764702767,93.06094,-1,-1,-1,-1,30,25.31866889715085,-9999,12279.12505325,-0.7767181396484375,0.4655609130859375,-0.4369049072265625,12279.11497725,-1.940825651572385,-1.060056594537921,-0.4809049274356854,0.01790777780115604,0.02437406778335571,-0.01442351564764977,0.006680428981781006,-0.004741698503494263,0.002852112054824829,XArbitraryZVertical,0.5212247814162886,0.1078672156957548,0.6234073479783013,-0.572758724669486,-0.7734345197677612,0.4625816643238068,-0.4333787858486176,0,0,0,-1,-1,12269.271095375,unknown,2,2025-04-21T10:41:41.760+03:00,2025-04-20T21:57:49.637+03:00,1464,1.041328,0,0,1097.988,1,4,2025-04-21T10:25:37.107+03:00,766914109.5956278,0,-47.6,100.3025,1,0.7,2025-04-21T10:41:46.384+03:00,103,1.716666666666667,2025-04-21T09:28:58.093+03:00,0.01174319131481236,0
2025-04-21T10:41:51.629+03:00,1745221310.133824,40.95362769991429,29.1409764702767,93.06094,-1,-1,-1,-1,30,25.31866889715085,-9999,12279.13512925,-0.78485107421875,0.4614715576171875,-0.432891845703125,12279.12505325,-1.940731361853907,-1.059651128483406,-0.4807037180789286,0.01702387630939484,0.0411173589527607,-0.01549344044178724,0.001626729965209961,0.0009298920631408691,-0.00112229585647583,XArbitraryZVertical,0.5210556365801406,0.1078520935317361,0.6235309910334816,-0.57278096534904,-0.7733399271965027,0.462403267621994,-0.4337379038333893,0,0,0,-1,-1,12269.271095375,unknown,2,2025-04-21T10:41:41.760+03:00,2025-04-20T21:57:49.637+03:00,1464,1.041328,0,0,1097.988,1,4,2025-04-21T10:25:37.107+03:00,766914109.5956278,0,-47.6,100.3025,1,0.7,2025-04-21T10:41:46.384+03:00,103,1.716666666666667,2025-04-21T09:28:58.093+03:00,0.01174319131481236,0
2025-04-21T10:41:51.639+03:00,1745221310.133824,40.95362769991429,29.1409764702767,93.06094,-1,-1,-1,-1,30,25.31866889715085,-9999,12279.14520425,-0.7785797119140625,0.460601806640625,-0.43194580078125,12279.13512925,-1.940647680953484,-1.059168970242389,-0.4804715462644322,0.01624516770243645,0.04472301155328751,-0.02169780805706978,-0.003493785858154297,0.003363579511642456,-0.002741575241088867,XArbitraryZVertical,0.5208573280528488,0.1078239694598737,0.6236844769325915,-0.5727995203083172,-0.7732242941856384,0.4621973931789398,-0.4341632723808289,0,0,0,-1,-1,12269.271095375,unknown,2,2025-04-21T10:41:41.760+03:00,2025-04-20T21:57:49.637+03:00,1464,1.041328,0,0,1097.988,1,4,2025-04-21T10:25:37.107+03:00,766914109.5956278,0,-47.6,100.3025,1,0.7,2025-04-21T10:41:46.384+03:00,103,1.716666666666667,2025-04-21T09:28:58.093+03:00,0.01174319131481236,0
2025-04-21T10:41:51.649+03:00,1745221310.133824,40.95362769991429,29.1409764702767,93.06094,-1,-1,-1,-1,30,25.31866889715085,-9999,12279.15528025,-0.7704620361328125,0.458831787109375,-0.429931640625,12279.14520425,-1.940614698004321,-1.058753259143251,-0.4802299295294152,0.01285409741103649,0.04382892325520515,-0.0129917012527585,-0.01170992851257324,-0.00051155686378479,0.001647591590881348,XArbitraryZVertical,0.5206806458956841,0.1078052616798905,0.6238372348385993,-0.5727973442599125,-0.773141086101532,0.4619831144809723,-0.4345393776893616,0,0,0,-1,-1,12269.271095375,unknown,2,2025-04-21T10:41:41.760+03:00,2025-04-20T21:57:49.637+03:00,1464,1.041328,0,0,1097.988,1,4,2025-04-21T10:25:37.107+03:00,766914109.5956278,0,-47.6,100.3025,1,0.7,2025-04-21T10:41:46.384+03:00,103,1.716666666666667,2025-04-21T09:28:58.093+03:00,0.01174319131481236,0
2025-04-21T10:41:51.659+03:00,1745221310.133824,40.95362769991429,29.1409764702767,93.06094,-1,-1,-1,-1,30,25.31866889715085,-9999,12279.16535625,-0.7607421875,0.4537200927734375,-0.42889404296875,12279.15528025,-1.940644777743616,-1.058456292503853,-0.4800614889255911,0.005981810390949249,0.02959486097097397,-0.01270913984626532,-0.005499899387359619,-0.001231908798217773,0.002861320972442627,XArbitraryZVertical,0.5205580967949189,0.1077763250530127,0.6239607084325606,-0.5727795830759033,-0.7730797529220581,0.4618337154388428,-0.4348070621490479,0,0,0,-1,-1,12269.271095375,unknown,2,2025-04-21T10:41:41.760+03:00,2025-04-20T21:57:49.637+03:00,1464,1.041328,0,0,1097.988,1,4,2025-04-21T10:25:37.107+03:00,766914109.5956278,0,-47.6,100.3025,1,0.7,2025-04-21T10:41:46.384+03:00,103,1.716666666666667,2025-04-21T09:28:58.093+03:00,0.01174319131481236,0
2025-04-21T10:41:51.669+03:00,1745221310.133824,40.95362769991429,29.1409764702767,93.06094,-1,-1,-1,-1,30,25.31866889715085,-9999,12279.17543125,-0.7574615478515625,0.45513916015625,-0.433441162109375,12279.16535625,-1.940684713938235,-1.058318562296382,-0.4799590872238106,0.004884721711277962,0.01262826099991798,-0.008425111882388592,0.002599120140075684,-0.002911120653152466,0.005005151033401489,XArbitraryZVertical,0.5204980976343762,0.107765370363947,0.6240308315287764,-0.5727597428276583,-0.7730610370635986,0.4617428779602051,-0.4349367022514343,0,0,0,-1,-1,12269.271095375,unknown,2,2025-04-21T10:41:41.760+03:00,2025-04-20T21:57:49.637+03:00,1464,1.041328,0,0,1097.988,1,4,2025-04-21T10:25:37.107+03:00,766914109.5956278,0,-47.6,100.3025,1,0.7,2025-04-21T10:41:46.384+03:00,103,1.716666666666667,2025-04-21T09:28:58.093+03:00,0.01174319131481236,0
2025-04-21T10:41:51.679+03:00,1745221310.133824,40.95362769991429,29.1409764702767,93.06094,-1,-1,-1,-1,30,25.31866889715085,-9999,12279.18550725,-0.7625274658203125,0.4575653076171875,-0.43023681640625,12279.17543125,-1.940710017196221,-1.058282708448572,-0.4798865164512931,0.0006758614908903837,0.0003015538677573204,-0.009149758145213127,0.01233255863189697,-0.007958412170410156,0.006086915731430054,XArbitraryZVertical,0.5204746807299095,0.1077760738115937,0.6240635924321489,-0.5727432888788667,-0.7730746269226074,0.4616785049438477,-0.4349808394908905,0,0,0,-1,-1,12269.271095375,unknown,2,2025-04-21T10:41:41.760+03:00,2025-04-20T21:57:49.637+03:00,1464,1.041328,0,0,1097.988,1,4,2025-04-21T10:25:37.107+03:00,766914109.5956278,0,-47.6,100.3025,1,0.7,2025-04-21T10:41:46.384+03:00,103,1.716666666666667,2025-04-21T09:28:58.093+03:00,0.01174319131481236,0
2025-04-21T10:41:51.689+03:00,1745221310.133824,40.95362769991429,29.1409764702767,93.06094,-1,-1,-1,-1,30,25.31866889715085,-9999,12279.19558325,-0.7682342529296875,0.458465576171875,-0.428253173828125,12279.18550725,-1.940802328416018,-1.058343060322362,-0.4798346460798878,-0.003390985075384378,-0.003333860542625189,-0.009693542495369911,0.01566034555435181,-0.006493330001831055,0.001504868268966675,XArbitraryZVertical,0.5204887595042755,0.1077890443749453,0.624085911579128,-0.5727037695716559,-0.7731217741966248,0.4616324901580811,-0.4349459409713745,0,0,0,-1,-1,12269.271095375,unknown,2,2025-04-21T10:41:41.760+03:00,2025-04-20T21:57:49.637+03:00,1464,1.041328,0,0,1097.988,1,4,2025-04-21T10:25:37.107+03:00,766914109.5956278,0,-47.6,100.3025,1,0.7,2025-04-21T10:41:46.384+03:00,103,1.716666666666667,2025-04-21T09:28:58.093+03:00,0.01174319131481236,0
2025-04-21T10:41:51.699+03:00,1745221310.133824,40.95362769991429,29.1409764702767,93.06094,-1,-1,-1,-1,30,25.31866889715085,-9999,12279.20565825,-0.770111083984375,0.456756591796875,-0.428192138671875,12279.19558325,-1.940942479495968,-1.058445948332986,-0.4798057667329034,-0.01565430872142315,0.0002984246239066124,-0.009459717199206352,0.01065075397491455,-0.004041612148284912,0.004636198282241821,XArbitraryZVertical,0.5205230156551249,0.107792990307279,0.6241056953208245,-0.5726502991349016,-0.7731781601905823,0.46160688996315,-0.4348729252815247,0,0,0,-1,-1,12269.271095375,unknown,2,2025-04-21T10:41:41.760+03:00,2025-04-20T21:57:49.637+03:00,1464,1.041328,0,0,1097.988,1,4,2025-04-21T10:25:37.107+03:00,766914109.5956278,0,-47.6,100.3025,1,0.7,2025-04-21T10:41:46.384+03:00,103,1.716666666666667,2025-04-21T09:28:58.093+03:00,0.01174319131481236,0
2025-04-21T10:41:51.709+03:00,1745221310.133824,40.95362769991429,29.1409764702767,93.06094,-1,-1,-1,-1,30,25.31866889715085,-9999,12279.21573425,-0.773223876953125,0.4575958251953125,-0.425750732421875,12279.20565825,-1.941206801419453,-1.058521253672856,-0.4798430444905162,-0.0255123320966959,0.00736851803958416,-0.01012807060033083,0.004961729049682617,-0.003174394369125366,0.006553173065185547,XArbitraryZVertical,0.5205677136012304,0.1077316279923067,0.624153504939624,-0.5725692181317396,-0.7731959819793701,0.461639940738678,-0.4348063170909882,0,0,0,-1,-1,12269.271095375,unknown,2,2025-04-21T10:41:41.760+03:00,2025-04-20T21:57:49.637+03:00,1464,1.041328,0,0,1097.988,1,4,2025-04-21T10:25:37.107+03:00,766914109.5956278,0,-47.6,100.3025,1,0.7,2025-04-21T10:41:46.384+03:00,103,1.716666666666667,2025-04-21T09:28:58.093+03:00,0.01174319131481236,0
2025-04-21T10:41:51.720+03:00,1745221310.133824,40.95362769991429,29.1409764702767,93.06094,-1,-1,-1,-1,30,25.31866889715085,-9999,12279.22581025,-0.765716552734375,0.4598846435546875,-0.4347381591796875,12279.21573425,-1.941521794972323,-1.058591799545729,-0.4798882159348672,-0.02726149745285511,0.007916064001619816,-0.01082129124552011,0.003097414970397949,-0.004923403263092041,0.006549417972564697,XArbitraryZVertical,0.5206151558764093,0.1076526647769318,0.6242152212303708,-0.5724736189003639,-0.7732084393501282,0.4616800248622894,-0.4347415268421173,0,0,0,-1,-1,12269.271095375,unknown,2,2025-04-21T10:41:41.760+03:00,2025-04-20T21:57:49.637+03:00,1464,1.041328,0,0,1097.988,1,4,2025-04-21T10:25:37.107+03:00,766914109.5956278,0,-47.6,100.3025,1,0.7,2025-04-21T10:41:46.384+03:00,103,1.716666666666667,2025-04-21T09:28:58.093+03:00,0.01174319131481236,0
2025-04-21T10:41:51.729+03:00,1745221310.133824,40.95362769991429,29.1409764702767,93.06094,-1,-1,-1,-1,30,25.31866889715085,-9999,12279.23588525,-0.7645416259765625,0.4618988037109375,-0.4467315673828125,12279.22581025,-1.941779886937894,-1.058739374104056,-0.4798901858383261,-0.01248694490641356,-0.004436076618731022,-0.007954997941851616,4.798173904418945e-05,-0.004085928201675415,0.008876293897628784,XArbitraryZVertical,0.5206754818395495,0.1076269595921471,0.6242502223078303,-0.5723853876804966,-0.7732717394828796,0.4616817533969879,-0.434626966714859,0,0,0,-1,-1,12269.271095375,unknown,2,2025-04-21T10:41:41.760+03:00,2025-04-20T21:57:49.637+03:00,1464,1.041328,0,0,1097.988,1,4,2025-04-21T10:25:37.107+03:00,766914109.5956278,0,-47.6,100.3025,1,0.7,2025-04-21T10:41:46.384+03:00,103,1.716666666666667,2025-04-21T09:28:58.093+03:00,0.01174319131481236,0
2025-04-21T10:41:51.739+03:00,1745221310.133824,40.95362769991429,29.1409764702767,93.06094,-1,-1,-1,-1,30,25.31866889715085,-9999,12279.24596125,-0.769439697265625,0.463226318359375,-0.4367828369140625,12279.23588525,-1.941961824667863,-1.058899606193265,-0.4798729782730272,-0.01439163740724325,-0.00653091911226511,-0.01058273855596781,0.007631838321685791,-0.001781851053237915,-0.0002311468124389648,XArbitraryZVertical,0.5207320619030975,0.1076319881801322,0.6242644189909954,-0.5723175015798583,-0.773348331451416,0.4616664946079254,-0.4345069527626038,0,0,0,-1,-1,12269.271095375,unknown,2,2025-04-21T10:41:41.760+03:00,2025-04-20T21:57:49.637+03:00,1464,1.041328,0,0,1097.988,1,4,2025-04-21T10:25:37.107+03:00,766914109.5956278,0,-47.6,100.3025,1,0.7,2025-04-21T10:41:46.384+03:00,103,1.716666666666667,2025-04-21T09:28:58.093+03:00,0.01174319131481236,0
2025-04-21T10:41:51.749+03:00,1745221310.133824,40.95362769991429,29.1409764702767,93.06094,-1,-1,-1,-1,30,25.31866889715085,-9999,12279.25603625,-0.7670440673828125,0.4597625732421875,-0.4273529052734375,12279.24596125,-1.942173967109091,-1.05913525668396,-0.4798740865922787,-0.01538859307765961,-0.01589206419885159,-0.006441323552280664,0.008908689022064209,0.000231325626373291,-0.01240706443786621,XArbitraryZVertical,0.520817240453967,0.1076437568858825,0.6242635137343844,-0.5722387632738496,-0.7734502553939819,0.4616674780845642,-0.4343244433403015,0,0,0,-1,-1,12269.271095375,unknown,2,2025-04-21T10:41:41.760+03:00,2025-04-20T21:57:49.637+03:00,1464,1.041328,0,0,1097.988,1,4,2025-04-21T10:25:37.107+03:00,766914109.5956278,0,-47.6,100.3025,1,0.7,2025-04-21T10:41:46.384+03:00,103,1.716666666666667,2025-04-21T09:28:58.093+03:00,0.01174319131481236,0
2025-04-21T10:41:51.759+03:00,1745221310.133824,40.95362769991429,29.1409764702767,93.06094,-1,-1,-1,-1,30,25.31866889715085,-9999,12279.26611225,-0.7781524658203125,0.46649169921875,-0.42352294921875,12279.25603625,-1.942325079089564,-1.059306102045787,-0.4798631556798961,-0.008560514077544212,-0.0008571874350309372,-0.00670178048312664,0.004089236259460449,0.00156855583190918,-0.002587974071502686,XArbitraryZVertical,0.520876648341758,0.1076574457627211,0.6242647098094399,-0.5721808427910954,-0.7735288739204407,0.4616577923297882,-0.4341947734355927,0,0,0,-1,-1,12269.271095375,unknown,2,2025-04-21T10:41:41.760+03:00,2025-04-20T21:57:49.637+03:00,1464,1.041328,0,0,1097.988,1,4,2025-04-21T10:25:37.107+03:00,766914109.5956278,0,-47.6,100.3025,1,0.7,2025-04-21T10:41:46.384+03:00,103,1.716666666666667,2025-04-21T09:28:58.093+03:00,0.01174319131481236,0
2025-04-21T10:41:51.770+03:00,1745221310.133824,40.95362769991429,29.1409764702767,93.06094,-1,-1,-1,-1,30,25.31866889715085,-9999,12279.27618825,-0.776824951171875,0.4623565673828125,-0.419952392578125,12279.26611225,-1.942354899669938,-1.059114478770727,-0.4798305011211461,0.02310187555849552,0.04567016661167145,-0.001933756750077009,0.006414830684661865,-0.00186622142791748,0.006997525691986084,XArbitraryZVertical,0.5208123247405804,0.1076072729646289,0.6243304443504306,-0.5721771442826094,-0.7734588384628296,0.4616288244724274,-0.4343504011631012,0,0,0,-1,-1,12269.271095375,unknown,2,2025-04-21T10:41:41.760+03:00,2025-04-20T21:57:49.637+03:00,1464,1.041328,0,0,1097.988,1,4,2025-04-21T10:25:37.107+03:00,766914109.5956278,0,-47.6,100.3025,1,0.7,2025-04-21T10:41:46.384+03:00,103,1.716666666666667,2025-04-21T09:28:58.093+03:00,0.01174319131481236,0
2025-04-21T10:41:51.780+03:00,1745221310.133824,40.95362769991429,29.1409764702767,93.06094,-1,-1,-1,-1,30,25.31866889715085,-9999,12279.28626325,-0.75201416015625,0.423919677734375,-0.4235687255859375,12279.27618825,-1.941940266998025,-1.058495110333622,-0.4797772590949577,0.01948983035981655,0.01978291012346745,0.0249580442905426,-0.004941403865814209,0.004910171031951904,0.01131850481033325,XArbitraryZVertical,0.5205866931402757,0.1075582484112331,0.6243849635432529,-0.5723322435188379,-0.7732111215591431,0.4615815877914429,-0.4348414242267609,0,0,0,-1,-1,12269.271095375,unknown,2,2025-04-21T10:41:41.760+03:00,2025-04-20T21:57:49.637+03:00,1464,1.041328,0,0,1097.988,1,4,2025-04-21T10:25:37.107+03:00,766914109.5956278,0,-47.6,100.3025,1,0.7,2025-04-21T10:41:46.384+03:00,103,1.716666666666667,2025-04-21T09:28:58.093+03:00,0.01174319131481236,0
2025-04-21T10:41:51.790+03:00,1745221310.133824,40.95362769991429,29.1409764702767,93.06094,-1,-1,-1,-1,30,25.31866889715085,-9999,12279.29633925,-0.782196044921875,0.469573974609375,-0.4273223876953125,12279.28626325,-1.942228343758931,-1.058625591152298,-0.4800936529636566,-0.05219008028507233,0.02296312525868416,-0.00153355032671243,-0.003684461116790771,0.0004943311214447021,0.01471659541130066,XArbitraryZVertical,0.5207021473433586,0.1074003355991431,0.6243627644568996,-0.5722808971854385,-0.7731403708457947,0.4618622362613678,-0.4346688687801361,0,0,0,-1,-1,12269.271095375,unknown,2,2025-04-21T10:41:41.760+03:00,2025-04-20T21:57:49.637+03:00,1464,1.041328,0,0,1097.988,1,4,2025-04-21T10:25:37.107+03:00,766914109.5956278,0,-47.6,100.3025,1,0.7,2025-04-21T10:41:46.384+03:00,103,1.716666666666667,2025-04-21T09:28:58.093+03:00,0.01174319131481236,0
2025-04-21T10:41:51.800+03:00,1745221310.133824,40.95362769991429,29.1409764702767,93.06094,-1,-1,-1,-1,30,25.31866889715085,-9999,12279.30641525,-0.7623291015625,0.499176025390625,-0.4416046142578125,12279.29633925,-1.942395619313291,-1.058568692992891,-0.4801089591743755,0.00388543657027185,-0.01676697842776775,-0.004422813653945923,0.02109545469284058,-0.03795620799064636,0.01114076375961304,XArbitraryZVertical,0.5206962444308965,0.1073346680243513,0.6244219911861006,-0.5722338884430193,-0.7731094360351562,0.4618758261203766,-0.434709370136261,0,0,0,-1,-1,12269.271095375,unknown,2,2025-04-21T10:41:41.760+03:00,2025-04-20T21:57:49.637+03:00,1464,1.041328,0,0,1097.988,1,4,2025-04-21T10:25:37.107+03:00,766914109.5956278,0,-47.6,100.3025,1,0.7,2025-04-21T10:41:46.384+03:00,103,1.716666666666667,2025-04-21T09:28:58.093+03:00,0.01174319131481236,0
2025-04-21T10:41:51.810+03:00,1745221310.133824,40.95362769991429,29.1409764702767,93.06094,-1,-1,-1,-1,30,25.31866889715085,-9999,12279.31649025,-0.749176025390625,0.450103759765625,-0.423309326171875,12279.30641525,-1.942618212143217,-1.059026225513205,-0.4802047080795244,-0.03766054287552834,-0.03524678945541382,0.002852210076525807,-0.008926153182983398,0.007613271474838257,0.007011711597442627,XArbitraryZVertical,0.5208688780065904,0.1073712907104549,0.6243452763698942,-0.5721538398671285,-0.7732698321342468,0.4619607329368591,-0.4343340396881104,0,0,0,-1,-1,12269.271095375,unknown,2,2025-04-21T10:41:41.760+03:00,2025-04-20T21:57:49.637+03:00,1464,1.041328,0,0,1097.988,1,4,2025-04-21T10:25:37.107+03:00,766914109.5956278,0,-47.6,100.3025,1,0.7,2025-04-21T10:41:46.384+03:00,103,1.716666666666667,2025-04-21T09:28:58.093+03:00,0.01174319131481236,0
2025-04-21T10:41:51.820+03:00,1745221310.133824,40.95362769991429,29.1409764702767,93.06094,-1,-1,-1,-1,30,25.31866889715085,-9999,12279.32656625,-0.78350830078125,0.4682769775390625,-0.435333251953125,12279.31649025,-1.942911897742756,-1.05942942681877,-0.4802947404732384,-0.01805088855326176,-0.02871698327362537,-0.0112225953489542,0.01107954978942871,0.03713542222976685,-0.007602691650390625,XArbitraryZVertical,0.5210273411489024,0.1073759109169295,0.6243041536301477,-0.5720535143503431,-0.7734085917472839,0.4620406031608582,-0.4340018332004547,0,0,0,-1,-1,12269.271095375,unknown,2,2025-04-21T10:41:41.760+03:00,2025-04-20T21:57:49.637+03:00,1464,1.041328,0,0,1097.988,1,4,2025-04-21T10:25:37.107+03:00,766914109.5956278,0,-47.6,100.3025,1,0.7,2025-04-21T10:41:46.384+03:00,103,1.716666666666667,2025-04-21T09:28:58.093+03:00,0.01174319131481236,0
2025-04-21T10:41:51.830+03:00,1745221310.133824,40.95362769991429,29.1409764702767,93.06094,-1,-1,-1,-1,30,25.31866889715085,-9999,12279.33664225,-0.76385498046875,0.4723968505859375,-0.4315338134765625,12279.32656625,-1.94306354494288,-1.05980971240686,-0.4802434775440511,-0.002689841436222196,-0.04012150317430496,-0.0132986968383193,0.02441823482513428,-0.01189133524894714,0.01041001081466675,XArbitraryZVertical,0.5211446242800649,0.1074646304119609,0.6242598677875526,-0.5719783044548213,-0.7735942006111145,0.4619951248168945,-0.433719277381897,0,0,0,-1,-1,12269.271095375,unknown,2,2025-04-21T10:41:41.760+03:00,2025-04-20T21:57:49.637+03:00,1464,1.041328,0,0,1097.988,1,4,2025-04-21T10:25:37.107+03:00,766914109.5956278,0,-47.6,100.3025,1,0.7,2025-04-21T10:41:46.384+03:00,103,1.716666666666667,2025-04-21T09:28:58.093+03:00,0.01174319131481236,0
2025-04-21T10:41:51.840+03:00,1745221310.133824,40.95362769991429,29.1409764702767,93.06094,-1,-1,-1,-1,30,25.31866889715085,-9999,12279.34671725,-0.7772979736328125,0.4581146240234375,-0.4293975830078125,12279.33664225,-1.943180761048417,-1.060207851149553,-0.480109940244968,-0.001849880442023277,-0.03106489032506943,-0.01996831782162189,-0.009687602519989014,0.006400257349014282,-0.001891821622848511,XArbitraryZVertical,0.5212502778047235,0.1075986534621349,0.6242194059206434,-0.5719009175252663,-0.7738206386566162,0.4618766903877258,-0.4334413409233093,0,0,0,-1,-1,12269.271095375,unknown,2,2025-04-21T10:41:41.760+03:00,2025-04-20T21:57:49.637+03:00,1464,1.041328,0,0,1097.988,1,4,2025-04-21T10:25:37.107+03:00,766914109.5956278,0,-47.6,100.3025,1,0.7,2025-04-21T10:41:46.384+03:00,103,1.716666666666667,2025-04-21T09:28:58.093+03:00,0.01174319131481236,0
2025-04-21T10:41:51.850+03:00,1745221310.133824,40.95362769991429,29.1409764702767,93.06094,-1,-1,-1,-1,30,25.31866889715085,-9999,12279.35679325,-0.776763916015625,0.4548797607421875,-0.424591064453125,12279.34671725,-1.943337206919116,-1.060603612322296,-0.4799352013953838,-0.003688127500936389,-0.03532368317246437,-0.02323634922504425,0.01020759344100952,0.01067519187927246,0.001640737056732178,XArbitraryZVertical,0.5213496041620289,0.107737416749636,0.6241999806777053,-0.5718054456029009,-0.7740625143051147,0.4617216885089874,-0.4331744909286499,0,0,0,-1,-1,12269.271095375,unknown,2,2025-04-21T10:41:41.760+03:00,2025-04-20T21:57:49.637+03:00,1464,1.041328,0,0,1097.988,1,4,2025-04-21T10:25:37.107+03:00,766914109.5956278,0,-47.6,100.3025,1,0.7,2025-04-21T10:41:46.384+03:00,103,1.716666666666667,2025-04-21T09:28:58.093+03:00,0.01174319131481236,0
2025-04-21T10:41:51.861+03:00,1745221310.133824,40.95362769991429,29.1409764702767,93.06094,-1,-1,-1,-1,30,25.31866889715085,-9999,12279.36686925,-0.770538330078125,0.4498291015625,-0.4241180419921875,12279.35679325,-1.943566183602909,-1.06114168326383,-0.479781725522787,-0.01354555133730173,-0.04568444564938545,-0.02375380136072636,-0.002940535545349121,-0.003470927476882935,0.003394991159439087,XArbitraryZVertical,0.5215012426825592,0.1078898352361515,0.6241594014815987,-0.5716826896674866,-0.7743573188781738,0.4615855515003204,-0.4327924847602844,0,0,0,-1,-1,12269.271095375,unknown,2,2025-04-21T10:41:41.760+03:00,2025-04-20T21:57:49.637+03:00,1464,1.041328,0,0,1097.988,1,4,2025-04-21T10:25:37.107+03:00,766914109.5956278,0,-47.6,100.3025,1,0.7,2025-04-21T10:41:46.384+03:00,103,1.716666666666667,2025-04-21T09:28:58.093+03:00,0.01174319131481236,0
2025-04-21T10:41:51.871+03:00,1745221310.133824,40.95362769991429,29.1409764702767,93.06094,-1,-1,-1,-1,30,25.31866889715085,-9999,12279.37694425,-0.76898193359375,0.44720458984375,-0.424285888671875,12279.36686925,-1.943938019654819,-1.061897907066901,-0.4796692778627963,-0.02393713966012001,-0.06216561794281006,-0.02316813915967941,-0.00203406810760498,-0.006606101989746094,0.007641077041625977,XArbitraryZVertical,0.5217363355360672,0.1080517006465338,0.6240935443149813,-0.5715094948054726,-0.7747297286987305,0.4614858031272888,-0.4322320520877838,0,0,0,-1,-1,12269.271095375,unknown,2,2025-04-21T10:41:41.760+03:00,2025-04-20T21:57:49.637+03:00,1464,1.041328,0,0,1097.988,1,4,2025-04-21T10:25:37.107+03:00,766914109.5956278,0,-47.6,100.3025,1,0.7,2025-04-21T10:41:46.384+03:00,103,1.716666666666667,2025-04-21T09:28:58.093+03:00,0.01174319131481236,0
2025-04-21T10:41:51.881+03:00,1745221310.133824,40.95362769991429,29.1409764702767,93.06094,-1,-1,-1,-1,30,25.31866889715085,-9999,12279.38702025,-0.769775390625,0.458160400390625,-0.428314208984375,12279.37694425,-1.944308888351885,-1.062698175328149,-0.479541481179937,-0.02480479702353477,-0.06107026338577271,-0.01655497774481773,0.004588603973388672,-0.01154327392578125,0.007522642612457275,XArbitraryZVertical,0.5219822416736198,0.108232165952431,0.6240192988848037,-0.5713320264159569,-0.7751269936561584,0.461372435092926,-0.4316406846046448,0,0,0,-1,-1,12269.271095375,unknown,2,2025-04-21T10:41:41.760+03:00,2025-04-20T21:57:49.637+03:00,1464,1.041328,0,0,1097.988,1,4,2025-04-21T10:25:37.107+03:00,766914109.5956278,0,-47.6,100.3025,1,0.7,2025-04-21T10:41:46.384+03:00,103,1.716666666666667,2025-04-21T09:28:58.093+03:00,0.01174319131481236,0
2025-04-21T10:41:51.890+03:00,1745221310.133824,40.95362769991429,29.1409764702767,93.06094,-1,-1,-1,-1,30,25.31866889715085,-9999,12279.39709625,-0.772613525390625,0.46295166015625,-0.4273223876953125,12279.38702025,-1.944587973664552,-1.063454834746633,-0.4795221706938791,-0.01163180451840162,-0.05548008531332016,-0.0119839608669281,0.006479263305664062,-0.01415064930915833,0.006772518157958984,XArbitraryZVertical,0.5222298274754087,0.1083827660606712,0.6239057901271915,-0.5712011550037537,-0.7754611372947693,0.4613552987575531,-0.4310583770275116,0,0,0,-1,-1,12269.271095375,unknown,2,2025-04-21T10:41:41.760+03:00,2025-04-20T21:57:49.637+03:00,1464,1.041328,0,0,1097.988,1,4,2025-04-21T10:25:37.107+03:00,766914109.5956278,0,-47.6,100.3025,1,0.7,2025-04-21T10:41:46.384+03:00,103,1.716666666666667,2025-04-21T09:28:58.093+03:00,0.01174319131481236,0
2025-04-21T10:41:51.901+03:00,1745221310.133824,40.95362769991429,29.1409764702767,93.06094,-1,-1,-1,-1,30,25.31866889715085,-9999,12279.40717125,-0.7747344970703125,0.466705322265625,-0.4232635498046875,12279.39709625,-1.944717352204214,-1.063961289853964,-0.4795750673384095,-0.006474060006439686,-0.04098130390048027,-0.01415310520678759,0.005882620811462402,-0.003241807222366333,0.002339541912078857,XArbitraryZVertical,0.5224046923756969,0.1084734870632078,0.623798600770083,-0.5711409644273114,-0.7756579518318176,0.4614022076129913,-0.4306536912918091,0,0,0,-1,-1,12269.271095375,unknown,2,2025-04-21T10:41:41.760+03:00,2025-04-20T21:57:49.637+03:00,1464,1.041328,0,0,1097.988,1,4,2025-04-21T10:25:37.107+03:00,766914109.5956278,0,-47.6,100.3025,1,0.7,2025-04-21T10:41:46.384+03:00,103,1.716666666666667,2025-04-21T09:28:58.093+03:00,0.01174319131481236,0
2025-04-21T10:41:51.911+03:00,1745221310.133824,40.95362769991429,29.1409764702767,93.06094,-1,-1,-1,-1,30,25.31866889715085,-9999,12279.41724725,-0.7807464599609375,0.47113037109375,-0.423492431640625,12279.40717125,-1.944831311103298,-1.064330224916572,-0.4794666038723465,-0.001230628928169608,-0.02335657179355621,-0.01424022484570742,0.003247082233428955,0.001645654439926147,0.003069400787353516,XArbitraryZVertical,0.5225057651225227,0.1085902610377724,0.6237589960684639,-0.5710695790042264,-0.7758605480194092,0.4613059759140015,-0.4303917586803436,0,0,0,-1,-1,12269.271095375,unknown,2,2025-04-21T10:41:41.760+03:00,2025-04-20T21:57:49.637+03:00,1464,1.041328,0,0,1097.988,1,4,2025-04-21T10:25:37.107+03:00,766914109.5956278,0,-47.6,100.3025,1,0.7,2025-04-21T10:41:46.384+03:00,103,1.716666666666667,2025-04-21T09:28:58.093+03:00,0.01174319131481236,0
2025-04-21T10:41:51.921+03:00,1745221310.133824,40.95362769991429,29.1409764702767,93.06094,-1,-1,-1,-1,30,25.31866889715085,-9999,12279.42732325,-0.785064697265625,0.47015380859375,-0.4265594482421875,12279.41724725,-1.944934634029214,-1.064430816262799,-0.4793458917003331,0.0008503651479259133,0.01085972227156162,-0.01519310381263494,0.001218080520629883,0.005506455898284912,0.007077217102050781,XArbitraryZVertical,0.5225203029619785,0.108637823448805,0.6237891697260103,-0.5710142534668077,-0.7759525179862976,0.4611988961696625,-0.4303407073020935,0,0,0,-1,-1,12269.271095375,unknown,2,2025-04-21T10:41:41.760+03:00,2025-04-20T21:57:49.637+03:00,1464,1.041328,0,0,1097.988,1,4,2025-04-21T10:25:37.107+03:00,766914109.5956278,0,-47.6,100.3025,1,0.7,2025-04-21T10:41:46.384+03:00,103,1.716666666666667,2025-04-21T09:28:58.093+03:00,0.01174319131481236,0
2025-04-21T10:41:51.931+03:00,1745221310.133824,40.95362769991429,29.1409764702767,93.06094,-1,-1,-1,-1,30,25.31866889715085,-9999,12279.43739825,-0.78472900390625,0.4649505615234375,-0.4296417236328125,12279.42732325,-1.944982480745273,-1.064260454262884,-0.4792227656791074,0.00723243085667491,0.02155158296227455,-0.0212930403649807,-0.004817545413970947,0.01004070043563843,0.007008105516433716,XArbitraryZVertical,0.5224468676169965,0.1086234373332126,0.6238748232810454,-0.5709905884763478,-0.775928795337677,0.4610896408557892,-0.4305004477500916,0,0,0,-1,-1,12269.271095375,unknown,2,2025-04-21T10:41:41.760+03:00,2025-04-20T21:57:49.637+03:00,1464,1.041328,0,0,1097.988,1,4,2025-04-21T10:25:37.107+03:00,766914109.5956278,0,-47.6,100.3025,1,0.7,2025-04-21T10:41:46.384+03:00,103,1.716666666666667,2025-04-21T09:28:58.093+03:00,0.01174319131481236,0
2025-04-21T10:41:51.941+03:00,1745221310.133824,40.95362769991429,29.1409764702767,93.06094,-1,-1,-1,-1,30,25.31866889715085,-9999,12279.44747425,-0.781280517578125,0.466339111328125,-0.4265289306640625,12279.43739825,-1.945009549224124,-1.064071351425216,-0.4789437462842068,0.01170787308365107,0.02179739251732826,-0.02482758648693562,-0.009104728698730469,0.0093117356300354,0.004150211811065674,XArbitraryZVertical,0.5223374494465145,0.1086683296870875,0.6239942192870138,-0.570951638788562,-0.775959849357605,0.4608420133590698,-0.430709570646286,0,0,0,-1,-1,12269.271095375,unknown,2,2025-04-21T10:41:41.760+03:00,2025-04-20T21:57:49.637+03:00,1464,1.041328,0,0,1097.988,1,4,2025-04-21T10:25:37.107+03:00,766914109.5956278,0,-47.6,100.3025,1,0.7,2025-04-21T10:41:46.384+03:00,103,1.716666666666667,2025-04-21T09:28:58.093+03:00,0.01174319131481236,0
2025-04-21T10:41:51.951+03:00,1745221310.133824,40.95362769991429,29.1409764702767,93.06094,-1,-1,-1,-1,30,25.31866889715085,-9999,12279.45754925,-0.78118896484375,0.4663543701171875,-0.4238739013671875,12279.44747425,-1.94495592320228,-1.063840492835665,-0.4785788302249089,0.02831448055803776,0.01913203299045563,-0.03118112310767174,-0.008721530437469482,0.004432469606399536,0.001328706741333008,XArbitraryZVertical,0.5221945579445828,0.108755054204326,0.6241207075284171,-0.570927725060396,-0.7760074138641357,0.4605181515216827,-0.4309703707695007,0,0,0,-1,-1,12269.271095375,unknown,2,2025-04-21T10:41:41.760+03:00,2025-04-20T21:57:49.637+03:00,1464,1.041328,0,0,1097.988,1,4,2025-04-21T10:25:37.107+03:00,766914109.5956278,0,-47.6,100.3025,1,0.7,2025-04-21T10:41:46.384+03:00,103,1.716666666666667,2025-04-21T09:28:58.093+03:00,0.01174319131481236,0
2025-04-21T10:41:51.961+03:00,1745221310.133824,40.95362769991429,29.1409764702767,93.06094,-1,-1,-1,-1,30,25.31866889715085,-9999,12279.46762525,-0.7755584716796875,0.4626617431640625,-0.4233245849609375,12279.45754925,-1.944839683833077,-1.063663280212265,-0.4781707058501216,0.02588834054768085,0.009035190567374229,-0.02570939250290394,-0.005185127258300781,0.00618329644203186,0.004670262336730957,XArbitraryZVertical,0.522056915056163,0.1088898362154811,0.6242249022410257,-0.5709141156216908,-0.7760953307151794,0.4601558148860931,-0.4311991631984711,0,0,0,-1,-1,12269.271095375,unknown,2,2025-04-21T10:41:41.760+03:00,2025-04-20T21:57:49.637+03:00,1464,1.041328,0,0,1097.988,1,4,2025-04-21T10:25:37.107+03:00,766914109.5956278,0,-47.6,100.3025,1,0.7,2025-04-21T10:41:46.384+03:00,103,1.716666666666667,2025-04-21T09:28:58.093+03:00,0.01174319131481236,0
2025-04-21T10:41:51.971+03:00,1745221310.133824,40.95362769991429,29.1409764702767,93.06094,-1,-1,-1,-1,30,25.31866889715085,-9999,12279.47770125,-0.778289794921875,0.4617156982421875,-0.3913421630859375,12279.46762525,-1.945202740744468,-1.063122781012207,-0.4779852566783088,-0.1447653472423553,0.1968498975038528,-0.03062475845217705,-0.005252242088317871,0.006363213062286377,0.007786154747009277,XArbitraryZVertical,0.5218734162659588,0.1087112137841379,0.6245109056561077,-0.5708030252262366,-0.7759366631507874,0.4599911868572235,-0.4316600263118744,0,0,0,-1,-1,12269.271095375,unknown,2,2025-04-21T10:41:41.760+03:00,2025-04-20T21:57:49.637+03:00,1464,1.041328,0,0,1097.988,1,4,2025-04-21T10:25:37.107+03:00,766914109.5956278,0,-47.6,100.3025,1,0.7,2025-04-21T10:41:46.384+03:00,103,1.716666666666667,2025-04-21T09:28:58.093+03:00,0.01174319131481236,0
2025-04-21T10:41:51.981+03:00,1745221310.133824,40.95362769991429,29.1409764702767,93.06094,-1,-1,-1,-1,30,25.31866889715085,-9999,12279.48777625,-0.785614013671875,0.4221038818359375,-0.4416656494140625,12279.47770125,-1.945383745301137,-1.062614797790036,-0.477945293201595,0.1077081710100174,0.0153394928202033,-0.02609285712242126,0.0001749396324157715,0.002706080675125122,0.008738577365875244,XArbitraryZVertical,0.5217171430831392,0.1085342140940464,0.6247040335942347,-0.5707682966746006,-0.7757334113121033,0.4599556922912598,-0.432063102722168,0,0,0,-1,-1,12269.271095375,unknown,2,2025-04-21T10:41:41.760+03:00,2025-04-20T21:57:49.637+03:00,1464,1.041328,0,0,1097.988,1,4,2025-04-21T10:25:37.107+03:00,766914109.5956278,0,-47.6,100.3025,1,0.7,2025-04-21T10:41:46.384+03:00,103,1.716666666666667,2025-04-21T09:28:58.093+03:00,0.01174319131481236,0
2025-04-21T10:41:51.991+03:00,1745221310.133824,40.95362769991429,29.1409764702767,93.06094,-1,-1,-1,-1,30,25.31866889715085,-9999,12279.49785225,-0.758758544921875,0.498443603515625,-0.44769287109375,12279.48777625,-1.94565961464094,-1.062842619072635,-0.4777419436085885,-0.04896912351250648,-0.04037097468972206,-0.02576385624706745,-0.002376317977905273,0.00194057822227478,0.04058969020843506,XArbitraryZVertical,0.5217654261696152,0.1086044853874265,0.6247686151148588,-0.5706400169693489,-0.7759134769439697,0.4597751200199127,-0.4319318234920502,0,0,0,-1,-1,12269.271095375,unknown,2,2025-04-21T10:41:41.760+03:00,2025-04-20T21:57:49.637+03:00,1464,1.041328,0,0,1097.988,1,4,2025-04-21T10:25:37.107+03:00,766914109.5956278,0,-47.6,100.3025,1,0.7,2025-04-21T10:41:46.384+03:00,103,1.716666666666667,2025-04-21T09:28:58.093+03:00,0.01174319131481236,0
2025-04-21T10:41:52.001+03:00,1745221310.133824,40.95362769991429,29.1409764702767,93.06094,-1,-1,-1,-1,30,25.31866889715085,-9999,12279.5079275,-0.783935546875,0.471221923828125,-0.4263763427734375,12279.49785225,-1.945704798906082,-1.063389261885269,-0.4775647641259606,0.0390547439455986,-0.06114869192242622,-0.01267868001013994,-0.00939333438873291,-0.03751388192176819,-0.01011842489242554,XArbitraryZVertical,0.5219056405744543,0.1088159601768233,0.6246783718359243,-0.5705703042125078,-0.7762206196784973,0.4596177637577057,-0.4315471649169922,0,0,0,-1,-1,12269.271095375,unknown,2,2025-04-21T10:41:41.760+03:00,2025-04-20T21:57:49.637+03:00,1464,1.041328,0,0,1097.988,1,4,2025-04-21T10:25:37.107+03:00,766914109.5956278,0,-47.6,100.3025,1,0.7,2025-04-21T10:41:46.384+03:00,103,1.716666666666667,2025-04-21T09:28:58.093+03:00,0.01174319131481236,0
2025-04-21T10:41:52.011+03:00,1745221310.133824,40.95362769991429,29.1409764702767,93.06094,-1,-1,-1,-1,30,25.31866889715085,-9999,12279.5180025,-0.778839111328125,0.417877197265625,-0.4424285888671875,12279.5079275,-1.945598385314105,-1.064036243510264,-0.477571901380018,0.0004335804260335863,-0.04784194007515907,0.0103900209069252,0.01773834228515625,0.03881952166557312,-0.0166495144367218,XArbitraryZVertical,0.5221032266438744,0.109025588406582,0.6244775442506196,-0.5705693225747206,-0.7764967679977417,0.4596241116523743,-0.4310432970523834,0,0,0,-1,-1,12269.271095375,unknown,2,2025-04-21T10:41:41.760+03:00,2025-04-20T21:57:49.637+03:00,1464,1.041328,0,0,1097.988,1,4,2025-04-21T10:25:37.107+03:00,766914109.5956278,0,-47.6,100.3025,1,0.7,2025-04-21T10:41:46.384+03:00,103,1.716666666666667,2025-04-21T09:28:58.093+03:00,0.01174319131481236,0
2025-04-21T10:41:52.021+03:00,1745221310.133824,40.95362769991429,29.1409764702767,93.06094,-1,-1,-1,-1,30,25.31866889715085,-9999,12279.5280785,-0.790924072265625,0.4642791748046875,-0.4263916015625,12279.5180025,-1.945312760121311,-1.064325235403587,-0.4775346950247466,0.0436183325946331,-0.04566480591893196,0.006088749505579472,-0.007299184799194336,0.01163086295127869,0.004450887441635132,XArbitraryZVertical,0.5221709432935505,0.1091967345871946,0.6243289033760795,-0.5706372829098119,-0.7766363024711609,0.4595910608768463,-0.4308271706104279,0,0,0,-1,-1,12269.271095375,unknown,2,2025-04-21T10:41:41.760+03:00,2025-04-20T21:57:49.637+03:00,1464,1.041328,0,0,1097.988,1,4,2025-04-21T10:25:37.107+03:00,766914109.5956278,0,-47.6,100.3025,1,0.7,2025-04-21T10:41:46.384+03:00,103,1.716666666666667,2025-04-21T09:28:58.093+03:00,0.01174319131481236,0
2025-04-21T10:41:52.032+03:00,1745221310.133824,40.95362769991429,29.1409764702767,93.06094,-1,-1,-1,-1,30,25.31866889715085,-9999,12279.5381545,-0.77325439453125,0.4737548828125,-0.417388916015625,12279.5280785,-1.944922109543319,-1.064290253169117,-0.4774319412537987,0.02993774227797985,0.03548364341259003,0.006856572348624468,-0.002176523208618164,-0.0416225790977478,-0.01155132055282593,XArbitraryZVertical,0.5221195434201353,0.1093277660786624,0.6242494940048663,-0.5707461184881039,-0.7766625285148621,0.4594998061656952,-0.4308772385120392,0,0,0,-1,-1,12269.271095375,unknown,2,2025-04-21T10:41:41.760+03:00,2025-04-20T21:57:49.637+03:00,1464,1.041328,0,0,1097.988,1,4,2025-04-21T10:25:37.107+03:00,766914109.5956278,0,-47.6,100.3025,1,0.7,2025-04-21T10:41:46.384+03:00,103,1.716666666666667,2025-04-21T09:28:58.093+03:00,0.01174319131481236,0
