loggingTime(txt),locationTimestamp_since1970(s),locationLatitude(WGS84),locationLongitude(WGS84),locationAltitude(m),locationSpeed(m/s),locationSpeedAccuracy(m/s),locationCourse(°),locationCourseAccuracy(°),locationVerticalAccuracy(m),locationHorizontalAccuracy(m),locationFloor(Z),accelerometerTimestamp_sinceReboot(s),accelerometerAccelerationX(G),accelerometerAccelerationY(G),accelerometerAccelerationZ(G),motionTimestamp_sinceReboot(s),motionYaw(rad),motionRoll(rad),motionPitch(rad),motionRotationRateX(rad/s),motionRotationRateY(rad/s),motionRotationRateZ(rad/s),motionUserAccelerationX(G),motionUserAccelerationY(G),motionUserAccelerationZ(G),motionAttitudeReferenceFrame(txt),motionQuaternionX(R),motionQuaternionY(R),motionQuaternionZ(R),motionQuaternionW(R),motionGravityX(G),motionGravityY(G),motionGravityZ(G),motionMagneticFieldX(µT),motionMagneticFieldY(µT),motionMagneticFieldZ(µT),motionHeading(°),motionMagneticFieldCalibrationAccuracy(Z),activityTimestamp_sinceReboot(s),activity(txt),activityActivityConfidence(Z),activityActivityStartDate(txt),pedometerStartDate(txt),pedometerNumberofSteps(N),pedometerAverageActivePace(s/m),pedometerCurrentPace(s/m),pedometerCurrentCadence(steps/s),pedometerDistance(m),pedometerFloorAscended(N),pedometerFloorDescended(N),pedometerEndDate(txt),altimeterTimestamp_sinceReboot(s),altimeterReset(bool),altimeterRelativeAltitude(m),altimeterPressure(kPa),batteryState(N),batteryLevel(R),heartRateBPMTimestamp(txt),heartRateBPM(N),heartRateBPS(R),heartRateVariabilityTimestamp(txt),heartRateVariability(ms),label
2025-04-21T10:59:45.224+03:00,1745222379.683002,40.95358469045333,29.14095995195676,92.5589,-1,-1,-1,-1,30,23.16670695740329,-9999,13039.19303325,-0.7519378662109375,0.3570098876953125,-0.5370635986328125,13039.18422525,-1.637480019830725,-0.9608129899136905,-0.3595032256838605,0.1208104118704796,-0.07792978733778,-0.02399324811995029,0.02720701694488525,0.07473498582839966,-0.04198431968688965,XArbitraryZVertical,-0.4403671257397405,-0.1948350266239598,-0.5807443716635634,0.656393173741289,-0.7672582268714905,0.3518092632293701,-0.5362322330474854,0,0,0,-1,-1,13033.96356004167,unknown,2,2025-04-21T10:59:39.965+03:00,2025-04-20T21:57:49.637+03:00,1517,1.088974,0,0,1136.478,1,4,2025-04-21T10:59:42.545+03:00,766915182.6491463,0,-47.68,100.3032,1,0.65,2025-04-21T10:59:35.766+03:00,104,1.733333333333333,2025-04-21T09:28:58.093+03:00,0.01174319131481236,0
2025-04-21T10:59:45.226+03:00,1745222379.683002,40.95358469045333,29.14095995195676,92.5589,-1,-1,-1,-1,30,23.16670695740329,-9999,13039.20310925,-0.8124237060546875,0.28265380859375,-0.5207366943359375,13039.19430125,-1.637031028983994,-0.9609694559697827,-0.3588863070050909,0.02060471475124359,0.003393835853785276,-0.03234012797474861,0.01558208465576172,0.005778193473815918,-0.0008271336555480957,XArbitraryZVertical,-0.4402035072128547,-0.1951991365592537,-0.5806940648457464,0.6564391968094735,-0.7675198316574097,0.351231724023819,-0.5362363457679749,0,0,0,-1,-1,13033.96356004167,unknown,2,2025-04-21T10:59:39.965+03:00,2025-04-20T21:57:49.637+03:00,1517,1.088974,0,0,1136.478,1,4,2025-04-21T10:59:42.545+03:00,766915182.6491463,0,-47.68,100.3032,1,0.65,2025-04-21T10:59:35.766+03:00,104,1.733333333333333,2025-04-21T09:28:58.093+03:00,0.01174319131481236,0
2025-04-21T10:59:45.226+03:00,1745222379.683002,40.95358469045333,29.14095995195676,92.5589,-1,-1,-1,-1,30,23.16670695740329,-9999,13039.21318525,-0.773895263671875,0.3420867919921875,-0.519683837890625,13039.20437725,-1.637423362324968,-0.9612009070292284,-0.358651830112471,-0.04207864031195641,-0.02781681343913078,-0.04964961111545563,-0.04471218585968018,-0.06835830211639404,0.01536917686462402,XArbitraryZVertical,-0.4402461711917922,-0.1952700473174985,-0.5808218658372498,0.6562764537935289,-0.7677114605903625,0.3510121703147888,-0.5361058115959167,0,0,0,-1,-1,13033.96356004167,unknown,2,2025-04-21T10:59:39.965+03:00,2025-04-20T21:57:49.637+03:00,1517,1.088974,0,0,1136.478,1,4,2025-04-21T10:59:42.545+03:00,766915182.6491463,0,-47.68,100.3032,1,0.65,2025-04-21T10:59:35.766+03:00,104,1.733333333333333,2025-04-21T09:28:58.093+03:00,0.01174319131481236,0
2025-04-21T10:59:45.231+03:00,1745222379.683002,40.95358469045333,29.14095995195676,92.5589,-1,-1,-1,-1,30,23.16670695740329,-9999,13039.22326125,-0.7451171875,0.363006591796875,-0.521453857421875,13039.21445325,-1.638217955191292,-0.9619892042434944,-0.3584593333489587,-0.04941378533840179,-0.06466004997491837,-0.05752218142151833,-0.005705893039703369,-0.008745074272155762,0.01585537195205688,XArbitraryZVertical,-0.440501145914694,-0.1954204729757286,-0.5809500273740704,0.6559471800935365,-0.7681893110275269,0.3508318960666656,-0.5355391502380371,0,0,0,-1,-1,13033.96356004167,unknown,2,2025-04-21T10:59:39.965+03:00,2025-04-20T21:57:49.637+03:00,1517,1.088974,0,0,1136.478,1,4,2025-04-21T10:59:42.545+03:00,766915182.6491463,0,-47.68,100.3032,1,0.65,2025-04-21T10:59:35.766+03:00,104,1.733333333333333,2025-04-21T09:28:58.093+03:00,0.01174319131481236,0
2025-04-21T10:59:45.240+03:00,1745222379.683002,40.95358469045333,29.14095995195676,92.5589,-1,-1,-1,-1,30,23.16670695740329,-9999,13039.23333725,-0.7630157470703125,0.3592681884765625,-0.529022216796875,13039.22452925,-1.638843746363803,-0.9628754785948699,-0.3581899325371196,-0.01648959144949913,-0.05537433922290802,-0.03758252784609795,0.0236240029335022,0.01242700219154358,0.013458251953125,XArbitraryZVertical,-0.4407477087596255,-0.195666625410413,-0.5810173792718506,0.6556483778051405,-0.7687411904335022,0.3505796194076538,-0.5349120497703552,0,0,0,-1,-1,13033.96356004167,unknown,2,2025-04-21T10:59:39.965+03:00,2025-04-20T21:57:49.637+03:00,1517,1.088974,0,0,1136.478,1,4,2025-04-21T10:59:42.545+03:00,766915182.6491463,0,-47.68,100.3032,1,0.65,2025-04-21T10:59:35.766+03:00,104,1.733333333333333,2025-04-21T09:28:58.093+03:00,0.01174319131481236,0
2025-04-21T10:59:45.250+03:00,1745222379.683002,40.95358469045333,29.14095995195676,92.5589,-1,-1,-1,-1,30,23.16670695740329,-9999,13039.24341325,-0.7740936279296875,0.3576202392578125,-0.531097412109375,13039.23460525,-1.639026091554056,-0.9633100128861892,-0.3579789433064686,0.01008582767099142,-0.02422840520739555,-0.02279692329466343,0.006018579006195068,0.008886247873306274,0.005597949028015137,XArbitraryZVertical,-0.4408353504645083,-0.1958420484728131,-0.5810263678921598,0.6555291019214933,-0.7690342664718628,0.350382000207901,-0.5346201658248901,0,0,0,-1,-1,13033.96356004167,unknown,2,2025-04-21T10:59:39.965+03:00,2025-04-20T21:57:49.637+03:00,1517,1.088974,0,0,1136.478,1,4,2025-04-21T10:59:42.545+03:00,766915182.6491463,0,-47.68,100.3032,1,0.65,2025-04-21T10:59:35.766+03:00,104,1.733333333333333,2025-04-21T09:28:58.093+03:00,0.01174319131481236,0
2025-04-21T10:59:45.261+03:00,1745222379.683002,40.95358469045333,29.14095995195676,92.5589,-1,-1,-1,-1,30,23.16670695740329,-9999,13039.25348925,-0.7620086669921875,0.33843994140625,-0.5213165283203125,13039.24468125,-1.639124878271203,-0.963492639227819,-0.3578224625696214,-0.004264016635715961,-0.009898667223751545,-0.0214337520301342,-0.004916667938232422,0.007384836673736572,0.003413617610931396,XArbitraryZVertical,-0.4408562223781334,-0.1959344008434307,-0.5810518599867308,0.6554648841189549,-0.7691769003868103,0.3502354621887207,-0.5345110297203064,0,0,0,-1,-1,13033.96356004167,unknown,2,2025-04-21T10:59:39.965+03:00,2025-04-20T21:57:49.637+03:00,1517,1.088974,0,0,1136.478,1,4,2025-04-21T10:59:42.545+03:00,766915182.6491463,0,-47.68,100.3032,1,0.65,2025-04-21T10:59:35.766+03:00,104,1.733333333333333,2025-04-21T09:28:58.093+03:00,0.01174319131481236,0
2025-04-21T10:59:45.270+03:00,1745222379.683002,40.95358469045333,29.14095995195676,92.5589,-1,-1,-1,-1,30,23.16670695740329,-9999,13039.26356525,-0.754669189453125,0.3274383544921875,-0.513519287109375,13039.25475725,-1.639358141318723,-0.9635962138325274,-0.3577191463571909,-0.01614810712635517,0.004607304930686951,-0.01975942216813564,0.007253348827362061,-0.01169869303703308,0.01313543319702148,XArbitraryZVertical,-0.4408815474598156,-0.1959527475215732,-0.5811274902536222,0.6553752762055639,-0.7692619562149048,0.3501386642456055,-0.534451961517334,0,0,0,-1,-1,13033.96356004167,unknown,2,2025-04-21T10:59:39.965+03:00,2025-04-20T21:57:49.637+03:00,1517,1.088974,0,0,1136.478,1,4,2025-04-21T10:59:42.545+03:00,766915182.6491463,0,-47.68,100.3032,1,0.65,2025-04-21T10:59:35.766+03:00,104,1.733333333333333,2025-04-21T09:28:58.093+03:00,0.01174319131481236,0
2025-04-21T10:59:45.288+03:00,1745222379.683002,40.95358469045333,29.14095995195676,92.5589,-1,-1,-1,-1,30,23.16670695740329,-9999,13039.27364125,-0.7584991455078125,0.340179443359375,-0.5188751220703125,13039.26483325,-1.639579496969745,-0.9635425308424722,-0.3577643280024103,-0.020952383056283,0.01837405189871788,0.0002814314793795347,0.01455116271972656,-0.02274256944656372,0.02096498012542725,XArbitraryZVertical,-0.4408997024319042,-0.1958706973478974,-0.5812022338637026,0.6553213427341499,-0.7692202925682068,0.350180983543396,-0.5344842672348022,0,0,0,-1,-1,13033.96356004167,unknown,2,2025-04-21T10:59:39.965+03:00,2025-04-20T21:57:49.637+03:00,1517,1.088974,0,0,1136.478,1,4,2025-04-21T10:59:42.545+03:00,766915182.6491463,0,-47.68,100.3032,1,0.65,2025-04-21T10:59:35.766+03:00,104,1.733333333333333,2025-04-21T09:28:58.093+03:00,0.01174319131481236,0
2025-04-21T10:59:45.290+03:00,1745222379.683002,40.95358469045333,29.14095995195676,92.5589,-1,-1,-1,-1,30,23.16670695740329,-9999,13039.28371725,-0.76019287109375,0.3484344482421875,-0.53118896484375,13039.27490925,-1.639660572994583,-0.9633505439430239,-0.3579119693025847,-0.01107099000364542,0.0253928117454052,0.01305554993450642,0.01057600975036621,-0.01013979315757751,0.01572728157043457,XArbitraryZVertical,-0.4408913095520456,-0.195738715200441,-0.5812396597206343,0.65533327758743,-0.7690752148628235,0.3503192961215973,-0.5346024036407471,0,0,0,-1,-1,13033.96356004167,unknown,2,2025-04-21T10:59:39.965+03:00,2025-04-20T21:57:49.637+03:00,1517,1.088974,0,0,1136.478,1,4,2025-04-21T10:59:42.545+03:00,766915182.6491463,0,-47.68,100.3032,1,0.65,2025-04-21T10:59:35.766+03:00,104,1.733333333333333,2025-04-21T09:28:58.093+03:00,0.01174319131481236,0
2025-04-21T10:59:45.300+03:00,1745222379.683002,40.95358469045333,29.14095995195676,92.5589,-1,-1,-1,-1,30,23.16670695740329,-9999,13039.29379325,-0.75775146484375,0.3519744873046875,-0.5376739501953125,13039.28498525,-1.639614303918002,-0.9631024301036043,-0.3580906220479682,-0.007197954226285219,0.02066037431359291,0.02402697503566742,0.00869828462600708,-0.002052098512649536,0.003568530082702637,XArbitraryZVertical,-0.4408624701333032,-0.1956056209703522,-0.5812410841148897,0.6553910765664153,-0.7688910961151123,0.3504866063594818,-0.5347574353218079,0,0,0,-1,-1,13033.96356004167,unknown,2,2025-04-21T10:59:39.965+03:00,2025-04-20T21:57:49.637+03:00,1517,1.088974,0,0,1136.478,1,4,2025-04-21T10:59:42.545+03:00,766915182.6491463,0,-47.68,100.3032,1,0.65,2025-04-21T10:59:35.766+03:00,104,1.733333333333333,2025-04-21T09:28:58.093+03:00,0.01174319131481236,0
2025-04-21T10:59:45.310+03:00,1745222379.683002,40.95358469045333,29.14095995195676,92.5589,-1,-1,-1,-1,30,23.16670695740329,-9999,13039.30387025,-0.757110595703125,0.3493194580078125,-0.5338134765625,13039.29506125,-1.639480894871339,-0.9629146979615056,-0.3583424914585123,-0.004447175189852715,0.009258050471544266,0.02947899699211121,0.01096683740615845,0.001252025365829468,-0.002822518348693848,XArbitraryZVertical,-0.4408622418613354,-0.1954861155472522,-0.5811850306666654,0.6554765257023022,-0.7687181830406189,0.3507224917411804,-0.5348513126373291,0,0,0,-1,-1,13033.96356004167,unknown,2,2025-04-21T10:59:39.965+03:00,2025-04-20T21:57:49.637+03:00,1517,1.088974,0,0,1136.478,1,4,2025-04-21T10:59:42.545+03:00,766915182.6491463,0,-47.68,100.3032,1,0.65,2025-04-21T10:59:35.766+03:00,104,1.733333333333333,2025-04-21T09:28:58.093+03:00,0.01174319131481236,0
2025-04-21T10:59:45.320+03:00,1745222379.683002,40.95358469045333,29.14095995195676,92.5589,-1,-1,-1,-1,30,23.16670695740329,-9999,13039.31394625,-0.75885009765625,0.343170166015625,-0.5326080322265625,13039.30513825,-1.639376975299332,-0.962847871156397,-0.3586441056562598,-0.01130994129925966,-0.005178214050829411,0.02743751928210258,0.01148509979248047,-0.001685470342636108,0.001028835773468018,XArbitraryZVertical,-0.4409133346697736,-0.1953824798051628,-0.5811013810686241,0.655547184540211,-0.7685955762863159,0.3510049283504486,-0.5348422527313232,0,0,0,-1,-1,13033.96356004167,unknown,2,2025-04-21T10:59:39.965+03:00,2025-04-20T21:57:49.637+03:00,1517,1.088974,0,0,1136.478,1,4,2025-04-21T10:59:42.545+03:00,766915182.6491463,0,-47.68,100.3032,1,0.65,2025-04-21T10:59:35.766+03:00,104,1.733333333333333,2025-04-21T09:28:58.093+03:00,0.01174319131481236,0
2025-04-21T10:59:45.330+03:00,1745222379.683002,40.95358469045333,29.14095995195676,92.5589,-1,-1,-1,-1,30,23.16670695740329,-9999,13039.32402225,-0.7606964111328125,0.3458404541015625,-0.536651611328125,13039.31521425,-1.639373241913164,-0.9629644435436887,-0.35893566453616,-0.0189319085329771,-0.0165011752396822,0.02036922238767147,0.009723901748657227,-0.008107662200927734,0.002086222171783447,XArbitraryZVertical,-0.4410247614652628,-0.1953203914614301,-0.5810123042634259,0.6555697975522647,-0.7685739398002625,0.3512779176235199,-0.5346941947937012,0,0,0,-1,-1,13033.96356004167,unknown,2,2025-04-21T10:59:39.965+03:00,2025-04-20T21:57:49.637+03:00,1517,1.088974,0,0,1136.478,1,4,2025-04-21T10:59:45.124+03:00,766915185.2267745,0,-47.58,100.3032,1,0.65,2025-04-21T10:59:35.766+03:00,104,1.733333333333333,2025-04-21T09:28:58.093+03:00,0.01174319131481236,0
2025-04-21T10:59:45.341+03:00,1745222379.683002,40.95358469045333,29.14095995195676,92.5589,-1,-1,-1,-1,30,23.16670695740329,-9999,13039.33409825,-0.759063720703125,0.3563232421875,-0.5412139892578125,13039.32529025,-1.639485653613989,-0.9632582139950289,-0.3592215408654684,-0.02790003828704357,-0.03153305500745773,0.01671872660517693,0.00795215368270874,-0.005705088376998901,-0.002240538597106934,XArbitraryZVertical,-0.4411974866346232,-0.1952927179103554,-0.5809233766937948,0.6555406557901375,-0.7686485052108765,0.3515455722808838,-0.5344110727310181,0,0,0,-1,-1,13033.96356004167,unknown,2,2025-04-21T10:59:39.965+03:00,2025-04-20T21:57:49.637+03:00,1517,1.088974,0,0,1136.478,1,4,2025-04-21T10:59:45.124+03:00,766915185.2267745,0,-47.58,100.3032,1,0.65,2025-04-21T10:59:35.766+03:00,104,1.733333333333333,2025-04-21T09:28:58.093+03:00,0.01174319131481236,0
2025-04-21T10:59:45.350+03:00,1745222379.683002,40.95358469045333,29.14095995195676,92.5589,-1,-1,-1,-1,30,23.16670695740329,-9999,13039.34417425,-0.758026123046875,0.3644256591796875,-0.5416107177734375,13039.33536625,-1.639609611860419,-0.9637290047573133,-0.3594358518746883,-0.01794860325753689,-0.0493120551109314,0.007702862843871117,0.009774446487426758,0.004577100276947021,-0.007207810878753662,XArbitraryZVertical,-0.4414035874651251,-0.195345326286237,-0.5808143949808759,0.6554828327611559,-0.768838107585907,0.3517462015151978,-0.5340061783790588,0,0,0,-1,-1,13033.96356004167,unknown,2,2025-04-21T10:59:39.965+03:00,2025-04-20T21:57:49.637+03:00,1517,1.088974,0,0,1136.478,1,4,2025-04-21T10:59:45.124+03:00,766915185.2267745,0,-47.58,100.3032,1,0.65,2025-04-21T10:59:35.766+03:00,104,1.733333333333333,2025-04-21T09:28:58.093+03:00,0.01174319131481236,0
2025-04-21T10:59:45.361+03:00,1745222379.683002,40.95358469045333,29.14095995195676,92.5589,-1,-1,-1,-1,30,23.16670695740329,-9999,13039.35425025,-0.7609710693359375,0.362640380859375,-0.5346527099609375,13039.34544225,-1.639727780268187,-0.9643574590819132,-0.3594506559502713,-0.008607432246208191,-0.05879196897149086,-0.007024484686553478,0.01114314794540405,0.01266565918922424,-0.008090794086456299,XArbitraryZVertical,-0.4416015719898849,-0.1955200666815628,-0.5807112358823936,0.6553888013938222,-0.7691693305969238,0.351760059595108,-0.5335199236869812,0,0,0,-1,-1,13033.96356004167,unknown,2,2025-04-21T10:59:39.965+03:00,2025-04-20T21:57:49.637+03:00,1517,1.088974,0,0,1136.478,1,4,2025-04-21T10:59:45.124+03:00,766915185.2267745,0,-47.58,100.3032,1,0.65,2025-04-21T10:59:35.766+03:00,104,1.733333333333333,2025-04-21T09:28:58.093+03:00,0.01174319131481236,0
2025-04-21T10:59:45.371+03:00,1745222379.683002,40.95358469045333,29.14095995195676,92.5589,-1,-1,-1,-1,30,23.16670695740329,-9999,13039.36432625,-0.7683258056640625,0.354644775390625,-0.5338897705078125,13039.35551825,-1.639869988351745,-0.965028603720508,-0.3593699268165431,-0.00215113116428256,-0.058884646743536,-0.01695967465639114,0.008579492568969727,0.01095592975616455,-0.001632928848266602,XArbitraryZVertical,-0.4417888263936053,-0.1957365419300008,-0.5806268115658217,0.6552726255208607,-0.7695504426956177,0.3516844809055328,-0.5330196619033813,0,0,0,-1,-1,13033.96356004167,unknown,2,2025-04-21T10:59:39.965+03:00,2025-04-20T21:57:49.637+03:00,1517,1.088974,0,0,1136.478,1,4,2025-04-21T10:59:45.124+03:00,766915185.2267745,0,-47.58,100.3032,1,0.65,2025-04-21T10:59:35.766+03:00,104,1.733333333333333,2025-04-21T09:28:58.093+03:00,0.01174319131481236,0
2025-04-21T10:59:45.381+03:00,1745222379.683002,40.95358469045333,29.14095995195676,92.5589,-1,-1,-1,-1,30,23.16670695740329,-9999,13039.37440225,-0.7767486572265625,0.3462982177734375,-0.5305023193359375,13039.36559425,-1.640060139394608,-0.9656071373621632,-0.359261434028161,-0.01360225770622492,-0.04726108536124229,-0.02077148854732513,0.001564383506774902,0.003061920404434204,-0.001293599605560303,XArbitraryZVertical,-0.4419464250389008,-0.19592170080671,-0.5805844719540048,0.6551485398654497,-0.7698900699615479,0.3515829145908356,-0.5325961112976074,0,0,0,-1,-1,13033.96356004167,unknown,2,2025-04-21T10:59:39.965+03:00,2025-04-20T21:57:49.637+03:00,1517,1.088974,0,0,1136.478,1,4,2025-04-21T10:59:45.124+03:00,766915185.2267745,0,-47.58,100.3032,1,0.65,2025-04-21T10:59:35.766+03:00,104,1.733333333333333,2025-04-21T09:28:58.093+03:00,0.01174319131481236,0
2025-04-21T10:59:45.391+03:00,1745222379.683002,40.95358469045333,29.14095995195676,92.5589,-1,-1,-1,-1,30,23.16670695740329,-9999,13039.38447825,-0.7758941650390625,0.343505859375,-0.5265350341796875,13039.37567025,-1.640263583484234,-0.9660666050667839,-0.359176756792505,-0.009619234129786491,-0.03691044449806213,-0.01661296188831329,-0.006589353084564209,-0.005205422639846802,0.001756966114044189,XArbitraryZVertical,-0.4420771403606833,-0.1960566077192151,-0.5805676579682015,0.6550348814222418,-0.7701591849327087,0.3515036404132843,-0.5322592258453369,0,0,0,-1,-1,13033.96356004167,unknown,2,2025-04-21T10:59:39.965+03:00,2025-04-20T21:57:49.637+03:00,1517,1.088974,0,0,1136.478,1,4,2025-04-21T10:59:45.124+03:00,766915185.2267745,0,-47.58,100.3032,1,0.65,2025-04-21T10:59:35.766+03:00,104,1.733333333333333,2025-04-21T09:28:58.093+03:00,0.01174319131481236,0
2025-04-21T10:59:45.401+03:00,1745222379.683002,40.95358469045333,29.14095995195676,92.5589,-1,-1,-1,-1,30,23.16670695740329,-9999,13039.39455425,-0.772705078125,0.3442535400390625,-0.52728271484375,13039.38574625,-1.640389291329452,-0.9663984509028464,-0.359098646489429,-0.004230061545968056,-0.02387906238436699,-0.01065600477159023,-0.005535721778869629,-0.007924586534500122,0.005484223365783691,XArbitraryZVertical,-0.4421649485844231,-0.1961645952067189,-0.5805521663029298,0.6549570241308557,-0.7703583836555481,0.3514305055141449,-0.5320191979408264,0,0,0,-1,-1,13033.96356004167,unknown,2,2025-04-21T10:59:39.965+03:00,2025-04-20T21:57:49.637+03:00,1517,1.088974,0,0,1136.478,1,4,2025-04-21T10:59:45.124+03:00,766915185.2267745,0,-47.58,100.3032,1,0.65,2025-04-21T10:59:35.766+03:00,104,1.733333333333333,2025-04-21T09:28:58.093+03:00,0.01174319131481236,0
2025-04-21T10:59:45.411+03:00,1745222379.683002,40.95358469045333,29.14095995195676,92.5589,-1,-1,-1,-1,30,23.16670695740329,-9999,13039.40463025,-0.7705841064453125,0.3459930419921875,-0.526458740234375,13039.39582225,-1.640410375410903,-0.966576615516867,-0.3590429124482502,0.003119996748864651,-0.01614417880773544,-6.556103471666574e-06,-0.002235710620880127,-0.007124722003936768,0.004610419273376465,XArbitraryZVertical,-0.4422038467649194,-0.1962376219943404,-0.5805316073151646,0.654927162358847,-0.7704693078994751,0.3513783514499664,-0.5318931341171265,0,0,0,-1,-1,13033.96356004167,unknown,2,2025-04-21T10:59:39.965+03:00,2025-04-20T21:57:49.637+03:00,1517,1.088974,0,0,1136.478,1,4,2025-04-21T10:59:45.124+03:00,766915185.2267745,0,-47.58,100.3032,1,0.65,2025-04-21T10:59:35.766+03:00,104,1.733333333333333,2025-04-21T09:28:58.093+03:00,0.01174319131481236,0
2025-04-21T10:59:45.421+03:00,1745222379.683002,40.95358469045333,29.14095995195676,92.5589,-1,-1,-1,-1,30,23.16670695740329,-9999,13039.41470625,-0.7691192626953125,0.3460540771484375,-0.52532958984375,13039.40589825,-1.640336972525839,-0.9666332133142372,-0.3590651400838175,-0.0003941106842830777,-0.009406447410583496,0.01009238418191671,-9.107589721679688e-05,-0.005406081676483154,0.0053863525390625,XArbitraryZVertical,-0.4422190033223309,-0.1962646749829669,-0.5804903037233636,0.6549454277962273,-0.7704929709434509,0.351399153470993,-0.5318450331687927,0,0,0,-1,-1,13033.96356004167,unknown,2,2025-04-21T10:59:39.965+03:00,2025-04-20T21:57:49.637+03:00,1517,1.088974,0,0,1136.478,1,4,2025-04-21T10:59:45.124+03:00,766915185.2267745,0,-47.58,100.3032,1,0.65,2025-04-21T10:59:35.766+03:00,104,1.733333333333333,2025-04-21T09:28:58.093+03:00,0.01174319131481236,0
2025-04-21T10:59:45.432+03:00,1745222379.683002,40.95358469045333,29.14095995195676,92.5589,-1,-1,-1,-1,30,23.16670695740329,-9999,13039.42478225,-0.77020263671875,0.3458251953125,-0.5268707275390625,13039.41597425,-1.640265239815794,-0.9666254976834728,-0.3592040434669717,-0.005115895066410303,-0.00518959853798151,0.01247324980795383,0.001329541206359863,-0.005475074052810669,0.006493747234344482,XArbitraryZVertical,-0.4422467692142562,-0.1962298414780125,-0.5804388380785737,0.6549827734960938,-0.7704487442970276,0.3515291810035706,-0.5318232774734497,0,0,0,-1,-1,13033.96356004167,unknown,2,2025-04-21T10:59:39.965+03:00,2025-04-20T21:57:49.637+03:00,1517,1.088974,0,0,1136.478,1,4,2025-04-21T10:59:45.124+03:00,766915185.2267745,0,-47.58,100.3032,1,0.65,2025-04-21T10:59:35.766+03:00,104,1.733333333333333,2025-04-21T09:28:58.093+03:00,0.01174319131481236,0
2025-04-21T10:59:45.441+03:00,1745222379.683002,40.95358469045333,29.14095995195676,92.5589,-1,-1,-1,-1,30,23.16670695740329,-9999,13039.43485825,-0.7746124267578125,0.348480224609375,-0.52886962890625,13039.42605025,-1.640242548524187,-0.966573411829069,-0.3594007442466443,-0.008177531883120537,0.003321797354146838,0.01090634614229202,0.0001614689826965332,-0.005888104438781738,0.004953384399414062,XArbitraryZVertical,-0.4422819574255074,-0.1961495354669173,-0.5804008229399903,0.6550165820482846,-0.7703640460968018,0.3517133295536041,-0.5318240523338318,0,0,0,-1,-1,13033.96356004167,unknown,2,2025-04-21T10:59:39.965+03:00,2025-04-20T21:57:49.637+03:00,1517,1.088974,0,0,1136.478,1,4,2025-04-21T10:59:45.124+03:00,766915185.2267745,0,-47.58,100.3032,1,0.65,2025-04-21T10:59:35.766+03:00,104,1.733333333333333,2025-04-21T09:28:58.093+03:00,0.01174319131481236,0
2025-04-21T10:59:45.452+03:00,1745222379.683002,40.95358469045333,29.14095995195676,92.5589,-1,-1,-1,-1,30,23.16670695740329,-9999,13039.44493425,-0.774200439453125,0.352783203125,-0.530487060546875,13039.43612625,-1.64023308112701,-0.9664696442115736,-0.3595722888834427,-0.005805188324302435,0.00797194242477417,0.01034495141357183,-0.004353165626525879,-0.003393620252609253,0.003000140190124512,XArbitraryZVertical,-0.4422966723347364,-0.196058146354747,-0.5803839986303767,0.6550489362965578,-0.7702592015266418,0.351873904466629,-0.5318697094917297,0,0,0,-1,-1,13033.96356004167,unknown,2,2025-04-21T10:59:39.965+03:00,2025-04-20T21:57:49.637+03:00,1517,1.088974,0,0,1136.478,1,4,2025-04-21T10:59:45.124+03:00,766915185.2267745,0,-47.58,100.3032,1,0.65,2025-04-21T10:59:35.766+03:00,104,1.733333333333333,2025-04-21T09:28:58.093+03:00,0.01174319131481236,0
2025-04-21T10:59:45.462+03:00,1745222379.683002,40.95358469045333,29.14095995195676,92.5589,-1,-1,-1,-1,30,23.16670695740329,-9999,13039.45501025,-0.7688446044921875,0.3568878173828125,-0.5362701416015625,13039.44620225,-1.640192163126777,-0.9663811868580137,-0.3596398541546629,0.004233131650835276,-0.0001817899756133556,0.002272677142173052,-0.00400775671005249,0.0008460581302642822,0.001437366008758545,XArbitraryZVertical,-0.4422850062918936,-0.1960147939613102,-0.5803757217224157,0.6550771537216675,-0.770192563533783,0.3519371449947357,-0.5319243669509888,0,0,0,-1,-1,13033.96356004167,unknown,2,2025-04-21T10:59:39.965+03:00,2025-04-20T21:57:49.637+03:00,1517,1.088974,0,0,1136.478,1,4,2025-04-21T10:59:45.124+03:00,766915185.2267745,0,-47.58,100.3032,1,0.65,2025-04-21T10:59:35.766+03:00,104,1.733333333333333,2025-04-21T09:28:58.093+03:00,0.01174319131481236,0
2025-04-21T10:59:45.472+03:00,1745222379.683002,40.95358469045333,29.14095995195676,92.5589,-1,-1,-1,-1,30,23.16670695740329,-9999,13039.46508725,-0.7643585205078125,0.357818603515625,-0.53875732421875,13039.45627825,-1.640113976629119,-0.9664122396330862,-0.3595769563286103,0.01259279437363148,-0.00957928691059351,6.544910138472915e-05,0.001382768154144287,0.005009591579437256,-0.004357099533081055,XArbitraryZVertical,-0.4422695654760235,-0.196064077793139,-0.5803567008218034,0.6550897059666971,-0.770227313041687,0.35187828540802,-0.5319130420684814,0,0,0,-1,-1,13033.96356004167,unknown,2,2025-04-21T10:59:39.965+03:00,2025-04-20T21:57:49.637+03:00,1517,1.088974,0,0,1136.478,1,4,2025-04-21T10:59:45.124+03:00,766915185.2267745,0,-47.58,100.3032,1,0.65,2025-04-21T10:59:35.766+03:00,104,1.733333333333333,2025-04-21T09:28:58.093+03:00,0.01174319131481236,0
2025-04-21T10:59:45.482+03:00,1745222379.683002,40.95358469045333,29.14095995195676,92.5589,-1,-1,-1,-1,30,23.16670695740329,-9999,13039.47516325,-0.765869140625,0.3553314208984375,-0.54034423828125,13039.46635525,-1.640008021521994,-0.9665058458446404,-0.3594530595079773,0.0157233402132988,-0.01155508495867252,-0.002825811738148332,0.005954504013061523,0.006056338548660278,-0.006891608238220215,XArbitraryZVertical,-0.4422532852694442,-0.1961611380704301,-0.5803277836651927,0.655097245216989,-0.7703129649162292,0.3517622947692871,-0.531865656375885,0,0,0,-1,-1,13033.96356004167,unknown,2,2025-04-21T10:59:39.965+03:00,2025-04-20T21:57:49.637+03:00,1517,1.088974,0,0,1136.478,1,4,2025-04-21T10:59:45.124+03:00,766915185.2267745,0,-47.58,100.3032,1,0.65,2025-04-21T10:59:35.766+03:00,104,1.733333333333333,2025-04-21T09:28:58.093+03:00,0.01174319131481236,0
2025-04-21T10:59:45.495+03:00,1745222379.683002,40.95358469045333,29.14095995195676,92.5589,-1,-1,-1,-1,30,23.16670695740329,-9999,13039.48523925,-0.767120361328125,0.3522796630859375,-0.534210205078125,13039.47643125,-1.639875560296967,-0.9666351412471309,-0.3593135489611627,0.01644079573452473,-0.01927851885557175,-0.002791989594697952,0.004553020000457764,0.003699749708175659,-0.008550286293029785,XArbitraryZVertical,-0.4422405878613365,-0.1962811573642517,-0.580285627621588,0.6551071838127231,-0.770422101020813,0.3516317009925842,-0.5317939519882202,0,0,0,-1,-1,13033.96356004167,unknown,2,2025-04-21T10:59:39.965+03:00,2025-04-20T21:57:49.637+03:00,1517,1.088974,0,0,1136.478,1,4,2025-04-21T10:59:45.124+03:00,766915185.2267745,0,-47.58,100.3032,1,0.65,2025-04-21T10:59:35.766+03:00,104,1.733333333333333,2025-04-21T09:28:58.093+03:00,0.01174319131481236,0
2025-04-21T10:59:45.509+03:00,1745222379.683002,40.95358469045333,29.14095995195676,92.5589,-1,-1,-1,-1,30,23.16670695740329,-9999,13039.49531525,-0.7662506103515625,0.348724365234375,-0.5252227783203125,13039.48650725,-1.639782670907231,-0.966853879986177,-0.3591814314497928,0.01207214687019587,-0.02664509043097496,-0.008899150416254997,0.003456354141235352,0.0007717013359069824,-0.002558350563049316,XArbitraryZVertical,-0.4422596759102196,-0.1964191621107571,-0.5802350834610032,0.65509770507776,-0.7705766558647156,0.3515080213546753,-0.5316517949104309,0,0,0,-1,-1,13033.96356004167,unknown,2,2025-04-21T10:59:39.965+03:00,2025-04-20T21:57:49.637+03:00,1517,1.088974,0,0,1136.478,1,4,2025-04-21T10:59:45.124+03:00,766915185.2267745,0,-47.58,100.3032,1,0.65,2025-04-21T10:59:35.766+03:00,104,1.733333333333333,2025-04-21T09:28:58.093+03:00,0.01174319131481236,0
2025-04-21T10:59:45.512+03:00,1745222379.683002,40.95358469045333,29.14095995195676,92.5589,-1,-1,-1,-1,30,23.16670695740329,-9999,13039.50539125,-0.7703399658203125,0.3460540771484375,-0.5247802734375,13039.49658325,-1.639752510870528,-0.9671083934372905,-0.3590181619476234,0.009853733703494072,-0.02256379462778568,-0.01464172545820475,0.004508554935455322,-0.002630740404129028,0.006265461444854736,XArbitraryZVertical,-0.4422869576965438,-0.1965658271427966,-0.5802038577934344,0.6550630273679774,-0.7707592248916626,0.3513551652431488,-0.5314882397651672,0,0,0,-1,-1,13033.96356004167,unknown,2,2025-04-21T10:59:39.965+03:00,2025-04-20T21:57:49.637+03:00,1517,1.088974,0,0,1136.478,1,4,2025-04-21T10:59:45.124+03:00,766915185.2267745,0,-47.58,100.3032,1,0.65,2025-04-21T10:59:35.766+03:00,104,1.733333333333333,2025-04-21T09:28:58.093+03:00,0.01174319131481236,0
2025-04-21T10:59:45.522+03:00,1745222379.683002,40.95358469045333,29.14095995195676,92.5589,-1,-1,-1,-1,30,23.16670695740329,-9999,13039.51546725,-0.772613525390625,0.34613037109375,-0.5319671630859375,13039.50665925,-1.639722237088201,-0.967271403698819,-0.3588262354267576,0.01677342504262924,-0.009845070540904999,-0.009118595160543919,0.0005614757537841797,-0.005121350288391113,0.006620645523071289,XArbitraryZVertical,-0.4422800507018896,-0.196692461822271,-0.5801989404178242,0.6550340483124885,-0.7709013819694519,0.351175457239151,-0.5314008593559265,0,0,0,-1,-1,13033.96356004167,unknown,2,2025-04-21T10:59:39.965+03:00,2025-04-20T21:57:49.637+03:00,1517,1.088974,0,0,1136.478,1,4,2025-04-21T10:59:45.124+03:00,766915185.2267745,0,-47.58,100.3032,1,0.65,2025-04-21T10:59:35.766+03:00,104,1.733333333333333,2025-04-21T09:28:58.093+03:00,0.01174319131481236,0
2025-04-21T10:59:45.532+03:00,1745222379.683002,40.95358469045333,29.14095995195676,92.5589,-1,-1,-1,-1,30,23.16670695740329,-9999,13039.52554325,-0.7711029052734375,0.350067138671875,-0.5311279296875,13039.51673525,-1.639592795222543,-0.9672981882709545,-0.3586488834684284,0.02463347837328911,-0.003921400755643845,-0.002009286545217037,-0.001646578311920166,-0.004878997802734375,-0.0005515813827514648,XArbitraryZVertical,-0.4422277429523847,-0.1967913565435118,-0.5801885592884011,0.655048900649375,-0.7709668874740601,0.3510093986988068,-0.531415581703186,0,0,0,-1,-1,13033.96356004167,unknown,2,2025-04-21T10:59:39.965+03:00,2025-04-20T21:57:49.637+03:00,1517,1.088974,0,0,1136.478,1,4,2025-04-21T10:59:45.124+03:00,766915185.2267745,0,-47.58,100.3032,1,0.65,2025-04-21T10:59:35.766+03:00,104,1.733333333333333,2025-04-21T09:28:58.093+03:00,0.01174319131481236,0
2025-04-21T10:59:45.542+03:00,1745222379.683002,40.95358469045333,29.14095995195676,92.5589,-1,-1,-1,-1,30,23.16670695740329,-9999,13039.53561925,-0.76654052734375,0.349822998046875,-0.5289764404296875,13039.52681125,-1.639331588797736,-0.9672618339521382,-0.3584828132586043,0.03195291012525558,-0.002870517782866955,0.00308227795176208,-0.0001073479652404785,-0.0007866919040679932,0.0003487467765808105,XArbitraryZVertical,-0.442147191493769,-0.1968947488256178,-0.5801465224018556,0.6551093356367131,-0.7709954977035522,0.3508538901805878,-0.531476616859436,0,0,0,-1,-1,13033.96356004167,unknown,2,2025-04-21T10:59:39.965+03:00,2025-04-20T21:57:49.637+03:00,1517,1.088974,0,0,1136.478,1,4,2025-04-21T10:59:45.124+03:00,766915185.2267745,0,-47.58,100.3032,1,0.65,2025-04-21T10:59:35.766+03:00,104,1.733333333333333,2025-04-21T09:28:58.093+03:00,0.01174319131481236,0
2025-04-21T10:59:45.552+03:00,1745222379.683002,40.95358469045333,29.14095995195676,92.5589,-1,-1,-1,-1,30,23.16670695740329,-9999,13039.54569525,-0.7657012939453125,0.3477630615234375,-0.5290679931640625,13039.53688725,-1.63903374587993,-0.9671574349700128,-0.3583706116724275,0.02646173723042011,-0.001785279717296362,0.00450547132641077,0.004431962966918945,-0.0009258091449737549,0.002603054046630859,XArbitraryZVertical,-0.4420576069059743,-0.1969652944129238,-0.5800960392720029,0.6551933415900587,-0.7709724307060242,0.3507488369941711,-0.5315794944763184,0,0,0,-1,-1,13033.96356004167,unknown,2,2025-04-21T10:59:39.965+03:00,2025-04-20T21:57:49.637+03:00,1517,1.088974,0,0,1136.478,1,4,2025-04-21T10:59:45.124+03:00,766915185.2267745,0,-47.58,100.3032,1,0.65,2025-04-21T10:59:35.766+03:00,104,1.733333333333333,2025-04-21T09:28:58.093+03:00,0.01174319131481236,0
2025-04-21T10:59:45.562+03:00,1745222379.683002,40.95358469045333,29.14095995195676,92.5589,-1,-1,-1,-1,30,23.16670695740329,-9999,13039.55577125,-0.76593017578125,0.3432769775390625,-0.52972412109375,13039.54696325,-1.638803815262017,-0.9670385474672188,-0.3583306553405126,0.01686090789735317,0.0009770840406417847,0.00694259675219655,0.005219519138336182,-0.002948284149169922,0.002611160278320312,XArbitraryZVertical,-0.4419898282168862,-0.1969909967104061,-0.5800555107256194,0.6552671557400868,-0.7709207534790039,0.3507114052772522,-0.531679093837738,0,0,0,-1,-1,13033.96356004167,unknown,2,2025-04-21T10:59:39.965+03:00,2025-04-20T21:57:49.637+03:00,1517,1.088974,0,0,1136.478,1,4,2025-04-21T10:59:45.124+03:00,766915185.2267745,0,-47.58,100.3032,1,0.65,2025-04-21T10:59:35.766+03:00,104,1.733333333333333,2025-04-21T09:28:58.093+03:00,0.01174319131481236,0
2025-04-21T10:59:45.572+03:00,1745222379.683002,40.95358469045333,29.14095995195676,92.5589,-1,-1,-1,-1,30,23.16670695740329,-9999,13039.56584725,-0.76641845703125,0.341461181640625,-0.527435302734375,13039.55703925,-1.638645747306474,-0.9669538354410674,-0.3583364593826136,0.007374197244644165,-0.005282675847411156,0.005703427828848362,0.004943907260894775,-0.007439792156219482,0.002019166946411133,XArbitraryZVertical,-0.4419512263911092,-0.1969961711036835,-0.5800212128299944,0.6553220420725208,-0.7708740234375,0.3507168292999268,-0.5317432284355164,0,0,0,-1,-1,13033.96356004167,unknown,2,2025-04-21T10:59:39.965+03:00,2025-04-20T21:57:49.637+03:00,1517,1.088974,0,0,1136.478,1,4,2025-04-21T10:59:45.124+03:00,766915185.2267745,0,-47.58,100.3032,1,0.65,2025-04-21T10:59:35.766+03:00,104,1.733333333333333,2025-04-21T09:28:58.093+03:00,0.01174319131481236,0
2025-04-21T10:59:45.582+03:00,1745222379.683002,40.95358469045333,29.14095995195676,92.5589,-1,-1,-1,-1,30,23.16670695740329,-9999,13039.57592325,-0.7653045654296875,0.3462677001953125,-0.5226898193359375,13039.56711525,-1.638589463488565,-0.9669977183060463,-0.3583971821693137,-0.005556847900152206,-0.01361843664199114,0.007277988363057375,0.004461467266082764,-0.009312450885772705,0.004262089729309082,XArbitraryZVertical,-0.4419746152172934,-0.1970019535957272,-0.5799801034797718,0.6553409587558282,-0.770879864692688,0.3507737219333649,-0.5316973328590393,0,0,0,-1,-1,13033.96356004167,unknown,2,2025-04-21T10:59:39.965+03:00,2025-04-20T21:57:49.637+03:00,1517,1.088974,0,0,1136.478,1,4,2025-04-21T10:59:45.124+03:00,766915185.2267745,0,-47.58,100.3032,1,0.65,2025-04-21T10:59:35.766+03:00,104,1.733333333333333,2025-04-21T09:28:58.093+03:00,0.01174319131481236,0
2025-04-21T10:59:45.593+03:00,1745222379.683002,40.95358469045333,29.14095995195676,92.5589,-1,-1,-1,-1,30,23.16670695740329,-9999,13039.58599925,-0.7672271728515625,0.345489501953125,-0.523956298828125,13039.57719125,-1.638669123049295,-0.9671620513296389,-0.3585251822873811,-0.02284529060125351,-0.01390286255627871,0.005541075021028519,0.005625724792480469,-0.004625827074050903,0.008855342864990234,XArbitraryZVertical,-0.4420643318598124,-0.1969938134331057,-0.5799424914787569,0.655316090475165,-0.7709302306175232,0.3508935868740082,-0.531545102596283,0,0,0,-1,-1,13033.96356004167,unknown,2,2025-04-21T10:59:39.965+03:00,2025-04-20T21:57:49.637+03:00,1517,1.088974,0,0,1136.478,1,4,2025-04-21T10:59:45.124+03:00,766915185.2267745,0,-47.58,100.3032,1,0.65,2025-04-21T10:59:35.766+03:00,104,1.733333333333333,2025-04-21T09:28:58.093+03:00,0.01174319131481236,0
2025-04-21T10:59:45.602+03:00,1745222379.683002,40.95358469045333,29.14095995195676,92.5589,-1,-1,-1,-1,30,23.16670695740329,-9999,13039.59607525,-0.7701568603515625,0.3429107666015625,-0.5275115966796875,13039.58726725,-1.638907314152986,-0.9674108389132565,-0.3587065081270314,-0.03098011575639248,-0.01371850538998842,0.001852230401709676,0.003782927989959717,-0.005573809146881104,0.007360935211181641,XArbitraryZVertical,-0.442208349391684,-0.1969598271480067,-0.5799267562555049,0.6552430682470806,-0.7710100412368774,0.3510633707046509,-0.5313172340393066,0,0,0,-1,-1,13033.96356004167,unknown,2,2025-04-21T10:59:39.965+03:00,2025-04-20T21:57:49.637+03:00,1517,1.088974,0,0,1136.478,1,4,2025-04-21T10:59:45.124+03:00,766915185.2267745,0,-47.58,100.3032,1,0.65,2025-04-21T10:59:35.766+03:00,104,1.733333333333333,2025-04-21T09:28:58.093+03:00,0.01174319131481236,0
2025-04-21T10:59:45.613+03:00,1745222379.683002,40.95358469045333,29.14095995195676,92.5589,-1,-1,-1,-1,30,23.16670695740329,-9999,13039.60615125,-0.7734527587890625,0.348663330078125,-0.531829833984375,13039.59734325,-1.639106505968742,-0.9676003597034796,-0.3588567491059834,-0.01812370494008064,-0.009525890462100506,0.00286529678851366,0.0009104609489440918,-0.008293241262435913,0.003629565238952637,XArbitraryZVertical,-0.4423230320246769,-0.196925788261012,-0.5799179603247299,0.6551836546775371,-0.7710672616958618,0.3512040376663208,-0.5311411619186401,0,0,0,-1,-1,13033.96356004167,unknown,2,2025-04-21T10:59:39.965+03:00,2025-04-20T21:57:49.637+03:00,1517,1.088974,0,0,1136.478,1,4,2025-04-21T10:59:45.124+03:00,766915185.2267745,0,-47.58,100.3032,1,0.65,2025-04-21T10:59:35.766+03:00,104,1.733333333333333,2025-04-21T09:28:58.093+03:00,0.01174319131481236,0
2025-04-21T10:59:45.623+03:00,1745222379.683002,40.95358469045333,29.14095995195676,92.5589,-1,-1,-1,-1,30,23.16670695740329,-9999,13039.61622725,-0.77294921875,0.3597412109375,-0.531982421875,13039.60741925,-1.639145354202437,-0.9676847375022358,-0.3589192869716866,0.004242985043674707,-0.004517150111496449,0.004751680418848991,-0.002358734607696533,-0.002599209547042847,-0.0007661581039428711,XArbitraryZVertical,-0.4423680138479519,-0.1969231610789641,-0.5798986464188737,0.6551711729088281,-0.7710939645767212,0.3512625992298126,-0.5310636162757874,0,0,0,-1,-1,13033.96356004167,unknown,2,2025-04-21T10:59:39.965+03:00,2025-04-20T21:57:49.637+03:00,1517,1.088974,0,0,1136.478,1,4,2025-04-21T10:59:45.124+03:00,766915185.2267745,0,-47.58,100.3032,1,0.65,2025-04-21T10:59:35.766+03:00,104,1.733333333333333,2025-04-21T09:28:58.093+03:00,0.01174319131481236,0
2025-04-21T10:59:45.633+03:00,1745222379.683002,40.95358469045333,29.14095995195676,92.5589,-1,-1,-1,-1,30,23.16670695740329,-9999,13039.62630425,-0.7699432373046875,0.358673095703125,-0.5328216552734375,13039.61749525,-1.639000801668238,-0.967652923134645,-0.3588928764703237,0.0198160856962204,0.001922905910760164,0.003990282770246267,-0.001864433288574219,0.008503377437591553,-0.0008889436721801758,XArbitraryZVertical,-0.4423374974446364,-0.1969538711292599,-0.5798639864266807,0.655213249222243,-0.771084725856781,0.3512378633022308,-0.531093418598175,0,0,0,-1,-1,13033.96356004167,unknown,2,2025-04-21T10:59:39.965+03:00,2025-04-20T21:57:49.637+03:00,1517,1.088974,0,0,1136.478,1,4,2025-04-21T10:59:45.124+03:00,766915185.2267745,0,-47.58,100.3032,1,0.65,2025-04-21T10:59:35.766+03:00,104,1.733333333333333,2025-04-21T09:28:58.093+03:00,0.01174319131481236,0
2025-04-21T10:59:45.643+03:00,1745222379.683002,40.95358469045333,29.14095995195676,92.5589,-1,-1,-1,-1,30,23.16670695740329,-9999,13039.63638025,-0.766082763671875,0.35064697265625,-0.5337371826171875,13039.62757225,-1.638800605984985,-0.967557071249207,-0.358790706069735,0.02027834393084049,0.002519919769838452,0.0004619605024345219,0.001120209693908691,0.00753098726272583,-0.001633942127227783,XArbitraryZVertical,-0.4422627099054517,-0.1970021565154278,-0.5798414583279872,0.6552691693139846,-0.7710633873939514,0.3511421978473663,-0.5311877131462097,0,0,0,-1,-1,13033.96356004167,unknown,2,2025-04-21T10:59:39.965+03:00,2025-04-20T21:57:49.637+03:00,1517,1.088974,0,0,1136.478,1,4,2025-04-21T10:59:45.124+03:00,766915185.2267745,0,-47.58,100.3032,1,0.65,2025-04-21T10:59:35.766+03:00,104,1.733333333333333,2025-04-21T09:28:58.093+03:00,0.01174319131481236,0
2025-04-21T10:59:45.653+03:00,1745222379.683002,40.95358469045333,29.14095995195676,92.5589,-1,-1,-1,-1,30,23.16670695740329,-9999,13039.64645625,-0.763275146484375,0.340972900390625,-0.5322113037109375,13039.63764825,-1.638620127936314,-0.9674642983892837,-0.3586500036084084,0.01834382303059101,0.002277838299050927,-0.001604386139661074,0.00497204065322876,-0.0003634095191955566,-0.002449870109558105,XArbitraryZVertical,-0.4421804669635314,-0.1970604256383428,-0.5798329339844325,0.6553146827535749,-0.7710548043251038,0.3510104417800903,-0.5312872529029846,0,0,0,-1,-1,13033.96356004167,unknown,2,2025-04-21T10:59:39.965+03:00,2025-04-20T21:57:49.637+03:00,1517,1.088974,0,0,1136.478,1,4,2025-04-21T10:59:45.124+03:00,766915185.2267745,0,-47.58,100.3032,1,0.65,2025-04-21T10:59:35.766+03:00,104,1.733333333333333,2025-04-21T09:28:58.093+03:00,0.01174319131481236,0
2025-04-21T10:59:45.664+03:00,1745222379.683002,40.95358469045333,29.14095995195676,92.5589,-1,-1,-1,-1,30,23.16670695740329,-9999,13039.65653225,-0.7691497802734375,0.3370513916015625,-0.53173828125,13039.64772425,-1.638512631853559,-0.9674379138155031,-0.358555726503797,0.007324928417801857,0.001346198376268148,0.002812299877405167,0.007792890071868896,-0.009949207305908203,-0.0008848905563354492,XArbitraryZVertical,-0.4421370581510941,-0.1971082085880276,-0.5798237004323721,0.6553377357238556,-0.7710679769515991,0.350922167301178,-0.5313263535499573,0,0,0,-1,-1,13033.96356004167,unknown,2,2025-04-21T10:59:39.965+03:00,2025-04-20T21:57:49.637+03:00,1517,1.088974,0,0,1136.478,1,4,2025-04-21T10:59:45.124+03:00,766915185.2267745,0,-47.58,100.3032,1,0.65,2025-04-21T10:59:35.766+03:00,104,1.733333333333333,2025-04-21T09:28:58.093+03:00,0.01174319131481236,0
2025-04-21T10:59:45.673+03:00,1745222379.683002,40.95358469045333,29.14095995195676,92.5589,-1,-1,-1,-1,30,23.16670695740329,-9999,13039.66660825,-0.7716064453125,0.3396148681640625,-0.533935546875,13039.65780025,-1.638461831416717,-0.9674806809929788,-0.3586109750206263,-0.005130942445248365,-0.008457163348793983,0.01245320960879326,0.001924991607666016,-0.01392245292663574,-0.0004558563232421875,XArbitraryZVertical,-0.4421592317542324,-0.1971142880701578,-0.5797857581836074,0.6553544312595003,-0.7710747122764587,0.350973904132843,-0.531282365322113,0,0,0,-1,-1,13033.96356004167,unknown,2,2025-04-21T10:59:39.965+03:00,2025-04-20T21:57:49.637+03:00,1517,1.088974,0,0,1136.478,1,4,2025-04-21T10:59:45.124+03:00,766915185.2267745,0,-47.58,100.3032,1,0.65,2025-04-21T10:59:35.766+03:00,104,1.733333333333333,2025-04-21T09:28:58.093+03:00,0.01174319131481236,0
2025-04-21T10:59:45.683+03:00,1745222379.683002,40.95358469045333,29.14095995195676,92.5589,-1,-1,-1,-1,30,23.16670695740329,-9999,13039.67668425,-0.771575927734375,0.3394317626953125,-0.538604736328125,13039.66787625,-1.638455238097991,-0.9676270760836647,-0.3587593857176196,-0.01430166978389025,-0.01777756214141846,0.01452361792325974,-0.0004967451095581055,-0.01149797439575195,-0.002795577049255371,XArbitraryZVertical,-0.4422406275967216,-0.1971123065036678,-0.5797195028284988,0.6553587978961132,-0.7711095809936523,0.3511128723621368,-0.5311399102210999,0,0,0,-1,-1,13033.96356004167,unknown,2,2025-04-21T10:59:39.965+03:00,2025-04-20T21:57:49.637+03:00,1517,1.088974,0,0,1136.478,1,4,2025-04-21T10:59:45.124+03:00,766915185.2267745,0,-47.58,100.3032,1,0.65,2025-04-21T10:59:35.766+03:00,104,1.733333333333333,2025-04-21T09:28:58.093+03:00,0.01174319131481236,0
2025-04-21T10:59:45.693+03:00,1745222379.683002,40.95358469045333,29.14095995195676,92.5589,-1,-1,-1,-1,30,23.16670695740329,-9999,13039.68676025,-0.7735137939453125,0.3361053466796875,-0.536712646484375,13039.67795225,-1.638541608740736,-0.9679154275955133,-0.3589987790099291,-0.03063377365469933,-0.02797054499387741,0.01704350113868713,-0.0003823637962341309,-0.01190522313117981,-0.007734775543212891,XArbitraryZVertical,-0.4423966560779404,-0.197104717119254,-0.5796327865576316,0.6553324061208208,-0.7711934447288513,0.3513370156288147,-0.5308698415756226,0,0,0,-1,-1,13033.96356004167,unknown,2,2025-04-21T10:59:39.965+03:00,2025-04-20T21:57:49.637+03:00,1517,1.088974,0,0,1136.478,1,4,2025-04-21T10:59:45.124+03:00,766915185.2267745,0,-47.58,100.3032,1,0.65,2025-04-21T10:59:35.766+03:00,104,1.733333333333333,2025-04-21T09:28:58.093+03:00,0.01174319131481236,0
2025-04-21T10:59:45.704+03:00,1745222379.683002,40.95358469045333,29.14095995195676,92.5589,-1,-1,-1,-1,30,23.16670695740329,-9999,13039.69683625,-0.772552490234375,0.3395538330078125,-0.5357513427734375,13039.68802825,-1.638816543063753,-0.9683297300260397,-0.3593291678596633,-0.05016546323895454,-0.03383515775203705,0.01130462158471346,-0.002196073532104492,-0.0155409574508667,-0.006228029727935791,XArbitraryZVertical,-0.4426320003939438,-0.1970651312702174,-0.5795604719000005,0.6552493321993029,-0.7713176012039185,0.3516463339328766,-0.5304844975471497,0,0,0,-1,-1,13033.96356004167,unknown,2,2025-04-21T10:59:39.965+03:00,2025-04-20T21:57:49.637+03:00,1517,1.088974,0,0,1136.478,1,4,2025-04-21T10:59:45.124+03:00,766915185.2267745,0,-47.58,100.3032,1,0.65,2025-04-21T10:59:35.766+03:00,104,1.733333333333333,2025-04-21T09:28:58.093+03:00,0.01174319131481236,0
2025-04-21T10:59:45.713+03:00,1745222379.683002,40.95358469045333,29.14095995195676,92.5589,-1,-1,-1,-1,30,23.16670695740329,-9999,13039.70691225,-0.77117919921875,0.34295654296875,-0.536529541015625,13039.69810425,-1.639294997119967,-0.9688944149356787,-0.3598105801619465,-0.06724431365728378,-0.03862698376178741,0.01054215803742409,-0.00107496976852417,-0.01254308223724365,-0.005798280239105225,XArbitraryZVertical,-0.4429711695593262,-0.1969773345677541,-0.5794890863315032,0.6551096557619553,-0.7714774012565613,0.3520969450473785,-0.5299529433250427,0,0,0,-1,-1,13033.96356004167,unknown,2,2025-04-21T10:59:39.965+03:00,2025-04-20T21:57:49.637+03:00,1517,1.088974,0,0,1136.478,1,4,2025-04-21T10:59:45.124+03:00,766915185.2267745,0,-47.58,100.3032,1,0.65,2025-04-21T10:59:35.766+03:00,104,1.733333333333333,2025-04-21T09:28:58.093+03:00,0.01174319131481236,0
2025-04-21T10:59:45.724+03:00,1745222379.683002,40.95358469045333,29.14095995195676,92.5589,-1,-1,-1,-1,30,23.16670695740329,-9999,13039.71698779167,-0.7730255126953125,0.3461151123046875,-0.546478271484375,13039.70818025,-1.639893636637021,-0.9695196595290364,-0.3603291504084037,-0.08010025322437286,-0.04524713754653931,0.00620436854660511,0.0004788637161254883,-0.009625673294067383,-0.007162332534790039,XArbitraryZVertical,-0.443349459155826,-0.1968697142067584,-0.5794355019818993,0.6549335477561868,-0.7716580033302307,0.3525822758674622,-0.5293671488761902,0,0,0,-1,-1,13033.96356004167,unknown,2,2025-04-21T10:59:39.965+03:00,2025-04-20T21:57:49.637+03:00,1517,1.088974,0,0,1136.478,1,4,2025-04-21T10:59:45.124+03:00,766915185.2267745,0,-47.58,100.3032,1,0.65,2025-04-21T10:59:35.766+03:00,104,1.733333333333333,2025-04-21T09:28:58.093+03:00,0.01174319131481236,0
2025-04-21T10:59:45.734+03:00,1745222379.683002,40.95358469045333,29.14095995195676,92.5589,-1,-1,-1,-1,30,23.16670695740329,-9999,13039.72706379167,-0.7728271484375,0.35601806640625,-0.558502197265625,13039.71825579167,-1.640528765810948,-0.9701895616313393,-0.3607861534339854,-0.06998050957918167,-0.05205896869301796,-9.001290891319513e-05,-0.00114595890045166,-0.006894737482070923,-0.01771920919418335,XArbitraryZVertical,-0.4437277457848408,-0.1967897432747552,-0.5793969011821349,0.6547355030613647,-0.7718794345855713,0.3530098795890808,-0.5287589430809021,0,0,0,-1,-1,13033.96356004167,unknown,2,2025-04-21T10:59:39.965+03:00,2025-04-20T21:57:49.637+03:00,1517,1.088974,0,0,1136.478,1,4,2025-04-21T10:59:45.124+03:00,766915185.2267745,0,-47.58,100.3032,1,0.65,2025-04-21T10:59:35.766+03:00,104,1.733333333333333,2025-04-21T09:28:58.093+03:00,0.01174319131481236,0
2025-04-21T10:59:45.744+03:00,1745222379.683002,40.95358469045333,29.14095995195676,92.5589,-1,-1,-1,-1,30,23.16670695740329,-9999,13039.73713979167,-0.7741546630859375,0.35870361328125,-0.5668487548828125,13039.72833179167,-1.641022486781158,-0.9708935449819316,-0.3610557422904043,-0.04128581658005714,-0.05667269602417946,-0.0040476368740201,-0.0006541609764099121,0.002756029367446899,-0.03034043312072754,XArbitraryZVertical,-0.4440519864415855,-0.1968171147042286,-0.5793444387340411,0.6545538834183428,-0.7721729278564453,0.3532620966434479,-0.5281617045402527,0,0,0,-1,-1,13033.96356004167,unknown,2,2025-04-21T10:59:39.965+03:00,2025-04-20T21:57:49.637+03:00,1517,1.088974,0,0,1136.478,1,4,2025-04-21T10:59:45.124+03:00,766915185.2267745,0,-47.58,100.3032,1,0.65,2025-04-21T10:59:35.766+03:00,104,1.733333333333333,2025-04-21T09:28:58.093+03:00,0.01174319131481236,0
2025-04-21T10:59:45.754+03:00,1745222379.683002,40.95358469045333,29.14095995195676,92.5589,-1,-1,-1,-1,30,23.16670695740329,-9999,13039.74721579167,-0.7787933349609375,0.361175537109375,-0.5706787109375,13039.73840779167,-1.641307132637358,-0.9715182821548706,-0.3610583542509555,-0.01007729768753052,-0.05280046164989471,-0.01986015401780605,-0.00165259838104248,0.005439132452011108,-0.0391700267791748,XArbitraryZVertical,-0.4442616491470298,-0.1969574461868707,-0.5792982992850649,0.6544102720884656,-0.7725020051002502,0.3532645404338837,-0.5276787281036377,0,0,0,-1,-1,13033.96356004167,unknown,2,2025-04-21T10:59:39.965+03:00,2025-04-20T21:57:49.637+03:00,1517,1.088974,0,0,1136.478,1,4,2025-04-21T10:59:45.124+03:00,766915185.2267745,0,-47.58,100.3032,1,0.65,2025-04-21T10:59:35.766+03:00,104,1.733333333333333,2025-04-21T09:28:58.093+03:00,0.01174319131481236,0
2025-04-21T10:59:45.764+03:00,1745222379.683002,40.95358469045333,29.14095995195676,92.5589,-1,-1,-1,-1,30,23.16670695740329,-9999,13039.75729179167,-0.7792510986328125,0.3600921630859375,-0.5671539306640625,13039.74848379167,-1.641527461712248,-0.972199662057539,-0.3608492022068991,-0.01260783337056637,-0.07282609492540359,-0.03468970209360123,-0.005870938301086426,0.008106708526611328,-0.04348486661911011,XArbitraryZVertical,-0.4444251377274118,-0.1972039355049861,-0.5792638781392389,0.6542554137587284,-0.7729223370552063,0.3530688583850861,-0.5271937847137451,0,0,0,-1,-1,13033.96356004167,unknown,2,2025-04-21T10:59:39.965+03:00,2025-04-20T21:57:49.637+03:00,1517,1.088974,0,0,1136.478,1,4,2025-04-21T10:59:45.124+03:00,766915185.2267745,0,-47.58,100.3032,1,0.65,2025-04-21T10:59:35.766+03:00,104,1.733333333333333,2025-04-21T09:28:58.093+03:00,0.01174319131481236,0
2025-04-21T10:59:45.774+03:00,1745222379.683002,40.95358469045333,29.14095995195676,92.5589,-1,-1,-1,-1,30,23.16670695740329,-9999,13039.76736779167,-0.782684326171875,0.3409576416015625,-0.549835205078125,13039.75855979167,-1.642117265655518,-0.973217432548897,-0.3606674814991334,-0.08053015917539597,-0.08905673027038574,-0.05189931765198708,-0.005739450454711914,0.00719335675239563,-0.04071086645126343,XArbitraryZVertical,-0.4447298240429955,-0.1974687184397633,-0.5792695638742634,0.6539634334615186,-0.773511528968811,0.3528988361358643,-0.5264430046081543,0,0,0,-1,-1,13033.96356004167,unknown,2,2025-04-21T10:59:39.965+03:00,2025-04-20T21:57:49.637+03:00,1517,1.088974,0,0,1136.478,1,4,2025-04-21T10:59:45.124+03:00,766915185.2267745,0,-47.58,100.3032,1,0.65,2025-04-21T10:59:35.766+03:00,104,1.733333333333333,2025-04-21T09:28:58.093+03:00,0.01174319131481236,0
2025-04-21T10:59:45.795+03:00,1745222379.683002,40.95358469045333,29.14095995195676,92.5589,-1,-1,-1,-1,30,23.16670695740329,-9999,13039.77744379167,-0.7932586669921875,0.31756591796875,-0.527191162109375,13039.76863579167,-1.643758434589899,-0.9747293308266134,-0.3609919110610406,-0.2234835922718048,-0.0986502394080162,-0.05668741092085838,-0.0084725022315979,-0.01224467158317566,-0.02462655305862427,XArbitraryZVertical,-0.4454159149235655,-0.1974851013119435,-0.5793997951937304,0.6533758912082716,-0.7742117643356323,0.3532023727893829,-0.525208592414856,0,0,0,-1,-1,13033.96356004167,unknown,2,2025-04-21T10:59:39.965+03:00,2025-04-20T21:57:49.637+03:00,1517,1.088974,0,0,1136.478,1,4,2025-04-21T10:59:45.124+03:00,766915185.2267745,0,-47.58,100.3032,1,0.65,2025-04-21T10:59:35.766+03:00,104,1.733333333333333,2025-04-21T09:28:58.093+03:00,0.01174319131481236,0
2025-04-21T10:59:45.798+03:00,1745222379.683002,40.95358469045333,29.14095995195676,92.5589,-1,-1,-1,-1,30,23.16670695740329,-9999,13039.78752079167,-0.7964935302734375,0.3047637939453125,-0.5084991455078125,13039.77871179167,-1.646840438732816,-0.9767993119685142,-0.3622502121233927,-0.3982000052928925,-0.1015602797269821,-0.05541228875517845,-0.01833021640777588,-0.03681331872940063,-0.003835380077362061,XArbitraryZVertical,-0.4466527240909788,-0.197036745139172,-0.5796736808217321,0.6524233539881145,-0.7749283909797668,0.3543792963027954,-0.5233557224273682,0,0,0,-1,-1,13033.96356004167,unknown,2,2025-04-21T10:59:39.965+03:00,2025-04-20T21:57:49.637+03:00,1517,1.088974,0,0,1136.478,1,4,2025-04-21T10:59:45.124+03:00,766915185.2267745,0,-47.58,100.3032,1,0.65,2025-04-21T10:59:35.766+03:00,104,1.733333333333333,2025-04-21T09:28:58.093+03:00,0.01174319131481236,0
2025-04-21T10:59:45.804+03:00,1745222379.683002,40.95358469045333,29.14095995195676,92.5589,-1,-1,-1,-1,30,23.16670695740329,-9999,13039.79759679167,-0.7935638427734375,0.301422119140625,-0.498687744140625,13039.78878879167,-1.651557263669827,-0.9794383663457592,-0.3645305057050715,-0.5836605429649353,-0.09785301983356476,-0.05188380181789398,-0.0208594799041748,-0.05174681544303894,0.01235783100128174,XArbitraryZVertical,-0.4484823906250796,-0.1960486053256258,-0.5801290056426206,0.6510597366962083,-0.7756339907646179,0.3565106987953186,-0.5208569765090942,0,0,0,-1,-1,13033.96356004167,unknown,2,2025-04-21T10:59:39.965+03:00,2025-04-20T21:57:49.637+03:00,1517,1.088974,0,0,1136.478,1,4,2025-04-21T10:59:45.124+03:00,766915185.2267745,0,-47.58,100.3032,1,0.65,2025-04-21T10:59:35.766+03:00,104,1.733333333333333,2025-04-21T09:28:58.093+03:00,0.01174319131481236,0
2025-04-21T10:59:45.814+03:00,1745222379.683002,40.95358469045333,29.14095995195676,92.5589,-1,-1,-1,-1,30,23.16670695740329,-9999,13039.80767279167,-0.7890777587890625,0.3051605224609375,-0.4948272705078125,13039.79886479167,-1.6578090129606,-0.982532944534524,-0.367816864597639,-0.7528895139694214,-0.08369459211826324,-0.0432857871055603,-0.01730060577392578,-0.05815699696540833,0.01911354064941406,XArbitraryZVertical,-0.4508517977131958,-0.1945045117667323,-0.5807562774157021,0.6493249116022498,-0.7762632966041565,0.3595791757106781,-0.5178012847900391,0,0,0,-1,-1,13033.96356004167,unknown,2,2025-04-21T10:59:39.965+03:00,2025-04-20T21:57:49.637+03:00,1517,1.088974,0,0,1136.478,1,4,2025-04-21T10:59:45.124+03:00,766915185.2267745,0,-47.58,100.3032,1,0.65,2025-04-21T10:59:35.766+03:00,104,1.733333333333333,2025-04-21T09:28:58.093+03:00,0.01174319131481236,0
2025-04-21T10:59:45.824+03:00,1745222379.683002,40.95358469045333,29.14095995195676,92.5589,-1,-1,-1,-1,30,23.16670695740329,-9999,13039.81774879167,-0.7946014404296875,0.3148345947265625,-0.4965667724609375,13039.80894079167,-1.665479923945672,-0.985891008865726,-0.3720138014313551,-0.897338330745697,-0.05037611722946167,-0.04798643290996552,-0.01234513521194458,-0.05833163857460022,0.01952660083770752,XArbitraryZVertical,-0.4536606883936384,-0.192392940005292,-0.5815751020670568,0.6472614026938627,-0.7767325639724731,0.3634922206401825,-0.51435387134552,0,0,0,-1,-1,13033.96356004167,unknown,2,2025-04-21T10:59:39.965+03:00,2025-04-20T21:57:49.637+03:00,1517,1.088974,0,0,1136.478,1,4,2025-04-21T10:59:45.124+03:00,766915185.2267745,0,-47.58,100.3032,1,0.65,2025-04-21T10:59:35.766+03:00,104,1.733333333333333,2025-04-21T09:28:58.093+03:00,0.01174319131481236,0
2025-04-21T10:59:45.834+03:00,1745222379.683002,40.95358469045333,29.14095995195676,92.5589,-1,-1,-1,-1,30,23.16670695740329,-9999,13039.82782479167,-0.80694580078125,0.3147125244140625,-0.507415771484375,13039.81901679167,-1.674325427073911,-0.9892387840622632,-0.3769192229675615,-1.008412957191467,0.007105284370481968,-0.03899693116545677,-0.0176505446434021,-0.05322310328483582,0.01419830322265625,XArbitraryZVertical,-0.4567440321949497,-0.189742976766566,-0.5826060226671147,0.6449438476918069,-0.7769507765769958,0.3680576980113983,-0.5107649564743042,0,0,0,-1,-1,13033.96356004167,unknown,2,2025-04-21T10:59:39.965+03:00,2025-04-20T21:57:49.637+03:00,1517,1.088974,0,0,1136.478,1,4,2025-04-21T10:59:45.124+03:00,766915185.2267745,0,-47.58,100.3032,1,0.65,2025-04-21T10:59:35.766+03:00,104,1.733333333333333,2025-04-21T09:28:58.093+03:00,0.01174319131481236,0
2025-04-21T10:59:45.844+03:00,1745222379.683002,40.95358469045333,29.14095995195676,92.5589,-1,-1,-1,-1,30,23.16670695740329,-9999,13039.83790079167,-0.822174072265625,0.32110595703125,-0.5155029296875,13039.82909279167,-1.68411016808271,-0.9924222667464778,-0.3824840763537533,-1.106781125068665,0.08249638229608536,-0.0281447172164917,-0.03009998798370361,-0.05851367115974426,-0.000254213809967041,XArbitraryZVertical,-0.4600123166311558,-0.186568883471134,-0.5838143155427887,0.6424495009553303,-0.7768457531929016,0.3732261955738068,-0.5071614384651184,0,0,0,-1,-1,13033.96356004167,unknown,2,2025-04-21T10:59:39.965+03:00,2025-04-20T21:57:49.637+03:00,1517,1.088974,0,0,1136.478,1,4,2025-04-21T10:59:45.124+03:00,766915185.2267745,0,-47.58,100.3032,1,0.65,2025-04-21T10:59:35.766+03:00,104,1.733333333333333,2025-04-21T09:28:58.093+03:00,0.01174319131481236,0
2025-04-21T10:59:45.855+03:00,1745222379.683002,40.95358469045333,29.14095995195676,92.5589,-1,-1,-1,-1,30,23.16670695740329,-9999,13039.84797679167,-0.8300018310546875,0.32562255859375,-0.5196533203125,13039.83916879167,-1.694988707369909,-0.9952875735803498,-0.3887546704237302,-1.25425922870636,0.1581298857927322,-0.0214679054915905,-0.04585695266723633,-0.05793032050132751,-0.01185309886932373,XArbitraryZVertical,-0.4634358992409663,-0.1827628940804925,-0.5852710797868464,0.6397518812252394,-0.7763170599937439,0.3790363073348999,-0.5036497712135315,0,0,0,-1,-1,13033.96356004167,unknown,2,2025-04-21T10:59:39.965+03:00,2025-04-20T21:57:49.637+03:00,1517,1.088974,0,0,1136.478,1,4,2025-04-21T10:59:45.124+03:00,766915185.2267745,0,-47.58,100.3032,1,0.65,2025-04-21T10:59:35.766+03:00,104,1.733333333333333,2025-04-21T09:28:58.093+03:00,0.01174319131481236,0
2025-04-21T10:59:45.865+03:00,1745222379.683002,40.95358469045333,29.14095995195676,92.5589,-1,-1,-1,-1,30,23.16670695740329,-9999,13039.85805279167,-0.83233642578125,0.2840423583984375,-0.5424957275390625,13039.84924479167,-1.707474733691525,-0.9980239231345261,-0.39598117624237,-1.455490112304688,0.2495727837085724,-0.01865064725279808,-0.05463165044784546,-0.0600910484790802,-0.01962721347808838,XArbitraryZVertical,-0.467164507933845,-0.1781692601195616,-0.5870368018870056,0.6367108812229443,-0.7753701210021973,0.3857136368751526,-0.5000260472297668,0,0,0,-1,-1,13033.96356004167,unknown,2,2025-04-21T10:59:39.965+03:00,2025-04-20T21:57:49.637+03:00,1517,1.088974,0,0,1136.478,1,4,2025-04-21T10:59:45.124+03:00,766915185.2267745,0,-47.58,100.3032,1,0.65,2025-04-21T10:59:35.766+03:00,104,1.733333333333333,2025-04-21T09:28:58.093+03:00,0.01174319131481236,0
2025-04-21T10:59:45.875+03:00,1745222379.683002,40.95358469045333,29.14095995195676,92.5589,-1,-1,-1,-1,30,23.16670695740329,-9999,13039.86812879167,-0.8304901123046875,0.2218780517578125,-0.5998687744140625,13039.85932079167,-1.721795085662332,-1.000572933069543,-0.4044718680188041,-1.660838723182678,0.3421506583690643,0.0211111456155777,-0.0584789514541626,-0.1094909012317657,-0.04623347520828247,XArbitraryZVertical,-0.4712542053226269,-0.1725930825119924,-0.5891208496335486,0.6332990328276471,-0.7738574147224426,0.3935332894325256,-0.4962621927261353,0,0,0,-1,-1,13033.96356004167,unknown,2,2025-04-21T10:59:39.965+03:00,2025-04-20T21:57:49.637+03:00,1517,1.088974,0,0,1136.478,1,4,2025-04-21T10:59:45.124+03:00,766915185.2267745,0,-47.58,100.3032,1,0.65,2025-04-21T10:59:35.766+03:00,104,1.733333333333333,2025-04-21T09:28:58.093+03:00,0.01174319131481236,0
2025-04-21T10:59:45.885+03:00,1745222379.683002,40.95358469045333,29.14095995195676,92.5589,-1,-1,-1,-1,30,23.16670695740329,-9999,13039.87820479167,-0.8090057373046875,0.2196044921875,-0.6605682373046875,13039.86939679167,-1.737439687006201,-1.003120361161918,-0.4142268743637714,-1.749740958213806,0.3776836693286896,0.07494125515222549,-0.05864459276199341,-0.1806042194366455,-0.1076670289039612,XArbitraryZVertical,-0.4756865080265197,-0.1661971910724872,-0.5913076895315276,0.629647524243655,-0.7718454599380493,0.4024823009967804,-0.4922016859054565,0,0,0,-1,-1,13033.96356004167,unknown,2,2025-04-21T10:59:39.965+03:00,2025-04-20T21:57:49.637+03:00,1517,1.088974,0,0,1136.478,1,4,2025-04-21T10:59:45.124+03:00,766915185.2267745,0,-47.58,100.3032,1,0.65,2025-04-21T10:59:35.766+03:00,104,1.733333333333333,2025-04-21T09:28:58.093+03:00,0.01174319131481236,0
2025-04-21T10:59:45.895+03:00,1745222379.683002,40.95358469045333,29.14095995195676,92.5589,-1,-1,-1,-1,30,23.16670695740329,-9999,13039.88828079167,-0.7858734130859375,0.275634765625,-0.7153472900390625,13039.87947279167,-1.752630952611861,-1.0056259273096,-0.4242195648156552,-1.615725994110107,0.3450668752193451,0.1193697080016136,-0.03936439752578735,-0.1920051276683807,-0.1724803745746613,XArbitraryZVertical,-0.4800370831938508,-0.1597513588981713,-0.5932680337728619,0.626160373630434,-0.7696412801742554,0.4116096496582031,-0.4880878031253815,0,0,0,-1,-1,13033.96356004167,unknown,2,2025-04-21T10:59:39.965+03:00,2025-04-20T21:57:49.637+03:00,1517,1.088974,0,0,1136.478,1,4,2025-04-21T10:59:45.124+03:00,766915185.2267745,0,-47.58,100.3032,1,0.65,2025-04-21T10:59:35.766+03:00,104,1.733333333333333,2025-04-21T09:28:58.093+03:00,0.01174319131481236,0
2025-04-21T10:59:45.905+03:00,1745222379.683002,40.95358469045333,29.14095995195676,92.5589,-1,-1,-1,-1,30,23.16670695740329,-9999,13039.89835679167,-0.7732086181640625,0.3521881103515625,-0.74114990234375,13039.88954879167,-1.765749266247553,-1.007852656208829,-0.4334962996112407,-1.361389398574829,0.2932808697223663,0.1735852360725403,-0.01840943098068237,-0.1444115042686462,-0.2310331165790558,XArbitraryZVertical,-0.4838910815612888,-0.1539232573412532,-0.5947690935452591,0.6232227458703485,-0.7674638628959656,0.4200462698936462,-0.4843141138553619,0,0,0,-1,-1,13033.96356004167,unknown,2,2025-04-21T10:59:39.965+03:00,2025-04-20T21:57:49.637+03:00,1517,1.088974,0,0,1136.478,1,4,2025-04-21T10:59:45.124+03:00,766915185.2267745,0,-47.58,100.3032,1,0.65,2025-04-21T10:59:35.766+03:00,104,1.733333333333333,2025-04-21T09:28:58.093+03:00,0.01174319131481236,0
2025-04-21T10:59:45.915+03:00,1745222379.683002,40.95358469045333,29.14095995195676,92.5589,-1,-1,-1,-1,30,23.16670695740329,-9999,13039.90843279167,-0.7592926025390625,0.385009765625,-0.7350616455078125,13039.89962479167,-1.776314304054032,-1.009808350226496,-0.4419580626150248,-1.158413887023926,0.2044108957052231,0.2298333346843719,-0.007835984230041504,-0.07552209496498108,-0.2602458298206329,XArbitraryZVertical,-0.4872174804776508,-0.1488862820623949,-0.5956946268141227,0.6209667638387473,-0.7653725147247314,0.4277102053165436,-0.4809040129184723,0,0,0,-1,-1,13033.96356004167,unknown,2,2025-04-21T10:59:39.965+03:00,2025-04-20T21:57:49.637+03:00,1517,1.088974,0,0,1136.478,1,4,2025-04-21T10:59:45.124+03:00,766915185.2267745,0,-47.58,100.3032,1,0.65,2025-04-21T10:59:41.766+03:00,102,1.7,2025-04-21T09:28:58.093+03:00,0.01174319131481236,0
2025-04-21T10:59:45.925+03:00,1745222379.683002,40.95358469045333,29.14095995195676,92.5589,-1,-1,-1,-1,30,23.16670695740329,-9999,13039.91850879167,-0.7461395263671875,0.3637542724609375,-0.7066802978515625,13039.90970079167,-1.785272596899713,-1.012120165573787,-0.4500662499423845,-1.082198977470398,0.09994134306907654,0.2793267965316772,0.004223942756652832,-0.05001536011695862,-0.2577822208404541,XArbitraryZVertical,-0.4904019499818363,-0.1444514790060417,-0.5960927030811886,0.6191228775878226,-0.7635164856910706,0.4350251853466034,-0.477279394865036,0,0,0,-1,-1,13033.96356004167,unknown,2,2025-04-21T10:59:39.965+03:00,2025-04-20T21:57:49.637+03:00,1517,1.088974,0,0,1136.478,1,4,2025-04-21T10:59:45.124+03:00,766915185.2267745,0,-47.58,100.3032,1,0.65,2025-04-21T10:59:41.766+03:00,102,1.7,2025-04-21T09:28:58.093+03:00,0.01174319131481236,0
2025-04-21T10:59:45.935+03:00,1745222385.908033,40.95359024158594,29.14097007014596,92.59061,-1,-1,-1,-1,30,22.77597639602587,-9999,13039.92858479167,-0.73486328125,0.3166046142578125,-0.666107177734375,13039.91977679167,-1.794536145144926,-1.015788237183789,-0.4587480289125249,-1.267040133476257,-0.02368525229394436,0.3022390305995941,0.01588386297225952,-0.07907161116600037,-0.2342127561569214,XArbitraryZVertical,-0.4940967682194704,-0.1401235996519421,-0.5961015214282616,0.6171682842498141,-0.7620233297348022,0.4428259134292603,-0.4724675118923187,0,0,0,-1,-1,13033.96356004167,unknown,2,2025-04-21T10:59:39.965+03:00,2025-04-20T21:57:49.637+03:00,1517,1.088974,0,0,1136.478,1,4,2025-04-21T10:59:45.124+03:00,766915185.2267745,0,-47.58,100.3032,1,0.65,2025-04-21T10:59:41.766+03:00,102,1.7,2025-04-21T09:28:58.093+03:00,0.01174319131481236,0
2025-04-21T10:59:45.945+03:00,1745222385.908033,40.95359024158594,29.14097007014596,92.59061,-1,-1,-1,-1,30,22.77597639602587,-9999,13039.93866079167,-0.73248291015625,0.271270751953125,-0.6240386962890625,13039.92985279167,-1.806602210267886,-1.022065976558338,-0.4688962032738934,-1.612910032272339,-0.1430767625570297,0.290916383266449,0.02623772621154785,-0.1352972686290741,-0.2008007168769836,XArbitraryZVertical,-0.4990317885459061,-0.1353294572320695,-0.5959636457658557,0.6143945005390054,-0.7611009478569031,0.451901912689209,-0.465306431055069,0,0,0,-1,-1,13033.96356004167,unknown,2,2025-04-21T10:59:39.965+03:00,2025-04-20T21:57:49.637+03:00,1517,1.088974,0,0,1136.478,1,4,2025-04-21T10:59:45.124+03:00,766915185.2267745,0,-47.58,100.3032,1,0.65,2025-04-21T10:59:41.766+03:00,102,1.7,2025-04-21T09:28:58.093+03:00,0.01174319131481236,0
2025-04-21T10:59:45.955+03:00,1745222385.908033,40.95359024158594,29.14097007014596,92.59061,-1,-1,-1,-1,30,22.77597639602587,-9999,13039.94873679167,-0.7271575927734375,0.2462921142578125,-0.60528564453125,13039.93992879167,-1.822067023772414,-1.031077219768069,-0.4806763363691215,-1.930955648422241,-0.2457109987735748,0.2925819158554077,0.02816033363342285,-0.191108226776123,-0.1683769822120667,XArbitraryZVertical,-0.5052780306688027,-0.1298586706135007,-0.5957551676173152,0.6106607526001248,-0.7606431841850281,0.462378978729248,-0.4556616842746735,0,0,0,-1,-1,13033.96356004167,unknown,2,2025-04-21T10:59:39.965+03:00,2025-04-20T21:57:49.637+03:00,1517,1.088974,0,0,1136.478,1,4,2025-04-21T10:59:45.124+03:00,766915185.2267745,0,-47.58,100.3032,1,0.65,2025-04-21T10:59:41.766+03:00,102,1.7,2025-04-21T09:28:58.093+03:00,0.01174319131481236,0
2025-04-21T10:59:45.965+03:00,1745222385.908033,40.95359024158594,29.14097007014596,92.59061,-1,-1,-1,-1,30,22.77597639602587,-9999,13039.95881379167,-0.7294769287109375,0.2857513427734375,-0.586669921875,13039.95000479167,-1.840498295712189,-1.042891634082366,-0.4935927183333594,-2.129987001419067,-0.3863439559936523,0.2715138494968414,0.03359287977218628,-0.227500706911087,-0.1616876125335693,XArbitraryZVertical,-0.5126706948993762,-0.1239748263702611,-0.5953897697691928,0.6060610741974104,-0.760750412940979,0.4737928211688995,-0.4435980021953583,0,0,0,-1,-1,13033.96356004167,unknown,2,2025-04-21T10:59:39.965+03:00,2025-04-20T21:57:49.637+03:00,1517,1.088974,0,0,1136.478,1,4,2025-04-21T10:59:45.124+03:00,766915185.2267745,0,-47.58,100.3032,1,0.65,2025-04-21T10:59:41.766+03:00,102,1.7,2025-04-21T09:28:58.093+03:00,0.01174319131481236,0
2025-04-21T10:59:45.975+03:00,1745222385.908033,40.95359024158594,29.14097007014596,92.59061,-1,-1,-1,-1,30,22.77597639602587,-9999,13039.96888979167,-0.7190399169921875,0.3909759521484375,-0.5849151611328125,13039.96008179167,-1.860425928098011,-1.057087432722516,-0.5067531610471748,-2.169109106063843,-0.5330526828765869,0.2681215107440948,0.03199702501296997,-0.1995896399021149,-0.1570172309875488,XArbitraryZVertical,-0.5207682012477658,-0.1182121686375237,-0.5946872261820952,0.600977123472209,-0.7614740133285522,0.4853410124778748,-0.4296527206897736,0,0,0,-1,-1,13033.96356004167,unknown,2,2025-04-21T10:59:39.965+03:00,2025-04-20T21:57:49.637+03:00,1517,1.088974,0,0,1136.478,1,4,2025-04-21T10:59:45.124+03:00,766915185.2267745,0,-47.58,100.3032,1,0.65,2025-04-21T10:59:41.766+03:00,102,1.7,2025-04-21T09:28:58.093+03:00,0.01174319131481236,0
2025-04-21T10:59:45.986+03:00,1745222385.908033,40.95359024158594,29.14097007014596,92.59061,-1,-1,-1,-1,30,22.77597639602587,-9999,13039.97896579167,-0.7117767333984375,0.4965667724609375,-0.591094970703125,13039.97015779167,-1.880491335357604,-1.072929222807773,-0.5196037081519866,-2.086715459823608,-0.6528525948524475,0.2849378883838654,0.04360169172286987,-0.1055602133274078,-0.1703917980194092,XArbitraryZVertical,-0.5291458899453833,-0.112884748268438,-0.5935287937764531,0.595806277722,-0.7626415491104126,0.4965361952781677,-0.4145233333110809,0,0,0,-1,-1,13033.96356004167,unknown,2,2025-04-21T10:59:39.965+03:00,2025-04-20T21:57:49.637+03:00,1517,1.088974,0,0,1136.478,1,4,2025-04-21T10:59:45.124+03:00,766915185.2267745,0,-47.58,100.3032,1,0.65,2025-04-21T10:59:41.766+03:00,102,1.7,2025-04-21T09:28:58.093+03:00,0.01174319131481236,0
2025-04-21T10:59:45.996+03:00,1745222385.908033,40.95359024158594,29.14097007014596,92.59061,-1,-1,-1,-1,30,22.77597639602587,-9999,13039.98904179167,-0.7246246337890625,0.540008544921875,-0.583984375,13039.98023379167,-1.89939756828133,-1.089495419235489,-0.5317211674651156,-1.905227303504944,-0.7480957508087158,0.309176117181778,0.05223739147186279,-0.01045083999633789,-0.1920767426490784,XArbitraryZVertical,-0.5373822643575328,-0.1082183764987762,-0.5918631390918069,0.5909374064783743,-0.7640140652656555,0.5070176124572754,-0.3990181684494019,0,0,0,-1,-1,13033.96356004167,unknown,2,2025-04-21T10:59:39.965+03:00,2025-04-20T21:57:49.637+03:00,1517,1.088974,0,0,1136.478,1,4,2025-04-21T10:59:45.124+03:00,766915185.2267745,0,-47.58,100.3032,1,0.65,2025-04-21T10:59:41.766+03:00,102,1.7,2025-04-21T09:28:58.093+03:00,0.01174319131481236,0
2025-04-21T10:59:46.006+03:00,1745222385.908033,40.95359024158594,29.14097007014596,92.59061,-1,-1,-1,-1,30,22.77597639602587,-9999,13039.99911779167,-0.74346923828125,0.547698974609375,-0.5517578125,13039.99030979167,-1.916647902140658,-1.106258879082985,-0.5429812365479509,-1.740127801895142,-0.8199777603149414,0.3394989371299744,0.04081803560256958,0.02331781387329102,-0.2004112601280212,XArbitraryZVertical,-0.5452928415078722,-0.1042553508646205,-0.5897253687734721,0.5865240998539238,-0.7654426097869873,0.516690731048584,-0.3835730850696564,0,0,0,-1,-1,13033.96356004167,unknown,2,2025-04-21T10:59:39.965+03:00,2025-04-20T21:57:49.637+03:00,1517,1.088974,0,0,1136.478,1,4,2025-04-21T10:59:45.124+03:00,766915185.2267745,0,-47.58,100.3032,1,0.65,2025-04-21T10:59:41.766+03:00,102,1.7,2025-04-21T09:28:58.093+03:00,0.01174319131481236,0
2025-04-21T10:59:46.016+03:00,1745222385.908033,40.95359024158594,29.14097007014596,92.59061,-1,-1,-1,-1,30,22.77597639602587,-9999,13040.00919379167,-0.7435302734375,0.5481109619140625,-0.505218505859375,13040.00038579167,-1.932486699618815,-1.123041378024128,-0.5535962165314976,-1.606173396110535,-0.8744660615921021,0.3693340718746185,0.02331525087356567,0.02194923162460327,-0.183479517698288,XArbitraryZVertical,-0.5528981417479557,-0.10081937120911,-0.5872013373817898,0.5825234304346482,-0.7667843699455261,0.525749683380127,-0.3682782053947449,0,0,0,-1,-1,13033.96356004167,unknown,2,2025-04-21T10:59:39.965+03:00,2025-04-20T21:57:49.637+03:00,1517,1.088974,0,0,1136.478,1,4,2025-04-21T10:59:45.124+03:00,766915185.2267745,0,-47.58,100.3032,1,0.65,2025-04-21T10:59:41.766+03:00,102,1.7,2025-04-21T09:28:58.093+03:00,0.01174319131481236,0
2025-04-21T10:59:46.026+03:00,1745222385.908033,40.95359024158594,29.14097007014596,92.59061,-1,-1,-1,-1,30,22.77597639602587,-9999,13040.01926979167,-0.730499267578125,0.5435028076171875,-0.447021484375,13040.01046179167,-1.947755202727448,-1.14022229354192,-0.5638823210321198,-1.600141048431396,-0.9275261163711548,0.3818608820438385,0.02451294660568237,0.01363945007324219,-0.1524439454078674,XArbitraryZVertical,-0.5604198218568358,-0.09768507459394614,-0.5843662312549375,0.5787083141542559,-0.7680431604385376,0.5344715118408203,-0.3527745008468628,0,0,0,-1,-1,13033.96356004167,unknown,2,2025-04-21T10:59:39.965+03:00,2025-04-20T21:57:49.637+03:00,1517,1.088974,0,0,1136.478,1,4,2025-04-21T10:59:45.124+03:00,766915185.2267745,0,-47.58,100.3032,1,0.65,2025-04-21T10:59:41.766+03:00,102,1.7,2025-04-21T09:28:58.093+03:00,0.01174319131481236,0
2025-04-21T10:59:46.036+03:00,1745222385.908033,40.95359024158594,29.14097007014596,92.59061,-1,-1,-1,-1,30,22.77597639602587,-9999,13040.02934579167,-0.73016357421875,0.5178070068359375,-0.394073486328125,13040.02053779167,-1.96357589482676,-1.158272961463921,-0.5741870844643657,-1.643128275871277,-0.9600214958190918,0.4011850357055664,0.0386996865272522,0.0003504157066345215,-0.1103933751583099,XArbitraryZVertical,-0.5681084275190142,-0.09454513727579598,-0.5813270123822034,0.5747808616700104,-0.769199013710022,0.543152391910553,-0.3366280496120453,0,0,0,-1,-1,13033.96356004167,unknown,2,2025-04-21T10:59:39.965+03:00,2025-04-20T21:57:49.637+03:00,1517,1.088974,0,0,1136.478,1,4,2025-04-21T10:59:45.124+03:00,766915185.2267745,0,-47.58,100.3032,1,0.65,2025-04-21T10:59:41.766+03:00,102,1.7,2025-04-21T09:28:58.093+03:00,0.01174319131481236,0
2025-04-21T10:59:46.046+03:00,1745222385.908033,40.95359024158594,29.14097007014596,92.59061,-1,-1,-1,-1,30,22.77597639602587,-9999,13040.03942179167,-0.7364959716796875,0.4883880615234375,-0.3694610595703125,13040.03061379167,-1.980063967039254,-1.176855868637628,-0.5846122198789701,-1.70795214176178,-0.9383245706558228,0.4171088635921478,0.03988701105117798,-0.03406912088394165,-0.07398757338523865,XArbitraryZVertical,-0.5758779867977111,-0.09122288944446222,-0.578177981329848,0.5707477895120238,-0.7700504660606384,0.5518760681152344,-0.3200858533382416,0,0,0,-1,-1,13033.96356004167,unknown,2,2025-04-21T10:59:39.965+03:00,2025-04-20T21:57:49.637+03:00,1517,1.088974,0,0,1136.478,1,4,2025-04-21T10:59:45.124+03:00,766915185.2267745,0,-47.58,100.3032,1,0.65,2025-04-21T10:59:41.766+03:00,102,1.7,2025-04-21T09:28:58.093+03:00,0.01174319131481236,0
2025-04-21T10:59:46.056+03:00,1745222385.908033,40.95359024158594,29.14097007014596,92.59061,-1,-1,-1,-1,30,22.77597639602587,-9999,13040.04949779167,-0.7369232177734375,0.4921417236328125,-0.3369598388671875,13040.04068979167,-1.998017952859487,-1.196249214730054,-0.5951536330787907,-1.824909329414368,-0.930458664894104,0.4186968803405762,0.03415966033935547,-0.07224798202514648,-0.06651350855827332,XArbitraryZVertical,-0.5838320863476693,-0.08755776962907616,-0.5750576304298864,0.5663764645768024,-0.7706555128097534,0.5606359839439392,-0.302947461605072,0,0,0,-1,-1,13033.96356004167,unknown,2,2025-04-21T10:59:39.965+03:00,2025-04-20T21:57:49.637+03:00,1517,1.088974,0,0,1136.478,1,4,2025-04-21T10:59:45.124+03:00,766915185.2267745,0,-47.58,100.3032,1,0.65,2025-04-21T10:59:41.766+03:00,102,1.7,2025-04-21T09:28:58.093+03:00,0.01174319131481236,0
2025-04-21T10:59:46.066+03:00,1745222385.908033,40.95359024158594,29.14097007014596,92.59061,-1,-1,-1,-1,30,22.77597639602587,-9999,13040.05957379167,-0.7325439453125,0.494873046875,-0.333404541015625,13040.05076579167,-2.017436567264919,-1.216533076991764,-0.6058149606811081,-1.882837414741516,-0.9127310514450073,0.4259593486785889,0.03406846523284912,-0.07729047536849976,-0.05179518461227417,XArbitraryZVertical,-0.5919769799548146,-0.08355202991670142,-0.5719247706271462,0.5616799029258578,-0.7709915637969971,0.5694321990013123,-0.2851646244525909,0,0,0,-1,-1,13033.96356004167,unknown,2,2025-04-21T10:59:39.965+03:00,2025-04-20T21:57:49.637+03:00,1517,1.088974,0,0,1136.478,1,4,2025-04-21T10:59:45.124+03:00,766915185.2267745,0,-47.58,100.3032,1,0.65,2025-04-21T10:59:41.766+03:00,102,1.7,2025-04-21T09:28:58.093+03:00,0.01174319131481236,0
2025-04-21T10:59:46.076+03:00,1745222385.908033,40.95359024158594,29.14097007014596,92.59061,-1,-1,-1,-1,30,22.77597639602587,-9999,13040.06964979167,-0.7354278564453125,0.506195068359375,-0.339752197265625,13040.06084179167,-2.037357540871596,-1.237004712339471,-0.6163826690028986,-1.867690324783325,-0.8856762647628784,0.45325967669487,0.03839480876922607,-0.08321428298950195,-0.06606853008270264,XArbitraryZVertical,-0.6000284403134502,-0.07935915417630458,-0.5687581544117521,0.5569399589850116,-0.7709386944770813,0.5780872702598572,-0.2673359811306,0,0,0,-1,-1,13033.96356004167,unknown,2,2025-04-21T10:59:39.965+03:00,2025-04-20T21:57:49.637+03:00,1517,1.088974,0,0,1136.478,1,4,2025-04-21T10:59:45.124+03:00,766915185.2267745,0,-47.58,100.3032,1,0.65,2025-04-21T10:59:41.766+03:00,102,1.7,2025-04-21T09:28:58.093+03:00,0.01174319131481236,0
2025-04-21T10:59:46.086+03:00,1745222385.908033,40.95359024158594,29.14097007014596,92.59061,-1,-1,-1,-1,30,22.77597639602587,-9999,13040.07972579167,-0.7254791259765625,0.5337371826171875,-0.3326263427734375,13040.07091779167,-2.056699066177553,-1.257236968352152,-0.6266246319962099,-1.715194821357727,-0.8988035321235657,0.4826394021511078,0.03508889675140381,-0.08021897077560425,-0.08990705013275146,XArbitraryZVertical,-0.607792094474332,-0.07527424400010302,-0.5654460181415329,0.5524430689486851,-0.7705166935920715,0.5864140391349792,-0.2498451173305511,0,0,0,-1,-1,13033.96356004167,unknown,2,2025-04-21T10:59:39.965+03:00,2025-04-20T21:57:49.637+03:00,1517,1.088974,0,0,1136.478,1,4,2025-04-21T10:59:45.124+03:00,766915185.2267745,0,-47.58,100.3032,1,0.65,2025-04-21T10:59:41.766+03:00,102,1.7,2025-04-21T09:28:58.093+03:00,0.01174319131481236,0
2025-04-21T10:59:46.096+03:00,1745222385.908033,40.95359024158594,29.14097007014596,92.59061,-1,-1,-1,-1,30,22.77597639602587,-9999,13040.08980179167,-0.7072906494140625,0.56463623046875,-0.323394775390625,13040.08099379167,-2.073774662794696,-1.276474916137032,-0.6362234254210963,-1.465068578720093,-0.9183055758476257,0.5180434584617615,0.04427886009216309,-0.0604248046875,-0.09929335117340088,XArbitraryZVertical,-0.61496897037304,-0.07174038392326065,-0.5618499341139728,0.5486266038075228,-0.7697579264640808,0.5941619873046875,-0.2333329617977142,0,0,0,-1,-1,13033.96356004167,unknown,2,2025-04-21T10:59:39.965+03:00,2025-04-20T21:57:49.637+03:00,1517,1.088974,0,0,1136.478,1,4,2025-04-21T10:59:45.124+03:00,766915185.2267745,0,-47.58,100.3032,1,0.65,2025-04-21T10:59:41.766+03:00,102,1.7,2025-04-21T09:28:58.093+03:00,0.01174319131481236,0
2025-04-21T10:59:46.106+03:00,1745222385.908033,40.95359024158594,29.14097007014596,92.59061,-1,-1,-1,-1,30,22.77597639602587,-9999,13040.09987779167,-0.692169189453125,0.58905029296875,-0.3048858642578125,13040.09106979167,-2.087932265740619,-1.294284157619922,-0.6453059551468044,-1.197415828704834,-0.9381515383720398,0.5764191150665283,0.06127709150314331,-0.03680676221847534,-0.1052891463041306,XArbitraryZVertical,-0.6214580847710983,-0.06882639136379344,-0.5579236732556934,0.5456865570275234,-0.7685676217079163,0.6014428734779358,-0.2181055545806885,0,0,0,-1,-1,13033.96356004167,unknown,2,2025-04-21T10:59:39.965+03:00,2025-04-20T21:57:49.637+03:00,1517,1.088974,0,0,1136.478,1,4,2025-04-21T10:59:45.124+03:00,766915185.2267745,0,-47.58,100.3032,1,0.65,2025-04-21T10:59:41.766+03:00,102,1.7,2025-04-21T09:28:58.093+03:00,0.01174319131481236,0
2025-04-21T10:59:46.118+03:00,1745222385.908033,40.95359024158594,29.14097007014596,92.59061,-1,-1,-1,-1,30,22.77597639602587,-9999,13040.10995479167,-0.6819000244140625,0.5908660888671875,-0.2804107666015625,13040.10114579167,-2.098747425443341,-1.310357082906793,-0.6540529639617778,-0.9261287450790405,-0.9505259394645691,0.644283652305603,0.07469183206558228,-0.01935774087905884,-0.1005235761404037,XArbitraryZVertical,-0.6272080522722387,-0.06655028538204619,-0.55363336340475,0.5437564453257121,-0.7668609023094177,0.6084079146385193,-0.2043622434139252,0,0,0,-1,-1,13033.96356004167,unknown,2,2025-04-21T10:59:39.965+03:00,2025-04-20T21:57:49.637+03:00,1517,1.088974,0,0,1136.478,1,4,2025-04-21T10:59:45.124+03:00,766915185.2267745,0,-47.58,100.3032,1,0.65,2025-04-21T10:59:41.766+03:00,102,1.7,2025-04-21T09:28:58.093+03:00,0.01174319131481236,0
2025-04-21T10:59:46.127+03:00,1745222385.908033,40.95359024158594,29.14097007014596,92.59061,-1,-1,-1,-1,30,22.77597639602587,-9999,13040.12003079167,-0.67620849609375,0.5951995849609375,-0.2410430908203125,13040.11122279167,-2.106949909456328,-1.324949933499342,-0.6627702329059372,-0.7790043950080872,-0.9489361047744751,0.7067552208900452,0.0826880931854248,-0.02443695068359375,-0.08855865895748138,XArbitraryZVertical,-0.63236981390088,-0.06467134347703317,-0.5490453883158957,0.5426555393386729,-0.7645879983901978,0.6153029799461365,-0.1918520778417587,0,0,0,-1,-1,13033.96356004167,unknown,2,2025-04-21T10:59:39.965+03:00,2025-04-20T21:57:49.637+03:00,1517,1.088974,0,0,1136.478,1,4,2025-04-21T10:59:45.124+03:00,766915185.2267745,0,-47.58,100.3032,1,0.65,2025-04-21T10:59:41.766+03:00,102,1.7,2025-04-21T09:28:58.093+03:00,0.01174319131481236,0
2025-04-21T10:59:46.137+03:00,1745222385.908033,40.95359024158594,29.14097007014596,92.59061,-1,-1,-1,-1,30,22.77597639602587,-9999,13040.13010679167,-0.6742095947265625,0.595458984375,-0.1942596435546875,13040.12129879167,-2.11410682789771,-1.338944116527222,-0.6717128522016266,-0.7356851696968079,-0.9463347792625427,0.7474211454391479,0.08560383319854736,-0.02712804079055786,-0.0611807107925415,XArbitraryZVertical,-0.6372736533151084,-0.06285802350233288,-0.5442556663389239,0.5419565938755757,-0.7618122100830078,0.6223276257514954,-0.1798623204231262,0,0,0,-1,-1,13033.96356004167,unknown,2,2025-04-21T10:59:39.965+03:00,2025-04-20T21:57:49.637+03:00,1517,1.088974,0,0,1136.478,1,4,2025-04-21T10:59:45.124+03:00,766915185.2267745,0,-47.58,100.3032,1,0.65,2025-04-21T10:59:41.766+03:00,102,1.7,2025-04-21T09:28:58.093+03:00,0.01174319131481236,0
2025-04-21T10:59:46.147+03:00,1745222385.908033,40.95359024158594,29.14097007014596,92.59061,-1,-1,-1,-1,30,22.77597639602587,-9999,13040.14018279167,-0.6792755126953125,0.57794189453125,-0.1419219970703125,13040.13137479167,-2.121247462534796,-1.352997940111076,-0.6808112715141048,-0.7482841014862061,-0.954151451587677,0.7592853307723999,0.08449500799179077,-0.03396469354629517,-0.02635157108306885,XArbitraryZVertical,-0.6421259677103797,-0.06099368447050405,-0.539355047905125,0.5413409344901655,-0.7587045431137085,0.6294236183166504,-0.1679080277681351,0,0,0,-1,-1,13033.96356004167,unknown,2,2025-04-21T10:59:39.965+03:00,2025-04-20T21:57:49.637+03:00,1517,1.088974,0,0,1136.478,1,4,2025-04-21T10:59:45.124+03:00,766915185.2267745,0,-47.58,100.3032,1,0.65,2025-04-21T10:59:41.766+03:00,102,1.7,2025-04-21T09:28:58.093+03:00,0.01174319131481236,0
2025-04-21T10:59:46.157+03:00,1745222385.908033,40.95359024158594,29.14097007014596,92.59061,-1,-1,-1,-1,30,22.77597639602587,-9999,13040.15025879167,-0.684844970703125,0.5721893310546875,-0.1009063720703125,13040.14145079167,-2.129032121900565,-1.367617318682061,-0.6898725934543455,-0.8067708611488342,-0.9678816199302673,0.7504361867904663,0.07618540525436401,-0.05849701166152954,0.01371943950653076,XArbitraryZVertical,-0.6470621897757037,-0.05907466645456193,-0.5344088690323119,0.5405809346430277,-0.755460798740387,0.6364389061927795,-0.1556414067745209,0,0,0,-1,-1,13033.96356004167,unknown,2,2025-04-21T10:59:39.965+03:00,2025-04-20T21:57:49.637+03:00,1517,1.088974,0,0,1136.478,1,4,2025-04-21T10:59:45.124+03:00,766915185.2267745,0,-47.58,100.3032,1,0.65,2025-04-21T10:59:41.766+03:00,102,1.7,2025-04-21T09:28:58.093+03:00,0.01174319131481236,0
2025-04-21T10:59:46.167+03:00,1745222385.908033,40.95359024158594,29.14097007014596,92.59061,-1,-1,-1,-1,30,22.77597639602587,-9999,13040.16033479167,-0.6844940185546875,0.5952606201171875,-0.0768585205078125,13040.15152679167,-2.137829927829209,-1.383054608990342,-0.6989201222824685,-0.8386480808258057,-0.9802336692810059,0.7509493827819824,0.06724059581756592,-0.07120203971862793,0.04197412729263306,XArbitraryZVertical,-0.6521554227969959,-0.05703564234907508,-0.52942486910079,0.5395826869698876,-0.7520855069160461,0.6433913707733154,-0.1428804844617844,0,0,0,-1,-1,13033.96356004167,unknown,2,2025-04-21T10:59:39.965+03:00,2025-04-20T21:57:49.637+03:00,1517,1.088974,0,0,1136.478,1,4,2025-04-21T10:59:45.124+03:00,766915185.2267745,0,-47.58,100.3032,1,0.65,2025-04-21T10:59:41.766+03:00,102,1.7,2025-04-21T09:28:58.093+03:00,0.01174319131481236,0
2025-04-21T10:59:46.177+03:00,1745222385.908033,40.95359024158594,29.14097007014596,92.59061,-1,-1,-1,-1,30,22.77597639602587,-9999,13040.17041079167,-0.6847991943359375,0.6345367431640625,-0.0734710693359375,13040.16160279167,-2.146662754630371,-1.398665053548446,-0.7077768362036132,-0.7851936221122742,-0.9855501055717468,0.7358724474906921,0.06408655643463135,-0.05488568544387817,0.05328352749347687,XArbitraryZVertical,-0.6571871751037952,-0.05508199431155052,-0.5243914504245232,0.5385948474879095,-0.7485804557800293,0.6501461863517761,-0.1301419883966446,0,0,0,-1,-1,13033.96356004167,unknown,2,2025-04-21T10:59:39.965+03:00,2025-04-20T21:57:49.637+03:00,1517,1.088974,0,0,1136.478,1,4,2025-04-21T10:59:45.124+03:00,766915185.2267745,0,-47.58,100.3032,1,0.65,2025-04-21T10:59:41.766+03:00,102,1.7,2025-04-21T09:28:58.093+03:00,0.01174319131481236,0
2025-04-21T10:59:46.187+03:00,1745222385.908033,40.95359024158594,29.14097007014596,92.59061,-1,-1,-1,-1,30,22.77597639602587,-9999,13040.18048679167,-0.6917724609375,0.665069580078125,-0.0658416748046875,13040.17167879167,-2.154571125444176,-1.413708906639551,-0.716212999860862,-0.6547616720199585,-0.9746333360671997,0.7243847250938416,0.0602107048034668,-0.0219961404800415,0.0445328950881958,XArbitraryZVertical,-0.6619249584892744,-0.05341719174373985,-0.5193565318149708,0.5378389105113645,-0.7450097799301147,0.656532883644104,-0.1180039048194885,0,0,0,-1,-1,13033.96356004167,unknown,2,2025-04-21T10:59:39.965+03:00,2025-04-20T21:57:49.637+03:00,1517,1.088974,0,0,1136.478,1,4,2025-04-21T10:59:45.124+03:00,766915185.2267745,0,-47.58,100.3032,1,0.65,2025-04-21T10:59:41.766+03:00,102,1.7,2025-04-21T09:28:58.093+03:00,0.01174319131481236,0
2025-04-21T10:59:46.197+03:00,1745222385.908033,40.95359024158594,29.14097007014596,92.59061,-1,-1,-1,-1,30,22.77597639602587,-9999,13040.19056279167,-0.6932525634765625,0.6785736083984375,-0.04522705078125,13040.18175479167,-2.160796728179827,-1.42757384294253,-0.7243409785761968,-0.5113043785095215,-0.9651868343353271,0.7297642827033997,0.04949545860290527,0.002427458763122559,0.04105652868747711,XArbitraryZVertical,-0.6662109695807459,-0.05209485627114616,-0.5142980006697301,0.5375373681124922,-0.7412678003311157,0.6626420021057129,-0.1068981364369392,0,0,0,-1,-1,13033.96356004167,unknown,2,2025-04-21T10:59:39.965+03:00,2025-04-20T21:57:49.637+03:00,1517,1.088974,0,0,1136.478,1,4,2025-04-21T10:59:45.124+03:00,766915185.2267745,0,-47.58,100.3032,1,0.65,2025-04-21T10:59:41.766+03:00,102,1.7,2025-04-21T09:28:58.093+03:00,0.01174319131481236,0
2025-04-21T10:59:46.207+03:00,1745222385.908033,40.95359024158594,29.14097007014596,92.59061,-1,-1,-1,-1,30,22.77597639602587,-9999,13040.20063879167,-0.684844970703125,0.6949920654296875,-0.0140228271484375,13040.19183079167,-2.165809701507415,-1.440569508401014,-0.7322924343609066,-0.4556207358837128,-0.9525532126426697,0.7320069074630737,0.04409438371658325,0.00999748706817627,0.05134181678295135,XArbitraryZVertical,-0.6701598027882616,-0.0510039875049311,-0.5092144683650371,0.5375733357878237,-0.737346887588501,0.6685761213302612,-0.09656886756420135,0,0,0,-1,-1,13033.96356004167,unknown,2,2025-04-21T10:59:39.965+03:00,2025-04-20T21:57:49.637+03:00,1517,1.088974,0,0,1136.478,1,4,2025-04-21T10:59:45.124+03:00,766915185.2267745,0,-47.58,100.3032,1,0.65,2025-04-21T10:59:41.766+03:00,102,1.7,2025-04-21T09:28:58.093+03:00,0.01174319131481236,0
2025-04-21T10:59:46.217+03:00,1745222385.908033,40.95359024158594,29.14097007014596,92.59061,-1,-1,-1,-1,30,22.77597639602587,-9999,13040.21071479167,-0.6695404052734375,0.7012786865234375,0.0368804931640625,13040.20190679167,-2.171187899040505,-1.453765215017687,-0.7401901026570378,-0.5281990766525269,-0.951267421245575,0.7253112196922302,0.04844480752944946,0.02056372165679932,0.07218886166810989,XArbitraryZVertical,-0.6740978424925721,-0.04986253157662828,-0.5041432808792191,0.537536214418574,-0.7332895994186401,0.6744282841682434,-0.08621165156364441,0,0,0,-1,-1,13033.96356004167,unknown,2,2025-04-21T10:59:39.965+03:00,2025-04-20T21:57:49.637+03:00,1517,1.088974,0,0,1136.478,1,4,2025-04-21T10:59:45.124+03:00,766915185.2267745,0,-47.58,100.3032,1,0.65,2025-04-21T10:59:41.766+03:00,102,1.7,2025-04-21T09:28:58.093+03:00,0.01174319131481236,0
2025-04-21T10:59:46.227+03:00,1745222385.908033,40.95359024158594,29.14097007014596,92.59061,-1,-1,-1,-1,30,22.77597639602587,-9999,13040.22079079167,-0.6722564697265625,0.674346923828125,0.0980682373046875,13040.21198279167,-2.178432217309631,-1.468246395205151,-0.7479924306982572,-0.7110331654548645,-0.9508302211761475,0.6906808614730835,0.05966413021087646,0.02111011743545532,0.1119236424565315,XArbitraryZVertical,-0.6783284007219885,-0.04846675533685073,-0.4991308208844895,0.5370193650016362,-0.7292044162750244,0.6801684498786926,-0.07504311203956604,0,0,0,-1,-1,13033.96356004167,unknown,2,2025-04-21T10:59:39.965+03:00,2025-04-20T21:57:49.637+03:00,1517,1.088974,0,0,1136.478,1,4,2025-04-21T10:59:45.124+03:00,766915185.2267745,0,-47.58,100.3032,1,0.65,2025-04-21T10:59:41.766+03:00,102,1.7,2025-04-21T09:28:58.093+03:00,0.01174319131481236,0
2025-04-21T10:59:46.238+03:00,1745222385.908033,40.95359024158594,29.14097007014596,92.59061,-1,-1,-1,-1,30,22.77597639602587,-9999,13040.23086679167,-0.6901397705078125,0.6338043212890625,0.1521453857421875,13040.22205879167,-2.188576027038987,-1.484763440022669,-0.7553751751575091,-0.8816080689430237,-0.9480792284011841,0.6338290572166443,0.05306524038314819,-0.01121503114700317,0.1606242060661316,XArbitraryZVertical,-0.6830334060142257,-0.04676970404774768,-0.4942751619464782,0.5356956551859511,-0.7253215312957764,0.6855618357658386,-0.06255592405796051,0,0,0,-1,-1,13033.96356004167,unknown,2,2025-04-21T10:59:39.965+03:00,2025-04-20T21:57:49.637+03:00,1517,1.088974,0,0,1136.478,1,4,2025-04-21T10:59:45.124+03:00,766915185.2267745,0,-47.58,100.3032,1,0.65,2025-04-21T10:59:41.766+03:00,102,1.7,2025-04-21T09:28:58.093+03:00,0.01174319131481236,0
2025-04-21T10:59:46.247+03:00,1745222385.908033,40.95359024158594,29.14097007014596,92.59061,-1,-1,-1,-1,30,22.77597639602587,-9999,13040.24094279167,-0.7115631103515625,0.627105712890625,0.1644287109375,13040.23213479167,-2.201022619379897,-1.502723832277899,-0.7622217599733916,-1.00070059299469,-0.9133371114730835,0.5817875862121582,0.03148853778839111,-0.05672591924667358,0.2013444900512695,XArbitraryZVertical,-0.6880336042339366,-0.04483564518269298,-0.4896335896270794,0.5337211920739811,-0.7216281890869141,0.6905301809310913,-0.04919904842972755,0,0,0,-1,-1,13033.96356004167,unknown,2,2025-04-21T10:59:39.965+03:00,2025-04-20T21:57:49.637+03:00,1517,1.088974,0,0,1136.478,1,4,2025-04-21T10:59:45.124+03:00,766915185.2267745,0,-47.58,100.3032,1,0.65,2025-04-21T10:59:41.766+03:00,102,1.7,2025-04-21T09:28:58.093+03:00,0.01174319131481236,0
2025-04-21T10:59:46.258+03:00,1745222385.908033,40.95359024158594,29.14097007014596,92.59061,-1,-1,-1,-1,30,22.77597639602587,-9999,13040.25101879167,-0.72332763671875,0.681549072265625,0.1484222412109375,13040.24221079167,-2.214404769787253,-1.520972861509341,-0.7684247726531073,-0.9710894227027893,-0.8682715892791748,0.5358991622924805,0.006550908088684082,-0.06789785623550415,0.2002372741699219,XArbitraryZVertical,-0.693007788030639,-0.04284773286014031,-0.4852554565623908,0.5314425811417804,-0.7181138396263123,0.6950035095214844,-0.03580855578184128,0,0,0,-1,-1,13033.96356004167,unknown,2,2025-04-21T10:59:39.965+03:00,2025-04-20T21:57:49.637+03:00,1517,1.088974,0,0,1136.478,1,4,2025-04-21T10:59:45.124+03:00,766915185.2267745,0,-47.58,100.3032,1,0.65,2025-04-21T10:59:41.766+03:00,102,1.7,2025-04-21T09:28:58.093+03:00,0.01174319131481236,0
2025-04-21T10:59:46.268+03:00,1745222385.908033,40.95359024158594,29.14097007014596,92.59061,-1,-1,-1,-1,30,22.77597639602587,-9999,13040.26109479167,-0.7251739501953125,0.7472991943359375,0.130340576171875,13040.25228679167,-2.226623275532885,-1.537887807260087,-0.7740459111883181,-0.7898010611534119,-0.7962053418159485,0.5108230113983154,-0.008626580238342285,-0.01748514175415039,0.1719505190849304,XArbitraryZVertical,-0.6975302951524539,-0.04107756145600095,-0.4811310801949518,0.5294117861452241,-0.7147008776664734,0.6990341544151306,-0.02352824248373508,0,0,0,-1,-1,13033.96356004167,unknown,2,2025-04-21T10:59:39.965+03:00,2025-04-20T21:57:49.637+03:00,1517,1.088974,0,0,1136.478,1,4,2025-04-21T10:59:45.124+03:00,766915185.2267745,0,-47.58,100.3032,1,0.65,2025-04-21T10:59:41.766+03:00,102,1.7,2025-04-21T09:28:58.093+03:00,0.01174319131481236,0
2025-04-21T10:59:46.278+03:00,1745222385.908033,40.95359024158594,29.14097007014596,92.59061,-1,-1,-1,-1,30,22.77597639602587,-9999,13040.27117179167,-0.7285919189453125,0.7855224609375,0.1070098876953125,13040.26236279167,-2.235912540119611,-1.551977386288435,-0.779263697505815,-0.5629415512084961,-0.7036173343658447,0.4859568178653717,-0.01386886835098267,0.04454332590103149,0.1437281966209412,XArbitraryZVertical,-0.7012348349158849,-0.03969777562583708,-0.4772836372851609,0.5281040970908117,-0.7113049626350403,0.7027558088302612,-0.0133875859901309,0,0,0,-1,-1,13033.96356004167,unknown,2,2025-04-21T10:59:39.965+03:00,2025-04-20T21:57:49.637+03:00,1517,1.088974,0,0,1136.478,1,4,2025-04-21T10:59:45.124+03:00,766915185.2267745,0,-47.58,100.3032,1,0.65,2025-04-21T10:59:41.766+03:00,102,1.7,2025-04-21T09:28:58.093+03:00,0.01174319131481236,0
2025-04-21T10:59:46.296+03:00,1745222385.908033,40.95359024158594,29.14097007014596,92.59061,-1,-1,-1,-1,30,22.77597639602587,-9999,13040.28124779167,-0.7366943359375,0.7832183837890625,0.11578369140625,13040.27243979167,-2.242535024043561,-1.563210090032266,-0.7841283103535107,-0.3936148881912231,-0.5978081822395325,0.4709726274013519,-0.02060812711715698,0.07931417226791382,0.1123809218406677,XArbitraryZVertical,-0.7041474853625531,-0.03861089743237342,-0.4738024066768808,0.5274435947801033,-0.707983672618866,0.7062082886695862,-0.005371035076677799,0,0,0,-1,-1,13033.96356004167,unknown,2,2025-04-21T10:59:39.965+03:00,2025-04-20T21:57:49.637+03:00,1517,1.088974,0,0,1136.478,1,4,2025-04-21T10:59:45.124+03:00,766915185.2267745,0,-47.58,100.3032,1,0.65,2025-04-21T10:59:41.766+03:00,102,1.7,2025-04-21T09:28:58.093+03:00,0.01174319131481236,0
2025-04-21T10:59:46.299+03:00,1745222385.908033,40.95359024158594,29.14097007014596,92.59061,-1,-1,-1,-1,30,22.77597639602587,-9999,13040.29132379167,-0.7374725341796875,0.7381744384765625,0.162750244140625,13040.28251579167,-2.247257941440348,-1.572150716332582,-0.7888361187014541,-0.2855307757854462,-0.5145212411880493,0.4612451791763306,-0.03202337026596069,0.07368481159210205,0.1148293018341064,XArbitraryZVertical,-0.7064421375818656,-0.03763915537713917,-0.47065381072833,0.5272644306333985,-0.7046709656715393,0.7095335721969604,0.0009543995256535709,0,0,0,-1,-1,13033.96356004167,unknown,2,2025-04-21T10:59:39.965+03:00,2025-04-20T21:57:49.637+03:00,1517,1.088974,0,0,1136.478,1,4,2025-04-21T10:59:45.124+03:00,766915185.2267745,0,-47.58,100.3032,1,0.65,2025-04-21T10:59:41.766+03:00,102,1.7,2025-04-21T09:28:58.093+03:00,0.01174319131481236,0
2025-04-21T10:59:46.308+03:00,1745222385.908033,40.95359024158594,29.14097007014596,92.59061,-1,-1,-1,-1,30,22.77597639602587,-9999,13040.30139979167,-0.7320709228515625,0.7117767333984375,0.1963348388671875,13040.29259179167,-2.251308432425632,-1.579815292032655,-0.7934103744848128,-0.2848520874977112,-0.437835156917572,0.4511374831199646,-0.03608244657516479,0.02542483806610107,0.1564242839813232,XArbitraryZVertical,-0.7083942120418326,-0.03661464024837594,-0.467804190181093,0.5272533742511604,-0.7013899683952332,0.7127495408058167,0.006325982976704836,0,0,0,-1,-1,13033.96356004167,unknown,2,2025-04-21T10:59:39.965+03:00,2025-04-20T21:57:49.637+03:00,1517,1.088974,0,0,1136.478,1,4,2025-04-21T10:59:45.124+03:00,766915185.2267745,0,-47.58,100.3032,1,0.65,2025-04-21T10:59:41.766+03:00,102,1.7,2025-04-21T09:28:58.093+03:00,0.01174319131481236,0
2025-04-21T10:59:46.318+03:00,1745222385.908033,40.95359024158594,29.14097007014596,92.59061,-1,-1,-1,-1,30,22.77597639602587,-9999,13040.31147579167,-0.7219390869140625,0.71978759765625,0.189422607421875,13040.30266779167,-2.255470546288118,-1.58692653276305,-0.7978777235752645,-0.2796711623668671,-0.3824957311153412,0.4384187459945679,-0.03393429517745972,-0.004099249839782715,0.1850727796554565,XArbitraryZVertical,-0.7101935585856423,-0.03544206981801996,-0.465200787126461,0.5272162925021812,-0.6981364488601685,0.7158758640289307,0.01126206200569868,0,0,0,-1,-1,13033.96356004167,unknown,2,2025-04-21T10:59:39.965+03:00,2025-04-20T21:57:49.637+03:00,1517,1.088974,0,0,1136.478,1,4,2025-04-21T10:59:45.124+03:00,766915185.2267745,0,-47.58,100.3032,1,0.65,2025-04-21T10:59:41.766+03:00,102,1.7,2025-04-21T09:28:58.093+03:00,0.01174319131481236,0
2025-04-21T10:59:46.328+03:00,1745222385.908033,40.95359024158594,29.14097007014596,92.59061,-1,-1,-1,-1,30,22.77597639602587,-9999,13040.32155179167,-0.7241973876953125,0.73663330078125,0.148834228515625,13040.31274379167,-2.259509263039065,-1.593372200439635,-0.802132256153017,-0.2429530173540115,-0.31785649061203,0.4221366345882416,-0.02694076299667358,0.0009475350379943848,0.1737297773361206,XArbitraryZVertical,-0.7118117366567419,-0.03421229278052713,-0.4628512867164503,0.5271832319046338,-0.6949982643127441,0.7188400030136108,0.01569285802543163,0,0,0,-1,-1,13033.96356004167,unknown,2,2025-04-21T10:59:39.965+03:00,2025-04-20T21:57:49.637+03:00,1517,1.088974,0,0,1136.478,1,4,2025-04-21T10:59:45.124+03:00,766915185.2267745,0,-47.58,100.3032,1,0.65,2025-04-21T10:59:41.766+03:00,102,1.7,2025-04-21T09:28:58.093+03:00,0.01174319131481236,0
2025-04-21T10:59:46.338+03:00,1745222385.908033,40.95359024158594,29.14097007014596,92.59061,-1,-1,-1,-1,30,22.77597639602587,-9999,13040.33162779167,-0.7309722900390625,0.759521484375,0.0774688720703125,13040.32281979167,-2.26198178701566,-1.597939906292687,-0.8062888293259437,-0.07123958319425583,-0.23591049015522,0.4068322479724884,-0.03227072954177856,0.01490992307662964,0.1300482749938965,XArbitraryZVertical,-0.7129507105364348,-0.03307979724179982,-0.4607788835523867,0.5275317628024493,-0.6919265389442444,0.7217233180999756,0.01878597773611546,0,0,0,-1,-1,13033.96356004167,unknown,2,2025-04-21T10:59:39.965+03:00,2025-04-20T21:57:49.637+03:00,1517,1.088974,0,0,1136.478,1,4,2025-04-21T10:59:45.124+03:00,766915185.2267745,0,-47.58,100.3032,1,0.65,2025-04-21T10:59:41.766+03:00,102,1.7,2025-04-21T09:28:58.093+03:00,0.01174319131481236,0
2025-04-21T10:59:46.348+03:00,1745222385.908033,40.95359024158594,29.14097007014596,92.59061,-1,-1,-1,-1,30,22.77597639602587,-9999,13040.34170379167,-0.739105224609375,0.77490234375,0.024505615234375,13040.33289579167,-2.261670586497663,-1.599655646352318,-0.8103189427107399,0.147574171423912,-0.152412474155426,0.3957152366638184,-0.04199188947677612,0.03501433134078979,0.05757987499237061,XArbitraryZVertical,-0.713376151005812,-0.03223320938844782,-0.4590194935818654,0.5285419128909709,-0.6889803409576416,0.7245070338249207,0.01988902501761913,0,0,0,-1,-1,13033.96356004167,unknown,2,2025-04-21T10:59:39.965+03:00,2025-04-20T21:57:49.637+03:00,1517,1.088974,0,0,1136.478,1,4,2025-04-21T10:59:45.124+03:00,766915185.2267745,0,-47.58,100.3032,1,0.65,2025-04-21T10:59:41.766+03:00,102,1.7,2025-04-21T09:28:58.093+03:00,0.01174319131481236,0
2025-04-21T10:59:46.358+03:00,1745222385.908033,40.95359024158594,29.14097007014596,92.59061,-1,-1,-1,-1,30,22.77597639602587,-9999,13040.35177979167,-0.7217559814453125,0.7939605712890625,0.030303955078125,13040.34297179167,-2.257806384684498,-1.598198782219647,-0.8143775224905763,0.397940069437027,-0.1222545728087425,0.39593306183815,-0.05304169654846191,0.0476037859916687,0.005701065063476562,XArbitraryZVertical,-0.7130152262866465,-0.03180490518521162,-0.4574400732713718,0.530420787957614,-0.6860634684562683,0.7272984981536865,0.0188045296818018,0,0,0,-1,-1,13033.96356004167,unknown,2,2025-04-21T10:59:39.965+03:00,2025-04-20T21:57:49.637+03:00,1517,1.088974,0,0,1136.478,1,4,2025-04-21T10:59:45.124+03:00,766915185.2267745,0,-47.58,100.3032,1,0.65,2025-04-21T10:59:41.766+03:00,102,1.7,2025-04-21T09:28:58.093+03:00,0.01174319131481236,0
2025-04-21T10:59:46.368+03:00,1745222385.908033,40.95359024158594,29.14097007014596,92.59061,-1,-1,-1,-1,30,22.77597639602587,-9999,13040.36185579167,-0.697723388671875,0.81622314453125,0.06060791015625,13040.35304779167,-2.250878548746152,-1.594394574943462,-0.8185566067068205,0.5474242568016052,-0.1261069029569626,0.4126956760883331,-0.03867042064666748,0.06380009651184082,0.01418137364089489,XArbitraryZVertical,-0.7120745880279049,-0.03179759564201166,-0.4558410728250069,0.5330548708731084,-0.6830854415893555,0.7301603555679321,0.0161226112395525,0,0,0,-1,-1,13033.96356004167,unknown,2,2025-04-21T10:59:39.965+03:00,2025-04-20T21:57:49.637+03:00,1517,1.088974,0,0,1136.478,1,4,2025-04-21T10:59:45.124+03:00,766915185.2267745,0,-47.58,100.3032,1,0.65,2025-04-21T10:59:41.766+03:00,102,1.7,2025-04-21T09:28:58.093+03:00,0.01174319131481236,0
2025-04-21T10:59:46.378+03:00,1745222385.908033,40.95359024158594,29.14097007014596,92.59061,-1,-1,-1,-1,30,22.77597639602587,-9999,13040.37193179167,-0.690155029296875,0.7909698486328125,0.097137451171875,13040.36312379167,-2.242679200952089,-1.589697326046438,-0.8229202948320919,0.5640530586242676,-0.1308387964963913,0.4291553199291229,-0.01776188611984253,0.08308804035186768,0.04775440692901611,XArbitraryZVertical,-0.710920063221318,-0.03192809806104446,-0.4541531063510018,0.5360205215535701,-0.6799613237380981,0.7331349849700928,0.01285347901284695,0,0,0,-1,-1,13033.96356004167,unknown,2,2025-04-21T10:59:39.965+03:00,2025-04-20T21:57:49.637+03:00,1517,1.088974,0,0,1136.478,1,4,2025-04-21T10:59:45.124+03:00,766915185.2267745,0,-47.58,100.3032,1,0.65,2025-04-21T10:59:41.766+03:00,102,1.7,2025-04-21T09:28:58.093+03:00,0.01174319131481236,0
2025-04-21T10:59:46.389+03:00,1745222385.908033,40.95359024158594,29.14097007014596,92.59061,-1,-1,-1,-1,30,22.77597639602587,-9999,13040.38200779167,-0.68804931640625,0.7378082275390625,0.1246795654296875,13040.37319979167,-2.235239754371833,-1.585613952951213,-0.8273958808944519,0.4440260231494904,-0.1455594152212143,0.4388798475265503,-0.01343417167663574,0.054798424243927,0.08710932731628418,XArbitraryZVertical,-0.7099270292200153,-0.03190106881623955,-0.4524010079650175,0.5388128173789486,-0.6767207980155945,0.7361714243888855,0.01002813037484884,0,0,0,-1,-1,13033.96356004167,unknown,2,2025-04-21T10:59:39.965+03:00,2025-04-20T21:57:49.637+03:00,1517,1.088974,0,0,1136.478,1,4,2025-04-21T10:59:45.124+03:00,766915185.2267745,0,-47.58,100.3032,1,0.65,2025-04-21T10:59:41.766+03:00,102,1.7,2025-04-21T09:28:58.093+03:00,0.01174319131481236,0
2025-04-21T10:59:46.399+03:00,1745222385.908033,40.95359024158594,29.14097007014596,92.59061,-1,-1,-1,-1,30,22.77597639602587,-9999,13040.39208379167,-0.6868743896484375,0.7172088623046875,0.1106414794921875,13040.38327579167,-2.230212125658671,-1.583402886488936,-0.8318416514629398,0.235516220331192,-0.1508532464504242,0.4300765097141266,-0.01458722352981567,-0.001364767551422119,0.1161891222000122,XArbitraryZVertical,-0.7094021762724297,-0.03152454471593017,-0.4506273004208632,0.5410080991877997,-0.6734620332717896,0.7391729950904846,0.008490488864481449,0,0,0,-1,-1,13033.96356004167,unknown,2,2025-04-21T10:59:39.965+03:00,2025-04-20T21:57:49.637+03:00,1517,1.088974,0,0,1136.478,1,4,2025-04-21T10:59:45.124+03:00,766915185.2267745,0,-47.58,100.3032,1,0.65,2025-04-21T10:59:41.766+03:00,102,1.7,2025-04-21T09:28:58.093+03:00,0.01174319131481236,0
2025-04-21T10:59:46.409+03:00,1745222385.908033,40.95359024158594,29.14097007014596,92.59061,-1,-1,-1,-1,30,22.77597639602587,-9999,13040.40215979167,-0.6931915283203125,0.7184600830078125,0.0700836181640625,13040.39335179167,-2.228257625517014,-1.583417446698575,-0.8361045787583118,0.03472432866692543,-0.1390663087368011,0.41404989361763,-0.01656937599182129,-0.02482867240905762,0.102181077003479,XArbitraryZVertical,-0.7094268055283816,-0.03072183355975724,-0.448937257104197,0.542425077081881,-0.6703048348426819,0.7420374155044556,0.008460447192192078,0,0,0,-1,-1,13033.96356004167,unknown,2,2025-04-21T10:59:39.965+03:00,2025-04-20T21:57:49.637+03:00,1517,1.088974,0,0,1136.478,1,4,2025-04-21T10:59:45.124+03:00,766915185.2267745,0,-47.58,100.3032,1,0.65,2025-04-21T10:59:41.766+03:00,102,1.7,2025-04-21T09:28:58.093+03:00,0.01174319131481236,0
2025-04-21T10:59:46.419+03:00,1745222385.908033,40.95359024158594,29.14097007014596,92.59061,-1,-1,-1,-1,30,22.77597639602587,-9999,13040.41223579167,-0.6885223388671875,0.72235107421875,0.0692138671875,13040.40342779167,-2.229091054816416,-1.585432203125498,-0.8402373555357493,-0.1222027018666267,-0.1416509002447128,0.4093070924282074,-0.02597689628601074,-0.02634143829345703,0.06031763553619385,XArbitraryZVertical,-0.7099377430241972,-0.0295192257410562,-0.4473262705618125,0.5431539475745428,-0.667214572429657,0.7448015213012695,0.009765967726707458,0,0,0,-1,-1,13033.96356004167,unknown,2,2025-04-21T10:59:39.965+03:00,2025-04-20T21:57:49.637+03:00,1517,1.088974,0,0,1136.478,1,4,2025-04-21T10:59:45.124+03:00,766915185.2267745,0,-47.58,100.3032,1,0.65,2025-04-21T10:59:41.766+03:00,102,1.7,2025-04-21T09:28:58.093+03:00,0.01174319131481236,0
2025-04-21T10:59:46.429+03:00,1745222385.908033,40.95359024158594,29.14097007014596,92.59061,-1,-1,-1,-1,30,22.77597639602587,-9999,13040.42231279167,-0.66021728515625,0.7393951416015625,0.10992431640625,13040.41350379167,-2.231860101100073,-1.58915023512501,-0.8443673374796304,-0.2271628081798553,-0.1915168762207031,0.4174063503742218,-0.0244297981262207,-0.02519983053207397,0.05702388659119606,XArbitraryZVertical,-0.7108486133466977,-0.02809414041277039,-0.4456351826688913,0.5434283087062628,-0.6640926003456116,0.7475510239601135,0.01219006348401308,0,0,0,-1,-1,13033.96356004167,unknown,2,2025-04-21T10:59:39.965+03:00,2025-04-20T21:57:49.637+03:00,1517,1.088974,0,0,1136.478,1,4,2025-04-21T10:59:45.124+03:00,766915185.2267745,0,-47.58,100.3032,1,0.65,2025-04-21T10:59:41.766+03:00,102,1.7,2025-04-21T09:28:58.093+03:00,0.01174319131481236,0
2025-04-21T10:59:46.440+03:00,1745222385.908033,40.95359024158594,29.14097007014596,92.59061,-1,-1,-1,-1,30,22.77597639602587,-9999,13040.43238879167,-0.6297760009765625,0.766448974609375,0.1537628173828125,13040.42358079167,-2.236079043932854,-1.594635014205694,-0.8485425847709172,-0.3079553842544556,-0.2705312669277191,0.4241313636302948,0.0006722807884216309,-0.01092255115509033,0.09416663646697998,XArbitraryZVertical,-0.7121589325156673,-0.0266179814677603,-0.4436948243801702,0.5433746766348,-0.6608895659446716,0.7503177523612976,0.0157577246427536,0,0,0,-1,-1,13033.96356004167,unknown,2,2025-04-21T10:59:39.965+03:00,2025-04-20T21:57:49.637+03:00,1517,1.088974,0,0,1136.478,1,4,2025-04-21T10:59:45.124+03:00,766915185.2267745,0,-47.58,100.3032,1,0.65,2025-04-21T10:59:41.766+03:00,102,1.7,2025-04-21T09:28:58.093+03:00,0.01174319131481236,0
2025-04-21T10:59:46.449+03:00,1745222385.908033,40.95359024158594,29.14097007014596,92.59061,-1,-1,-1,-1,30,22.77597639602587,-9999,13040.44246479167,-0.617523193359375,0.7685089111328125,0.1947174072265625,13040.43365679167,-2.241498362825675,-1.601728023312295,-0.8527105716027416,-0.3764247894287109,-0.3286305665969849,0.4229951202869415,0.02785372734069824,0.01338237524032593,0.1334147453308105,XArbitraryZVertical,-0.7138216855123131,-0.02515245658926219,-0.4415050220429791,0.5430462972465848,-0.6576296091079712,0.7530665993690491,0.0203480888158083,0,0,0,-1,-1,13033.96356004167,unknown,2,2025-04-21T10:59:39.965+03:00,2025-04-20T21:57:49.637+03:00,1517,1.088974,0,0,1136.478,1,4,2025-04-21T10:59:45.124+03:00,766915185.2267745,0,-47.58,100.3032,1,0.65,2025-04-21T10:59:41.766+03:00,102,1.7,2025-04-21T09:28:58.093+03:00,0.01174319131481236,0
2025-04-21T10:59:46.459+03:00,1745222385.908033,40.95359024158594,29.14097007014596,92.59061,-1,-1,-1,-1,30,22.77597639602587,-9999,13040.45254079167,-0.6188812255859375,0.74884033203125,0.2524871826171875,13040.44373279167,-2.248197270676348,-1.610385804006424,-0.8567454309903509,-0.4796691536903381,-0.384279727935791,0.4036224782466888,0.03686416149139404,0.01279383897781372,0.1687970161437988,XArbitraryZVertical,-0.7158202408580004,-0.02369768646717762,-0.4391324989000407,0.5424043317688404,-0.6543872952461243,0.7557151317596436,0.02592039480805397,0,0,0,-1,-1,13033.96356004167,unknown,2,2025-04-21T10:59:39.965+03:00,2025-04-20T21:57:49.637+03:00,1517,1.088974,0,0,1136.478,1,4,2025-04-21T10:59:45.124+03:00,766915185.2267745,0,-47.58,100.3032,1,0.65,2025-04-21T10:59:41.766+03:00,102,1.7,2025-04-21T09:28:58.093+03:00,0.01174319131481236,0
2025-04-21T10:59:46.469+03:00,1745222385.908033,40.95359024158594,29.14097007014596,92.59061,-1,-1,-1,-1,30,22.77597639602587,-9999,13040.46261679167,-0.61846923828125,0.7274322509765625,0.3180999755859375,13040.45380879167,-2.257147088021338,-1.621305908003136,-0.8604399403239487,-0.6554263830184937,-0.4388775229454041,0.3812522888183594,0.03239119052886963,-0.009289145469665527,0.2195637226104736,XArbitraryZVertical,-0.7183109854270066,-0.02216025965397591,-0.4366400339427482,0.5411873491609349,-0.6512723565101624,0.7581295371055603,0.03292349725961685,0,0,0,-1,-1,13033.96356004167,unknown,2,2025-04-21T10:59:39.965+03:00,2025-04-20T21:57:49.637+03:00,1517,1.088974,0,0,1136.478,1,4,2025-04-21T10:59:45.124+03:00,766915185.2267745,0,-47.58,100.3032,1,0.65,2025-04-21T10:59:41.766+03:00,102,1.7,2025-04-21T09:28:58.093+03:00,0.01174319131481236,0
2025-04-21T10:59:46.479+03:00,1745222385.908033,40.95359024158594,29.14097007014596,92.59061,-1,-1,-1,-1,30,22.77597639602587,-9999,13040.47269279167,-0.6118927001953125,0.703216552734375,0.3779144287109375,13040.46388479167,-2.269351818539004,-1.635239387885125,-0.8637071766953887,-0.8822265267372131,-0.4827634692192078,0.3602372705936432,0.02980583906173706,-0.03282386064529419,0.2762652635574341,XArbitraryZVertical,-0.7214577810005414,-0.02039720689423412,-0.4340380489200519,0.5391600167175159,-0.6482749581336975,0.7602560520172119,0.0418347530066967,0,0,0,-1,-1,13033.96356004167,unknown,2,2025-04-21T10:59:39.965+03:00,2025-04-20T21:57:49.637+03:00,1517,1.088974,0,0,1136.478,1,4,2025-04-21T10:59:45.124+03:00,766915185.2267745,0,-47.58,100.3032,1,0.65,2025-04-21T10:59:41.766+03:00,102,1.7,2025-04-21T09:28:58.093+03:00,0.01174319131481236,0
2025-04-21T10:59:46.489+03:00,1745222385.908033,40.95359024158594,29.14097007014596,92.59061,-1,-1,-1,-1,30,22.77597639602587,-9999,13040.48276879167,-0.589752197265625,0.692535400390625,0.45477294921875,13040.47396079167,-2.284891249767529,-1.652142763389345,-0.8665488280187365,-1.067592740058899,-0.5296088457107544,0.3424889743328094,0.03342688083648682,-0.05888235569000244,0.3253039121627808,XArbitraryZVertical,-0.7252371053925145,-0.01834154762399818,-0.4313386486483735,0.5363224063411609,-0.6453195810317993,0.7620989680290222,0.05261054262518883,0,0,0,-1,-1,13033.96356004167,unknown,2,2025-04-21T10:59:39.965+03:00,2025-04-20T21:57:49.637+03:00,1517,1.088974,0,0,1136.478,1,4,2025-04-21T10:59:45.124+03:00,766915185.2267745,0,-47.58,100.3032,1,0.65,2025-04-21T10:59:41.766+03:00,102,1.7,2025-04-21T09:28:58.093+03:00,0.01174319131481236,0
2025-04-21T10:59:46.499+03:00,1745222385.908033,40.95359024158594,29.14097007014596,92.59061,-1,-1,-1,-1,30,22.77597639602587,-9999,13040.49284479167,-0.54840087890625,0.7376251220703125,0.5310821533203125,13040.48403679167,-2.303103510272904,-1.671897138681339,-0.8685917429979035,-1.222819328308105,-0.6440232992172241,0.2739666402339935,0.05285191535949707,-0.07088476419448853,0.3895828723907471,XArbitraryZVertical,-0.7296090925744176,-0.01629715503850742,-0.428475802372321,0.5327414220823435,-0.6426039934158325,0.7634201049804688,0.06519004702568054,0,0,0,-1,-1,13033.96356004167,unknown,2,2025-04-21T10:59:39.965+03:00,2025-04-20T21:57:49.637+03:00,1517,1.088974,0,0,1136.478,1,4,2025-04-21T10:59:45.124+03:00,766915185.2267745,0,-47.58,100.3032,1,0.65,2025-04-21T10:59:41.766+03:00,102,1.7,2025-04-21T09:28:58.093+03:00,0.01174319131481236,0
2025-04-21T10:59:46.510+03:00,1745222385.908033,40.95359024158594,29.14097007014596,92.59061,-1,-1,-1,-1,30,22.77597639602587,-9999,13040.50292079167,-0.5261993408203125,0.8348541259765625,0.5928497314453125,13040.49411279167,-2.323464757276182,-1.694516276990397,-0.869514431367796,-1.339771509170532,-0.7490670680999756,0.2004099190235138,0.09186512231826782,-0.0263906717300415,0.4514617919921875,XArbitraryZVertical,-0.7345740295791061,-0.01453121128485548,-0.42535383177076,0.5284542611948316,-0.640265941619873,0.7640157341957092,0.07962032407522202,0,0,0,-1,-1,13033.96356004167,unknown,2,2025-04-21T10:59:39.965+03:00,2025-04-20T21:57:49.637+03:00,1517,1.088974,0,0,1136.478,1,4,2025-04-21T10:59:45.124+03:00,766915185.2267745,0,-47.58,100.3032,1,0.65,2025-04-21T10:59:41.766+03:00,102,1.7,2025-04-21T09:28:58.093+03:00,0.01174319131481236,0
2025-04-21T10:59:46.520+03:00,1745222385.908033,40.95359024158594,29.14097007014596,92.59061,-1,-1,-1,-1,30,22.77597639602587,-9999,13040.51299679167,-0.539581298828125,0.9116973876953125,0.6898040771484375,13040.50418879167,-2.344897382901372,-1.7185269223575,-0.8690958224427919,-1.389825582504272,-0.7550472021102905,0.07788241654634476,0.1122868061065674,0.07110846042633057,0.4978336095809937,XArbitraryZVertical,-0.7398221396067302,-0.01308728621808348,-0.4222501595891727,0.5236378873300954,-0.6384860277175903,0.7637456059455872,0.09501615166664124,0,0,0,-1,-1,13033.96356004167,unknown,2,2025-04-21T10:59:39.965+03:00,2025-04-20T21:57:49.637+03:00,1517,1.088974,0,0,1136.478,1,4,2025-04-21T10:59:45.124+03:00,766915185.2267745,0,-47.58,100.3032,1,0.65,2025-04-21T10:59:41.766+03:00,102,1.7,2025-04-21T09:28:58.093+03:00,0.01174319131481236,0
2025-04-21T10:59:46.530+03:00,1745222385.908033,40.95359024158594,29.14097007014596,92.59061,-1,-1,-1,-1,30,22.77597639602587,-9999,13040.52307279167,-0.5583343505859375,0.9248504638671875,0.8031158447265625,13040.51426479167,-2.366663407184017,-1.742660385787224,-0.8667329435169026,-1.429421782493591,-0.7345196604728699,-0.1072938963770866,0.09820234775543213,0.1494791507720947,0.5790998935699463,XArbitraryZVertical,-0.7451215796360647,-0.01208002258198321,-0.4195704755529835,0.5182744935050548,-0.6377835869789124,0.762218177318573,0.1107041910290718,0,0,0,-1,-1,13033.96356004167,unknown,2,2025-04-21T10:59:39.965+03:00,2025-04-20T21:57:49.637+03:00,1517,1.088974,0,0,1136.478,1,4,2025-04-21T10:59:45.124+03:00,766915185.2267745,0,-47.58,100.3032,1,0.65,2025-04-21T10:59:41.766+03:00,102,1.7,2025-04-21T09:28:58.093+03:00,0.01174319131481236,0
2025-04-21T10:59:46.540+03:00,1745222385.908033,40.95359024158594,29.14097007014596,92.59061,-1,-1,-1,-1,30,22.77597639602587,-9999,13040.53314879167,-0.589385986328125,0.9053192138671875,0.947601318359375,13040.52434079167,-2.386865361439035,-1.764820876767879,-0.8616201806743022,-1.296835064888,-0.5915361642837524,-0.4247158169746399,0.08065527677536011,0.1659517884254456,0.6775566339492798,XArbitraryZVertical,-0.7500916123656215,-0.01192369154185449,-0.417793931115622,0.5125120142643954,-0.6389895081520081,0.7588986158370972,0.1255591958761215,0,0,0,-1,-1,13033.96356004167,unknown,2,2025-04-21T10:59:39.965+03:00,2025-04-20T21:57:49.637+03:00,1517,1.088974,0,0,1136.478,1,4,2025-04-21T10:59:45.124+03:00,766915185.2267745,0,-47.58,100.3032,1,0.65,2025-04-21T10:59:41.766+03:00,102,1.7,2025-04-21T09:28:58.093+03:00,0.01174319131481236,0
2025-04-21T10:59:46.550+03:00,1745222385.908033,40.95359024158594,29.14097007014596,92.59061,-1,-1,-1,-1,30,22.77597639602587,-9999,13040.54322479167,-0.5815277099609375,0.913116455078125,1.139022827148438,13040.53441679167,-2.403112125657051,-1.781878956298234,-0.8537185551283328,-1.061468720436096,-0.4252438247203827,-0.6900436878204346,0.05321240425109863,0.1515897512435913,0.8099088668823242,XArbitraryZVertical,-0.7541113464353717,-0.01273967767637437,-0.4175015942562519,0.5067998672036322,-0.6425983309745789,0.7537294030189514,0.1376924514770508,0,0,0,-1,-1,13033.96356004167,unknown,2,2025-04-21T10:59:39.965+03:00,2025-04-20T21:57:49.637+03:00,1517,1.088974,0,0,1136.478,1,4,2025-04-21T10:59:45.124+03:00,766915185.2267745,0,-47.58,100.3032,1,0.65,2025-04-21T10:59:41.766+03:00,102,1.7,2025-04-21T09:28:58.093+03:00,0.01174319131481236,0
2025-04-21T10:59:46.560+03:00,1745222385.908033,40.95359024158594,29.14097007014596,92.59061,-1,-1,-1,-1,30,22.77597639602587,-9999,13040.55330079167,-0.48809814453125,0.9766693115234375,1.41021728515625,13040.54449279167,-2.414769585661713,-1.795501106318258,-0.8433849088106092,-0.9292529225349426,-0.5502663850784302,-0.9735555648803711,0.06669402122497559,0.1662181615829468,0.990862250328064,XArbitraryZVertical,-0.7575301003033046,-0.01511367968141842,-0.4178500156394527,0.5013191243651938,-0.648221492767334,0.7468981742858887,0.1481605470180511,0,0,0,-1,-1,13033.96356004167,unknown,2,2025-04-21T10:59:39.965+03:00,2025-04-20T21:57:49.637+03:00,1517,1.088974,0,0,1136.478,1,4,2025-04-21T10:59:45.124+03:00,766915185.2267745,0,-47.58,100.3032,1,0.65,2025-04-21T10:59:41.766+03:00,102,1.7,2025-04-21T09:28:58.093+03:00,0.01174319131481236,0
2025-04-21T10:59:46.570+03:00,1745222385.908033,40.95359024158594,29.14097007014596,92.59061,-1,-1,-1,-1,30,22.77597639602587,-9999,13040.56337679167,-0.3600921630859375,1.02850341796875,1.626312255859375,13040.55456879167,-2.424621129297654,-1.809652305272571,-0.8306423961869225,-0.899263858795166,-0.8579637408256531,-1.181674957275391,0.1671565175056458,0.2383043766021729,1.250659823417664,XArbitraryZVertical,-0.7611950054624427,-0.0189965847637538,-0.418047438496431,0.4954365820989945,-0.6552544236183167,0.7383647561073303,0.1595574170351028,0,0,0,-1,-1,13033.96356004167,unknown,2,2025-04-21T10:59:39.965+03:00,2025-04-20T21:57:49.637+03:00,1517,1.088974,0,0,1136.478,1,4,2025-04-21T10:59:45.124+03:00,766915185.2267745,0,-47.58,100.3032,1,0.65,2025-04-21T10:59:41.766+03:00,102,1.7,2025-04-21T09:28:58.093+03:00,0.01174319131481236,0
