loggingTime(txt),locationTimestamp_since1970(s),locationLatitude(WGS84),locationLongitude(WGS84),locationAltitude(m),locationSpeed(m/s),locationSpeedAccuracy(m/s),locationCourse(°),locationCourseAccuracy(°),locationVerticalAccuracy(m),locationHorizontalAccuracy(m),locationFloor(Z),accelerometerTimestamp_sinceReboot(s),accelerometerAccelerationX(G),accelerometerAccelerationY(G),accelerometerAccelerationZ(G),motionTimestamp_sinceReboot(s),motionYaw(rad),motionRoll(rad),motionPitch(rad),motionRotationRateX(rad/s),motionRotationRateY(rad/s),motionRotationRateZ(rad/s),motionUserAccelerationX(G),motionUserAccelerationY(G),motionUserAccelerationZ(G),motionAttitudeReferenceFrame(txt),motionQuaternionX(R),motionQuaternionY(R),motionQuaternionZ(R),motionQuaternionW(R),motionGravityX(G),motionGravityY(G),motionGravityZ(G),motionMagneticFieldX(µT),motionMagneticFieldY(µT),motionMagneticFieldZ(µT),motionHeading(°),motionMagneticFieldCalibrationAccuracy(Z),activityTimestamp_sinceReboot(s),activity(txt),activityActivityConfidence(Z),activityActivityStartDate(txt),pedometerStartDate(txt),pedometerNumberofSteps(N),pedometerAverageActivePace(s/m),pedometerCurrentPace(s/m),pedometerCurrentCadence(steps/s),pedometerDistance(m),pedometerFloorAscended(N),pedometerFloorDescended(N),pedometerEndDate(txt),altimeterTimestamp_sinceReboot(s),altimeterReset(bool),altimeterRelativeAltitude(m),altimeterPressure(kPa),batteryState(N),batteryLevel(R),heartRateBPMTimestamp(txt),heartRateBPM(N),heartRateBPS(R),heartRateVariabilityTimestamp(txt),heartRateVariability(ms),label
2025-04-30T12:05:26.099+03:00,1746003925.099867,40.95226695023776,29.14029258169347,76.49437,-1,-1,-1,-1,30,23.52888653378506,-9999,11629.877124125,-0.5960235595703125,0.6376190185546875,-0.4875640869140625,11629.872086125,-0.257544591461518,-0.8700991071794641,-0.6900589446336418,-0.01878760941326618,-0.02139976434409618,-0.0155678354203701,-0.01304805278778076,-0.01107901334762573,0.006743669509887695,XArbitraryZVertical,0.3551111945316092,0.3539454010197169,-0.03177481435154113,-0.8646440221688092,-0.5895063877105713,0.636582612991333,-0.4972373843193054,0,0,0,-1,-1,11626.41096479167,unknown,2,2025-04-30T12:05:22.605+03:00,2025-04-30T12:00:08.093+03:00,78,0.8511127,0,0,67.24366,0,0,2025-04-30T12:05:25.185+03:00,767696725.2885216,0,1.72,100.9503,1,0.8,2025-04-30T12:05:06.899+03:00,94,1.566666666666667,2025-04-22T14:20:19.516+03:00,0.02197104130929222,0
2025-04-30T12:05:26.100+03:00,1746003925.099867,40.95226695023776,29.14029258169347,76.49437,-1,-1,-1,-1,30,23.52888653378506,-9999,11629.887200125,-0.5834503173828125,0.644927978515625,-0.4878997802734375,11629.882162125,-0.2578162051041981,-0.8704761310201884,-0.6900084403313181,-0.01329823583364487,-0.01489679142832756,-0.01372622698545456,-0.006305277347564697,0.001075387001037598,0.0094718337059021,XArbitraryZVertical,0.3551323864521244,0.354066506010859,-0.031713416265879,-0.8645879652433768,-0.5897183418273926,0.6365436911582947,-0.497035801410675,0,0,0,-1,-1,11626.41096479167,unknown,2,2025-04-30T12:05:22.605+03:00,2025-04-30T12:00:08.093+03:00,78,0.8511127,0,0,67.24366,0,0,2025-04-30T12:05:25.185+03:00,767696725.2885216,0,1.72,100.9503,1,0.8,2025-04-30T12:05:06.899+03:00,94,1.566666666666667,2025-04-22T14:20:19.516+03:00,0.02197104130929222,0
2025-04-30T12:05:26.102+03:00,1746003925.099867,40.95226695023776,29.14029258169347,76.49437,-1,-1,-1,-1,30,23.52888653378506,-9999,11629.897276125,-0.595977783203125,0.6342926025390625,-0.49395751953125,11629.892238125,-0.2580370822806931,-0.8707008176401715,-0.6899093124792534,-0.007968184538185596,-0.00815180316567421,-0.01654092222452164,0.0064278244972229,0.008460819721221924,0.009044229984283447,XArbitraryZVertical,0.3551269153715114,0.3541368701490834,-0.03163638423969973,-0.8645641747235804,-0.589878261089325,0.6364672183990479,-0.4969438910484314,0,0,0,-1,-1,11626.41096479167,unknown,2,2025-04-30T12:05:22.605+03:00,2025-04-30T12:00:08.093+03:00,78,0.8511127,0,0,67.24366,0,0,2025-04-30T12:05:25.185+03:00,767696725.2885216,0,1.72,100.9503,1,0.8,2025-04-30T12:05:06.899+03:00,94,1.566666666666667,2025-04-22T14:20:19.516+03:00,0.02197104130929222,0
2025-04-30T12:05:26.108+03:00,1746003925.099867,40.95226695023776,29.14029258169347,76.49437,-1,-1,-1,-1,30,23.52888653378506,-9999,11629.907352125,-0.5897674560546875,0.6334228515625,-0.49542236328125,11629.902314125,-0.2582480362310343,-0.8709056814085561,-0.6897899707747148,-0.008597557432949543,-0.01122702099382877,-0.01889465749263763,-0.005939722061157227,-0.002082586288452148,0.002914518117904663,XArbitraryZVertical,0.3551116587261345,0.35420297308684,-0.03155574617051751,-0.8645462499880494,-0.5900380611419678,0.6363751888275146,-0.4968719184398651,0,0,0,-1,-1,11626.41096479167,unknown,2,2025-04-30T12:05:22.605+03:00,2025-04-30T12:00:08.093+03:00,78,0.8511127,0,0,67.24366,0,0,2025-04-30T12:05:25.185+03:00,767696725.2885216,0,1.72,100.9503,1,0.8,2025-04-30T12:05:06.899+03:00,94,1.566666666666667,2025-04-22T14:20:19.516+03:00,0.02197104130929222,0
2025-04-30T12:05:26.116+03:00,1746003925.099867,40.95226695023776,29.14029258169347,76.49437,-1,-1,-1,-1,30,23.52888653378506,-9999,11629.917428125,-0.5833282470703125,0.6339874267578125,-0.4958343505859375,11629.912390125,-0.2584428655567635,-0.8711483207285817,-0.6896360043848554,-0.003379092551767826,-0.01350349187850952,-0.01873832941055298,0.0004661083221435547,-0.002833545207977295,0.001369565725326538,XArbitraryZVertical,0.3550786231061501,0.3542926185283767,-0.03148126280841784,-0.8645257865026752,-0.5902335643768311,0.6362563967704773,-0.496791809797287,0,0,0,-1,-1,11626.41096479167,unknown,2,2025-04-30T12:05:22.605+03:00,2025-04-30T12:00:08.093+03:00,78,0.8511127,0,0,67.24366,0,0,2025-04-30T12:05:25.185+03:00,767696725.2885216,0,1.72,100.9503,1,0.8,2025-04-30T12:05:06.899+03:00,94,1.566666666666667,2025-04-22T14:20:19.516+03:00,0.02197104130929222,0
2025-04-30T12:05:26.127+03:00,1746003925.099867,40.95226695023776,29.14029258169347,76.49437,-1,-1,-1,-1,30,23.52888653378506,-9999,11629.927504125,-0.5839385986328125,0.6293182373046875,-0.4999542236328125,11629.922466125,-0.2586614656417793,-0.8714204659499367,-0.6895420737647604,-0.01110572181642056,-0.01743511669337749,-0.01603162474930286,0.007086217403411865,-0.002196431159973145,0.000835418701171875,XArbitraryZVertical,0.3550741829661196,0.3543832471363824,-0.03141472132083288,-0.8644929274819843,-0.5904145240783691,0.6361839175224304,-0.4966696798801422,0,0,0,-1,-1,11626.41096479167,unknown,2,2025-04-30T12:05:22.605+03:00,2025-04-30T12:00:08.093+03:00,78,0.8511127,0,0,67.24366,0,0,2025-04-30T12:05:25.185+03:00,767696725.2885216,0,1.72,100.9503,1,0.8,2025-04-30T12:05:06.899+03:00,94,1.566666666666667,2025-04-22T14:20:19.516+03:00,0.02197104130929222,0
2025-04-30T12:05:26.137+03:00,1746003925.099867,40.95226695023776,29.14029258169347,76.49437,-1,-1,-1,-1,30,23.52888653378506,-9999,11629.937580125,-0.58477783203125,0.6243133544921875,-0.4985504150390625,11629.932542125,-0.2588984815865852,-0.8717632022747499,-0.6895804045030161,-0.01239895354956388,-0.02482565492391586,-0.0165429525077343,0.006627380847930908,-0.006895184516906738,-0.003502488136291504,XArbitraryZVertical,0.3551266508219802,0.3544844775078207,-0.03138142090517636,-0.8644311265218708,-0.590566098690033,0.6362135410308838,-0.4964516460895538,0,0,0,-1,-1,11626.41096479167,unknown,2,2025-04-30T12:05:22.605+03:00,2025-04-30T12:00:08.093+03:00,78,0.8511127,0,0,67.24366,0,0,2025-04-30T12:05:25.185+03:00,767696725.2885216,0,1.72,100.9503,1,0.8,2025-04-30T12:05:06.899+03:00,94,1.566666666666667,2025-04-22T14:20:19.516+03:00,0.02197104130929222,0
2025-04-30T12:05:26.147+03:00,1746003925.099867,40.95226695023776,29.14029258169347,76.49437,-1,-1,-1,-1,30,23.52888653378506,-9999,11629.947656125,-0.5887451171875,0.62835693359375,-0.494384765625,11629.942618125,-0.2591507199907548,-0.8721300661259032,-0.6896267830235697,-0.01667918637394905,-0.0213472992181778,-0.01203661691397429,0.005947649478912354,-0.01193588972091675,-0.002334356307983398,XArbitraryZVertical,0.3551848059054084,0.3545924083182863,-0.03134761162926275,-0.8643641779952119,-0.5907255411148071,0.636249303817749,-0.4962159693241119,0,0,0,-1,-1,11626.41096479167,unknown,2,2025-04-30T12:05:22.605+03:00,2025-04-30T12:00:08.093+03:00,78,0.8511127,0,0,67.24366,0,0,2025-04-30T12:05:25.185+03:00,767696725.2885216,0,1.72,100.9503,1,0.8,2025-04-30T12:05:06.899+03:00,94,1.566666666666667,2025-04-22T14:20:19.516+03:00,0.02197104130929222,0
2025-04-30T12:05:26.157+03:00,1746003925.099867,40.95226695023776,29.14029258169347,76.49437,-1,-1,-1,-1,30,23.52888653378506,-9999,11629.957733125,-0.5913543701171875,0.6324920654296875,-0.490203857421875,11629.952694125,-0.2594466711082249,-0.8725817415299545,-0.6895790498205217,-0.01366022601723671,-0.02183945290744305,-0.01505584269762039,0.002227663993835449,-0.007855474948883057,0.00158393383026123,XArbitraryZVertical,0.3552104748739455,0.3547410607256863,-0.03128958052997621,-0.8642947141837445,-0.590972900390625,0.6362124681472778,-0.4959686100482941,0,0,0,-1,-1,11626.41096479167,unknown,2,2025-04-30T12:05:22.605+03:00,2025-04-30T12:00:08.093+03:00,78,0.8511127,0,0,67.24366,0,0,2025-04-30T12:05:25.185+03:00,767696725.2885216,0,1.72,100.9503,1,0.8,2025-04-30T12:05:06.899+03:00,94,1.566666666666667,2025-04-22T14:20:19.516+03:00,0.02197104130929222,0
2025-04-30T12:05:26.167+03:00,1746003925.099867,40.95226695023776,29.14029258169347,76.49437,-1,-1,-1,-1,30,23.52888653378506,-9999,11629.967809125,-0.592529296875,0.6349029541015625,-0.4912109375,11629.962771125,-0.2597259358033756,-0.8730038045894608,-0.6895622644765393,-0.01011868752539158,-0.02130435593426228,-0.01498350407928228,-0.0001640915870666504,-0.003707408905029297,0.005522221326828003,XArbitraryZVertical,0.3552465041605671,0.3548759727600367,-0.03124024899770082,-0.8642262271049281,-0.5911902785301208,0.6361995339393616,-0.4957259297370911,0,0,0,-1,-1,11626.41096479167,unknown,2,2025-04-30T12:05:22.605+03:00,2025-04-30T12:00:08.093+03:00,78,0.8511127,0,0,67.24366,0,0,2025-04-30T12:05:25.185+03:00,767696725.2885216,0,1.72,100.9503,1,0.8,2025-04-30T12:05:06.899+03:00,94,1.566666666666667,2025-04-22T14:20:19.516+03:00,0.02197104130929222,0
2025-04-30T12:05:26.177+03:00,1746003925.099867,40.95226695023776,29.14029258169347,76.49437,-1,-1,-1,-1,30,23.52888653378506,-9999,11629.977885125,-0.596282958984375,0.635040283203125,-0.4932403564453125,11629.972847125,-0.2599080688564892,-0.873284275792652,-0.6895495182932341,-0.003151858691126108,-0.01212763600051403,-0.0121869184076786,-0.001193821430206299,-0.001286685466766357,0.004354536533355713,XArbitraryZVertical,0.355269179693791,0.3549664219677149,-0.03120860539265409,-0.8641808895056386,-0.5913354754447937,0.6361896991729736,-0.4955652952194214,0,0,0,-1,-1,11626.41096479167,unknown,2,2025-04-30T12:05:22.605+03:00,2025-04-30T12:00:08.093+03:00,78,0.8511127,0,0,67.24366,0,0,2025-04-30T12:05:25.185+03:00,767696725.2885216,0,1.72,100.9503,1,0.8,2025-04-30T12:05:06.899+03:00,94,1.566666666666667,2025-04-22T14:20:19.516+03:00,0.02197104130929222,0
2025-04-30T12:05:26.187+03:00,1746003925.099867,40.95226695023776,29.14029258169347,76.49437,-1,-1,-1,-1,30,23.52888653378506,-9999,11629.987961125,-0.59674072265625,0.6387176513671875,-0.490234375,11629.982923125,-0.260008525345747,-0.8734587481349929,-0.6894560304896786,0.001179706421680748,-0.009698633104562759,-0.01290986780077219,-0.004815340042114258,-0.001077175140380859,0.002260208129882812,XArbitraryZVertical,0.3552455606264956,0.3550357288543913,-0.03117582304073531,-0.8641634965886323,-0.5914676785469055,0.6361175775527954,-0.4955004453659058,0,0,0,-1,-1,11626.41096479167,unknown,2,2025-04-30T12:05:22.605+03:00,2025-04-30T12:00:08.093+03:00,78,0.8511127,0,0,67.24366,0,0,2025-04-30T12:05:25.185+03:00,767696725.2885216,0,1.72,100.9503,1,0.8,2025-04-30T12:05:06.899+03:00,94,1.566666666666667,2025-04-22T14:20:19.516+03:00,0.02197104130929222,0
2025-04-30T12:05:26.197+03:00,1746003925.099867,40.95226695023776,29.14029258169347,76.49437,-1,-1,-1,-1,30,23.52888653378506,-9999,11629.998037125,-0.592132568359375,0.6392059326171875,-0.48876953125,11629.992999125,-0.2600945589563985,-0.8736083632167833,-0.6893213175762828,0.006353163160383701,-0.007655723486095667,-0.01326326932758093,-0.005133330821990967,0.002704143524169922,0.005232632160186768,XArbitraryZVertical,0.3552028177401427,0.3551020987895021,-0.03113598142713253,-0.8641551659840664,-0.5916074514389038,0.6360136270523071,-0.4954669177532196,0,0,0,-1,-1,11626.41096479167,unknown,2,2025-04-30T12:05:22.605+03:00,2025-04-30T12:00:08.093+03:00,78,0.8511127,0,0,67.24366,0,0,2025-04-30T12:05:25.185+03:00,767696725.2885216,0,1.72,100.9503,1,0.8,2025-04-30T12:05:06.899+03:00,94,1.566666666666667,2025-04-22T14:20:19.516+03:00,0.02197104130929222,0
2025-04-30T12:05:26.207+03:00,1746003925.099867,40.95226695023776,29.14029258169347,76.49437,-1,-1,-1,-1,30,23.52888653378506,-9999,11630.008113125,-0.5932464599609375,0.632598876953125,-0.4907379150390625,11630.003075125,-0.2601224527200946,-0.8736692744374485,-0.6891674252273091,0.009363333694636822,-0.005022655241191387,-0.01288390159606934,-0.0004200339317321777,0.0033111572265625,0.006724238395690918,XArbitraryZVertical,0.3551431900204317,0.3551428824813435,-0.03110131924476245,-0.8641641380430961,-0.5917126536369324,0.6358948349952698,-0.4954937100410461,0,0,0,-1,-1,11626.41096479167,unknown,2,2025-04-30T12:05:22.605+03:00,2025-04-30T12:00:08.093+03:00,78,0.8511127,0,0,67.24366,0,0,2025-04-30T12:05:25.185+03:00,767696725.2885216,0,1.72,100.9503,1,0.8,2025-04-30T12:05:06.899+03:00,94,1.566666666666667,2025-04-22T14:20:19.516+03:00,0.02197104130929222,0
2025-04-30T12:05:26.217+03:00,1746003925.099867,40.95226695023776,29.14029258169347,76.49437,-1,-1,-1,-1,30,23.52888653378506,-9999,11630.018189125,-0.5921783447265625,0.6315765380859375,-0.493438720703125,11630.013151125,-0.2601557182721814,-0.8737175107344062,-0.6889896546120727,0.005836510099470615,-0.007360644638538361,-0.01808186061680317,-0.001423299312591553,-0.003158748149871826,0.004799872636795044,XArbitraryZVertical,0.3550748543392017,0.355180255160809,-0.03105690750299145,-0.8641783900633266,-0.5918231606483459,0.6357576251029968,-0.495537668466568,0,0,0,-1,-1,11626.41096479167,unknown,2,2025-04-30T12:05:22.605+03:00,2025-04-30T12:00:08.093+03:00,78,0.8511127,0,0,67.24366,0,0,2025-04-30T12:05:25.185+03:00,767696725.2885216,0,1.72,100.9503,1,0.8,2025-04-30T12:05:06.899+03:00,94,1.566666666666667,2025-04-22T14:20:19.516+03:00,0.02197104130929222,0
2025-04-30T12:05:26.227+03:00,1746003925.099867,40.95226695023776,29.14029258169347,76.49437,-1,-1,-1,-1,30,23.52888653378506,-9999,11630.028265125,-0.5880126953125,0.628753662109375,-0.495697021484375,11630.023227125,-0.2602554851479845,-0.8738180743365279,-0.6888166557637155,0.0005049280007369816,-0.005095027387142181,-0.0169190913438797,-0.0002210736274719238,-0.0040474534034729,0.002110183238983154,XArbitraryZVertical,0.3550194543241321,0.3552278158674544,-0.03099404588370924,-0.8641838993803627,-0.5919573307037354,0.6356241106987,-0.4955487847328186,0,0,0,-1,-1,11626.41096479167,unknown,2,2025-04-30T12:05:22.605+03:00,2025-04-30T12:00:08.093+03:00,78,0.8511127,0,0,67.24366,0,0,2025-04-30T12:05:25.185+03:00,767696725.2885216,0,1.72,100.9503,1,0.8,2025-04-30T12:05:06.899+03:00,94,1.566666666666667,2025-04-22T14:20:19.516+03:00,0.02197104130929222,0
2025-04-30T12:05:26.237+03:00,1746003925.099867,40.95226695023776,29.14029258169347,76.49437,-1,-1,-1,-1,30,23.52888653378506,-9999,11630.038341125,-0.5897216796875,0.6261444091796875,-0.4950103759765625,11630.033303125,-0.2604233249240012,-0.8739999310628649,-0.6886938627762339,-0.006130870431661606,-0.009190170094370842,-0.01970928534865379,0.004094600677490234,-0.006775557994842529,-0.000205695629119873,XArbitraryZVertical,0.3549956535655709,0.3552920880951526,-0.03092709957136054,-0.8641697055749311,-0.592107355594635,0.6355292797088623,-0.495491236448288,0,0,0,-1,-1,11626.41096479167,unknown,2,2025-04-30T12:05:22.605+03:00,2025-04-30T12:00:08.093+03:00,78,0.8511127,0,0,67.24366,0,0,2025-04-30T12:05:25.185+03:00,767696725.2885216,0,1.72,100.9503,1,0.8,2025-04-30T12:05:06.899+03:00,94,1.566666666666667,2025-04-22T14:20:19.516+03:00,0.02197104130929222,0
2025-04-30T12:05:26.247+03:00,1746003925.099867,40.95226695023776,29.14029258169347,76.49437,-1,-1,-1,-1,30,23.52888653378506,-9999,11630.048417125,-0.5926513671875,0.6263885498046875,-0.49774169921875,11630.043379125,-0.2606749820447893,-0.8742521391399025,-0.6886097244550481,-0.01093008648604155,-0.006416953168809414,-0.01790376007556915,0.002551555633544922,-0.009319782257080078,0.000365912914276123,XArbitraryZVertical,0.3550016565067439,0.3553670045769241,-0.03084482065508149,-0.864139432354525,-0.5922733545303345,0.6354643106460571,-0.4953762292861938,0,0,0,-1,-1,11626.41096479167,unknown,2,2025-04-30T12:05:22.605+03:00,2025-04-30T12:00:08.093+03:00,78,0.8511127,0,0,67.24366,0,0,2025-04-30T12:05:25.185+03:00,767696725.2885216,0,1.72,100.9503,1,0.8,2025-04-30T12:05:06.899+03:00,94,1.566666666666667,2025-04-22T14:20:19.516+03:00,0.02197104130929222,0
2025-04-30T12:05:26.258+03:00,1746003925.099867,40.95226695023776,29.14029258169347,76.49437,-1,-1,-1,-1,30,23.52888653378506,-9999,11630.058493125,-0.595001220703125,0.6311187744140625,-0.4954986572265625,11630.053455125,-0.2609612564750272,-0.8744872780518537,-0.6885602113409427,-0.01546038966625929,-0.005465139634907246,-0.01890404336154461,-0.0002375245094299316,-0.009037435054779053,-0.002484500408172607,XArbitraryZVertical,0.3550284512882527,0.3554240442150569,-0.03075212115584981,-0.8641082183790694,-0.5924139022827148,0.6354261040687561,-0.4952571094036102,0,0,0,-1,-1,11626.41096479167,unknown,2,2025-04-30T12:05:22.605+03:00,2025-04-30T12:00:08.093+03:00,78,0.8511127,0,0,67.24366,0,0,2025-04-30T12:05:25.185+03:00,767696725.2885216,0,1.72,100.9503,1,0.8,2025-04-30T12:05:06.899+03:00,94,1.566666666666667,2025-04-22T14:20:19.516+03:00,0.02197104130929222,0
2025-04-30T12:05:26.268+03:00,1746003925.099867,40.95226695023776,29.14029258169347,76.49437,-1,-1,-1,-1,30,23.52888653378506,-9999,11630.068569125,-0.5930938720703125,0.6324310302734375,-0.492523193359375,11630.063531125,-0.2612896790740007,-0.8747541736554012,-0.6884878970543438,-0.01143322419375181,-0.002875815145671368,-0.02196191810071468,-0.002420008182525635,-0.004251420497894287,-0.0003701448440551758,XArbitraryZVertical,0.3550528471916172,0.3554902002903969,-0.03064189478997898,-0.8640748409842015,-0.5925812721252441,0.6353702545166016,-0.4951283931732178,0,0,0,-1,-1,11626.41096479167,unknown,2,2025-04-30T12:05:22.605+03:00,2025-04-30T12:00:08.093+03:00,78,0.8511127,0,0,67.24366,0,0,2025-04-30T12:05:25.185+03:00,767696725.2885216,0,1.72,100.9503,1,0.8,2025-04-30T12:05:06.899+03:00,94,1.566666666666667,2025-04-22T14:20:19.516+03:00,0.02197104130929222,0
2025-04-30T12:05:26.278+03:00,1746003925.099867,40.95226695023776,29.14029258169347,76.49437,-1,-1,-1,-1,30,23.52888653378506,-9999,11630.078646125,-0.5906829833984375,0.632659912109375,-0.4944915771484375,11630.073607125,-0.2616012865457995,-0.8750056259527071,-0.688406688875947,-0.01303112041205168,-0.005625529214739799,-0.02101170271635056,-0.000348508358001709,-0.002876400947570801,0.002489387989044189,XArbitraryZVertical,0.3550708047663695,0.3555537762065335,-0.0305342237125155,-0.8640451630938816,-0.5927454233169556,0.6353075504302979,-0.4950124621391296,0,0,0,-1,-1,11626.41096479167,unknown,2,2025-04-30T12:05:22.605+03:00,2025-04-30T12:00:08.093+03:00,78,0.8511127,0,0,67.24366,0,0,2025-04-30T12:05:25.185+03:00,767696725.2885216,0,1.72,100.9503,1,0.8,2025-04-30T12:05:06.899+03:00,94,1.566666666666667,2025-04-22T14:20:19.516+03:00,0.02197104130929222,0
2025-04-30T12:05:26.288+03:00,1746003925.099867,40.95226695023776,29.14029258169347,76.49437,-1,-1,-1,-1,30,23.52888653378506,-9999,11630.088722125,-0.5934295654296875,0.62725830078125,-0.4928131103515625,11630.083684125,-0.2619326015565667,-0.8752719075053894,-0.6883609884969091,-0.01548329275101423,-0.0008980846032500267,-0.01938820630311966,0.002216458320617676,-0.00261223316192627,0.0003817081451416016,XArbitraryZVertical,0.3551067628810756,0.3556157730005919,-0.03042842126302494,-0.8640085993271472,-0.5928995013237,0.6352722644805908,-0.4948732256889343,0,0,0,-1,-1,11626.41096479167,unknown,2,2025-04-30T12:05:22.605+03:00,2025-04-30T12:00:08.093+03:00,78,0.8511127,0,0,67.24366,0,0,2025-04-30T12:05:25.185+03:00,767696725.2885216,0,1.72,100.9503,1,0.8,2025-04-30T12:05:06.899+03:00,94,1.566666666666667,2025-04-22T14:20:19.516+03:00,0.02197104130929222,0
2025-04-30T12:05:26.298+03:00,1746003925.099867,40.95226695023776,29.14029258169347,76.49437,-1,-1,-1,-1,30,23.52888653378506,-9999,11630.098798125,-0.5970611572265625,0.6318817138671875,-0.4922637939453125,11630.093760125,-0.2622651352074208,-0.8754863180801734,-0.6883069776095885,-0.01419778540730476,0.001568002160638571,-0.01966703869402409,-0.0003976821899414062,-0.007972121238708496,0.001955032348632812,XArbitraryZVertical,0.3551402918181372,0.3556561808670811,-0.0303110563463986,-0.8639823738314882,-0.5930320024490356,0.635230541229248,-0.4947681128978729,0,0,0,-1,-1,11626.41096479167,unknown,2,2025-04-30T12:05:22.605+03:00,2025-04-30T12:00:08.093+03:00,78,0.8511127,0,0,67.24366,0,0,2025-04-30T12:05:25.185+03:00,767696725.2885216,0,1.72,100.9503,1,0.8,2025-04-30T12:05:06.899+03:00,94,1.566666666666667,2025-04-22T14:20:19.516+03:00,0.02197104130929222,0
2025-04-30T12:05:26.308+03:00,1746003925.099867,40.95226695023776,29.14029258169347,76.49437,-1,-1,-1,-1,30,23.52888653378506,-9999,11630.108874125,-0.59588623046875,0.6357421875,-0.49237060546875,11630.103836125,-0.2625711847493684,-0.8756341541834984,-0.6882353065206219,-0.01440804172307253,0.005457415711134672,-0.01885484158992767,-0.003921270370483398,-0.003293395042419434,0.002445816993713379,XArbitraryZVertical,0.3551629038098073,0.3556747939857383,-0.03018952796530549,-0.863969553293353,-0.5931400060653687,0.6351751685142517,-0.4947094917297363,0,0,0,-1,-1,11626.41096479167,unknown,2,2025-04-30T12:05:22.605+03:00,2025-04-30T12:00:08.093+03:00,78,0.8511127,0,0,67.24366,0,0,2025-04-30T12:05:25.185+03:00,767696725.2885216,0,1.72,100.9503,1,0.8,2025-04-30T12:05:06.899+03:00,94,1.566666666666667,2025-04-22T14:20:19.516+03:00,0.02197104130929222,0
2025-04-30T12:05:26.319+03:00,1746003925.099867,40.95226695023776,29.14029258169347,76.49437,-1,-1,-1,-1,30,23.52888653378506,-9999,11630.118950125,-0.5923004150390625,0.6313018798828125,-0.495147705078125,11630.113912125,-0.2628900739838914,-0.875765618270497,-0.6881824425887598,-0.02051999792456627,0.006935203913599253,-0.0192231573164463,-0.002655506134033203,0.000607907772064209,0.002282559871673584,XArbitraryZVertical,0.3551957889295945,0.3556816527140517,-0.03006360358298165,-0.8639576008351131,-0.5932307839393616,0.6351343393325806,-0.4946530163288116,0,0,0,-1,-1,11626.41096479167,unknown,2,2025-04-30T12:05:22.605+03:00,2025-04-30T12:00:08.093+03:00,78,0.8511127,0,0,67.24366,0,0,2025-04-30T12:05:25.185+03:00,767696725.2885216,0,1.72,100.9503,1,0.8,2025-04-30T12:05:06.899+03:00,94,1.566666666666667,2025-04-22T14:20:19.516+03:00,0.02197104130929222,0
2025-04-30T12:05:26.328+03:00,1746003925.099867,40.95226695023776,29.14029258169347,76.49437,-1,-1,-1,-1,30,23.52888653378506,-9999,11630.129026125,-0.588104248046875,0.629730224609375,-0.497161865234375,11630.123988125,-0.2632433092073624,-0.8759274468459789,-0.6881608925400355,-0.02071713656187057,0.004984105471521616,-0.01633139699697495,0.001020908355712891,-0.003815770149230957,-0.0005818009376525879,XArbitraryZVertical,0.3552472673081514,0.3556915486467752,-0.02993505233817207,-0.8639368525455211,-0.5933213829994202,0.6351177096366882,-0.4945658147335052,0,0,0,-1,-1,11626.41096479167,unknown,2,2025-04-30T12:05:22.605+03:00,2025-04-30T12:00:08.093+03:00,78,0.8511127,0,0,67.24366,0,0,2025-04-30T12:05:25.185+03:00,767696725.2885216,0,1.72,100.9503,1,0.8,2025-04-30T12:05:06.899+03:00,94,1.566666666666667,2025-04-22T14:20:19.516+03:00,0.02197104130929222,0
2025-04-30T12:05:26.338+03:00,1746003925.099867,40.95226695023776,29.14029258169347,76.49437,-1,-1,-1,-1,30,23.52888653378506,-9999,11630.139102125,-0.58929443359375,0.6334228515625,-0.49517822265625,11630.134064125,-0.2635522374928512,-0.8760781497260475,-0.6881188990557302,-0.01521478034555912,0.001193095929920673,-0.01641315594315529,0.005312085151672363,-0.005354940891265869,-0.002668321132659912,XArbitraryZVertical,0.3552825994359975,0.3557070961339274,-0.02981921487537307,-0.8639199521371671,-0.5934163928031921,0.6350852847099304,-0.4944934844970703,0,0,0,-1,-1,11626.41096479167,unknown,2,2025-04-30T12:05:22.605+03:00,2025-04-30T12:00:08.093+03:00,78,0.8511127,0,0,67.24366,0,0,2025-04-30T12:05:25.185+03:00,767696725.2885216,0,1.72,100.9503,1,0.8,2025-04-30T12:05:06.899+03:00,94,1.566666666666667,2025-04-22T14:20:19.516+03:00,0.02197104130929222,0
2025-04-30T12:05:26.348+03:00,1746003925.099867,40.95226695023776,29.14029258169347,76.49437,-1,-1,-1,-1,30,23.52888653378506,-9999,11630.149178125,-0.588287353515625,0.6341094970703125,-0.4951019287109375,11630.144140125,-0.2638792589798028,-0.8762855683067957,-0.6880902421419618,-0.02039695717394352,-0.002137919422239065,-0.01749130338430405,0.004238426685333252,-0.001640260219573975,-0.0007961094379425049,XArbitraryZVertical,0.3553258775173603,0.3557422501465416,-0.02970859466451045,-0.8638913788926881,-0.5935328602790833,0.635063111782074,-0.4943819344043732,0,0,0,-1,-1,11626.41096479167,unknown,2,2025-04-30T12:05:22.605+03:00,2025-04-30T12:00:08.093+03:00,78,0.8511127,0,0,67.24366,0,0,2025-04-30T12:05:25.185+03:00,767696725.2885216,0,1.72,100.9503,1,0.8,2025-04-30T12:05:06.899+03:00,94,1.566666666666667,2025-04-22T14:20:19.516+03:00,0.02197104130929222,0
2025-04-30T12:05:26.362+03:00,1746003925.099867,40.95226695023776,29.14029258169347,76.49437,-1,-1,-1,-1,30,23.52888653378506,-9999,11630.159254125,-0.58685302734375,0.6307220458984375,-0.495025634765625,11630.154216125,-0.2642411681315076,-0.8765521421981369,-0.6880870023202098,-0.0233493372797966,-0.004866593983024359,-0.01717731729149818,0.005378901958465576,-0.0009510517120361328,-0.0008767247200012207,XArbitraryZVertical,0.3553849106325406,0.3557934785530266,-0.02959888020912782,-0.8638499146845071,-0.5936663150787354,0.6350606083869934,-0.4942251443862915,0,0,0,-1,-1,11626.41096479167,unknown,2,2025-04-30T12:05:22.605+03:00,2025-04-30T12:00:08.093+03:00,78,0.8511127,0,0,67.24366,0,0,2025-04-30T12:05:25.185+03:00,767696725.2885216,0,1.72,100.9503,1,0.8,2025-04-30T12:05:06.899+03:00,94,1.566666666666667,2025-04-22T14:20:19.516+03:00,0.02197104130929222,0
2025-04-30T12:05:26.369+03:00,1746003925.099867,40.95226695023776,29.14029258169347,76.49437,-1,-1,-1,-1,30,23.52888653378506,-9999,11630.169330125,-0.5898284912109375,0.62933349609375,-0.4925537109375,11630.164292125,-0.2646277283770198,-0.8768381543083855,-0.6881024248675642,-0.02588420175015926,-0.002593918703496456,-0.01927844993770123,0.006946980953216553,-0.004350483417510986,-0.0009765326976776123,XArbitraryZVertical,0.3554558780260813,0.355846375014819,-0.02948615808273045,-0.8638026445071033,-0.5938000082969666,0.6350725293159485,-0.4940489530563354,0,0,0,-1,-1,11626.41096479167,unknown,2,2025-04-30T12:05:22.605+03:00,2025-04-30T12:00:08.093+03:00,78,0.8511127,0,0,67.24366,0,0,2025-04-30T12:05:25.185+03:00,767696725.2885216,0,1.72,100.9503,1,0.8,2025-04-30T12:05:06.899+03:00,94,1.566666666666667,2025-04-22T14:20:19.516+03:00,0.02197104130929222,0
2025-04-30T12:05:26.378+03:00,1746003925.099867,40.95226695023776,29.14029258169347,76.49437,-1,-1,-1,-1,30,23.52888653378506,-9999,11630.179406125,-0.5965423583984375,0.6298828125,-0.490325927734375,11630.174368125,-0.2650113672604681,-0.8771053382940091,-0.6880871237450725,-0.02111527882516384,0.0006354302167892456,-0.01689731888473034,0.004110991954803467,-0.005727112293243408,0.001342952251434326,XArbitraryZVertical,0.355513846136121,0.3558955087158254,-0.02936457606594264,-0.8637628119953271,-0.5939396023750305,0.635060727596283,-0.4938965737819672,0,0,0,-1,-1,11626.41096479167,unknown,2,2025-04-30T12:05:22.605+03:00,2025-04-30T12:00:08.093+03:00,78,0.8511127,0,0,67.24366,0,0,2025-04-30T12:05:25.185+03:00,767696725.2885216,0,1.72,100.9503,1,0.8,2025-04-30T12:05:06.899+03:00,94,1.566666666666667,2025-04-22T14:20:19.516+03:00,0.02197104130929222,0
2025-04-30T12:05:26.388+03:00,1746003925.099867,40.95226695023776,29.14029258169347,76.49437,-1,-1,-1,-1,30,23.52888653378506,-9999,11630.189483125,-0.597015380859375,0.632354736328125,-0.4901275634765625,11630.184444125,-0.2653232395602307,-0.8772938811874562,-0.688061272727319,-0.01451583299785852,0.001909353071823716,-0.01557712350040674,-0.00249713659286499,-0.005157887935638428,0.003469198942184448,XArbitraryZVertical,0.3555559502955325,0.3559248044370883,-0.02925779965120833,-0.8637369132235434,-0.5940452218055725,0.6350407600402832,-0.4937950074672699,0,0,0,-1,-1,11626.41096479167,unknown,2,2025-04-30T12:05:22.605+03:00,2025-04-30T12:00:08.093+03:00,78,0.8511127,0,0,67.24366,0,0,2025-04-30T12:05:25.185+03:00,767696725.2885216,0,1.72,100.9503,1,0.8,2025-04-30T12:05:06.899+03:00,94,1.566666666666667,2025-04-22T14:20:19.516+03:00,0.02197104130929222,0
2025-04-30T12:05:26.398+03:00,1746003925.099867,40.95226695023776,29.14029258169347,76.49437,-1,-1,-1,-1,30,23.52888653378506,-9999,11630.199559125,-0.5937347412109375,0.6310272216796875,-0.489105224609375,11630.194521125,-0.2655554398656119,-0.8774257639085102,-0.6880096687674012,-0.005498103331774473,0.002338920952752233,-0.01344686094671488,-0.002879858016967773,-0.002646148204803467,0.003610163927078247,XArbitraryZVertical,0.3555740308197351,0.3559470485243723,-0.02916968893083871,-0.8637233104882338,-0.594135582447052,0.6350008845329285,-0.4937376081943512,0,0,0,-1,-1,11626.41096479167,unknown,2,2025-04-30T12:05:22.605+03:00,2025-04-30T12:00:08.093+03:00,78,0.8511127,0,0,67.24366,0,0,2025-04-30T12:05:25.185+03:00,767696725.2885216,0,1.72,100.9503,1,0.8,2025-04-30T12:05:06.899+03:00,94,1.566666666666667,2025-04-22T14:20:19.516+03:00,0.02197104130929222,0
2025-04-30T12:05:26.409+03:00,1746003925.099867,40.95226695023776,29.14029258169347,76.49437,-1,-1,-1,-1,30,23.52888653378506,-9999,11630.209635125,-0.5929412841796875,0.631011962890625,-0.487518310546875,11630.204597125,-0.2657274041155473,-0.8774713022766212,-0.6879330835526077,-0.005615282338112593,0.007532618008553982,-0.01193005777895451,0.0004606842994689941,-0.003914475440979004,0.004636496305465698,XArbitraryZVertical,0.3555723581365877,0.3559459039904574,-0.02908680000172579,-0.8637272469270869,-0.5941954255104065,0.6349416971206665,-0.4937416315078735,0,0,0,-1,-1,11626.41096479167,unknown,2,2025-04-30T12:05:22.605+03:00,2025-04-30T12:00:08.093+03:00,78,0.8511127,0,0,67.24366,0,0,2025-04-30T12:05:25.185+03:00,767696725.2885216,0,1.72,100.9503,1,0.8,2025-04-30T12:05:06.899+03:00,94,1.566666666666667,2025-04-22T14:20:19.516+03:00,0.02197104130929222,0
2025-04-30T12:05:26.419+03:00,1746003925.099867,40.95226695023776,29.14029258169347,76.49437,-1,-1,-1,-1,30,23.52888653378506,-9999,11630.219711125,-0.5905303955078125,0.635498046875,-0.4888916015625,11630.214673125,-0.26583516883216,-0.8774669785266663,-0.6878582588244286,-0.0006615365855395794,0.00449847849085927,-0.01021950878202915,0.001288533210754395,-0.003871917724609375,0.006256371736526489,XArbitraryZVertical,0.3555607017153877,0.3559344129025825,-0.02902314450391115,-0.8637389332685691,-0.5942298173904419,0.6348839402198792,-0.4937745630741119,0,0,0,-1,-1,11626.41096479167,unknown,2,2025-04-30T12:05:22.605+03:00,2025-04-30T12:00:08.093+03:00,78,0.8511127,0,0,67.24366,0,0,2025-04-30T12:05:25.185+03:00,767696725.2885216,0,1.72,100.9503,1,0.8,2025-04-30T12:05:06.899+03:00,94,1.566666666666667,2025-04-22T14:20:19.516+03:00,0.02197104130929222,0
2025-04-30T12:05:26.429+03:00,1746003925.099867,40.95226695023776,29.14029258169347,76.49437,-1,-1,-1,-1,30,23.52888653378506,-9999,11630.229787125,-0.5863494873046875,0.6325836181640625,-0.4909210205078125,11630.224749125,-0.2659661446618647,-0.8775336792978833,-0.6877950479756813,-0.006716765929013491,7.656589150428772e-05,-0.01260397024452686,0.003763258457183838,0.0006629824638366699,0.004869073629379272,XArbitraryZVertical,0.3555569459319337,0.3559479917602789,-0.02896463077189124,-0.8637368479126178,-0.5942936539649963,0.6348350644111633,-0.4937605559825897,0,0,0,-1,-1,11626.41096479167,unknown,2,2025-04-30T12:05:22.605+03:00,2025-04-30T12:00:08.093+03:00,78,0.8511127,0,0,67.24366,0,0,2025-04-30T12:05:25.185+03:00,767696725.2885216,0,1.72,100.9503,1,0.8,2025-04-30T12:05:06.899+03:00,94,1.566666666666667,2025-04-22T14:20:19.516+03:00,0.02197104130929222,0
2025-04-30T12:05:26.439+03:00,1746003925.099867,40.95226695023776,29.14029258169347,76.49437,-1,-1,-1,-1,30,23.52888653378506,-9999,11630.239863125,-0.5880889892578125,0.6278228759765625,-0.4918975830078125,11630.234825125,-0.2660990154926728,-0.877617267733051,-0.6877683553572995,-0.006441128440201283,-0.001837448216974735,-0.008182589896023273,0.007998466491699219,-0.002230823040008545,0.002800852060317993,XArbitraryZVertical,0.3555683609558828,0.3559638709220336,-0.02891627488694055,-0.8637272332475754,-0.5943479537963867,0.634814441204071,-0.4937217235565186,0,0,0,-1,-1,11626.41096479167,unknown,2,2025-04-30T12:05:22.605+03:00,2025-04-30T12:00:08.093+03:00,78,0.8511127,0,0,67.24366,0,0,2025-04-30T12:05:25.185+03:00,767696725.2885216,0,1.72,100.9503,1,0.8,2025-04-30T12:05:06.899+03:00,94,1.566666666666667,2025-04-22T14:20:19.516+03:00,0.02197104130929222,0
2025-04-30T12:05:26.449+03:00,1746003925.099867,40.95226695023776,29.14029258169347,76.49437,-1,-1,-1,-1,30,23.52888653378506,-9999,11630.249939125,-0.59088134765625,0.630859375,-0.491668701171875,11630.244901125,-0.266257121095239,-0.8777443605346833,-0.6877633097616819,-0.01300235837697983,-0.00384840089827776,-0.009789940901100636,0.006324172019958496,-0.006987571716308594,0.001750826835632324,XArbitraryZVertical,0.3555925453840454,0.3559912752775498,-0.02886945385689752,-0.863707653018341,-0.5944132804870605,0.6348105669021606,-0.4936483204364777,0,0,0,-1,-1,11626.41096479167,unknown,2,2025-04-30T12:05:22.605+03:00,2025-04-30T12:00:08.093+03:00,78,0.8511127,0,0,67.24366,0,0,2025-04-30T12:05:25.185+03:00,767696725.2885216,0,1.72,100.9503,1,0.8,2025-04-30T12:05:06.899+03:00,94,1.566666666666667,2025-04-22T14:20:19.516+03:00,0.02197104130929222,0
2025-04-30T12:05:26.459+03:00,1746003925.099867,40.95226695023776,29.14029258169347,76.49437,-1,-1,-1,-1,30,23.52888653378506,-9999,11630.260015125,-0.5901336669921875,0.6336212158203125,-0.4881439208984375,11630.254977125,-0.2664545998356211,-0.8779208376194259,-0.68774081269128,-0.01031922362744808,-0.007841278798878193,-0.01142512168735266,0.003629803657531738,-0.003933727741241455,0.001883864402770996,XArbitraryZVertical,0.3556159096406756,0.3560352627955201,-0.02881067609847831,-0.8636817422267539,-0.5945112705230713,0.6347931623458862,-0.4935524463653564,0,0,0,-1,-1,11626.41096479167,unknown,2,2025-04-30T12:05:22.605+03:00,2025-04-30T12:00:08.093+03:00,78,0.8511127,0,0,67.24366,0,0,2025-04-30T12:05:25.185+03:00,767696725.2885216,0,1.72,100.9503,1,0.8,2025-04-30T12:05:06.899+03:00,94,1.566666666666667,2025-04-22T14:20:19.516+03:00,0.02197104130929222,0
2025-04-30T12:05:26.469+03:00,1746003925.099867,40.95226695023776,29.14029258169347,76.49437,-1,-1,-1,-1,30,23.52888653378506,-9999,11630.270091125,-0.5911407470703125,0.62908935546875,-0.4901885986328125,11630.265053125,-0.2666791300830639,-0.8781578201117636,-0.6877288327976697,-0.01514879986643791,-0.0110188964754343,-0.01157169602811337,0.004500329494476318,-0.00116264820098877,0.005272626876831055,XArbitraryZVertical,0.3556475189784267,0.3560991995754123,-0.02875322899906549,-0.8636443064219403,-0.5946340560913086,0.634783923625946,-0.4934163987636566,0,0,0,-1,-1,11626.41096479167,unknown,2,2025-04-30T12:05:22.605+03:00,2025-04-30T12:00:08.093+03:00,78,0.8511127,0,0,67.24366,0,0,2025-04-30T12:05:25.185+03:00,767696725.2885216,0,1.72,100.9503,1,0.8,2025-04-30T12:05:06.899+03:00,94,1.566666666666667,2025-04-22T14:20:19.516+03:00,0.02197104130929222,0
2025-04-30T12:05:26.479+03:00,1746003925.099867,40.95226695023776,29.14029258169347,76.49437,-1,-1,-1,-1,30,23.52888653378506,-9999,11630.280167125,-0.5938568115234375,0.624420166015625,-0.492767333984375,11630.275129125,-0.2669461149647776,-0.8784398025564627,-0.6877367580806513,-0.01722287014126778,-0.009946174919605255,-0.009449156001210213,0.00362849235534668,-0.005700588226318359,0.003057003021240234,XArbitraryZVertical,0.3556942665166749,0.3561724645792421,-0.0286898069616393,-0.8635969939219627,-0.5947693586349487,0.6347900629043579,-0.493245542049408,0,0,0,-1,-1,11626.41096479167,unknown,2,2025-04-30T12:05:22.605+03:00,2025-04-30T12:00:08.093+03:00,78,0.8511127,0,0,67.24366,0,0,2025-04-30T12:05:25.185+03:00,767696725.2885216,0,1.72,100.9503,1,0.8,2025-04-30T12:05:06.899+03:00,94,1.566666666666667,2025-04-22T14:20:19.516+03:00,0.02197104130929222,0
2025-04-30T12:05:26.489+03:00,1746003925.099867,40.95226695023776,29.14029258169347,76.49437,-1,-1,-1,-1,30,23.52888653378506,-9999,11630.290243125,-0.594970703125,0.62799072265625,-0.492156982421875,11630.285205125,-0.2672093343365924,-0.8787232371908349,-0.6877675701050745,-0.01674516499042511,-0.01207597088068724,-0.01040859334170818,0.001037180423736572,-0.01039361953735352,0.000297248363494873,XArbitraryZVertical,0.3557497945406776,0.3562440913810587,-0.02863329787633325,-0.8635464698531911,-0.5948940515518188,0.6348138451576233,-0.4930644631385803,0,0,0,-1,-1,11626.41096479167,unknown,2,2025-04-30T12:05:22.605+03:00,2025-04-30T12:00:08.093+03:00,78,0.8511127,0,0,67.24366,0,0,2025-04-30T12:05:25.185+03:00,767696725.2885216,0,1.72,100.9503,1,0.8,2025-04-30T12:05:06.899+03:00,94,1.566666666666667,2025-04-22T14:20:19.516+03:00,0.02197104130929222,0
2025-04-30T12:05:26.500+03:00,1746003925.099867,40.95226695023776,29.14029258169347,76.49437,-1,-1,-1,-1,30,23.52888653378506,-9999,11630.300320125,-0.593597412109375,0.6287689208984375,-0.4940185546875,11630.295282125,-0.2674848540416002,-0.879041582130991,-0.6878349635109487,-0.02029489167034626,-0.01404484640806913,-0.005810645408928394,4.732608795166016e-05,-0.006875157356262207,0.000690847635269165,XArbitraryZVertical,0.3558221535934075,0.3563239188120919,-0.02858573829180766,-0.8634852343080478,-0.5950180292129517,0.634865939617157,-0.4928477108478546,0,0,0,-1,-1,11626.41096479167,unknown,2,2025-04-30T12:05:22.605+03:00,2025-04-30T12:00:08.093+03:00,78,0.8511127,0,0,67.24366,0,0,2025-04-30T12:05:25.185+03:00,767696725.2885216,0,1.72,100.9503,1,0.8,2025-04-30T12:05:06.899+03:00,94,1.566666666666667,2025-04-22T14:20:19.516+03:00,0.02197104130929222,0
2025-04-30T12:05:26.510+03:00,1746003925.099867,40.95226695023776,29.14029258169347,76.49437,-1,-1,-1,-1,30,23.52888653378506,-9999,11630.310396125,-0.592559814453125,0.625213623046875,-0.495208740234375,11630.305358125,-0.2677531234385376,-0.879365829001393,-0.6879395663532053,-0.02511807717382908,-0.0182722806930542,-0.007474156096577644,0.001529216766357422,-0.006177723407745361,-0.001406013965606689,XArbitraryZVertical,0.3559084533520693,0.3564027768920262,-0.02855048529572898,-0.8634183603449136,-0.5951266884803772,0.6349467039108276,-0.4926124811172485,0,0,0,-1,-1,11626.41096479167,unknown,2,2025-04-30T12:05:22.605+03:00,2025-04-30T12:00:08.093+03:00,78,0.8511127,0,0,67.24366,0,0,2025-04-30T12:05:25.185+03:00,767696725.2885216,0,1.72,100.9503,1,0.8,2025-04-30T12:05:06.899+03:00,94,1.566666666666667,2025-04-22T14:20:19.516+03:00,0.02197104130929222,0
2025-04-30T12:05:26.520+03:00,1746003925.099867,40.95226695023776,29.14029258169347,76.49437,-1,-1,-1,-1,30,23.52888653378506,-9999,11630.320472125,-0.592437744140625,0.625946044921875,-0.494781494140625,11630.315434125,-0.2680623742993627,-0.8797523770746339,-0.6880619502595647,-0.02606509812176228,-0.01881636492908001,-0.005050412844866514,0.002697229385375977,-0.009827554225921631,-0.002875804901123047,XArbitraryZVertical,0.3560085630025354,0.3564989457390165,-0.02851260370286271,-0.863338571248436,-0.5952571034431458,0.6350412964820862,-0.4923328161239624,0,0,0,-1,-1,11626.41096479167,unknown,2,2025-04-30T12:05:22.605+03:00,2025-04-30T12:00:08.093+03:00,78,0.8511127,0,0,67.24366,0,0,2025-04-30T12:05:25.185+03:00,767696725.2885216,0,1.72,100.9503,1,0.8,2025-04-30T12:05:06.899+03:00,94,1.566666666666667,2025-04-22T14:20:19.516+03:00,0.02197104130929222,0
2025-04-30T12:05:26.551+03:00,1746003925.099867,40.95226695023776,29.14029258169347,76.49437,-1,-1,-1,-1,30,23.52888653378506,-9999,11630.330548125,-0.59661865234375,0.6299896240234375,-0.4955291748046875,11630.325510125,-0.2683284659557905,-0.8800713142910185,-0.6881600188681474,-0.02376765385270119,-0.01313005015254021,-0.003487437032163143,0.002928376197814941,-0.009170949459075928,-0.002678126096725464,XArbitraryZVertical,0.3560919038264103,0.3565766805184931,-0.028476008107896,-0.8632733009397311,-0.5953661203384399,0.6351170539855957,-0.49210324883461,0,0,0,-1,-1,11626.41096479167,unknown,2,2025-04-30T12:05:22.605+03:00,2025-04-30T12:00:08.093+03:00,78,0.8511127,0,0,67.24366,0,0,2025-04-30T12:05:25.185+03:00,767696725.2885216,0,1.72,100.9503,1,0.8,2025-04-30T12:05:06.899+03:00,94,1.566666666666667,2025-04-22T14:20:19.516+03:00,0.02197104130929222,0
2025-04-30T12:05:26.554+03:00,1746003925.099867,40.95226695023776,29.14029258169347,76.49437,-1,-1,-1,-1,30,23.52888653378506,-9999,11630.340624125,-0.598388671875,0.636077880859375,-0.4901123046875,11630.335586125,-0.2685821561469128,-0.8803587092931359,-0.6882843738394532,-0.02031406760215759,-0.0101302657276392,-0.001617099158465862,-0.001172065734863281,-0.005223393440246582,-0.003647208213806152,XArbitraryZVertical,0.3561843155099991,0.3566396027811872,-0.0284449245363294,-0.8632102485934897,-0.5954466462135315,0.6352130770683289,-0.4918818473815918,0,0,0,-1,-1,11626.41096479167,unknown,2,2025-04-30T12:05:22.605+03:00,2025-04-30T12:00:08.093+03:00,78,0.8511127,0,0,67.24366,0,0,2025-04-30T12:05:25.185+03:00,767696725.2885216,0,1.72,100.9503,1,0.8,2025-04-30T12:05:06.899+03:00,94,1.566666666666667,2025-04-22T14:20:19.516+03:00,0.02197104130929222,0
2025-04-30T12:05:26.556+03:00,1746003925.099867,40.95226695023776,29.14029258169347,76.49437,-1,-1,-1,-1,30,23.52888653378506,-9999,11630.350700125,-0.6003570556640625,0.6331329345703125,-0.486907958984375,11630.345662125,-0.2688191970160178,-0.8805754972142213,-0.6884296307007766,-0.02081906795501709,-0.003301187884062529,-0.002220338210463524,-0.002906680107116699,0.0007526874542236328,0.001581788063049316,XArbitraryZVertical,0.3562834089595708,0.3566723158302635,-0.02841308520911093,-0.8631568570365616,-0.5954821109771729,0.6353252530097961,-0.4916939735412598,0,0,0,-1,-1,11626.41096479167,unknown,2,2025-04-30T12:05:22.605+03:00,2025-04-30T12:00:08.093+03:00,78,0.8511127,0,0,67.24366,0,0,2025-04-30T12:05:25.185+03:00,767696725.2885216,0,1.72,100.9503,1,0.8,2025-04-30T12:05:06.899+03:00,94,1.566666666666667,2025-04-22T14:20:19.516+03:00,0.02197104130929222,0
2025-04-30T12:05:26.560+03:00,1746003925.099867,40.95226695023776,29.14029258169347,76.49437,-1,-1,-1,-1,30,23.52888653378506,-9999,11630.360777625,-0.6035614013671875,0.6312255859375,-0.488861083984375,11630.355739625,-0.2690758698515457,-0.8807291033275778,-0.6885418108487471,-0.02105875313282013,0.003955126740038395,-0.005179642699658871,-0.004854500293731689,-0.00227886438369751,0.00464928150177002,XArbitraryZVertical,0.3563732522207372,0.3566784779613095,-0.02835427661052748,-0.8631191581093086,-0.5955026149749756,0.6354118585586548,-0.4915571510791779,0,0,0,-1,-1,11626.41096479167,unknown,2,2025-04-30T12:05:22.605+03:00,2025-04-30T12:00:08.093+03:00,78,0.8511127,0,0,67.24366,0,0,2025-04-30T12:05:25.185+03:00,767696725.2885216,0,1.72,100.9503,1,0.8,2025-04-30T12:05:06.899+03:00,94,1.566666666666667,2025-04-22T14:20:19.516+03:00,0.02197104130929222,0
2025-04-30T12:05:26.570+03:00,1746003925.099867,40.95226695023776,29.14029258169347,76.49437,-1,-1,-1,-1,30,23.52888653378506,-9999,11630.370853625,-0.600677490234375,0.6299591064453125,-0.4913787841796875,11630.365815625,-0.2693105473623434,-0.8807921429304879,-0.6886226749950921,-0.02071553841233253,0.01148461550474167,-0.002818783978000283,-0.008067488670349121,-0.004248678684234619,0.002625882625579834,XArbitraryZVertical,0.3564475403164153,0.3566534749700221,-0.0282819625128673,-0.8631012033478308,-0.5954940319061279,0.6354743242263794,-0.4914869070053101,0,0,0,-1,-1,11626.41096479167,unknown,2,2025-04-30T12:05:22.605+03:00,2025-04-30T12:00:08.093+03:00,78,0.8511127,0,0,67.24366,0,0,2025-04-30T12:05:25.185+03:00,767696725.2885216,0,1.72,100.9503,1,0.8,2025-04-30T12:05:06.899+03:00,94,1.566666666666667,2025-04-22T14:20:19.516+03:00,0.02197104130929222,0
2025-04-30T12:05:26.580+03:00,1746003925.099867,40.95226695023776,29.14029258169347,76.49437,-1,-1,-1,-1,30,23.52888653378506,-9999,11630.380929625,-0.59765625,0.6285400390625,-0.48992919921875,11630.375891625,-0.2695463553528887,-0.8808279829652282,-0.6887393145013977,-0.02073098532855511,0.01142096612602472,-0.001087462995201349,-0.005223095417022705,-0.005605220794677734,3.966689109802246e-05,XArbitraryZVertical,0.3565371799687586,0.3566119302965017,-0.02821218676135133,-0.8630835825813307,-0.5954543948173523,0.635564386844635,-0.491418331861496,0,0,0,-1,-1,11626.41096479167,unknown,2,2025-04-30T12:05:22.605+03:00,2025-04-30T12:00:08.093+03:00,78,0.8511127,0,0,67.24366,0,0,2025-04-30T12:05:25.185+03:00,767696725.2885216,0,1.72,100.9503,1,0.8,2025-04-30T12:05:06.899+03:00,94,1.566666666666667,2025-04-22T14:20:19.516+03:00,0.02197104130929222,0
2025-04-30T12:05:26.590+03:00,1746003925.099867,40.95226695023776,29.14029258169347,76.49437,-1,-1,-1,-1,30,23.52888653378506,-9999,11630.391006625,-0.594696044921875,0.6292877197265625,-0.4892578125,11630.385968625,-0.2697858863090567,-0.8808564696334987,-0.6888673672450505,-0.02559844590723515,0.01140791643410921,0.0002632924006320536,-0.00225067138671875,-0.007123172283172607,0.001420468091964722,XArbitraryZVertical,0.3566322831457861,0.3565650626930321,-0.02814200218044159,-0.8630659017229193,-0.5954055786132812,0.6356632113456726,-0.4913495481014252,0,0,0,-1,-1,11626.41096479167,unknown,2,2025-04-30T12:05:22.605+03:00,2025-04-30T12:00:08.093+03:00,78,0.8511127,0,0,67.24366,0,0,2025-04-30T12:05:25.185+03:00,767696725.2885216,0,1.72,100.9503,1,0.8,2025-04-30T12:05:06.899+03:00,94,1.566666666666667,2025-04-22T14:20:19.516+03:00,0.02197104130929222,0
2025-04-30T12:05:26.600+03:00,1746003925.099867,40.95226695023776,29.14029258169347,76.49437,-1,-1,-1,-1,30,23.52888653378506,-9999,11630.401082625,-0.5931243896484375,0.6298065185546875,-0.4883880615234375,11630.396044625,-0.270039858025785,-0.8808993463259694,-0.6890064983781712,-0.02851167693734169,0.01060017943382263,0.0003871293156407773,0.000662386417388916,-0.006482899188995361,0.002010047435760498,XArbitraryZVertical,0.3567342925944061,0.3565203746196587,-0.02807056721917035,-0.8630445523978626,-0.5953584909439087,0.6357706189155579,-0.4912677407264709,0,0,0,-1,-1,11626.41096479167,unknown,2,2025-04-30T12:05:22.605+03:00,2025-04-30T12:00:08.093+03:00,78,0.8511127,0,0,67.24366,0,0,2025-04-30T12:05:25.185+03:00,767696725.2885216,0,1.72,100.9503,1,0.8,2025-04-30T12:05:06.899+03:00,94,1.566666666666667,2025-04-22T14:20:19.516+03:00,0.02197104130929222,0
2025-04-30T12:05:26.610+03:00,1746003925.099867,40.95226695023776,29.14029258169347,76.49437,-1,-1,-1,-1,30,23.52888653378506,-9999,11630.411158625,-0.592681884765625,0.631134033203125,-0.4917755126953125,11630.406120625,-0.2702953956247617,-0.8809370818071429,-0.6891484669063435,-0.02659926190972328,0.01083240658044815,-0.001311301602981985,0.002182960510253906,-0.006073653697967529,0.002799898386001587,XArbitraryZVertical,0.3568378227953147,0.3564728044296219,-0.02799817861222206,-0.8630237494086911,-0.5953073501586914,0.6358802318572998,-0.4911878108978271,0,0,0,-1,-1,11626.41096479167,unknown,2,2025-04-30T12:05:22.605+03:00,2025-04-30T12:00:08.093+03:00,78,0.8511127,0,0,67.24366,0,0,2025-04-30T12:05:25.185+03:00,767696725.2885216,0,1.72,100.9503,1,0.8,2025-04-30T12:05:06.899+03:00,94,1.566666666666667,2025-04-22T14:20:19.516+03:00,0.02197104130929222,0
2025-04-30T12:05:26.620+03:00,1746003925.099867,40.95226695023776,29.14029258169347,76.49437,-1,-1,-1,-1,30,23.52888653378506,-9999,11630.421234625,-0.5920257568359375,0.6329498291015625,-0.489990234375,11630.416196625,-0.2706053089707776,-0.8810381877566984,-0.6892951381537722,-0.03082410059869289,0.007557251490652561,-0.002074829768389463,0.002603232860565186,-0.004859328269958496,-0.0007070600986480713,XArbitraryZVertical,0.3569520743481212,0.3564422396906996,-0.02791466440700938,-0.8629918629465068,-0.5952851176261902,0.6359934210777283,-0.4910683035850525,0,0,0,-1,-1,11626.41096479167,unknown,2,2025-04-30T12:05:22.605+03:00,2025-04-30T12:00:08.093+03:00,78,0.8511127,0,0,67.24366,0,0,2025-04-30T12:05:25.185+03:00,767696725.2885216,0,1.72,100.9503,1,0.8,2025-04-30T12:05:06.899+03:00,94,1.566666666666667,2025-04-22T14:20:19.516+03:00,0.02197104130929222,0
2025-04-30T12:05:26.631+03:00,1746003925.099867,40.95226695023776,29.14029258169347,76.49437,-1,-1,-1,-1,30,23.52888653378506,-9999,11630.431310625,-0.594146728515625,0.6324615478515625,-0.488922119140625,11630.426272625,-0.2709532979024672,-0.8812183857195852,-0.6894432733433916,-0.02814189717173576,0.002558631589636207,-0.00753091461956501,0.003275096416473389,-0.003157854080200195,0.0009109675884246826,XArbitraryZVertical,0.3570726229118681,0.3564387897507401,-0.0278291948056978,-0.862946165299716,-0.5953009128570557,0.6361076831817627,-0.4909010529518127,0,0,0,-1,-1,11626.41096479167,unknown,2,2025-04-30T12:05:22.605+03:00,2025-04-30T12:00:08.093+03:00,78,0.8511127,0,0,67.24366,0,0,2025-04-30T12:05:25.185+03:00,767696725.2885216,0,1.72,100.9503,1,0.8,2025-04-30T12:05:06.899+03:00,94,1.566666666666667,2025-04-22T14:20:19.516+03:00,0.02197104130929222,0
2025-04-30T12:05:26.641+03:00,1746003925.099867,40.95226695023776,29.14029258169347,76.49437,-1,-1,-1,-1,30,23.52888653378506,-9999,11630.441386625,-0.5946502685546875,0.63238525390625,-0.49078369140625,11630.436348625,-0.2713066110788819,-0.8814558509013954,-0.6895317864531395,-0.02386326156556606,-0.001060604117810726,-0.009525089524686337,0.001227259635925293,-0.003714382648468018,0.001801908016204834,XArbitraryZVertical,0.3571687357810685,0.3564667366956792,-0.02773856574831758,-0.8628978279091004,-0.5953740477561951,0.6361759901046753,-0.4907239079475403,0,0,0,-1,-1,11626.41096479167,unknown,2,2025-04-30T12:05:22.605+03:00,2025-04-30T12:00:08.093+03:00,78,0.8511127,0,0,67.24366,0,0,2025-04-30T12:05:25.185+03:00,767696725.2885216,0,1.72,100.9503,1,0.8,2025-04-30T12:05:06.899+03:00,94,1.566666666666667,2025-04-22T14:20:19.516+03:00,0.02197104130929222,0
2025-04-30T12:05:26.651+03:00,1746003925.099867,40.95226695023776,29.14029258169347,76.49437,-1,-1,-1,-1,30,23.52888653378506,-9999,11630.451462625,-0.5940704345703125,0.6344757080078125,-0.4912261962890625,11630.446424625,-0.2716427221898429,-0.8816952073976126,-0.6895889194601752,-0.0254365261644125,-0.002233859617263079,-0.009884550236165524,0.0008130669593811035,-0.003834724426269531,-0.0002253055572509766,XArbitraryZVertical,0.3572488707009189,0.3565026035238291,-0.02764885698919128,-0.8628526998666295,-0.5954633951187134,0.6362200975418091,-0.4905582666397095,0,0,0,-1,-1,11626.41096479167,unknown,2,2025-04-30T12:05:22.605+03:00,2025-04-30T12:00:08.093+03:00,78,0.8511127,0,0,67.24366,0,0,2025-04-30T12:05:25.185+03:00,767696725.2885216,0,1.72,100.9503,1,0.8,2025-04-30T12:05:06.899+03:00,94,1.566666666666667,2025-04-22T14:20:19.516+03:00,0.02197104130929222,0
2025-04-30T12:05:26.661+03:00,1746003925.099867,40.95226695023776,29.14029258169347,76.49437,-1,-1,-1,-1,30,23.52888653378506,-9999,11630.461538625,-0.5945281982421875,0.6343994140625,-0.489532470703125,11630.456500625,-0.2719714266294174,-0.8819375718282739,-0.6896137405423984,-0.02007238566875458,-0.001945173367857933,-0.01284731645137072,0.001499593257904053,-0.001763463020324707,-0.0008221864700317383,XArbitraryZVertical,0.3573143524552067,0.3565452417869983,-0.02755580503912927,-0.8628109213918308,-0.5955700874328613,0.636239230632782,-0.4904038906097412,0,0,0,-1,-1,11626.41096479167,unknown,2,2025-04-30T12:05:22.605+03:00,2025-04-30T12:00:08.093+03:00,78,0.8511127,0,0,67.24366,0,0,2025-04-30T12:05:25.185+03:00,767696725.2885216,0,1.72,100.9503,1,0.8,2025-04-30T12:05:06.899+03:00,94,1.566666666666667,2025-04-22T14:20:19.516+03:00,0.02197104130929222,0
2025-04-30T12:05:26.671+03:00,1746003925.099867,40.95226695023776,29.14029258169347,76.49437,-1,-1,-1,-1,30,23.52888653378506,-9999,11630.471614625,-0.5962066650390625,0.63330078125,-0.4857025146484375,11630.466576625,-0.2722868054812188,-0.8821277621916473,-0.6896339412439353,-0.02191103249788284,0.003597397590056062,-0.01042423956096172,0.001125216484069824,-0.001855373382568359,0.0007500946521759033,XArbitraryZVertical,0.3573762725255893,0.3565683264714382,-0.02745816417988868,-0.8627788724842794,-0.5956534743309021,0.6362548470497131,-0.4902824461460114,0,0,0,-1,-1,11626.41096479167,unknown,2,2025-04-30T12:05:22.605+03:00,2025-04-30T12:00:08.093+03:00,78,0.8511127,0,0,67.24366,0,0,2025-04-30T12:05:25.185+03:00,767696725.2885216,0,1.72,100.9503,1,0.8,2025-04-30T12:05:06.899+03:00,94,1.566666666666667,2025-04-22T14:20:19.516+03:00,0.02197104130929222,0
2025-04-30T12:05:26.681+03:00,1746003925.099867,40.95226695023776,29.14029258169347,76.49437,-1,-1,-1,-1,30,23.52888653378506,-9999,11630.481691625,-0.5987396240234375,0.63653564453125,-0.4826202392578125,11630.476652625,-0.2725563182652879,-0.88225010129891,-0.689657128556154,-0.01809445582330227,0.006920756306499243,-0.008982936851680279,-0.0005047321319580078,-0.002971887588500977,0.004497766494750977,XArbitraryZVertical,0.3574322265412012,0.3565699548502355,-0.02736888986477535,-0.8627577665533285,-0.5957019329071045,0.6362727284431458,-0.4902001321315765,0,0,0,-1,-1,11626.41096479167,unknown,2,2025-04-30T12:05:22.605+03:00,2025-04-30T12:00:08.093+03:00,78,0.8511127,0,0,67.24366,0,0,2025-04-30T12:05:25.185+03:00,767696725.2885216,0,1.72,100.9503,1,0.8,2025-04-30T12:05:06.899+03:00,94,1.566666666666667,2025-04-22T14:20:19.516+03:00,0.02197104130929222,0
2025-04-30T12:05:26.691+03:00,1746003925.099867,40.95226695023776,29.14029258169347,76.49437,-1,-1,-1,-1,30,23.52888653378506,-9999,11630.491767625,-0.5952911376953125,0.6373748779296875,-0.4852142333984375,11630.486729625,-0.2728009533041012,-0.8823414812234399,-0.6896761920454763,-0.01582604087889194,0.006877546198666096,-0.009204012341797352,-0.00300222635269165,0.0002483129501342773,0.00751793384552002,XArbitraryZVertical,0.357482402199535,0.3565631690527168,-0.02728384623221252,-0.8627425855266425,-0.5957374572753906,0.6362873911857605,-0.4901380836963654,0,0,0,-1,-1,11626.41096479167,unknown,2,2025-04-30T12:05:22.605+03:00,2025-04-30T12:00:08.093+03:00,78,0.8511127,0,0,67.24366,0,0,2025-04-30T12:05:25.185+03:00,767696725.2885216,0,1.72,100.9503,1,0.8,2025-04-30T12:05:06.899+03:00,94,1.566666666666667,2025-04-22T14:20:19.516+03:00,0.02197104130929222,0
2025-04-30T12:05:26.701+03:00,1746003925.099867,40.95226695023776,29.14029258169347,76.49437,-1,-1,-1,-1,30,23.52888653378506,-9999,11630.501843625,-0.596282958984375,0.6358184814453125,-0.4874114990234375,11630.496805625,-0.2730020958859205,-0.8823629762052361,-0.6896991774093386,-0.01401269529014826,0.01174420677125454,-0.00731370085850358,0.0004455447196960449,0.001069784164428711,0.00490182638168335,XArbitraryZVertical,0.3575274268807894,0.3565335107098689,-0.02720597046148255,-0.8627386579262626,-0.5957367420196533,0.6363051533699036,-0.4901160001754761,0,0,0,-1,-1,11626.41096479167,unknown,2,2025-04-30T12:05:22.605+03:00,2025-04-30T12:00:08.093+03:00,78,0.8511127,0,0,67.24366,0,0,2025-04-30T12:05:25.185+03:00,767696725.2885216,0,1.72,100.9503,1,0.8,2025-04-30T12:05:06.899+03:00,94,1.566666666666667,2025-04-22T14:20:19.516+03:00,0.02197104130929222,0
2025-04-30T12:05:26.711+03:00,1746003925.099867,40.95226695023776,29.14029258169347,76.49437,-1,-1,-1,-1,30,23.52888653378506,-9999,11630.511919625,-0.59637451171875,0.636627197265625,-0.4871826171875,11630.506881625,-0.2731810305471624,-0.8823584445828039,-0.6897338957339283,-0.01135812327265739,0.01039791293442249,-0.006067773792892694,-0.0005655884742736816,-0.0005133748054504395,0.002693235874176025,XArbitraryZVertical,0.3575736837183829,0.3564950752461423,-0.02713561132391018,-0.8627375731555891,-0.5957174301147461,0.6363319158554077,-0.4901046454906464,0,0,0,-1,-1,11626.41096479167,unknown,2,2025-04-30T12:05:22.605+03:00,2025-04-30T12:00:08.093+03:00,78,0.8511127,0,0,67.24366,0,0,2025-04-30T12:05:25.185+03:00,767696725.2885216,0,1.72,100.9503,1,0.8,2025-04-30T12:05:06.899+03:00,94,1.566666666666667,2025-04-22T14:20:19.516+03:00,0.02197104130929222,0
2025-04-30T12:05:26.721+03:00,1746003925.099867,40.95226695023776,29.14029258169347,76.49437,-1,-1,-1,-1,30,23.52888653378506,-9999,11630.521995625,-0.59375,0.6376953125,-0.4869232177734375,11630.516957625,-0.2733495940245055,-0.8823446745651361,-0.6897686405756781,-0.01299410313367844,0.01059498637914658,-0.004813691135495901,-0.0006809234619140625,0.0002685785293579102,0.002916276454925537,XArbitraryZVertical,0.3576182052297959,0.3564544926157705,-0.02706806272299018,-0.8627380485690885,-0.5956936478614807,0.6363587379455566,-0.4900988340377808,0,0,0,-1,-1,11626.41096479167,unknown,2,2025-04-30T12:05:22.605+03:00,2025-04-30T12:00:08.093+03:00,78,0.8511127,0,0,67.24366,0,0,2025-04-30T12:05:25.185+03:00,767696725.2885216,0,1.72,100.9503,1,0.8,2025-04-30T12:05:06.899+03:00,94,1.566666666666667,2025-04-22T14:20:19.516+03:00,0.02197104130929222,0
2025-04-30T12:05:26.731+03:00,1746003925.099867,40.95226695023776,29.14029258169347,76.49437,-1,-1,-1,-1,30,23.52888653378506,-9999,11630.532071625,-0.5915679931640625,0.636993408203125,-0.487091064453125,11630.527033625,-0.2734857289594304,-0.8823503161378631,-0.689759969445166,-0.006386467255651951,0.007088735233992338,-0.007283872924745083,0.001950562000274658,0.001343429088592529,0.003175854682922363,XArbitraryZVertical,0.3576388110355204,0.3564337021050544,-0.02700843078878619,-0.8627399939382325,-0.5957006812095642,0.6363520622253418,-0.4900989830493927,0,0,0,-1,-1,11626.41096479167,unknown,2,2025-04-30T12:05:22.605+03:00,2025-04-30T12:00:08.093+03:00,78,0.8511127,0,0,67.24366,0,0,2025-04-30T12:05:25.185+03:00,767696725.2885216,0,1.72,100.9503,1,0.8,2025-04-30T12:05:06.899+03:00,94,1.566666666666667,2025-04-22T14:20:19.516+03:00,0.02197104130929222,0
2025-04-30T12:05:26.741+03:00,1746003925.099867,40.95226695023776,29.14029258169347,76.49437,-1,-1,-1,-1,30,23.52888653378506,-9999,11630.542147625,-0.593414306640625,0.6341400146484375,-0.488311767578125,11630.537109625,-0.2736106705821945,-0.8823822382727874,-0.6897346880887337,-0.006480476818978786,0.004294812679290771,-0.008336087688803673,0.004160642623901367,0.0006608963012695312,0.002999156713485718,XArbitraryZVertical,0.3576502846687714,0.3564284228895028,-0.02695472655497386,-0.8627389717971705,-0.5957286357879639,0.6363325119018555,-0.4900901019573212,0,0,0,-1,-1,11626.41096479167,unknown,2,2025-04-30T12:05:22.605+03:00,2025-04-30T12:00:08.093+03:00,78,0.8511127,0,0,67.24366,0,0,2025-04-30T12:05:25.185+03:00,767696725.2885216,0,1.72,100.9503,1,0.8,2025-04-30T12:05:06.899+03:00,94,1.566666666666667,2025-04-22T14:20:19.516+03:00,0.02197104130929222,0
2025-04-30T12:05:26.752+03:00,1746003925.099867,40.95226695023776,29.14029258169347,76.49437,-1,-1,-1,-1,30,23.52888653378506,-9999,11630.552223625,-0.5926055908203125,0.6328277587890625,-0.4891357421875,11630.547185625,-0.2737069504462994,-0.8824097506696756,-0.6897143069630346,-0.003080019727349281,0.002700777957215905,-0.005397622939199209,0.002337813377380371,-0.002176761627197266,0.001770347356796265,XArbitraryZVertical,0.3576586806262714,0.356425713141477,-0.02691363096585959,-0.862737897665962,-0.5957521796226501,0.6363168358802795,-0.4900819659233093,0,0,0,-1,-1,11626.41096479167,unknown,2,2025-04-30T12:05:22.605+03:00,2025-04-30T12:00:08.093+03:00,78,0.8511127,0,0,67.24366,0,0,2025-04-30T12:05:25.185+03:00,767696725.2885216,0,1.72,100.9503,1,0.8,2025-04-30T12:05:06.899+03:00,94,1.566666666666667,2025-04-22T14:20:19.516+03:00,0.02197104130929222,0
2025-04-30T12:05:26.761+03:00,1746003925.099867,40.95226695023776,29.14029258169347,76.49437,-1,-1,-1,-1,30,23.52888653378506,-9999,11630.562299625,-0.5927581787109375,0.6328125,-0.4889068603515625,11630.557261625,-0.2737767013697515,-0.882443044493657,-0.6896783998829967,-0.000618726247921586,0.003206512192264199,-0.004217043519020081,0.003180444240570068,-0.003461360931396484,0.0009410083293914795,XArbitraryZVertical,0.3576558952643618,0.3564322592992449,-0.02688161249301041,-0.8627373082932163,-0.5957860946655273,0.636289119720459,-0.4900766015052795,0,0,0,-1,-1,11626.41096479167,unknown,2,2025-04-30T12:05:22.605+03:00,2025-04-30T12:00:08.093+03:00,78,0.8511127,0,0,67.24366,0,0,2025-04-30T12:05:25.185+03:00,767696725.2885216,0,1.72,100.9503,1,0.8,2025-04-30T12:05:06.899+03:00,94,1.566666666666667,2025-04-22T14:20:19.516+03:00,0.02197104130929222,0
2025-04-30T12:05:26.772+03:00,1746003925.099867,40.95226695023776,29.14029258169347,76.49437,-1,-1,-1,-1,30,23.52888653378506,-9999,11630.572376625,-0.5951080322265625,0.6300048828125,-0.4890289306640625,11630.567338625,-0.2738389423202414,-0.882463985041703,-0.6896551935075186,-0.001541045494377613,0.005186506081372499,-0.004478732123970985,0.003049612045288086,-0.003458619117736816,0.001166820526123047,XArbitraryZVertical,0.3576571151536462,0.356433153748604,-0.02685336928122491,-0.8627374172132047,-0.5958078503608704,0.6362712383270264,-0.4900735914707184,0,0,0,-1,-1,11626.41096479167,unknown,2,2025-04-30T12:05:22.605+03:00,2025-04-30T12:00:08.093+03:00,78,0.8511127,0,0,67.24366,0,0,2025-04-30T12:05:25.185+03:00,767696725.2885216,0,1.72,100.9503,1,0.8,2025-04-30T12:05:06.899+03:00,94,1.566666666666667,2025-04-22T14:20:19.516+03:00,0.02197104130929222,0
2025-04-30T12:05:26.782+03:00,1746003925.099867,40.95226695023776,29.14029258169347,76.49437,-1,-1,-1,-1,30,23.52888653378506,-9999,11630.582452625,-0.5974273681640625,0.6304168701171875,-0.4905853271484375,11630.577414625,-0.2739115150102725,-0.882460829617894,-0.6896586726454966,-0.001481124432757497,0.005360942799597979,-0.001680548884905875,0.0006964802742004395,-0.006268918514251709,0.00104522705078125,XArbitraryZVertical,0.3576715169487767,0.3564183609423063,-0.02682225883283179,-0.8627385428819013,-0.5958045721054077,0.6362739205360413,-0.4900740683078766,0,0,0,-1,-1,11626.41096479167,unknown,2,2025-04-30T12:05:22.605+03:00,2025-04-30T12:00:08.093+03:00,78,0.8511127,0,0,67.24366,0,0,2025-04-30T12:05:25.185+03:00,767696725.2885216,0,1.72,100.9503,1,0.8,2025-04-30T12:05:06.899+03:00,94,1.566666666666667,2025-04-22T14:20:19.516+03:00,0.02197104130929222,0
2025-04-30T12:05:26.792+03:00,1746003925.099867,40.95226695023776,29.14029258169347,76.49437,-1,-1,-1,-1,30,23.52888653378506,-9999,11630.592528625,-0.5948486328125,0.6327056884765625,-0.49200439453125,11630.587490625,-0.2739560378513757,-0.8824490627605317,-0.6896617895557859,-0.005423201713711023,0.002944590291008353,-0.002348103560507298,-0.001630187034606934,-0.005859434604644775,-0.0005054771900177002,XArbitraryZVertical,0.3576809363022069,0.3564049364791887,-0.02680167551853867,-0.8627407010044688,-0.5957971811294556,0.6362763047218323,-0.4900797307491302,0,0,0,-1,-1,11626.41096479167,unknown,2,2025-04-30T12:05:22.605+03:00,2025-04-30T12:00:08.093+03:00,78,0.8511127,0,0,67.24366,0,0,2025-04-30T12:05:25.185+03:00,767696725.2885216,0,1.72,100.9503,1,0.8,2025-04-30T12:05:06.899+03:00,94,1.566666666666667,2025-04-22T14:20:19.516+03:00,0.02197104130929222,0
2025-04-30T12:05:26.802+03:00,1746003925.099867,40.95226695023776,29.14029258169347,76.49437,-1,-1,-1,-1,30,23.52888653378506,-9999,11630.602604625,-0.5962066650390625,0.633880615234375,-0.48876953125,11630.597566625,-0.2740237707067406,-0.8824654398256605,-0.6896669991944345,-0.0006263162358663976,0.003228483255952597,-0.001827721833251417,0.0009540319442749023,-0.003574550151824951,-0.001936376094818115,XArbitraryZVertical,0.3576948938935121,0.3563991971109973,-0.02677649722396887,-0.8627381711372468,-0.5958027243614197,0.6362802982330322,-0.4900679588317871,0,0,0,-1,-1,11626.41096479167,unknown,2,2025-04-30T12:05:22.605+03:00,2025-04-30T12:00:08.093+03:00,78,0.8511127,0,0,67.24366,0,0,2025-04-30T12:05:25.185+03:00,767696725.2885216,0,1.72,100.9503,1,0.8,2025-04-30T12:05:06.899+03:00,94,1.566666666666667,2025-04-22T14:20:19.516+03:00,0.02197104130929222,0
2025-04-30T12:05:26.812+03:00,1746003925.099867,40.95226695023776,29.14029258169347,76.49437,-1,-1,-1,-1,30,23.52888653378506,-9999,11630.612680625,-0.59674072265625,0.6333465576171875,-0.4855804443359375,11630.607642625,-0.2740865125570078,-0.8824710771698357,-0.6896744714642478,-0.003972511738538742,0.004668254870921373,-0.00426820944994688,-0.0004048943519592285,-0.002405405044555664,0.001292169094085693,XArbitraryZVertical,0.3577090720258366,0.3563894377155413,-0.02675208151849082,-0.8627370894427795,-0.595801830291748,0.6362860798835754,-0.4900615811347961,0,0,0,-1,-1,11626.41096479167,unknown,2,2025-04-30T12:05:22.605+03:00,2025-04-30T12:00:08.093+03:00,78,0.8511127,0,0,67.24366,0,0,2025-04-30T12:05:25.185+03:00,767696725.2885216,0,1.72,100.9503,1,0.8,2025-04-30T12:05:06.899+03:00,94,1.566666666666667,2025-04-22T14:20:19.516+03:00,0.02197104130929222,0
2025-04-30T12:05:26.822+03:00,1746003925.099867,40.95226695023776,29.14029258169347,76.49437,-1,-1,-1,-1,30,23.52888653378506,-9999,11630.622756625,-0.5991668701171875,0.633636474609375,-0.486083984375,11630.617718625,-0.2741346573665656,-0.8824430588310533,-0.6896330013265709,0.00495813274756074,0.008177502080798149,-0.009734880179166794,-0.0009322762489318848,-0.002907454967498779,0.004514694213867188,XArbitraryZVertical,0.3577009485426781,0.3563741142850076,-0.02671717516445655,-0.8627478852665948,-0.5958085060119629,0.6362540721893311,-0.4900950491428375,0,0,0,-1,-1,11626.41096479167,unknown,2,2025-04-30T12:05:22.605+03:00,2025-04-30T12:00:08.093+03:00,78,0.8511127,0,0,67.24366,0,0,2025-04-30T12:05:25.185+03:00,767696725.2885216,0,1.72,100.9503,1,0.8,2025-04-30T12:05:06.899+03:00,94,1.566666666666667,2025-04-22T14:20:19.516+03:00,0.02197104130929222,0
2025-04-30T12:05:26.832+03:00,1746003925.099867,40.95226695023776,29.14029258169347,76.49437,-1,-1,-1,-1,30,23.52888653378506,-9999,11630.632832625,-0.6005859375,0.635833740234375,-0.489593505859375,11630.627794625,-0.2741457589391923,-0.8823673331806898,-0.6895282834180109,0.005904486868530512,0.009432783350348473,-0.005158437415957451,-0.003344118595123291,-0.00253671407699585,0.004098594188690186,XArbitraryZVertical,0.3576608151896499,0.3563530314815632,-0.02667579802322771,-0.8627745515937862,-0.5958228707313538,0.6361733078956604,-0.4901825189590454,0,0,0,-1,-1,11626.41096479167,unknown,2,2025-04-30T12:05:22.605+03:00,2025-04-30T12:00:08.093+03:00,78,0.8511127,0,0,67.24366,0,0,2025-04-30T12:05:25.185+03:00,767696725.2885216,0,1.72,100.9503,1,0.8,2025-04-30T12:05:06.899+03:00,94,1.566666666666667,2025-04-22T14:20:19.516+03:00,0.02197104130929222,0
2025-04-30T12:05:26.842+03:00,1746003925.099867,40.95226695023776,29.14029258169347,76.49437,-1,-1,-1,-1,30,23.52888653378506,-9999,11630.642908625,-0.5975494384765625,0.6351165771484375,-0.4890594482421875,11630.637870625,-0.2741394854662765,-0.8822642646110325,-0.6894168947527333,0.007871497422456741,0.01014251541346312,-0.007296956144273281,-0.004759013652801514,-0.0002535581588745117,0.0006954669952392578,XArbitraryZVertical,0.3576152456189351,0.3563241403052323,-0.02663560511404152,-0.8628065299321062,-0.5958269834518433,0.6360873579978943,-0.4902888834476471,0,0,0,-1,-1,11626.41096479167,unknown,2,2025-04-30T12:05:22.605+03:00,2025-04-30T12:00:08.093+03:00,78,0.8511127,0,0,67.24366,0,0,2025-04-30T12:05:25.185+03:00,767696725.2885216,0,1.72,100.9503,1,0.8,2025-04-30T12:05:06.899+03:00,94,1.566666666666667,2025-04-22T14:20:19.516+03:00,0.02197104130929222,0
2025-04-30T12:05:26.852+03:00,1746003925.099867,40.95226695023776,29.14029258169347,76.49437,-1,-1,-1,-1,30,23.52888653378506,-9999,11630.652985625,-0.59600830078125,0.630767822265625,-0.490509033203125,11630.647946625,-0.2741184442104334,-0.882158051743527,-0.6893102702716064,0.007171685807406902,0.0103300679475069,-0.006962163373827934,-0.001722216606140137,-0.0008884668350219727,0.001335889101028442,XArbitraryZVertical,0.3575690342119958,0.3562959077743658,-0.02660226433019237,-0.8628383118714273,-0.5958272218704224,0.6360051035881042,-0.4903952181339264,0,0,0,-1,-1,11626.41096479167,unknown,2,2025-04-30T12:05:22.605+03:00,2025-04-30T12:00:08.093+03:00,78,0.8511127,0,0,67.24366,0,0,2025-04-30T12:05:25.185+03:00,767696725.2885216,0,1.72,100.9503,1,0.8,2025-04-30T12:05:06.899+03:00,94,1.566666666666667,2025-04-22T14:20:19.516+03:00,0.02197104130929222,0
2025-04-30T12:05:26.862+03:00,1746003925.099867,40.95226695023776,29.14029258169347,76.49437,-1,-1,-1,-1,30,23.52888653378506,-9999,11630.663061625,-0.5968475341796875,0.628021240234375,-0.493896484375,11630.658023625,-0.2741363324703298,-0.8820648999464309,-0.6892034010085117,0.004902938846498728,0.01195459626615047,-0.007970435544848442,-0.0001742839813232422,-0.005154669284820557,-1.496076583862305e-05,XArbitraryZVertical,0.3575294418397452,0.3562663634335851,-0.02655437926388494,-0.8628684383074268,-0.5958340764045715,0.6359226107597351,-0.4904939532279968,0,0,0,-1,-1,11626.41096479167,unknown,2,2025-04-30T12:05:22.605+03:00,2025-04-30T12:00:08.093+03:00,78,0.8511127,0,0,67.24366,0,0,2025-04-30T12:05:25.185+03:00,767696725.2885216,0,1.72,100.9503,1,0.8,2025-04-30T12:05:06.899+03:00,94,1.566666666666667,2025-04-22T14:20:19.516+03:00,0.02197104130929222,0
2025-04-30T12:05:26.872+03:00,1746003925.099867,40.95226695023776,29.14029258169347,76.49437,-1,-1,-1,-1,30,23.52888653378506,-9999,11630.673137625,-0.5968017578125,0.6287384033203125,-0.493438720703125,11630.668099625,-0.2741545610403213,-0.8819738623327102,-0.6891245744819137,0.002652767347171903,0.006875349674373865,-0.003969070035964251,-0.001019537448883057,-0.007840454578399658,-0.003316342830657959,XArbitraryZVertical,0.3575014490436874,0.3562340447149281,-0.02651291740231754,-0.8628946316134879,-0.5958280563354492,0.6358617544174194,-0.4905800521373749,0,0,0,-1,-1,11626.41096479167,unknown,2,2025-04-30T12:05:22.605+03:00,2025-04-30T12:00:08.093+03:00,78,0.8511127,0,0,67.24366,0,0,2025-04-30T12:05:25.185+03:00,767696725.2885216,0,1.72,100.9503,1,0.8,2025-04-30T12:05:06.899+03:00,94,1.566666666666667,2025-04-22T14:20:19.516+03:00,0.02197104130929222,0
2025-04-30T12:05:26.882+03:00,1746003925.099867,40.95226695023776,29.14029258169347,76.49437,-1,-1,-1,-1,30,23.52888653378506,-9999,11630.683213625,-0.59527587890625,0.629486083984375,-0.487823486328125,11630.678175625,-0.2741885788451376,-0.8819355097717937,-0.6890793860679456,-0.001773672527633607,0.005429785698652267,-0.004804503172636032,-0.000970304012298584,-0.007088422775268555,-0.002817392349243164,XArbitraryZVertical,0.3574893794725156,0.3562172597012362,-0.02648142168583848,-0.8629076124333348,-0.5958315134048462,0.6358268857002258,-0.4906212091445923,0,0,0,-1,-1,11626.41096479167,unknown,2,2025-04-30T12:05:22.605+03:00,2025-04-30T12:00:08.093+03:00,78,0.8511127,0,0,67.24366,0,0,2025-04-30T12:05:25.185+03:00,767696725.2885216,0,1.72,100.9503,1,0.8,2025-04-30T12:05:06.899+03:00,94,1.566666666666667,2025-04-22T14:20:19.516+03:00,0.02197104130929222,0
2025-04-30T12:05:26.892+03:00,1746003925.099867,40.95226695023776,29.14029258169347,76.49437,-1,-1,-1,-1,30,23.52888653378506,-9999,11630.693289625,-0.5999298095703125,0.6291351318359375,-0.486572265625,11630.688251625,-0.2742693171590682,-0.8819012885566562,-0.68906269845264,-0.00321617373265326,0.01230566762387753,-0.003169389208778739,0.0005469322204589844,-0.00632786750793457,0.002824962139129639,XArbitraryZVertical,0.3574973507789361,0.356190229395341,-0.02643681030931182,-0.8629168079614028,-0.5958228707313538,0.6358140110969543,-0.4906483292579651,0,0,0,-1,-1,11626.41096479167,unknown,2,2025-04-30T12:05:22.605+03:00,2025-04-30T12:00:08.093+03:00,78,0.8511127,0,0,67.24366,0,0,2025-04-30T12:05:25.185+03:00,767696725.2885216,0,1.72,100.9503,1,0.8,2025-04-30T12:05:06.899+03:00,94,1.566666666666667,2025-04-22T14:20:19.516+03:00,0.02197104130929222,0
2025-04-30T12:05:26.903+03:00,1746003925.099867,40.95226695023776,29.14029258169347,76.49437,-1,-1,-1,-1,30,23.52888653378506,-9999,11630.703365625,-0.597869873046875,0.6341705322265625,-0.487213134765625,11630.698327625,-0.2743222046528782,-0.8818144666539113,-0.6890373935668974,0.0005447422154247761,0.01222550682723522,-0.004368344321846962,-0.004137217998504639,-0.006659269332885742,0.00413811206817627,XArbitraryZVertical,0.3574975027257199,0.3561465969804539,-0.02639291470188648,-0.86293608044069,-0.5957927107810974,0.635794460773468,-0.4907102882862091,0,0,0,-1,-1,11626.41096479167,unknown,2,2025-04-30T12:05:22.605+03:00,2025-04-30T12:00:08.093+03:00,78,0.8511127,0,0,67.24366,0,0,2025-04-30T12:05:25.185+03:00,767696725.2885216,0,1.72,100.9503,1,0.8,2025-04-30T12:05:06.899+03:00,94,1.566666666666667,2025-04-22T14:20:19.516+03:00,0.02197104130929222,0
2025-04-30T12:05:26.913+03:00,1746003925.099867,40.95226695023776,29.14029258169347,76.49437,-1,-1,-1,-1,30,23.52888653378506,-9999,11630.713441625,-0.596038818359375,0.639923095703125,-0.48626708984375,11630.708403625,-0.2743391847798459,-0.8817156581899736,-0.6889835095650212,0.00813648197799921,0.009895640425384045,-0.002341478830203414,-0.002099275588989258,-0.00158226490020752,0.003577888011932373,XArbitraryZVertical,0.3574796371912218,0.356107909196793,-0.02635607747721416,-0.8629605854832435,-0.5957706570625305,0.6357529163360596,-0.4907909333705902,0,0,0,-1,-1,11626.41096479167,unknown,2,2025-04-30T12:05:22.605+03:00,2025-04-30T12:00:08.093+03:00,78,0.8511127,0,0,67.24366,0,0,2025-04-30T12:05:25.185+03:00,767696725.2885216,0,1.72,100.9503,1,0.8,2025-04-30T12:05:06.899+03:00,94,1.566666666666667,2025-04-22T14:20:19.516+03:00,0.02197104130929222,0
2025-04-30T12:05:26.923+03:00,1746003925.099867,40.95226695023776,29.14029258169347,76.49437,-1,-1,-1,-1,30,23.52888653378506,-9999,11630.723517625,-0.5930938720703125,0.6365814208984375,-0.4860382080078125,11630.718479625,-0.2742599517403024,-0.8815618353757241,-0.6888905422941006,0.01489425357431173,0.01038859225809574,-0.004431793931871653,-0.0002981424331665039,0.004242062568664551,0.00465315580368042,XArbitraryZVertical,0.3574292731289957,0.3560677419841728,-0.02634233854996526,-0.8629984421737856,-0.595740795135498,0.63568115234375,-0.4909201562404633,0,0,0,-1,-1,11626.41096479167,unknown,2,2025-04-30T12:05:22.605+03:00,2025-04-30T12:00:08.093+03:00,78,0.8511127,0,0,67.24366,0,0,2025-04-30T12:05:25.185+03:00,767696725.2885216,0,1.72,100.9503,1,0.8,2025-04-30T12:05:06.899+03:00,94,1.566666666666667,2025-04-22T14:20:19.516+03:00,0.02197104130929222,0
2025-04-30T12:05:26.933+03:00,1746003925.099867,40.95226695023776,29.14029258169347,76.49437,-1,-1,-1,-1,30,23.52888653378506,-9999,11630.733593625,-0.5901031494140625,0.6304473876953125,-0.486297607421875,11630.728555625,-0.2741649191062242,-0.8813837321208764,-0.688783503368734,0.01059777569025755,0.01373884826898575,-0.002412052825093269,0.002611875534057617,0.0009829998016357422,0.005031466484069824,XArbitraryZVertical,0.3573706139515961,0.3560217328867328,-0.02632799104497657,-0.8630421685610311,-0.5957058072090149,0.6355984807014465,-0.4910695254802704,0,0,0,-1,-1,11626.41096479167,unknown,2,2025-04-30T12:05:22.605+03:00,2025-04-30T12:00:08.093+03:00,78,0.8511127,0,0,67.24366,0,0,2025-04-30T12:05:25.185+03:00,767696725.2885216,0,1.72,100.9503,1,0.8,2025-04-30T12:05:06.899+03:00,94,1.566666666666667,2025-04-22T14:20:19.516+03:00,0.02197104130929222,0
2025-04-30T12:05:26.943+03:00,1746003925.099867,40.95226695023776,29.14029258169347,76.49437,-1,-1,-1,-1,30,23.52888653378506,-9999,11630.743670625,-0.588409423828125,0.6306915283203125,-0.4844512939453125,11630.738632625,-0.2741171684951775,-0.8812024825904849,-0.6886926685987919,0.00384666258469224,0.01766807585954666,-0.00513992877677083,0.005558133125305176,-0.005080878734588623,0.004916727542877197,XArbitraryZVertical,0.357327083916279,0.3559638101650151,-0.02629625005147572,-0.8630850633194803,-0.5956613421440125,0.6355283856391907,-0.491214245557785,0,0,0,-1,-1,11626.41096479167,unknown,2,2025-04-30T12:05:22.605+03:00,2025-04-30T12:00:08.093+03:00,78,0.8511127,0,0,67.24366,0,0,2025-04-30T12:05:25.185+03:00,767696725.2885216,0,1.72,100.9503,1,0.8,2025-04-30T12:05:06.899+03:00,94,1.566666666666667,2025-04-22T14:20:19.516+03:00,0.02197104130929222,0
2025-04-30T12:05:26.953+03:00,1746003925.099867,40.95226695023776,29.14029258169347,76.49437,-1,-1,-1,-1,30,23.52888653378506,-9999,11630.753746625,-0.590240478515625,0.6297760009765625,-0.4875640869140625,11630.748708625,-0.2741223479233214,-0.8810475514242483,-0.6886527723832367,-0.003206053748726845,0.01467854529619217,-0.0008071652264334261,0.007195234298706055,-0.004805982112884521,0.006871402263641357,XArbitraryZVertical,0.3573136326927394,0.3559011990813647,-0.02625759253088954,-0.8631175627967287,-0.5956047773361206,0.6354975700378418,-0.4913226068019867,0,0,0,-1,-1,11626.41096479167,unknown,2,2025-04-30T12:05:22.605+03:00,2025-04-30T12:00:08.093+03:00,78,0.8511127,0,0,67.24366,0,0,2025-04-30T12:05:25.185+03:00,767696725.2885216,0,1.72,100.9503,1,0.8,2025-04-30T12:05:06.899+03:00,94,1.566666666666667,2025-04-22T14:20:19.516+03:00,0.02197104130929222,0
2025-04-30T12:05:26.963+03:00,1746003925.099867,40.95226695023776,29.14029258169347,76.49437,-1,-1,-1,-1,30,23.52888653378506,-9999,11630.763822625,-0.5920562744140625,0.6251373291015625,-0.48956298828125,11630.758784625,-0.2741833218484162,-0.8809510181115324,-0.6886525882291668,-0.009397104382514954,0.01119299978017807,-0.003069254104048014,0.005316853523254395,-0.005721390247344971,0.003816187381744385,XArbitraryZVertical,0.3573256944715278,0.3558486778263988,-0.02621401158348968,-0.8631354889583851,-0.5955573916435242,0.6354973912239075,-0.4913801252841949,0,0,0,-1,-1,11626.41096479167,unknown,2,2025-04-30T12:05:22.605+03:00,2025-04-30T12:00:08.093+03:00,78,0.8511127,0,0,67.24366,0,0,2025-04-30T12:05:25.185+03:00,767696725.2885216,0,1.72,100.9503,1,0.8,2025-04-30T12:05:06.899+03:00,94,1.566666666666667,2025-04-22T14:20:19.516+03:00,0.02197104130929222,0
2025-04-30T12:05:26.973+03:00,1746003925.099867,40.95226695023776,29.14029258169347,76.49437,-1,-1,-1,-1,30,23.52888653378506,-9999,11630.773898625,-0.5906524658203125,0.6242218017578125,-0.4890594482421875,11630.768860625,-0.2743335341061821,-0.8809713585023158,-0.6886665387381947,-0.01324610412120819,0.006441720295697451,-0.004985099192708731,0.00350421667098999,-0.01037085056304932,0.001799494028091431,XArbitraryZVertical,0.3573579037934322,0.3558288126575238,-0.02615588712933245,-0.8631320964950889,-0.5955604910850525,0.6355081796646118,-0.4913623631000519,0,0,0,-1,-1,11626.41096479167,unknown,2,2025-04-30T12:05:22.605+03:00,2025-04-30T12:00:08.093+03:00,78,0.8511127,0,0,67.24366,0,0,2025-04-30T12:05:25.185+03:00,767696725.2885216,0,1.72,100.9503,1,0.8,2025-04-30T12:05:06.899+03:00,94,1.566666666666667,2025-04-22T14:20:19.516+03:00,0.02197104130929222,0
2025-04-30T12:05:26.983+03:00,1746003925.099867,40.95226695023776,29.14029258169347,76.49437,-1,-1,-1,-1,30,23.52888653378506,-9999,11630.783974625,-0.591583251953125,0.6253814697265625,-0.489105224609375,11630.778936625,-0.2745274087303568,-0.8810746083581603,-0.6887085994461446,-0.01326740998774767,0.001369463745504618,-0.005066591780632734,0.004938185214996338,-0.01131880283355713,0.002224624156951904,XArbitraryZVertical,0.3574083296840291,0.3558332626021103,-0.02609986917999788,-0.863111194868272,-0.5955907106399536,0.6355406641960144,-0.4912839531898499,0,0,0,-1,-1,11626.41096479167,unknown,2,2025-04-30T12:05:22.605+03:00,2025-04-30T12:00:08.093+03:00,78,0.8511127,0,0,67.24366,0,0,2025-04-30T12:05:25.185+03:00,767696725.2885216,0,1.72,100.9503,1,0.8,2025-04-30T12:05:06.899+03:00,94,1.566666666666667,2025-04-22T14:20:19.516+03:00,0.02197104130929222,0
2025-04-30T12:05:26.993+03:00,1746003925.099867,40.95226695023776,29.14029258169347,76.49437,-1,-1,-1,-1,30,23.52888653378506,-9999,11630.794050625,-0.59259033203125,0.6318359375,-0.48992919921875,11630.789012625,-0.2747217212032496,-0.8812112779581839,-0.6887607670094111,-0.01448826864361763,-0.0002042646519839764,-0.003768600290641189,0.004049003124237061,-0.01019936800003052,0.002076327800750732,XArbitraryZVertical,0.3574625958799411,0.3558507516860003,-0.02605189313710666,-0.8630829851808036,-0.5956323146820068,0.6355809569358826,-0.4911814630031586,0,0,0,-1,-1,11626.41096479167,unknown,2,2025-04-30T12:05:22.605+03:00,2025-04-30T12:00:08.093+03:00,78,0.8511127,0,0,67.24366,0,0,2025-04-30T12:05:25.185+03:00,767696725.2885216,0,1.72,100.9503,1,0.8,2025-04-30T12:05:06.899+03:00,94,1.566666666666667,2025-04-22T14:20:19.516+03:00,0.02197104130929222,0
2025-04-30T12:05:27.003+03:00,1746003925.099867,40.95226695023776,29.14029258169347,76.49437,-1,-1,-1,-1,30,23.52888653378506,-9999,11630.804126625,-0.5947723388671875,0.63531494140625,-0.4902496337890625,11630.799088625,-0.2749127522728461,-0.8813706794672842,-0.6888069485209518,-0.01026130001991987,-0.00567013630643487,-0.006596078630536795,0.003097474575042725,-0.003780603408813477,0.001138687133789062,XArbitraryZVertical,0.3575135431710763,0.3558794118347056,-0.0260081102032427,-0.8630513488092321,-0.5956879258155823,0.6356166005134583,-0.4910678267478943,0,0,0,-1,-1,11626.41096479167,unknown,2,2025-04-30T12:05:22.605+03:00,2025-04-30T12:00:08.093+03:00,78,0.8511127,0,0,67.24366,0,0,2025-04-30T12:05:25.185+03:00,767696725.2885216,0,1.72,100.9503,1,0.8,2025-04-30T12:05:06.899+03:00,94,1.566666666666667,2025-04-22T14:20:19.516+03:00,0.02197104130929222,0
2025-04-30T12:05:27.013+03:00,1746003925.099867,40.95226695023776,29.14029258169347,76.49437,-1,-1,-1,-1,30,23.52888653378506,-9999,11630.814203625,-0.5946197509765625,0.6356964111328125,-0.492889404296875,11630.809164625,-0.2750683870860246,-0.8815402047632797,-0.6888285373347846,-0.009202294051647186,-0.006461228709667921,-0.007549690082669258,0.0009881854057312012,-0.0003182291984558105,0.0007085800170898438,XArbitraryZVertical,0.3575479113572361,0.3559219378118084,-0.02597598889430973,-0.8630205792535589,-0.5957605838775635,0.6356332302093506,-0.4909581243991852,0,0,0,-1,-1,11626.41096479167,unknown,2,2025-04-30T12:05:22.605+03:00,2025-04-30T12:00:08.093+03:00,78,0.8511127,0,0,67.24366,0,0,2025-04-30T12:05:25.185+03:00,767696725.2885216,0,1.72,100.9503,1,0.8,2025-04-30T12:05:06.899+03:00,94,1.566666666666667,2025-04-22T14:20:19.516+03:00,0.02197104130929222,0
2025-04-30T12:05:27.024+03:00,1746003925.099867,40.95226695023776,29.14029258169347,76.49437,-1,-1,-1,-1,30,23.52888653378506,-9999,11630.824279625,-0.5962066650390625,0.6348876953125,-0.492645263671875,11630.819241625,-0.2752156724445934,-0.8816871504183326,-0.6888304362918084,-0.009174862876534462,-0.002280864398926497,-0.007468463387340307,0.001211941242218018,6.175041198730469e-05,-0.002019524574279785,XArbitraryZVertical,0.35757300235295,0.3559587689704909,-0.02593912672599198,-0.8629960909089113,-0.5958318114280701,0.63563472032547,-0.4908698201179504,0,0,0,-1,-1,11626.41096479167,unknown,2,2025-04-30T12:05:22.605+03:00,2025-04-30T12:00:08.093+03:00,78,0.8511127,0,0,67.24366,0,0,2025-04-30T12:05:25.185+03:00,767696725.2885216,0,1.72,100.9503,1,0.8,2025-04-30T12:05:06.899+03:00,94,1.566666666666667,2025-04-22T14:20:19.516+03:00,0.02197104130929222,0
2025-04-30T12:05:27.041+03:00,1746003925.099867,40.95226695023776,29.14029258169347,76.49437,-1,-1,-1,-1,30,23.52888653378506,-9999,11630.834355625,-0.596282958984375,0.636566162109375,-0.489532470703125,11630.829317625,-0.2753405922548504,-0.8818085090251755,-0.6888397297256262,-0.00748009467497468,-0.005124920979142189,-0.00570215517655015,-0.0003199577331542969,-0.0007541179656982422,-0.001851439476013184,XArbitraryZVertical,0.3575974935401864,0.3559875952124819,-0.02590896983180752,-0.8629749474690935,-0.595886766910553,0.635641872882843,-0.4907937347888947,0,0,0,-1,-1,11626.41096479167,unknown,2,2025-04-30T12:05:22.605+03:00,2025-04-30T12:00:08.093+03:00,78,0.8511127,0,0,67.24366,0,0,2025-04-30T12:05:25.185+03:00,767696725.2885216,0,1.72,100.9503,1,0.8,2025-04-30T12:05:06.899+03:00,94,1.566666666666667,2025-04-22T14:20:19.516+03:00,0.02197104130929222,0
2025-04-30T12:05:27.044+03:00,1746003925.099867,40.95226695023776,29.14029258169347,76.49437,-1,-1,-1,-1,30,23.52888653378506,-9999,11630.844431625,-0.597625732421875,0.634490966796875,-0.4861297607421875,11630.839393625,-0.2754675798260147,-0.8819207020283258,-0.6888364244119632,-0.00691017834469676,-0.001688377466052771,-0.007048382889479399,-0.000339508056640625,0.0009269118309020996,0.001195847988128662,XArbitraryZVertical,0.3576172689880058,0.3560137217083288,-0.0258734964176883,-0.8629570807958111,-0.5959435105323792,0.6356393694877625,-0.4907282292842865,0,0,0,-1,-1,11626.41096479167,unknown,2,2025-04-30T12:05:22.605+03:00,2025-04-30T12:00:08.093+03:00,78,0.8511127,0,0,67.24366,0,0,2025-04-30T12:05:25.185+03:00,767696725.2885216,0,1.72,100.9503,1,0.8,2025-04-30T12:05:06.899+03:00,94,1.566666666666667,2025-04-22T14:20:19.516+03:00,0.02197104130929222,0
2025-04-30T12:05:27.054+03:00,1746003925.099867,40.95226695023776,29.14029258169347,76.49437,-1,-1,-1,-1,30,23.52888653378506,-9999,11630.854507625,-0.59686279296875,0.6321868896484375,-0.484649658203125,11630.849469625,-0.2755687988283066,-0.8819921384595577,-0.6887994411450272,-0.001602031872607768,-0.0004934840835630894,-0.007325784768909216,-0.001629173755645752,-0.001119732856750488,0.004570901393890381,XArbitraryZVertical,0.3576191781914289,0.3560312631306317,-0.02583449928746709,-0.862950110466839,-0.595996618270874,0.635610818862915,-0.4907005131244659,0,0,0,-1,-1,11626.41096479167,unknown,2,2025-04-30T12:05:22.605+03:00,2025-04-30T12:00:08.093+03:00,78,0.8511127,0,0,67.24366,0,0,2025-04-30T12:05:25.185+03:00,767696725.2885216,0,1.72,100.9503,1,0.8,2025-04-30T12:05:06.899+03:00,94,1.566666666666667,2025-04-22T14:20:19.516+03:00,0.02197104130929222,0
2025-04-30T12:05:27.064+03:00,1746003925.099867,40.95226695023776,29.14029258169347,76.49437,-1,-1,-1,-1,30,23.52888653378506,-9999,11630.864583625,-0.595245361328125,0.63043212890625,-0.4842987060546875,11630.859545625,-0.2756609383162711,-0.8820446773422624,-0.6887633434492261,-0.0057030338793993,0.002071140101179481,-0.00310147856362164,-0.0008227229118347168,-0.003395974636077881,0.006034255027770996,XArbitraryZVertical,0.3576200386517414,0.3560421425059653,-0.0257961947964546,-0.8629464203032039,-0.5960401296615601,0.6355829238891602,-0.4906837940216064,0,0,0,-1,-1,11626.41096479167,unknown,2,2025-04-30T12:05:22.605+03:00,2025-04-30T12:00:08.093+03:00,78,0.8511127,0,0,67.24366,0,0,2025-04-30T12:05:25.185+03:00,767696725.2885216,0,1.72,100.9503,1,0.8,2025-04-30T12:05:06.899+03:00,94,1.566666666666667,2025-04-22T14:20:19.516+03:00,0.02197104130929222,0
2025-04-30T12:05:27.074+03:00,1746003925.099867,40.95226695023776,29.14029258169347,76.49437,-1,-1,-1,-1,30,23.52888653378506,-9999,11630.874659625,-0.594940185546875,0.6298675537109375,-0.48529052734375,11630.869621625,-0.2757332199976276,-0.8820688313357637,-0.688725243170661,-0.003673638217151165,0.005081644281744957,-0.007527219131588936,0.0008252263069152832,-0.005121290683746338,0.006386160850524902,XArbitraryZVertical,0.3576169065856249,0.356044585817587,-0.02576094164019401,-0.8629477734641995,-0.5960706472396851,0.6355535387992859,-0.4906848073005676,0,0,0,-1,-1,11626.41096479167,unknown,2,2025-04-30T12:05:22.605+03:00,2025-04-30T12:00:08.093+03:00,78,0.8511127,0,0,67.24366,0,0,2025-04-30T12:05:25.185+03:00,767696725.2885216,0,1.72,100.9503,1,0.8,2025-04-30T12:05:06.899+03:00,94,1.566666666666667,2025-04-22T14:20:19.516+03:00,0.02197104130929222,0
2025-04-30T12:05:27.084+03:00,1746003925.099867,40.95226695023776,29.14029258169347,76.49437,-1,-1,-1,-1,30,23.52888653378506,-9999,11630.884735625,-0.5926666259765625,0.6308746337890625,-0.488677978515625,11630.879697625,-0.2758137047687519,-0.8820868168606466,-0.6887014723976139,-0.003760989988222718,0.001018992159515619,-0.004897880367934704,0.001150906085968018,-0.005667507648468018,0.005393266677856445,XArbitraryZVertical,0.3576212230484636,0.356041044022623,-0.02572420653254203,-0.8629485264412566,-0.5960911512374878,0.6355351805686951,-0.4906836748123169,0,0,0,-1,-1,11626.41096479167,unknown,2,2025-04-30T12:05:22.605+03:00,2025-04-30T12:00:08.093+03:00,78,0.8511127,0,0,67.24366,0,0,2025-04-30T12:05:25.185+03:00,767696725.2885216,0,1.72,100.9503,1,0.8,2025-04-30T12:05:06.899+03:00,94,1.566666666666667,2025-04-22T14:20:19.516+03:00,0.02197104130929222,0
2025-04-30T12:05:27.094+03:00,1746003925.099867,40.95226695023776,29.14029258169347,76.49437,-1,-1,-1,-1,30,23.52888653378506,-9999,11630.894812625,-0.5937652587890625,0.628387451171875,-0.49169921875,11630.889773625,-0.2759025390456883,-0.8821498039820985,-0.688703018936118,-0.007002456579357386,-0.002603040542453527,-0.00340737565420568,0.003454625606536865,-0.004661679267883301,0.001967638731002808,XArbitraryZVertical,0.3576368729108901,0.3560521387711111,-0.02569748807467522,-0.8629382359862404,-0.5961212515830994,0.6355363726615906,-0.4906454980373383,0,0,0,-1,-1,11626.41096479167,unknown,2,2025-04-30T12:05:22.605+03:00,2025-04-30T12:00:08.093+03:00,78,0.8511127,0,0,67.24366,0,0,2025-04-30T12:05:25.185+03:00,767696725.2885216,0,1.72,100.9503,1,0.8,2025-04-30T12:05:06.899+03:00,94,1.566666666666667,2025-04-22T14:20:19.516+03:00,0.02197104130929222,0
2025-04-30T12:05:27.104+03:00,1746003925.099867,40.95226695023776,29.14029258169347,76.49437,-1,-1,-1,-1,30,23.52888653378506,-9999,11630.904888625,-0.5946502685546875,0.6270904541015625,-0.4948577880859375,11630.899850625,-0.2759869195158924,-0.882238171441901,-0.6887228905800084,-0.009216874837875366,-0.004840895067900419,-0.001804685452952981,0.002389609813690186,-0.007164239883422852,-0.001114338636398315,XArbitraryZVertical,0.3576589423982458,0.3560725962353115,-0.02568125722071531,-0.8629211251294412,-0.5961548686027527,0.6355516910552979,-0.4905847609043121,0,0,0,-1,-1,11626.41096479167,unknown,2,2025-04-30T12:05:22.605+03:00,2025-04-30T12:00:08.093+03:00,78,0.8511127,0,0,67.24366,0,0,2025-04-30T12:05:25.185+03:00,767696725.2885216,0,1.72,100.9503,1,0.8,2025-04-30T12:05:06.899+03:00,94,1.566666666666667,2025-04-22T14:20:19.516+03:00,0.02197104130929222,0
2025-04-30T12:05:27.114+03:00,1746003925.099867,40.95226695023776,29.14029258169347,76.49437,-1,-1,-1,-1,30,23.52888653378506,-9999,11630.914964625,-0.5936737060546875,0.632049560546875,-0.4954071044921875,11630.909926625,-0.2760494656505177,-0.8823261942538331,-0.6887442622850437,-0.004409336484968662,-0.006920823361724615,0.0004559388034977019,0.0015372633934021,-0.008477687835693359,-0.004333972930908203,XArbitraryZVertical,0.357677723034601,0.3560966030430959,-0.02567469478678548,-0.8629036908769609,-0.5961875915527344,0.6355682015419006,-0.4905237257480621,0,0,0,-1,-1,11626.41096479167,unknown,2,2025-04-30T12:05:22.605+03:00,2025-04-30T12:00:08.093+03:00,78,0.8511127,0,0,67.24366,0,0,2025-04-30T12:05:25.185+03:00,767696725.2885216,0,1.72,100.9503,1,0.8,2025-04-30T12:05:06.899+03:00,94,1.566666666666667,2025-04-22T14:20:19.516+03:00,0.02197104130929222,0
2025-04-30T12:05:27.124+03:00,1746003925.099867,40.95226695023776,29.14029258169347,76.49437,-1,-1,-1,-1,30,23.52888653378506,-9999,11630.925040625,-0.594512939453125,0.63690185546875,-0.48724365234375,11630.920002625,-0.2760701557985112,-0.8824395684134558,-0.6887552056381983,-0.0001080651127267629,-0.0101629551500082,0.0009427646291442215,0.002564072608947754,-0.003526985645294189,-0.004955291748046875,XArbitraryZVertical,0.3576844507193112,0.3561403935977394,-0.02568844760525442,-0.8628824340758333,-0.59623783826828,0.6355766654014587,-0.4904516935348511,0,0,0,-1,-1,11626.41096479167,unknown,2,2025-04-30T12:05:22.605+03:00,2025-04-30T12:00:08.093+03:00,78,0.8511127,0,0,67.24366,0,0,2025-04-30T12:05:25.185+03:00,767696725.2885216,0,1.72,100.9503,1,0.8,2025-04-30T12:05:06.899+03:00,94,1.566666666666667,2025-04-22T14:20:19.516+03:00,0.02197104130929222,0
2025-04-30T12:05:27.134+03:00,1746003925.099867,40.95226695023776,29.14029258169347,76.49437,-1,-1,-1,-1,30,23.52888653378506,-9999,11630.935116625,-0.5991668701171875,0.6363677978515625,-0.48779296875,11630.930078625,-0.2760806322318248,-0.8825123601078394,-0.6887707414516017,-0.0006658642087131739,-0.0008271117694675922,0.0005942233838140965,0.001752912998199463,0.001313328742980957,0.003158450126647949,XArbitraryZVertical,0.3576917785202423,0.3561679070692316,-0.02570036785563108,-0.862867677402732,-0.5962659120559692,0.6355886459350586,-0.4904020130634308,0,0,0,-1,-1,11626.41096479167,unknown,2,2025-04-30T12:05:22.605+03:00,2025-04-30T12:00:08.093+03:00,78,0.8511127,0,0,67.24366,0,0,2025-04-30T12:05:25.185+03:00,767696725.2885216,0,1.72,100.9503,1,0.8,2025-04-30T12:05:06.899+03:00,94,1.566666666666667,2025-04-22T14:20:19.516+03:00,0.02197104130929222,0
2025-04-30T12:05:27.144+03:00,1746003925.099867,40.95226695023776,29.14029258169347,76.49437,-1,-1,-1,-1,30,23.52888653378506,-9999,11630.945192625,-0.600189208984375,0.6377716064453125,-0.489288330078125,11630.940154625,-0.2760822622583745,-0.8825052775913844,-0.6887323982060318,0.004002657253295183,0.003046988742426038,-0.001655348809435964,-0.002885699272155762,0.0008087754249572754,0.002628862857818604,XArbitraryZVertical,0.3576764093022067,0.3561695556491727,-0.0256899881081644,-0.8628735903481886,-0.5962812304496765,0.6355590224266052,-0.4904216825962067,0,0,0,-1,-1,11626.41096479167,unknown,2,2025-04-30T12:05:22.605+03:00,2025-04-30T12:00:08.093+03:00,78,0.8511127,0,0,67.24366,0,0,2025-04-30T12:05:25.185+03:00,767696725.2885216,0,1.72,100.9503,1,0.8,2025-04-30T12:05:06.899+03:00,94,1.566666666666667,2025-04-22T14:20:19.516+03:00,0.02197104130929222,0
2025-04-30T12:05:27.155+03:00,1746003925.099867,40.95226695023776,29.14029258169347,76.49437,-1,-1,-1,-1,30,23.52888653378506,-9999,11630.955268625,-0.5958251953125,0.63824462890625,-0.4845733642578125,11630.950230625,-0.2760251563527583,-0.8824261240781816,-0.6886556541704142,0.01043871883302927,0.007252119947224855,-0.002272403333336115,-0.003909111022949219,0.002271890640258789,0.001211702823638916,XArbitraryZVertical,0.3576356274113544,0.3561555744606046,-0.02568354360056075,-0.8628965687669077,-0.5962801575660706,0.6354997754096985,-0.4904999434947968,0,0,0,-1,-1,11626.41096479167,unknown,2,2025-04-30T12:05:22.605+03:00,2025-04-30T12:00:08.093+03:00,78,0.8511127,0,0,67.24366,0,0,2025-04-30T12:05:25.185+03:00,767696725.2885216,0,1.72,100.9503,1,0.8,2025-04-30T12:05:06.899+03:00,94,1.566666666666667,2025-04-22T14:20:19.516+03:00,0.02197104130929222,0
2025-04-30T12:05:27.165+03:00,1746003925.099867,40.95226695023776,29.14029258169347,76.49437,-1,-1,-1,-1,30,23.52888653378506,-9999,11630.965345625,-0.5960235595703125,0.629608154296875,-0.4819488525390625,11630.960306625,-0.275944258986165,-0.8822762299406069,-0.6886061316561617,0.006074863020330667,0.0128032136708498,0.002633405849337578,0.0004056692123413086,0.00278317928314209,0.006036102771759033,XArbitraryZVertical,0.3576027420983011,0.3561117931581236,-0.02568072858503896,-0.8629284056617827,-0.5962309837341309,0.6354615688323975,-0.490609347820282,0,0,0,-1,-1,11626.41096479167,unknown,2,2025-04-30T12:05:22.605+03:00,2025-04-30T12:00:08.093+03:00,78,0.8511127,0,0,67.24366,0,0,2025-04-30T12:05:25.185+03:00,767696725.2885216,0,1.72,100.9503,1,0.8,2025-04-30T12:05:06.899+03:00,94,1.566666666666667,2025-04-22T14:20:19.516+03:00,0.02197104130929222,0
2025-04-30T12:05:27.174+03:00,1746003925.099867,40.95226695023776,29.14029258169347,76.49437,-1,-1,-1,-1,30,23.52888653378506,-9999,11630.975421625,-0.596771240234375,0.625946044921875,-0.4839324951171875,11630.970383625,-0.2758599846587357,-0.8820779961376098,-0.6886059540136453,0.00331929000094533,0.01388898305594921,0.004262461327016354,0.0001100897789001465,-0.005853176116943359,0.008778810501098633,XArbitraryZVertical,0.3575902264846829,0.3560413582723969,-0.02568162268159835,-0.8629625843938722,-0.5961337685585022,0.6354613900184631,-0.490727573633194,0,0,0,-1,-1,11626.41096479167,unknown,2,2025-04-30T12:05:22.605+03:00,2025-04-30T12:00:08.093+03:00,78,0.8511127,0,0,67.24366,0,0,2025-04-30T12:05:25.185+03:00,767696725.2885216,0,1.72,100.9503,1,0.8,2025-04-30T12:05:06.899+03:00,94,1.566666666666667,2025-04-22T14:20:19.516+03:00,0.02197104130929222,0
2025-04-30T12:05:27.185+03:00,1746003925.099867,40.95226695023776,29.14029258169347,76.49437,-1,-1,-1,-1,30,23.52888653378506,-9999,11630.985497625,-0.592559814453125,0.6278533935546875,-0.4851226806640625,11630.980459625,-0.2758013289200287,-0.8819104126958129,-0.6886190665081597,-0.001384651404805481,0.0113613773137331,0.007906464859843254,-0.0007262229919433594,-0.009525477886199951,0.00688973069190979,XArbitraryZVertical,0.3575873567851529,0.3559778408910271,-0.02567987307900956,-0.8629899700310225,-0.5960450172424316,0.635471522808075,-0.4908221065998077,0,0,0,-1,-1,11626.41096479167,unknown,2,2025-04-30T12:05:22.605+03:00,2025-04-30T12:00:08.093+03:00,78,0.8511127,0,0,67.24366,0,0,2025-04-30T12:05:25.185+03:00,767696725.2885216,0,1.72,100.9503,1,0.8,2025-04-30T12:05:06.899+03:00,94,1.566666666666667,2025-04-22T14:20:19.516+03:00,0.02197104130929222,0
2025-04-30T12:05:27.195+03:00,1746003925.099867,40.95226695023776,29.14029258169347,76.49437,-1,-1,-1,-1,30,23.52888653378506,-9999,11630.995573625,-0.5902862548828125,0.628143310546875,-0.486907958984375,11630.990535625,-0.275753054798859,-0.8817500697586077,-0.6886593437759297,-0.001579062081873417,0.009826864115893841,0.007643344346433878,0.00338667631149292,-0.00764918327331543,0.005778849124908447,XArbitraryZVertical,0.3575973975983622,0.3559120505548788,-0.02568088492303062,-0.8630129386256634,-0.5959465503692627,0.6355026364326477,-0.4909014403820038,0,0,0,-1,-1,11626.41096479167,unknown,2,2025-04-30T12:05:22.605+03:00,2025-04-30T12:00:08.093+03:00,78,0.8511127,0,0,67.24366,0,0,2025-04-30T12:05:25.185+03:00,767696725.2885216,0,1.72,100.9503,1,0.8,2025-04-30T12:05:06.899+03:00,94,1.566666666666667,2025-04-22T14:20:19.516+03:00,0.02197104130929222,0
2025-04-30T12:05:27.205+03:00,1746003925.099867,40.95226695023776,29.14029258169347,76.49437,-1,-1,-1,-1,30,23.52888653378506,-9999,11631.005649625,-0.594085693359375,0.6316680908203125,-0.4885711669921875,11631.000611625,-0.2757313282235717,-0.8816492164738982,-0.688734405365769,-0.006385268643498421,0.00573225412517786,0.008621257729828358,0.005573868751525879,-0.007417201995849609,0.004023313522338867,XArbitraryZVertical,0.3576257406721603,0.3558626744144732,-0.02568874282080097,-0.8630212932642732,-0.5958602428436279,0.6355605721473694,-0.4909311830997467,0,0,0,-1,-1,11626.41096479167,unknown,2,2025-04-30T12:05:22.605+03:00,2025-04-30T12:00:08.093+03:00,78,0.8511127,0,0,67.24366,0,0,2025-04-30T12:05:25.185+03:00,767696725.2885216,0,1.72,100.9503,1,0.8,2025-04-30T12:05:06.899+03:00,94,1.566666666666667,2025-04-22T14:20:19.516+03:00,0.02197104130929222,0
2025-04-30T12:05:27.215+03:00,1746003925.099867,40.95226695023776,29.14029258169347,76.49437,-1,-1,-1,-1,30,23.52888653378506,-9999,11631.015725625,-0.5953521728515625,0.6349639892578125,-0.4883270263671875,11631.010687625,-0.2757393732417703,-0.8816027280280998,-0.6888424707927961,-0.005896445829421282,0.003332879161462188,0.005348565522581339,0.001698613166809082,-0.003975927829742432,0.002344101667404175,XArbitraryZVertical,0.3576722777691044,0.3558271507162152,-0.02570073572540441,-0.8630162517975188,-0.5957843661308289,0.6356440186500549,-0.4909151494503021,0,0,0,-1,-1,11626.41096479167,unknown,2,2025-04-30T12:05:22.605+03:00,2025-04-30T12:00:08.093+03:00,78,0.8511127,0,0,67.24366,0,0,2025-04-30T12:05:25.185+03:00,767696725.2885216,0,1.72,100.9503,1,0.8,2025-04-30T12:05:06.899+03:00,94,1.566666666666667,2025-04-22T14:20:19.516+03:00,0.02197104130929222,0
2025-04-30T12:05:27.225+03:00,1746003925.099867,40.95226695023776,29.14029258169347,76.49437,-1,-1,-1,-1,30,23.52888653378506,-9999,11631.025801625,-0.59539794921875,0.63568115234375,-0.4879913330078125,11631.020763625,-0.2757486767445524,-0.8816073500600412,-0.6889033547221515,-0.00220743496902287,-0.003249389585107565,0.003664648393169045,0.0004045367240905762,-0.0007269382476806641,0.002560913562774658,XArbitraryZVertical,0.3576989188674964,0.3558195671528325,-0.02571091573007218,-0.863008091377326,-0.5957567691802979,0.6356909871101379,-0.490887850522995,0,0,0,-1,-1,11626.41096479167,unknown,2,2025-04-30T12:05:22.605+03:00,2025-04-30T12:00:08.093+03:00,78,0.8511127,0,0,67.24366,0,0,2025-04-30T12:05:25.185+03:00,767696725.2885216,0,1.72,100.9503,1,0.8,2025-04-30T12:05:06.899+03:00,94,1.566666666666667,2025-04-22T14:20:19.516+03:00,0.02197104130929222,0
2025-04-30T12:05:27.235+03:00,1746003925.099867,40.95226695023776,29.14029258169347,76.49437,-1,-1,-1,-1,30,23.52888653378506,-9999,11631.035877625,-0.59503173828125,0.6370697021484375,-0.4877166748046875,11631.030839625,-0.2757509730058492,-0.8816508125431521,-0.6889189287034886,0.002308554016053677,-0.004387558437883854,2.360786311328411e-05,0.000372469425201416,-2.181529998779297e-05,0.002864420413970947,XArbitraryZVertical,0.357705172451503,0.3558358850700026,-0.02572111539623419,-0.8629984891390098,-0.595770537853241,0.6357030272483826,-0.4908556640148163,0,0,0,-1,-1,11626.41096479167,unknown,2,2025-04-30T12:05:22.605+03:00,2025-04-30T12:00:08.093+03:00,78,0.8511127,0,0,67.24366,0,0,2025-04-30T12:05:25.185+03:00,767696725.2885216,0,1.72,100.9503,1,0.8,2025-04-30T12:05:06.899+03:00,94,1.566666666666667,2025-04-22T14:20:19.516+03:00,0.02197104130929222,0
2025-04-30T12:05:27.245+03:00,1746003925.099867,40.95226695023776,29.14029258169347,76.49437,-1,-1,-1,-1,30,23.52888653378506,-9999,11631.045954625,-0.5941925048828125,0.632415771484375,-0.4874267578125,11631.040916625,-0.2757325441366216,-0.8817132550782655,-0.6888968533314059,0.004885162226855755,-0.009159410372376442,-0.00162435625679791,0.0007801651954650879,0.001383781433105469,0.003110826015472412,XArbitraryZVertical,0.3576920026152859,0.3558689917729176,-0.02573538152273317,-0.8629898691420812,-0.5958119630813599,0.6356859803199768,-0.4908273816108704,0,0,0,-1,-1,11626.41096479167,unknown,2,2025-04-30T12:05:22.605+03:00,2025-04-30T12:00:08.093+03:00,78,0.8511127,0,0,67.24366,0,0,2025-04-30T12:05:25.185+03:00,767696725.2885216,0,1.72,100.9503,1,0.8,2025-04-30T12:05:06.899+03:00,94,1.566666666666667,2025-04-22T14:20:19.516+03:00,0.02197104130929222,0
2025-04-30T12:05:27.255+03:00,1746003925.099867,40.95226695023776,29.14029258169347,76.49437,-1,-1,-1,-1,30,23.52888653378506,-9999,11631.056030625,-0.5951080322265625,0.6265869140625,-0.487091064453125,11631.050992625,-0.2757351953404398,-0.8818365635973275,-0.688851563906043,0.001265526749193668,-0.01277931220829487,-0.004690919537097216,0.00170212984085083,-0.003235220909118652,0.003345519304275513,XArbitraryZVertical,0.3576722684501222,0.3559276157661404,-0.02574635453878802,-0.8629734720464515,-0.5958946943283081,0.6356510519981384,-0.490772157907486,0,0,0,-1,-1,11626.41096479167,unknown,2,2025-04-30T12:05:22.605+03:00,2025-04-30T12:00:08.093+03:00,78,0.8511127,0,0,67.24366,0,0,2025-04-30T12:05:25.185+03:00,767696725.2885216,0,1.72,100.9503,1,0.8,2025-04-30T12:05:06.899+03:00,94,1.566666666666667,2025-04-22T14:20:19.516+03:00,0.02197104130929222,0
2025-04-30T12:05:27.265+03:00,1746003925.099867,40.95226695023776,29.14029258169347,76.49437,-1,-1,-1,-1,30,23.52888653378506,-9999,11631.066106625,-0.5965423583984375,0.6276702880859375,-0.4892120361328125,11631.061068625,-0.2757527386290077,-0.8819697424415068,-0.6888029778761628,0.001110530924052,-0.007364839315414429,-0.0007433159044012427,0.0008758306503295898,-0.009026467800140381,0.003621518611907959,XArbitraryZVertical,0.3576536302722734,0.3559882348646949,-0.02575187429100862,-0.8629561495686661,-0.5959839820861816,0.6356135010719299,-0.4907125234603882,0,0,0,-1,-1,11626.41096479167,unknown,2,2025-04-30T12:05:22.605+03:00,2025-04-30T12:00:08.093+03:00,78,0.8511127,0,0,67.24366,0,0,2025-04-30T12:05:25.185+03:00,767696725.2885216,0,1.72,100.9503,1,0.8,2025-04-30T12:05:06.899+03:00,94,1.566666666666667,2025-04-22T14:20:19.516+03:00,0.02197104130929222,0
2025-04-30T12:05:27.275+03:00,1746003925.099867,40.95226695023776,29.14029258169347,76.49437,-1,-1,-1,-1,30,23.52888653378506,-9999,11631.076182625,-0.599578857421875,0.6286773681640625,-0.4895172119140625,11631.071144625,-0.2757671591820962,-0.8820548454182672,-0.688806941211787,-0.002430541440844536,-0.008224374614655972,-0.0006035665282979608,-0.0005186796188354492,-0.007946193218231201,0.001448214054107666,XArbitraryZVertical,0.3576567454208694,0.3560218661143499,-0.02576175452355185,-0.8629406541991309,-0.5960237383842468,0.6356166005134583,-0.490660160779953,0,0,0,-1,-1,11626.41096479167,unknown,2,2025-04-30T12:05:22.605+03:00,2025-04-30T12:00:08.093+03:00,78,0.8511127,0,0,67.24366,0,0,2025-04-30T12:05:25.185+03:00,767696725.2885216,0,1.72,100.9503,1,0.8,2025-04-30T12:05:06.899+03:00,94,1.566666666666667,2025-04-22T14:20:19.516+03:00,0.02197104130929222,0
2025-04-30T12:05:27.285+03:00,1746003925.099867,40.95226695023776,29.14029258169347,76.49437,-1,-1,-1,-1,30,23.52888653378506,-9999,11631.086258625,-0.598236083984375,0.630523681640625,-0.4888763427734375,11631.081220625,-0.2757857227567478,-0.8821144245338863,-0.6888238807423099,-0.001814285758882761,-0.004501807503402233,0.001502993749454618,-0.003534257411956787,-0.006952226161956787,0.001100659370422363,XArbitraryZVertical,0.3576662584267274,0.35604205373216,-0.02576812842383596,-0.8629281846139376,-0.596044659614563,0.6356296539306641,-0.4906178116798401,0,0,0,-1,-1,11626.41096479167,unknown,2,2025-04-30T12:05:22.605+03:00,2025-04-30T12:00:08.093+03:00,78,0.8511127,0,0,67.24366,0,0,2025-04-30T12:05:25.185+03:00,767696725.2885216,0,1.72,100.9503,1,0.8,2025-04-30T12:05:06.899+03:00,94,1.566666666666667,2025-04-22T14:20:19.516+03:00,0.02197104130929222,0
2025-04-30T12:05:27.296+03:00,1746003925.099867,40.95226695023776,29.14029258169347,76.49437,-1,-1,-1,-1,30,23.52888653378506,-9999,11631.096334625,-0.59686279296875,0.634979248046875,-0.4886016845703125,11631.091296625,-0.2757889349971538,-0.8821493470815241,-0.6888568192708264,-0.004333170130848885,-0.003447262104600668,0.002346117282286286,-0.002190589904785156,-0.005131304264068604,0.00170743465423584,XArbitraryZVertical,0.3576799630649902,0.3560522780899645,-0.0257802562347818,-0.8629178577479236,-0.5960455536842346,0.6356551051139832,-0.4905836284160614,0,0,0,-1,-1,11626.41096479167,unknown,2,2025-04-30T12:05:22.605+03:00,2025-04-30T12:00:08.093+03:00,78,0.8511127,0,0,67.24366,0,0,2025-04-30T12:05:25.185+03:00,767696725.2885216,0,1.72,100.9503,1,0.8,2025-04-30T12:05:06.899+03:00,94,1.566666666666667,2025-04-22T14:20:19.516+03:00,0.02197104130929222,0
2025-04-30T12:05:27.306+03:00,1746003925.099867,40.95226695023776,29.14029258169347,76.49437,-1,-1,-1,-1,30,23.52888653378506,-9999,11631.106410625,-0.5983428955078125,0.634918212890625,-0.4868011474609375,11631.101372625,-0.2757975798484637,-0.8821815129964892,-0.6888934098551444,-0.002251643454656005,-0.002449642401188612,0.001645439537242055,-0.0008193850517272949,-0.0007040500640869141,0.001948148012161255,XArbitraryZVertical,0.3576961452507071,0.3560598555375272,-0.02579032501910548,-0.8629077344260251,-0.5960434079170227,0.6356833577156067,-0.4905496835708618,0,0,0,-1,-1,11626.41096479167,unknown,2,2025-04-30T12:05:22.605+03:00,2025-04-30T12:00:08.093+03:00,78,0.8511127,0,0,67.24366,0,0,2025-04-30T12:05:25.185+03:00,767696725.2885216,0,1.72,100.9503,1,0.8,2025-04-30T12:05:06.899+03:00,94,1.566666666666667,2025-04-22T14:20:19.516+03:00,0.02197104130929222,0
2025-04-30T12:05:27.316+03:00,1746003925.099867,40.95226695023776,29.14029258169347,76.49437,-1,-1,-1,-1,30,23.52888653378506,-9999,11631.116487625,-0.59686279296875,0.63592529296875,-0.4845428466796875,11631.111449625,-0.2757702165899745,-0.8821921698002517,-0.6889061800385304,0.004706331063061953,0.001078180503100157,0.003321333788335323,-0.002300560474395752,-0.0007749795913696289,0.003737181425094604,XArbitraryZVertical,0.3576963928190786,0.3560676884611181,-0.0258068463272842,-0.8629039060363904,-0.5960423946380615,0.6356931924819946,-0.4905381798744202,0,0,0,-1,-1,11626.41096479167,unknown,2,2025-04-30T12:05:22.605+03:00,2025-04-30T12:00:08.093+03:00,78,0.8511127,0,0,67.24366,0,0,2025-04-30T12:05:25.185+03:00,767696725.2885216,0,1.72,100.9503,1,0.8,2025-04-30T12:05:06.899+03:00,94,1.566666666666667,2025-04-22T14:20:19.516+03:00,0.02197104130929222,0
2025-04-30T12:05:27.326+03:00,1746003925.099867,40.95226695023776,29.14029258169347,76.49437,-1,-1,-1,-1,30,23.52888653378506,-9999,11631.126563625,-0.596221923828125,0.635406494140625,-0.48480224609375,11631.121525625,-0.2757083123794387,-0.8821420820796453,-0.6889006430484018,0.004791818559169769,0.001542369369417429,0.004011891316622496,-0.0008423328399658203,0.0002363920211791992,0.006027549505233765,XArbitraryZVertical,0.3576837474284105,0.3560578716276511,-0.02582338674212995,-0.8629126809154994,-0.596020519733429,0.6356889009475708,-0.4905702471733093,0,0,0,-1,-1,11626.41096479167,unknown,2,2025-04-30T12:05:22.605+03:00,2025-04-30T12:00:08.093+03:00,78,0.8511127,0,0,67.24366,0,0,2025-04-30T12:05:25.185+03:00,767696725.2885216,0,1.72,100.9503,1,0.8,2025-04-30T12:05:06.899+03:00,94,1.566666666666667,2025-04-22T14:20:19.516+03:00,0.02197104130929222,0
2025-04-30T12:05:27.336+03:00,1746003925.099867,40.95226695023776,29.14029258169347,76.49437,-1,-1,-1,-1,30,23.52888653378506,-9999,11631.136639625,-0.59552001953125,0.6322784423828125,-0.486419677734375,11631.131601625,-0.2756251291185812,-0.8820707966209904,-0.6888797130337239,0.005801955237984657,0.002925881650298834,0.003962223418056965,-0.000226140022277832,-0.0002661943435668945,0.005819082260131836,XArbitraryZVertical,0.3576612216523403,0.3560447004254876,-0.02584190406588174,-0.8629269581823745,-0.5959958434104919,0.6356727480888367,-0.4906212389469147,0,0,0,-1,-1,11626.41096479167,unknown,2,2025-04-30T12:05:22.605+03:00,2025-04-30T12:00:08.093+03:00,78,0.8511127,0,0,67.24366,0,0,2025-04-30T12:05:25.185+03:00,767696725.2885216,0,1.72,100.9503,1,0.8,2025-04-30T12:05:06.899+03:00,94,1.566666666666667,2025-04-22T14:20:19.516+03:00,0.02197104130929222,0
2025-04-30T12:05:27.346+03:00,1746003925.099867,40.95226695023776,29.14029258169347,76.49437,-1,-1,-1,-1,30,23.52888653378506,-9999,11631.146715625,-0.5961151123046875,0.62921142578125,-0.4900970458984375,11631.141677625,-0.2755507631161151,-0.882013872844463,-0.6888834965086532,0.002076459350064397,0.000988431740552187,0.00477422121912241,0.0004459619522094727,-0.003397166728973389,0.004234075546264648,XArbitraryZVertical,0.3576502715872764,0.3560329452905033,-0.02586463861240736,-0.8629356789213003,-0.595966100692749,0.6356756687164307,-0.4906536638736725,0,0,0,-1,-1,11626.41096479167,unknown,2,2025-04-30T12:05:22.605+03:00,2025-04-30T12:00:08.093+03:00,78,0.8511127,0,0,67.24366,0,0,2025-04-30T12:05:25.185+03:00,767696725.2885216,0,1.72,100.9503,1,0.8,2025-04-30T12:05:06.899+03:00,94,1.566666666666667,2025-04-22T14:20:19.516+03:00,0.02197104130929222,0
2025-04-30T12:05:27.357+03:00,1746003925.099867,40.95226695023776,29.14029258169347,76.49437,-1,-1,-1,-1,30,23.52888653378506,-9999,11631.156791625,-0.599212646484375,0.626129150390625,-0.4911346435546875,11631.151753625,-0.275508872210677,-0.8819477863958629,-0.6889103914265577,-0.002705712569877505,0.005727061070501804,0.006429941859096289,-0.0001947283744812012,-0.006484925746917725,0.0005851984024047852,XArbitraryZVertical,0.3576547446862907,0.356008431664246,-0.02587681376536444,-0.8629435645066205,-0.5959204435348511,0.6356964707374573,-0.4906821548938751,0,0,0,-1,-1,11626.41096479167,unknown,2,2025-04-30T12:05:22.605+03:00,2025-04-30T12:00:08.093+03:00,78,0.8511127,0,0,67.24366,0,0,2025-04-30T12:05:25.185+03:00,767696725.2885216,0,1.72,100.9503,1,0.8,2025-04-30T12:05:06.899+03:00,94,1.566666666666667,2025-04-22T14:20:19.516+03:00,0.02197104130929222,0
2025-04-30T12:05:27.366+03:00,1746003925.099867,40.95226695023776,29.14029258169347,76.49437,-1,-1,-1,-1,30,23.52888653378506,-9999,11631.166867625,-0.59967041015625,0.629150390625,-0.4903411865234375,11631.161829625,-0.2754809723353708,-0.8818766121575343,-0.6889495785714764,7.382879266515374e-05,0.005878062453120947,0.006071214098483324,-0.003346443176269531,-0.009597539901733398,-0.0004258453845977783,XArbitraryZVertical,0.3576668534858464,0.3559776322289736,-0.02588476181559738,-0.8629509547743044,-0.5958662033081055,0.6357266902923584,-0.4907087087631226,0,0,0,-1,-1,11626.41096479167,unknown,2,2025-04-30T12:05:22.605+03:00,2025-04-30T12:00:08.093+03:00,78,0.8511127,0,0,67.24366,0,0,2025-04-30T12:05:25.185+03:00,767696725.2885216,0,1.72,100.9503,1,0.8,2025-04-30T12:05:06.899+03:00,94,1.566666666666667,2025-04-22T14:20:19.516+03:00,0.02197104130929222,0
2025-04-30T12:05:27.376+03:00,1746003925.099867,40.95226695023776,29.14029258169347,76.49437,-1,-1,-1,-1,30,23.52888653378506,-9999,11631.176944625,-0.596282958984375,0.6345062255859375,-0.4912567138671875,11631.171905625,-0.2754391566701877,-0.8817998911196567,-0.6889928040683293,0.0004280958091840148,0.004595017991960049,0.005644209217280149,-0.003863036632537842,-0.006609618663787842,0.0003958940505981445,XArbitraryZVertical,0.3576781661055303,0.3559463822565832,-0.025898558382273,-0.8629588353645282,-0.5958074331283569,0.6357600688934326,-0.4907369911670685,0,0,0,-1,-1,11626.41096479167,unknown,2,2025-04-30T12:05:22.605+03:00,2025-04-30T12:00:08.093+03:00,78,0.8511127,0,0,67.24366,0,0,2025-04-30T12:05:25.185+03:00,767696725.2885216,0,1.72,100.9503,1,0.8,2025-04-30T12:05:06.899+03:00,94,1.566666666666667,2025-04-22T14:20:19.516+03:00,0.02197104130929222,0
2025-04-30T12:05:27.386+03:00,1746003925.099867,40.95226695023776,29.14029258169347,76.49437,-1,-1,-1,-1,30,23.52888653378506,-9999,11631.187020625,-0.5936431884765625,0.63189697265625,-0.490142822265625,11631.181982625,-0.2753592997575555,-0.8816974134590282,-0.6890347736955582,0.001588967745192349,0.004432298708707094,0.00902935303747654,-0.0005464553833007812,-0.001286149024963379,-0.0004755258560180664,XArbitraryZVertical,0.3576825565673347,0.3559109971296059,-0.02592391273424674,-0.8629708610074598,-0.595736563205719,0.6357924342155457,-0.4907810986042023,0,0,0,-1,-1,11626.41096479167,unknown,2,2025-04-30T12:05:22.605+03:00,2025-04-30T12:00:08.093+03:00,78,0.8511127,0,0,67.24366,0,0,2025-04-30T12:05:25.185+03:00,767696725.2885216,0,1.72,100.9503,1,0.8,2025-04-30T12:05:06.899+03:00,94,1.566666666666667,2025-04-22T14:20:19.516+03:00,0.02197104130929222,0
2025-04-30T12:05:27.396+03:00,1746003925.099867,40.95226695023776,29.14029258169347,76.49437,-1,-1,-1,-1,30,23.52888653378506,-9999,11631.197096625,-0.595184326171875,0.6314544677734375,-0.4891357421875,11631.192058625,-0.2752642492247986,-0.8815919982285109,-0.6890656805783059,0.007130739744752645,0.007642473094165325,0.006373116280883551,0.002026379108428955,-0.003919303417205811,0.0006886422634124756,XArbitraryZVertical,0.3576797709330469,0.3558785139459202,-0.02595290255876057,-0.8629844399109579,-0.5956695675849915,0.6358163356781006,-0.4908313155174255,0,0,0,-1,-1,11626.41096479167,unknown,2,2025-04-30T12:05:22.605+03:00,2025-04-30T12:00:08.093+03:00,78,0.8511127,0,0,67.24366,0,0,2025-04-30T12:05:25.185+03:00,767696725.2885216,0,1.72,100.9503,1,0.8,2025-04-30T12:05:06.899+03:00,94,1.566666666666667,2025-04-22T14:20:19.516+03:00,0.02197104130929222,0
2025-04-30T12:05:27.407+03:00,1746003925.099867,40.95226695023776,29.14029258169347,76.49437,-1,-1,-1,-1,30,23.52888653378506,-9999,11631.207172625,-0.595245361328125,0.6334686279296875,-0.4909820556640625,11631.202134625,-0.2751595609879263,-0.881447116333088,-0.6890959149891621,0.007496924139559269,0.01291286945343018,0.00737845990806818,0.0003992319107055664,-0.004385113716125488,0.001769781112670898,XArbitraryZVertical,0.3576754809066131,0.3558308000293198,-0.02597881812101931,-0.863005092459205,-0.5955836176872253,0.6358396410942078,-0.490905374288559,0,0,0,-1,-1,11626.41096479167,unknown,2,2025-04-30T12:05:22.605+03:00,2025-04-30T12:00:08.093+03:00,78,0.8511127,0,0,67.24366,0,0,2025-04-30T12:05:25.185+03:00,767696725.2885216,0,1.72,100.9503,1,0.8,2025-04-30T12:05:06.899+03:00,94,1.566666666666667,2025-04-22T14:20:19.516+03:00,0.02197104130929222,0
2025-04-30T12:05:27.416+03:00,1746003925.099867,40.95226695023776,29.14029258169347,76.49437,-1,-1,-1,-1,30,23.52888653378506,-9999,11631.217248625,-0.5969390869140625,0.6347808837890625,-0.4884490966796875,11631.212210625,-0.2750522380284292,-0.8812353920699371,-0.6891194151143335,0.008341612294316292,0.01666226610541344,0.006507040467113256,0.0002227425575256348,-0.002389132976531982,4.00543212890625e-05,XArbitraryZVertical,0.3576688215452933,0.3557555857256104,-0.0259924356692291,-0.8630384344261669,-0.5954681038856506,0.6358577609062195,-0.4910219609737396,0,0,0,-1,-1,11626.41096479167,unknown,2,2025-04-30T12:05:22.605+03:00,2025-04-30T12:00:08.093+03:00,78,0.8511127,0,0,67.24366,0,0,2025-04-30T12:05:25.185+03:00,767696725.2885216,0,1.72,100.9503,1,0.8,2025-04-30T12:05:06.899+03:00,94,1.566666666666667,2025-04-22T14:20:19.516+03:00,0.02197104130929222,0
2025-04-30T12:05:27.427+03:00,1746003925.099867,40.95226695023776,29.14029258169347,76.49437,-1,-1,-1,-1,30,23.52888653378506,-9999,11631.227324625,-0.5956878662109375,0.632232666015625,-0.4857025146484375,11631.222286625,-0.274937189615868,-0.8810020497612008,-0.6891197845566498,0.007804452907294035,0.01568355597555637,0.007898008450865746,-0.001585721969604492,-0.001077115535736084,0.002711832523345947,XArbitraryZVertical,0.3576515045438152,0.3556754019939937,-0.02600039792281637,-0.8630785293211241,-0.5953534245491028,0.6358580589294434,-0.4911608099937439,0,0,0,-1,-1,11626.41096479167,unknown,2,2025-04-30T12:05:22.605+03:00,2025-04-30T12:00:08.093+03:00,78,0.8511127,0,0,67.24366,0,0,2025-04-30T12:05:25.185+03:00,767696725.2885216,0,1.72,100.9503,1,0.8,2025-04-30T12:05:06.899+03:00,94,1.566666666666667,2025-04-22T14:20:19.516+03:00,0.02197104130929222,0
2025-04-30T12:05:27.437+03:00,1746003925.099867,40.95226695023776,29.14029258169347,76.49437,-1,-1,-1,-1,30,23.52888653378506,-9999,11631.237400625,-0.5927886962890625,0.63037109375,-0.4886627197265625,11631.232362625,-0.2748193147588031,-0.8807826871690865,-0.689097653551326,0.005925060249865055,0.01533068716526031,0.002965834923088551,-0.0004314184188842773,-0.003608226776123047,0.005597949028015137,XArbitraryZVertical,0.3576242829995002,0.3556046840671136,-0.02600717952492246,-0.8631187417916146,-0.595256507396698,0.6358410120010376,-0.4913003742694855,0,0,0,-1,-1,11626.41096479167,unknown,2,2025-04-30T12:05:22.605+03:00,2025-04-30T12:00:08.093+03:00,78,0.8511127,0,0,67.24366,0,0,2025-04-30T12:05:25.185+03:00,767696725.2885216,0,1.72,100.9503,1,0.8,2025-04-30T12:05:06.899+03:00,94,1.566666666666667,2025-04-22T14:20:19.516+03:00,0.02197104130929222,0
