loggingTime(txt),locationTimestamp_since1970(s),locationLatitude(WGS84),locationLongitude(WGS84),locationAltitude(m),locationSpeed(m/s),locationSpeedAccuracy(m/s),locationCourse(°),locationCourseAccuracy(°),locationVerticalAccuracy(m),locationHorizontalAccuracy(m),locationFloor(Z),accelerometerTimestamp_sinceReboot(s),accelerometerAccelerationX(G),accelerometerAccelerationY(G),accelerometerAccelerationZ(G),motionTimestamp_sinceReboot(s),motionYaw(rad),motionRoll(rad),motionPitch(rad),motionRotationRateX(rad/s),motionRotationRateY(rad/s),motionRotationRateZ(rad/s),motionUserAccelerationX(G),motionUserAccelerationY(G),motionUserAccelerationZ(G),motionAttitudeReferenceFrame(txt),motionQuaternionX(R),motionQuaternionY(R),motionQuaternionZ(R),motionQuaternionW(R),motionGravityX(G),motionGravityY(G),motionGravityZ(G),motionMagneticFieldX(µT),motionMagneticFieldY(µT),motionMagneticFieldZ(µT),motionHeading(°),motionMagneticFieldCalibrationAccuracy(Z),activityTimestamp_sinceReboot(s),activity(txt),activityActivityConfidence(Z),activityActivityStartDate(txt),pedometerStartDate(txt),pedometerNumberofSteps(N),pedometerAverageActivePace(s/m),pedometerCurrentPace(s/m),pedometerCurrentCadence(steps/s),pedometerDistance(m),pedometerFloorAscended(N),pedometerFloorDescended(N),pedometerEndDate(txt),altimeterTimestamp_sinceReboot(s),altimeterReset(bool),altimeterRelativeAltitude(m),altimeterPressure(kPa),batteryState(N),batteryLevel(R),heartRateBPMTimestamp(txt),heartRateBPM(N),heartRateBPS(R),heartRateVariabilityTimestamp(txt),heartRateVariability(ms),label
2025-04-30T11:42:12.613+03:00,1746002532.057295,40.95224677673531,29.14029760423168,76.45299,-1,-1,-1,-1,30,23.66668615034241,-9999,10938.98686079167,-0.6531829833984375,0.5419158935546875,-0.4335479736328125,10938.98182279167,-0.8215837526514375,-0.9724299947007872,-0.6170463804510994,-0.007584816310554743,0.003400432178750634,-0.003427267540246248,0.005949616432189941,-0.005233943462371826,0.02437376976013184,XArbitraryZVertical,0.423918181138324,0.3009731548638384,0.2062987334418538,-0.8289447526015168,-0.6738877892494202,0.5786287188529968,-0.4594170749187469,0,0,0,-1,-1,10924.176335875,unknown,2,2025-04-30T11:41:15.341+03:00,2025-04-28T22:17:59.397+03:00,6793,0.81875,0,0,5699.223,11,14,2025-04-30T11:38:30.206+03:00,767695332.2086744,0,-14.62,100.9719,1,0.85,2025-04-30T11:34:04.903+03:00,97,1.616666666666667,2025-04-22T14:20:19.516+03:00,0.02197104130929222,0
2025-04-30T11:42:12.615+03:00,1746002532.057295,40.95224677673531,29.14029760423168,76.45299,-1,-1,-1,-1,30,23.66668615034241,-9999,10938.99693679167,-0.6776885986328125,0.586273193359375,-0.455780029296875,10938.99189879167,-0.8216484319723851,-0.9722794024545003,-0.6170729611433147,-0.005080380011349916,0.0310408491641283,0.0001434987643733621,0.01702189445495605,-0.05431264638900757,0.02904421091079712,XArbitraryZVertical,0.4239219007823999,0.300890825110137,0.2063506061669285,-0.8289598013851733,-0.6738058924674988,0.5786504149436951,-0.4595098793506622,0,0,0,-1,-1,10924.176335875,unknown,2,2025-04-30T11:41:15.341+03:00,2025-04-28T22:17:59.397+03:00,6793,0.81875,0,0,5699.223,11,14,2025-04-30T11:38:30.206+03:00,767695332.2086744,0,-14.62,100.9719,1,0.85,2025-04-30T11:34:04.903+03:00,97,1.616666666666667,2025-04-22T14:20:19.516+03:00,0.02197104130929222,0
2025-04-30T11:42:12.616+03:00,1746002532.057295,40.95224677673531,29.14029760423168,76.45299,-1,-1,-1,-1,30,23.66668615034241,-9999,10939.00701179167,-0.6772003173828125,0.57391357421875,-0.4547271728515625,10939.00197379167,-0.8217137692060438,-0.9721199719561956,-0.6170800398970027,-0.00184430624358356,0.01058038137853146,-0.001363018061965704,0.0116962194442749,-0.008191108703613281,0.01471447944641113,XArbitraryZVertical,0.4239178151798032,0.3008092422362366,0.2064096542594127,-0.8289767880721233,-0.6737292408943176,0.5786561965942383,-0.4596149623394012,0,0,0,-1,-1,10924.176335875,unknown,2,2025-04-30T11:41:15.341+03:00,2025-04-28T22:17:59.397+03:00,6793,0.81875,0,0,5699.223,11,14,2025-04-30T11:38:30.206+03:00,767695332.2086744,0,-14.62,100.9719,1,0.85,2025-04-30T11:34:04.903+03:00,97,1.616666666666667,2025-04-22T14:20:19.516+03:00,0.02197104130929222,0
2025-04-30T11:42:12.617+03:00,1746002532.057295,40.95224677673531,29.14029760423168,76.45299,-1,-1,-1,-1,30,23.66668615034241,-9999,10939.01708779167,-0.65997314453125,0.5788421630859375,-0.4524383544921875,10939.01204979167,-0.8217589992402377,-0.9721127699873688,-0.6170381580288833,0.000138150731800124,-7.039913907647133e-05,-0.005086383782327175,-0.01079374551773071,0.004309475421905518,0.0009390711784362793,XArbitraryZVertical,0.423908863088183,0.3008064472573728,0.2064407298583335,-0.8289746952202268,-0.6737459897994995,0.578622043132782,-0.4596334993839264,0,0,0,-1,-1,10924.176335875,unknown,2,2025-04-30T11:41:15.341+03:00,2025-04-28T22:17:59.397+03:00,6793,0.81875,0,0,5699.223,11,14,2025-04-30T11:38:30.206+03:00,767695332.2086744,0,-14.62,100.9719,1,0.85,2025-04-30T11:34:04.903+03:00,97,1.616666666666667,2025-04-22T14:20:19.516+03:00,0.02197104130929222,0
2025-04-30T11:42:12.621+03:00,1746002532.057295,40.95224677673531,29.14029760423168,76.45299,-1,-1,-1,-1,30,23.66668615034241,-9999,10939.02716279167,-0.667510986328125,0.591339111328125,-0.4597320556640625,10939.02212579167,-0.8217310849858118,-0.9720293036012325,-0.6170182173231722,0.006957707460969687,0.004224214237183332,-0.006029808428138494,0.008266091346740723,-0.007286131381988525,0.008112430572509766,XArbitraryZVertical,0.423888917239867,0.300782417779376,0.2064519859719245,-0.8289908026146831,-0.6737171411514282,0.5786057710647583,-0.4596962332725525,0,0,0,-1,-1,10924.176335875,unknown,2,2025-04-30T11:41:15.341+03:00,2025-04-28T22:17:59.397+03:00,6793,0.81875,0,0,5699.223,11,14,2025-04-30T11:38:30.206+03:00,767695332.2086744,0,-14.62,100.9719,1,0.85,2025-04-30T11:34:04.903+03:00,97,1.616666666666667,2025-04-22T14:20:19.516+03:00,0.02197104130929222,0
2025-04-30T11:42:12.631+03:00,1746002532.057295,40.95224677673531,29.14029760423168,76.45299,-1,-1,-1,-1,30,23.66668615034241,-9999,10939.03723879167,-0.670074462890625,0.5808563232421875,-0.45904541015625,10939.03220079167,-0.8216940141174962,-0.9719965491289664,-0.6169133716851123,0.007794472854584455,-0.003109332174062729,-0.01009139511734247,0.01133763790130615,0.009431421756744385,0.003011167049407959,XArbitraryZVertical,0.4238424712884657,0.3008011431221139,0.2064705579424512,-0.8290030656467575,-0.6737521290779114,0.5785202383995056,-0.4597524702548981,0,0,0,-1,-1,10924.176335875,unknown,2,2025-04-30T11:41:15.341+03:00,2025-04-28T22:17:59.397+03:00,6793,0.81875,0,0,5699.223,11,14,2025-04-30T11:38:30.206+03:00,767695332.2086744,0,-14.62,100.9719,1,0.85,2025-04-30T11:34:04.903+03:00,97,1.616666666666667,2025-04-22T14:20:19.516+03:00,0.02197104130929222,0
2025-04-30T11:42:12.641+03:00,1746002532.057295,40.95224677673531,29.14029760423168,76.45299,-1,-1,-1,-1,30,23.66668615034241,-9999,10939.04731479167,-0.670684814453125,0.5724945068359375,-0.4547271728515625,10939.04227679167,-0.8216693044618986,-0.9720425273883592,-0.6167557558833464,0.01218549255281687,-0.005507242865860462,-0.009956905618309975,0.003957271575927734,0.009392082691192627,-0.00154605507850647,XArbitraryZVertical,0.4237871070104535,0.3008621944333867,0.2064911704231302,-0.8290040550438748,-0.673848569393158,0.5783916711807251,-0.4597728550434113,0,0,0,-1,-1,10924.176335875,unknown,2,2025-04-30T11:41:15.341+03:00,2025-04-28T22:17:59.397+03:00,6793,0.81875,0,0,5699.223,11,14,2025-04-30T11:38:30.206+03:00,767695332.2086744,0,-14.62,100.9719,1,0.85,2025-04-30T11:34:04.903+03:00,97,1.616666666666667,2025-04-22T14:20:19.516+03:00,0.02197104130929222,0
2025-04-30T11:42:12.651+03:00,1746002532.057295,40.95224677673531,29.14029760423168,76.45299,-1,-1,-1,-1,30,23.66668615034241,-9999,10939.05738979167,-0.676361083984375,0.5755767822265625,-0.45343017578125,10939.05235179167,-0.8216352476230219,-0.9720176264884138,-0.6166434813920549,0.009321263059973717,0.006003206130117178,-0.007910799235105515,0.004411458969116211,-0.003165781497955322,0.003695309162139893,XArbitraryZVertical,0.4237392183829481,0.3008852767949409,0.2065112577119245,-0.829015179440206,-0.6738907694816589,0.5783001184463501,-0.45982626080513,0,0,0,-1,-1,10924.176335875,unknown,2,2025-04-30T11:41:15.341+03:00,2025-04-28T22:17:59.397+03:00,6793,0.81875,0,0,5699.223,11,14,2025-04-30T11:38:30.206+03:00,767695332.2086744,0,-14.62,100.9719,1,0.85,2025-04-30T11:34:04.903+03:00,97,1.616666666666667,2025-04-22T14:20:19.516+03:00,0.02197104130929222,0
2025-04-30T11:42:12.661+03:00,1746002532.057295,40.95224677673531,29.14029760423168,76.45299,-1,-1,-1,-1,30,23.66668615034241,-9999,10939.06746579167,-0.6771240234375,0.577423095703125,-0.4528656005859375,10939.06242779167,-0.8215818363531631,-0.9719290388636677,-0.6165375629926995,0.00732442457228899,0.007848776876926422,-0.005938595160841942,0.0006981492042541504,-0.004284799098968506,0.006444573402404785,XArbitraryZVertical,0.423684110601032,0.3008845761498873,0.2065351759821256,-0.8290376728980545,-0.6739006638526917,0.5782136917114258,-0.4599204957485199,0,0,0,-1,-1,10924.176335875,unknown,2,2025-04-30T11:41:15.341+03:00,2025-04-28T22:17:59.397+03:00,6793,0.81875,0,0,5699.223,11,14,2025-04-30T11:38:30.206+03:00,767695332.2086744,0,-14.62,100.9719,1,0.85,2025-04-30T11:34:04.903+03:00,97,1.616666666666667,2025-04-22T14:20:19.516+03:00,0.02197104130929222,0
2025-04-30T11:42:12.671+03:00,1746002532.057295,40.95224677673531,29.14029760423168,76.45299,-1,-1,-1,-1,30,23.66668615034241,-9999,10939.07754079167,-0.6726226806640625,0.5781402587890625,-0.4520263671875,10939.07250379167,-0.8215327010893052,-0.9718534625006852,-0.6164164086040936,0.01041022874414921,0.002898226492106915,-0.007484294008463621,-0.003566443920135498,-0.0009663701057434082,0.006870687007904053,XArbitraryZVertical,0.4236255484508026,0.3008919063884388,0.2065620220303141,-0.8290582471318906,-0.6739237308502197,0.5781148076057434,-0.4600109159946442,0,0,0,-1,-1,10924.176335875,unknown,2,2025-04-30T11:41:15.341+03:00,2025-04-28T22:17:59.397+03:00,6793,0.81875,0,0,5699.223,11,14,2025-04-30T11:38:30.206+03:00,767695332.2086744,0,-14.62,100.9719,1,0.85,2025-04-30T11:34:04.903+03:00,97,1.616666666666667,2025-04-22T14:20:19.516+03:00,0.02197104130929222,0
2025-04-30T11:42:12.681+03:00,1746002532.057295,40.95224677673531,29.14029760423168,76.45299,-1,-1,-1,-1,30,23.66668615034241,-9999,10939.08761679167,-0.66925048828125,0.57720947265625,-0.4534912109375,10939.08257879167,-0.8214770354143974,-0.9718062444036232,-0.6163021942832603,0.007564841769635677,0.0002096989192068577,-0.005940226372331381,-0.001183807849884033,0.0004085302352905273,0.008206188678741455,XArbitraryZVertical,0.4235714139258165,0.3009107522840532,0.2065783620527064,-0.8290749895905097,-0.6739565134048462,0.5780216455459595,-0.4600799381732941,0,0,0,-1,-1,10924.176335875,unknown,2,2025-04-30T11:41:15.341+03:00,2025-04-28T22:17:59.397+03:00,6793,0.81875,0,0,5699.223,11,14,2025-04-30T11:38:30.206+03:00,767695332.2086744,0,-14.62,100.9719,1,0.85,2025-04-30T11:34:04.903+03:00,97,1.616666666666667,2025-04-22T14:20:19.516+03:00,0.02197104130929222,0
2025-04-30T11:42:12.691+03:00,1746002532.057295,40.95224677673531,29.14029760423168,76.45299,-1,-1,-1,-1,30,23.66668615034241,-9999,10939.09769179167,-0.6712799072265625,0.5763092041015625,-0.4547119140625,10939.09265479167,-0.8214472952295799,-0.9718157111798438,-0.6162058079847859,0.006970690563321114,-0.004777070600539446,-0.006416399497538805,0.003551006317138672,-0.0006876587867736816,0.007803976535797119,XArbitraryZVertical,0.4235333990979818,0.300943450679384,0.2065888577636321,-0.82907995390692,-0.6740069389343262,0.577942967414856,-0.4601050019264221,0,0,0,-1,-1,10924.176335875,unknown,2,2025-04-30T11:41:15.341+03:00,2025-04-28T22:17:59.397+03:00,6793,0.81875,0,0,5699.223,11,14,2025-04-30T11:38:30.206+03:00,767695332.2086744,0,-14.62,100.9719,1,0.85,2025-04-30T11:34:04.903+03:00,97,1.616666666666667,2025-04-22T14:20:19.516+03:00,0.02197104130929222,0
2025-04-30T11:42:12.701+03:00,1746002532.057295,40.95224677673531,29.14029760423168,76.45299,-1,-1,-1,-1,30,23.66668615034241,-9999,10939.10776779167,-0.6700897216796875,0.572845458984375,-0.4553375244140625,10939.10272979167,-0.8214572657620292,-0.9718668348072664,-0.6161450191497024,8.795014582574368e-05,-0.004847178235650063,-0.003468846203759313,0.004213929176330566,-0.0006838440895080566,0.005897223949432373,XArbitraryZVertical,0.423518394129163,0.3009767115215733,0.206597831430516,-0.8290733609923167,-0.6740595102310181,0.5778933763504028,-0.4600903689861298,0,0,0,-1,-1,10924.176335875,unknown,2,2025-04-30T11:41:15.341+03:00,2025-04-28T22:17:59.397+03:00,6793,0.81875,0,0,5699.223,11,14,2025-04-30T11:38:30.206+03:00,767695332.2086744,0,-14.62,100.9719,1,0.85,2025-04-30T11:34:04.903+03:00,97,1.616666666666667,2025-04-22T14:20:19.516+03:00,0.02197104130929222,0
2025-04-30T11:42:12.711+03:00,1746002532.057295,40.95224677673531,29.14029760423168,76.45299,-1,-1,-1,-1,30,23.66668615034241,-9999,10939.11784379167,-0.6713409423828125,0.57476806640625,-0.4563140869140625,10939.11280579167,-0.8214825029594279,-0.9719314334102348,-0.6161429401849058,-0.002245777752250433,-0.006623240187764168,-0.003851808840408921,0.003741025924682617,-0.004069685935974121,0.005198240280151367,XArbitraryZVertical,0.4235281984586461,0.3009986064943906,0.2065951136809818,-0.8290609145287444,-0.6740900874137878,0.5778916478157043,-0.4600473940372467,0,0,0,-1,-1,10924.176335875,unknown,2,2025-04-30T11:41:15.341+03:00,2025-04-28T22:17:59.397+03:00,6793,0.81875,0,0,5699.223,11,14,2025-04-30T11:38:30.206+03:00,767695332.2086744,0,-14.62,100.9719,1,0.85,2025-04-30T11:34:04.903+03:00,97,1.616666666666667,2025-04-22T14:20:19.516+03:00,0.02197104130929222,0
2025-04-30T11:42:12.721+03:00,1746002532.057295,40.95224677673531,29.14029760423168,76.45299,-1,-1,-1,-1,30,23.66668615034241,-9999,10939.12791879167,-0.671630859375,0.5759735107421875,-0.454925537109375,10939.12288079167,-0.8215318946254692,-0.9720008044591625,-0.6161464798587721,-0.003442469518631697,-0.00317857414484024,-0.003151730168610811,0.003145754337310791,-0.004743874073028564,0.005043566226959229,XArbitraryZVertical,0.4235440050612621,0.3010160961759611,0.206600012949454,-0.8290453973476638,-0.6741204261779785,0.5778945684432983,-0.4599995613098145,0,0,0,-1,-1,10924.176335875,unknown,2,2025-04-30T11:41:15.341+03:00,2025-04-28T22:17:59.397+03:00,6793,0.81875,0,0,5699.223,11,14,2025-04-30T11:38:30.206+03:00,767695332.2086744,0,-14.62,100.9719,1,0.85,2025-04-30T11:34:04.903+03:00,97,1.616666666666667,2025-04-22T14:20:19.516+03:00,0.02197104130929222,0
2025-04-30T11:42:12.731+03:00,1746002532.057295,40.95224677673531,29.14029760423168,76.45299,-1,-1,-1,-1,30,23.66668615034241,-9999,10939.13799479167,-0.673828125,0.5755157470703125,-0.4524688720703125,10939.13295679167,-0.8215990811467367,-0.9720616020817681,-0.6161380454732898,-0.002380400896072388,0.00180100416764617,-0.004685444757342339,0.0030251145362854,-0.002860128879547119,0.003570973873138428,XArbitraryZVertical,0.4235573792249995,0.3010290359188626,0.2066171599060604,-0.829029592132444,-0.6741523742675781,0.5778876543045044,-0.459961324930191,0,0,0,-1,-1,10924.176335875,unknown,2,2025-04-30T11:41:15.341+03:00,2025-04-28T22:17:59.397+03:00,6793,0.81875,0,0,5699.223,11,14,2025-04-30T11:38:30.206+03:00,767695332.2086744,0,-14.62,100.9719,1,0.85,2025-04-30T11:34:04.903+03:00,97,1.616666666666667,2025-04-22T14:20:19.516+03:00,0.02197104130929222,0
2025-04-30T11:42:12.741+03:00,1746002532.057295,40.95224677673531,29.14029760423168,76.45299,-1,-1,-1,-1,30,23.66668615034241,-9999,10939.14806979167,-0.6751251220703125,0.5769195556640625,-0.4539947509765625,10939.14303279167,-0.8216472769955915,-0.9720689413102441,-0.6161099442293095,0.001263935468159616,0.005308187566697598,-0.00359684438444674,0.001638054847717285,-0.002364218235015869,0.006108105182647705,XArbitraryZVertical,0.4235553501486651,0.3010284182855641,0.2066428138725066,-0.8290244217756784,-0.6741691827774048,0.5778647661209106,-0.4599655270576477,0,0,0,-1,-1,10924.176335875,unknown,2,2025-04-30T11:41:15.341+03:00,2025-04-28T22:17:59.397+03:00,6793,0.81875,0,0,5699.223,11,14,2025-04-30T11:38:30.206+03:00,767695332.2086744,0,-14.62,100.9719,1,0.85,2025-04-30T11:34:04.903+03:00,97,1.616666666666667,2025-04-22T14:20:19.516+03:00,0.02197104130929222,0
2025-04-30T11:42:12.752+03:00,1746002532.057295,40.95224677673531,29.14029760423168,76.45299,-1,-1,-1,-1,30,23.66668615034241,-9999,10939.15814579167,-0.674713134765625,0.58001708984375,-0.457366943359375,10939.15310779167,-0.8216708012695787,-0.9720530930398493,-0.6160747966286071,0.0001233035582117736,0.003271668218076229,-0.004159303847700357,-0.0001987218856811523,-0.002228736877441406,0.00666433572769165,XArbitraryZVertical,0.4235446672428314,0.3010250640688288,0.2066649767875529,-0.8290255837050139,-0.6741786599159241,0.5778360366821289,-0.4599876403808594,0,0,0,-1,-1,10924.176335875,unknown,2,2025-04-30T11:41:15.341+03:00,2025-04-28T22:17:59.397+03:00,6793,0.81875,0,0,5699.223,11,14,2025-04-30T11:38:30.206+03:00,767695332.2086744,0,-14.62,100.9719,1,0.85,2025-04-30T11:34:04.903+03:00,97,1.616666666666667,2025-04-22T14:20:19.516+03:00,0.02197104130929222,0
2025-04-30T11:42:12.762+03:00,1746002532.057295,40.95224677673531,29.14029760423168,76.45299,-1,-1,-1,-1,30,23.66668615034241,-9999,10939.16822179167,-0.67266845703125,0.5794677734375,-0.458465576171875,10939.16318379167,-0.8216913545356277,-0.9720604598552957,-0.6160336185352376,0.003968308679759502,0.002161596436053514,-0.002923630410805345,-0.001503229141235352,0.0005667209625244141,0.00465857982635498,XArbitraryZVertical,0.4235337931232835,0.3010333634299099,0.2066825378684056,-0.8290237244141285,-0.6742016673088074,0.5778024196624756,-0.4599960744380951,0,0,0,-1,-1,10924.176335875,unknown,2,2025-04-30T11:41:15.341+03:00,2025-04-28T22:17:59.397+03:00,6793,0.81875,0,0,5699.223,11,14,2025-04-30T11:38:30.206+03:00,767695332.2086744,0,-14.62,100.9719,1,0.85,2025-04-30T11:34:04.903+03:00,97,1.616666666666667,2025-04-22T14:20:19.516+03:00,0.02197104130929222,0
2025-04-30T11:42:12.772+03:00,1746002532.057295,40.95224677673531,29.14029760423168,76.45299,-1,-1,-1,-1,30,23.66668615034241,-9999,10939.17829679167,-0.6712646484375,0.5784759521484375,-0.458770751953125,10939.17325879167,-0.8216727985635731,-0.9720551166948713,-0.6159852163165741,0.006887932308018208,-3.284821286797523e-05,-0.00385014433413744,0.0003637075424194336,0.003367960453033447,0.001565128564834595,XArbitraryZVertical,0.4235131627554675,0.3010463515119548,0.2066884262616026,-0.8290279921316011,-0.6742222309112549,0.5777629613876343,-0.4600153863430023,0,0,0,-1,-1,10924.176335875,unknown,2,2025-04-30T11:41:15.341+03:00,2025-04-28T22:17:59.397+03:00,6793,0.81875,0,0,5699.223,11,14,2025-04-30T11:38:30.206+03:00,767695332.2086744,0,-14.62,100.9719,1,0.85,2025-04-30T11:34:04.903+03:00,97,1.616666666666667,2025-04-22T14:20:19.516+03:00,0.02197104130929222,0
2025-04-30T11:42:12.796+03:00,1746002532.057295,40.95224677673531,29.14029760423168,76.45299,-1,-1,-1,-1,30,23.66668615034241,-9999,10939.18837279167,-0.671142578125,0.57904052734375,-0.45697021484375,10939.18333479167,-0.8216368209340816,-0.9720270666936227,-0.6159271004614213,0.008780840784311295,0.002189226215705276,-0.004184004850685596,0.002026557922363281,0.0007605552673339844,0.0007637739181518555,XArbitraryZVertical,0.4234839651877578,0.3010559172007675,0.2066944575252559,-0.8290381005736005,-0.6742372512817383,0.5777155160903931,-0.4600533246994019,0,0,0,-1,-1,10924.176335875,unknown,2,2025-04-30T11:41:15.341+03:00,2025-04-28T22:17:59.397+03:00,6793,0.81875,0,0,5699.223,11,14,2025-04-30T11:38:30.206+03:00,767695332.2086744,0,-14.62,100.9719,1,0.85,2025-04-30T11:34:04.903+03:00,97,1.616666666666667,2025-04-22T14:20:19.516+03:00,0.02197104130929222,0
2025-04-30T11:42:12.798+03:00,1746002532.057295,40.95224677673531,29.14029760423168,76.45299,-1,-1,-1,-1,30,23.66668615034241,-9999,10939.19844779167,-0.6714935302734375,0.583099365234375,-0.45404052734375,10939.19340979167,-0.8215762704082673,-0.9719829792264665,-0.6158501808019023,0.009352621622383595,0.001949808094650507,-0.003814357798546553,0.003736734390258789,0.0007622241973876953,0.002115547657012939,XArbitraryZVertical,0.4234427689726449,0.3010683925406104,0.2066984988790546,-0.829053581538875,-0.6742536425590515,0.5776526927947998,-0.4601081013679504,0,0,0,-1,-1,10924.176335875,unknown,2,2025-04-30T11:41:15.341+03:00,2025-04-28T22:17:59.397+03:00,6793,0.81875,0,0,5699.223,11,14,2025-04-30T11:38:30.206+03:00,767695332.2086744,0,-14.62,100.9719,1,0.85,2025-04-30T11:34:04.903+03:00,97,1.616666666666667,2025-04-22T14:20:19.516+03:00,0.02197104130929222,0
2025-04-30T11:42:12.802+03:00,1746002532.057295,40.95224677673531,29.14029760423168,76.45299,-1,-1,-1,-1,30,23.66668615034241,-9999,10939.20852379167,-0.67236328125,0.5810089111328125,-0.451812744140625,10939.20348579167,-0.8214921824296113,-0.9719070245658149,-0.6157735751221234,0.01117522176355124,0.007509623188525438,-0.004490967374294996,0.002059817314147949,0.00323563814163208,0.004755169153213501,XArbitraryZVertical,0.4233948930918511,0.3010725502200846,0.20669942484644,-0.8290761681350576,-0.6742551326751709,0.5775901675224304,-0.4601841568946838,0,0,0,-1,-1,10924.176335875,unknown,2,2025-04-30T11:41:15.341+03:00,2025-04-28T22:17:59.397+03:00,6793,0.81875,0,0,5699.223,11,14,2025-04-30T11:38:30.206+03:00,767695332.2086744,0,-14.62,100.9719,1,0.85,2025-04-30T11:34:04.903+03:00,97,1.616666666666667,2025-04-22T14:20:19.516+03:00,0.02197104130929222,0
2025-04-30T11:42:12.812+03:00,1746002532.057295,40.95224677673531,29.14029760423168,76.45299,-1,-1,-1,-1,30,23.66668615034241,-9999,10939.21859879167,-0.67559814453125,0.5732269287109375,-0.456512451171875,10939.21356179167,-0.8213945268927725,-0.9717458709177482,-0.6156733610594043,0.01193688623607159,0.01281969994306564,-0.002144456142559648,0.002491176128387451,0.005697846412658691,0.007292091846466064,XArbitraryZVertical,0.423327625892037,0.3010497853266227,0.2067188752540806,-0.8291139982108227,-0.6742287874221802,0.5775083899497986,-0.4603255093097687,0,0,0,-1,-1,10924.176335875,unknown,2,2025-04-30T11:41:15.341+03:00,2025-04-28T22:17:59.397+03:00,6793,0.81875,0,0,5699.223,11,14,2025-04-30T11:38:30.206+03:00,767695332.2086744,0,-14.62,100.9719,1,0.85,2025-04-30T11:34:04.903+03:00,97,1.616666666666667,2025-04-22T14:20:19.516+03:00,0.02197104130929222,0
2025-04-30T11:42:12.822+03:00,1746002532.057295,40.95224677673531,29.14029760423168,76.45299,-1,-1,-1,-1,30,23.66668615034241,-9999,10939.22867479167,-0.6750946044921875,0.574371337890625,-0.455322265625,10939.22363679167,-0.8213373432893605,-0.9715637629673994,-0.6156103356267921,0.006885535549372435,0.0126456618309021,-0.003007386811077595,-0.0001718401908874512,-0.0006594061851501465,0.006687700748443604,XArbitraryZVertical,0.4232776285148326,0.3010010818485895,0.2067499390561619,-0.8291494566411942,-0.6741750240325928,0.5774568915367126,-0.4604687988758087,0,0,0,-1,-1,10924.176335875,unknown,2,2025-04-30T11:41:15.341+03:00,2025-04-28T22:17:59.397+03:00,6793,0.81875,0,0,5699.223,11,14,2025-04-30T11:38:30.206+03:00,767695332.2086744,0,-14.62,100.9719,1,0.85,2025-04-30T11:34:04.903+03:00,97,1.616666666666667,2025-04-22T14:20:19.516+03:00,0.02197104130929222,0
2025-04-30T11:42:12.832+03:00,1746002532.057295,40.95224677673531,29.14029760423168,76.45299,-1,-1,-1,-1,30,23.66668615034241,-9999,10939.23875079167,-0.6702117919921875,0.577301025390625,-0.452789306640625,10939.23371279167,-0.8212942125028045,-0.9714164398555789,-0.6155745631077087,0.002798915142193437,0.01196948625147343,0.001787368441000581,-0.002236843109130859,-0.005039989948272705,0.003273904323577881,XArbitraryZVertical,0.423243089498438,0.3009574715946299,0.206772448558434,-0.8291773202663211,-0.6741242408752441,0.5774276852607727,-0.4605797827243805,0,0,0,-1,-1,10924.176335875,unknown,2,2025-04-30T11:41:15.341+03:00,2025-04-28T22:17:59.397+03:00,6793,0.81875,0,0,5699.223,11,14,2025-04-30T11:38:30.206+03:00,767695332.2086744,0,-14.62,100.9719,1,0.85,2025-04-30T11:34:04.903+03:00,97,1.616666666666667,2025-04-22T14:20:19.516+03:00,0.02197104130929222,0
2025-04-30T11:42:12.842+03:00,1746002532.057295,40.95224677673531,29.14029760423168,76.45299,-1,-1,-1,-1,30,23.66668615034241,-9999,10939.24882579167,-0.6654510498046875,0.5746917724609375,-0.458160400390625,10939.24378779167,-0.821262008489371,-0.9713052540567014,-0.6155926830113704,0.004961201921105385,0.006537236273288727,0.001338925212621689,0.0009534955024719238,-0.001636803150177002,0.008210539817810059,XArbitraryZVertical,0.4232332274464518,0.3009139699951697,0.2067779663928712,-0.8291967887925021,-0.6740643978118896,0.5774425268173218,-0.4606488347053528,0,0,0,-1,-1,10924.176335875,unknown,2,2025-04-30T11:41:15.341+03:00,2025-04-28T22:17:59.397+03:00,6793,0.81875,0,0,5699.223,11,14,2025-04-30T11:38:30.206+03:00,767695332.2086744,0,-14.62,100.9719,1,0.85,2025-04-30T11:34:04.903+03:00,97,1.616666666666667,2025-04-22T14:20:19.516+03:00,0.02197104130929222,0
2025-04-30T11:42:12.852+03:00,1746002532.057295,40.95224677673531,29.14029760423168,76.45299,-1,-1,-1,-1,30,23.66668615034241,-9999,10939.25890179167,-0.6667938232421875,0.576324462890625,-0.4599456787109375,10939.25386379167,-0.8211985118983363,-0.9712179470047393,-0.61559986453434,0.002854641526937485,0.005537752062082291,0.003353606443852186,0.006753921508789062,-0.00152057409286499,0.005306780338287354,XArbitraryZVertical,0.4232172139027797,0.3008895371537228,0.2067682700247846,-0.8292162593446141,-0.6740207672119141,0.5774483680725098,-0.4607053399085999,0,0,0,-1,-1,10924.176335875,unknown,2,2025-04-30T11:41:15.341+03:00,2025-04-28T22:17:59.397+03:00,6793,0.81875,0,0,5699.223,11,14,2025-04-30T11:38:30.206+03:00,767695332.2086744,0,-14.62,100.9719,1,0.85,2025-04-30T11:34:04.903+03:00,97,1.616666666666667,2025-04-22T14:20:19.516+03:00,0.02197104130929222,0
2025-04-30T11:42:12.862+03:00,1746002532.057295,40.95224677673531,29.14029760423168,76.45299,-1,-1,-1,-1,30,23.66668615034241,-9999,10939.26897679167,-0.66607666015625,0.583404541015625,-0.4562530517578125,10939.26393979167,-0.8211420300329711,-0.9711720599621902,-0.6155910943939994,0.004303401336073875,0.0002614976838231087,0.0001150695607066154,0.008003532886505127,-0.004092156887054443,0.001113951206207275,XArbitraryZVertical,0.4232008319189916,0.3008845072753792,0.2067568190590691,-0.82922929965031,-0.6740038394927979,0.5774412155151367,-0.4607391357421875,0,0,0,-1,-1,10924.176335875,unknown,2,2025-04-30T11:41:15.341+03:00,2025-04-28T22:17:59.397+03:00,6793,0.81875,0,0,5699.223,11,14,2025-04-30T11:38:30.206+03:00,767695332.2086744,0,-14.62,100.9719,1,0.85,2025-04-30T11:34:04.903+03:00,97,1.616666666666667,2025-04-22T14:20:19.516+03:00,0.02197104130929222,0
2025-04-30T11:42:12.875+03:00,1746002532.057295,40.95224677673531,29.14029760423168,76.45299,-1,-1,-1,-1,30,23.66668615034241,-9999,10939.27905279167,-0.6695404052734375,0.5783538818359375,-0.4559326171875,10939.27401479167,-0.8210961476525879,-0.9711416864513711,-0.6155680050067455,0.005819272715598345,-0.0001907073892652988,-0.0008817515918053687,0.007664740085601807,0.00296097993850708,0.001736998558044434,XArbitraryZVertical,0.423182543222575,0.3008869953677691,0.2067501541551008,-0.8292393403118974,-0.6740007996559143,0.5774223804473877,-0.4607670903205872,0,0,0,-1,-1,10924.176335875,unknown,2,2025-04-30T11:41:15.341+03:00,2025-04-28T22:17:59.397+03:00,6793,0.81875,0,0,5699.223,11,14,2025-04-30T11:38:30.206+03:00,767695332.2086744,0,-14.62,100.9719,1,0.85,2025-04-30T11:34:04.903+03:00,97,1.616666666666667,2025-04-22T14:20:19.516+03:00,0.02197104130929222,0
2025-04-30T11:42:12.894+03:00,1746002532.057295,40.95224677673531,29.14029760423168,76.45299,-1,-1,-1,-1,30,23.66668615034241,-9999,10939.28912879167,-0.669525146484375,0.577850341796875,-0.45867919921875,10939.28409079167,-0.8210270223138454,-0.9710966975903784,-0.6155448207475505,0.007527956739068031,0.001222631894052029,0.0006955055287107825,0.006892204284667969,0.004505753517150879,0.005360692739486694,XArbitraryZVertical,0.4231591835856339,0.300888371503987,0.2067369814292855,-0.8292540565362655,-0.6739910840988159,0.5774034261703491,-0.4608049988746643,0,0,0,-1,-1,10924.176335875,unknown,2,2025-04-30T11:41:15.341+03:00,2025-04-28T22:17:59.397+03:00,6793,0.81875,0,0,5699.223,11,14,2025-04-30T11:38:30.206+03:00,767695332.2086744,0,-14.62,100.9719,1,0.85,2025-04-30T11:34:04.903+03:00,97,1.616666666666667,2025-04-22T14:20:19.516+03:00,0.02197104130929222,0
2025-04-30T11:42:12.900+03:00,1746002532.057295,40.95224677673531,29.14029760423168,76.45299,-1,-1,-1,-1,30,23.66668615034241,-9999,10939.29920379167,-0.6711273193359375,0.577789306640625,-0.4575653076171875,10939.29416579167,-0.8209587213904598,-0.9710504580983473,-0.615543057102044,0.003422960173338652,0.002721725264564157,0.00183027854654938,0.003240108489990234,-0.0001468062400817871,0.003256171941757202,XArbitraryZVertical,0.423143519749029,0.3008840539778417,0.2067188884634931,-0.8292680774298616,-0.6739705801010132,0.5774019956588745,-0.4608367085456848,0,0,0,-1,-1,10924.176335875,unknown,2,2025-04-30T11:41:15.341+03:00,2025-04-28T22:17:59.397+03:00,6793,0.81875,0,0,5699.223,11,14,2025-04-30T11:38:30.206+03:00,767695332.2086744,0,-14.62,100.9719,1,0.85,2025-04-30T11:34:04.903+03:00,97,1.616666666666667,2025-04-22T14:20:19.516+03:00,0.02197104130929222,0
2025-04-30T11:42:12.903+03:00,1746002532.057295,40.95224677673531,29.14029760423168,76.45299,-1,-1,-1,-1,30,23.66668615034241,-9999,10939.30927979167,-0.672332763671875,0.570159912109375,-0.455963134765625,10939.30424179167,-0.8209412917172502,-0.9710315415838042,-0.6155648040231562,-0.00192060589324683,0.001127623487263918,0.002693841699510813,0.004167020320892334,0.0008273124694824219,0.002865135669708252,XArbitraryZVertical,0.4231467308717705,0.3008748319766814,0.2067100678420619,-0.8292719874943125,-0.6739515066146851,0.5774197578430176,-0.4608423709869385,0,0,0,-1,-1,10924.176335875,unknown,2,2025-04-30T11:41:15.341+03:00,2025-04-28T22:17:59.397+03:00,6793,0.81875,0,0,5699.223,11,14,2025-04-30T11:38:30.206+03:00,767695332.2086744,0,-14.62,100.9719,1,0.85,2025-04-30T11:34:04.903+03:00,97,1.616666666666667,2025-04-22T14:20:19.516+03:00,0.02197104130929222,0
2025-04-30T11:42:12.913+03:00,1746002532.057295,40.95224677673531,29.14029760423168,76.45299,-1,-1,-1,-1,30,23.66668615034241,-9999,10939.31935479167,-0.6723175048828125,0.567657470703125,-0.4551239013671875,10939.31431779167,-0.8209662447487883,-0.9710389917568121,-0.6156033109099265,-0.00668287044391036,0.001792615046724677,0.005902418401092291,0.001710712909698486,-0.003446042537689209,0.003869891166687012,XArbitraryZVertical,0.4231650440417621,0.3008636712380141,0.2067089299827526,-0.8292669852716267,-0.6739366054534912,0.5774511694908142,-0.4608247876167297,0,0,0,-1,-1,10924.176335875,unknown,2,2025-04-30T11:41:15.341+03:00,2025-04-28T22:17:59.397+03:00,6793,0.81875,0,0,5699.223,11,14,2025-04-30T11:38:30.206+03:00,767695332.2086744,0,-14.62,100.9719,1,0.85,2025-04-30T11:34:04.903+03:00,97,1.616666666666667,2025-04-22T14:20:19.516+03:00,0.02197104130929222,0
2025-04-30T11:42:12.923+03:00,1746002532.057295,40.95224677673531,29.14029760423168,76.45299,-1,-1,-1,-1,30,23.66668615034241,-9999,10939.32943079167,-0.667327880859375,0.5728912353515625,-0.45758056640625,10939.32439279167,-0.8210212602186944,-0.9711083938761355,-0.6156807911492111,-0.004646084737032652,-0.003424250986427069,0.004898938816040754,0.002026259899139404,-0.009963750839233398,0.005186408758163452,XArbitraryZVertical,0.4232082540346475,0.3008627511360573,0.2066971116662786,-0.8292481979223757,-0.6739316582679749,0.5775144696235657,-0.4607527554035187,0,0,0,-1,-1,10924.176335875,unknown,2,2025-04-30T11:41:15.341+03:00,2025-04-28T22:17:59.397+03:00,6793,0.81875,0,0,5699.223,11,14,2025-04-30T11:38:30.206+03:00,767695332.2086744,0,-14.62,100.9719,1,0.85,2025-04-30T11:34:04.903+03:00,97,1.616666666666667,2025-04-22T14:20:19.516+03:00,0.02197104130929222,0
2025-04-30T11:42:12.933+03:00,1746002532.057295,40.95224677673531,29.14029760423168,76.45299,-1,-1,-1,-1,30,23.66668615034241,-9999,10939.33950679167,-0.668182373046875,0.5748138427734375,-0.4566497802734375,10939.33446879167,-0.821048208961533,-0.9711677362589136,-0.6157516689440115,-0.006059424486011267,-0.005181937012821436,0.002831793623045087,0.003164172172546387,-0.007656574249267578,0.004253596067428589,XArbitraryZVertical,0.4232438181734303,0.3008651402882841,0.2066774891374568,-0.8292340913875579,-0.6739252209663391,0.5775722861289978,-0.4606896638870239,0,0,0,-1,-1,10924.176335875,unknown,2,2025-04-30T11:41:15.341+03:00,2025-04-28T22:17:59.397+03:00,6793,0.81875,0,0,5699.223,11,14,2025-04-30T11:38:30.206+03:00,767695332.2086744,0,-14.62,100.9719,1,0.85,2025-04-30T11:34:04.903+03:00,97,1.616666666666667,2025-04-22T14:20:19.516+03:00,0.02197104130929222,0
2025-04-30T11:42:12.943+03:00,1746002532.057295,40.95224677673531,29.14029760423168,76.45299,-1,-1,-1,-1,30,23.66668615034241,-9999,10939.34958179167,-0.6707611083984375,0.5767974853515625,-0.454803466796875,10939.34454379167,-0.8210809699918461,-0.971208972682406,-0.6158211871323029,-0.006378937512636185,-0.001459304243326187,0.004840782377868891,0.007544517517089844,-0.002815186977386475,0.002494096755981445,XArbitraryZVertical,0.4232779176477865,0.3008591012476621,0.2066644466591322,-0.8292221039826072,-0.6739110350608826,0.577629029750824,-0.4606392085552216,0,0,0,-1,-1,10924.176335875,unknown,2,2025-04-30T11:41:15.341+03:00,2025-04-28T22:17:59.397+03:00,6793,0.81875,0,0,5699.223,11,14,2025-04-30T11:38:30.206+03:00,767695332.2086744,0,-14.62,100.9719,1,0.85,2025-04-30T11:34:04.903+03:00,97,1.616666666666667,2025-04-22T14:20:19.516+03:00,0.02197104130929222,0
2025-04-30T11:42:12.953+03:00,1746002532.057295,40.95224677673531,29.14029760423168,76.45299,-1,-1,-1,-1,30,23.66668615034241,-9999,10939.35965779167,-0.670928955078125,0.5789337158203125,-0.4557342529296875,10939.35461979167,-0.8211100499383855,-0.9712212419879516,-0.615892236147352,-0.00302601745352149,0.001277360133826733,0.0009459092398174107,0.004434049129486084,-0.00207972526550293,0.005255043506622314,XArbitraryZVertical,0.4233089899530357,0.3008414812715324,0.2066556255900274,-0.8292148678878944,-0.6738828420639038,0.5776870250701904,-0.4606077969074249,0,0,0,-1,-1,10924.176335875,unknown,2,2025-04-30T11:41:15.341+03:00,2025-04-28T22:17:59.397+03:00,6793,0.81875,0,0,5699.223,11,14,2025-04-30T11:38:30.206+03:00,767695332.2086744,0,-14.62,100.9719,1,0.85,2025-04-30T11:34:04.903+03:00,97,1.616666666666667,2025-04-22T14:20:19.516+03:00,0.02197104130929222,0
2025-04-30T11:42:12.963+03:00,1746002532.057295,40.95224677673531,29.14029760423168,76.45299,-1,-1,-1,-1,30,23.66668615034241,-9999,10939.36973279167,-0.67132568359375,0.58197021484375,-0.457061767578125,10939.36469479167,-0.8211077140811276,-0.9711985705849603,-0.6159301709918948,-0.000281563465250656,0.00384391495026648,0.004390608053654432,0.002894818782806396,1.025199890136719e-05,0.005471587181091309,XArbitraryZVertical,0.4233198854073976,0.3008237344110013,0.2066496894926771,-0.829217216533691,-0.6738542914390564,0.5777180194854736,-0.4606107175350189,0,0,0,-1,-1,10924.176335875,unknown,2,2025-04-30T11:41:15.341+03:00,2025-04-28T22:17:59.397+03:00,6793,0.81875,0,0,5699.223,11,14,2025-04-30T11:38:30.206+03:00,767695332.2086744,0,-14.62,100.9719,1,0.85,2025-04-30T11:34:04.903+03:00,97,1.616666666666667,2025-04-22T14:20:19.516+03:00,0.02197104130929222,0
2025-04-30T11:42:12.973+03:00,1746002532.057295,40.95224677673531,29.14029760423168,76.45299,-1,-1,-1,-1,30,23.66668615034241,-9999,10939.37980879167,-0.6732940673828125,0.578643798828125,-0.4575653076171875,10939.37477079167,-0.8210972802829627,-0.9711707447849171,-0.6159770709279246,-0.002607035683467984,0.003967485390603542,0.004231084603816271,0.002752900123596191,0.002535462379455566,0.004696875810623169,XArbitraryZVertical,0.4233322310227206,0.3008034782603136,0.2066391840884202,-0.8292208950019262,-0.6738191246986389,0.5777562856674194,-0.4606141746044159,0,0,0,-1,-1,10924.176335875,unknown,2,2025-04-30T11:41:15.341+03:00,2025-04-28T22:17:59.397+03:00,6793,0.81875,0,0,5699.223,11,14,2025-04-30T11:38:30.206+03:00,767695332.2086744,0,-14.62,100.9719,1,0.85,2025-04-30T11:34:04.903+03:00,97,1.616666666666667,2025-04-22T14:20:19.516+03:00,0.02197104130929222,0
2025-04-30T11:42:12.983+03:00,1746002532.057295,40.95224677673531,29.14029760423168,76.45299,-1,-1,-1,-1,30,23.66668615034241,-9999,10939.38988379167,-0.6749725341796875,0.5748138427734375,-0.4564056396484375,10939.38484679167,-0.821110844049884,-0.9711310403343544,-0.6160207011606595,-0.00218985159881413,0.004559639375656843,0.0001229592016898096,0.001798272132873535,0.003842651844024658,0.003259778022766113,XArbitraryZVertical,0.4233457909009899,0.300773978395837,0.2066419831389384,-0.8292239831293441,-0.6737800240516663,0.5777919292449951,-0.4606267213821411,0,0,0,-1,-1,10924.176335875,unknown,2,2025-04-30T11:41:15.341+03:00,2025-04-28T22:17:59.397+03:00,6793,0.81875,0,0,5699.223,11,14,2025-04-30T11:38:30.206+03:00,767695332.2086744,0,-14.62,100.9719,1,0.85,2025-04-30T11:34:04.903+03:00,97,1.616666666666667,2025-04-22T14:20:19.516+03:00,0.02197104130929222,0
2025-04-30T11:42:12.993+03:00,1746002532.057295,40.95224677673531,29.14029760423168,76.45299,-1,-1,-1,-1,30,23.66668615034241,-9999,10939.39995979167,-0.6726837158203125,0.5737457275390625,-0.45697021484375,10939.39492179167,-0.8211284804761925,-0.9711116720435933,-0.6160513764594625,-0.003006909275427461,0.001710589742287993,0.003372281789779663,-0.0004530549049377441,-0.002346932888031006,0.003613770008087158,XArbitraryZVertical,0.4233574266990722,0.3007550662366035,0.2066455000261007,-0.8292240284873638,-0.67375648021698,0.5778169631958008,-0.4606297612190247,0,0,0,-1,-1,10924.176335875,unknown,2,2025-04-30T11:41:15.341+03:00,2025-04-28T22:17:59.397+03:00,6793,0.81875,0,0,5699.223,11,14,2025-04-30T11:38:30.206+03:00,767695332.2086744,0,-14.62,100.9719,1,0.85,2025-04-30T11:34:04.903+03:00,97,1.616666666666667,2025-04-22T14:20:19.516+03:00,0.02197104130929222,0
2025-04-30T11:42:13.004+03:00,1746002532.057295,40.95224677673531,29.14029760423168,76.45299,-1,-1,-1,-1,30,23.66668615034241,-9999,10939.41003579167,-0.6716461181640625,0.5746307373046875,-0.453765869140625,10939.40499779167,-0.8211574630625624,-0.9711244430888339,-0.6160926013853691,-0.005102550610899925,0.001026157289743423,0.004459517542272806,-7.015466690063477e-05,-0.003845512866973877,0.003362864255905151,XArbitraryZVertical,0.4233778885159384,0.300744612055671,0.2066441927020079,-0.8292176560330334,-0.6737426519393921,0.5778505802154541,-0.4606076776981354,0,0,0,-1,-1,10924.176335875,unknown,2,2025-04-30T11:41:15.341+03:00,2025-04-28T22:17:59.397+03:00,6793,0.81875,0,0,5699.223,11,14,2025-04-30T11:38:30.206+03:00,767695332.2086744,0,-14.62,100.9719,1,0.85,2025-04-30T11:34:04.903+03:00,97,1.616666666666667,2025-04-22T14:20:19.516+03:00,0.02197104130929222,0
2025-04-30T11:42:13.014+03:00,1746002532.057295,40.95224677673531,29.14029760423168,76.45299,-1,-1,-1,-1,30,23.66668615034241,-9999,10939.42011079167,-0.6693572998046875,0.58056640625,-0.4556121826171875,10939.41507279167,-0.8211727120608493,-0.9711444498502649,-0.6161280548610738,-0.00177812681067735,-0.001238328404724598,0.003158030798658729,0.00247037410736084,-0.004271149635314941,0.005825012922286987,XArbitraryZVertical,0.4233949524298118,0.3007414136625119,0.2066371506508462,-0.8292118432556882,-0.6737349629402161,0.5778795480728149,-0.4605826437473297,0,0,0,-1,-1,10924.176335875,unknown,2,2025-04-30T11:41:15.341+03:00,2025-04-28T22:17:59.397+03:00,6793,0.81875,0,0,5699.223,11,14,2025-04-30T11:38:30.206+03:00,767695332.2086744,0,-14.62,100.9719,1,0.85,2025-04-30T11:34:04.903+03:00,97,1.616666666666667,2025-04-22T14:20:19.516+03:00,0.02197104130929222,0
2025-04-30T11:42:13.024+03:00,1746002532.057295,40.95224677673531,29.14029760423168,76.45299,-1,-1,-1,-1,30,23.66668615034241,-9999,10939.43018679167,-0.668792724609375,0.5821685791015625,-0.456390380859375,10939.42514879167,-0.8211764548457005,-0.9711469556025738,-0.6161785286030418,-0.001169860828667879,-0.0003432398661971092,0.002641111146658659,0.002905189990997314,-0.0002992749214172363,0.006295144557952881,XArbitraryZVertical,0.4234138601926216,0.3007298928839742,0.2066251747348243,-0.8292093287468353,-0.6737120151519775,0.5779207348823547,-0.4605644643306732,0,0,0,-1,-1,10924.176335875,unknown,2,2025-04-30T11:41:15.341+03:00,2025-04-28T22:17:59.397+03:00,6793,0.81875,0,0,5699.223,11,14,2025-04-30T11:38:30.206+03:00,767695332.2086744,0,-14.62,100.9719,1,0.85,2025-04-30T11:34:04.903+03:00,97,1.616666666666667,2025-04-22T14:20:19.516+03:00,0.02197104130929222,0
2025-04-30T11:42:13.034+03:00,1746002532.057295,40.95224677673531,29.14029760423168,76.45299,-1,-1,-1,-1,30,23.66668615034241,-9999,10939.44026179167,-0.669403076171875,0.578826904296875,-0.4560546875,10939.43522479167,-0.8211712444424346,-0.9711666484808592,-0.6161943215183073,-0.002036453457549214,-0.002382155973464251,0.002048025140538812,0.00519561767578125,0.003487348556518555,0.003881096839904785,XArbitraryZVertical,0.4234207076848834,0.3007354978303843,0.2066148069231968,-0.8292065096988128,-0.6737136244773865,0.5779336094856262,-0.4605461359024048,0,0,0,-1,-1,10924.176335875,unknown,2,2025-04-30T11:41:15.341+03:00,2025-04-28T22:17:59.397+03:00,6793,0.81875,0,0,5699.223,11,14,2025-04-30T11:38:30.206+03:00,767695332.2086744,0,-14.62,100.9719,1,0.85,2025-04-30T11:34:04.903+03:00,97,1.616666666666667,2025-04-22T14:20:19.516+03:00,0.02197104130929222,0
2025-04-30T11:42:13.044+03:00,1746002532.057295,40.95224677673531,29.14029760423168,76.45299,-1,-1,-1,-1,30,23.66668615034241,-9999,10939.45033779167,-0.6695404052734375,0.5741119384765625,-0.457244873046875,10939.44529979167,-0.821168963861023,-0.9711913978640098,-0.6162038347266201,0.001277517643757164,7.773935794830322e-05,-0.000531679077539593,0.004668474197387695,0.002976059913635254,0.004136025905609131,XArbitraryZVertical,0.4234263153208394,0.3007440284508456,0.2066061786698141,-0.8292027299220539,-0.6737205386161804,0.577941358089447,-0.4605263769626617,0,0,0,-1,-1,10924.176335875,unknown,2,2025-04-30T11:41:15.341+03:00,2025-04-28T22:17:59.397+03:00,6793,0.81875,0,0,5699.223,11,14,2025-04-30T11:38:30.206+03:00,767695332.2086744,0,-14.62,100.9719,1,0.85,2025-04-30T11:34:04.903+03:00,97,1.616666666666667,2025-04-22T14:20:19.516+03:00,0.02197104130929222,0
2025-04-30T11:42:13.054+03:00,1746002532.057295,40.95224677673531,29.14029760423168,76.45299,-1,-1,-1,-1,30,23.66668615034241,-9999,10939.46041379167,-0.6728973388671875,0.5734405517578125,-0.4582061767578125,10939.45537579167,-0.821178893019057,-0.97121552422512,-0.6162192362146613,-0.001029845094308257,-0.001055169384926558,0.001676081446930766,0.00455009937286377,-0.0009885430335998535,0.003763735294342041,XArbitraryZVertical,0.4234358100068112,0.3007483411637481,0.2066012254197768,-0.8291975643401237,-0.6737242937088013,0.5779539346694946,-0.4605050981044769,0,0,0,-1,-1,10924.176335875,unknown,2,2025-04-30T11:41:15.341+03:00,2025-04-28T22:17:59.397+03:00,6793,0.81875,0,0,5699.223,11,14,2025-04-30T11:38:30.206+03:00,767695332.2086744,0,-14.62,100.9719,1,0.85,2025-04-30T11:34:04.903+03:00,97,1.616666666666667,2025-04-22T14:20:19.516+03:00,0.02197104130929222,0
2025-04-30T11:42:13.064+03:00,1746002532.057295,40.95224677673531,29.14029760423168,76.45299,-1,-1,-1,-1,30,23.66668615034241,-9999,10939.47048879167,-0.6734161376953125,0.5748748779296875,-0.45843505859375,10939.46545079167,-0.8211652852462245,-0.9712229601621538,-0.6162422362603349,0.0035925367847085,-0.002172166015952826,0.003504707710817456,0.003031909465789795,-0.004562616348266602,0.003339290618896484,XArbitraryZVertical,0.4234427862278837,0.3007489387574353,0.2065880802891567,-0.8291970215375908,-0.6737167239189148,0.5779727101325989,-0.4604925513267517,0,0,0,-1,-1,10924.176335875,unknown,2,2025-04-30T11:41:15.341+03:00,2025-04-28T22:17:59.397+03:00,6793,0.81875,0,0,5699.223,11,14,2025-04-30T11:38:30.206+03:00,767695332.2086744,0,-14.62,100.9719,1,0.85,2025-04-30T11:34:04.903+03:00,97,1.616666666666667,2025-04-22T14:20:19.516+03:00,0.02197104130929222,0
2025-04-30T11:42:13.074+03:00,1746002532.057295,40.95224677673531,29.14029760423168,76.45299,-1,-1,-1,-1,30,23.66668615034241,-9999,10939.48056479167,-0.6736297607421875,0.5751495361328125,-0.458099365234375,10939.47552679167,-0.821139725377131,-0.9712170058257718,-0.6162308209906717,0.00512971356511116,-0.001066687516868114,-0.001573141547851264,0.0002270340919494629,-0.003332555294036865,0.00194317102432251,XArbitraryZVertical,0.4234342258051258,0.3007545465140697,0.2065816887780179,-0.8292009813678477,-0.6737194657325745,0.5779634118080139,-0.4605003297328949,0,0,0,-1,-1,10924.176335875,unknown,2,2025-04-30T11:41:15.341+03:00,2025-04-28T22:17:59.397+03:00,6793,0.81875,0,0,5699.223,11,14,2025-04-30T11:38:30.206+03:00,767695332.2086744,0,-14.62,100.9719,1,0.85,2025-04-30T11:34:04.903+03:00,97,1.616666666666667,2025-04-22T14:20:19.516+03:00,0.02197104130929222,0
2025-04-30T11:42:13.084+03:00,1746002532.057295,40.95224677673531,29.14029760423168,76.45299,-1,-1,-1,-1,30,23.66668615034241,-9999,10939.49063979167,-0.6737213134765625,0.5782470703125,-0.4557952880859375,10939.48560279167,-0.821119615018398,-0.9712053526956694,-0.6161960251421669,0.0001723057503113523,0.002038624603301287,-0.00192997173871845,-6.693601608276367e-05,-0.003411054611206055,0.002450674772262573,XArbitraryZVertical,0.4234175966252243,0.300762064518134,0.2065847483885326,-0.8292058565954141,-0.6737305521965027,0.5779349803924561,-0.4605194330215454,0,0,0,-1,-1,10924.176335875,unknown,2,2025-04-30T11:41:15.341+03:00,2025-04-28T22:17:59.397+03:00,6793,0.81875,0,0,5699.223,11,14,2025-04-30T11:38:30.206+03:00,767695332.2086744,0,-14.62,100.9719,1,0.85,2025-04-30T11:34:04.903+03:00,97,1.616666666666667,2025-04-22T14:20:19.516+03:00,0.02197104130929222,0
2025-04-30T11:42:13.094+03:00,1746002532.057295,40.95224677673531,29.14029760423168,76.45299,-1,-1,-1,-1,30,23.66668615034241,-9999,10939.50071579167,-0.6753387451171875,0.5800323486328125,-0.454345703125,10939.49567779167,-0.8211196088667139,-0.9711728513952015,-0.6161633078574702,0.003719370113685727,0.00625600665807724,-0.003145971102640033,0.0002541542053222656,-0.001232802867889404,0.004070162773132324,XArbitraryZVertical,0.4234024928712651,0.3007562247937326,0.2066000617236832,-0.8292119338924303,-0.67373126745224,0.5779082775115967,-0.4605520367622375,0,0,0,-1,-1,10924.176335875,unknown,2,2025-04-30T11:41:15.341+03:00,2025-04-28T22:17:59.397+03:00,6793,0.81875,0,0,5699.223,11,14,2025-04-30T11:38:30.206+03:00,767695332.2086744,0,-14.62,100.9719,1,0.85,2025-04-30T11:34:04.903+03:00,97,1.616666666666667,2025-04-22T14:20:19.516+03:00,0.02197104130929222,0
2025-04-30T11:42:13.104+03:00,1746002532.057295,40.95224677673531,29.14029760423168,76.45299,-1,-1,-1,-1,30,23.66668615034241,-9999,10939.51079179167,-0.6718902587890625,0.5785980224609375,-0.4555816650390625,10939.50575379167,-0.8211138145160336,-0.9711064834626575,-0.6161255629145411,0.002105094958096743,0.008538202382624149,-0.00261180754750967,-0.0007349848747253418,0.001849710941314697,0.006003975868225098,XArbitraryZVertical,0.4233812621700653,0.3007387272829475,0.2066214184994185,-0.829223768406267,-0.6737186908721924,0.5778774619102478,-0.4606090486049652,0,0,0,-1,-1,10924.176335875,unknown,2,2025-04-30T11:41:15.341+03:00,2025-04-28T22:17:59.397+03:00,6793,0.81875,0,0,5699.223,11,14,2025-04-30T11:38:30.206+03:00,767695332.2086744,0,-14.62,100.9719,1,0.85,2025-04-30T11:34:04.903+03:00,97,1.616666666666667,2025-04-22T14:20:19.516+03:00,0.02197104130929222,0
2025-04-30T11:42:13.114+03:00,1746002532.057295,40.95224677673531,29.14029760423168,76.45299,-1,-1,-1,-1,30,23.66668615034241,-9999,10939.52086679167,-0.6728057861328125,0.578216552734375,-0.455413818359375,10939.51582979167,-0.8210967486632292,-0.9710212651208242,-0.6160990377634669,0.004981841426342726,0.007855634205043316,-0.002929789014160633,0.0002149343490600586,0.001779735088348389,0.005413919687271118,XArbitraryZVertical,0.4233604161025657,0.3007131815210046,0.206639198612052,-0.8292391937164878,-0.6736920475959778,0.5778558254241943,-0.4606750905513763,0,0,0,-1,-1,10924.176335875,unknown,2,2025-04-30T11:41:15.341+03:00,2025-04-28T22:17:59.397+03:00,6793,0.81875,0,0,5699.223,11,14,2025-04-30T11:38:30.206+03:00,767695332.2086744,0,-14.62,100.9719,1,0.85,2025-04-30T11:34:04.903+03:00,97,1.616666666666667,2025-04-22T14:20:19.516+03:00,0.02197104130929222,0
2025-04-30T11:42:13.125+03:00,1746002532.057295,40.95224677673531,29.14029760423168,76.45299,-1,-1,-1,-1,30,23.66668615034241,-9999,10939.53094279167,-0.6706085205078125,0.575775146484375,-0.4575653076171875,10939.52590479167,-0.8210590022013526,-0.9709385290130131,-0.616066773492349,0.005282645579427481,0.004898593295365572,-0.002410272834822536,0.00188601016998291,0.001180529594421387,0.005464941263198853,XArbitraryZVertical,0.4233346203717892,0.3006943911890775,0.2066493725029946,-0.829256676413219,-0.6736693382263184,0.5778294801712036,-0.4607413709163666,0,0,0,-1,-1,10924.176335875,unknown,2,2025-04-30T11:41:15.341+03:00,2025-04-28T22:17:59.397+03:00,6793,0.81875,0,0,5699.223,11,14,2025-04-30T11:38:30.206+03:00,767695332.2086744,0,-14.62,100.9719,1,0.85,2025-04-30T11:34:04.903+03:00,97,1.616666666666667,2025-04-22T14:20:19.516+03:00,0.02197104130929222,0
2025-04-30T11:42:13.135+03:00,1746002532.057295,40.95224677673531,29.14029760423168,76.45299,-1,-1,-1,-1,30,23.66668615034241,-9999,10939.54101879167,-0.670562744140625,0.5765228271484375,-0.4559173583984375,10939.53598079167,-0.8210259246708072,-0.9708416516350986,-0.6160165977538227,0.009173257276415825,0.006715402007102966,-0.003162882290780544,0.001865208148956299,-0.00140303373336792,0.00402069091796875,XArbitraryZVertical,0.4233016611568193,0.3006729178422403,0.2066690773328116,-0.8292763854967509,-0.6736486554145813,0.5777885317802429,-0.4608229994773865,0,0,0,-1,-1,10924.176335875,unknown,2,2025-04-30T11:41:15.341+03:00,2025-04-28T22:17:59.397+03:00,6793,0.81875,0,0,5699.223,11,14,2025-04-30T11:38:30.206+03:00,767695332.2086744,0,-14.62,100.9719,1,0.85,2025-04-30T11:34:04.903+03:00,97,1.616666666666667,2025-04-22T14:20:19.516+03:00,0.02197104130929222,0
2025-04-30T11:42:13.145+03:00,1746002532.057295,40.95224677673531,29.14029760423168,76.45299,-1,-1,-1,-1,30,23.66668615034241,-9999,10939.55109379167,-0.6712646484375,0.5811767578125,-0.4562835693359375,10939.54605579167,-0.8209206996291569,-0.9706855378032822,-0.6159253158626059,0.01543461531400681,0.01302682794630527,-0.002557545667514205,0.003912031650543213,-0.001511693000793457,0.003850430250167847,XArbitraryZVertical,0.423237022938069,0.3006517218348994,0.2066819695932448,-0.8293138249026291,-0.6736201643943787,0.5777140259742737,-0.4609579145908356,0,0,0,-1,-1,10924.176335875,unknown,2,2025-04-30T11:41:15.341+03:00,2025-04-28T22:17:59.397+03:00,6793,0.81875,0,0,5699.223,11,14,2025-04-30T11:38:30.206+03:00,767695332.2086744,0,-14.62,100.9719,1,0.85,2025-04-30T11:34:04.903+03:00,97,1.616666666666667,2025-04-22T14:20:19.516+03:00,0.02197104130929222,0
2025-04-30T11:42:13.155+03:00,1746002532.057295,40.95224677673531,29.14029760423168,76.45299,-1,-1,-1,-1,30,23.66668615034241,-9999,10939.56116979167,-0.6726531982421875,0.58233642578125,-0.45745849609375,10939.55613179167,-0.8207627463511554,-0.9704431016965758,-0.6157877978550506,0.02043949440121651,0.01567667350172997,-0.00628064526244998,0.002950310707092285,0.0005689859390258789,0.006133824586868286,XArbitraryZVertical,0.4231389496535256,0.3006166540622449,0.2067031536948841,-0.8293713176502154,-0.6735739707946777,0.5776017904281616,-0.461166113615036,0,0,0,-1,-1,10924.176335875,unknown,2,2025-04-30T11:41:15.341+03:00,2025-04-28T22:17:59.397+03:00,6793,0.81875,0,0,5699.223,11,14,2025-04-30T11:38:30.206+03:00,767695332.2086744,0,-14.62,100.9719,1,0.85,2025-04-30T11:34:04.903+03:00,97,1.616666666666667,2025-04-22T14:20:19.516+03:00,0.02197104130929222,0
2025-04-30T11:42:13.165+03:00,1746002532.057295,40.95224677673531,29.14029760423168,76.45299,-1,-1,-1,-1,30,23.66668615034241,-9999,10939.57124479167,-0.6734466552734375,0.5816650390625,-0.457275390625,10939.56620779167,-0.8205795049944349,-0.9701507218296658,-0.6155930660037787,0.02453077584505081,0.02057808637619019,-0.007630134932696819,0.001321315765380859,0.005748152732849121,0.004227519035339355,XArbitraryZVertical,0.423011393302487,0.3005795301344262,0.2067391092784848,-0.8294409100087828,-0.6735318899154663,0.5774428248405457,-0.4614266157150269,0,0,0,-1,-1,10924.176335875,unknown,2,2025-04-30T11:41:15.341+03:00,2025-04-28T22:17:59.397+03:00,6793,0.81875,0,0,5699.223,11,14,2025-04-30T11:38:30.206+03:00,767695332.2086744,0,-14.62,100.9719,1,0.85,2025-04-30T11:34:04.903+03:00,97,1.616666666666667,2025-04-22T14:20:19.516+03:00,0.02197104130929222,0
2025-04-30T11:42:13.175+03:00,1746002532.057295,40.95224677673531,29.14029760423168,76.45299,-1,-1,-1,-1,30,23.66668615034241,-9999,10939.58132079167,-0.67236328125,0.5810699462890625,-0.45751953125,10939.57628279167,-0.8203629577379921,-0.9697969845706239,-0.6153772826197913,0.03073594160377979,0.0248335525393486,-0.008332144469022751,0.0002689361572265625,0.0049172043800354,0.004276812076568604,XArbitraryZVertical,0.4228649468684064,0.3005288629549218,0.2067795892587886,-0.8295238355899041,-0.6734713912010193,0.5772666335105896,-0.4617352783679962,0,0,0,-1,-1,10924.176335875,unknown,2,2025-04-30T11:41:15.341+03:00,2025-04-28T22:17:59.397+03:00,6793,0.81875,0,0,5699.223,11,14,2025-04-30T11:38:30.206+03:00,767695332.2086744,0,-14.62,100.9719,1,0.85,2025-04-30T11:34:04.903+03:00,97,1.616666666666667,2025-04-22T14:20:19.516+03:00,0.02197104130929222,0
2025-04-30T11:42:13.185+03:00,1746002532.057295,40.95224677673531,29.14029760423168,76.45299,-1,-1,-1,-1,30,23.66668615034241,-9999,10939.59139679167,-0.6724090576171875,0.5778961181640625,-0.4583892822265625,10939.58635879167,-0.8200982120394867,-0.9693897363737967,-0.6151094327500397,0.03633730113506317,0.02778080478310585,-0.009839792735874653,4.041194915771484e-05,0.004449307918548584,0.005050480365753174,XArbitraryZVertical,0.4226870292000456,0.3004782636558003,0.2068247188799184,-0.8296215840152152,-0.6734107732772827,0.5770478844642639,-0.4620969891548157,0,0,0,-1,-1,10924.176335875,unknown,2,2025-04-30T11:41:15.341+03:00,2025-04-28T22:17:59.397+03:00,6793,0.81875,0,0,5699.223,11,14,2025-04-30T11:38:30.206+03:00,767695332.2086744,0,-14.62,100.9719,1,0.85,2025-04-30T11:34:04.903+03:00,97,1.616666666666667,2025-04-22T14:20:19.516+03:00,0.02197104130929222,0
2025-04-30T11:42:13.195+03:00,1746002532.057295,40.95224677673531,29.14029760423168,76.45299,-1,-1,-1,-1,30,23.66668615034241,-9999,10939.60147179167,-0.6739501953125,0.5771026611328125,-0.4609527587890625,10939.59643379167,-0.8197575592251178,-0.9689068324452732,-0.6148022685961418,0.04708874970674515,0.03258488327264786,-0.01030957419425249,0.0009093284606933594,0.002380788326263428,0.0040569007396698,XArbitraryZVertical,0.42247576685451,0.300421391879037,0.2068643585713978,-0.8297398588462545,-0.6733335852622986,0.5767970085144043,-0.4625224173069,0,0,0,-1,-1,10924.176335875,unknown,2,2025-04-30T11:41:15.341+03:00,2025-04-28T22:17:59.397+03:00,6793,0.81875,0,0,5699.223,11,14,2025-04-30T11:38:30.206+03:00,767695332.2086744,0,-14.62,100.9719,1,0.85,2025-04-30T11:34:04.903+03:00,97,1.616666666666667,2025-04-22T14:20:19.516+03:00,0.02197104130929222,0
2025-04-30T11:42:13.205+03:00,1746002532.057295,40.95224677673531,29.14029760423168,76.45299,-1,-1,-1,-1,30,23.66668615034241,-9999,10939.611549375,-0.67364501953125,0.5799407958984375,-0.4586334228515625,10939.606511375,-0.819236147259394,-0.9682874903941551,-0.6144041241231872,0.06790768355131149,0.03625651448965073,-0.004553318489342928,-0.0005155801773071289,-4.041194915771484e-05,0.003276467323303223,XArbitraryZVertical,0.4221905153692589,0.3003671444205203,0.2068810730819762,-0.8299005461909493,-0.6732361912727356,0.576471745967865,-0.4630694985389709,0,0,0,-1,-1,10924.176335875,unknown,2,2025-04-30T11:41:15.341+03:00,2025-04-28T22:17:59.397+03:00,6793,0.81875,0,0,5699.223,11,14,2025-04-30T11:38:30.206+03:00,767695332.2086744,0,-14.62,100.9719,1,0.85,2025-04-30T11:34:04.903+03:00,97,1.616666666666667,2025-04-22T14:20:19.516+03:00,0.02197104130929222,0
2025-04-30T11:42:13.215+03:00,1746002532.057295,40.95224677673531,29.14029760423168,76.45299,-1,-1,-1,-1,30,23.66668615034241,-9999,10939.621624375,-0.6714630126953125,0.5842742919921875,-0.4552154541015625,10939.616587375,-0.8185455085530783,-0.9675445897648962,-0.6139036217743876,0.08516496419906616,0.03735107183456421,-0.01350633334368467,-0.001003742218017578,0.002581179141998291,0.002917766571044922,XArbitraryZVertical,0.4218302535225827,0.3003209196817849,0.2068796939009341,-0.8301008250365064,-0.6731294989585876,0.5760626792907715,-0.4637331664562225,0,0,0,-1,-1,10924.176335875,unknown,2,2025-04-30T11:41:15.341+03:00,2025-04-28T22:17:59.397+03:00,6793,0.81875,0,0,5699.223,11,14,2025-04-30T11:38:30.206+03:00,767695332.2086744,0,-14.62,100.9719,1,0.85,2025-04-30T11:34:04.903+03:00,97,1.616666666666667,2025-04-22T14:20:19.516+03:00,0.02197104130929222,0
2025-04-30T11:42:13.225+03:00,1746002532.057295,40.95224677673531,29.14029760423168,76.45299,-1,-1,-1,-1,30,23.66668615034241,-9999,10939.631700375,-0.6739044189453125,0.5878143310546875,-0.458343505859375,10939.626662375,-0.8177905321617059,-0.9666961879941595,-0.6133051639585885,0.08777665346860886,0.04458761960268021,-0.0155656561255455,0.0009613633155822754,0.006702005863189697,0.006949782371520996,XArbitraryZVertical,0.4214141399119167,0.300266904300822,0.2068986553611751,-0.830326949719736,-0.6730194687843323,0.5755733847618103,-0.464499831199646,0,0,0,-1,-1,10924.176335875,unknown,2,2025-04-30T11:41:15.341+03:00,2025-04-28T22:17:59.397+03:00,6793,0.81875,0,0,5699.223,11,14,2025-04-30T11:38:30.206+03:00,767695332.2086744,0,-14.62,100.9719,1,0.85,2025-04-30T11:34:04.903+03:00,97,1.616666666666667,2025-04-22T14:20:19.516+03:00,0.02197104130929222,0
2025-04-30T11:42:13.235+03:00,1746002532.057295,40.95224677673531,29.14029760423168,76.45299,-1,-1,-1,-1,30,23.66668615034241,-9999,10939.641776375,-0.674407958984375,0.583160400390625,-0.4622344970703125,10939.636738375,-0.8170589705460124,-0.9657678214044516,-0.6126606728910311,0.0902472659945488,0.05344076454639435,-0.02292157337069511,-0.0002180933952331543,0.01052498817443848,0.01037931442260742,XArbitraryZVertical,0.4209766046986191,0.3001850506925912,0.2069555706986185,-0.8305641860277172,-0.6728928089141846,0.5750462412834167,-0.4653352797031403,0,0,0,-1,-1,10924.176335875,unknown,2,2025-04-30T11:41:15.341+03:00,2025-04-28T22:17:59.397+03:00,6793,0.81875,0,0,5699.223,11,14,2025-04-30T11:38:30.206+03:00,767695332.2086744,0,-14.62,100.9719,1,0.85,2025-04-30T11:34:04.903+03:00,97,1.616666666666667,2025-04-22T14:20:19.516+03:00,0.02197104130929222,0
2025-04-30T11:42:13.245+03:00,1746002532.057295,40.95224677673531,29.14029760423168,76.45299,-1,-1,-1,-1,30,23.66668615034241,-9999,10939.651851375,-0.6693267822265625,0.5722198486328125,-0.459564208984375,10939.646813375,-0.8162340090367681,-0.964797640949045,-0.6119659173952797,0.1004833281040192,0.04896658658981323,-0.01499084569513798,-0.001898050308227539,0.01260411739349365,0.005308389663696289,XArbitraryZVertical,0.4205024373338977,0.3001167268273179,0.2069949298173941,-0.8308191961794097,-0.6727692484855652,0.5744777321815491,-0.4662153124809265,0,0,0,-1,-1,10924.176335875,unknown,2,2025-04-30T11:41:15.341+03:00,2025-04-28T22:17:59.397+03:00,6793,0.81875,0,0,5699.223,11,14,2025-04-30T11:38:30.206+03:00,767695332.2086744,0,-14.62,100.9719,1,0.85,2025-04-30T11:34:04.903+03:00,97,1.616666666666667,2025-04-22T14:20:19.516+03:00,0.02197104130929222,0
2025-04-30T11:42:13.255+03:00,1746002532.057295,40.95224677673531,29.14029760423168,76.45299,-1,-1,-1,-1,30,23.66668615034241,-9999,10939.661927375,-0.6667022705078125,0.5788726806640625,-0.4570770263671875,10939.656889375,-0.8152946211298702,-0.9637977027569139,-0.611264255082408,0.1119567602872849,0.05185718089342117,-0.01500123180449009,0.000301063060760498,0.002009272575378418,0.005981862545013428,XArbitraryZVertical,0.4200052547107661,0.300061221887555,0.2069943023082307,-0.8310909981442886,-0.6726337671279907,0.5739032626152039,-0.4671176970005035,0,0,0,-1,-1,10924.176335875,unknown,2,2025-04-30T11:41:15.341+03:00,2025-04-28T22:17:59.397+03:00,6793,0.81875,0,0,5699.223,11,14,2025-04-30T11:38:30.206+03:00,767695332.2086744,0,-14.62,100.9719,1,0.85,2025-04-30T11:34:04.903+03:00,97,1.616666666666667,2025-04-22T14:20:19.516+03:00,0.02197104130929222,0
2025-04-30T11:42:13.266+03:00,1746002532.057295,40.95224677673531,29.14029760423168,76.45299,-1,-1,-1,-1,30,23.66668615034241,-9999,10939.672002375,-0.6695709228515625,0.5774993896484375,-0.4623565673828125,10939.666965375,-0.8142687873476971,-0.9627154283556563,-0.6105111573277491,0.117374561727047,0.05193294584751129,-0.01667189970612526,0.00561225414276123,0.0006577968597412109,0.01109141111373901,XArbitraryZVertical,0.4194679087710793,0.3000009622197483,0.2069875838262279,-0.8313857727603561,-0.6724823713302612,0.5732863545417786,-0.4680922031402588,0,0,0,-1,-1,10924.176335875,unknown,2,2025-04-30T11:41:15.341+03:00,2025-04-28T22:17:59.397+03:00,6793,0.81875,0,0,5699.223,11,14,2025-04-30T11:38:30.206+03:00,767695332.2086744,0,-14.62,100.9719,1,0.85,2025-04-30T11:34:04.903+03:00,97,1.616666666666667,2025-04-22T14:20:19.516+03:00,0.02197104130929222,0
2025-04-30T11:42:13.276+03:00,1746002532.057295,40.95224677673531,29.14029760423168,76.45299,-1,-1,-1,-1,30,23.66668615034241,-9999,10939.682078375,-0.6720123291015625,0.5671539306640625,-0.456787109375,10939.677040375,-0.8131626833822319,-0.96154388446966,-0.6097005866225825,0.1277662068605423,0.05710267648100853,-0.01349128689616919,0.00463557243347168,0.008631050586700439,0.009154081344604492,XArbitraryZVertical,0.4188883313406606,0.2999330355504993,0.2069802163894342,-0.8317042728495356,-0.6723143458366394,0.5726220011711121,-0.4691454768180847,0,0,0,-1,-1,10924.176335875,unknown,2,2025-04-30T11:41:15.341+03:00,2025-04-28T22:17:59.397+03:00,6793,0.81875,0,0,5699.223,11,14,2025-04-30T11:38:30.206+03:00,767695332.2086744,0,-14.62,100.9719,1,0.85,2025-04-30T11:34:04.903+03:00,97,1.616666666666667,2025-04-22T14:20:19.516+03:00,0.02197104130929222,0
2025-04-30T11:42:13.292+03:00,1746002532.057295,40.95224677673531,29.14029760423168,76.45299,-1,-1,-1,-1,30,23.66668615034241,-9999,10939.692154375,-0.6723785400390625,0.5799407958984375,-0.456024169921875,10939.687116375,-0.8118833042338284,-0.9602165681903261,-0.6087703973833434,0.1472070962190628,0.06073928996920586,-0.02080442756414413,0.0007557868957519531,-0.001027882099151611,0.01122093200683594,XArbitraryZVertical,0.4182231838184503,0.2998633991355513,0.2069630941858689,-0.8320682911733147,-0.6721271872520447,0.5718591809272766,-0.470342606306076,0,0,0,-1,-1,10924.176335875,unknown,2,2025-04-30T11:41:15.341+03:00,2025-04-28T22:17:59.397+03:00,6793,0.81875,0,0,5699.223,11,14,2025-04-30T11:38:30.206+03:00,767695332.2086744,0,-14.62,100.9719,1,0.85,2025-04-30T11:34:04.903+03:00,97,1.616666666666667,2025-04-22T14:20:19.516+03:00,0.02197104130929222,0
2025-04-30T11:42:13.296+03:00,1746002532.057295,40.95224677673531,29.14029760423168,76.45299,-1,-1,-1,-1,30,23.66668615034241,-9999,10939.702229375,-0.675628662109375,0.601287841796875,-0.4588470458984375,10939.697192375,-0.8106115652740932,-0.9588895915007134,-0.6077220226283234,0.1473618298768997,0.02936884760856628,-0.04834151268005371,0.0005450844764709473,-0.000945746898651123,0.0156455934047699,XArbitraryZVertical,0.4175161746901517,0.2998185492169695,0.2069781868887494,-0.8324355764935992,-0.6719927191734314,0.5709988474845886,-0.4715781509876251,0,0,0,-1,-1,10924.176335875,unknown,2,2025-04-30T11:41:15.341+03:00,2025-04-28T22:17:59.397+03:00,6793,0.81875,0,0,5699.223,11,14,2025-04-30T11:38:30.206+03:00,767695332.2086744,0,-14.62,100.9719,1,0.85,2025-04-30T11:34:04.903+03:00,97,1.616666666666667,2025-04-22T14:20:19.516+03:00,0.02197104130929222,0
2025-04-30T11:42:13.306+03:00,1746002532.057295,40.95224677673531,29.14029760423168,76.45299,-1,-1,-1,-1,30,23.66668615034241,-9999,10939.712305375,-0.67755126953125,0.5772857666015625,-0.4669189453125,10939.707267375,-0.8093852404910553,-0.9574345770322195,-0.6066426360744709,0.1498119384050369,0.09438326954841614,-0.02069949917495251,-0.002659440040588379,0.02337819337844849,0.01653489470481873,XArbitraryZVertical,0.4167909948542094,0.2997170288212138,0.207045751496322,-0.8328186830382648,-0.6718094944953918,0.570112407207489,-0.4729099273681641,0,0,0,-1,-1,10924.176335875,unknown,2,2025-04-30T11:41:15.341+03:00,2025-04-28T22:17:59.397+03:00,6793,0.81875,0,0,5699.223,11,14,2025-04-30T11:38:30.206+03:00,767695332.2086744,0,-14.62,100.9719,1,0.85,2025-04-30T11:34:04.903+03:00,97,1.616666666666667,2025-04-22T14:20:19.516+03:00,0.02197104130929222,0
2025-04-30T11:42:13.316+03:00,1746002532.057295,40.95224677673531,29.14029760423168,76.45299,-1,-1,-1,-1,30,23.66668615034241,-9999,10939.722381375,-0.6718597412109375,0.5543670654296875,-0.4644927978515625,10939.717343375,-0.8081490562968746,-0.9558336453702218,-0.6056052129283409,0.145230233669281,0.09469911456108093,-0.02907088026404381,-0.005559146404266357,0.02626025676727295,0.01158782839775085,XArbitraryZVertical,0.4160640137057378,0.299546045940825,0.2071277676291614,-0.8332231888887185,-0.6715342402458191,0.5692597627639771,-0.4743258059024811,0,0,0,-1,-1,10924.176335875,unknown,2,2025-04-30T11:41:15.341+03:00,2025-04-28T22:17:59.397+03:00,6793,0.81875,0,0,5699.223,11,14,2025-04-30T11:38:30.206+03:00,767695332.2086744,0,-14.62,100.9719,1,0.85,2025-04-30T11:34:04.903+03:00,97,1.616666666666667,2025-04-22T14:20:19.516+03:00,0.02197104130929222,0
2025-04-30T11:42:13.326+03:00,1746002532.057295,40.95224677673531,29.14029760423168,76.45299,-1,-1,-1,-1,30,23.66668615034241,-9999,10939.732456375,-0.6706390380859375,0.5698699951171875,-0.458404541015625,10939.727418375,-0.8070451638183921,-0.9542625752838296,-0.6046598179948868,0.1240927875041962,0.09246239811182022,-0.0295636635273695,-0.003135085105895996,-0.00737076997756958,0.008528172969818115,XArbitraryZVertical,0.4153928807205079,0.2993378220414594,0.2072341951147285,-0.8336063764224083,-0.6712270379066467,0.5684822201728821,-0.4756912589073181,0,0,0,-1,-1,10924.176335875,unknown,2,2025-04-30T11:41:15.341+03:00,2025-04-28T22:17:59.397+03:00,6793,0.81875,0,0,5699.223,11,14,2025-04-30T11:38:30.206+03:00,767695332.2086744,0,-14.62,100.9719,1,0.85,2025-04-30T11:34:04.903+03:00,97,1.616666666666667,2025-04-22T14:20:19.516+03:00,0.02197104130929222,0
2025-04-30T11:42:13.336+03:00,1746002532.057295,40.95224677673531,29.14029760423168,76.45299,-1,-1,-1,-1,30,23.66668615034241,-9999,10939.742532375,-0.6682891845703125,0.57135009765625,-0.467987060546875,10939.737494375,-0.8060090933981157,-0.9527344911964633,-0.6037216812715489,0.1234014332294464,0.09793093055486679,-0.02214089967310429,0.000279545783996582,-0.008216142654418945,0.01657605171203613,XArbitraryZVertical,0.4147386210224666,0.2991308411045384,0.2073570776591916,-0.8339758477230064,-0.6709337830543518,0.5677102208137512,-0.4770252406597137,0,0,0,-1,-1,10924.176335875,unknown,2,2025-04-30T11:41:15.341+03:00,2025-04-28T22:17:59.397+03:00,6793,0.81875,0,0,5699.223,11,14,2025-04-30T11:38:30.206+03:00,767695332.2086744,0,-14.62,100.9719,1,0.85,2025-04-30T11:34:04.903+03:00,97,1.616666666666667,2025-04-22T14:20:19.516+03:00,0.02197104130929222,0
2025-04-30T11:42:13.346+03:00,1746002532.057295,40.95224677673531,29.14029760423168,76.45299,-1,-1,-1,-1,30,23.66668615034241,-9999,10939.752607375,-0.6659698486328125,0.5596771240234375,-0.470001220703125,10939.747570375,-0.8050206172703328,-0.9512669001535821,-0.6028081134442795,0.1251155734062195,0.08353587985038757,-0.03590258583426476,0.001297652721405029,0.00854259729385376,0.01734229922294617,XArbitraryZVertical,0.4141063914739699,0.2989327116966502,0.2074800334674775,-0.8343302982326878,-0.670654833316803,0.5669578909873962,-0.4783102571964264,0,0,0,-1,-1,10924.176335875,unknown,2,2025-04-30T11:41:15.341+03:00,2025-04-28T22:17:59.397+03:00,6793,0.81875,0,0,5699.223,11,14,2025-04-30T11:38:30.206+03:00,767695332.2086744,0,-14.62,100.9719,1,0.85,2025-04-30T11:34:04.903+03:00,97,1.616666666666667,2025-04-22T14:20:19.516+03:00,0.02197104130929222,0
2025-04-30T11:42:13.356+03:00,1746002532.057295,40.95224677673531,29.14029760423168,76.45299,-1,-1,-1,-1,30,23.66668615034241,-9999,10939.762683375,-0.6685028076171875,0.5673065185546875,-0.458709716796875,10939.757645375,-0.8041522500933218,-0.9499127461565707,-0.6018003341966536,0.1198840588331223,0.09886370599269867,-0.04379113391041756,0.003539860248565674,-0.002040565013885498,0.006802409887313843,XArbitraryZVertical,0.4134691514134287,0.2987778163089282,0.2076525354705673,-0.8346588582264256,-0.6704709529876709,0.5661274194717407,-0.4795501530170441,0,0,0,-1,-1,10924.176335875,unknown,2,2025-04-30T11:41:15.341+03:00,2025-04-28T22:17:59.397+03:00,6793,0.81875,0,0,5699.223,11,14,2025-04-30T11:38:30.206+03:00,767695332.2086744,0,-14.62,100.9719,1,0.85,2025-04-30T11:34:04.903+03:00,97,1.616666666666667,2025-04-22T14:20:19.516+03:00,0.02197104130929222,0
2025-04-30T11:42:13.366+03:00,1746002532.057295,40.95224677673531,29.14029760423168,76.45299,-1,-1,-1,-1,30,23.66668615034241,-9999,10939.772759375,-0.66766357421875,0.5821075439453125,-0.4628448486328125,10939.767721375,-0.8030977843626308,-0.9483058710961378,-0.6006716234442366,0.151660367846489,0.1120756417512894,-0.03853605315089226,0.003836452960968018,-0.004268229007720947,0.0179712176322937,XArbitraryZVertical,0.4127333104270017,0.2985826696386994,0.2078291162177478,-0.8350489141978259,-0.670218288898468,0.5651966333389282,-0.4809992015361786,0,0,0,-1,-1,10924.176335875,unknown,2,2025-04-30T11:41:15.341+03:00,2025-04-28T22:17:59.397+03:00,6793,0.81875,0,0,5699.223,11,14,2025-04-30T11:38:30.206+03:00,767695332.2086744,0,-14.62,100.9719,1,0.85,2025-04-30T11:34:04.903+03:00,97,1.616666666666667,2025-04-22T14:20:19.516+03:00,0.02197104130929222,0
2025-04-30T11:42:13.376+03:00,1746002532.057295,40.95224677673531,29.14029760423168,76.45299,-1,-1,-1,-1,30,23.66668615034241,-9999,10939.782834375,-0.6644439697265625,0.5790557861328125,-0.4726104736328125,10939.777796375,-0.801811884593986,-0.9465072792270987,-0.5994421671609268,0.1686918139457703,0.1099134236574173,-0.03873472288250923,0.0001613497734069824,0.01173055171966553,0.02454084157943726,XArbitraryZVertical,0.4119056945846449,0.298377016796732,0.2079726503913588,-0.8354952520744744,-0.6699153780937195,0.5641819834709167,-0.4826097190380096,0,0,0,-1,-1,10924.176335875,unknown,2,2025-04-30T11:41:15.341+03:00,2025-04-28T22:17:59.397+03:00,6793,0.81875,0,0,5699.223,11,14,2025-04-30T11:38:30.206+03:00,767695332.2086744,0,-14.62,100.9719,1,0.85,2025-04-30T11:34:04.903+03:00,97,1.616666666666667,2025-04-22T14:20:19.516+03:00,0.02197104130929222,0
2025-04-30T11:42:13.387+03:00,1746002532.057295,40.95224677673531,29.14029760423168,76.45299,-1,-1,-1,-1,30,23.66668615034241,-9999,10939.792910375,-0.668975830078125,0.5703887939453125,-0.481170654296875,10939.787872375,-0.8004668524201608,-0.944709734047005,-0.5981936419908107,0.1658750474452972,0.1065126359462738,-0.04473891854286194,0.004150748252868652,0.01932305097579956,0.01591798663139343,XArbitraryZVertical,0.4110618694638981,0.2981868971471627,0.2080944700256464,-0.8359481152687875,-0.6696169376373291,0.5631507039070129,-0.4842254221439362,0,0,0,-1,-1,10924.176335875,unknown,2,2025-04-30T11:41:15.341+03:00,2025-04-28T22:17:59.397+03:00,6793,0.81875,0,0,5699.223,11,14,2025-04-30T11:38:30.206+03:00,767695332.2086744,0,-14.62,100.9719,1,0.85,2025-04-30T11:34:04.903+03:00,97,1.616666666666667,2025-04-22T14:20:19.516+03:00,0.02197104130929222,0
2025-04-30T11:42:13.397+03:00,1746002532.057295,40.95224677673531,29.14029760423168,76.45299,-1,-1,-1,-1,30,23.66668615034241,-9999,10939.802986375,-0.672821044921875,0.558624267578125,-0.4871673583984375,10939.797948375,-0.7992282643905134,-0.9430279503928661,-0.596972360750487,0.1503541469573975,0.09775856137275696,-0.04356180131435394,0.003250718116760254,0.0121234655380249,0.01010763645172119,XArbitraryZVertical,0.4102551956309443,0.2980157602513426,0.2082286894288407,-0.8363720197429302,-0.6693578958511353,0.5621410608291626,-0.4857545495033264,0,0,0,-1,-1,10924.176335875,unknown,2,2025-04-30T11:41:15.341+03:00,2025-04-28T22:17:59.397+03:00,6793,0.81875,0,0,5699.223,11,14,2025-04-30T11:38:30.206+03:00,767695332.2086744,0,-14.62,100.9719,1,0.85,2025-04-30T11:34:04.903+03:00,97,1.616666666666667,2025-04-22T14:20:19.516+03:00,0.02197104130929222,0
2025-04-30T11:42:13.407+03:00,1746002532.057295,40.95224677673531,29.14029760423168,76.45299,-1,-1,-1,-1,30,23.66668615034241,-9999,10939.813061375,-0.6702880859375,0.5478668212890625,-0.4857940673828125,10939.808023375,-0.7982252432710146,-0.9415445743237696,-0.5958065950043681,0.1227696612477303,0.0942503809928894,-0.04528114199638367,-0.002861618995666504,0.003688573837280273,0.00182652473449707,XArbitraryZVertical,0.409524126094567,0.2978655067201924,0.2084054774104948,-0.8367396633454395,-0.6691659092903137,0.5611765384674072,-0.4871322512626648,0,0,0,-1,-1,10924.176335875,unknown,2,2025-04-30T11:41:15.341+03:00,2025-04-28T22:17:59.397+03:00,6793,0.81875,0,0,5699.223,11,14,2025-04-30T11:38:30.206+03:00,767695332.2086744,0,-14.62,100.9719,1,0.85,2025-04-30T11:34:04.903+03:00,97,1.616666666666667,2025-04-22T14:20:19.516+03:00,0.02197104130929222,0
2025-04-30T11:42:13.417+03:00,1746002532.057295,40.95224677673531,29.14029760423168,76.45299,-1,-1,-1,-1,30,23.66668615034241,-9999,10939.823137375,-0.6669464111328125,0.536529541015625,-0.4834747314453125,10939.818099375,-0.7974431030124909,-0.9402056259915191,-0.5947843194936059,0.1082527711987495,0.09457049518823624,-0.04096948355436325,-0.003005683422088623,-0.006985366344451904,0.001702010631561279,XArbitraryZVertical,0.4088930896614946,0.2976970558387389,0.2086081564668923,-0.8370576701976215,-0.6689760684967041,0.5603301525115967,-0.4883657991886139,0,0,0,-1,-1,10924.176335875,unknown,2,2025-04-30T11:41:15.341+03:00,2025-04-28T22:17:59.397+03:00,6793,0.81875,0,0,5699.223,11,14,2025-04-30T11:38:30.206+03:00,767695332.2086744,0,-14.62,100.9719,1,0.85,2025-04-30T11:34:04.903+03:00,97,1.616666666666667,2025-04-22T14:20:19.516+03:00,0.02197104130929222,0
2025-04-30T11:42:13.427+03:00,1746002532.057295,40.95224677673531,29.14029760423168,76.45299,-1,-1,-1,-1,30,23.66668615034241,-9999,10939.833212375,-0.6631622314453125,0.53863525390625,-0.483551025390625,10939.828175375,-0.7967637118555772,-0.9389588444284014,-0.5939089124896013,0.1005282700061798,0.08464621752500534,-0.03882896527647972,0.0005035996437072754,-0.01739901304244995,0.00483936071395874,XArbitraryZVertical,0.4083404869487981,0.2975122534526112,0.2087974526331756,-0.8373458690873242,-0.66876220703125,0.559604823589325,-0.4894890189170837,0,0,0,-1,-1,10924.176335875,unknown,2,2025-04-30T11:41:15.341+03:00,2025-04-28T22:17:59.397+03:00,6793,0.81875,0,0,5699.223,11,14,2025-04-30T11:38:30.206+03:00,767695332.2086744,0,-14.62,100.9719,1,0.85,2025-04-30T11:34:04.903+03:00,97,1.616666666666667,2025-04-22T14:20:19.516+03:00,0.02197104130929222,0
2025-04-30T11:42:13.437+03:00,1746002532.057295,40.95224677673531,29.14029760423168,76.45299,-1,-1,-1,-1,30,23.66668615034241,-9999,10939.843288375,-0.66009521484375,0.5459747314453125,-0.4852142333984375,10939.838250375,-0.7960485100505884,-0.9377921781163494,-0.593011028327572,0.1061619222164154,0.07854118943214417,-0.03776450082659721,0.003388702869415283,-0.02370423078536987,0.008434027433395386,XArbitraryZVertical,0.4077823459785775,0.2973728330059686,0.2089603286359414,-0.8376266647554724,-0.6685954928398132,0.5588604807853699,-0.4905659258365631,0,0,0,-1,-1,10924.176335875,unknown,2,2025-04-30T11:41:15.341+03:00,2025-04-28T22:17:59.397+03:00,6793,0.81875,0,0,5699.223,11,14,2025-04-30T11:38:30.206+03:00,767695332.2086744,0,-14.62,100.9719,1,0.85,2025-04-30T11:34:04.903+03:00,97,1.616666666666667,2025-04-22T14:20:19.516+03:00,0.02197104130929222,0
2025-04-30T11:42:13.447+03:00,1746002532.057295,40.95224677673531,29.14029760423168,76.45299,-1,-1,-1,-1,30,23.66668615034241,-9999,10939.853364375,-0.6667022705078125,0.5513153076171875,-0.486541748046875,10939.848326375,-0.7952368092557525,-0.9365777915247091,-0.5920401373310973,0.1258006691932678,0.08405666798353195,-0.04193923994898796,0.008524000644683838,-0.01584929227828979,0.00707969069480896,XArbitraryZVertical,0.4071776569746102,0.2972490090447692,0.2091100380175522,-0.8379273622708827,-0.6684360504150391,0.5580551028251648,-0.4916987717151642,0,0,0,-1,-1,10924.176335875,unknown,2,2025-04-30T11:41:15.341+03:00,2025-04-28T22:17:59.397+03:00,6793,0.81875,0,0,5699.223,11,14,2025-04-30T11:38:30.206+03:00,767695332.2086744,0,-14.62,100.9719,1,0.85,2025-04-30T11:34:04.903+03:00,97,1.616666666666667,2025-04-22T14:20:19.516+03:00,0.02197104130929222,0
2025-04-30T11:42:13.457+03:00,1746002532.057295,40.95224677673531,29.14029760423168,76.45299,-1,-1,-1,-1,30,23.66668615034241,-9999,10939.863439375,-0.673583984375,0.56170654296875,-0.48583984375,10939.858401375,-0.7943386364747149,-0.9352662122976313,-0.5909861124655732,0.1328327506780624,0.09005703032016754,-0.04391983151435852,0.006245791912078857,-0.009252250194549561,0.006199121475219727,XArbitraryZVertical,0.4065189452397837,0.2971201288675939,0.2092632078195296,-0.8382546296597674,-0.6682635545730591,0.5571801662445068,-0.4929239451885223,0,0,0,-1,-1,10924.176335875,unknown,2,2025-04-30T11:41:15.341+03:00,2025-04-28T22:17:59.397+03:00,6793,0.81875,0,0,5699.223,11,14,2025-04-30T11:38:30.206+03:00,767695332.2086744,0,-14.62,100.9719,1,0.85,2025-04-30T11:34:04.903+03:00,97,1.616666666666667,2025-04-22T14:20:19.516+03:00,0.02197104130929222,0
2025-04-30T11:42:13.467+03:00,1746002532.057295,40.95224677673531,29.14029760423168,76.45299,-1,-1,-1,-1,30,23.66668615034241,-9999,10939.873515375,-0.671173095703125,0.5624847412109375,-0.48992919921875,10939.868477375,-0.7934054617876674,-0.9338722862788637,-0.5899314948039743,0.1238875836133957,0.08985236287117004,-0.04349179565906525,-0.003338754177093506,0.0003976225852966309,0.009203672409057617,XArbitraryZVertical,0.4058457251388938,0.2969631738391165,0.2094176644574844,-0.8385979256167075,-0.6680479049682617,0.5563040971755981,-0.4942042529582977,0,0,0,-1,-1,10924.176335875,unknown,2,2025-04-30T11:41:15.341+03:00,2025-04-28T22:17:59.397+03:00,6793,0.81875,0,0,5699.223,11,14,2025-04-30T11:38:30.206+03:00,767695332.2086744,0,-14.62,100.9719,1,0.85,2025-04-30T11:34:04.903+03:00,97,1.616666666666667,2025-04-22T14:20:19.516+03:00,0.02197104130929222,0
2025-04-30T11:42:13.477+03:00,1746002532.057295,40.95224677673531,29.14029760423168,76.45299,-1,-1,-1,-1,30,23.66668615034241,-9999,10939.883591375,-0.666839599609375,0.5567169189453125,-0.49676513671875,10939.878553375,-0.792588393175067,-0.9325453603835435,-0.5889049495550642,0.1119877845048904,0.0878928080201149,-0.04275037348270416,-0.005459487438201904,0.008422493934631348,0.007927149534225464,XArbitraryZVertical,0.4052067972081319,0.296803606286296,0.2095992508864353,-0.8389178060665347,-0.6678497195243835,0.5554507970809937,-0.4954301416873932,0,0,0,-1,-1,10924.176335875,unknown,2,2025-04-30T11:41:15.341+03:00,2025-04-28T22:17:59.397+03:00,6793,0.81875,0,0,5699.223,11,14,2025-04-30T11:38:30.206+03:00,767695332.2086744,0,-14.62,100.9719,1,0.85,2025-04-30T11:34:04.903+03:00,97,1.616666666666667,2025-04-22T14:20:19.516+03:00,0.02197104130929222,0
2025-04-30T11:42:13.487+03:00,1746002532.057295,40.95224677673531,29.14029760423168,76.45299,-1,-1,-1,-1,30,23.66668615034241,-9999,10939.893666375,-0.6640777587890625,0.5443572998046875,-0.50067138671875,10939.888628375,-0.7919595927925182,-0.9313518512824475,-0.5880484832872604,0.07969476282596588,0.08390439301729202,-0.03466611355543137,-0.001046359539031982,0.005167603492736816,0.00331607460975647,XArbitraryZVertical,0.4046721226860774,0.2966229632402292,0.2097897871853015,-0.8391921119361221,-0.667639434337616,0.5547383427619934,-0.4965105950832367,0,0,0,-1,-1,10924.176335875,unknown,2,2025-04-30T11:41:15.341+03:00,2025-04-28T22:17:59.397+03:00,6793,0.81875,0,0,5699.223,11,14,2025-04-30T11:38:30.206+03:00,767695332.2086744,0,-14.62,100.9719,1,0.85,2025-04-30T11:34:04.903+03:00,97,1.616666666666667,2025-04-22T14:20:19.516+03:00,0.02197104130929222,0
2025-04-30T11:42:13.497+03:00,1746002532.057295,40.95224677673531,29.14029760423168,76.45299,-1,-1,-1,-1,30,23.66668615034241,-9999,10939.903742375,-0.665740966796875,0.5316009521484375,-0.492401123046875,10939.898704375,-0.791644211232062,-0.9303600404334312,-0.5874000591971872,0.04911980777978897,0.08309159427881241,-0.03263145685195923,0.003220021724700928,-0.003463268280029297,-0.002536237239837646,XArbitraryZVertical,0.404281617281121,0.2964163742040675,0.2100189012077245,-0.839396106285893,-0.6674350500106812,0.5541987419128418,-0.4973874092102051,0,0,0,-1,-1,10924.176335875,unknown,2,2025-04-30T11:41:15.341+03:00,2025-04-28T22:17:59.397+03:00,6793,0.81875,0,0,5699.223,11,14,2025-04-30T11:38:30.206+03:00,767695332.2086744,0,-14.62,100.9719,1,0.85,2025-04-30T11:34:04.903+03:00,97,1.616666666666667,2025-04-22T14:20:19.516+03:00,0.02197104130929222,0
2025-04-30T11:42:13.507+03:00,1746002532.057295,40.95224677673531,29.14029760423168,76.45299,-1,-1,-1,-1,30,23.66668615034241,-9999,10939.913817375,-0.6618194580078125,0.5319976806640625,-0.49591064453125,10939.908780375,-0.7915296779792683,-0.9295136729495792,-0.5869198550077995,0.02224984392523766,0.0798417404294014,-0.0263780914247036,0.002035379409790039,-0.01705580949783325,0.001742899417877197,XArbitraryZVertical,0.4039981809254695,0.2961922149719087,0.2102608852115373,-0.8395511126829921,-0.667227029800415,0.5537989735603333,-0.4981112778186798,0,0,0,-1,-1,10924.176335875,unknown,2,2025-04-30T11:41:15.341+03:00,2025-04-28T22:17:59.397+03:00,6793,0.81875,0,0,5699.223,11,14,2025-04-30T11:38:30.206+03:00,767695332.2086744,0,-14.62,100.9719,1,0.85,2025-04-30T11:34:04.903+03:00,97,1.616666666666667,2025-04-22T14:20:19.516+03:00,0.02197104130929222,0
2025-04-30T11:42:13.517+03:00,1746002532.057295,40.95224677673531,29.14029760423168,76.45299,-1,-1,-1,-1,30,23.66668615034241,-9999,10939.923893375,-0.6586456298828125,0.5406646728515625,-0.4950408935546875,10939.918855375,-0.7916396618333412,-0.9288211951474,-0.5866161236350832,0.004919057246297598,0.07550425082445145,-0.02809902466833591,0.002206504344940186,-0.02431017160415649,0.005677700042724609,XArbitraryZVertical,0.4038292822301856,0.2959475644408514,0.2105221456088236,-0.839653171236878,-0.6670166254043579,0.5535460710525513,-0.4986738860607147,0,0,0,-1,-1,10924.176335875,unknown,2,2025-04-30T11:41:15.341+03:00,2025-04-28T22:17:59.397+03:00,6793,0.81875,0,0,5699.223,11,14,2025-04-30T11:38:30.206+03:00,767695332.2086744,0,-14.62,100.9719,1,0.85,2025-04-30T11:34:04.903+03:00,97,1.616666666666667,2025-04-22T14:20:19.516+03:00,0.02197104130929222,0
2025-04-30T11:42:13.528+03:00,1746002532.057295,40.95224677673531,29.14029760423168,76.45299,-1,-1,-1,-1,30,23.66668615034241,-9999,10939.933969375,-0.66168212890625,0.5433807373046875,-0.4930877685546875,10939.928931375,-0.7917187271672292,-0.9280789941217171,-0.586325762618264,0.01630260609090328,0.08373568952083588,-0.02487307228147984,0.007412135601043701,-0.01613378524780273,0.003125607967376709,XArbitraryZVertical,0.4036554242845106,0.2956852312743155,0.2107770386406554,-0.8397651500360158,-0.6667748689651489,0.5533041954040527,-0.4992650747299194,0,0,0,-1,-1,10924.176335875,unknown,2,2025-04-30T11:41:15.341+03:00,2025-04-28T22:17:59.397+03:00,6793,0.81875,0,0,5699.223,11,14,2025-04-30T11:38:30.206+03:00,767695332.2086744,0,-14.62,100.9719,1,0.85,2025-04-30T11:34:04.903+03:00,97,1.616666666666667,2025-04-22T14:20:19.516+03:00,0.02197104130929222,0
2025-04-30T11:42:13.538+03:00,1746002532.057295,40.95224677673531,29.14029760423168,76.45299,-1,-1,-1,-1,30,23.66668615034241,-9999,10939.944044375,-0.66778564453125,0.5513458251953125,-0.4931793212890625,10939.939007375,-0.7916706331700962,-0.9271926973954069,-0.5859843715039055,0.03751068934798241,0.08723827451467514,-0.02316358871757984,0.007044196128845215,-0.01082921028137207,0.006362676620483398,XArbitraryZVertical,0.4034284825128299,0.2953994797069198,0.2110201441912538,-0.8399137741376949,-0.6664832830429077,0.5530198216438293,-0.4999692142009735,0,0,0,-1,-1,10924.176335875,unknown,2,2025-04-30T11:41:15.341+03:00,2025-04-28T22:17:59.397+03:00,6793,0.81875,0,0,5699.223,11,14,2025-04-30T11:38:30.206+03:00,767695332.2086744,0,-14.62,100.9719,1,0.85,2025-04-30T11:34:04.903+03:00,97,1.616666666666667,2025-04-22T14:20:19.516+03:00,0.02197104130929222,0
2025-04-30T11:42:13.548+03:00,1746002532.057295,40.95224677673531,29.14029760423168,76.45299,-1,-1,-1,-1,30,23.66668615034241,-9999,10939.954120375,-0.6639862060546875,0.5602874755859375,-0.498291015625,10939.949082375,-0.7913522828365978,-0.9261915840073537,-0.5854774969851168,0.06513486057519913,0.08184537291526794,-0.02239047177135944,0.00106048583984375,-0.006271719932556152,0.007991433143615723,XArbitraryZVertical,0.4030881386276151,0.2951570436029945,0.2112135831277939,-0.8401137406404663,-0.6662063598632812,0.5525974035263062,-0.5008045434951782,0,0,0,-1,-1,10924.176335875,unknown,2,2025-04-30T11:41:15.341+03:00,2025-04-28T22:17:59.397+03:00,6793,0.81875,0,0,5699.223,11,14,2025-04-30T11:38:30.206+03:00,767695332.2086744,0,-14.62,100.9719,1,0.85,2025-04-30T11:34:04.903+03:00,97,1.616666666666667,2025-04-22T14:20:19.516+03:00,0.02197104130929222,0
2025-04-30T11:42:13.558+03:00,1746002532.057295,40.95224677673531,29.14029760423168,76.45299,-1,-1,-1,-1,30,23.66668615034241,-9999,10939.964196375,-0.659576416015625,0.572174072265625,-0.5039825439453125,10939.959158375,-0.7908277923430376,-0.925123866791408,-0.5848847132440186,0.07635315507650375,0.07670387625694275,-0.02013690583407879,-0.0008609890937805176,0.003133535385131836,0.006458103656768799,XArbitraryZVertical,0.4026783675598404,0.2949471947179889,0.2113547099650388,-0.8403483708218525,-0.6659327149391174,0.5521032810211182,-0.5017125606536865,0,0,0,-1,-1,10924.176335875,unknown,2,2025-04-30T11:41:15.341+03:00,2025-04-28T22:17:59.397+03:00,6793,0.81875,0,0,5699.223,11,14,2025-04-30T11:38:30.206+03:00,767695332.2086744,0,-14.62,100.9719,1,0.85,2025-04-30T11:34:04.903+03:00,97,1.616666666666667,2025-04-22T14:20:19.516+03:00,0.02197104130929222,0
2025-04-30T11:42:13.568+03:00,1746002532.057295,40.95224677673531,29.14029760423168,76.45299,-1,-1,-1,-1,30,23.66668615034241,-9999,10939.974271375,-0.6606292724609375,0.563751220703125,-0.5102996826171875,10939.969233375,-0.7902915514446576,-0.924122426599542,-0.5842873365613945,0.06945011764764786,0.06783515214920044,-0.02180637419223785,0.005140125751495361,0.01483166217803955,0.001097798347473145,XArbitraryZVertical,0.4022720000315033,0.2947682671088421,0.2114782788940195,-0.8405746081992871,-0.6656930446624756,0.5516051054000854,-0.5025778412818909,0,0,0,-1,-1,10924.176335875,unknown,2,2025-04-30T11:41:15.341+03:00,2025-04-28T22:17:59.397+03:00,6793,0.81875,0,0,5699.223,11,14,2025-04-30T11:38:30.206+03:00,767695332.2086744,0,-14.62,100.9719,1,0.85,2025-04-30T11:34:04.903+03:00,97,1.616666666666667,2025-04-22T14:20:19.516+03:00,0.02197104130929222,0
2025-04-30T11:42:13.578+03:00,1746002532.057295,40.95224677673531,29.14029760423168,76.45299,-1,-1,-1,-1,30,23.66668615034241,-9999,10939.984347375,-0.660125732421875,0.5461883544921875,-0.513458251953125,10939.979309375,-0.7899101276807561,-0.9232832672013151,-0.583793762492944,0.03934707492589951,0.05579446628689766,-0.01939248479902744,0.006110131740570068,0.01979058980941772,-0.003901660442352295,XArbitraryZVertical,0.4019439190906969,0.2946028805659047,0.2116083601991797,-0.8407568306053357,-0.6654881834983826,0.5511932969093323,-0.5033004283905029,0,0,0,-1,-1,10924.176335875,unknown,2,2025-04-30T11:41:15.341+03:00,2025-04-28T22:17:59.397+03:00,6793,0.81875,0,0,5699.223,11,14,2025-04-30T11:38:30.206+03:00,767695332.2086744,0,-14.62,100.9719,1,0.85,2025-04-30T11:34:04.903+03:00,97,1.616666666666667,2025-04-22T14:20:19.516+03:00,0.02197104130929222,0
2025-04-30T11:42:13.588+03:00,1746002532.057295,40.95224677673531,29.14029760423168,76.45299,-1,-1,-1,-1,30,23.66668615034241,-9999,10939.994422375,-0.6596832275390625,0.5352783203125,-0.5110015869140625,10939.989385375,-0.7897955675806789,-0.9226837500902848,-0.5834777126228069,0.01170978508889675,0.05480050295591354,-0.01320919115096331,0.00405508279800415,0.003437519073486328,-0.009073853492736816,XArbitraryZVertical,0.4017462833045171,0.2944446844744382,0.2117585275207622,-0.840868935610081,-0.6653251647949219,0.5509296059608459,-0.5038045048713684,0,0,0,-1,-1,10924.176335875,unknown,2,2025-04-30T11:41:15.341+03:00,2025-04-28T22:17:59.397+03:00,6793,0.81875,0,0,5699.223,11,14,2025-04-30T11:38:30.206+03:00,767695332.2086744,0,-14.62,100.9719,1,0.85,2025-04-30T11:34:04.903+03:00,97,1.616666666666667,2025-04-22T14:20:19.516+03:00,0.02197104130929222,0
2025-04-30T11:42:13.598+03:00,1746002532.057295,40.95224677673531,29.14029760423168,76.45299,-1,-1,-1,-1,30,23.66668615034241,-9999,10940.004498375,-0.6637115478515625,0.53338623046875,-0.503692626953125,10939.999460375,-0.7898596336440119,-0.922203612364394,-0.583341243133495,-0.006300640292465687,0.05378104746341705,-0.006328381597995758,0.005597293376922607,-0.01094448566436768,-0.009243130683898926,XArbitraryZVertical,0.4016541924197734,0.2942605200370995,0.2119155086208032,-0.8409378588927739,-0.6651431322097778,0.5508157014846802,-0.5041692852973938,0,0,0,-1,-1,10924.176335875,unknown,2,2025-04-30T11:41:15.341+03:00,2025-04-28T22:17:59.397+03:00,6793,0.81875,0,0,5699.223,11,14,2025-04-30T11:38:30.206+03:00,767695332.2086744,0,-14.62,100.9719,1,0.85,2025-04-30T11:34:04.903+03:00,97,1.616666666666667,2025-04-22T14:20:19.516+03:00,0.02197104130929222,0
2025-04-30T11:42:13.608+03:00,1746002532.057295,40.95224677673531,29.14029760423168,76.45299,-1,-1,-1,-1,30,23.66668615034241,-9999,10940.014574375,-0.665283203125,0.536102294921875,-0.5035552978515625,10940.009536375,-0.790023549985582,-0.9217413526311237,-0.5833470043530929,-0.01366048585623503,0.05558380484580994,-0.005329263862222433,0.002523481845855713,-0.01789206266403198,-0.002391576766967773,XArbitraryZVertical,0.4016314509881136,0.2940319370747723,0.2120758418702947,-0.8409882313968817,-0.6649074554443359,0.550820529460907,-0.5044748187065125,0,0,0,-1,-1,10924.176335875,unknown,2,2025-04-30T11:41:15.341+03:00,2025-04-28T22:17:59.397+03:00,6793,0.81875,0,0,5699.223,11,14,2025-04-30T11:38:30.206+03:00,767695332.2086744,0,-14.62,100.9719,1,0.85,2025-04-30T11:34:04.903+03:00,97,1.616666666666667,2025-04-22T14:20:19.516+03:00,0.02197104130929222,0
2025-04-30T11:42:13.618+03:00,1746002532.057295,40.95224677673531,29.14029760423168,76.45299,-1,-1,-1,-1,30,23.66668615034241,-9999,10940.024649375,-0.660614013671875,0.544921875,-0.510498046875,10940.019612375,-0.7901889841319494,-0.9212973830712845,-0.5833890528618056,-0.01108467578887939,0.05363330617547035,-0.004806219134479761,-0.0001298785209655762,-0.01731675863265991,0.002177238464355469,XArbitraryZVertical,0.4016242634637627,0.2938026056463202,0.2122242222449095,-0.8410344203553612,-0.6646649837493896,0.5508555769920349,-0.504755973815918,0,0,0,-1,-1,10924.176335875,unknown,2,2025-04-30T11:41:15.341+03:00,2025-04-28T22:17:59.397+03:00,6793,0.81875,0,0,5699.223,11,14,2025-04-30T11:38:30.206+03:00,767695332.2086744,0,-14.62,100.9719,1,0.85,2025-04-30T11:34:04.903+03:00,97,1.616666666666667,2025-04-22T14:20:19.516+03:00,0.02197104130929222,0
2025-04-30T11:42:13.628+03:00,1746002532.057295,40.95224677673531,29.14029760423168,76.45299,-1,-1,-1,-1,30,23.66668615034241,-9999,10940.034725375,-0.6544036865234375,0.551422119140625,-0.5129547119140625,10940.029687375,-0.790308011058776,-0.9208751163311097,-0.5834282505884124,-0.005757821258157492,0.04703692719340324,-0.0007261231075972319,0.001379191875457764,-0.01014727354049683,-0.002132833003997803,XArbitraryZVertical,0.4016114906871596,0.2935923406817859,0.2123494231218964,-0.8410823125497388,-0.6644346117973328,0.5508882999420166,-0.5050234794616699,0,0,0,-1,-1,10924.176335875,unknown,2,2025-04-30T11:41:15.341+03:00,2025-04-28T22:17:59.397+03:00,6793,0.81875,0,0,5699.223,11,14,2025-04-30T11:38:30.206+03:00,767695332.2086744,0,-14.62,100.9719,1,0.85,2025-04-30T11:34:04.903+03:00,97,1.616666666666667,2025-04-22T14:20:19.516+03:00,0.02197104130929222,0
2025-04-30T11:42:13.638+03:00,1746002532.057295,40.95224677673531,29.14029760423168,76.45299,-1,-1,-1,-1,30,23.66668615034241,-9999,10940.044801375,-0.6517486572265625,0.5564422607421875,-0.5142669677734375,10940.039763375,-0.7903426999313102,-0.9204909874162203,-0.5834521967256695,0.002220210153609514,0.0352066308259964,-0.0003482205793261528,0.007262945175170898,-0.001897037029266357,-0.006493806838989258,XArbitraryZVertical,0.4015846792840372,0.2934184619123107,0.2124352557638598,-0.8411341193436168,-0.6642300486564636,0.5509083271026611,-0.5052707195281982,0,0,0,-1,-1,10924.176335875,unknown,2,2025-04-30T11:41:15.341+03:00,2025-04-28T22:17:59.397+03:00,6793,0.81875,0,0,5699.223,11,14,2025-04-30T11:38:30.206+03:00,767695332.2086744,0,-14.62,100.9719,1,0.85,2025-04-30T11:34:04.903+03:00,97,1.616666666666667,2025-04-22T14:20:19.516+03:00,0.02197104130929222,0
2025-04-30T11:42:13.648+03:00,1746002532.057295,40.95224677673531,29.14029760423168,76.45299,-1,-1,-1,-1,30,23.66668615034241,-9999,10940.054876375,-0.6519317626953125,0.5577239990234375,-0.5079803466796875,10940.049839375,-0.7902493234321236,-0.9201457158747833,-0.5834727713455244,0.01114832423627377,0.0286007933318615,0.003841797355562449,0.01121455430984497,0.00338059663772583,-0.0081329345703125,XArbitraryZVertical,0.4015419478770086,0.293287384509911,0.2124602490499485,-0.8411939212574914,-0.6640465259552002,0.5509254932403564,-0.5054931640625,0,0,0,-1,-1,10924.176335875,unknown,2,2025-04-30T11:41:15.341+03:00,2025-04-28T22:17:59.397+03:00,6793,0.81875,0,0,5699.223,11,14,2025-04-30T11:38:30.206+03:00,767695332.2086744,0,-14.62,100.9719,1,0.85,2025-04-30T11:34:04.903+03:00,97,1.616666666666667,2025-04-22T14:20:19.516+03:00,0.02197104130929222,0
2025-04-30T11:42:13.659+03:00,1746002532.057295,40.95224677673531,29.14029760423168,76.45299,-1,-1,-1,-1,30,23.66668615034241,-9999,10940.064952375,-0.6536865234375,0.5562744140625,-0.503143310546875,10940.059914375,-0.7900943923589179,-0.919776846837362,-0.5834725312394594,0.01051529031246901,0.02666627243161201,0.00222818786278367,0.01211154460906982,0.007058143615722656,-0.006301045417785645,XArbitraryZVertical,0.4014799628964216,0.2931633887032921,0.2124691924335193,-0.8412644575068056,-0.6638601422309875,0.5509252548217773,-0.5057381391525269,0,0,0,-1,-1,10924.176335875,unknown,2,2025-04-30T11:41:15.341+03:00,2025-04-28T22:17:59.397+03:00,6793,0.81875,0,0,5699.223,11,14,2025-04-30T11:38:30.206+03:00,767695332.2086744,0,-14.62,100.9719,1,0.85,2025-04-30T11:34:04.903+03:00,97,1.616666666666667,2025-04-22T14:20:19.516+03:00,0.02197104130929222,0
2025-04-30T11:42:13.669+03:00,1746002532.057295,40.95224677673531,29.14029760423168,76.45299,-1,-1,-1,-1,30,23.66668615034241,-9999,10940.075028375,-0.6562042236328125,0.5529937744140625,-0.5038299560546875,10940.069990375,-0.7899878252588342,-0.9194781268700302,-0.5834192466508449,0.01030064094811678,0.0192301943898201,0.001005264464765787,0.01132762432098389,0.007087349891662598,0.001697063446044922,XArbitraryZVertical,0.4014128013546883,0.2930710641924303,0.2124974232796182,-0.8413215640762846,-0.6637324094772339,0.5508807897567749,-0.5059542059898376,0,0,0,-1,-1,10924.176335875,unknown,2,2025-04-30T11:41:15.341+03:00,2025-04-28T22:17:59.397+03:00,6793,0.81875,0,0,5699.223,11,14,2025-04-30T11:38:30.206+03:00,767695332.2086744,0,-14.62,100.9719,1,0.85,2025-04-30T11:34:04.903+03:00,97,1.616666666666667,2025-04-22T14:20:19.516+03:00,0.02197104130929222,0
2025-04-30T11:42:13.679+03:00,1746002532.057295,40.95224677673531,29.14029760423168,76.45299,-1,-1,-1,-1,30,23.66668615034241,-9999,10940.085103375,-0.6582183837890625,0.55194091796875,-0.503814697265625,10940.080065375,-0.7898763431204789,-0.9192264732646239,-0.5833412631299227,0.01067401561886072,0.01742110960185528,0.000674766197334975,0.008396327495574951,0.003429293632507324,0.003034532070159912,XArbitraryZVertical,0.401340739542268,0.2930050453951071,0.2125201930324305,-0.841373209096222,-0.6636391878128052,0.5508157014846802,-0.5061473250389099,0,0,0,-1,-1,10924.176335875,unknown,2,2025-04-30T11:41:15.341+03:00,2025-04-28T22:17:59.397+03:00,6793,0.81875,0,0,5699.223,11,14,2025-04-30T11:38:30.206+03:00,767695332.2086744,0,-14.62,100.9719,1,0.85,2025-04-30T11:34:04.903+03:00,97,1.616666666666667,2025-04-22T14:20:19.516+03:00,0.02197104130929222,0
2025-04-30T11:42:13.689+03:00,1746002532.057295,40.95224677673531,29.14029760423168,76.45299,-1,-1,-1,-1,30,23.66668615034241,-9999,10940.095179375,-0.65753173828125,0.5489349365234375,-0.5040283203125,10940.090141375,-0.7897376012465258,-0.9190041711964924,-0.5832508572846716,0.01243702787905931,0.01200210861861706,0.004635685589164495,0.006492376327514648,0.001933157444000244,0.002266228199005127,XArbitraryZVertical,0.4012631880407559,0.2929596126058521,0.2125286387817971,-0.8414238988538941,-0.6635662913322449,0.5507402420043945,-0.5063250660896301,0,0,0,-1,-1,10924.176335875,unknown,2,2025-04-30T11:41:15.341+03:00,2025-04-28T22:17:59.397+03:00,6793,0.81875,0,0,5699.223,11,14,2025-04-30T11:38:30.206+03:00,767695332.2086744,0,-14.62,100.9719,1,0.85,2025-04-30T11:34:04.903+03:00,97,1.616666666666667,2025-04-22T14:20:19.516+03:00,0.02197104130929222,0
2025-04-30T11:42:13.699+03:00,1746002532.057295,40.95224677673531,29.14029760423168,76.45299,-1,-1,-1,-1,30,23.66668615034241,-9999,10940.105255375,-0.6550445556640625,0.54833984375,-0.5065765380859375,10940.100217375,-0.7895971294342358,-0.9188442915363801,-0.583159218354717,0.01467328425496817,0.007197766564786434,0.001552011352032423,0.005566418170928955,-0.0008590221405029297,0.002524971961975098,XArbitraryZVertical,0.4011916164409619,0.2929410375071657,0.2125240985859459,-0.8414655216306296,-0.6635253429412842,0.5506637692451477,-0.5064616799354553,0,0,0,-1,-1,10924.176335875,unknown,2,2025-04-30T11:41:15.341+03:00,2025-04-28T22:17:59.397+03:00,6793,0.81875,0,0,5699.223,11,14,2025-04-30T11:38:30.206+03:00,767695332.2086744,0,-14.62,100.9719,1,0.85,2025-04-30T11:34:04.903+03:00,97,1.616666666666667,2025-04-22T14:20:19.516+03:00,0.02197104130929222,0
2025-04-30T11:42:13.709+03:00,1746002532.057295,40.95224677673531,29.14029760423168,76.45299,-1,-1,-1,-1,30,23.66668615034241,-9999,10940.115330375,-0.6576080322265625,0.552215576171875,-0.5093231201171875,10940.110292375,-0.7894520808347767,-0.9186969530775957,-0.5830745242901151,0.01209041755646467,0.005213045980781317,0.001510932110249996,0.007832944393157959,-0.002390563488006592,0.001552402973175049,XArbitraryZVertical,0.401123252496229,0.2929270986148227,0.2125134128843259,-0.8415056195684258,-0.6634877324104309,0.5505930781364441,-0.5065876841545105,0,0,0,-1,-1,10924.176335875,unknown,2,2025-04-30T11:41:15.341+03:00,2025-04-28T22:17:59.397+03:00,6793,0.81875,0,0,5699.223,11,14,2025-04-30T11:38:30.206+03:00,767695332.2086744,0,-14.62,100.9719,1,0.85,2025-04-30T11:34:04.903+03:00,97,1.616666666666667,2025-04-22T14:20:19.516+03:00,0.02197104130929222,0
2025-04-30T11:42:13.719+03:00,1746002532.057295,40.95224677673531,29.14029760423168,76.45299,-1,-1,-1,-1,30,23.66668615034241,-9999,10940.125406375,-0.65863037109375,0.5552520751953125,-0.5112152099609375,10940.120368375,-0.7893072053025202,-0.9185546812868449,-0.5830243118134449,0.01014551054686308,0.002238028682768345,0.001490425784140825,0.006836771965026855,-0.0006854534149169922,-0.001006722450256348,XArbitraryZVertical,0.4010682471085568,0.2929075325286259,0.2124933164181863,-0.8415437290527905,-0.6634376645088196,0.550551176071167,-0.5066989064216614,0,0,0,-1,-1,10924.176335875,unknown,2,2025-04-30T11:41:15.341+03:00,2025-04-28T22:17:59.397+03:00,6793,0.81875,0,0,5699.223,11,14,2025-04-30T11:38:30.206+03:00,767695332.2086744,0,-14.62,100.9719,1,0.85,2025-04-30T11:34:04.903+03:00,97,1.616666666666667,2025-04-22T14:20:19.516+03:00,0.02197104130929222,0
2025-04-30T11:42:13.729+03:00,1746002532.057295,40.95224677673531,29.14029760423168,76.45299,-1,-1,-1,-1,30,23.66668615034241,-9999,10940.135481375,-0.6568756103515625,0.5526885986328125,-0.506988525390625,10940.130444375,-0.789190555958405,-0.918479155862942,-0.5829922389053124,0.006762098055332899,-0.004030120093375444,0.001321248477324843,0.005256175994873047,0.003369748592376709,-0.004577517509460449,XArbitraryZVertical,0.4010311380905751,0.2929063417351734,0.2124672801979457,-0.8415685706532462,-0.6634135246276855,0.5505243539810181,-0.5067598223686218,0,0,0,-1,-1,10924.176335875,unknown,2,2025-04-30T11:41:15.341+03:00,2025-04-28T22:17:59.397+03:00,6793,0.81875,0,0,5699.223,11,14,2025-04-30T11:38:30.206+03:00,767695332.2086744,0,-14.62,100.9719,1,0.85,2025-04-30T11:34:04.903+03:00,97,1.616666666666667,2025-04-22T14:20:19.516+03:00,0.02197104130929222,0
2025-04-30T11:42:13.739+03:00,1746002532.057295,40.95224677673531,29.14029760423168,76.45299,-1,-1,-1,-1,30,23.66668615034241,-9999,10940.145557375,-0.655670166015625,0.54962158203125,-0.505126953125,10940.140519375,-0.7891275593523756,-0.9184790309271923,-0.582992331520041,0.002287454903125763,-0.00734389154240489,-0.0005440295208245516,0.005133986473083496,0.003812134265899658,-0.002120733261108398,XArbitraryZVertical,0.4010219501506649,0.2929188960308762,0.2124407680071258,-0.8415752346154644,-0.663413405418396,0.5505244731903076,-0.5067598223686218,0,0,0,-1,-1,10924.176335875,unknown,2,2025-04-30T11:41:15.341+03:00,2025-04-28T22:17:59.397+03:00,6793,0.81875,0,0,5699.223,11,14,2025-04-30T11:38:30.206+03:00,767695332.2086744,0,-14.62,100.9719,1,0.85,2025-04-30T11:34:04.903+03:00,97,1.616666666666667,2025-04-22T14:20:19.516+03:00,0.02197104130929222,0
2025-04-30T11:42:13.749+03:00,1746002532.057295,40.95224677673531,29.14029760423168,76.45299,-1,-1,-1,-1,30,23.66668615034241,-9999,10940.155633375,-0.660369873046875,0.553985595703125,-0.5064544677734375,10940.150595375,-0.7890845362248289,-0.9185075100303298,-0.5830044298012164,0.004484097007662058,-0.00280020572245121,-0.0008752934518270195,0.007737159729003906,-0.0002415180206298828,0.0005114078521728516,XArbitraryZVertical,0.40102315518438,0.2929368024906688,0.212413990357169,-0.8415752238778422,-0.6634225845336914,0.5505345463752747,-0.5067369341850281,0,0,0,-1,-1,10924.176335875,unknown,2,2025-04-30T11:41:15.341+03:00,2025-04-28T22:17:59.397+03:00,6793,0.81875,0,0,5699.223,11,14,2025-04-30T11:38:30.206+03:00,767695332.2086744,0,-14.62,100.9719,1,0.85,2025-04-30T11:34:04.903+03:00,97,1.616666666666667,2025-04-22T14:20:19.516+03:00,0.02197104130929222,0
2025-04-30T11:42:13.759+03:00,1746002532.057295,40.95224677673531,29.14029760423168,76.45299,-1,-1,-1,-1,30,23.66668615034241,-9999,10940.165708375,-0.6626434326171875,0.5506439208984375,-0.5065460205078125,10940.160671375,-0.7890216770243929,-0.9184919730235698,-0.5829866062195439,0.008051401004195213,-0.001878486014902592,-0.0005945962620899081,0.005448222160339355,0.001192450523376465,0.001443088054656982,XArbitraryZVertical,0.4010056720056923,0.2929468571713481,0.2123950301644749,-0.8415848375049059,-0.6634224653244019,0.5505196452140808,-0.5067532062530518,0,0,0,-1,-1,10924.176335875,unknown,2,2025-04-30T11:41:15.341+03:00,2025-04-28T22:17:59.397+03:00,6793,0.81875,0,0,5699.223,11,14,2025-04-30T11:38:30.206+03:00,767695332.2086744,0,-14.62,100.9719,1,0.85,2025-04-30T11:34:04.903+03:00,97,1.616666666666667,2025-04-22T14:20:19.516+03:00,0.02197104130929222,0
2025-04-30T11:42:13.769+03:00,1746002532.057295,40.95224677673531,29.14029760423168,76.45299,-1,-1,-1,-1,30,23.66668615034241,-9999,10940.175784375,-0.6626434326171875,0.5476531982421875,-0.505859375,10940.170746375,-0.7889363512144777,-0.9184385124300696,-0.5829502328306939,0.007449193857610226,0.001571839209645987,0.00254896585829556,0.001500308513641357,0.003267467021942139,-0.0007370114326477051,XArbitraryZVertical,0.4009739732198278,0.292949608203589,0.2123787722681162,-0.8416030829300252,-0.6634113192558289,0.5504893064498901,-0.5068007707595825,0,0,0,-1,-1,10924.176335875,unknown,2,2025-04-30T11:41:15.341+03:00,2025-04-28T22:17:59.397+03:00,6793,0.81875,0,0,5699.223,11,14,2025-04-30T11:38:30.206+03:00,767695332.2086744,0,-14.62,100.9719,1,0.85,2025-04-30T11:34:04.903+03:00,97,1.616666666666667,2025-04-22T14:20:19.516+03:00,0.02197104130929222,0
2025-04-30T11:42:13.792+03:00,1746002532.057295,40.95224677673531,29.14029760423168,76.45299,-1,-1,-1,-1,30,23.66668615034241,-9999,10940.185860375,-0.6619873046875,0.551300048828125,-0.5052947998046875,10940.180822375,-0.7888592450906915,-0.918382350275909,-0.5829101951514122,0.008763463236391544,0.001432023011147976,-0.0006111411494202912,0.0006348490715026855,-0.002634763717651367,0.001251459121704102,XArbitraryZVertical,0.4009418194350712,0.292950394109797,0.212367415606295,-0.8416210104752692,-0.6634003520011902,0.5504558682441711,-0.5068514347076416,0,0,0,-1,-1,10924.176335875,unknown,2,2025-04-30T11:41:15.341+03:00,2025-04-28T22:17:59.397+03:00,6793,0.81875,0,0,5699.223,11,14,2025-04-30T11:38:30.206+03:00,767695332.2086744,0,-14.62,100.9719,1,0.85,2025-04-30T11:34:04.903+03:00,97,1.616666666666667,2025-04-22T14:20:19.516+03:00,0.02197104130929222,0
2025-04-30T11:42:13.794+03:00,1746002532.057295,40.95224677673531,29.14029760423168,76.45299,-1,-1,-1,-1,30,23.66668615034241,-9999,10940.195935375,-0.6603851318359375,0.548980712890625,-0.506011962890625,10940.190898375,-0.7887546920030837,-0.9183051817627313,-0.5828568753353056,0.01174200884997845,0.0009117079898715019,0.00115643220487982,0.001168429851531982,-0.0006371736526489258,0.001427292823791504,XArbitraryZVertical,0.4008984881814494,0.292950808058178,0.2123519723343639,-0.8416453919295334,-0.6633845567703247,0.5504113435745239,-0.5069204568862915,0,0,0,-1,-1,10924.176335875,unknown,2,2025-04-30T11:41:15.341+03:00,2025-04-28T22:17:59.397+03:00,6793,0.81875,0,0,5699.223,11,14,2025-04-30T11:38:30.206+03:00,767695332.2086744,0,-14.62,100.9719,1,0.85,2025-04-30T11:34:04.903+03:00,97,1.616666666666667,2025-04-22T14:20:19.516+03:00,0.02197104130929222,0
2025-04-30T11:42:13.800+03:00,1746002532.057295,40.95224677673531,29.14029760423168,76.45299,-1,-1,-1,-1,30,23.66668615034241,-9999,10940.206011375,-0.6593170166015625,0.5485992431640625,-0.504669189453125,10940.200973375,-0.7886574344208509,-0.9182511099279228,-0.5828093164495589,0.006699047982692719,0.000410235021263361,0.002417705021798611,0.002260327339172363,0.001019954681396484,0.001616358757019043,XArbitraryZVertical,0.4008608773737619,0.292958172634269,0.2123335305043196,-0.8416652555403273,-0.6633778214454651,0.5503716468811035,-0.5069721341133118,0,0,0,-1,-1,10924.176335875,unknown,2,2025-04-30T11:41:15.341+03:00,2025-04-28T22:17:59.397+03:00,6793,0.81875,0,0,5699.223,11,14,2025-04-30T11:38:30.206+03:00,767695332.2086744,0,-14.62,100.9719,1,0.85,2025-04-30T11:34:04.903+03:00,97,1.616666666666667,2025-04-22T14:20:19.516+03:00,0.02197104130929222,0
2025-04-30T11:42:13.810+03:00,1746002532.057295,40.95224677673531,29.14029760423168,76.45299,-1,-1,-1,-1,30,23.66668615034241,-9999,10940.216087375,-0.659271240234375,0.5494232177734375,-0.501068115234375,10940.211049375,-0.7885841326874277,-0.9182128578416386,-0.5828099463870623,0.005277319345623255,-0.002592878416180611,0.003433634527027607,0.004392147064208984,-0.00270378589630127,0.001443207263946533,XArbitraryZVertical,0.4008463274412497,0.292956622234311,0.2123101894754463,-0.841678582431485,-0.6633581519126892,0.5503721833229065,-0.506997287273407,0,0,0,-1,-1,10924.176335875,unknown,2,2025-04-30T11:41:15.341+03:00,2025-04-28T22:17:59.397+03:00,6793,0.81875,0,0,5699.223,11,14,2025-04-30T11:38:30.206+03:00,767695332.2086744,0,-14.62,100.9719,1,0.85,2025-04-30T11:34:04.903+03:00,97,1.616666666666667,2025-04-22T14:20:19.516+03:00,0.02197104130929222,0
2025-04-30T11:42:13.820+03:00,1746002532.057295,40.95224677673531,29.14029760423168,76.45299,-1,-1,-1,-1,30,23.66668615034241,-9999,10940.226162375,-0.66064453125,0.54736328125,-0.500244140625,10940.221124375,-0.7885643832373501,-0.9182232912994865,-0.5828326203448787,-0.001713212346658111,-0.003550285473465919,0.00150231015868485,0.004082441329956055,-0.001349389553070068,0.004068434238433838,XArbitraryZVertical,0.4008529569025326,0.2929599034635143,0.2122942292556714,-0.8416783490581888,-0.6633535623550415,0.5503911375999451,-0.5069828033447266,0,0,0,-1,-1,10924.176335875,unknown,2,2025-04-30T11:41:15.341+03:00,2025-04-28T22:17:59.397+03:00,6793,0.81875,0,0,5699.223,11,14,2025-04-30T11:38:30.206+03:00,767695332.2086744,0,-14.62,100.9719,1,0.85,2025-04-30T11:34:04.903+03:00,97,1.616666666666667,2025-04-22T14:20:19.516+03:00,0.02197104130929222,0
2025-04-30T11:42:13.830+03:00,1746002532.057295,40.95224677673531,29.14029760423168,76.45299,-1,-1,-1,-1,30,23.66668615034241,-9999,10940.236238375,-0.66265869140625,0.5511932373046875,-0.5028228759765625,10940.231200375,-0.7885630703210432,-0.9182406850361116,-0.5828399632405403,0.001288103638216853,-0.003918134141713381,0.0007290280773304403,0.004393160343170166,-0.002332031726837158,0.007624983787536621,XArbitraryZVertical,0.4008573321504175,0.2929658462530437,0.2122883920841341,-0.8416756904726852,-0.6633591651916504,0.5503972172737122,-0.5069687962532043,0,0,0,-1,-1,10924.176335875,unknown,2,2025-04-30T11:41:15.341+03:00,2025-04-28T22:17:59.397+03:00,6793,0.81875,0,0,5699.223,11,14,2025-04-30T11:38:30.206+03:00,767695332.2086744,0,-14.62,100.9719,1,0.85,2025-04-30T11:34:04.903+03:00,97,1.616666666666667,2025-04-22T14:20:19.516+03:00,0.02197104130929222,0
2025-04-30T11:42:13.840+03:00,1746002532.057295,40.95224677673531,29.14029760423168,76.45299,-1,-1,-1,-1,30,23.66668615034241,-9999,10940.246314375,-0.6622314453125,0.551605224609375,-0.5054931640625,10940.241276375,-0.7885183579597844,-0.9182537405338529,-0.5828162856360689,0.01152236573398113,-0.003384969662874937,-0.001357292290776968,0.001922965049743652,-0.0009542107582092285,0.005655884742736816,XArbitraryZVertical,0.4008433453685109,0.2929856024071018,0.2122727758638247,-0.8416794492507963,-0.6633761525154114,0.5503774881362915,-0.506968080997467,0,0,0,-1,-1,10924.176335875,unknown,2,2025-04-30T11:41:15.341+03:00,2025-04-28T22:17:59.397+03:00,6793,0.81875,0,0,5699.223,11,14,2025-04-30T11:38:30.206+03:00,767695332.2086744,0,-14.62,100.9719,1,0.85,2025-04-30T11:34:04.903+03:00,97,1.616666666666667,2025-04-22T14:20:19.516+03:00,0.02197104130929222,0
2025-04-30T11:42:13.850+03:00,1746002532.057295,40.95224677673531,29.14029760423168,76.45299,-1,-1,-1,-1,30,23.66668615034241,-9999,10940.256389375,-0.6634979248046875,0.5515899658203125,-0.50738525390625,10940.251351375,-0.7884282471908314,-0.9182245582569417,-0.58273401211447,0.01256852131336927,-0.001479144673794508,-0.00419312622398138,0.001730501651763916,0.001494884490966797,0.002544164657592773,XArbitraryZVertical,0.4007964446761683,0.2930097834602686,0.2122608935602881,-0.8416963656389707,-0.6633973717689514,0.5503087639808655,-0.5070149302482605,0,0,0,-1,-1,10924.176335875,unknown,2,2025-04-30T11:41:15.341+03:00,2025-04-28T22:17:59.397+03:00,6793,0.81875,0,0,5699.223,11,14,2025-04-30T11:38:30.206+03:00,767695332.2086744,0,-14.62,100.9719,1,0.85,2025-04-30T11:34:04.903+03:00,97,1.616666666666667,2025-04-22T14:20:19.516+03:00,0.02197104130929222,0
2025-04-30T11:42:13.860+03:00,1746002532.057295,40.95224677673531,29.14029760423168,76.45299,-1,-1,-1,-1,30,23.66668615034241,-9999,10940.266465375,-0.6632080078125,0.55023193359375,-0.5097808837890625,10940.261427375,-0.7883022073605749,-0.918186869620098,-0.5826060396969118,0.0196519959717989,-0.005348984152078629,-0.002044487744569778,0.0006382465362548828,0.0004572868347167969,0.001650571823120117,XArbitraryZVertical,0.4007263838197198,0.2930477973148257,0.2122468033843262,-0.8417200263519832,-0.6634342074394226,0.550201952457428,-0.5070827007293701,0,0,0,-1,-1,10924.176335875,unknown,2,2025-04-30T11:41:15.341+03:00,2025-04-28T22:17:59.397+03:00,6793,0.81875,0,0,5699.223,11,14,2025-04-30T11:38:30.206+03:00,767695332.2086744,0,-14.62,100.9719,1,0.85,2025-04-30T11:34:04.903+03:00,97,1.616666666666667,2025-04-22T14:20:19.516+03:00,0.02197104130929222,0
2025-04-30T11:42:13.870+03:00,1746002532.057295,40.95224677673531,29.14029760423168,76.45299,-1,-1,-1,-1,30,23.66668615034241,-9999,10940.276541375,-0.6602630615234375,0.5489501953125,-0.5099029541015625,10940.271503375,-0.7881455723378833,-0.918173344875188,-0.5824735302470891,0.0157776977866888,-0.009074147790670395,-0.002034866949543357,3.314018249511719e-05,0.001010417938232422,-0.001454651355743408,XArbitraryZVertical,0.400652727327481,0.2931031112225262,0.2122160975839084,-0.8417435159523668,-0.6634852290153503,0.5500912666320801,-0.5071359276771545,0,0,0,-1,-1,10924.176335875,unknown,2,2025-04-30T11:41:15.341+03:00,2025-04-28T22:17:59.397+03:00,6793,0.81875,0,0,5699.223,11,14,2025-04-30T11:38:30.206+03:00,767695332.2086744,0,-14.62,100.9719,1,0.85,2025-04-30T11:34:04.903+03:00,97,1.616666666666667,2025-04-22T14:20:19.516+03:00,0.02197104130929222,0
2025-04-30T11:42:13.880+03:00,1746002532.057295,40.95224677673531,29.14029760423168,76.45299,-1,-1,-1,-1,30,23.66668615034241,-9999,10940.286616375,-0.6604766845703125,0.546661376953125,-0.501922607421875,10940.281578375,-0.7880172749014479,-0.9181833241908136,-0.5823963275666965,0.008623647503554821,-0.003850357141345739,-0.002826624782755971,0.001017987728118896,-0.001015543937683105,-0.003403961658477783,XArbitraryZVertical,0.4006062773378701,0.2931502682275152,0.212179039216053,-0.8417585077509792,-0.6635239720344543,0.5500267744064331,-0.5071550607681274,0,0,0,-1,-1,10924.176335875,unknown,2,2025-04-30T11:41:15.341+03:00,2025-04-28T22:17:59.397+03:00,6793,0.81875,0,0,5699.223,11,14,2025-04-30T11:38:30.206+03:00,767695332.2086744,0,-14.62,100.9719,1,0.85,2025-04-30T11:34:04.903+03:00,97,1.616666666666667,2025-04-22T14:20:19.516+03:00,0.02197104130929222,0
2025-04-30T11:42:13.890+03:00,1746002532.057295,40.95224677673531,29.14029760423168,76.45299,-1,-1,-1,-1,30,23.66668615034241,-9999,10940.296692375,-0.6627960205078125,0.5387420654296875,-0.4923248291015625,10940.291654375,-0.7880159649185756,-0.9182164915103084,-0.582366549738346,-0.005081977695226669,-0.00155198248103261,-0.005343012511730194,0.003535032272338867,-0.001494228839874268,-0.0003641843795776367,XArbitraryZVertical,0.4005984642940819,0.2931711616734361,0.2121791742217189,-0.8417550501069838,-0.6635538935661316,0.5500019192695618,-0.5071430802345276,0,0,0,-1,-1,10924.176335875,unknown,2,2025-04-30T11:41:15.341+03:00,2025-04-28T22:17:59.397+03:00,6793,0.81875,0,0,5699.223,11,14,2025-04-30T11:38:30.206+03:00,767695332.2086744,0,-14.62,100.9719,1,0.85,2025-04-30T11:34:04.903+03:00,97,1.616666666666667,2025-04-22T14:20:19.516+03:00,0.02197104130929222,0
2025-04-30T11:42:13.900+03:00,1746002532.057295,40.95224677673531,29.14029760423168,76.45299,-1,-1,-1,-1,30,23.66668615034241,-9999,10940.306767375,-0.6590728759765625,0.5419769287109375,-0.4960479736328125,10940.301730375,-0.7881384244753095,-0.9183153299801844,-0.5823874379524313,-0.008015981875360012,-0.004644444677978754,-0.004078810103237629,0.001455068588256836,-0.007416784763336182,0.01085472106933594,XArbitraryZVertical,0.4006346650376878,0.2931835619111355,0.2122057927205308,-0.8417268086554294,-0.6635949015617371,0.550019383430481,-0.5070705413818359,0,0,0,-1,-1,10924.176335875,unknown,2,2025-04-30T11:41:15.341+03:00,2025-04-28T22:17:59.397+03:00,6793,0.81875,0,0,5699.223,11,14,2025-04-30T11:38:30.206+03:00,767695332.2086744,0,-14.62,100.9719,1,0.85,2025-04-30T11:34:04.903+03:00,97,1.616666666666667,2025-04-22T14:20:19.516+03:00,0.02197104130929222,0
2025-04-30T11:42:13.910+03:00,1746002532.057295,40.95224677673531,29.14029760423168,76.45299,-1,-1,-1,-1,30,23.66668615034241,-9999,10940.316843375,-0.6607208251953125,0.545562744140625,-0.50274658203125,10940.311805375,-0.7883009678272513,-0.9184287319616934,-0.5824357040829771,-0.01248816214501858,0.001732561038807034,-0.006605450995266438,0.0024833083152771,-0.01166850328445435,0.01408982276916504,XArbitraryZVertical,0.4006884763774616,0.2931879335260101,0.2122396380856799,-0.841691146891641,-0.6636313199996948,0.5500596761703491,-0.5069791674613953,0,0,0,-1,-1,10924.176335875,unknown,2,2025-04-30T11:41:15.341+03:00,2025-04-28T22:17:59.397+03:00,6793,0.81875,0,0,5699.223,11,14,2025-04-30T11:38:30.206+03:00,767695332.2086744,0,-14.62,100.9719,1,0.85,2025-04-30T11:34:04.903+03:00,97,1.616666666666667,2025-04-22T14:20:19.516+03:00,0.02197104130929222,0
2025-04-30T11:42:13.921+03:00,1746002532.057295,40.95224677673531,29.14029760423168,76.45299,-1,-1,-1,-1,30,23.66668615034241,-9999,10940.326919375,-0.6613922119140625,0.545135498046875,-0.5083465576171875,10940.321881375,-0.7884295734279732,-0.9185367582393925,-0.5824571220292541,-0.008251605555415154,-0.008072398602962494,-0.004268260672688484,0.004359722137451172,-0.005170941352844238,0.007342875003814697,XArbitraryZVertical,0.4007268032092832,0.293202828566838,0.212266843933781,-0.8416607572759974,-0.6636766791343689,0.5500775575637817,-0.5069002509117126,0,0,0,-1,-1,10924.176335875,unknown,2,2025-04-30T11:41:15.341+03:00,2025-04-28T22:17:59.397+03:00,6793,0.81875,0,0,5699.223,11,14,2025-04-30T11:38:30.206+03:00,767695332.2086744,0,-14.62,100.9719,1,0.85,2025-04-30T11:34:04.903+03:00,97,1.616666666666667,2025-04-22T14:20:19.516+03:00,0.02197104130929222,0
2025-04-30T11:42:13.930+03:00,1746002532.057295,40.95224677673531,29.14029760423168,76.45299,-1,-1,-1,-1,30,23.66668615034241,-9999,10940.336994375,-0.655731201171875,0.55224609375,-0.5059356689453125,10940.331957375,-0.7884833458059065,-0.9186988305658368,-0.5824784757320145,-0.004882040899246931,-0.01334932073950768,0.001222977880388498,0.0006025433540344238,-0.005112528800964355,0.001017749309539795,XArbitraryZVertical,0.4007598588991074,0.2932554750074287,0.2122517452490122,-0.8416304198204417,-0.6637493968009949,0.5500953793525696,-0.50678551197052,0,0,0,-1,-1,10924.176335875,unknown,2,2025-04-30T11:41:15.341+03:00,2025-04-28T22:17:59.397+03:00,6793,0.81875,0,0,5699.223,11,14,2025-04-30T11:38:30.206+03:00,767695332.2086744,0,-14.62,100.9719,1,0.85,2025-04-30T11:34:04.903+03:00,97,1.616666666666667,2025-04-22T14:20:19.516+03:00,0.02197104130929222,0
2025-04-30T11:42:13.941+03:00,1746002532.057295,40.95224677673531,29.14029760423168,76.45299,-1,-1,-1,-1,30,23.66668615034241,-9999,10940.347070375,-0.6620635986328125,0.5481719970703125,-0.5040740966796875,10940.342032375,-0.7885404138013374,-0.918917787356994,-0.5825123903463825,-0.008156131021678448,-0.02159606479108334,-0.002964576473459601,0.006207108497619629,-0.001600682735443115,-0.001717627048492432,XArbitraryZVertical,0.400803994733717,0.2933286105316201,0.212223586838367,-0.8415911944979383,-0.6638456583023071,0.5501237511634827,-0.5066289901733398,0,0,0,-1,-1,10924.176335875,unknown,2,2025-04-30T11:41:15.341+03:00,2025-04-28T22:17:59.397+03:00,6793,0.81875,0,0,5699.223,11,14,2025-04-30T11:38:30.206+03:00,767695332.2086744,0,-14.62,100.9719,1,0.85,2025-04-30T11:34:04.903+03:00,97,1.616666666666667,2025-04-22T14:20:19.516+03:00,0.02197104130929222,0
