loggingTime(txt),locationTimestamp_since1970(s),locationLatitude(WGS84),locationLongitude(WGS84),locationAltitude(m),locationSpeed(m/s),locationSpeedAccuracy(m/s),locationCourse(°),locationCourseAccuracy(°),locationVerticalAccuracy(m),locationHorizontalAccuracy(m),locationFloor(Z),accelerometerTimestamp_sinceReboot(s),accelerometerAccelerationX(G),accelerometerAccelerationY(G),accelerometerAccelerationZ(G),motionTimestamp_sinceReboot(s),motionYaw(rad),motionRoll(rad),motionPitch(rad),motionRotationRateX(rad/s),motionRotationRateY(rad/s),motionRotationRateZ(rad/s),motionUserAccelerationX(G),motionUserAccelerationY(G),motionUserAccelerationZ(G),motionAttitudeReferenceFrame(txt),motionQuaternionX(R),motionQuaternionY(R),motionQuaternionZ(R),motionQuaternionW(R),motionGravityX(G),motionGravityY(G),motionGravityZ(G),motionMagneticFieldX(µT),motionMagneticFieldY(µT),motionMagneticFieldZ(µT),motionHeading(°),motionMagneticFieldCalibrationAccuracy(Z),activityTimestamp_sinceReboot(s),activity(txt),activityActivityConfidence(Z),activityActivityStartDate(txt),pedometerStartDate(txt),pedometerNumberofSteps(N),pedometerAverageActivePace(s/m),pedometerCurrentPace(s/m),pedometerCurrentCadence(steps/s),pedometerDistance(m),pedometerFloorAscended(N),pedometerFloorDescended(N),pedometerEndDate(txt),altimeterTimestamp_sinceReboot(s),altimeterReset(bool),altimeterRelativeAltitude(m),altimeterPressure(kPa),batteryState(N),batteryLevel(R),heartRateBPMTimestamp(txt),heartRateBPM(N),heartRateBPS(R),heartRateVariabilityTimestamp(txt),heartRateVariability(ms),label
2025-04-21T11:31:32.204+03:00,1745224288.775065,40.95361853999372,29.1409886722274,92.00693,-1,-1,-1,-1,30,37.99608032153802,-9999,13954.46005125,-0.7613372802734375,0.5656585693359375,-0.3165740966796875,13954.44997625,-2.356612391401648,-1.180317513123827,-0.5997566246802747,0.02230892330408096,0.06219589710235596,-0.01844418607652187,-0.006468772888183594,0.02689749002456665,0.002463757991790771,XArbitraryZVertical,0.5851077809056903,-0.02341984015655793,0.6705367775863291,-0.4555005756632737,-0.7633370757102966,0.5644415616989136,-0.3142007887363434,0,0,0,-1,-1,13940.65235591667,unknown,2,2025-04-21T11:31:18.370+03:00,2025-04-20T21:57:49.637+03:00,1587,1.127823,0,0,1187.381,1,4,2025-04-21T11:21:17.391+03:00,766917091.3589115,0,-45.7,100.2813,1,0.65,2025-04-21T11:22:28.578+03:00,87,1.45,2025-04-21T09:28:58.093+03:00,0.01174319131481236,0
2025-04-21T11:31:32.206+03:00,1745224288.775065,40.95361853999372,29.1409886722274,92.00693,-1,-1,-1,-1,30,37.99608032153802,-9999,13954.47012625,-0.7445831298828125,0.5518341064453125,-0.3145599365234375,13954.46005125,-2.356462714221883,-1.179710566825715,-0.5996069014455593,0.009819762781262398,0.04244882240891457,0.01851036958396435,-0.01250189542770386,0.01188433170318604,-0.003388404846191406,XArbitraryZVertical,0.584894647234424,-0.02345466904303572,0.6707124389604145,-0.4555139267404192,-0.7632243633270264,0.5643180012702942,-0.3146962523460388,0,0,0,-1,-1,13940.65235591667,unknown,2,2025-04-21T11:31:18.370+03:00,2025-04-20T21:57:49.637+03:00,1587,1.127823,0,0,1187.381,1,4,2025-04-21T11:21:17.391+03:00,766917091.3589115,0,-45.7,100.2813,1,0.65,2025-04-21T11:22:28.578+03:00,87,1.45,2025-04-21T09:28:58.093+03:00,0.01174319131481236,0
2025-04-21T11:31:32.207+03:00,1745224288.775065,40.95361853999372,29.1409886722274,92.00693,-1,-1,-1,-1,30,37.99608032153802,-9999,13954.48020125,-0.750335693359375,0.5350189208984375,-0.31512451171875,13954.47012625,-2.356374969036162,-1.179414414560786,-0.5998951117868677,-0.01932893507182598,0.01277761347591877,0.02662655152380466,0.01429301500320435,-0.006542026996612549,-0.000996708869934082,XArbitraryZVertical,0.5848182715276902,-0.02361125695939934,0.670717025029696,-0.45559704972049,-0.7629806995391846,0.5645558834075928,-0.3148601949214935,0,0,0,-1,-1,13940.65235591667,unknown,2,2025-04-21T11:31:18.370+03:00,2025-04-20T21:57:49.637+03:00,1587,1.127823,0,0,1187.381,1,4,2025-04-21T11:21:17.391+03:00,766917091.3589115,0,-45.7,100.2813,1,0.65,2025-04-21T11:22:28.578+03:00,87,1.45,2025-04-21T09:28:58.093+03:00,0.01174319131481236,0
2025-04-21T11:31:32.214+03:00,1745224288.775065,40.95361853999372,29.1409886722274,92.00693,-1,-1,-1,-1,30,37.99608032153802,-9999,13954.49027625,-0.7689971923828125,0.5712738037109375,-0.3195953369140625,13954.48020125,-2.3565423263158,-1.179272889365149,-0.6001423239624327,-0.01883039064705372,0.03034941665828228,0.01367133855819702,0.01779681444168091,-0.02444630861282349,0.0004771053791046143,XArbitraryZVertical,0.5847876173190862,-0.02379090886605267,0.6707432893641432,-0.455588261439416,-0.7628070116043091,0.5647599101066589,-0.314914882183075,0,0,0,-1,-1,13940.65235591667,unknown,2,2025-04-21T11:31:18.370+03:00,2025-04-20T21:57:49.637+03:00,1587,1.127823,0,0,1187.381,1,4,2025-04-21T11:21:17.391+03:00,766917091.3589115,0,-45.7,100.2813,1,0.65,2025-04-21T11:22:28.578+03:00,87,1.45,2025-04-21T09:28:58.093+03:00,0.01174319131481236,0
2025-04-21T11:31:32.223+03:00,1745224288.775065,40.95361853999372,29.1409886722274,92.00693,-1,-1,-1,-1,30,37.99608032153802,-9999,13954.50035125,-0.7557830810546875,0.565643310546875,-0.320098876953125,13954.49027625,-2.356611896479818,-1.179065501176341,-0.6003694296132299,-0.009947883896529675,0.0197980385273695,0.02442042343318462,0.001545369625091553,-0.01570725440979004,-0.001733005046844482,XArbitraryZVertical,0.5847344605422924,-0.02394890953866845,0.6707709917486177,-0.4556075506266125,-0.7626231908798218,0.5649473667144775,-0.3150241076946259,0,0,0,-1,-1,13940.65235591667,unknown,2,2025-04-21T11:31:18.370+03:00,2025-04-20T21:57:49.637+03:00,1587,1.127823,0,0,1187.381,1,4,2025-04-21T11:21:17.391+03:00,766917091.3589115,0,-45.7,100.2813,1,0.65,2025-04-21T11:22:28.578+03:00,87,1.45,2025-04-21T09:28:58.093+03:00,0.01174319131481236,0
2025-04-21T11:31:32.236+03:00,1745224288.775065,40.95361853999372,29.1409886722274,92.00693,-1,-1,-1,-1,30,37.99608032153802,-9999,13954.51042725,-0.7497100830078125,0.5374908447265625,-0.3148956298828125,13954.50035125,-2.356606928982361,-1.17897139570344,-0.6008514066514207,-0.03960670903325081,-0.00481116771697998,0.07054956257343292,-0.003161072731018066,0.01097947359085083,-0.006251394748687744,XArbitraryZVertical,0.5847395319885154,-0.02416085616310079,0.67069366691896,-0.4557036674477607,-0.7623417973518372,0.5653449892997742,-0.3149918615818024,0,0,0,-1,-1,13940.65235591667,unknown,2,2025-04-21T11:31:18.370+03:00,2025-04-20T21:57:49.637+03:00,1587,1.127823,0,0,1187.381,1,4,2025-04-21T11:21:17.391+03:00,766917091.3589115,0,-45.7,100.2813,1,0.65,2025-04-21T11:22:28.578+03:00,87,1.45,2025-04-21T09:28:58.093+03:00,0.01174319131481236,0
2025-04-21T11:31:32.243+03:00,1745224288.775065,40.95361853999372,29.1409886722274,92.00693,-1,-1,-1,-1,30,37.99608032153802,-9999,13954.52050225,-0.7589874267578125,0.5561676025390625,-0.313568115234375,13954.51042725,-2.356850188258973,-1.179071669081112,-0.6013157093746913,-0.02526485361158848,0.003479985054582357,0.01799231767654419,0.01275640726089478,-0.01401591300964355,-0.002323418855667114,XArbitraryZVertical,0.5848053922085195,-0.02439405755498642,0.6706198339702281,-0.4557153675482799,-0.7621306777000427,0.5657278895378113,-0.3148151636123657,0,0,0,-1,-1,13940.65235591667,unknown,2,2025-04-21T11:31:18.370+03:00,2025-04-20T21:57:49.637+03:00,1587,1.127823,0,0,1187.381,1,4,2025-04-21T11:21:17.391+03:00,766917091.3589115,0,-45.7,100.2813,1,0.65,2025-04-21T11:22:28.578+03:00,87,1.45,2025-04-21T09:28:58.093+03:00,0.01174319131481236,0
2025-04-21T11:31:32.256+03:00,1745224288.775065,40.95361853999372,29.1409886722274,92.00693,-1,-1,-1,-1,30,37.99608032153802,-9999,13954.53057725,-0.75,0.59442138671875,-0.3031463623046875,13954.52050225,-2.356942062428741,-1.179110550443299,-0.6014768995048699,-0.001573640154674649,0.005563642363995314,0.005782256368547678,0.006016194820404053,-0.03151333332061768,0.0003129243850708008,XArbitraryZVertical,0.5848295058269198,-0.02447625495369977,0.6705947124449037,-0.4557170040919692,-0.7620586752891541,0.5658608078956604,-0.3147507309913635,0,0,0,-1,-1,13940.65235591667,unknown,2,2025-04-21T11:31:18.370+03:00,2025-04-20T21:57:49.637+03:00,1587,1.127823,0,0,1187.381,1,4,2025-04-21T11:21:17.391+03:00,766917091.3589115,0,-45.7,100.2813,1,0.65,2025-04-21T11:22:28.578+03:00,87,1.45,2025-04-21T09:28:58.093+03:00,0.01174319131481236,0
2025-04-21T11:31:32.263+03:00,1745224288.775065,40.95361853999372,29.1409886722274,92.00693,-1,-1,-1,-1,30,37.99608032153802,-9999,13954.54065225,-0.75799560546875,0.5542449951171875,-0.306549072265625,13954.53057725,-2.356981503324249,-1.179090445511227,-0.6016079335755206,-0.01096820738166571,-0.0001456420868635178,0.006707571912556887,0.008092880249023438,0.02189123630523682,0.005762577056884766,XArbitraryZVertical,0.5848321862597381,-0.02454453707286383,0.6705814148129087,-0.4557295404333635,-0.7619838714599609,0.5659688115119934,-0.3147377669811249,0,0,0,-1,-1,13940.65235591667,unknown,2,2025-04-21T11:31:18.370+03:00,2025-04-20T21:57:49.637+03:00,1587,1.127823,0,0,1187.381,1,4,2025-04-21T11:21:17.391+03:00,766917091.3589115,0,-45.7,100.2813,1,0.65,2025-04-21T11:22:28.578+03:00,87,1.45,2025-04-21T09:28:58.093+03:00,0.01174319131481236,0
2025-04-21T11:31:32.274+03:00,1745224288.775065,40.95361853999372,29.1409886722274,92.00693,-1,-1,-1,-1,30,37.99608032153802,-9999,13954.55072725,-0.755401611328125,0.556732177734375,-0.3112335205078125,13954.54065225,-2.357093914293879,-1.179160963541378,-0.6017129336620546,-0.01225185114890337,-0.003775264602154493,0.005125121679157019,0.008151650428771973,0.009246706962585449,0.01268994808197021,XArbitraryZVertical,0.5848624007854604,-0.02460318187249215,0.670563745949259,-0.455713502165094,-0.7619510293006897,0.5660554170608521,-0.3146613240242004,0,0,0,-1,-1,13940.65235591667,unknown,2,2025-04-21T11:31:18.370+03:00,2025-04-20T21:57:49.637+03:00,1587,1.127823,0,0,1187.381,1,4,2025-04-21T11:21:17.391+03:00,766917091.3589115,0,-45.7,100.2813,1,0.65,2025-04-21T11:22:28.578+03:00,87,1.45,2025-04-21T09:28:58.093+03:00,0.01174319131481236,0
2025-04-21T11:31:32.283+03:00,1745224288.775065,40.95361853999372,29.1409886722274,92.00693,-1,-1,-1,-1,30,37.99608032153802,-9999,13954.56080225,-0.7570343017578125,0.567138671875,-0.308990478515625,13954.55072725,-2.357186139604844,-1.179212170277833,-0.6017824085590353,-0.009947750717401505,0.000673479400575161,0.006483034230768681,0.004606664180755615,-0.01711678504943848,0.004365652799606323,XArbitraryZVertical,0.5848836844997587,-0.02464615246326382,0.6705548301947551,-0.4556969889213372,-0.7619308233261108,0.5661126375198364,-0.3146072924137115,0,0,0,-1,-1,13940.65235591667,unknown,2,2025-04-21T11:31:18.370+03:00,2025-04-20T21:57:49.637+03:00,1587,1.127823,0,0,1187.381,1,4,2025-04-21T11:21:17.391+03:00,766917091.3589115,0,-45.7,100.2813,1,0.65,2025-04-21T11:22:28.578+03:00,87,1.45,2025-04-21T09:28:58.093+03:00,0.01174319131481236,0
2025-04-21T11:31:32.294+03:00,1745224288.775065,40.95361853999372,29.1409886722274,92.00693,-1,-1,-1,-1,30,37.99608032153802,-9999,13954.57087725,-0.75811767578125,0.5607757568359375,-0.30926513671875,13954.56080225,-2.357267923191921,-1.179256571463043,-0.6018684006688347,-0.014152348972857,-0.001901264768093824,0.01011931430548429,0.006833910942077637,-0.002157747745513916,0.003611296415328979,XArbitraryZVertical,0.5849040725887906,-0.02469422840315156,0.6705418980493028,-0.4556871288516595,-0.7618997097015381,0.5661835670471191,-0.3145548403263092,0,0,0,-1,-1,13940.65235591667,unknown,2,2025-04-21T11:31:18.370+03:00,2025-04-20T21:57:49.637+03:00,1587,1.127823,0,0,1187.381,1,4,2025-04-21T11:21:17.391+03:00,766917091.3589115,0,-45.7,100.2813,1,0.65,2025-04-21T11:22:28.578+03:00,87,1.45,2025-04-21T09:28:58.093+03:00,0.01174319131481236,0
2025-04-21T11:31:32.304+03:00,1745224288.775065,40.95361853999372,29.1409886722274,92.00693,-1,-1,-1,-1,30,37.99608032153802,-9999,13954.58095225,-0.759185791015625,0.5572357177734375,-0.3111724853515625,13954.57087725,-2.357381480254121,-1.179347649917024,-0.6019979492606985,-0.01607228815555573,-0.005900600459426641,0.01173555292189121,0.003392040729522705,-0.001501560211181641,0.005299240350723267,XArbitraryZVertical,0.5849429834692838,-0.02475827677253336,0.6705132527440787,-0.4556758809771506,-0.7618605494499207,0.5662903189659119,-0.3144574761390686,0,0,0,-1,-1,13940.65235591667,unknown,2,2025-04-21T11:31:18.370+03:00,2025-04-20T21:57:49.637+03:00,1587,1.127823,0,0,1187.381,1,4,2025-04-21T11:21:17.391+03:00,766917091.3589115,0,-45.7,100.2813,1,0.65,2025-04-21T11:22:28.578+03:00,87,1.45,2025-04-21T09:28:58.093+03:00,0.01174319131481236,0
2025-04-21T11:31:32.314+03:00,1745224288.775065,40.95361853999372,29.1409886722274,92.00693,-1,-1,-1,-1,30,37.99608032153802,-9999,13954.59102825,-0.76068115234375,0.5641326904296875,-0.31390380859375,13954.58095225,-2.357459421330588,-1.17942519366297,-0.6021486680451485,-0.00936485081911087,-0.004804443102329969,0.008057195693254471,0.003444373607635498,-0.009011030197143555,0.004566729068756104,XArbitraryZVertical,0.5849793652271469,-0.02482338518638023,0.6704759832072523,-0.4556806661839004,-0.7618061304092407,0.5664145350456238,-0.3143658936023712,0,0,0,-1,-1,13940.65235591667,unknown,2,2025-04-21T11:31:18.370+03:00,2025-04-20T21:57:49.637+03:00,1587,1.127823,0,0,1187.381,1,4,2025-04-21T11:21:17.391+03:00,766917091.3589115,0,-45.7,100.2813,1,0.65,2025-04-21T11:22:28.578+03:00,87,1.45,2025-04-21T09:28:58.093+03:00,0.01174319131481236,0
2025-04-21T11:31:32.324+03:00,1745224288.775065,40.95361853999372,29.1409886722274,92.00693,-1,-1,-1,-1,30,37.99608032153802,-9999,13954.60110325,-0.7585906982421875,0.569305419921875,-0.3162841796875,13954.59102825,-2.357453187520885,-1.17947702767118,-0.6022335193041299,0.0003205998218618333,-0.006830509752035141,0.005887418054044247,0.001310527324676514,-0.006608963012695312,0.001853883266448975,XArbitraryZVertical,0.5850032149186547,-0.02484353484862304,0.6704411495960493,-0.455700239568239,-0.7617780566215515,0.5664844512939453,-0.3143080770969391,0,0,0,-1,-1,13940.65235591667,unknown,2,2025-04-21T11:31:18.370+03:00,2025-04-20T21:57:49.637+03:00,1587,1.127823,0,0,1187.381,1,4,2025-04-21T11:21:17.391+03:00,766917091.3589115,0,-45.7,100.2813,1,0.65,2025-04-21T11:22:28.578+03:00,87,1.45,2025-04-21T09:28:58.093+03:00,0.01174319131481236,0
2025-04-21T11:31:32.334+03:00,1745224288.775065,40.95361853999372,29.1409886722274,92.00693,-1,-1,-1,-1,30,37.99608032153802,-9999,13954.61117825,-0.760284423828125,0.56951904296875,-0.3125457763671875,13954.60110325,-2.35737182848547,-1.179492128739583,-0.6022208481486734,0.007001405581831932,-0.006512261927127838,0.003412542631849647,0.002161204814910889,0.0005120038986206055,-0.001633882522583008,XArbitraryZVertical,0.5850083296648328,-0.02481124681127823,0.6704209309487831,-0.4557251915036755,-0.7617894411087036,0.5664740204811096,-0.3142993152141571,0,0,0,-1,-1,13940.65235591667,unknown,2,2025-04-21T11:31:18.370+03:00,2025-04-20T21:57:49.637+03:00,1587,1.127823,0,0,1187.381,1,4,2025-04-21T11:21:17.391+03:00,766917091.3589115,0,-45.7,100.2813,1,0.65,2025-04-21T11:22:28.578+03:00,87,1.45,2025-04-21T09:28:58.093+03:00,0.01174319131481236,0
2025-04-21T11:31:32.344+03:00,1745224288.775065,40.95361853999372,29.1409886722274,92.00693,-1,-1,-1,-1,30,37.99608032153802,-9999,13954.62125325,-0.76190185546875,0.567779541015625,-0.3116912841796875,13954.61117825,-2.357290157275494,-1.179534119735389,-0.6022643706767474,0.002848006319254637,-0.008469618856906891,0.004582236520946026,0.002532958984375,0.00337529182434082,3.36766242980957e-05,XArbitraryZVertical,0.5850267153655366,-0.02479515001855958,0.6703805941946018,-0.4557616782153048,-0.76177978515625,0.5665099024772644,-0.3142578899860382,0,0,0,-1,-1,13940.65235591667,unknown,2,2025-04-21T11:31:18.370+03:00,2025-04-20T21:57:49.637+03:00,1587,1.127823,0,0,1187.381,1,4,2025-04-21T11:21:17.391+03:00,766917091.3589115,0,-45.7,100.2813,1,0.65,2025-04-21T11:22:28.578+03:00,87,1.45,2025-04-21T09:28:58.093+03:00,0.01174319131481236,0
2025-04-21T11:31:32.354+03:00,1745224288.775065,40.95361853999372,29.1409886722274,92.00693,-1,-1,-1,-1,30,37.99608032153802,-9999,13954.63132825,-0.76104736328125,0.5648651123046875,-0.3149566650390625,13954.62125325,-2.357278416615021,-1.179594315065492,-0.6023133479059705,-0.003287384286522865,-0.004742525052279234,0.002225871197879314,0.0004510283470153809,0.002083659172058105,0.003654628992080688,XArbitraryZVertical,0.5850507461258303,-0.02479753123220587,0.6703496915660879,-0.4557760313530498,-0.7617729306221008,0.5665502548217773,-0.3142014145851135,0,0,0,-1,-1,13940.65235591667,unknown,2,2025-04-21T11:31:18.370+03:00,2025-04-20T21:57:49.637+03:00,1587,1.127823,0,0,1187.381,1,4,2025-04-21T11:21:17.391+03:00,766917091.3589115,0,-45.7,100.2813,1,0.65,2025-04-21T11:22:28.578+03:00,87,1.45,2025-04-21T09:28:58.093+03:00,0.01174319131481236,0
2025-04-21T11:31:32.364+03:00,1745224288.775065,40.95361853999372,29.1409886722274,92.00693,-1,-1,-1,-1,30,37.99608032153802,-9999,13954.64140325,-0.7603302001953125,0.5639495849609375,-0.3142547607421875,13954.63132825,-2.357330343252032,-1.179661398681706,-0.602337811974831,-0.007155692204833031,-0.001692738849669695,0.004098839126527309,-2.896785736083984e-05,-0.0002558231353759766,0.001126319169998169,XArbitraryZVertical,0.5850744267525441,-0.02480716585899021,0.6703366562136868,-0.4557643254632245,-0.7617812156677246,0.5665704011917114,-0.314145028591156,0,0,0,-1,-1,13940.65235591667,unknown,2,2025-04-21T11:31:18.370+03:00,2025-04-20T21:57:49.637+03:00,1587,1.127823,0,0,1187.381,1,4,2025-04-21T11:21:17.391+03:00,766917091.3589115,0,-45.7,100.2813,1,0.65,2025-04-21T11:22:28.578+03:00,87,1.45,2025-04-21T09:28:58.093+03:00,0.01174319131481236,0
2025-04-21T11:31:32.374+03:00,1745224288.775065,40.95361853999372,29.1409886722274,92.00693,-1,-1,-1,-1,30,37.99608032153802,-9999,13954.65147825,-0.760833740234375,0.563995361328125,-0.318389892578125,13954.64140325,-2.357370862729164,-1.179688158895578,-0.6023959223487761,-0.003239247482270002,0.0008889292366802692,0.005637613590806723,0.001673221588134766,-0.002165257930755615,-0.0007682144641876221,XArbitraryZVertical,0.5850872782882132,-0.02483606981613041,0.670325525705172,-0.4557625909660319,-0.7617591619491577,0.5666182637214661,-0.3141120970249176,0,0,0,-1,-1,13940.65235591667,unknown,2,2025-04-21T11:31:18.370+03:00,2025-04-20T21:57:49.637+03:00,1587,1.127823,0,0,1187.381,1,4,2025-04-21T11:21:17.391+03:00,766917091.3589115,0,-45.7,100.2813,1,0.65,2025-04-21T11:22:28.578+03:00,87,1.45,2025-04-21T09:28:58.093+03:00,0.01174319131481236,0
2025-04-21T11:31:32.384+03:00,1745224288.775065,40.95361853999372,29.1409886722274,92.00693,-1,-1,-1,-1,30,37.99608032153802,-9999,13954.66155425,-0.7585296630859375,0.5666961669921875,-0.31854248046875,13954.65147825,-2.357333840624979,-1.179614436134516,-0.6024293038557189,0.006650933530181646,0.008857106789946556,0.004502308089286089,0.0005034804344177246,-0.00287938117980957,-0.001756817102432251,XArbitraryZVertical,0.5850655389816318,-0.0248553190849796,0.6703314986426445,-0.4557807238459553,-0.7617185711860657,0.5666458010673523,-0.3141610622406006,0,0,0,-1,-1,13940.65235591667,unknown,2,2025-04-21T11:31:18.370+03:00,2025-04-20T21:57:49.637+03:00,1587,1.127823,0,0,1187.381,1,4,2025-04-21T11:21:17.391+03:00,766917091.3589115,0,-45.7,100.2813,1,0.65,2025-04-21T11:22:28.578+03:00,87,1.45,2025-04-21T09:28:58.093+03:00,0.01174319131481236,0
2025-04-21T11:31:32.395+03:00,1745224288.775065,40.95361853999372,29.1409886722274,92.00693,-1,-1,-1,-1,30,37.99608032153802,-9999,13954.67162925,-0.7589569091796875,0.563934326171875,-0.305419921875,13954.66155425,-2.357263339128083,-1.179525164922469,-0.6024149364888042,-0.004431278444826603,0.003171790856868029,-0.0002463745477143675,0.00205463171005249,-0.0006855130195617676,-0.006156563758850098,XArbitraryZVertical,0.585035393882025,-0.02484928423033513,0.670344723238368,-0.4558004443262425,-0.7616981267929077,0.566633939743042,-0.31423220038414,0,0,0,-1,-1,13940.65235591667,unknown,2,2025-04-21T11:31:18.370+03:00,2025-04-20T21:57:49.637+03:00,1587,1.127823,0,0,1187.381,1,4,2025-04-21T11:21:17.391+03:00,766917091.3589115,0,-45.7,100.2813,1,0.65,2025-04-21T11:22:28.578+03:00,87,1.45,2025-04-21T09:28:58.093+03:00,0.01174319131481236,0
2025-04-21T11:31:32.405+03:00,1745224288.775065,40.95361853999372,29.1409886722274,92.00693,-1,-1,-1,-1,30,37.99608032153802,-9999,13954.68170425,-0.75677490234375,0.5532989501953125,-0.2930908203125,13954.67162925,-2.357535221568634,-1.179638415698572,-0.6025222799565906,-0.03766053915023804,0.005865112412720919,0.002992861438542604,0.00317835807800293,1.949071884155273e-05,0.001042962074279785,XArbitraryZVertical,0.5850780698858616,-0.02494577720878336,0.6703503805462214,-0.4557319847789064,-0.7616774439811707,0.5667223930358887,-0.3141227066516876,0,0,0,-1,-1,13940.65235591667,unknown,2,2025-04-21T11:31:18.370+03:00,2025-04-20T21:57:49.637+03:00,1587,1.127823,0,0,1187.381,1,4,2025-04-21T11:21:17.391+03:00,766917091.3589115,0,-45.7,100.2813,1,0.65,2025-04-21T11:22:28.578+03:00,87,1.45,2025-04-21T09:28:58.093+03:00,0.01174319131481236,0
2025-04-21T11:31:32.415+03:00,1745224288.775065,40.95361853999372,29.1409886722274,92.00693,-1,-1,-1,-1,30,37.99608032153802,-9999,13954.69177925,-0.7528076171875,0.5566558837890625,-0.3026275634765625,13954.68170425,-2.357904740381964,-1.179731756585709,-0.6027041387591322,-0.02839273773133755,0.01473290659487247,0.005458682309836149,0.002440989017486572,-0.008171737194061279,0.01741203665733337,XArbitraryZVertical,0.5851184289543633,-0.02510504417041543,0.6703680696523608,-0.4556453547534888,-0.7616114020347595,0.566872239112854,-0.3140123188495636,0,0,0,-1,-1,13940.65235591667,unknown,2,2025-04-21T11:31:18.370+03:00,2025-04-20T21:57:49.637+03:00,1587,1.127823,0,0,1187.381,1,4,2025-04-21T11:21:17.391+03:00,766917091.3589115,0,-45.7,100.2813,1,0.65,2025-04-21T11:22:28.578+03:00,87,1.45,2025-04-21T09:28:58.093+03:00,0.01174319131481236,0
2025-04-21T11:31:32.425+03:00,1745224288.775065,40.95361853999372,29.1409886722274,92.00693,-1,-1,-1,-1,30,37.99608032153802,-9999,13954.70185425,-0.7559356689453125,0.568634033203125,-0.3082122802734375,13954.69177925,-2.358079481974246,-1.179664822358832,-0.6028477119945281,-0.01278628036379814,0.01627068221569061,0.01065148040652275,0.007990419864654541,-0.01570582389831543,0.01805761456489563,XArbitraryZVertical,0.5851046006436985,-0.02522860782380282,0.6703964934445855,-0.4556143959990697,-0.7615151405334473,0.5669904947280884,-0.314032256603241,0,0,0,-1,-1,13940.65235591667,unknown,2,2025-04-21T11:31:18.370+03:00,2025-04-20T21:57:49.637+03:00,1587,1.127823,0,0,1187.381,1,4,2025-04-21T11:21:17.391+03:00,766917091.3589115,0,-45.7,100.2813,1,0.65,2025-04-21T11:22:28.578+03:00,87,1.45,2025-04-21T09:28:58.093+03:00,0.01174319131481236,0
2025-04-21T11:31:32.436+03:00,1745224288.775065,40.95361853999372,29.1409886722274,92.00693,-1,-1,-1,-1,30,37.99608032153802,-9999,13954.71192925,-0.75439453125,0.5703125,-0.313140869140625,13954.70185425,-2.358143365175531,-1.17957894664993,-0.6029749300669071,-0.005687091965228319,0.005429219454526901,0.007826399058103561,0.005516409873962402,-0.002626955509185791,0.006453037261962891,XArbitraryZVertical,0.5850845558682454,-0.02531749280861544,0.6704088410447018,-0.4556171749348496,-0.7614215612411499,0.5670952796936035,-0.3140701651573181,0,0,0,-1,-1,13940.65235591667,unknown,2,2025-04-21T11:31:18.370+03:00,2025-04-20T21:57:49.637+03:00,1587,1.127823,0,0,1187.381,1,4,2025-04-21T11:21:17.391+03:00,766917091.3589115,0,-45.7,100.2813,1,0.65,2025-04-21T11:22:28.578+03:00,87,1.45,2025-04-21T09:28:58.093+03:00,0.01174319131481236,0
2025-04-21T11:31:32.468+03:00,1745224288.775065,40.95361853999372,29.1409886722274,92.00693,-1,-1,-1,-1,30,37.99608032153802,-9999,13954.72200425,-0.761932373046875,0.568634033203125,-0.318695068359375,13954.71192925,-2.358160637340359,-1.179572938443683,-0.60304454427954,-0.001701072324067354,-0.001501058228313923,0.01077934540808201,0.007507443428039551,0.003525972366333008,0.00456574559211731,XArbitraryZVertical,0.585087564890254,-0.02535165883318841,0.6703994884648793,-0.4556250869108147,-0.7613831162452698,0.5671526193618774,-0.3140596747398376,0,0,0,-1,-1,13940.65235591667,unknown,2,2025-04-21T11:31:18.370+03:00,2025-04-20T21:57:49.637+03:00,1587,1.127823,0,0,1187.381,1,4,2025-04-21T11:21:17.391+03:00,766917091.3589115,0,-45.7,100.2813,1,0.65,2025-04-21T11:22:28.578+03:00,87,1.45,2025-04-21T09:28:58.093+03:00,0.01174319131481236,0
2025-04-21T11:31:32.470+03:00,1745224288.775065,40.95361853999372,29.1409886722274,92.00693,-1,-1,-1,-1,30,37.99608032153802,-9999,13954.73207925,-0.75897216796875,0.564300537109375,-0.3197174072265625,13954.72200425,-2.358063312387029,-1.179629756710364,-0.6030163975659927,0.01557059213519096,-0.02251153439283371,-0.003023552242666483,0.003298044204711914,0.002358973026275635,-0.002780407667160034,XArbitraryZVertical,0.5851057393384247,-0.02529905859581313,0.6703666955441553,-0.4556528100363058,-0.7614156007766724,0.5671294331550598,-0.3140224516391754,0,0,0,-1,-1,13940.65235591667,unknown,2,2025-04-21T11:31:18.370+03:00,2025-04-20T21:57:49.637+03:00,1587,1.127823,0,0,1187.381,1,4,2025-04-21T11:21:17.391+03:00,766917091.3589115,0,-45.7,100.2813,1,0.65,2025-04-21T11:22:28.578+03:00,87,1.45,2025-04-21T09:28:58.093+03:00,0.01174319131481236,0
2025-04-21T11:31:32.488+03:00,1745224288.775065,40.95361853999372,29.1409886722274,92.00693,-1,-1,-1,-1,30,37.99608032153802,-9999,13954.74215525,-0.754791259765625,0.5653076171875,-0.3132781982421875,13954.73207925,-2.357880014558102,-1.17979410556346,-0.6028864992707155,0.0219027902930975,-0.02817128412425518,-0.01122781913727522,-0.0004426836967468262,0.0005128979682922363,-0.006631135940551758,XArbitraryZVertical,0.5851533510586588,-0.02515621984793636,0.670304926086582,-0.4556906077154441,-0.7615354657173157,0.567022442817688,-0.3139254450798035,0,0,0,-1,-1,13940.65235591667,unknown,2,2025-04-21T11:31:18.370+03:00,2025-04-20T21:57:49.637+03:00,1587,1.127823,0,0,1187.381,1,4,2025-04-21T11:21:17.391+03:00,766917091.3589115,0,-45.7,100.2813,1,0.65,2025-04-21T11:22:28.578+03:00,87,1.45,2025-04-21T09:28:58.093+03:00,0.01174319131481236,0
2025-04-21T11:31:32.489+03:00,1745224288.775065,40.95361853999372,29.1409886722274,92.00693,-1,-1,-1,-1,30,37.99608032153802,-9999,13954.75223025,-0.7637786865234375,0.570953369140625,-0.307586669921875,13954.74215525,-2.357661155543964,-1.179914310161145,-0.6027016667159546,0.01987985335290432,-0.02241992205381393,-0.01449178997427225,0.006329536437988281,-0.003698825836181641,-0.003157973289489746,XArbitraryZVertical,0.5851824678439276,-0.02499117890703923,0.6702597410968768,-0.4557288186860582,-0.7616701126098633,0.5668702125549316,-0.313873827457428,0,0,0,-1,-1,13940.65235591667,unknown,2,2025-04-21T11:31:18.370+03:00,2025-04-20T21:57:49.637+03:00,1587,1.127823,0,0,1187.381,1,4,2025-04-21T11:21:17.391+03:00,766917091.3589115,0,-45.7,100.2813,1,0.65,2025-04-21T11:22:28.578+03:00,87,1.45,2025-04-21T09:28:58.093+03:00,0.01174319131481236,0
2025-04-21T11:31:32.490+03:00,1745224288.775065,40.95361853999372,29.1409886722274,92.00693,-1,-1,-1,-1,30,37.99608032153802,-9999,13954.76230525,-0.7617950439453125,0.5676727294921875,-0.3070831298828125,13954.75223025,-2.357555268690717,-1.180063938773316,-0.6025183127012355,0.008621472865343094,-0.01985782757401466,-0.01227903552353382,0.002749443054199219,0.001869082450866699,0.004458069801330566,XArbitraryZVertical,0.5852201298339145,-0.02485309291072395,0.6702313246332083,-0.4557297877757372,-0.7618131637573242,0.566719114780426,-0.3137994408607483,0,0,0,-1,-1,13940.65235591667,unknown,2,2025-04-21T11:31:18.370+03:00,2025-04-20T21:57:49.637+03:00,1587,1.127823,0,0,1187.381,1,4,2025-04-21T11:21:17.391+03:00,766917091.3589115,0,-45.7,100.2813,1,0.65,2025-04-21T11:22:28.578+03:00,87,1.45,2025-04-21T09:28:58.093+03:00,0.01174319131481236,0
2025-04-21T11:31:32.495+03:00,1745224288.775065,40.95361853999372,29.1409886722274,92.00693,-1,-1,-1,-1,30,37.99608032153802,-9999,13954.77238025,-0.75909423828125,0.5633697509765625,-0.312164306640625,13954.76230525,-2.357616535987527,-1.180295333211298,-0.6023591875952443,0.001283665420487523,-0.0170548502355814,-0.01882082596421242,-0.002557218074798584,0.003693938255310059,0.007306814193725586,XArbitraryZVertical,0.5852849306762038,-0.02475493347150643,0.6702118583572537,-0.4556805531051645,-0.7619690895080566,0.5665880441665649,-0.3136574923992157,0,0,0,-1,-1,13940.65235591667,unknown,2,2025-04-21T11:31:18.370+03:00,2025-04-20T21:57:49.637+03:00,1587,1.127823,0,0,1187.381,1,4,2025-04-21T11:21:17.391+03:00,766917091.3589115,0,-45.7,100.2813,1,0.65,2025-04-21T11:22:28.578+03:00,87,1.45,2025-04-21T09:28:58.093+03:00,0.01174319131481236,0
2025-04-21T11:31:32.505+03:00,1745224288.775065,40.95361853999372,29.1409886722274,92.00693,-1,-1,-1,-1,30,37.99608032153802,-9999,13954.78245525,-0.7585296630859375,0.564788818359375,-0.3148345947265625,13954.77238025,-2.357651454656094,-1.180488133716121,-0.6022210610815215,0.005334266927093267,-0.006903479807078838,-0.003945238888263702,0.002946674823760986,-0.001319169998168945,0.004626214504241943,XArbitraryZVertical,0.5853387164346401,-0.02466624524830384,0.6701931039670597,-0.4556437922783075,-0.7621018886566162,0.5664741992950439,-0.3135403394699097,0,0,0,-1,-1,13940.65235591667,unknown,2,2025-04-21T11:31:18.370+03:00,2025-04-20T21:57:49.637+03:00,1587,1.127823,0,0,1187.381,1,4,2025-04-21T11:21:17.391+03:00,766917091.3589115,0,-45.7,100.2813,1,0.65,2025-04-21T11:22:28.578+03:00,87,1.45,2025-04-21T09:28:58.093+03:00,0.01174319131481236,0
2025-04-21T11:31:32.515+03:00,1745224288.775065,40.95361853999372,29.1409886722274,92.00693,-1,-1,-1,-1,30,37.99608032153802,-9999,13954.79253025,-0.7626190185546875,0.564971923828125,-0.3083343505859375,13954.78245525,-2.357627004270035,-1.180519074451136,-0.6021383906423941,0.003312394954264164,-0.002239752095192671,-0.006506134755909443,0.003411710262298584,-0.003463625907897949,-0.001193135976791382,XArbitraryZVertical,0.5853431675844152,-0.02461913590477764,0.6701962572800928,-0.4556359372497295,-0.7621548771858215,0.5664060711860657,-0.3135345578193665,0,0,0,-1,-1,13940.65235591667,unknown,2,2025-04-21T11:31:18.370+03:00,2025-04-20T21:57:49.637+03:00,1587,1.127823,0,0,1187.381,1,4,2025-04-21T11:21:17.391+03:00,766917091.3589115,0,-45.7,100.2813,1,0.65,2025-04-21T11:22:28.578+03:00,87,1.45,2025-04-21T09:28:58.093+03:00,0.01174319131481236,0
2025-04-21T11:31:32.525+03:00,1745224288.775065,40.95361853999372,29.1409886722274,92.00693,-1,-1,-1,-1,30,37.99608032153802,-9999,13954.80260525,-0.762481689453125,0.558868408203125,-0.3049468994140625,13954.79253025,-2.357662144722454,-1.180540348306395,-0.6021381943507378,-0.004925228655338287,0.004482931923121214,0.0007018772303126752,0.002380847930908203,0.000229179859161377,0.0019187331199646,XArbitraryZVertical,0.5853498383638319,-0.02462447394467149,0.6701981315996884,-0.4556244159005367,-0.7621617317199707,0.5664058923721313,-0.3135184049606323,0,0,0,-1,-1,13940.65235591667,unknown,2,2025-04-21T11:31:18.370+03:00,2025-04-20T21:57:49.637+03:00,1587,1.127823,0,0,1187.381,1,4,2025-04-21T11:21:17.391+03:00,766917091.3589115,0,-45.7,100.2813,1,0.65,2025-04-21T11:22:28.578+03:00,87,1.45,2025-04-21T09:28:58.093+03:00,0.01174319131481236,0
2025-04-21T11:31:32.535+03:00,1745224288.775065,40.95361853999372,29.1409886722274,92.00693,-1,-1,-1,-1,30,37.99608032153802,-9999,13954.81268125,-0.764984130859375,0.56103515625,-0.305389404296875,13954.80260525,-2.357697960079613,-1.180491762954283,-0.6021840695644267,-0.003129725344479084,0.006560729816555977,0.004443085752427578,-0.0006185173988342285,-0.005561172962188721,0.006905019283294678,XArbitraryZVertical,0.5853365572074489,-0.02466426495560095,0.6702106896932685,-0.45562095944711,-0.7621225118637085,0.5664437413215637,-0.3135455846786499,0,0,0,-1,-1,13940.65235591667,unknown,2,2025-04-21T11:31:18.370+03:00,2025-04-20T21:57:49.637+03:00,1587,1.127823,0,0,1187.381,1,4,2025-04-21T11:21:17.391+03:00,766917091.3589115,0,-45.7,100.2813,1,0.65,2025-04-21T11:22:28.578+03:00,87,1.45,2025-04-21T09:28:58.093+03:00,0.01174319131481236,0
2025-04-21T11:31:32.545+03:00,1745224288.775065,40.95361853999372,29.1409886722274,92.00693,-1,-1,-1,-1,30,37.99608032153802,-9999,13954.82275625,-0.76226806640625,0.56427001953125,-0.31329345703125,13954.81268125,-2.35763460890564,-1.180354444354452,-0.6022169288510498,0.01025086175650358,0.01210949290543795,0.002638561185449362,-0.002143740653991699,-0.006320595741271973,0.008543699979782104,XArbitraryZVertical,0.585293795183782,-0.02469009040124496,0.6702293702863393,-0.4556470200038841,-0.7620622515678406,0.5664708018302917,-0.3136431574821472,0,0,0,-1,-1,13940.65235591667,unknown,2,2025-04-21T11:31:18.370+03:00,2025-04-20T21:57:49.637+03:00,1587,1.127823,0,0,1187.381,1,4,2025-04-21T11:21:17.391+03:00,766917091.3589115,0,-45.7,100.2813,1,0.65,2025-04-21T11:22:28.578+03:00,87,1.45,2025-04-21T09:28:58.093+03:00,0.01174319131481236,0
2025-04-21T11:31:32.556+03:00,1745224288.775065,40.95361853999372,29.1409886722274,92.00693,-1,-1,-1,-1,30,37.99608032153802,-9999,13954.83283125,-0.762969970703125,0.5692901611328125,-0.3163299560546875,13954.82275625,-2.357493449985722,-1.180141808911597,-0.6021829709056373,0.0132469180971384,0.01390899065881968,0.00100284768268466,-0.00191795825958252,-0.004492223262786865,0.005249291658401489,XArbitraryZVertical,0.5852217434524912,-0.02468375447412315,0.670266633546347,-0.4556848939520479,-0.7620131969451904,0.5664427876472473,-0.3138124346733093,0,0,0,-1,-1,13940.65235591667,unknown,2,2025-04-21T11:31:18.370+03:00,2025-04-20T21:57:49.637+03:00,1587,1.127823,0,0,1187.381,1,4,2025-04-21T11:21:17.391+03:00,766917091.3589115,0,-45.7,100.2813,1,0.65,2025-04-21T11:22:28.578+03:00,87,1.45,2025-04-21T09:28:58.093+03:00,0.01174319131481236,0
2025-04-21T11:31:32.566+03:00,1745224288.775065,40.95361853999372,29.1409886722274,92.00693,-1,-1,-1,-1,30,37.99608032153802,-9999,13954.84290625,-0.761505126953125,0.565521240234375,-0.313232421875,13954.83283125,-2.357298059541824,-1.179919816788509,-0.6021170067977236,0.01883862353861332,0.008620618842542171,-0.0008823373937048018,-0.00054931640625,0.001314759254455566,-0.001388013362884521,XArbitraryZVertical,0.5851447734938154,-0.02465088367981538,0.6703013137610302,-0.4557345742806996,-0.7619780898094177,0.5663884282112122,-0.3139958679676056,0,0,0,-1,-1,13940.65235591667,unknown,2,2025-04-21T11:31:18.370+03:00,2025-04-20T21:57:49.637+03:00,1587,1.127823,0,0,1187.381,1,4,2025-04-21T11:21:17.391+03:00,766917091.3589115,0,-45.7,100.2813,1,0.65,2025-04-21T11:22:28.578+03:00,87,1.45,2025-04-21T09:28:58.093+03:00,0.01174319131481236,0
2025-04-21T11:31:32.576+03:00,1745224288.775065,40.95361853999372,29.1409886722274,92.00693,-1,-1,-1,-1,30,37.99608032153802,-9999,13954.85298125,-0.7610931396484375,0.5671234130859375,-0.3092041015625,13954.84290625,-2.357098024444042,-1.179729438255073,-0.6020138431763497,0.02456734888255596,0.008427806198596954,-0.009849200956523418,-0.001211285591125488,0.001277744770050049,-0.001373261213302612,XArbitraryZVertical,0.5850756293515802,-0.02459463423272069,0.6703337200638368,-0.4557788529576291,-0.7619724273681641,0.5663034319877625,-0.3141632378101349,0,0,0,-1,-1,13940.65235591667,unknown,2,2025-04-21T11:31:18.370+03:00,2025-04-20T21:57:49.637+03:00,1587,1.127823,0,0,1187.381,1,4,2025-04-21T11:21:17.391+03:00,766917091.3589115,0,-45.7,100.2813,1,0.65,2025-04-21T11:22:28.578+03:00,87,1.45,2025-04-21T09:28:58.093+03:00,0.01174319131481236,0
2025-04-21T11:31:32.586+03:00,1745224288.775065,40.95361853999372,29.1409886722274,92.00693,-1,-1,-1,-1,30,37.99608032153802,-9999,13954.86305625,-0.7580718994140625,0.5622711181640625,-0.308807373046875,13954.85298125,-2.356871245142694,-1.179546739377776,-0.6018482585006751,0.0258488617837429,0.002166714053601027,-0.006650078576058149,0.001030623912811279,0.0003308653831481934,0.003470897674560547,XArbitraryZVertical,0.5850046736199456,-0.02450400668739443,0.6703711146661898,-0.4558197644927559,-0.762001633644104,0.5661669373512268,-0.3143381774425507,0,0,0,-1,-1,13940.65235591667,unknown,2,2025-04-21T11:31:18.370+03:00,2025-04-20T21:57:49.637+03:00,1587,1.127823,0,0,1187.381,1,4,2025-04-21T11:21:17.391+03:00,766917091.3589115,0,-45.7,100.2813,1,0.65,2025-04-21T11:22:28.578+03:00,87,1.45,2025-04-21T09:28:58.093+03:00,0.01174319131481236,0
2025-04-21T11:31:32.596+03:00,1745224288.775065,40.95361853999372,29.1409886722274,92.00693,-1,-1,-1,-1,30,37.99608032153802,-9999,13954.87313125,-0.758514404296875,0.5587158203125,-0.31353759765625,13954.86305625,-2.356636939019697,-1.179403823292375,-0.6017090920994207,0.01856964454054832,-0.0004378575831651688,-0.001433478551916778,0.001134753227233887,-0.001110851764678955,0.006539523601531982,XArbitraryZVertical,0.5849491175198527,-0.02441264442851295,0.6703894466514602,-0.4558689365238913,-0.7620294690132141,0.5660521984100342,-0.3144771158695221,0,0,0,-1,-1,13940.65235591667,unknown,2,2025-04-21T11:31:18.370+03:00,2025-04-20T21:57:49.637+03:00,1587,1.127823,0,0,1187.381,1,4,2025-04-21T11:21:17.391+03:00,766917091.3589115,0,-45.7,100.2813,1,0.65,2025-04-21T11:22:28.578+03:00,87,1.45,2025-04-21T09:28:58.093+03:00,0.01174319131481236,0
2025-04-21T11:31:32.606+03:00,1745224288.775065,40.95361853999372,29.1409886722274,92.00693,-1,-1,-1,-1,30,37.99608032153802,-9999,13954.88320725,-0.760406494140625,0.5560760498046875,-0.312591552734375,13954.87313125,-2.356497554975258,-1.179363810489203,-0.6016158944719927,0.005988539196550846,-0.006769057363271713,-0.004788295831531286,0.004695713520050049,-0.005413293838500977,0.003034830093383789,XArbitraryZVertical,0.584930350583414,-0.02434388651971094,0.6703894461446909,-0.455896690234495,-0.7620656490325928,0.5659753680229187,-0.3145277202129364,0,0,0,-1,-1,13940.65235591667,unknown,2,2025-04-21T11:31:18.370+03:00,2025-04-20T21:57:49.637+03:00,1587,1.127823,0,0,1187.381,1,4,2025-04-21T11:21:17.391+03:00,766917091.3589115,0,-45.7,100.2813,1,0.65,2025-04-21T11:22:28.578+03:00,87,1.45,2025-04-21T09:28:58.093+03:00,0.01174319131481236,0
2025-04-21T11:31:32.616+03:00,1745224288.775065,40.95361853999372,29.1409886722274,92.00693,-1,-1,-1,-1,30,37.99608032153802,-9999,13954.89328225,-0.7602996826171875,0.55816650390625,-0.3125762939453125,13954.88320725,-2.356527114944355,-1.17953522071418,-0.6015601551725709,-0.001073365332558751,-0.02020150981843472,-0.002885733498260379,0.002520501613616943,-0.00916677713394165,0.001466691493988037,XArbitraryZVertical,0.5849832251609868,-0.02429126254771933,0.6703580570446864,-0.455877816010684,-0.7621487379074097,0.5659294128417969,-0.3144091069698334,0,0,0,-1,-1,13940.65235591667,unknown,2,2025-04-21T11:31:18.370+03:00,2025-04-20T21:57:49.637+03:00,1587,1.127823,0,0,1187.381,1,4,2025-04-21T11:21:17.391+03:00,766917091.3589115,0,-45.7,100.2813,1,0.65,2025-04-21T11:22:28.578+03:00,87,1.45,2025-04-21T09:28:58.093+03:00,0.01174319131481236,0
2025-04-21T11:31:32.626+03:00,1745224288.775065,40.95361853999372,29.1409886722274,92.00693,-1,-1,-1,-1,30,37.99608032153802,-9999,13954.90335725,-0.7640533447265625,0.560028076171875,-0.3089752197265625,13954.89328225,-2.35655340523346,-1.179746863172062,-0.6015437772720541,-0.0007280198624357581,-0.01829874515533447,0.0008687575464136899,0.00206148624420166,-0.009565293788909912,0.002666950225830078,XArbitraryZVertical,0.5850526029387043,-0.02424419201507995,0.6703056642488773,-0.4558683212984387,-0.7622238397598267,0.5659159421920776,-0.3142513334751129,0,0,0,-1,-1,13940.65235591667,unknown,2,2025-04-21T11:31:18.370+03:00,2025-04-20T21:57:49.637+03:00,1587,1.127823,0,0,1187.381,1,4,2025-04-21T11:21:17.391+03:00,766917091.3589115,0,-45.7,100.2813,1,0.65,2025-04-21T11:22:28.578+03:00,87,1.45,2025-04-21T09:28:58.093+03:00,0.01174319131481236,0
2025-04-21T11:31:32.636+03:00,1745224288.775065,40.95361853999372,29.1409886722274,92.00693,-1,-1,-1,-1,30,37.99608032153802,-9999,13954.91343225,-0.7597808837890625,0.5626983642578125,-0.30255126953125,13954.90335725,-2.356561854577541,-1.179936156293949,-0.6015316183822162,0.001399579574353993,-0.0188383013010025,-0.002077763900160789,-0.0009244084358215332,-0.007266461849212646,0.002021700143814087,XArbitraryZVertical,0.5851150275917287,-0.02419869097781632,0.6702547967493464,-0.4558653489087438,-0.7622896432876587,0.5659059286117554,-0.3141096532344818,0,0,0,-1,-1,13940.65235591667,unknown,2,2025-04-21T11:31:18.370+03:00,2025-04-20T21:57:49.637+03:00,1587,1.127823,0,0,1187.381,1,4,2025-04-21T11:21:17.391+03:00,766917091.3589115,0,-45.7,100.2813,1,0.65,2025-04-21T11:22:28.578+03:00,87,1.45,2025-04-21T09:28:58.093+03:00,0.01174319131481236,0
2025-04-21T11:31:32.647+03:00,1745224288.775065,40.95361853999372,29.1409886722274,92.00693,-1,-1,-1,-1,30,37.99608032153802,-9999,13954.92350725,-0.762725830078125,0.564178466796875,-0.3037567138671875,13954.91343225,-2.356577845442335,-1.180114373267508,-0.601517357650858,-0.005150332115590572,-0.01642081886529922,-0.002979310462251306,0.0003444552421569824,-0.00395888090133667,0.009747177362442017,XArbitraryZVertical,0.5851734849509737,-0.02415708250316515,0.6702093417021805,-0.4558592974664479,-0.7623530030250549,0.5658941268920898,-0.3139768540859222,0,0,0,-1,-1,13940.65235591667,unknown,2,2025-04-21T11:31:18.370+03:00,2025-04-20T21:57:49.637+03:00,1587,1.127823,0,0,1187.381,1,4,2025-04-21T11:21:17.391+03:00,766917091.3589115,0,-45.7,100.2813,1,0.65,2025-04-21T11:22:28.578+03:00,87,1.45,2025-04-21T09:28:58.093+03:00,0.01174319131481236,0
2025-04-21T11:31:32.656+03:00,1745224288.775065,40.95361853999372,29.1409886722274,92.00693,-1,-1,-1,-1,30,37.99608032153802,-9999,13954.93358204167,-0.7623748779296875,0.563385009765625,-0.3118896484375,13954.92350725,-2.356664658099552,-1.180334071930518,-0.6015417261716783,-0.00952963437885046,-0.01853829808533192,0.00110624497756362,0.002216458320617676,-0.002315640449523926,0.01061207056045532,XArbitraryZVertical,0.5852478885222197,-0.02414209135959149,0.6701596447964173,-0.4558377254132572,-0.7624092698097229,0.5659142136573792,-0.3138041496276855,0,0,0,-1,-1,13940.65235591667,unknown,2,2025-04-21T11:31:18.370+03:00,2025-04-20T21:57:49.637+03:00,1587,1.127823,0,0,1187.381,1,4,2025-04-21T11:21:17.391+03:00,766917091.3589115,0,-45.7,100.2813,1,0.65,2025-04-21T11:22:28.578+03:00,87,1.45,2025-04-21T09:28:58.093+03:00,0.01174319131481236,0
2025-04-21T11:31:32.667+03:00,1745224288.775065,40.95361853999372,29.1409886722274,92.00693,-1,-1,-1,-1,30,37.99608032153802,-9999,13954.94365704167,-0.7598419189453125,0.566253662109375,-0.3182525634765625,13954.93358204167,-2.356713054348189,-1.180549808322466,-0.6015783213746236,-0.002813208382576704,-0.01449861563742161,0.006036654580384493,-0.001015722751617432,-0.001704990863800049,0.006762325763702393,XArbitraryZVertical,0.5853223608291845,-0.02412166419537583,0.6700996347921122,-0.4558313618113701,-0.7624577879905701,0.5659444332122803,-0.3136317729949951,0,0,0,-1,-1,13940.65235591667,unknown,2,2025-04-21T11:31:18.370+03:00,2025-04-20T21:57:49.637+03:00,1587,1.127823,0,0,1187.381,1,4,2025-04-21T11:21:17.391+03:00,766917091.3589115,0,-45.7,100.2813,1,0.65,2025-04-21T11:22:28.578+03:00,87,1.45,2025-04-21T09:28:58.093+03:00,0.01174319131481236,0
2025-04-21T11:31:32.677+03:00,1745224288.775065,40.95361853999372,29.1409886722274,92.00693,-1,-1,-1,-1,30,37.99608032153802,-9999,13954.95373304167,-0.762115478515625,0.5665435791015625,-0.3158111572265625,13954.94365704167,-2.356700444197009,-1.180681979025618,-0.6016225737705622,0.003145081922411919,-0.01116780005395412,0.007223359309136868,0.002451121807098389,-0.001756727695465088,-0.001999706029891968,XArbitraryZVertical,0.5853701419836125,-0.02410547524071511,0.6700485261905358,-0.4558459535734698,-0.7624760270118713,0.5659809112548828,-0.3135214447975159,0,0,0,-1,-1,13940.65235591667,unknown,2,2025-04-21T11:31:18.370+03:00,2025-04-20T21:57:49.637+03:00,1587,1.127823,0,0,1187.381,1,4,2025-04-21T11:21:17.391+03:00,766917091.3589115,0,-45.7,100.2813,1,0.65,2025-04-21T11:22:28.578+03:00,87,1.45,2025-04-21T09:28:58.093+03:00,0.01174319131481236,0
2025-04-21T11:31:32.687+03:00,1745224288.775065,40.95361853999372,29.1409886722274,92.00693,-1,-1,-1,-1,30,37.99608032153802,-9999,13954.96380804167,-0.7610931396484375,0.565277099609375,-0.314544677734375,13954.95373304167,-2.356667308894039,-1.180773075356828,-0.6016593412347597,0.000215271778870374,-0.0117356525734067,0.003696102648973465,0.00221627950668335,0.001402020454406738,-0.004243820905685425,XArbitraryZVertical,0.5854038435887539,-0.02408966463267337,0.6700063569179088,-0.4558654318753854,-0.7624853253364563,0.5660111904144287,-0.313444048166275,0,0,0,-1,-1,13940.65235591667,unknown,2,2025-04-21T11:31:18.370+03:00,2025-04-20T21:57:49.637+03:00,1587,1.127823,0,0,1187.381,1,4,2025-04-21T11:21:17.391+03:00,766917091.3589115,0,-45.7,100.2813,1,0.65,2025-04-21T11:22:28.578+03:00,87,1.45,2025-04-21T09:28:58.093+03:00,0.01174319131481236,0
2025-04-21T11:31:32.697+03:00,1745224288.775065,40.95361853999372,29.1409886722274,92.00693,-1,-1,-1,-1,30,37.99608032153802,-9999,13954.97388304167,-0.7635345458984375,0.5691070556640625,-0.31573486328125,13954.96380804167,-2.356635469663019,-1.180872204721797,-0.6016941498036724,7.332529639825225e-05,-0.009221894666552544,0.003946705721318722,0.000428617000579834,-0.0005797147750854492,-0.001885473728179932,XArbitraryZVertical,0.5854400436821735,-0.02407156636434042,0.6699626817636327,-0.4558842600902007,-0.7624982595443726,0.5660399198532104,-0.3133610188961029,0,0,0,-1,-1,13940.65235591667,unknown,2,2025-04-21T11:31:18.370+03:00,2025-04-20T21:57:49.637+03:00,1587,1.127823,0,0,1187.381,1,4,2025-04-21T11:21:17.391+03:00,766917091.3589115,0,-45.7,100.2813,1,0.65,2025-04-21T11:22:28.578+03:00,87,1.45,2025-04-21T09:28:58.093+03:00,0.01174319131481236,0
2025-04-21T11:31:32.707+03:00,1745224288.775065,40.95361853999372,29.1409886722274,92.00693,-1,-1,-1,-1,30,37.99608032153802,-9999,13954.98395804167,-0.7620391845703125,0.575958251953125,-0.3121337890625,13954.97388304167,-2.356595111494126,-1.18093196032924,-0.6016907398513427,0.004052753560245037,-0.007211874704807997,0.001804392668418586,0.0003728270530700684,4.869699478149414e-05,-0.001197934150695801,XArbitraryZVertical,0.585460291543444,-0.02404478078221626,0.6699367087603288,-0.4558978111853769,-0.7625187635421753,0.566037118434906,-0.3133161962032318,0,0,0,-1,-1,13940.65235591667,unknown,2,2025-04-21T11:31:18.370+03:00,2025-04-20T21:57:49.637+03:00,1587,1.127823,0,0,1187.381,1,4,2025-04-21T11:21:17.391+03:00,766917091.3589115,0,-45.7,100.2813,1,0.65,2025-04-21T11:22:28.578+03:00,87,1.45,2025-04-21T09:28:58.093+03:00,0.01174319131481236,0
2025-04-21T11:31:32.717+03:00,1745224288.775065,40.95361853999372,29.1409886722274,92.00693,-1,-1,-1,-1,30,37.99608032153802,-9999,13954.99403304167,-0.7624359130859375,0.5681610107421875,-0.3061981201171875,13954.98395804167,-2.356475472730474,-1.180921717274886,-0.6016641617487659,0.009138592518866062,-0.0009092371910810471,0.006378371734172106,-0.001584887504577637,0.008432328701019287,-0.002176195383071899,XArbitraryZVertical,0.5854563042966894,-0.02400154320564316,0.6699180899805187,-0.4559324436098254,-0.7625293731689453,0.5660151839256287,-0.3133296966552734,0,0,0,-1,-1,13940.65235591667,unknown,2,2025-04-21T11:31:18.370+03:00,2025-04-20T21:57:49.637+03:00,1587,1.127823,0,0,1187.381,1,4,2025-04-21T11:21:17.391+03:00,766917091.3589115,0,-45.7,100.2813,1,0.65,2025-04-21T11:22:28.578+03:00,87,1.45,2025-04-21T09:28:58.093+03:00,0.01174319131481236,0
2025-04-21T11:31:32.727+03:00,1745224288.775065,40.95361853999372,29.1409886722274,92.00693,-1,-1,-1,-1,30,37.99608032153802,-9999,13955.00410804167,-0.764007568359375,0.56256103515625,-0.302490234375,13954.99403304167,-2.356361482062947,-1.180883887705049,-0.6016519706493543,0.009663834236562252,-0.003938516136258841,0.0004388900706544518,0.0009425878524780273,0.006977617740631104,0.004050314426422119,XArbitraryZVertical,0.58544406596521,-0.02397191964355346,0.6699058675227929,-0.4559677895102774,-0.7625240087509155,0.5660051107406616,-0.3133611977100372,0,0,0,-1,-1,13940.65235591667,unknown,2,2025-04-21T11:31:18.370+03:00,2025-04-20T21:57:49.637+03:00,1587,1.127823,0,0,1187.381,1,4,2025-04-21T11:21:17.391+03:00,766917091.3589115,0,-45.7,100.2813,1,0.65,2025-04-21T11:22:28.578+03:00,87,1.45,2025-04-21T09:28:58.093+03:00,0.01174319131481236,0
2025-04-21T11:31:32.738+03:00,1745224288.775065,40.95361853999372,29.1409886722274,92.00693,-1,-1,-1,-1,30,37.99608032153802,-9999,13955.01418304167,-0.76190185546875,0.5586700439453125,-0.305908203125,13955.00410804167,-2.356230963587524,-1.180845146062387,-0.6016456556393567,0.01158370729535818,-0.001815443858504295,0.004720986820757389,-0.00126349925994873,-0.001317977905273438,0.008597791194915771,XArbitraryZVertical,0.5854321789963061,-0.02394004063391855,0.6698887937378161,-0.4560097784892659,-0.762515127658844,0.5659999251365662,-0.3133920729160309,0,0,0,-1,-1,13940.65235591667,unknown,2,2025-04-21T11:31:18.370+03:00,2025-04-20T21:57:49.637+03:00,1587,1.127823,0,0,1187.381,1,4,2025-04-21T11:21:17.391+03:00,766917091.3589115,0,-45.7,100.2813,1,0.65,2025-04-21T11:22:28.578+03:00,87,1.45,2025-04-21T09:28:58.093+03:00,0.01174319131481236,0
2025-04-21T11:31:32.747+03:00,1745224288.775065,40.95361853999372,29.1409886722274,92.00693,-1,-1,-1,-1,30,37.99608032153802,-9999,13955.02425904167,-0.7611846923828125,0.5593414306640625,-0.3113555908203125,13955.01418304167,-2.356078692841803,-1.180820493376867,-0.6016649368262906,0.008440111763775349,-0.008554307743906975,0.007847405038774014,-0.0003810524940490723,-0.005728363990783691,0.01053512096405029,XArbitraryZVertical,0.5854271941919901,-0.02390875033443886,0.6698571709694133,-0.4560643333601908,-0.7624973654747009,0.5660158395767212,-0.3134067356586456,0,0,0,-1,-1,13940.65235591667,unknown,2,2025-04-21T11:31:18.370+03:00,2025-04-20T21:57:49.637+03:00,1587,1.127823,0,0,1187.381,1,4,2025-04-21T11:21:17.391+03:00,766917091.3589115,0,-45.7,100.2813,1,0.65,2025-04-21T11:22:28.578+03:00,87,1.45,2025-04-21T09:28:58.093+03:00,0.01174319131481236,0
2025-04-21T11:31:32.757+03:00,1745224288.775065,40.95361853999372,29.1409886722274,92.00693,-1,-1,-1,-1,30,37.99608032153802,-9999,13955.03433404167,-0.7596588134765625,0.5561065673828125,-0.3112030029296875,13955.02425904167,-2.355985799853603,-1.180839466224856,-0.6017528458850376,0.0009542324114590883,-0.009376691654324532,0.01308451127260923,0.00125730037689209,-0.007479250431060791,0.004230350255966187,XArbitraryZVertical,0.5854413022752266,-0.0239122135787741,0.6698115206746628,-0.4561131380826182,-0.7624573111534119,0.5660883188247681,-0.3133733868598938,0,0,0,-1,-1,13940.65235591667,unknown,2,2025-04-21T11:31:18.370+03:00,2025-04-20T21:57:49.637+03:00,1587,1.127823,0,0,1187.381,1,4,2025-04-21T11:21:17.391+03:00,766917091.3589115,0,-45.7,100.2813,1,0.65,2025-04-21T11:22:28.578+03:00,87,1.45,2025-04-21T09:28:58.093+03:00,0.01174319131481236,0
2025-04-21T11:31:32.767+03:00,1745224288.775065,40.95361853999372,29.1409886722274,92.00693,-1,-1,-1,-1,30,37.99608032153802,-9999,13955.04440904167,-0.7598876953125,0.558349609375,-0.3122406005859375,13955.03433404167,-2.355925637396032,-1.180919971576945,-0.6019118616555542,-0.004660443402826786,-0.01406698487699032,0.01752869412302971,0.002572596073150635,-0.008815884590148926,0.001952707767486572,XArbitraryZVertical,0.5854810200882009,-0.02393956269742756,0.6697399063877116,-0.4561657754200306,-0.7623991966247559,0.5662193894386292,-0.3132777512073517,0,0,0,-1,-1,13940.65235591667,unknown,2,2025-04-21T11:31:18.370+03:00,2025-04-20T21:57:49.637+03:00,1587,1.127823,0,0,1187.381,1,4,2025-04-21T11:21:17.391+03:00,766917091.3589115,0,-45.7,100.2813,1,0.65,2025-04-21T11:22:28.578+03:00,87,1.45,2025-04-21T09:28:58.093+03:00,0.01174319131481236,0
2025-04-21T11:31:32.778+03:00,1745224288.775065,40.95361853999372,29.1409886722274,92.00693,-1,-1,-1,-1,30,37.99608032153802,-9999,13955.05448404167,-0.761749267578125,0.5687408447265625,-0.3109283447265625,13955.04440904167,-2.355928973014576,-1.181058182284679,-0.6020932080887375,-0.006719865836203098,-0.01446139812469482,0.0157486367970705,0.002108931541442871,-0.01079642772674561,0.001365870237350464,XArbitraryZVertical,0.5855409698727984,-0.02398119931208226,0.6696611149507662,-0.456202305622157,-0.7623474597930908,0.5663688182830811,-0.3131333589553833,0,0,0,-1,-1,13940.65235591667,unknown,2,2025-04-21T11:31:18.370+03:00,2025-04-20T21:57:49.637+03:00,1587,1.127823,0,0,1187.381,1,4,2025-04-21T11:21:17.391+03:00,766917091.3589115,0,-45.7,100.2813,1,0.65,2025-04-21T11:22:28.578+03:00,87,1.45,2025-04-21T09:28:58.093+03:00,0.01174319131481236,0
2025-04-21T11:31:32.788+03:00,1745224288.775065,40.95361853999372,29.1409886722274,92.00693,-1,-1,-1,-1,30,37.99608032153802,-9999,13955.06455904167,-0.7638397216796875,0.5713653564453125,-0.3115997314453125,13955.05448404167,-2.355914384644718,-1.181191710763754,-0.6022307897875691,-0.003012212924659252,-0.01162726245820522,0.01065387763082981,0.002444803714752197,-0.002975165843963623,0.00186002254486084,XArbitraryZVertical,0.585596242989737,-0.02400122085790295,0.6695890560475568,-0.4562361131410144,-0.7623172402381897,0.5664822459220886,-0.313001960515976,0,0,0,-1,-1,13940.65235591667,unknown,2,2025-04-21T11:31:18.370+03:00,2025-04-20T21:57:49.637+03:00,1587,1.127823,0,0,1187.381,1,4,2025-04-21T11:21:17.391+03:00,766917091.3589115,0,-45.7,100.2813,1,0.65,2025-04-21T11:22:28.578+03:00,87,1.45,2025-04-21T09:28:58.093+03:00,0.01174319131481236,0
2025-04-21T11:31:32.798+03:00,1745224288.775065,40.95361853999372,29.1409886722274,92.00693,-1,-1,-1,-1,30,37.99608032153802,-9999,13955.07463404167,-0.7609405517578125,0.5692138671875,-0.3124847412109375,13955.06455904167,-2.355855008127999,-1.181281918957227,-0.6023189742542741,0.001195847755298018,-0.01160169579088688,0.005912384949624538,-0.001342058181762695,0.0050392746925354,0.00107043981552124,XArbitraryZVertical,0.5856338126342828,-0.02399834623897911,0.6695301048208884,-0.4562745895342515,-0.7622992396354675,0.5665549039840698,-0.3129142224788666,0,0,0,-1,-1,13940.65235591667,unknown,2,2025-04-21T11:31:18.370+03:00,2025-04-20T21:57:49.637+03:00,1587,1.127823,0,0,1187.381,1,4,2025-04-21T11:21:17.391+03:00,766917091.3589115,0,-45.7,100.2813,1,0.65,2025-04-21T11:22:28.578+03:00,87,1.45,2025-04-21T09:28:58.093+03:00,0.01174319131481236,0
2025-04-21T11:31:32.808+03:00,1745224288.775065,40.95361853999372,29.1409886722274,92.00693,-1,-1,-1,-1,30,37.99608032153802,-9999,13955.08470904167,-0.7608795166015625,0.5667877197265625,-0.31121826171875,13955.07463404167,-2.355777360882013,-1.181367670578592,-0.6023727498804575,0.002553127706050873,-0.01058423519134521,0.006356134079396725,-0.0002753138542175293,0.003728508949279785,0.0003678798675537109,XArbitraryZVertical,0.5856675149450608,-0.0239774557317093,0.669475666103621,-0.4563122737334189,-0.7622978687286377,0.5665991902351379,-0.3128372728824615,0,0,0,-1,-1,13940.65235591667,unknown,2,2025-04-21T11:31:18.370+03:00,2025-04-20T21:57:49.637+03:00,1587,1.127823,0,0,1187.381,1,4,2025-04-21T11:21:17.391+03:00,766917091.3589115,0,-45.7,100.2813,1,0.65,2025-04-21T11:22:28.578+03:00,87,1.45,2025-04-21T09:28:58.093+03:00,0.01174319131481236,0
2025-04-21T11:31:32.818+03:00,1745224288.775065,40.95361853999372,29.1409886722274,92.00693,-1,-1,-1,-1,30,37.99608032153802,-9999,13955.09478504167,-0.761566162109375,0.5635833740234375,-0.311492919921875,13955.08470904167,-2.355763169585842,-1.181487138580425,-0.6024447928041216,-0.004166293889284134,-0.01108624041080475,0.01096500083804131,0.001921534538269043,0.001441299915313721,0.0006732642650604248,XArbitraryZVertical,0.5857131295891869,-0.02397474498826071,0.6694218337570637,-0.4563327130705662,-0.7622973918914795,0.5666585564613342,-0.3127306699752808,0,0,0,-1,-1,13940.65235591667,unknown,2,2025-04-21T11:31:18.370+03:00,2025-04-20T21:57:49.637+03:00,1587,1.127823,0,0,1187.381,1,4,2025-04-21T11:21:17.391+03:00,766917091.3589115,0,-45.7,100.2813,1,0.65,2025-04-21T11:22:28.578+03:00,87,1.45,2025-04-21T09:28:58.093+03:00,0.01174319131481236,0
2025-04-21T11:31:32.828+03:00,1745224288.775065,40.95361853999372,29.1409886722274,92.00693,-1,-1,-1,-1,30,37.99608032153802,-9999,13955.10486004167,-0.7603759765625,0.56036376953125,-0.310455322265625,13955.09478504167,-2.355797256812334,-1.181617428358223,-0.602570131587417,-0.003097168169915676,-0.006713995710015297,0.009215503931045532,-0.0006669163703918457,-0.001881539821624756,0.00163036584854126,XArbitraryZVertical,0.5857657795314858,-0.02400485977005682,0.6693644761520794,-0.4563477803003363,-0.7622724771499634,0.56676185131073,-0.3126044273376465,0,0,0,-1,-1,13940.65235591667,unknown,2,2025-04-21T11:31:18.370+03:00,2025-04-20T21:57:49.637+03:00,1587,1.127823,0,0,1187.381,1,4,2025-04-21T11:21:17.391+03:00,766917091.3589115,0,-45.7,100.2813,1,0.65,2025-04-21T11:22:28.578+03:00,87,1.45,2025-04-21T09:28:58.093+03:00,0.01174319131481236,0
2025-04-21T11:31:32.838+03:00,1745224288.775065,40.95361853999372,29.1409886722274,92.00693,-1,-1,-1,-1,30,37.99608032153802,-9999,13955.11493504167,-0.764862060546875,0.5620880126953125,-0.3080902099609375,13955.10486004167,-2.355785680969082,-1.181671479693237,-0.6026870994189178,-0.003445509355515242,-0.006382166408002377,0.01473037805408239,0.003301680088043213,-0.005289018154144287,0.00093841552734375,XArbitraryZVertical,0.5857928351447627,-0.02403568653671087,0.6693207729959748,-0.4563755225519098,-0.7622280120849609,0.566858172416687,-0.3125380873680115,0,0,0,-1,-1,13940.65235591667,unknown,2,2025-04-21T11:31:18.370+03:00,2025-04-20T21:57:49.637+03:00,1587,1.127823,0,0,1187.381,1,4,2025-04-21T11:21:17.391+03:00,766917091.3589115,0,-45.7,100.2813,1,0.65,2025-04-21T11:22:28.578+03:00,87,1.45,2025-04-21T09:28:58.093+03:00,0.01174319131481236,0
2025-04-21T11:31:32.848+03:00,1745224288.775065,40.95361853999372,29.1409886722274,92.00693,-1,-1,-1,-1,30,37.99608032153802,-9999,13955.12501004167,-0.7628173828125,0.56512451171875,-0.31195068359375,13955.11493504167,-2.355736840368022,-1.181679021414264,-0.602803909955945,-0.0002419929951429367,-0.003868142608553171,0.01138851046562195,-0.002189338207244873,-0.006438076496124268,0.004096627235412598,XArbitraryZVertical,0.5858047557941501,-0.02406613916409188,0.6692822395718523,-0.4564151564178423,-0.7621691226959229,0.5669544339179993,-0.3125072121620178,0,0,0,-1,-1,13940.65235591667,unknown,2,2025-04-21T11:31:18.370+03:00,2025-04-20T21:57:49.637+03:00,1587,1.127823,0,0,1187.381,1,4,2025-04-21T11:21:17.391+03:00,766917091.3589115,0,-45.7,100.2813,1,0.65,2025-04-21T11:22:28.578+03:00,87,1.45,2025-04-21T09:28:58.093+03:00,0.01174319131481236,0
2025-04-21T11:31:32.858+03:00,1745224288.775065,40.95361853999372,29.1409886722274,92.00693,-1,-1,-1,-1,30,37.99608032153802,-9999,13955.13508504167,-0.7636566162109375,0.566986083984375,-0.311859130859375,13955.12501004167,-2.355691238600756,-1.181684966253454,-0.6028920191220433,-0.0005264185601845384,-0.001128016039729118,0.009489144198596478,-0.001043498516082764,-0.002619683742523193,0.002440452575683594,XArbitraryZVertical,0.5858139342551326,-0.02408647527044455,0.6692511176495359,-0.4564479973224827,-0.7621248364448547,0.5670269727706909,-0.3124837577342987,0,0,0,-1,-1,13940.65235591667,unknown,2,2025-04-21T11:31:18.370+03:00,2025-04-20T21:57:49.637+03:00,1587,1.127823,0,0,1187.381,1,4,2025-04-21T11:21:17.391+03:00,766917091.3589115,0,-45.7,100.2813,1,0.65,2025-04-21T11:22:28.578+03:00,87,1.45,2025-04-21T09:28:58.093+03:00,0.01174319131481236,0
2025-04-21T11:31:32.868+03:00,1745224288.775065,40.95361853999372,29.1409886722274,92.00693,-1,-1,-1,-1,30,37.99608032153802,-9999,13955.14516004167,-0.7669525146484375,0.56683349609375,-0.309051513671875,13955.13508504167,-2.35561658211603,-1.181619423197723,-0.6029704097938283,0.005477877799421549,0.009576760232448578,0.01064971648156643,-0.001394987106323242,-0.0003343820571899414,-0.001097023487091064,XArbitraryZVertical,0.5857988132849808,-0.02411075857924929,0.6692363760322637,-0.4564877550550994,-0.762063205242157,0.5670915842056274,-0.312516838312149,0,0,0,-1,-1,13940.65235591667,unknown,2,2025-04-21T11:31:18.370+03:00,2025-04-20T21:57:49.637+03:00,1587,1.127823,0,0,1187.381,1,4,2025-04-21T11:21:17.391+03:00,766917091.3589115,0,-45.7,100.2813,1,0.65,2025-04-21T11:22:28.578+03:00,87,1.45,2025-04-21T09:28:58.093+03:00,0.01174319131481236,0
2025-04-21T11:31:32.878+03:00,1745224288.775065,40.95361853999372,29.1409886722274,92.00693,-1,-1,-1,-1,30,37.99608032153802,-9999,13955.15523504167,-0.7672271728515625,0.5666961669921875,-0.3096160888671875,13955.14516004167,-2.355522192707372,-1.181493633539295,-0.6030317076925554,0.005970562808215618,0.00396414753049612,0.006659235339611769,-0.003114461898803711,0.0005306005477905273,0.00161018967628479,XArbitraryZVertical,0.5857624983544435,-0.02413624531322724,0.6692383858982798,-0.4565299492571802,-0.7619916796684265,0.5671420693397522,-0.3125994801521301,0,0,0,-1,-1,13940.65235591667,unknown,2,2025-04-21T11:31:18.370+03:00,2025-04-20T21:57:49.637+03:00,1587,1.127823,0,0,1187.381,1,4,2025-04-21T11:21:17.391+03:00,766917091.3589115,0,-45.7,100.2813,1,0.65,2025-04-21T11:22:28.578+03:00,87,1.45,2025-04-21T09:28:58.093+03:00,0.01174319131481236,0
2025-04-21T11:31:32.888+03:00,1745224288.775065,40.95361853999372,29.1409886722274,92.00693,-1,-1,-1,-1,30,37.99608032153802,-9999,13955.16531104167,-0.764923095703125,0.5648040771484375,-0.31195068359375,13955.15523504167,-2.355402710566874,-1.18139479940152,-0.6030713116491037,0.007033896166831255,0.004872751887887716,0.004758371040225029,-0.00589752197265625,-0.0004480481147766113,0.00465238094329834,XArbitraryZVertical,0.5857338610227399,-0.0241395805153912,0.6692314978678423,-0.4565765866689631,-0.7619399428367615,0.5671746730804443,-0.3126662373542786,0,0,0,-1,-1,13940.65235591667,unknown,2,2025-04-21T11:31:18.370+03:00,2025-04-20T21:57:49.637+03:00,1587,1.127823,0,0,1187.381,1,4,2025-04-21T11:21:17.391+03:00,766917091.3589115,0,-45.7,100.2813,1,0.65,2025-04-21T11:22:28.578+03:00,87,1.45,2025-04-21T09:28:58.093+03:00,0.01174319131481236,0
2025-04-21T11:31:32.898+03:00,1745224288.775065,40.95361853999372,29.1409886722274,92.00693,-1,-1,-1,-1,30,37.99608032153802,-9999,13955.17538604167,-0.7677764892578125,0.5623016357421875,-0.3129730224609375,13955.16531104167,-2.35528167948772,-1.181255596094818,-0.6030903192519572,0.007918065413832664,0.00629301555454731,0.004221477545797825,-0.002670347690582275,-0.001089334487915039,0.001336365938186646,XArbitraryZVertical,0.5856901854129922,-0.02414349686854124,0.6692404921963565,-0.4566191525445462,-0.7618864178657532,0.5671903491020203,-0.3127681910991669,0,0,0,-1,-1,13940.65235591667,unknown,2,2025-04-21T11:31:18.370+03:00,2025-04-20T21:57:49.637+03:00,1587,1.127823,0,0,1187.381,1,4,2025-04-21T11:21:17.391+03:00,766917091.3589115,0,-45.7,100.2813,1,0.65,2025-04-21T11:22:28.578+03:00,87,1.45,2025-04-21T09:28:58.093+03:00,0.01174319131481236,0
2025-04-21T11:31:32.908+03:00,1745224288.775065,40.95361853999372,29.1409886722274,92.00693,-1,-1,-1,-1,30,37.99608032153802,-9999,13955.18546104167,-0.7650604248046875,0.563018798828125,-0.31341552734375,13955.17538604167,-2.35518534718109,-1.181146776831952,-0.6030902138085027,0.009905382990837097,0.004470947198569775,0.001681654248386621,-0.005023658275604248,-0.004675030708312988,0.001068353652954102,XArbitraryZVertical,0.5856549112019709,-0.02414005832954595,0.669250464209392,-0.4566500990006115,-0.761852502822876,0.5671902298927307,-0.3128511607646942,0,0,0,-1,-1,13940.65235591667,unknown,2,2025-04-21T11:31:18.370+03:00,2025-04-20T21:57:49.637+03:00,1587,1.127823,0,0,1187.381,1,4,2025-04-21T11:21:17.391+03:00,766917091.3589115,0,-45.7,100.2813,1,0.65,2025-04-21T11:22:28.578+03:00,87,1.45,2025-04-21T09:28:58.093+03:00,0.01174319131481236,0
2025-04-21T11:31:32.919+03:00,1745224288.775065,40.95361853999372,29.1409886722274,92.00693,-1,-1,-1,-1,30,37.99608032153802,-9999,13955.19553604167,-0.763397216796875,0.566009521484375,-0.3099517822265625,13955.18546104167,-2.355081068554173,-1.181066547587018,-0.6030467342616003,0.008709624409675598,-0.0002098246477544308,-0.002222806215286255,-0.004736006259918213,-0.004761278629302979,9.715557098388672e-06,XArbitraryZVertical,0.5856260360923179,-0.0241105384669195,0.6692595279107419,-0.4566754028858007,-0.7618502378463745,0.5671544075012207,-0.3129216432571411,0,0,0,-1,-1,13940.65235591667,unknown,2,2025-04-21T11:31:18.370+03:00,2025-04-20T21:57:49.637+03:00,1587,1.127823,0,0,1187.381,1,4,2025-04-21T11:21:17.391+03:00,766917091.3589115,0,-45.7,100.2813,1,0.65,2025-04-21T11:22:28.578+03:00,87,1.45,2025-04-21T09:28:58.093+03:00,0.01174319131481236,0
2025-04-21T11:31:32.929+03:00,1745224288.775065,40.95361853999372,29.1409886722274,92.00693,-1,-1,-1,-1,30,37.99608032153802,-9999,13955.20561104167,-0.7610015869140625,0.5628509521484375,-0.3065185546875,13955.19553604167,-2.35502762533973,-1.18103966522089,-0.6029878413284941,0.001114155282266438,-0.0001487052068114281,-0.001737644895911217,-0.001646459102630615,-0.002072989940643311,0.001019477844238281,XArbitraryZVertical,0.585613220953101,-0.0240775680819755,0.6692679548652585,-0.4566813150869353,-0.7618727684020996,0.5671059489250183,-0.312954843044281,0,0,0,-1,-1,13940.65235591667,unknown,2,2025-04-21T11:31:18.370+03:00,2025-04-20T21:57:49.637+03:00,1587,1.127823,0,0,1187.381,1,4,2025-04-21T11:21:17.391+03:00,766917091.3589115,0,-45.7,100.2813,1,0.65,2025-04-21T11:22:28.578+03:00,87,1.45,2025-04-21T09:28:58.093+03:00,0.01174319131481236,0
2025-04-21T11:31:32.939+03:00,1745224288.775065,40.95361853999372,29.1409886722274,92.00693,-1,-1,-1,-1,30,37.99608032153802,-9999,13955.21568604167,-0.758148193359375,0.56048583984375,-0.31304931640625,13955.20561104167,-2.355079391250232,-1.181079550888286,-0.6029697531838076,-0.005646012723445892,-0.001307446509599686,-0.001532315276563168,-0.001029431819915771,-0.001707136631011963,0.005357027053833008,XArbitraryZVertical,0.5856245761612149,-0.02407641740371883,0.6692720037646851,-0.4566608886346342,-0.7618947625160217,0.5670910477638245,-0.3129283785820007,0,0,0,-1,-1,13940.65235591667,unknown,2,2025-04-21T11:31:18.370+03:00,2025-04-20T21:57:49.637+03:00,1587,1.127823,0,0,1187.381,1,4,2025-04-21T11:21:17.391+03:00,766917091.3589115,0,-45.7,100.2813,1,0.65,2025-04-21T11:22:28.578+03:00,87,1.45,2025-04-21T09:28:58.093+03:00,0.01174319131481236,0
2025-04-21T11:31:32.957+03:00,1745224288.775065,40.95361853999372,29.1409886722274,92.00693,-1,-1,-1,-1,30,37.99608032153802,-9999,13955.22576204167,-0.757049560546875,0.564453125,-0.3231048583984375,13955.21568604167,-2.355110719718264,-1.18110919194132,-0.6029859802877924,-0.004577352665364742,-0.001047055702656507,0.001195394201204181,0.002496063709259033,-0.00597769021987915,0.003988116979598999,XArbitraryZVertical,0.5856353375294326,-0.02408526628075127,0.6692670118101235,-0.4566540010077434,-0.7618955373764038,0.5671043992042542,-0.3129023015499115,0,0,0,-1,-1,13940.65235591667,unknown,2,2025-04-21T11:31:18.370+03:00,2025-04-20T21:57:49.637+03:00,1587,1.127823,0,0,1187.381,1,4,2025-04-21T11:21:17.391+03:00,766917091.3589115,0,-45.7,100.2813,1,0.65,2025-04-21T11:22:28.578+03:00,87,1.45,2025-04-21T09:28:58.093+03:00,0.01174319131481236,0
2025-04-21T11:31:32.960+03:00,1745224288.775065,40.95361853999372,29.1409886722274,92.00693,-1,-1,-1,-1,30,37.99608032153802,-9999,13955.23583704167,-0.75567626953125,0.565277099609375,-0.31658935546875,13955.22576204167,-2.355140268669016,-1.181123128302068,-0.6030114147581838,-0.002256940584629774,-0.0004965802654623985,0.002389289438724518,0.004318118095397949,-0.005144178867340088,-0.006251335144042969,XArbitraryZVertical,0.5856415863958293,-0.02410089765705479,0.669264097908534,-0.4566492702995411,-0.7618864774703979,0.5671253204345703,-0.3128861486911774,0,0,0,-1,-1,13940.65235591667,unknown,2,2025-04-21T11:31:18.370+03:00,2025-04-20T21:57:49.637+03:00,1587,1.127823,0,0,1187.381,1,4,2025-04-21T11:21:17.391+03:00,766917091.3589115,0,-45.7,100.2813,1,0.65,2025-04-21T11:22:28.578+03:00,87,1.45,2025-04-21T09:28:58.093+03:00,0.01174319131481236,0
2025-04-21T11:31:32.969+03:00,1745224288.775065,40.95361853999372,29.1409886722274,92.00693,-1,-1,-1,-1,30,37.99608032153802,-9999,13955.24591204167,-0.758331298828125,0.56341552734375,-0.2992706298828125,13955.23583704167,-2.355176490656928,-1.181187108187849,-0.6030654256915859,-0.01578227058053017,-0.003749565221369267,0.007853996008634567,0.005378007888793945,-0.001190900802612305,-0.01017218828201294,XArbitraryZVertical,0.5856666320369924,-0.02411837303717547,0.6692420236025829,-0.4566486587188111,-0.7618781924247742,0.5671698451042175,-0.3128257989883423,0,0,0,-1,-1,13940.65235591667,unknown,2,2025-04-21T11:31:18.370+03:00,2025-04-20T21:57:49.637+03:00,1587,1.127823,0,0,1187.381,1,4,2025-04-21T11:21:17.391+03:00,766917091.3589115,0,-45.7,100.2813,1,0.65,2025-04-21T11:22:28.578+03:00,87,1.45,2025-04-21T09:28:58.093+03:00,0.01174319131481236,0
2025-04-21T11:31:32.979+03:00,1745224288.775065,40.95361853999372,29.1409886722274,92.00693,-1,-1,-1,-1,30,37.99608032153802,-9999,13955.25598704167,-0.7573699951171875,0.561248779296875,-0.2923126220703125,13955.24591204167,-2.355490941524153,-1.181362268033139,-0.6032645789227905,-0.03811740130186081,0.004379468038678169,0.01338990963995457,0.005175650119781494,-0.00361323356628418,0.004925459623336792,XArbitraryZVertical,0.5857365055600323,-0.02424978298199215,0.6692194140904387,-0.4565849804797166,-0.7618283033370972,0.5673338174819946,-0.3126493990421295,0,0,0,-1,-1,13940.65235591667,unknown,2,2025-04-21T11:31:18.370+03:00,2025-04-20T21:57:49.637+03:00,1587,1.127823,0,0,1187.381,1,4,2025-04-21T11:21:17.391+03:00,766917091.3589115,0,-45.7,100.2813,1,0.65,2025-04-21T11:22:28.578+03:00,87,1.45,2025-04-21T09:28:58.093+03:00,0.01174319131481236,0
2025-04-21T11:31:32.990+03:00,1745224288.775065,40.95361853999372,29.1409886722274,92.00693,-1,-1,-1,-1,30,37.99608032153802,-9999,13955.26606204167,-0.753631591796875,0.5640869140625,-0.303253173828125,13955.25598704167,-2.355815719449243,-1.181489915415777,-0.603514213097481,-0.02931778691709042,0.011593172326684,0.01509513147175312,0.002200543880462646,-0.004337489604949951,0.01954495906829834,XArbitraryZVertical,0.5857940720027559,-0.02441508114481537,0.669202374827232,-0.4565274309448582,-0.7617372870445251,0.567539393901825,-0.3124984204769135,0,0,0,-1,-1,13940.65235591667,unknown,2,2025-04-21T11:31:18.370+03:00,2025-04-20T21:57:49.637+03:00,1587,1.127823,0,0,1187.381,1,4,2025-04-21T11:21:17.391+03:00,766917091.3589115,0,-45.7,100.2813,1,0.65,2025-04-21T11:22:28.578+03:00,87,1.45,2025-04-21T09:28:58.093+03:00,0.01174319131481236,0
2025-04-21T11:31:32.999+03:00,1745224288.775065,40.95361853999372,29.1409886722274,92.00693,-1,-1,-1,-1,30,37.99608032153802,-9999,13955.27613704167,-0.756134033203125,0.5705413818359375,-0.305206298828125,13955.26606204167,-2.355989734749339,-1.181414833176008,-0.6037824029827719,-0.01986063458025455,0.01885561272501945,0.02033969387412071,0.007193684577941895,-0.007625341415405273,0.01533293724060059,XArbitraryZVertical,0.5857870218011302,-0.02458993752635534,0.6692061690537886,-0.4565214686522197,-0.7615728974342346,0.567760169506073,-0.3124977946281433,0,0,0,-1,-1,13940.65235591667,unknown,2,2025-04-21T11:31:18.370+03:00,2025-04-20T21:57:49.637+03:00,1587,1.127823,0,0,1187.381,1,4,2025-04-21T11:21:17.391+03:00,766917091.3589115,0,-45.7,100.2813,1,0.65,2025-04-21T11:22:28.578+03:00,87,1.45,2025-04-21T09:28:58.093+03:00,0.01174319131481236,0
2025-04-21T11:31:33.009+03:00,1745224288.775065,40.95361853999372,29.1409886722274,92.00693,-1,-1,-1,-1,30,37.99608032153802,-9999,13955.28621204167,-0.7523956298828125,0.5742645263671875,-0.310150146484375,13955.27613704167,-2.356096561141939,-1.181356975473027,-0.6040324618909623,-0.01519923657178879,0.0009395293891429901,0.01634684950113297,0.00599139928817749,0.0004848241806030273,0.007678419351577759,XArbitraryZVertical,0.5857851709620367,-0.02473397231518337,0.6691934813752816,-0.4565345868001066,-0.7614234089851379,0.5679659843444824,-0.312487930059433,0,0,0,-1,-1,13940.65235591667,unknown,2,2025-04-21T11:31:18.370+03:00,2025-04-20T21:57:49.637+03:00,1587,1.127823,0,0,1187.381,1,4,2025-04-21T11:21:17.391+03:00,766917091.3589115,0,-45.7,100.2813,1,0.65,2025-04-21T11:22:28.578+03:00,87,1.45,2025-04-21T09:28:58.093+03:00,0.01174319131481236,0
2025-04-21T11:31:33.019+03:00,1745224288.775065,40.95361853999372,29.1409886722274,92.00693,-1,-1,-1,-1,30,37.99608032153802,-9999,13955.29628804167,-0.753204345703125,0.5723114013671875,-0.3179779052734375,13955.28621204167,-2.356173711441778,-1.181502265245371,-0.6042314306717026,-0.0094670495018363,-0.02165819145739079,0.01567759737372398,0.006252706050872803,0.004303693771362305,0.005465030670166016,XArbitraryZVertical,0.5858477639443825,-0.02480254282647644,0.6691257007900219,-0.4565501088124018,-0.7613644003868103,0.5681297779083252,-0.3123344480991364,0,0,0,-1,-1,13940.65235591667,unknown,2,2025-04-21T11:31:18.370+03:00,2025-04-20T21:57:49.637+03:00,1587,1.127823,0,0,1187.381,1,4,2025-04-21T11:21:17.391+03:00,766917091.3589115,0,-45.7,100.2813,1,0.65,2025-04-21T11:22:28.578+03:00,87,1.45,2025-04-21T09:28:58.093+03:00,0.01174319131481236,0
2025-04-21T11:31:33.029+03:00,1745224288.775065,40.95361853999372,29.1409886722274,92.00693,-1,-1,-1,-1,30,37.99608032153802,-9999,13955.30636304167,-0.7521514892578125,0.5742645263671875,-0.318359375,13955.29628804167,-2.356150125563694,-1.181794138879191,-0.6043455063731498,0.005122146103531122,-0.03610703721642494,0.01032524276524782,0.009106814861297607,0.006223976612091064,-0.003021538257598877,XArbitraryZVertical,0.5859542567804169,-0.02477437478406609,0.6690102463174153,-0.4565842851668046,-0.7613956332206726,0.5682236552238464,-0.3120876848697662,0,0,0,-1,-1,13940.65235591667,unknown,2,2025-04-21T11:31:18.370+03:00,2025-04-20T21:57:49.637+03:00,1587,1.127823,0,0,1187.381,1,4,2025-04-21T11:21:17.391+03:00,766917091.3589115,0,-45.7,100.2813,1,0.65,2025-04-21T11:22:28.578+03:00,87,1.45,2025-04-21T09:28:58.093+03:00,0.01174319131481236,0
2025-04-21T11:31:33.039+03:00,1745224288.775065,40.95361853999372,29.1409886722274,92.00693,-1,-1,-1,-1,30,37.99608032153802,-9999,13955.31643804167,-0.7525787353515625,0.579376220703125,-0.313690185546875,13955.30636304167,-2.355929880925208,-1.182071239708555,-0.6043611018255783,0.02131043560802937,-0.04434233158826828,0.005945674609392881,0.007811665534973145,0.00367814302444458,-0.007432103157043457,XArbitraryZVertical,0.5860508515018904,-0.02465282320008487,0.668875307519219,-0.4566644126138598,-0.7614737749099731,0.5682364702224731,-0.3118732869625092,0,0,0,-1,-1,13940.65235591667,unknown,2,2025-04-21T11:31:18.370+03:00,2025-04-20T21:57:49.637+03:00,1587,1.127823,0,0,1187.381,1,4,2025-04-21T11:21:17.391+03:00,766917091.3589115,0,-45.7,100.2813,1,0.65,2025-04-21T11:22:28.578+03:00,87,1.45,2025-04-21T09:28:58.093+03:00,0.01174319131481236,0
2025-04-21T11:31:33.049+03:00,1745224288.775065,40.95361853999372,29.1409886722274,92.00693,-1,-1,-1,-1,30,37.99608032153802,-9999,13955.32651304167,-0.7587890625,0.5792388916015625,-0.30657958984375,13955.31643804167,-2.355671595776626,-1.182358141808023,-0.6043362123872296,0.01721902191638947,-0.04128368943929672,0.004860436543822289,0.01043200492858887,0.009802162647247314,-0.004547655582427979,XArbitraryZVertical,0.5861480850619838,-0.02450169126862009,0.6687376813466571,-0.456749403028526,-0.7615763545036316,0.5682159662246704,-0.3116601705551147,0,0,0,-1,-1,13940.65235591667,unknown,2,2025-04-21T11:31:18.370+03:00,2025-04-20T21:57:49.637+03:00,1587,1.127823,0,0,1187.381,1,4,2025-04-21T11:21:17.391+03:00,766917091.3589115,0,-45.7,100.2813,1,0.65,2025-04-21T11:22:28.578+03:00,87,1.45,2025-04-21T09:28:58.093+03:00,0.01174319131481236,0
2025-04-21T11:31:33.060+03:00,1745224288.775065,40.95361853999372,29.1409886722274,92.00693,-1,-1,-1,-1,30,37.99608032153802,-9999,13955.33658804167,-0.7609100341796875,0.5774993896484375,-0.308349609375,13955.32651304167,-2.355452087331599,-1.182618131641998,-0.6043101424633828,0.01746163703501225,-0.03463004902005196,0.001112570054829121,0.005521774291992188,0.01067805290222168,0.001424491405487061,XArbitraryZVertical,0.5862357344062117,-0.02436760735770134,0.6686169644639617,-0.4568207880675036,-0.7616710662841797,0.5681945085525513,-0.3114677667617798,0,0,0,-1,-1,13940.65235591667,unknown,2,2025-04-21T11:31:18.370+03:00,2025-04-20T21:57:49.637+03:00,1587,1.127823,0,0,1187.381,1,4,2025-04-21T11:21:17.391+03:00,766917091.3589115,0,-45.7,100.2813,1,0.65,2025-04-21T11:22:28.578+03:00,87,1.45,2025-04-21T09:28:58.093+03:00,0.01174319131481236,0
2025-04-21T11:31:33.070+03:00,1745224288.775065,40.95361853999372,29.1409886722274,92.00693,-1,-1,-1,-1,30,37.99608032153802,-9999,13955.34666304167,-0.76129150390625,0.5735015869140625,-0.3132781982421875,13955.33658804167,-2.355291913435283,-1.182865272570711,-0.6042872246551437,0.01169023383408785,-0.02803905680775642,0.005076518747955561,0.002055466175079346,0.01062065362930298,0.005483090877532959,XArbitraryZVertical,0.5863185815243592,-0.0242551010116066,0.6685128409234745,-0.4568727621182171,-0.7617599964141846,0.5681756734848022,-0.3112844228744507,0,0,0,-1,-1,13940.65235591667,unknown,2,2025-04-21T11:31:18.370+03:00,2025-04-20T21:57:49.637+03:00,1587,1.127823,0,0,1187.381,1,4,2025-04-21T11:21:17.391+03:00,766917091.3589115,0,-45.7,100.2813,1,0.65,2025-04-21T11:22:28.578+03:00,87,1.45,2025-04-21T09:28:58.093+03:00,0.01174319131481236,0
2025-04-21T11:31:33.080+03:00,1745224288.775065,40.95361853999372,29.1409886722274,92.00693,-1,-1,-1,-1,30,37.99608032153802,-9999,13955.35673804167,-0.7618560791015625,0.5686187744140625,-0.3125152587890625,13955.34666304167,-2.355170145215892,-1.18306812335885,-0.6042869609629471,0.005609704181551933,-0.02374710887670517,0.007290137931704521,0.001111686229705811,0.00843888521194458,-0.001095354557037354,XArbitraryZVertical,0.5863878336553343,-0.02417295158629271,0.6684256193547921,-0.4569158708553306,-0.761823296546936,0.5681754350662231,-0.3111299574375153,0,0,0,-1,-1,13940.65235591667,unknown,2,2025-04-21T11:31:18.370+03:00,2025-04-20T21:57:49.637+03:00,1587,1.127823,0,0,1187.381,1,4,2025-04-21T11:21:17.391+03:00,766917091.3589115,0,-45.7,100.2813,1,0.65,2025-04-21T11:22:28.578+03:00,87,1.45,2025-04-21T09:28:58.093+03:00,0.01174319131481236,0
2025-04-21T11:31:33.090+03:00,1745224288.775065,40.95361853999372,29.1409886722274,92.00693,-1,-1,-1,-1,30,37.99608032153802,-9999,13955.36681404167,-0.7576904296875,0.567779541015625,-0.3111572265625,13955.35673804167,-2.355086117315892,-1.183238518679035,-0.6043448270628234,0.006289609242230654,-0.01816459000110626,0.00770239531993866,-0.0005442500114440918,0.002989649772644043,-0.002229392528533936,XArbitraryZVertical,0.5864501415046162,-0.02413239729025816,0.6683439674053721,-0.4569575066008759,-0.7618458867073059,0.5682230591773987,-0.3109877109527588,0,0,0,-1,-1,13940.65235591667,unknown,2,2025-04-21T11:31:18.370+03:00,2025-04-20T21:57:49.637+03:00,1587,1.127823,0,0,1187.381,1,4,2025-04-21T11:21:17.391+03:00,766917091.3589115,0,-45.7,100.2813,1,0.65,2025-04-21T11:22:28.578+03:00,87,1.45,2025-04-21T09:28:58.093+03:00,0.01174319131481236,0
2025-04-21T11:31:33.100+03:00,1745224288.775065,40.95361853999372,29.1409886722274,92.00693,-1,-1,-1,-1,30,37.99608032153802,-9999,13955.37688904167,-0.7598876953125,0.5659942626953125,-0.30828857421875,13955.36681404167,-2.355041811724369,-1.183396294625044,-0.6044296508655271,-0.003351566381752491,-0.01897925138473511,0.008026235736906528,0.002603530883789062,-9.834766387939453e-06,-0.0006588101387023926,XArbitraryZVertical,0.5865097666729093,-0.02411708141959828,0.6682692795921283,-0.4569910780896713,-0.7618503570556641,0.5682928562164307,-0.3108493089675903,0,0,0,-1,-1,13940.65235591667,unknown,2,2025-04-21T11:31:18.370+03:00,2025-04-20T21:57:49.637+03:00,1587,1.127823,0,0,1187.381,1,4,2025-04-21T11:21:17.391+03:00,766917091.3589115,0,-45.7,100.2813,1,0.65,2025-04-21T11:22:28.578+03:00,87,1.45,2025-04-21T09:28:58.093+03:00,0.01174319131481236,0
2025-04-21T11:31:33.110+03:00,1745224288.775065,40.95361853999372,29.1409886722274,92.00693,-1,-1,-1,-1,30,37.99608032153802,-9999,13955.38696404167,-0.75738525390625,0.5628662109375,-0.310882568359375,13955.37688904167,-2.35504271890954,-1.18358714475834,-0.604536078003153,-0.005330760963261127,-0.02241253294050694,0.01010100450366735,0.003049254417419434,-0.001073896884918213,0.0006225407123565674,XArbitraryZVertical,0.5865815151140683,-0.02411606187029364,0.6681905298074187,-0.4570142223381402,-0.7618536353111267,0.5683804154396057,-0.3106810748577118,0,0,0,-1,-1,13940.65235591667,unknown,2,2025-04-21T11:31:18.370+03:00,2025-04-20T21:57:49.637+03:00,1587,1.127823,0,0,1187.381,1,4,2025-04-21T11:21:17.391+03:00,766917091.3589115,0,-45.7,100.2813,1,0.65,2025-04-21T11:22:28.578+03:00,87,1.45,2025-04-21T09:28:58.093+03:00,0.01174319131481236,0
2025-04-21T11:31:33.120+03:00,1745224288.775065,40.95361853999372,29.1409886722274,92.00693,-1,-1,-1,-1,30,37.99608032153802,-9999,13955.39703904167,-0.755950927734375,0.562774658203125,-0.318756103515625,13955.38696404167,-2.355074905363914,-1.183844830089886,-0.6046639844647549,-0.008775826543569565,-0.02748825214803219,0.009445867501199245,0.002497494220733643,-0.003834187984466553,0.002596020698547363,XArbitraryZVertical,0.5866768158524704,-0.02411748676206469,0.6680946609522729,-0.4570319875442978,-0.7618663907051086,0.5684856772422791,-0.310457319021225,0,0,0,-1,-1,13940.65235591667,unknown,2,2025-04-21T11:31:18.370+03:00,2025-04-20T21:57:49.637+03:00,1587,1.127823,0,0,1187.381,1,4,2025-04-21T11:21:17.391+03:00,766917091.3589115,0,-45.7,100.2813,1,0.65,2025-04-21T11:22:28.578+03:00,87,1.45,2025-04-21T09:28:58.093+03:00,0.01174319131481236,0
2025-04-21T11:31:33.130+03:00,1745224288.775065,40.95361853999372,29.1409886722274,92.00693,-1,-1,-1,-1,30,37.99608032153802,-9999,13955.40711404167,-0.7545013427734375,0.563629150390625,-0.3233642578125,13955.39703904167,-2.355140836929668,-1.184211394390856,-0.6047881431705303,-0.008886813186109066,-0.04052941501140594,0.00624384917318821,0.006009459495544434,-0.005279183387756348,-0.004652678966522217,XArbitraryZVertical,0.5868078001220047,-0.02410249014438736,0.6679752258419526,-0.4570389811646846,-0.7619146108627319,0.5685878396034241,-0.3101513385772705,0,0,0,-1,-1,13940.65235591667,unknown,2,2025-04-21T11:31:18.370+03:00,2025-04-20T21:57:49.637+03:00,1587,1.127823,0,0,1187.381,1,4,2025-04-21T11:21:17.391+03:00,766917091.3589115,0,-45.7,100.2813,1,0.65,2025-04-21T11:22:28.578+03:00,87,1.45,2025-04-21T09:28:58.093+03:00,0.01174319131481236,0
2025-04-21T11:31:33.140+03:00,1745224288.775065,40.95361853999372,29.1409886722274,92.00693,-1,-1,-1,-1,30,37.99608032153802,-9999,13955.41718904167,-0.7526397705078125,0.5665740966796875,-0.3153533935546875,13955.40711404167,-2.355316516095262,-1.184741653855881,-0.6049386504234091,-0.02613664045929909,-0.0450245663523674,0.004202003590762615,0.006750762462615967,-0.005753934383392334,-0.01177230477333069,XArbitraryZVertical,0.5869940488087391,-0.02409273344878382,0.6678271943965713,-0.457016600894943,-0.7619996070861816,0.5687116384506226,-0.309715062379837,0,0,0,-1,-1,13940.65235591667,unknown,2,2025-04-21T11:31:18.370+03:00,2025-04-20T21:57:49.637+03:00,1587,1.127823,0,0,1187.381,1,4,2025-04-21T11:21:17.391+03:00,766917091.3589115,0,-45.7,100.2813,1,0.65,2025-04-21T11:22:28.578+03:00,87,1.45,2025-04-21T09:28:58.093+03:00,0.01174319131481236,0
2025-04-21T11:31:33.150+03:00,1745224288.775065,40.95361853999372,29.1409886722274,92.00693,-1,-1,-1,-1,30,37.99608032153802,-9999,13955.42726504167,-0.7558746337890625,0.5666656494140625,-0.30279541015625,13955.41718904167,-2.355632017954824,-1.185396640159799,-0.6050991949301333,-0.0323328860104084,-0.04626413434743881,0.0005041375407017767,0.009630680084228516,-0.003429293632507324,-0.01174119114875793,XArbitraryZVertical,0.587220926874394,-0.02409949538856845,0.6676723621247268,-0.4569511259850442,-0.7621178030967712,0.5688436627388,-0.3091816008090973,0,0,0,-1,-1,13940.65235591667,unknown,2,2025-04-21T11:31:18.370+03:00,2025-04-20T21:57:49.637+03:00,1587,1.127823,0,0,1187.381,1,4,2025-04-21T11:21:17.391+03:00,766917091.3589115,0,-45.7,100.2813,1,0.65,2025-04-21T11:22:28.578+03:00,87,1.45,2025-04-21T09:28:58.093+03:00,0.01174319131481236,0
2025-04-21T11:31:33.160+03:00,1745224288.775065,40.95361853999372,29.1409886722274,92.00693,-1,-1,-1,-1,30,37.99608032153802,-9999,13955.43734004167,-0.7562713623046875,0.5645294189453125,-0.298065185546875,13955.42726504167,-2.35612875511848,-1.186101697361457,-0.605279712382036,-0.05941670015454292,-0.04000650346279144,-6.711052265018225e-05,0.007525444030761719,-0.002540051937103271,0.0006375610828399658,XArbitraryZVertical,0.5874637407768246,-0.02415603913230641,0.6675398210095431,-0.4568297962015952,-0.762240469455719,0.5689921379089355,-0.3086056709289551,0,0,0,-1,-1,13940.65235591667,unknown,2,2025-04-21T11:31:18.370+03:00,2025-04-20T21:57:49.637+03:00,1587,1.127823,0,0,1187.381,1,4,2025-04-21T11:21:17.391+03:00,766917091.3589115,0,-45.7,100.2813,1,0.65,2025-04-21T11:22:28.578+03:00,87,1.45,2025-04-21T09:28:58.093+03:00,0.01174319131481236,0
2025-04-21T11:31:33.170+03:00,1745224288.775065,40.95361853999372,29.1409886722274,92.00693,-1,-1,-1,-1,30,37.99608032153802,-9999,13955.44741504167,-0.7550201416015625,0.5643157958984375,-0.3071746826171875,13955.43734004167,-2.356991874516366,-1.186952892732055,-0.6055518665814037,-0.0899229422211647,-0.03093311563134193,-0.002973551396280527,0.006148993968963623,-0.003374218940734863,0.009391129016876221,XArbitraryZVertical,0.5877575966343153,-0.02432342226068861,0.6674280003968951,-0.4566062931007499,-0.7623593211174011,0.5692158937454224,-0.3078987598419189,0,0,0,-1,-1,13940.65235591667,unknown,2,2025-04-21T11:31:18.370+03:00,2025-04-20T21:57:49.637+03:00,1587,1.127823,0,0,1187.381,1,4,2025-04-21T11:21:17.391+03:00,766917091.3589115,0,-45.7,100.2813,1,0.65,2025-04-21T11:22:28.578+03:00,87,1.45,2025-04-21T09:28:58.093+03:00,0.01174319131481236,0
2025-04-21T11:31:33.181+03:00,1745224288.775065,40.95361853999372,29.1409886722274,92.00693,-1,-1,-1,-1,30,37.99608032153802,-9999,13955.45749004167,-0.754119873046875,0.5670013427734375,-0.323333740234375,13955.44741504167,-2.358040379980364,-1.187849978018856,-0.6058481263225115,-0.09199914336204529,-0.03066280484199524,-0.006384794134646654,0.00654304027557373,-0.00515902042388916,0.005958467721939087,XArbitraryZVertical,0.588066099022585,-0.02454469017934398,0.6673394123900659,-0.4563264061157516,-0.7624785900115967,0.5694594383239746,-0.3071516454219818,0,0,0,-1,-1,13940.65235591667,unknown,2,2025-04-21T11:31:18.370+03:00,2025-04-20T21:57:49.637+03:00,1587,1.127823,0,0,1187.381,1,4,2025-04-21T11:21:17.391+03:00,766917091.3589115,0,-45.7,100.2813,1,0.65,2025-04-21T11:22:28.578+03:00,87,1.45,2025-04-21T09:28:58.093+03:00,0.01174319131481236,0
2025-04-21T11:31:33.191+03:00,1745224288.775065,40.95361853999372,29.1409886722274,92.00693,-1,-1,-1,-1,30,37.99608032153802,-9999,13955.46756504167,-0.7519989013671875,0.571044921875,-0.33349609375,13955.45749004167,-2.359281155543293,-1.188906708268386,-0.6061404207678329,-0.1150493323802948,-0.03789248690009117,-0.01126969791948795,0.008238554000854492,-0.004163265228271484,-0.008764445781707764,XArbitraryZVertical,0.5884248954705038,-0.02478474603391646,0.6672484510897623,-0.4559838834166127,-0.7626482844352722,0.5696997046470642,-0.306283712387085,0,0,0,-1,-1,13940.65235591667,unknown,2,2025-04-21T11:31:18.370+03:00,2025-04-20T21:57:49.637+03:00,1587,1.127823,0,0,1187.381,1,4,2025-04-21T11:21:17.391+03:00,766917091.3589115,0,-45.7,100.2813,1,0.65,2025-04-21T11:22:28.578+03:00,87,1.45,2025-04-21T09:28:58.093+03:00,0.01174319131481236,0
2025-04-21T11:31:33.201+03:00,1745224288.775065,40.95361853999372,29.1409886722274,92.00693,-1,-1,-1,-1,30,37.99608032153802,-9999,13955.47764004167,-0.757049560546875,0.574859619140625,-0.3455963134765625,13955.46756504167,-2.36063081770632,-1.190022940265974,-0.6063766081911206,-0.1083344370126724,-0.03307083249092102,-0.02450720593333244,0.009660482406616211,-0.0003138184547424316,-0.02327677607536316,XArbitraryZVertical,0.5887977824059367,-0.02502143528152891,0.6671764223418176,-0.4555947668243805,-0.7628647089004517,0.5698937773704529,-0.3053821921348572,0,0,0,-1,-1,13940.65235591667,unknown,2,2025-04-21T11:31:18.370+03:00,2025-04-20T21:57:49.637+03:00,1587,1.127823,0,0,1187.381,1,4,2025-04-21T11:21:17.391+03:00,766917091.3589115,0,-45.7,100.2813,1,0.65,2025-04-21T11:22:28.578+03:00,87,1.45,2025-04-21T09:28:58.093+03:00,0.01174319131481236,0
2025-04-21T11:31:33.211+03:00,1745224288.775065,40.95361853999372,29.1409886722274,92.00693,-1,-1,-1,-1,30,37.99608032153802,-9999,13955.48771604167,-0.757781982421875,0.5832061767578125,-0.3486328125,13955.47764004167,-2.362182720187667,-1.191186922557824,-0.6065111467939952,-0.151702344417572,-0.02686800062656403,-0.04580793529748917,0.00962376594543457,0.002352714538574219,-0.03340968489646912,XArbitraryZVertical,0.5891763642758464,-0.02526691525416812,0.6671578467719214,-0.4551186527139955,-0.7631483674049377,0.5700043439865112,-0.3044655919075012,0,0,0,-1,-1,13940.65235591667,unknown,2,2025-04-21T11:31:18.370+03:00,2025-04-20T21:57:49.637+03:00,1587,1.127823,0,0,1187.381,1,4,2025-04-21T11:21:17.391+03:00,766917091.3589115,0,-45.7,100.2813,1,0.65,2025-04-21T11:22:28.578+03:00,87,1.45,2025-04-21T09:28:58.093+03:00,0.01174319131481236,0
2025-04-21T11:31:33.221+03:00,1745224288.775065,40.95361853999372,29.1409886722274,92.00693,-1,-1,-1,-1,30,37.99608032153802,-9999,13955.49779104167,-0.7631072998046875,0.5656280517578125,-0.3526611328125,13955.48771604167,-2.364401427716493,-1.192800220416937,-0.606808004995262,-0.202526643872261,-0.04710030183196068,-0.04101291298866272,0.005623161792755127,0.009051680564880371,-0.04694128036499023,XArbitraryZVertical,0.5897076875032259,-0.02567182194301341,0.6671228895703779,-0.454458814960569,-0.7634814381599426,0.5702482461929321,-0.3031716048717499,0,0,0,-1,-1,13940.65235591667,unknown,2,2025-04-21T11:31:18.370+03:00,2025-04-20T21:57:49.637+03:00,1587,1.127823,0,0,1187.381,1,4,2025-04-21T11:21:17.391+03:00,766917091.3589115,0,-45.7,100.2813,1,0.65,2025-04-21T11:22:28.578+03:00,87,1.45,2025-04-21T09:28:58.093+03:00,0.01174319131481236,0
2025-04-21T11:31:33.231+03:00,1745224288.775065,40.95361853999372,29.1409886722274,92.00693,-1,-1,-1,-1,30,37.99608032153802,-9999,13955.50786604167,-0.76690673828125,0.5455322265625,-0.361602783203125,13955.49779104167,-2.367108572995436,-1.194893709082907,-0.6071560513440435,-0.2397525161504745,-0.07405462116003036,-0.05805458128452301,0.004408299922943115,0.01009327173233032,-0.04591232538223267,XArbitraryZVertical,0.5903957875517226,-0.02613342539822695,0.6670447209757043,-0.4536531205553868,-0.7639297842979431,0.5705341100692749,-0.3014997243881226,0,0,0,-1,-1,13940.65235591667,unknown,2,2025-04-21T11:31:18.370+03:00,2025-04-20T21:57:49.637+03:00,1587,1.127823,0,0,1187.381,1,4,2025-04-21T11:21:17.391+03:00,766917091.3589115,0,-45.7,100.2813,1,0.65,2025-04-21T11:22:28.578+03:00,87,1.45,2025-04-21T09:28:58.093+03:00,0.01174319131481236,0
2025-04-21T11:31:33.241+03:00,1745224288.775065,40.95361853999372,29.1409886722274,92.00693,-1,-1,-1,-1,30,37.99608032153802,-9999,13955.51794104167,-0.767486572265625,0.55169677734375,-0.3773956298828125,13955.50786604167,-2.370033663678695,-1.1974820813919,-0.6074107720504323,-0.2249496132135391,-0.1167424321174622,-0.06805341690778732,-0.002044558525085449,-0.02072501182556152,-0.05989134311676025,XArbitraryZVertical,0.5912384758695667,-0.02651211176744362,0.666887950728834,-0.452763218831365,-0.7645722031593323,0.5707432627677917,-0.2994683384895325,0,0,0,-1,-1,13940.65235591667,unknown,2,2025-04-21T11:31:18.370+03:00,2025-04-20T21:57:49.637+03:00,1587,1.127823,0,0,1187.381,1,4,2025-04-21T11:21:17.391+03:00,766917091.3589115,0,-45.7,100.2813,1,0.65,2025-04-21T11:22:28.578+03:00,87,1.45,2025-04-21T09:28:58.093+03:00,0.01174319131481236,0
2025-04-21T11:31:33.251+03:00,1745224288.775065,40.95361853999372,29.1409886722274,92.00693,-1,-1,-1,-1,30,37.99608032153802,-9999,13955.52801604167,-0.7733154296875,0.5494842529296875,-0.4350433349609375,13955.51794104167,-2.372681295398547,-1.200283604090166,-0.6075582739894608,-0.1838626861572266,-0.1220432594418526,-0.06114720925688744,-0.00223308801651001,-0.02089190483093262,-0.06641370058059692,XArbitraryZVertical,0.5921474950135934,-0.02672026761337976,0.6666262175617121,-0.4519478180052614,-0.7653297781944275,0.5708643794059753,-0.2972947359085083,0,0,0,-1,-1,13940.65235591667,unknown,2,2025-04-21T11:31:18.370+03:00,2025-04-20T21:57:49.637+03:00,1587,1.127823,0,0,1187.381,1,4,2025-04-21T11:21:17.391+03:00,766917091.3589115,0,-45.7,100.2813,1,0.65,2025-04-21T11:22:28.578+03:00,87,1.45,2025-04-21T09:28:58.093+03:00,0.01174319131481236,0
2025-04-21T11:31:33.261+03:00,1745224288.775065,40.95361853999372,29.1409886722274,92.00693,-1,-1,-1,-1,30,37.99608032153802,-9999,13955.53809104167,-0.77325439453125,0.5489501953125,-0.491973876953125,13955.52801604167,-2.375329856681473,-1.203078383611679,-0.6076797483474521,-0.3414541780948639,-0.1186304092407227,-0.07217242568731308,-0.003346741199493408,-0.02079325914382935,-0.1066799163818359,XArbitraryZVertical,0.5930517116022077,-0.02692223987043496,0.6663699114103327,-0.4511274299030488,-0.7660928964614868,0.5709641575813293,-0.2951297163963318,0,0,0,-1,-1,13940.65235591667,unknown,2,2025-04-21T11:31:18.370+03:00,2025-04-20T21:57:49.637+03:00,1587,1.127823,0,0,1187.381,1,4,2025-04-21T11:21:17.391+03:00,766917091.3589115,0,-45.7,100.2813,1,0.65,2025-04-21T11:22:28.578+03:00,87,1.45,2025-04-21T09:28:58.093+03:00,0.01174319131481236,0
2025-04-21T11:31:33.271+03:00,1745224288.775065,40.95361853999372,29.1409886722274,92.00693,-1,-1,-1,-1,30,37.99608032153802,-9999,13955.54816604167,-0.7407989501953125,0.533111572265625,-0.4733123779296875,13955.53809104167,-2.383808584589864,-1.208878912804407,-0.6101018275796546,-1.005537152290344,-0.1021742075681686,0.04095359519124031,-0.009092628955841064,-0.02560287714004517,-0.1824503839015961,XArbitraryZVertical,0.5950278797218455,-0.02909535332823607,0.6660336180371164,-0.4488814484317466,-0.7664964199066162,0.5729508996009827,-0.290190577507019,0,0,0,-1,-1,13940.65235591667,unknown,2,2025-04-21T11:31:18.370+03:00,2025-04-20T21:57:49.637+03:00,1587,1.127823,0,0,1187.381,1,4,2025-04-21T11:21:17.391+03:00,766917091.3589115,0,-45.7,100.2813,1,0.65,2025-04-21T11:22:28.578+03:00,87,1.45,2025-04-21T09:28:58.093+03:00,0.01174319131481236,0
2025-04-21T11:31:33.281+03:00,1745224288.775065,40.95361853999372,29.1409886722274,92.00693,-1,-1,-1,-1,30,37.99608032153802,-9999,13955.55824204167,-0.698486328125,0.43670654296875,-0.5868988037109375,13955.54816604167,-2.394549965662355,-1.216528880663054,-0.614284755264093,-0.9443168640136719,-0.1948602050542831,0.1223384588956833,0.005575120449066162,-0.02287691831588745,-0.1948784291744232,XArbitraryZVertical,0.5976773100918804,-0.03224231273662265,0.6652571023015745,-0.4462904294298515,-0.7664392590522766,0.5763741731643677,-0.2834845185279846,0,0,0,-1,-1,13940.65235591667,unknown,2,2025-04-21T11:31:18.370+03:00,2025-04-20T21:57:49.637+03:00,1587,1.127823,0,0,1187.381,1,4,2025-04-21T11:21:17.391+03:00,766917091.3589115,0,-45.7,100.2813,1,0.65,2025-04-21T11:22:28.578+03:00,87,1.45,2025-04-21T09:28:58.093+03:00,0.01174319131481236,0
2025-04-21T11:31:33.291+03:00,1745224288.775065,40.95361853999372,29.1409886722274,92.00693,-1,-1,-1,-1,30,37.99608032153802,-9999,13955.56831704167,-0.6741943359375,0.5611724853515625,-0.5978851318359375,13955.55824204167,-2.404964744847493,-1.225185821615486,-0.6192984810906015,-0.9544936418533325,-0.3186066448688507,0.2402129024267197,0.04833215475082397,-0.1041457056999207,-0.2456277906894684,XArbitraryZVertical,0.6006806935925043,-0.03541782000792026,0.6639043730834286,-0.444026236400046,-0.7661361694335938,0.5804640650749207,-0.2758565545082092,0,0,0,-1,-1,13940.65235591667,unknown,2,2025-04-21T11:31:18.370+03:00,2025-04-20T21:57:49.637+03:00,1587,1.127823,0,0,1187.381,1,4,2025-04-21T11:21:17.391+03:00,766917091.3589115,0,-45.7,100.2813,1,0.65,2025-04-21T11:22:28.578+03:00,87,1.45,2025-04-21T09:28:58.093+03:00,0.01174319131481236,0
2025-04-21T11:31:33.301+03:00,1745224288.775065,40.95361853999372,29.1409886722274,92.00693,-1,-1,-1,-1,30,37.99608032153802,-9999,13955.57839204167,-0.6870574951171875,0.673583984375,-0.7027740478515625,13955.56831704167,-2.412923548355252,-1.23303791172155,-0.6251592617957593,-0.6139818429946899,-0.3256357908248901,0.4224162697792053,0.08301830291748047,-0.1144012808799744,-0.3368598818778992,XArbitraryZVertical,0.6034702160902452,-0.03838625842971882,0.6620445671924896,-0.4427721360700305,-0.7650555968284607,0.5852264165878296,-0.2687003910541534,0,0,0,-1,-1,13940.65235591667,unknown,2,2025-04-21T11:31:18.370+03:00,2025-04-20T21:57:49.637+03:00,1587,1.127823,0,0,1187.381,1,4,2025-04-21T11:21:17.391+03:00,766917091.3589115,0,-45.7,100.2813,1,0.65,2025-04-21T11:22:28.578+03:00,87,1.45,2025-04-21T09:28:58.093+03:00,0.01174319131481236,0
2025-04-21T11:31:33.311+03:00,1745224288.775065,40.95361853999372,29.1409886722274,92.00693,-1,-1,-1,-1,30,37.99608032153802,-9999,13955.58846704167,-0.7054901123046875,0.65130615234375,-0.75762939453125,13955.57839204167,-2.417347491876071,-1.239976089909569,-0.6307103904071462,-0.4733364880084991,-0.5262534618377686,0.3620638847351074,0.08571654558181763,0.05075371265411377,-0.3669153451919556,XArbitraryZVertical,0.6059756900110497,-0.04037554112577012,0.6597293124163705,-0.4426289512099547,-0.7638170719146729,0.5897186398506165,-0.262326568365097,0,0,0,-1,-1,13940.65235591667,unknown,2,2025-04-21T11:31:18.370+03:00,2025-04-20T21:57:49.637+03:00,1587,1.127823,0,0,1187.381,1,4,2025-04-21T11:21:17.391+03:00,766917091.3589115,0,-45.7,100.2813,1,0.65,2025-04-21T11:22:28.578+03:00,87,1.45,2025-04-21T09:28:58.093+03:00,0.01174319131481236,0
2025-04-21T11:31:33.321+03:00,1745224288.775065,40.95361853999372,29.1409886722274,92.00693,-1,-1,-1,-1,30,37.99608032153802,-9999,13955.59854204167,-0.7093658447265625,0.617584228515625,-0.7196197509765625,13955.58846704167,-2.421285149924864,-1.248274510532072,-0.6357655646078244,-0.4144207239151001,-0.6679842472076416,0.4140423834323883,0.06810802221298218,0.07690638303756714,-0.5018354058265686,XArbitraryZVertical,0.6088872528224885,-0.04172310993810294,0.6569875802345597,-0.4425864905950649,-0.7631305456161499,0.5937936902046204,-0.2550309896469116,0,0,0,-1,-1,13940.65235591667,unknown,2,2025-04-21T11:31:18.370+03:00,2025-04-20T21:57:49.637+03:00,1587,1.127823,0,0,1187.381,1,4,2025-04-21T11:21:17.391+03:00,766917091.3589115,0,-45.7,100.2813,1,0.65,2025-04-21T11:22:28.578+03:00,87,1.45,2025-04-21T09:28:58.093+03:00,0.01174319131481236,0
2025-04-21T11:31:33.332+03:00,1745224288.775065,40.95361853999372,29.1409886722274,92.00693,-1,-1,-1,-1,30,37.99608032153802,-9999,13955.60861704167,-0.68841552734375,0.6433868408203125,-0.7442779541015625,13955.59854204167,-2.422829329398968,-1.257219797913137,-0.6409043118310478,-0.1441764533519745,-0.9291394352912903,0.4552553296089172,0.04915082454681396,0.03219109773635864,-0.4831119477748871,XArbitraryZVertical,0.6120389782701093,-0.04222950234154228,0.6534842970294219,-0.4433769152993173,-0.7624685764312744,0.5979205369949341,-0.2472499161958694,0,0,0,-1,-1,13940.65235591667,unknown,2,2025-04-21T11:31:18.370+03:00,2025-04-20T21:57:49.637+03:00,1587,1.127823,0,0,1187.381,1,4,2025-04-21T11:21:17.391+03:00,766917091.3589115,0,-45.7,100.2813,1,0.65,2025-04-21T11:22:28.578+03:00,87,1.45,2025-04-21T09:28:58.093+03:00,0.01174319131481236,0
2025-04-21T11:31:33.342+03:00,1745224288.775065,40.95361853999372,29.1409886722274,92.00693,-1,-1,-1,-1,30,37.99608032153802,-9999,13955.61869304167,-0.7327880859375,0.69189453125,-0.6929931640625,13955.60861704167,-2.421385366792941,-1.267427057485857,-0.6452183108147495,0.06679569929838181,-1.268844366073608,0.4374827444553375,0.06653052568435669,0.02126199007034302,-0.4930840134620667,XArbitraryZVertical,0.6155981760883938,-0.04120738653414276,0.6490907149103741,-0.4449966176139719,-0.7624838352203369,0.6013728976249695,-0.2386816740036011,0,0,0,-1,-1,13940.65235591667,unknown,2,2025-04-21T11:31:18.370+03:00,2025-04-20T21:57:49.637+03:00,1587,1.127823,0,0,1187.381,1,4,2025-04-21T11:21:17.391+03:00,766917091.3589115,0,-45.7,100.2813,1,0.65,2025-04-21T11:22:28.578+03:00,87,1.45,2025-04-21T09:28:58.093+03:00,0.01174319131481236,0
2025-04-21T11:31:33.352+03:00,1745224288.775065,40.95361853999372,29.1409886722274,92.00693,-1,-1,-1,-1,30,37.99608032153802,-9999,13955.62876804167,-0.786895751953125,0.6930999755859375,-0.6077880859375,13955.61869304167,-2.418683611497754,-1.279369256699946,-0.6493754704254067,0.06936997920274734,-1.399458169937134,0.4808193147182465,0.06062334775924683,0.06477493047714233,-0.5025148391723633,XArbitraryZVertical,0.6197044751490444,-0.03933111344798017,0.643889233504942,-0.4470189994631143,-0.7628785967826843,0.6046891212463379,-0.2288388609886169,0,0,0,-1,-1,13940.65235591667,unknown,2,2025-04-21T11:31:18.370+03:00,2025-04-20T21:57:49.637+03:00,1587,1.127823,0,0,1187.381,1,4,2025-04-21T11:21:17.391+03:00,766917091.3589115,0,-45.7,100.2813,1,0.65,2025-04-21T11:22:28.578+03:00,87,1.45,2025-04-21T09:28:58.093+03:00,0.01174319131481236,0
2025-04-21T11:31:33.362+03:00,1745224288.775065,40.95361853999372,29.1409886722274,92.00693,-1,-1,-1,-1,30,37.99608032153802,-9999,13955.63884304167,-0.7783050537109375,0.658111572265625,-0.5634765625,13955.62876804167,-2.417513402531059,-1.293140988856152,-0.6543121155622126,-0.1811671704053879,-1.483574867248535,0.508314311504364,-0.002638936042785645,0.09264981746673584,-0.4283530116081238,XArbitraryZVertical,0.6243603592576819,-0.03780092128104107,0.6382561889564002,-0.4487474434445554,-0.7630776166915894,0.6086135506629944,-0.2174904644489288,0,0,0,-1,-1,13940.65235591667,unknown,2,2025-04-21T11:31:18.370+03:00,2025-04-20T21:57:49.637+03:00,1587,1.127823,0,0,1187.381,1,4,2025-04-21T11:21:17.391+03:00,766917091.3589115,0,-45.7,100.2813,1,0.65,2025-04-21T11:22:28.578+03:00,87,1.45,2025-04-21T09:28:58.093+03:00,0.01174319131481236,0
2025-04-21T11:31:33.372+03:00,1745224288.775065,40.95361853999372,29.1409886722274,92.00693,-1,-1,-1,-1,30,37.99608032153802,-9999,13955.64891804167,-0.7262725830078125,0.6479339599609375,-0.538604736328125,13955.63884304167,-2.419569318713091,-1.310093203193625,-0.6601747830617761,-0.4372931718826294,-1.636449098587036,0.5252246260643005,-0.02786743640899658,0.06219059228897095,-0.3783541619777679,XArbitraryZVertical,0.6299504904741109,-0.03690526492743137,0.6321035745179729,-0.4497171037075356,-0.7631940841674805,0.6132549047470093,-0.2036007642745972,0,0,0,-1,-1,13940.65235591667,unknown,2,2025-04-21T11:31:18.370+03:00,2025-04-20T21:57:49.637+03:00,1587,1.127823,0,0,1187.381,1,4,2025-04-21T11:21:17.391+03:00,766917091.3589115,0,-45.7,100.2813,1,0.65,2025-04-21T11:22:28.578+03:00,87,1.45,2025-04-21T09:28:58.093+03:00,0.01174319131481236,0
2025-04-21T11:31:33.382+03:00,1745224288.775065,40.95361853999372,29.1409886722274,92.00693,-1,-1,-1,-1,30,37.99608032153802,-9999,13955.65899304167,-0.699188232421875,0.6620025634765625,-0.5020751953125,13955.64891804167,-2.424697700976413,-1.330351104397356,-0.6664876585499085,-0.6316559910774231,-1.755929708480835,0.4896482825279236,0.009617388248443604,0.02962839603424072,-0.3631345629692078,XArbitraryZVertical,0.6364653389017348,-0.03640134096909605,0.6254389116513777,-0.4499031194659887,-0.7633862495422363,0.61822909116745,-0.1871736347675323,0,0,0,-1,-1,13940.65235591667,unknown,2,2025-04-21T11:31:18.370+03:00,2025-04-20T21:57:49.637+03:00,1587,1.127823,0,0,1187.381,1,4,2025-04-21T11:21:17.391+03:00,766917091.3589115,0,-45.7,100.2813,1,0.65,2025-04-21T11:22:28.578+03:00,87,1.45,2025-04-21T09:28:58.093+03:00,0.01174319131481236,0
2025-04-21T11:31:33.392+03:00,1745224288.775065,40.95361853999372,29.1409886722274,92.00693,-1,-1,-1,-1,30,37.99608032153802,-9999,13955.66906804167,-0.7018280029296875,0.6619873046875,-0.4369049072265625,13955.65899304167,-2.431783256257332,-1.35307416145435,-0.6726938994612531,-0.7138954401016235,-1.877963900566101,0.459654301404953,0.05646669864654541,0.03194934129714966,-0.354809582233429,XArbitraryZVertical,0.6436107036877533,-0.03593185139107094,0.6183758718448122,-0.4495392049829212,-0.7636811137199402,0.6230952739715576,-0.1689483225345612,0,0,0,-1,-1,13940.65235591667,unknown,2,2025-04-21T11:31:18.370+03:00,2025-04-20T21:57:49.637+03:00,1587,1.127823,0,0,1187.381,1,4,2025-04-21T11:21:17.391+03:00,766917091.3589115,0,-45.7,100.2813,1,0.65,2025-04-21T11:22:28.578+03:00,87,1.45,2025-04-21T09:28:58.093+03:00,0.01174319131481236,0
2025-04-21T11:31:33.402+03:00,1745224288.775065,40.95361853999372,29.1409886722274,92.00693,-1,-1,-1,-1,30,37.99608032153802,-9999,13955.67914404167,-0.7207794189453125,0.658294677734375,-0.3641204833984375,13955.66906804167,-2.439675064255405,-1.377455263169087,-0.678548220790808,-0.7133046984672546,-1.978010535240173,0.428345113992691,0.06468474864959717,0.03600215911865234,-0.3225908875465393,XArbitraryZVertical,0.6511298981071967,-0.03523240007127652,0.6109478735804189,-0.4489220812595431,-0.7639796733856201,0.6276634931564331,-0.1495770663022995,0,0,0,-1,-1,13940.65235591667,unknown,2,2025-04-21T11:31:18.370+03:00,2025-04-20T21:57:49.637+03:00,1587,1.127823,0,0,1187.381,1,4,2025-04-21T11:21:17.391+03:00,766917091.3589115,0,-45.7,100.2813,1,0.65,2025-04-21T11:22:28.578+03:00,87,1.45,2025-04-21T09:28:58.093+03:00,0.01174319131481236,0
2025-04-21T11:31:33.412+03:00,1745224288.775065,40.95361853999372,29.1409886722274,92.00693,-1,-1,-1,-1,30,37.99608032153802,-9999,13955.68921904167,-0.75311279296875,0.664337158203125,-0.2873992919921875,13955.67914404167,-2.447312374974804,-1.402600430765441,-0.6836908489392497,-0.6151395440101624,-2.05501127243042,0.3639493584632874,0.05468136072158813,0.02816194295883179,-0.2703976035118103,XArbitraryZVertical,0.658750503067033,-0.03403069221959951,0.6032759621449291,-0.4482720227120799,-0.7643066644668579,0.6316586136817932,-0.1297793686389923,0,0,0,-1,-1,13940.65235591667,unknown,2,2025-04-21T11:31:18.370+03:00,2025-04-20T21:57:49.637+03:00,1587,1.127823,0,0,1187.381,1,4,2025-04-21T11:21:17.391+03:00,766917091.3589115,0,-45.7,100.2813,1,0.65,2025-04-21T11:22:28.578+03:00,87,1.45,2025-04-21T09:28:58.093+03:00,0.01174319131481236,0
2025-04-21T11:31:33.422+03:00,1745224288.775065,40.95361853999372,29.1409886722274,92.00693,-1,-1,-1,-1,30,37.99608032153802,-9999,13955.69929404167,-0.7773590087890625,0.6629791259765625,-0.2019195556640625,13955.68921904167,-2.453412674967161,-1.427313382981179,-0.6879394465857254,-0.4370821714401245,-2.072386980056763,0.3320122063159943,0.02789229154586792,0.02475178241729736,-0.2159015536308289,XArbitraryZVertical,0.666134456309544,-0.03210241528469784,0.5955058458357605,-0.4478917738155305,-0.7646170854568481,0.6349466443061829,-0.1104686409235001,0,0,0,-1,-1,13940.65235591667,unknown,2,2025-04-21T11:31:18.370+03:00,2025-04-20T21:57:49.637+03:00,1587,1.127823,0,0,1187.381,1,4,2025-04-21T11:21:17.391+03:00,766917091.3589115,0,-45.7,100.2813,1,0.65,2025-04-21T11:22:28.578+03:00,87,1.45,2025-04-21T09:28:58.093+03:00,0.01174319131481236,0
2025-04-21T11:31:33.432+03:00,1745224288.775065,40.95361853999372,29.1409886722274,92.00693,-1,-1,-1,-1,30,37.99608032153802,-9999,13955.70936904167,-0.7760162353515625,0.639739990234375,-0.11822509765625,13955.69929404167,-2.4570093926009,-1.450373546983989,-0.691704046553953,-0.2014455497264862,-2.044497728347778,0.3315531313419342,-0.003102302551269531,0.02834814786911011,-0.1536644697189331,XArbitraryZVertical,0.6729540584227924,-0.02953683439619531,0.5877479213017556,-0.4481212817834477,-0.7645825147628784,0.6378505229949951,-0.0925208181142807,0,0,0,-1,-1,13940.65235591667,unknown,2,2025-04-21T11:31:18.370+03:00,2025-04-20T21:57:49.637+03:00,1587,1.127823,0,0,1187.381,1,4,2025-04-21T11:21:17.391+03:00,766917091.3589115,0,-45.7,100.2813,1,0.65,2025-04-21T11:22:28.578+03:00,87,1.45,2025-04-21T09:28:58.093+03:00,0.01174319131481236,0
2025-04-21T11:31:33.443+03:00,1745224288.775065,40.95361853999372,29.1409886722274,92.00693,-1,-1,-1,-1,30,37.99608032153802,-9999,13955.71944404167,-0.75543212890625,0.604217529296875,-0.090972900390625,13955.70936904167,-2.458017103529598,-1.471383681530776,-0.6951810293462705,-0.04076585173606873,-1.999758839607239,0.343183159828186,-0.01673758029937744,0.01226174831390381,-0.07986509799957275,XArbitraryZVertical,0.679111297549728,-0.02644481783736015,0.5800916870139821,-0.4490012414113379,-0.7641461491584778,0.6405244469642639,-0.07621703296899796,0,0,0,-1,-1,13940.65235591667,unknown,2,2025-04-21T11:31:18.370+03:00,2025-04-20T21:57:49.637+03:00,1587,1.127823,0,0,1187.381,1,4,2025-04-21T11:21:17.391+03:00,766917091.3589115,0,-45.7,100.2813,1,0.65,2025-04-21T11:22:28.578+03:00,87,1.45,2025-04-21T09:28:58.093+03:00,0.01174319131481236,0
2025-04-21T11:31:33.460+03:00,1745224288.775065,40.95361853999372,29.1409886722274,92.00693,-1,-1,-1,-1,30,37.99608032153802,-9999,13955.72951904167,-0.7177886962890625,0.5716400146484375,-0.0782470703125,13955.71944404167,-2.458142084473999,-1.491586528321315,-0.6987717434061833,-0.07764090597629547,-1.999021053314209,0.363828033208847,-0.004818916320800781,-0.02073448896408081,-0.03737914562225342,XArbitraryZVertical,0.6849583584773647,-0.02325805527874781,0.5724222475053308,-0.4501375265326076,-0.7632321715354919,0.6432777643203735,-0.06058222055435181,0,0,0,-1,-1,13940.65235591667,unknown,2,2025-04-21T11:31:18.370+03:00,2025-04-20T21:57:49.637+03:00,1587,1.127823,0,0,1187.381,1,4,2025-04-21T11:21:17.391+03:00,766917091.3589115,0,-45.7,100.2813,1,0.65,2025-04-21T11:22:28.578+03:00,87,1.45,2025-04-21T09:28:58.093+03:00,0.01174319131481236,0
2025-04-21T11:31:33.463+03:00,1745224288.775065,40.95361853999372,29.1409886722274,92.00693,-1,-1,-1,-1,30,37.99608032153802,-9999,13955.73959504167,-0.7064208984375,0.5473175048828125,-0.048492431640625,13955.72951904167,-2.460174532428975,-1.513042033804437,-0.702527003289346,-0.2899478375911713,-1.99403989315033,0.3727853298187256,0.02565693855285645,-0.05949383974075317,-0.04281401261687279,XArbitraryZVertical,0.6910522196861715,-0.02048673641011647,0.5646525173505251,-0.4507710088176261,-0.7619391083717346,0.6461483836174011,-0.04405424743890762,0,0,0,-1,-1,13940.65235591667,unknown,2,2025-04-21T11:31:18.370+03:00,2025-04-20T21:57:49.637+03:00,1587,1.127823,0,0,1187.381,1,4,2025-04-21T11:21:17.391+03:00,766917091.3589115,0,-45.7,100.2813,1,0.65,2025-04-21T11:22:28.578+03:00,87,1.45,2025-04-21T09:28:58.093+03:00,0.01174319131481236,0
2025-04-21T11:31:33.473+03:00,1745224288.775065,40.95361853999372,29.1409886722274,92.00693,-1,-1,-1,-1,30,37.99608032153802,-9999,13955.74967004167,-0.703521728515625,0.558746337890625,-0.02764892578125,13955.73959504167,-2.465279765889644,-1.53645243121304,-0.7067290096425114,-0.5130584239959717,-2.005027532577515,0.4232237040996552,0.05243033170700073,-0.09313642978668213,-0.03743975982069969,XArbitraryZVertical,0.6975682210067949,-0.01849472810580885,0.5567280158184854,-0.4506775168785315,-0.7600412368774414,0.6493496894836426,-0.02611304447054863,0,0,0,-1,-1,13940.65235591667,unknown,2,2025-04-21T11:31:18.370+03:00,2025-04-20T21:57:49.637+03:00,1587,1.127823,0,0,1187.381,1,4,2025-04-21T11:21:17.391+03:00,766917091.3589115,0,-45.7,100.2813,1,0.65,2025-04-21T11:22:28.578+03:00,87,1.45,2025-04-21T09:28:58.093+03:00,0.01174319131481236,0
2025-04-21T11:31:33.483+03:00,1745224288.775065,40.95361853999372,29.1409886722274,92.00693,-1,-1,-1,-1,30,37.99608032153802,-9999,13955.75974504167,-0.69122314453125,0.5726165771484375,0.023284912109375,13955.74967004167,-2.47336911204587,-1.562113385442794,-0.7111446480725387,-0.7279393076896667,-2.041012048721313,0.4226569831371307,0.05111998319625854,-0.1043463945388794,-0.03152292966842651,XArbitraryZVertical,0.7045690487291197,-0.01712697335796475,0.5485593768217769,-0.4498573126000595,-0.7575865387916565,0.6527013778686523,-0.006578244734555483,0,0,0,-1,-1,13940.65235591667,unknown,2,2025-04-21T11:31:18.370+03:00,2025-04-20T21:57:49.637+03:00,1587,1.127823,0,0,1187.381,1,4,2025-04-21T11:21:17.391+03:00,766917091.3589115,0,-45.7,100.2813,1,0.65,2025-04-21T11:22:28.578+03:00,87,1.45,2025-04-21T09:28:58.093+03:00,0.01174319131481236,0
2025-04-21T11:31:33.493+03:00,1745224288.775065,40.95361853999372,29.1409886722274,92.00693,-1,-1,-1,-1,30,37.99608032153802,-9999,13955.76982004167,-0.673309326171875,0.5501708984375,0.1156005859375,13955.75974504167,-2.484170860992005,-1.589753996441651,-0.7155241368410852,-0.8809528350830078,-2.039445877075195,0.4714397192001343,0.05707353353500366,-0.08612793684005737,-0.02279126830399036,XArbitraryZVertical,0.7119609096652298,-0.0162904261994651,0.5402130716034158,-0.4483479976169459,-0.7546136379241943,0.6560130715370178,0.01430743001401424,0,0,0,-1,-1,13940.65235591667,unknown,2,2025-04-21T11:31:18.370+03:00,2025-04-20T21:57:49.637+03:00,1587,1.127823,0,0,1187.381,1,4,2025-04-21T11:21:17.391+03:00,766917091.3589115,0,-45.7,100.2813,1,0.65,2025-04-21T11:22:28.578+03:00,87,1.45,2025-04-21T09:28:58.093+03:00,0.01174319131481236,0
2025-04-21T11:31:33.503+03:00,1745224288.775065,40.95361853999372,29.1409886722274,92.00693,-1,-1,-1,-1,30,37.99608032153802,-9999,13955.77989504167,-0.655181884765625,0.55743408203125,0.216217041015625,13955.76982004167,-2.496738073804668,-1.618412349904638,-0.7200525557847407,-0.9544249176979065,-1.996044874191284,0.4702399671077728,0.06685221195220947,-0.09581035375595093,0.03178310394287109,XArbitraryZVertical,0.7194698147308682,-0.01595603296324331,0.5317574868959949,-0.4464778713909428,-0.7509188652038574,0.6594241857528687,0.0357828177511692,0,0,0,-1,-1,13940.65235591667,unknown,2,2025-04-21T11:31:18.370+03:00,2025-04-20T21:57:49.637+03:00,1587,1.127823,0,0,1187.381,1,4,2025-04-21T11:21:17.391+03:00,766917091.3589115,0,-45.7,100.2813,1,0.65,2025-04-21T11:22:28.578+03:00,87,1.45,2025-04-21T09:28:58.093+03:00,0.01174319131481236,0
2025-04-21T11:31:33.513+03:00,1745224288.775065,40.95361853999372,29.1409886722274,92.00693,-1,-1,-1,-1,30,37.99608032153802,-9999,13955.78997004167,-0.652069091796875,0.587432861328125,0.316802978515625,13955.77989504167,-2.509832686640118,-1.646720555494113,-0.7242188041866273,-0.9208275675773621,-1.900802731513977,0.4671851992607117,0.08589440584182739,-0.1147600412368774,0.1084692478179932,XArbitraryZVertical,0.7267438706110252,-0.01582116052630211,0.5235147980129817,-0.4444380741083061,-0.7468593120574951,0.6625505089759827,0.05681392550468445,0,0,0,-1,-1,13940.65235591667,unknown,2,2025-04-21T11:31:18.370+03:00,2025-04-20T21:57:49.637+03:00,1587,1.127823,0,0,1187.381,1,4,2025-04-21T11:21:17.391+03:00,766917091.3589115,0,-45.7,100.2813,1,0.65,2025-04-21T11:22:28.578+03:00,87,1.45,2025-04-21T09:28:58.093+03:00,0.01174319131481236,0
2025-04-21T11:31:33.523+03:00,1745224288.775065,40.95361853999372,29.1409886722274,92.00693,-1,-1,-1,-1,30,37.99608032153802,-9999,13955.80004604167,-0.64459228515625,0.6027374267578125,0.4264678955078125,13955.78997004167,-2.522675490147114,-1.673824193525481,-0.7281771828513361,-0.9006362557411194,-1.784189462661743,0.4758868217468262,0.08767616748809814,-0.09168827533721924,0.1882976293563843,XArbitraryZVertical,0.7335736303563142,-0.01584782760885657,0.5155958672967007,-0.4424696005148947,-0.7424306869506836,0.6655102372169495,0.0767628476023674,0,0,0,-1,-1,13940.65235591667,unknown,2,2025-04-21T11:31:18.370+03:00,2025-04-20T21:57:49.637+03:00,1587,1.127823,0,0,1187.381,1,4,2025-04-21T11:21:17.391+03:00,766917091.3589115,0,-45.7,100.2813,1,0.65,2025-04-21T11:22:28.578+03:00,87,1.45,2025-04-21T09:28:58.093+03:00,0.01174319131481236,0
2025-04-21T11:31:33.533+03:00,1745224288.775065,40.95361853999372,29.1409886722274,92.00693,-1,-1,-1,-1,30,37.99608032153802,-9999,13955.81012104167,-0.646087646484375,0.596710205078125,0.4733428955078125,13955.80004604167,-2.534804437511541,-1.699103966240908,-0.7319168476528204,-0.786675751209259,-1.633473873138428,0.4703084826469421,0.08996796607971191,-0.07038116455078125,0.2777544260025024,XArbitraryZVertical,0.7398223485199237,-0.01599202055553857,0.5081452526327519,-0.4406762362924704,-0.7377797961235046,0.6682968139648438,0.09518570452928543,0,0,0,-1,-1,13940.65235591667,unknown,2,2025-04-21T11:31:18.370+03:00,2025-04-20T21:57:49.637+03:00,1587,1.127823,0,0,1187.381,1,4,2025-04-21T11:21:17.391+03:00,766917091.3589115,0,-45.7,100.2813,1,0.65,2025-04-21T11:22:28.578+03:00,87,1.45,2025-04-21T09:28:58.093+03:00,0.01174319131481236,0
2025-04-21T11:31:33.543+03:00,1745224288.775065,40.95361853999372,29.1409886722274,92.00693,-1,-1,-1,-1,30,37.99608032153802,-9999,13955.82019604167,-0.6251983642578125,0.6256561279296875,0.4897918701171875,13955.81012104167,-2.544893259009742,-1.721636720762232,-0.7355182247396091,-0.5867424011230469,-1.504227757453918,0.4518375992774963,0.08715921640396118,-0.07075178623199463,0.349622368812561,XArbitraryZVertical,0.7452889961136188,-0.01597792598530523,0.5012183443541521,-0.4393964252944197,-0.7330637574195862,0.6709715127944946,0.1114219650626183,0,0,0,-1,-1,13940.65235591667,unknown,2,2025-04-21T11:31:18.370+03:00,2025-04-20T21:57:49.637+03:00,1587,1.127823,0,0,1187.381,1,4,2025-04-21T11:21:17.391+03:00,766917091.3589115,0,-45.7,100.2813,1,0.65,2025-04-21T11:22:28.578+03:00,87,1.45,2025-04-21T09:28:58.093+03:00,0.01174319131481236,0
2025-04-21T11:31:33.553+03:00,1745224288.775065,40.95361853999372,29.1409886722274,92.00693,-1,-1,-1,-1,30,37.99608032153802,-9999,13955.83027104167,-0.5952911376953125,0.676361083984375,0.5368194580078125,13955.82019604167,-2.552521213281059,-1.741277023983673,-0.73903989268234,-0.4169998466968536,-1.372269868850708,0.4048068821430206,0.0896984338760376,-0.06885766983032227,0.3533948659896851,XArbitraryZVertical,0.7499679624866042,-0.01567703335267989,0.4947921881445517,-0.4387286374436535,-0.7284006476402283,0.6735786199569702,0.1253954321146011,0,0,0,-1,-1,13940.65235591667,unknown,2,2025-04-21T11:31:18.370+03:00,2025-04-20T21:57:49.637+03:00,1587,1.127823,0,0,1187.381,1,4,2025-04-21T11:21:17.391+03:00,766917091.3589115,0,-45.7,100.2813,1,0.65,2025-04-21T11:22:28.578+03:00,87,1.45,2025-04-21T09:28:58.093+03:00,0.01174319131481236,0
2025-04-21T11:31:33.563+03:00,1745224288.775065,40.95361853999372,29.1409886722274,92.00693,-1,-1,-1,-1,30,37.99608032153802,-9999,13955.84034604167,-0.5857086181640625,0.68218994140625,0.6000518798828125,13955.83027104167,-2.55855915566699,-1.758327362088636,-0.7418575910141193,-0.3615030348300934,-1.194569945335388,0.3088188171386719,0.1157078742980957,-0.02119392156600952,0.3752079010009766,XArbitraryZVertical,0.7539840718584779,-0.01512817851537246,0.4891011673170101,-0.4382453987808638,-0.7242892980575562,0.6756585240364075,0.1374416798353195,0,0,0,-1,-1,13940.65235591667,unknown,2,2025-04-21T11:31:18.370+03:00,2025-04-20T21:57:49.637+03:00,1587,1.127823,0,0,1187.381,1,4,2025-04-21T11:21:17.391+03:00,766917091.3589115,0,-45.7,100.2813,1,0.65,2025-04-21T11:22:28.578+03:00,87,1.45,2025-04-21T09:28:58.093+03:00,0.01174319131481236,0
