loggingTime(txt),locationTimestamp_since1970(s),locationLatitude(WGS84),locationLongitude(WGS84),locationAltitude(m),locationSpeed(m/s),locationSpeedAccuracy(m/s),locationCourse(°),locationCourseAccuracy(°),locationVerticalAccuracy(m),locationHorizontalAccuracy(m),locationFloor(Z),accelerometerTimestamp_sinceReboot(s),accelerometerAccelerationX(G),accelerometerAccelerationY(G),accelerometerAccelerationZ(G),motionTimestamp_sinceReboot(s),motionYaw(rad),motionRoll(rad),motionPitch(rad),motionRotationRateX(rad/s),motionRotationRateY(rad/s),motionRotationRateZ(rad/s),motionUserAccelerationX(G),motionUserAccelerationY(G),motionUserAccelerationZ(G),motionAttitudeReferenceFrame(txt),motionQuaternionX(R),motionQuaternionY(R),motionQuaternionZ(R),motionQuaternionW(R),motionGravityX(G),motionGravityY(G),motionGravityZ(G),motionMagneticFieldX(µT),motionMagneticFieldY(µT),motionMagneticFieldZ(µT),motionHeading(°),motionMagneticFieldCalibrationAccuracy(Z),activityTimestamp_sinceReboot(s),activity(txt),activityActivityConfidence(Z),activityActivityStartDate(txt),pedometerStartDate(txt),pedometerNumberofSteps(N),pedometerAverageActivePace(s/m),pedometerCurrentPace(s/m),pedometerCurrentCadence(steps/s),pedometerDistance(m),pedometerFloorAscended(N),pedometerFloorDescended(N),pedometerEndDate(txt),altimeterTimestamp_sinceReboot(s),altimeterReset(bool),altimeterRelativeAltitude(m),altimeterPressure(kPa),batteryState(N),batteryLevel(R),heartRateBPMTimestamp(txt),heartRateBPM(N),heartRateBPS(R),heartRateVariabilityTimestamp(txt),heartRateVariability(ms),label
2025-04-21T11:14:26.750+03:00,1745223264.941439,40.95357315239047,29.14096675058997,92.88309,-1,-1,-1,-1,30,28.58624055947184,-9999,13423.378258875,-0.79132080078125,0.586334228515625,-0.242889404296875,13423.368183875,-2.355394678847286,-1.270870532570429,-0.6493088288355779,0.02505665272474289,0.04319509491324425,0.007788265123963356,0.02818721532821655,0.02130997180938721,0.01251715421676636,XArbitraryZVertical,-0.6179544737594969,0.02166355963411114,-0.6320702801300979,0.4670653512181769,-0.7609447240829468,0.604636013507843,-0.2353259176015854,0,0,0,-1,-1,13417.69023541667,unknown,2,2025-04-21T11:14:16.935+03:00,2025-04-20T21:57:49.637+03:00,1567,1.115866,1.28579,1.378413,1172.329,1,4,2025-04-21T11:14:24.673+03:00,766916064.7796655,0,-46.29,100.2877,1,0.65,2025-04-21T11:14:06.322+03:00,123,2.05,2025-04-21T09:28:58.093+03:00,0.01174319131481236,0
2025-04-21T11:14:26.754+03:00,1745223264.941439,40.95357315239047,29.14096675058997,92.88309,-1,-1,-1,-1,30,28.58624055947184,-9999,13423.388334875,-0.751708984375,0.6062469482421875,-0.2364654541015625,13423.378258875,-2.355114899303214,-1.270437215606383,-0.6493442483435405,0.02090345323085785,0.01129255350679159,0.005456667393445969,0.01189041137695312,-0.01555293798446655,0.009453058242797852,XArbitraryZVertical,-0.6178226334552559,0.02169208497639962,-0.6321308026121768,0.4671565437676565,-0.7608222365379333,0.6046642661094666,-0.2356492877006531,0,0,0,-1,-1,13417.69023541667,unknown,2,2025-04-21T11:14:16.935+03:00,2025-04-20T21:57:49.637+03:00,1567,1.115866,1.28579,1.378413,1172.329,1,4,2025-04-21T11:14:24.673+03:00,766916064.7796655,0,-46.29,100.2877,1,0.65,2025-04-21T11:14:06.322+03:00,123,2.05,2025-04-21T09:28:58.093+03:00,0.01174319131481236,0
2025-04-21T11:14:26.757+03:00,1745223264.941439,40.95357315239047,29.14096675058997,92.88309,-1,-1,-1,-1,30,28.58624055947184,-9999,13423.398410875,-0.746978759765625,0.6050872802734375,-0.2326202392578125,13423.388334875,-2.354932497151026,-1.2703704611847,-0.6492819345673996,0.01326104626059532,0.001876481575891376,0.006512111984193325,-0.03047823905944824,-0.01828044652938843,-0.007178127765655518,XArbitraryZVertical,-0.6177998423411337,0.02162710370393116,-0.6321229539254194,0.4672003718563363,-0.7608425617218018,0.6046146154403687,-0.2357112467288971,0,0,0,-1,-1,13417.69023541667,unknown,2,2025-04-21T11:14:16.935+03:00,2025-04-20T21:57:49.637+03:00,1567,1.115866,1.28579,1.378413,1172.329,1,4,2025-04-21T11:14:24.673+03:00,766916064.7796655,0,-46.29,100.2877,1,0.65,2025-04-21T11:14:06.322+03:00,123,2.05,2025-04-21T09:28:58.093+03:00,0.01174319131481236,0
2025-04-21T11:14:26.758+03:00,1745223264.941439,40.95357315239047,29.14096675058997,92.88309,-1,-1,-1,-1,30,28.58624055947184,-9999,13423.408485875,-0.7731781005859375,0.6078948974609375,-0.2400360107421875,13423.398410875,-2.354667402256698,-1.269966003785458,-0.6492915363268577,0.02041855826973915,0.04363138228654861,0.01802415773272514,0.009032607078552246,0.001624643802642822,-0.0004481673240661621,XArbitraryZVertical,-0.6176754437636187,0.02164346688838588,-0.6321837223612712,0.4672817807127118,-0.7607415318489075,0.6046222448348999,-0.2360172122716904,0,0,0,-1,-1,13417.69023541667,unknown,2,2025-04-21T11:14:16.935+03:00,2025-04-20T21:57:49.637+03:00,1567,1.115866,1.28579,1.378413,1172.329,1,4,2025-04-21T11:14:24.673+03:00,766916064.7796655,0,-46.29,100.2877,1,0.65,2025-04-21T11:14:06.322+03:00,123,2.05,2025-04-21T09:28:58.093+03:00,0.01174319131481236,0
2025-04-21T11:14:26.765+03:00,1745223264.941439,40.95357315239047,29.14096675058997,92.88309,-1,-1,-1,-1,30,28.58624055947184,-9999,13423.418561875,-0.76220703125,0.6080322265625,-0.237152099609375,13423.408485875,-2.354282957982664,-1.269268216902102,-0.6495088144874108,0.02828666940331459,0.04292890802025795,0.01907893642783165,0.01347243785858154,0.0002919435501098633,0.003888756036758423,XArbitraryZVertical,-0.617471837379135,0.02177223418182975,-0.6322602306633178,0.4674414583481138,-0.7604512572288513,0.6047953367233276,-0.2365089952945709,0,0,0,-1,-1,13417.69023541667,unknown,2,2025-04-21T11:14:16.935+03:00,2025-04-20T21:57:49.637+03:00,1567,1.115866,1.28579,1.378413,1172.329,1,4,2025-04-21T11:14:24.673+03:00,766916064.7796655,0,-46.29,100.2877,1,0.65,2025-04-21T11:14:06.322+03:00,123,2.05,2025-04-21T09:28:58.093+03:00,0.01174319131481236,0
2025-04-21T11:14:26.774+03:00,1745223264.941439,40.95357315239047,29.14096675058997,92.88309,-1,-1,-1,-1,30,28.58624055947184,-9999,13423.428636875,-0.7521514892578125,0.6093597412109375,-0.2363433837890625,13423.418561875,-2.353802683312861,-1.268594755989718,-0.6496474006364591,0.0339173898100853,0.02838405594229698,0.01630765199661255,-0.0129663348197937,0.002989232540130615,-0.00303986668586731,XArbitraryZVertical,-0.6172723467070083,0.02183527306546304,-0.6323244880930947,0.4676150785253766,-0.7602118253707886,0.6049056649208069,-0.2369961440563202,0,0,0,-1,-1,13417.69023541667,unknown,2,2025-04-21T11:14:16.935+03:00,2025-04-20T21:57:49.637+03:00,1567,1.115866,1.28579,1.378413,1172.329,1,4,2025-04-21T11:14:24.673+03:00,766916064.7796655,0,-46.29,100.2877,1,0.65,2025-04-21T11:14:06.322+03:00,123,2.05,2025-04-21T09:28:58.093+03:00,0.01174319131481236,0
2025-04-21T11:14:26.784+03:00,1745223264.941439,40.95357315239047,29.14096675058997,92.88309,-1,-1,-1,-1,30,28.58624055947184,-9999,13423.438712875,-0.760040283203125,0.60589599609375,-0.24102783203125,13423.428636875,-2.353313043029469,-1.267959952050585,-0.649682153391888,0.03078338131308556,0.03351863101124763,0.01639380306005478,-0.002165913581848145,0.003098905086517334,0.0003203451633453369,XArbitraryZVertical,-0.6170790368444833,0.02184612533388111,-0.6323980285283686,0.4677702652184477,-0.7600411772727966,0.6049333214759827,-0.2374724149703979,0,0,0,-1,-1,13417.69023541667,unknown,2,2025-04-21T11:14:16.935+03:00,2025-04-20T21:57:49.637+03:00,1567,1.115866,1.28579,1.378413,1172.329,1,4,2025-04-21T11:14:24.673+03:00,766916064.7796655,0,-46.29,100.2877,1,0.65,2025-04-21T11:14:06.322+03:00,123,2.05,2025-04-21T09:28:58.093+03:00,0.01174319131481236,0
2025-04-21T11:14:26.794+03:00,1745223264.941439,40.95357315239047,29.14096675058997,92.88309,-1,-1,-1,-1,30,28.58624055947184,-9999,13423.448788875,-0.7604522705078125,0.601470947265625,-0.240814208984375,13423.438712875,-2.352934583191817,-1.267403391978969,-0.6497426904192052,0.02400537021458149,0.03106079809367657,0.01499378029257059,0.007722318172454834,0.004378080368041992,0.001541033387184143,XArbitraryZVertical,-0.6169108051669112,0.02188317475471882,-0.6324673070604462,0.4678964573698508,-0.7598736882209778,0.604981541633606,-0.2378843724727631,0,0,0,-1,-1,13417.69023541667,unknown,2,2025-04-21T11:14:16.935+03:00,2025-04-20T21:57:49.637+03:00,1567,1.115866,1.28579,1.378413,1172.329,1,4,2025-04-21T11:14:24.673+03:00,766916064.7796655,0,-46.29,100.2877,1,0.65,2025-04-21T11:14:06.322+03:00,123,2.05,2025-04-21T09:28:58.093+03:00,0.01174319131481236,0
2025-04-21T11:14:26.804+03:00,1745223264.941439,40.95357315239047,29.14096675058997,92.88309,-1,-1,-1,-1,30,28.58624055947184,-9999,13423.458863875,-0.7578582763671875,0.5994110107421875,-0.238037109375,13423.448788875,-2.352661837847573,-1.266954114667781,-0.6499394764746284,0.01779701001942158,0.02930923737585545,0.01688209548592567,-0.0003870129585266113,0.0007576942443847656,-0.002837657928466797,XArbitraryZVertical,-0.6167834173602563,0.02198068408622411,-0.632497508086484,0.4680190410107131,-0.7596532106399536,0.6051382422447205,-0.2381901293992996,0,0,0,-1,-1,13417.69023541667,unknown,2,2025-04-21T11:14:16.935+03:00,2025-04-20T21:57:49.637+03:00,1567,1.115866,1.28579,1.378413,1172.329,1,4,2025-04-21T11:14:24.673+03:00,766916064.7796655,0,-46.29,100.2877,1,0.65,2025-04-21T11:14:06.322+03:00,123,2.05,2025-04-21T09:28:58.093+03:00,0.01174319131481236,0
2025-04-21T11:14:26.814+03:00,1745223264.941439,40.95357315239047,29.14096675058997,92.88309,-1,-1,-1,-1,30,28.58624055947184,-9999,13423.468939875,-0.7577972412109375,0.6035003662109375,-0.2361602783203125,13423.458863875,-2.352454601095324,-1.266541164558541,-0.650041127060022,0.009666912257671356,0.0309622623026371,0.01699954085052013,-0.000956118106842041,-0.003748297691345215,-0.002328798174858093,XArbitraryZVertical,-0.6166611564540242,0.0220529656573789,-0.6325532887171859,0.4681013129033832,-0.7594960331916809,0.6052191257476807,-0.2384853661060333,0,0,0,-1,-1,13417.69023541667,unknown,2,2025-04-21T11:14:16.935+03:00,2025-04-20T21:57:49.637+03:00,1567,1.115866,1.28579,1.378413,1172.329,1,4,2025-04-21T11:14:24.673+03:00,766916064.7796655,0,-46.29,100.2877,1,0.65,2025-04-21T11:14:06.322+03:00,123,2.05,2025-04-21T09:28:58.093+03:00,0.01174319131481236,0
2025-04-21T11:14:26.824+03:00,1745223264.941439,40.95357315239047,29.14096675058997,92.88309,-1,-1,-1,-1,30,28.58624055947184,-9999,13423.479014875,-0.7550811767578125,0.6040191650390625,-0.2384185791015625,13423.468939875,-2.352285988024641,-1.266171463009596,-0.6500415071421993,0.009559386409819126,0.02287537418305874,0.01217139605432749,0.001549422740936279,-0.005808532238006592,0.0007290393114089966,XArbitraryZVertical,-0.6165461029670568,0.02208765805767949,-0.6326277282243037,0.4681506506345829,-0.759407639503479,0.6052194237709045,-0.238766074180603,0,0,0,-1,-1,13417.69023541667,unknown,2,2025-04-21T11:14:16.935+03:00,2025-04-20T21:57:49.637+03:00,1567,1.115866,1.28579,1.378413,1172.329,1,4,2025-04-21T11:14:24.673+03:00,766916064.7796655,0,-46.29,100.2877,1,0.65,2025-04-21T11:14:06.322+03:00,123,2.05,2025-04-21T09:28:58.093+03:00,0.01174319131481236,0
2025-04-21T11:14:26.834+03:00,1745223264.941439,40.95357315239047,29.14096675058997,92.88309,-1,-1,-1,-1,30,28.58624055947184,-9999,13423.489090875,-0.7540283203125,0.6021728515625,-0.2400054931640625,13423.479014875,-2.352103408885373,-1.265841715486332,-0.6501672953870132,0.01222813967615366,0.02172169275581837,0.01492829993367195,0.001459062099456787,-0.001819372177124023,0.002833381295204163,XArbitraryZVertical,-0.6164513254991961,0.02215749758724658,-0.6326581262521621,0.4682310773962916,-0.7592562437057495,0.6053195595741272,-0.2389936149120331,0,0,0,-1,-1,13417.69023541667,unknown,2,2025-04-21T11:14:16.935+03:00,2025-04-20T21:57:49.637+03:00,1567,1.115866,1.28579,1.378413,1172.329,1,4,2025-04-21T11:14:24.673+03:00,766916064.7796655,0,-46.29,100.2877,1,0.65,2025-04-21T11:14:06.322+03:00,123,2.05,2025-04-21T09:28:58.093+03:00,0.01174319131481236,0
2025-04-21T11:14:26.844+03:00,1745223264.941439,40.95357315239047,29.14096675058997,92.88309,-1,-1,-1,-1,30,28.58624055947184,-9999,13423.499166875,-0.7538604736328125,0.602508544921875,-0.241241455078125,13423.489090875,-2.35192044720885,-1.265516204756098,-0.6503033636383493,0.0107610709965229,0.02158833481371403,0.01447479613125324,0.004018783569335938,-0.001408755779266357,0.0007975101470947266,XArbitraryZVertical,-0.6163585068506064,0.02223022981844675,-0.6326848229968415,0.4683138273506412,-0.7590999007225037,0.6054278612136841,-0.2392160147428513,0,0,0,-1,-1,13417.69023541667,unknown,2,2025-04-21T11:14:16.935+03:00,2025-04-20T21:57:49.637+03:00,1567,1.115866,1.28579,1.378413,1172.329,1,4,2025-04-21T11:14:24.673+03:00,766916064.7796655,0,-46.29,100.2877,1,0.65,2025-04-21T11:14:06.322+03:00,123,2.05,2025-04-21T09:28:58.093+03:00,0.01174319131481236,0
2025-04-21T11:14:26.854+03:00,1745223264.941439,40.95357315239047,29.14096675058997,92.88309,-1,-1,-1,-1,30,28.58624055947184,-9999,13423.509241875,-0.7526092529296875,0.6059722900390625,-0.2399139404296875,13423.499166875,-2.351746366468624,-1.265228936457669,-0.6503866406093264,0.009151723235845566,0.01872037537395954,0.0142431017011404,0.004954814910888672,-0.003321349620819092,-0.0005865693092346191,XArbitraryZVertical,-0.6162745466151961,0.02227625221947044,-0.6327137058601774,0.4683831109042425,-0.7589830756187439,0.6054941415786743,-0.2394189089536667,0,0,0,-1,-1,13417.69023541667,unknown,2,2025-04-21T11:14:16.935+03:00,2025-04-20T21:57:49.637+03:00,1567,1.115866,1.28579,1.378413,1172.329,1,4,2025-04-21T11:14:24.673+03:00,766916064.7796655,0,-46.29,100.2877,1,0.65,2025-04-21T11:14:06.322+03:00,123,2.05,2025-04-21T09:28:58.093+03:00,0.01174319131481236,0
2025-04-21T11:14:26.864+03:00,1745223264.941439,40.95357315239047,29.14096675058997,92.88309,-1,-1,-1,-1,30,28.58624055947184,-9999,13423.519317875,-0.756866455078125,0.6051483154296875,-0.23590087890625,13423.509241875,-2.351593548366416,-1.264968746636665,-0.6504761107389362,0.01014887727797031,0.02135590650141239,0.01247333083301783,0.005008697509765625,-0.003056883811950684,-0.001641333103179932,XArbitraryZVertical,-0.616199288583434,0.02232490547343985,-0.6327378170397212,0.4684472604572865,-0.7588691115379333,0.6055653691291809,-0.2396000772714615,0,0,0,-1,-1,13417.69023541667,unknown,2,2025-04-21T11:14:16.935+03:00,2025-04-20T21:57:49.637+03:00,1567,1.115866,1.28579,1.378413,1172.329,1,4,2025-04-21T11:14:24.673+03:00,766916064.7796655,0,-46.29,100.2877,1,0.65,2025-04-21T11:14:06.322+03:00,123,2.05,2025-04-21T09:28:58.093+03:00,0.01174319131481236,0
2025-04-21T11:14:26.874+03:00,1745223264.941439,40.95357315239047,29.14096675058997,92.88309,-1,-1,-1,-1,30,28.58624055947184,-9999,13423.529393875,-0.757843017578125,0.604095458984375,-0.234710693359375,13423.519317875,-2.351411081992409,-1.264627810381366,-0.6505723067911126,0.01717615872621536,0.02526915445923805,0.01010711304843426,0.006122589111328125,0.0003303289413452148,-7.265806198120117e-05,XArbitraryZVertical,-0.6160992324836839,0.02238599856919885,-0.6327782582920797,0.468521249465513,-0.7587317824363708,0.6056419014930725,-0.2398412078619003,0,0,0,-1,-1,13417.69023541667,unknown,2,2025-04-21T11:14:16.935+03:00,2025-04-20T21:57:49.637+03:00,1567,1.115866,1.28579,1.378413,1172.329,1,4,2025-04-21T11:14:24.673+03:00,766916064.7796655,0,-46.29,100.2877,1,0.65,2025-04-21T11:14:06.322+03:00,123,2.05,2025-04-21T09:28:58.093+03:00,0.01174319131481236,0
2025-04-21T11:14:26.885+03:00,1745223264.941439,40.95357315239047,29.14096675058997,92.88309,-1,-1,-1,-1,30,28.58624055947184,-9999,13423.539468875,-0.755035400390625,0.6091461181640625,-0.23431396484375,13423.529393875,-2.351201785301789,-1.264247634248947,-0.6506168067421285,0.01073417346924543,0.02243708446621895,0.007180132437497377,0.001748502254486084,-0.0005290508270263672,0.004220724105834961,XArbitraryZVertical,-0.6159839493253217,0.02242789273322365,-0.6328362834323157,0.4685925278610539,-0.7586148977279663,0.6056773066520691,-0.240121528506279,0,0,0,-1,-1,13417.69023541667,unknown,2,2025-04-21T11:14:16.935+03:00,2025-04-20T21:57:49.637+03:00,1567,1.115866,1.28579,1.378413,1172.329,1,4,2025-04-21T11:14:24.673+03:00,766916064.7796655,0,-46.29,100.2877,1,0.65,2025-04-21T11:14:06.322+03:00,123,2.05,2025-04-21T09:28:58.093+03:00,0.01174319131481236,0
2025-04-21T11:14:26.895+03:00,1745223264.941439,40.95357315239047,29.14096675058997,92.88309,-1,-1,-1,-1,30,28.58624055947184,-9999,13423.549544875,-0.7488250732421875,0.5987091064453125,-0.2348785400390625,13423.539468875,-2.351137869859681,-1.263984111718732,-0.6506821520082207,-0.009232344105839729,0.01851238310337067,0.009866196662187576,0.0006708502769470215,-0.001633942127227783,0.005598843097686768,XArbitraryZVertical,-0.6159052057102604,0.02249538784097287,-0.6328876313536291,0.4686234214646027,-0.758513867855072,0.605729341506958,-0.240309476852417,0,0,0,-1,-1,13417.69023541667,unknown,2,2025-04-21T11:14:16.935+03:00,2025-04-20T21:57:49.637+03:00,1567,1.115866,1.28579,1.378413,1172.329,1,4,2025-04-21T11:14:24.673+03:00,766916064.7796655,0,-46.29,100.2877,1,0.65,2025-04-21T11:14:06.322+03:00,123,2.05,2025-04-21T09:28:58.093+03:00,0.01174319131481236,0
2025-04-21T11:14:26.905+03:00,1745223264.941439,40.95357315239047,29.14096675058997,92.88309,-1,-1,-1,-1,30,28.58624055947184,-9999,13423.559619875,-0.751007080078125,0.588104248046875,-0.245086669921875,13423.549544875,-2.351338799527939,-1.263909392056485,-0.6508270094524637,-0.0281828660517931,0.02584326639771461,0.01232549268752337,0.003376901149749756,0.003301501274108887,0.006025746464729309,XArbitraryZVertical,-0.6158879891540259,0.02263114601558498,-0.6329248620058509,0.46858921407551,-0.75841224193573,0.6058445572853088,-0.2403396368026733,0,0,0,-1,-1,13417.69023541667,unknown,2,2025-04-21T11:14:16.935+03:00,2025-04-20T21:57:49.637+03:00,1567,1.115866,1.28579,1.378413,1172.329,1,4,2025-04-21T11:14:24.673+03:00,766916064.7796655,0,-46.29,100.2877,1,0.65,2025-04-21T11:14:06.322+03:00,123,2.05,2025-04-21T09:28:58.093+03:00,0.01174319131481236,0
2025-04-21T11:14:26.915+03:00,1745223264.941439,40.95357315239047,29.14096675058997,92.88309,-1,-1,-1,-1,30,28.58624055947184,-9999,13423.569695875,-0.756195068359375,0.604644775390625,-0.251739501953125,13423.559619875,-2.351662175779895,-1.263831492550677,-0.651032750051007,-0.02291193790733814,0.02837619930505753,0.01095929183065891,0.009449660778045654,-0.007299184799194336,0.00548255443572998,XArbitraryZVertical,-0.6158719886581204,0.02282902843983346,-0.6329779921240604,0.4685289344992609,-0.7582747340202332,0.6060082316398621,-0.2403610646724701,0,0,0,-1,-1,13417.69023541667,unknown,2,2025-04-21T11:14:16.935+03:00,2025-04-20T21:57:49.637+03:00,1567,1.115866,1.28579,1.378413,1172.329,1,4,2025-04-21T11:14:24.673+03:00,766916064.7796655,0,-46.29,100.2877,1,0.65,2025-04-21T11:14:06.322+03:00,123,2.05,2025-04-21T09:28:58.093+03:00,0.01174319131481236,0
2025-04-21T11:14:26.925+03:00,1745223264.941439,40.95357315239047,29.14096675058997,92.88309,-1,-1,-1,-1,30,28.58624055947184,-9999,13423.579771875,-0.7560272216796875,0.62176513671875,-0.2381744384765625,13423.569695875,-2.351778905730919,-1.263696587013516,-0.6511844732659449,-0.01522964891046286,0.01433188561350107,0.01343689672648907,0.007147610187530518,-0.018024742603302,-0.004651069641113281,XArbitraryZVertical,-0.615837042429741,0.02295562507956,-0.6330124706696002,0.4685220986298801,-0.7581546306610107,0.6061289310455322,-0.2404355555772781,0,0,0,-1,-1,13417.69023541667,unknown,2,2025-04-21T11:14:16.935+03:00,2025-04-20T21:57:49.637+03:00,1567,1.115866,1.28579,1.378413,1172.329,1,4,2025-04-21T11:14:24.673+03:00,766916064.7796655,0,-46.29,100.2877,1,0.65,2025-04-21T11:14:06.322+03:00,123,2.05,2025-04-21T09:28:58.093+03:00,0.01174319131481236,0
2025-04-21T11:14:26.936+03:00,1745223264.941439,40.95357315239047,29.14096675058997,92.88309,-1,-1,-1,-1,30,28.58624055947184,-9999,13423.589846875,-0.7616119384765625,0.59619140625,-0.22845458984375,13423.579771875,-2.352091063577232,-1.263760599313018,-0.6513722286390526,-0.04235181212425232,0.01533776149153709,0.009573981165885925,0.001866519451141357,-0.001633524894714355,-0.01138681173324585,XArbitraryZVertical,-0.6158649410507712,0.02310982532794171,-0.633023302426224,0.4684632053536092,-0.7580615282058716,0.6062782406806946,-0.2403526157140732,0,0,0,-1,-1,13417.69023541667,unknown,2,2025-04-21T11:14:16.935+03:00,2025-04-20T21:57:49.637+03:00,1567,1.115866,1.28579,1.378413,1172.329,1,4,2025-04-21T11:14:24.673+03:00,766916064.7796655,0,-46.29,100.2877,1,0.65,2025-04-21T11:14:06.322+03:00,123,2.05,2025-04-21T09:28:58.093+03:00,0.01174319131481236,0
2025-04-21T11:14:26.945+03:00,1745223264.941439,40.95357315239047,29.14096675058997,92.88309,-1,-1,-1,-1,30,28.58624055947184,-9999,13423.599922875,-0.7570648193359375,0.5826416015625,-0.2339935302734375,13423.589846875,-2.352596827853159,-1.263848684997308,-0.6516165049807987,-0.04784385487437248,0.02477513812482357,0.0165928415954113,0.001914322376251221,0.01529258489608765,0.002066686749458313,XArbitraryZVertical,-0.6159015384814823,0.02334002542433453,-0.6330592055029343,0.4683550989479495,-0.7579414248466492,0.6064724922180176,-0.2402410805225372,0,0,0,-1,-1,13417.69023541667,unknown,2,2025-04-21T11:14:16.935+03:00,2025-04-20T21:57:49.637+03:00,1567,1.115866,1.28579,1.378413,1172.329,1,4,2025-04-21T11:14:24.673+03:00,766916064.7796655,0,-46.29,100.2877,1,0.65,2025-04-21T11:14:06.322+03:00,123,2.05,2025-04-21T09:28:58.093+03:00,0.01174319131481236,0
2025-04-21T11:14:26.955+03:00,1745223264.941439,40.95357315239047,29.14096675058997,92.88309,-1,-1,-1,-1,30,28.58624055947184,-9999,13423.609997875,-0.75018310546875,0.60565185546875,-0.2368316650390625,13423.599922875,-2.353032725352486,-1.263830161780988,-0.6519627979185116,-0.03711158037185669,0.0369388610124588,0.02271837927401066,-0.003875136375427246,-0.01055645942687988,0.01173710823059082,XArbitraryZVertical,-0.6159111819560749,0.02361336878000994,-0.6330884732565516,0.4682891822014577,-0.7577367424964905,0.6067478060722351,-0.2401916533708572,0,0,0,-1,-1,13417.69023541667,unknown,2,2025-04-21T11:14:16.935+03:00,2025-04-20T21:57:49.637+03:00,1567,1.115866,1.28579,1.378413,1172.329,1,4,2025-04-21T11:14:24.673+03:00,766916064.7796655,0,-46.29,100.2877,1,0.65,2025-04-21T11:14:06.322+03:00,123,2.05,2025-04-21T09:28:58.093+03:00,0.01174319131481236,0
2025-04-21T11:14:26.965+03:00,1745223264.941439,40.95357315239047,29.14096675058997,92.88309,-1,-1,-1,-1,30,28.58624055947184,-9999,13423.620073875,-0.749847412109375,0.6214599609375,-0.2404327392578125,13423.609997875,-2.35332927677402,-1.263689487111238,-0.6522640711295972,-0.02563581801950932,0.02460143342614174,0.01880602911114693,0.0004639625549316406,-0.02434569597244263,0.006249487400054932,XArbitraryZVertical,-0.6158810348633088,0.02385486921668892,-0.6331329548686405,0.46825653261213,-0.7575287818908691,0.6069872379302979,-0.24024298787117,0,0,0,-1,-1,13417.69023541667,unknown,2,2025-04-21T11:14:16.935+03:00,2025-04-20T21:57:49.637+03:00,1567,1.115866,1.28579,1.378413,1172.329,1,4,2025-04-21T11:14:24.673+03:00,766916064.7796655,0,-46.29,100.2877,1,0.65,2025-04-21T11:14:06.322+03:00,123,2.05,2025-04-21T09:28:58.093+03:00,0.01174319131481236,0
2025-04-21T11:14:26.975+03:00,1745223264.941439,40.95357315239047,29.14096675058997,92.88309,-1,-1,-1,-1,30,28.58624055947184,-9999,13423.630149875,-0.7557525634765625,0.613067626953125,-0.2427978515625,13423.620073875,-2.35361267200436,-1.263707969291315,-0.6525083024520726,-0.02772426977753639,0.01154129207134247,0.01377798151224852,0.007208764553070068,-0.001529514789581299,0.003352522850036621,XArbitraryZVertical,-0.6158979968889311,0.02403289169436904,-0.63313818562379,0.4682179831931728,-0.7573918104171753,0.6071813106536865,-0.2401841580867767,0,0,0,-1,-1,13417.69023541667,unknown,2,2025-04-21T11:14:16.935+03:00,2025-04-20T21:57:49.637+03:00,1567,1.115866,1.28579,1.378413,1172.329,1,4,2025-04-21T11:14:24.673+03:00,766916064.7796655,0,-46.29,100.2877,1,0.65,2025-04-21T11:14:06.322+03:00,123,2.05,2025-04-21T09:28:58.093+03:00,0.01174319131481236,0
2025-04-21T11:14:26.986+03:00,1745223264.941439,40.95357315239047,29.14096675058997,92.88309,-1,-1,-1,-1,30,28.58624055947184,-9999,13423.640224875,-0.758575439453125,0.599639892578125,-0.2474517822265625,13423.630149875,-2.353974186762396,-1.26383089925984,-0.6527128685977833,-0.0311079490929842,0.005623083095997572,0.005526641849428415,0.007455527782440186,0.01411610841751099,-0.0003791749477386475,XArbitraryZVertical,-0.615944667176181,0.02419504932601121,-0.6331386137507148,0.4681477392351323,-0.75730299949646,0.607343852519989,-0.2400535345077515,0,0,0,-1,-1,13417.69023541667,unknown,2,2025-04-21T11:14:16.935+03:00,2025-04-20T21:57:49.637+03:00,1567,1.115866,1.28579,1.378413,1172.329,1,4,2025-04-21T11:14:24.673+03:00,766916064.7796655,0,-46.29,100.2877,1,0.65,2025-04-21T11:14:06.322+03:00,123,2.05,2025-04-21T09:28:58.093+03:00,0.01174319131481236,0
2025-04-21T11:14:26.996+03:00,1745223264.941439,40.95357315239047,29.14096675058997,92.88309,-1,-1,-1,-1,30,28.58624055947184,-9999,13423.650300875,-0.748626708984375,0.6104583740234375,-0.241668701171875,13423.640224875,-2.354228111880611,-1.264023420216043,-0.6527975191590031,-0.009076150134205818,-0.01130769774317741,-0.001040979288518429,0.001547574996948242,0.005656540393829346,-0.002905607223510742,XArbitraryZVertical,-0.6160075563736205,0.02426117490176933,-0.6331194795469265,0.4680873177299226,-0.757300078868866,0.6074110865592957,-0.2398921698331833,0,0,0,-1,-1,13417.69023541667,unknown,2,2025-04-21T11:14:16.935+03:00,2025-04-20T21:57:49.637+03:00,1567,1.115866,1.28579,1.378413,1172.329,1,4,2025-04-21T11:14:24.673+03:00,766916064.7796655,0,-46.29,100.2877,1,0.65,2025-04-21T11:14:06.322+03:00,123,2.05,2025-04-21T09:28:58.093+03:00,0.01174319131481236,0
2025-04-21T11:14:27.007+03:00,1745223264.941439,40.95357315239047,29.14096675058997,92.88309,-1,-1,-1,-1,30,28.58624055947184,-9999,13423.660376875,-0.7506103515625,0.6104736328125,-0.237823486328125,13423.650300875,-2.35424323263178,-1.264127305185866,-0.6527565384274666,0.004918761551380157,-0.009533765725791454,-0.00185870286077261,-0.001226663589477539,-0.007738709449768066,-0.007630735635757446,XArbitraryZVertical,-0.616037849201866,0.02422560319840026,-0.6331002336704953,0.4680751920849163,-0.7573485970497131,0.6073785424232483,-0.2398209720849991,0,0,0,-1,-1,13417.69023541667,unknown,2,2025-04-21T11:14:16.935+03:00,2025-04-20T21:57:49.637+03:00,1567,1.115866,1.28579,1.378413,1172.329,1,4,2025-04-21T11:14:24.673+03:00,766916064.7796655,0,-46.29,100.2877,1,0.65,2025-04-21T11:14:06.322+03:00,123,2.05,2025-04-21T09:28:58.093+03:00,0.01174319131481236,0
2025-04-21T11:14:27.016+03:00,1745223264.941439,40.95357315239047,29.14096675058997,92.88309,-1,-1,-1,-1,30,28.58624055947184,-9999,13423.670451875,-0.75177001953125,0.6119842529296875,-0.23992919921875,13423.660376875,-2.354186322138235,-1.26416058467834,-0.6526790421510529,0.002188755199313164,-0.01214286498725414,-0.009089184924960136,0.008774995803833008,0.003141403198242188,-0.00185859203338623,XArbitraryZVertical,-0.6160444670137434,0.0241700592340911,-0.6330943858087065,0.4680775063447245,-0.7574016451835632,0.6073169708251953,-0.239810049533844,0,0,0,-1,-1,13417.69023541667,unknown,2,2025-04-21T11:14:16.935+03:00,2025-04-20T21:57:49.637+03:00,1567,1.115866,1.28579,1.378413,1172.329,1,4,2025-04-21T11:14:24.673+03:00,766916064.7796655,0,-46.29,100.2877,1,0.65,2025-04-21T11:14:06.322+03:00,123,2.05,2025-04-21T09:28:58.093+03:00,0.01174319131481236,0
2025-04-21T11:14:27.036+03:00,1745223264.941439,40.95357315239047,29.14096675058997,92.88309,-1,-1,-1,-1,30,28.58624055947184,-9999,13423.680527875,-0.754364013671875,0.6119537353515625,-0.2408294677734375,13423.670451875,-2.3542036332327,-1.264282695344836,-0.6526146893932652,-0.002171771600842476,-0.006836915388703346,-0.01204176526516676,0.006857812404632568,0.003207743167877197,0.001905918121337891,XArbitraryZVertical,-0.6160791139834424,0.02412178667708793,-0.6330753715323721,0.4680600391292178,-0.7574681639671326,0.607265830039978,-0.2397293299436569,0,0,0,-1,-1,13417.69023541667,unknown,2,2025-04-21T11:14:16.935+03:00,2025-04-20T21:57:49.637+03:00,1567,1.115866,1.28579,1.378413,1172.329,1,4,2025-04-21T11:14:24.673+03:00,766916064.7796655,0,-46.29,100.2877,1,0.65,2025-04-21T11:14:06.322+03:00,123,2.05,2025-04-21T09:28:58.093+03:00,0.01174319131481236,0
2025-04-21T11:14:27.038+03:00,1745223264.941439,40.95357315239047,29.14096675058997,92.88309,-1,-1,-1,-1,30,28.58624055947184,-9999,13423.690602875,-0.758392333984375,0.6054840087890625,-0.238372802734375,13423.680527875,-2.354307175367759,-1.264367118835465,-0.652494044464376,-0.007166264113038778,0.009291454218327999,-0.007677110843360424,0.005788207054138184,0.004814207553863525,-0.000241696834564209,XArbitraryZVertical,-0.6160974643192798,0.02408698753105167,-0.6331009154048786,0.4680030640838084,-0.7575581669807434,0.6071699857711792,-0.2396874576807022,0,0,0,-1,-1,13417.69023541667,unknown,2,2025-04-21T11:14:16.935+03:00,2025-04-20T21:57:49.637+03:00,1567,1.115866,1.28579,1.378413,1172.329,1,4,2025-04-21T11:14:24.673+03:00,766916064.7796655,0,-46.29,100.2877,1,0.65,2025-04-21T11:14:06.322+03:00,123,2.05,2025-04-21T09:28:58.093+03:00,0.01174319131481236,0
2025-04-21T11:14:27.046+03:00,1745223264.941439,40.95357315239047,29.14096675058997,92.88309,-1,-1,-1,-1,30,28.58624055947184,-9999,13423.700678875,-0.7596588134765625,0.6067047119140625,-0.2375030517578125,13423.690602875,-2.354386802736771,-1.264295095119659,-0.6523804830150071,-0.001081406837329268,0.01620668545365334,-0.005715658888220787,0.003242671489715576,0.004873871803283691,-0.001066595315933228,XArbitraryZVertical,-0.6160670040097666,0.02408420203908523,-0.6331674088488723,0.4679532306161355,-0.757606565952301,0.6070797443389893,-0.2397627979516983,0,0,0,-1,-1,13417.69023541667,unknown,2,2025-04-21T11:14:16.935+03:00,2025-04-20T21:57:49.637+03:00,1567,1.115866,1.28579,1.378413,1172.329,1,4,2025-04-21T11:14:24.673+03:00,766916064.7796655,0,-46.29,100.2877,1,0.65,2025-04-21T11:14:06.322+03:00,123,2.05,2025-04-21T09:28:58.093+03:00,0.01174319131481236,0
2025-04-21T11:14:27.056+03:00,1745223264.941439,40.95357315239047,29.14096675058997,92.88309,-1,-1,-1,-1,30,28.58624055947184,-9999,13423.710754875,-0.7577972412109375,0.6082000732421875,-0.23663330078125,13423.700678875,-2.354360120323658,-1.264075314766104,-0.6523297030073396,0.009782958775758743,0.02360095083713531,-0.00517903221771121,-0.0008089542388916016,-0.001555442810058594,0.001565873622894287,XArbitraryZVertical,-0.6159947269509176,0.02410760899967036,-0.6332404516121527,0.4679484652265949,-0.7575833201408386,0.6070393919944763,-0.2399386465549469,0,0,0,-1,-1,13417.69023541667,unknown,2,2025-04-21T11:14:16.935+03:00,2025-04-20T21:57:49.637+03:00,1567,1.115866,1.28579,1.378413,1172.329,1,4,2025-04-21T11:14:24.673+03:00,766916064.7796655,0,-46.29,100.2877,1,0.65,2025-04-21T11:14:06.322+03:00,123,2.05,2025-04-21T09:28:58.093+03:00,0.01174319131481236,0
2025-04-21T11:14:27.066+03:00,1745223264.941439,40.95357315239047,29.14096675058997,92.88309,-1,-1,-1,-1,30,28.58624055947184,-9999,13423.720829875,-0.75506591796875,0.6064910888671875,-0.2399139404296875,13423.710754875,-2.354215767830427,-1.263733760756616,-0.6523006331462436,0.0158329289406538,0.02241085097193718,-0.005484463647007942,-0.002140581607818604,-0.0003116726875305176,0.002699747681617737,XArbitraryZVertical,-0.6158865999145714,0.02413176153577941,-0.6333184400248278,0.4679839764608734,-0.7575181126594543,0.6070163249969482,-0.2402027100324631,0,0,0,-1,-1,13417.69023541667,unknown,2,2025-04-21T11:14:16.935+03:00,2025-04-20T21:57:49.637+03:00,1567,1.115866,1.28579,1.378413,1172.329,1,4,2025-04-21T11:14:24.673+03:00,766916064.7796655,0,-46.29,100.2877,1,0.65,2025-04-21T11:14:06.322+03:00,123,2.05,2025-04-21T09:28:58.093+03:00,0.01174319131481236,0
2025-04-21T11:14:27.076+03:00,1745223264.941439,40.95357315239047,29.14096675058997,92.88309,-1,-1,-1,-1,30,28.58624055947184,-9999,13423.730905875,-0.7509002685546875,0.602386474609375,-0.2440185546875,13423.720829875,-2.354076002444695,-1.263460270829192,-0.6522356023842935,0.008168350905179977,0.01268392242491245,-0.00590497674420476,-0.0003071427345275879,0.001235485076904297,0.003788560628890991,XArbitraryZVertical,-0.6157978084639636,0.0241273639570589,-0.6333847905517414,0.4680114155172492,-0.7574901580810547,0.606964647769928,-0.240421861410141,0,0,0,-1,-1,13417.69023541667,unknown,2,2025-04-21T11:14:16.935+03:00,2025-04-20T21:57:49.637+03:00,1567,1.115866,1.28579,1.378413,1172.329,1,4,2025-04-21T11:14:24.673+03:00,766916064.7796655,0,-46.29,100.2877,1,0.65,2025-04-21T11:14:06.322+03:00,123,2.05,2025-04-21T09:28:58.093+03:00,0.01174319131481236,0
2025-04-21T11:14:27.086+03:00,1745223264.941439,40.95357315239047,29.14096675058997,92.88309,-1,-1,-1,-1,30,28.58624055947184,-9999,13423.740981875,-0.75341796875,0.598846435546875,-0.2415313720703125,13423.730905875,-2.353982781307934,-1.263271799856859,-0.65213874575926,0.003692575730383396,0.01003827154636383,-0.00255981320515275,0.002434849739074707,-0.0003966093063354492,0.0006684958934783936,XArbitraryZVertical,-0.6157335250357252,0.02410513514242322,-0.6334427872239069,0.4680183632515915,-0.7575006484985352,0.6068876385688782,-0.2405823320150375,0,0,0,-1,-1,13417.69023541667,unknown,2,2025-04-21T11:14:16.935+03:00,2025-04-20T21:57:49.637+03:00,1567,1.115866,1.28579,1.378413,1172.329,1,4,2025-04-21T11:14:24.673+03:00,766916064.7796655,0,-46.29,100.2877,1,0.65,2025-04-21T11:14:06.322+03:00,123,2.05,2025-04-21T09:28:58.093+03:00,0.01174319131481236,0
2025-04-21T11:14:27.096+03:00,1745223264.941439,40.95357315239047,29.14096675058997,92.88309,-1,-1,-1,-1,30,28.58624055947184,-9999,13423.751056875,-0.754913330078125,0.601593017578125,-0.2406463623046875,13423.740981875,-2.353925830347051,-1.26312120996539,-0.6521192386783203,0.005127220880240202,0.01042070053517818,-0.002918274607509375,0.006575524806976318,-0.004485726356506348,-0.003318488597869873,XArbitraryZVertical,-0.6156853511263113,0.02411523252547581,-0.6334802782944142,0.468030535057757,-0.757475733757019,0.6068721413612366,-0.2407000064849854,0,0,0,-1,-1,13417.69023541667,unknown,2,2025-04-21T11:14:16.935+03:00,2025-04-20T21:57:49.637+03:00,1567,1.115866,1.28579,1.378413,1172.329,1,4,2025-04-21T11:14:24.673+03:00,766916064.7796655,0,-46.29,100.2877,1,0.65,2025-04-21T11:14:06.322+03:00,123,2.05,2025-04-21T09:28:58.093+03:00,0.01174319131481236,0
2025-04-21T11:14:27.106+03:00,1745223264.941439,40.95357315239047,29.14096675058997,92.88309,-1,-1,-1,-1,30,28.58624055947184,-9999,13423.761132875,-0.7535552978515625,0.603973388671875,-0.2416534423828125,13423.751056875,-2.353921702865699,-1.263015842039904,-0.6521093983841626,0.002802547300234437,0.01037835702300072,-0.002768338657915592,0.004038155078887939,-0.008017957210540771,-0.0007497072219848633,XArbitraryZVertical,-0.6156514418136074,0.02413478971146193,-0.6335139762797268,0.4680285171356412,-0.7574560642242432,0.606864333152771,-0.2407816350460052,0,0,0,-1,-1,13417.69023541667,unknown,2,2025-04-21T11:14:16.935+03:00,2025-04-20T21:57:49.637+03:00,1567,1.115866,1.28579,1.378413,1172.329,1,4,2025-04-21T11:14:24.673+03:00,766916064.7796655,0,-46.29,100.2877,1,0.65,2025-04-21T11:14:06.322+03:00,123,2.05,2025-04-21T09:28:58.093+03:00,0.01174319131481236,0
2025-04-21T11:14:27.117+03:00,1745223264.941439,40.95357315239047,29.14096675058997,92.88309,-1,-1,-1,-1,30,28.58624055947184,-9999,13423.771207875,-0.75091552734375,0.60394287109375,-0.24127197265625,13423.761132875,-2.353895726604945,-1.262943006348841,-0.6521122573010469,0.001475494122132659,0.0009981710463762283,-0.002349157352000475,0.002523660659790039,-0.005273580551147461,0.0001899600028991699,XArbitraryZVertical,-0.6156288444696127,0.02414492740930876,-0.6335297257392301,0.4680364922309191,-0.7574369311332703,0.6068665981292725,-0.2408362925052643,0,0,0,-1,-1,13417.69023541667,unknown,2,2025-04-21T11:14:16.935+03:00,2025-04-20T21:57:49.637+03:00,1567,1.115866,1.28579,1.378413,1172.329,1,4,2025-04-21T11:14:24.673+03:00,766916064.7796655,0,-46.29,100.2877,1,0.65,2025-04-21T11:14:06.322+03:00,123,2.05,2025-04-21T09:28:58.093+03:00,0.01174319131481236,0
2025-04-21T11:14:27.127+03:00,1745223264.941439,40.95357315239047,29.14096675058997,92.88309,-1,-1,-1,-1,30,28.58624055947184,-9999,13423.781283875,-0.752777099609375,0.605499267578125,-0.2439117431640625,13423.771207875,-2.353940114893597,-1.262951141174652,-0.6521105681406123,-0.008679937571287155,0.001257563009858131,-0.005007258616387844,0.003884613513946533,-0.002891898155212402,-0.0008229613304138184,XArbitraryZVertical,-0.6156307881164241,0.02415603770302774,-0.6335379729548745,0.4680221672570594,-0.7574398517608643,0.6068652272224426,-0.2408304363489151,0,0,0,-1,-1,13417.69023541667,unknown,2,2025-04-21T11:14:16.935+03:00,2025-04-20T21:57:49.637+03:00,1567,1.115866,1.28579,1.378413,1172.329,1,4,2025-04-21T11:14:24.673+03:00,766916064.7796655,0,-46.29,100.2877,1,0.65,2025-04-21T11:14:06.322+03:00,123,2.05,2025-04-21T09:28:58.093+03:00,0.01174319131481236,0
2025-04-21T11:14:27.137+03:00,1745223264.941439,40.95357315239047,29.14096675058997,92.88309,-1,-1,-1,-1,30,28.58624055947184,-9999,13423.791359875,-0.75537109375,0.6087493896484375,-0.242431640625,13423.781283875,-2.354128770997593,-1.263085720405723,-0.6520852015249722,-0.01310504600405693,-0.006259741727262735,-0.007408098317682743,0.006571531295776367,-0.00290226936340332,-0.0005387663841247559,XArbitraryZVertical,-0.6156696249518432,0.02417272175354754,-0.6335464923123215,0.4679587675623327,-0.7574869990348816,0.6068450808525085,-0.2407331913709641,0,0,0,-1,-1,13417.69023541667,unknown,2,2025-04-21T11:14:16.935+03:00,2025-04-20T21:57:49.637+03:00,1567,1.115866,1.28579,1.378413,1172.329,1,4,2025-04-21T11:14:24.673+03:00,766916064.7796655,0,-46.29,100.2877,1,0.65,2025-04-21T11:14:06.322+03:00,123,2.05,2025-04-21T09:28:58.093+03:00,0.01174319131481236,0
2025-04-21T11:14:27.147+03:00,1745223264.941439,40.95357315239047,29.14096675058997,92.88309,-1,-1,-1,-1,30,28.58624055947184,-9999,13423.801434875,-0.759735107421875,0.6097869873046875,-0.2422027587890625,13423.791359875,-2.354231268196406,-1.263154056620891,-0.6520630639140681,-0.004115213174372911,0.01196460239589214,-0.002448193728923798,0.004739224910736084,-0.00132828950881958,-0.003226220607757568,XArbitraryZVertical,-0.6156887186752762,0.0241796647937655,-0.6335544600993507,0.4679225085639519,-0.7575162649154663,0.6068274974822998,-0.2406854927539825,0,0,0,-1,-1,13417.69023541667,unknown,2,2025-04-21T11:14:16.935+03:00,2025-04-20T21:57:49.637+03:00,1567,1.115866,1.28579,1.378413,1172.329,1,4,2025-04-21T11:14:24.673+03:00,766916064.7796655,0,-46.29,100.2877,1,0.65,2025-04-21T11:14:06.322+03:00,123,2.05,2025-04-21T09:28:58.093+03:00,0.01174319131481236,0
2025-04-21T11:14:27.157+03:00,1745223264.941439,40.95357315239047,29.14096675058997,92.88309,-1,-1,-1,-1,30,28.58624055947184,-9999,13423.811510875,-0.7581329345703125,0.60552978515625,-0.23748779296875,13423.801434875,-2.354317358035826,-1.263061479767624,-0.6520460488922124,-0.006482496857643127,0.01687520369887352,-0.007585430983453989,0.002132713794708252,0.001935482025146484,-0.001672834157943726,XArbitraryZVertical,-0.6156573316056649,0.02422117837111576,-0.6336070078971214,0.467890592653123,-0.757503867149353,0.6068139672279358,-0.2407587617635727,0,0,0,-1,-1,13417.69023541667,unknown,2,2025-04-21T11:14:16.935+03:00,2025-04-20T21:57:49.637+03:00,1567,1.115866,1.28579,1.378413,1172.329,1,4,2025-04-21T11:14:24.673+03:00,766916064.7796655,0,-46.29,100.2877,1,0.65,2025-04-21T11:14:06.322+03:00,123,2.05,2025-04-21T09:28:58.093+03:00,0.01174319131481236,0
2025-04-21T11:14:27.167+03:00,1745223264.941439,40.95357315239047,29.14096675058997,92.88309,-1,-1,-1,-1,30,28.58624055947184,-9999,13423.821586875,-0.7505645751953125,0.6085357666015625,-0.2301177978515625,13423.811510875,-2.354389149180458,-1.262992464031863,-0.6519997571721869,-0.004704237915575504,0.009105498902499676,-0.003823816310614347,-0.002221167087554932,0.00300973653793335,-0.001383170485496521,XArbitraryZVertical,-0.6156318715258341,0.02424145488353213,-0.6336554089442822,0.4678572841260433,-0.7575138211250305,0.6067771911621094,-0.2408194988965988,0,0,0,-1,-1,13417.69023541667,unknown,2,2025-04-21T11:14:16.935+03:00,2025-04-20T21:57:49.637+03:00,1567,1.115866,1.28579,1.378413,1172.329,1,4,2025-04-21T11:14:24.673+03:00,766916064.7796655,0,-46.29,100.2877,1,0.65,2025-04-21T11:14:06.322+03:00,123,2.05,2025-04-21T09:28:58.093+03:00,0.01174319131481236,0
2025-04-21T11:14:27.177+03:00,1745223264.941439,40.95357315239047,29.14096675058997,92.88309,-1,-1,-1,-1,30,28.58624055947184,-9999,13423.831661875,-0.756011962890625,0.6036834716796875,-0.238372802734375,13423.821586875,-2.354455498710055,-1.262902619642178,-0.6519749523947784,-0.006292813457548618,0.01567365229129791,-0.003980409819632769,-0.0006262660026550293,-0.001227736473083496,0.003404393792152405,XArbitraryZVertical,-0.6156011314427012,0.02427324311547929,-0.6337041904522929,0.4678299883618359,-0.7575065493583679,0.6067574620246887,-0.2408921122550964,0,0,0,-1,-1,13417.69023541667,unknown,2,2025-04-21T11:14:16.935+03:00,2025-04-20T21:57:49.637+03:00,1567,1.115866,1.28579,1.378413,1172.329,1,4,2025-04-21T11:14:24.673+03:00,766916064.7796655,0,-46.29,100.2877,1,0.65,2025-04-21T11:14:06.322+03:00,123,2.05,2025-04-21T09:28:58.093+03:00,0.01174319131481236,0
2025-04-21T11:14:27.187+03:00,1745223264.941439,40.95357315239047,29.14096675058997,92.88309,-1,-1,-1,-1,30,28.58624055947184,-9999,13423.841737875,-0.7507476806640625,0.5992279052734375,-0.24627685546875,13423.831661875,-2.35460879046363,-1.262823526346058,-0.6519703895189349,-0.01619584485888481,0.01743979379534721,-0.00168200209736824,0.006925642490386963,0.001781880855560303,0.01083517074584961,XArbitraryZVertical,-0.6155739263091744,0.02433712397557975,-0.63376548215213,0.4677795324500734,-0.7574902176856995,0.6067538261413574,-0.2409528940916061,0,0,0,-1,-1,13417.69023541667,unknown,2,2025-04-21T11:14:16.935+03:00,2025-04-20T21:57:49.637+03:00,1567,1.115866,1.28579,1.378413,1172.329,1,4,2025-04-21T11:14:24.673+03:00,766916064.7796655,0,-46.29,100.2877,1,0.65,2025-04-21T11:14:06.322+03:00,123,2.05,2025-04-21T09:28:58.093+03:00,0.01174319131481236,0
2025-04-21T11:14:27.197+03:00,1745223264.941439,40.95357315239047,29.14096675058997,92.88309,-1,-1,-1,-1,30,28.58624055947184,-9999,13423.851813875,-0.7454986572265625,0.6002197265625,-0.243621826171875,13423.841737875,-2.354888235792644,-1.262898181645598,-0.6520141897149794,-0.02661972306668758,0.004027317278087139,-0.00244952505454421,0.001470983028411865,-0.003105223178863525,0.002515554428100586,XArbitraryZVertical,-0.6155967673957269,0.02442271395331967,-0.6337979708233852,0.4677010490063059,-0.7574828863143921,0.6067886352539062,-0.2408882975578308,0,0,0,-1,-1,13417.69023541667,unknown,2,2025-04-21T11:14:16.935+03:00,2025-04-20T21:57:49.637+03:00,1567,1.115866,1.28579,1.378413,1172.329,1,4,2025-04-21T11:14:24.673+03:00,766916064.7796655,0,-46.29,100.2877,1,0.65,2025-04-21T11:14:06.322+03:00,123,2.05,2025-04-21T09:28:58.093+03:00,0.01174319131481236,0
2025-04-21T11:14:27.207+03:00,1745223264.941439,40.95357315239047,29.14096675058997,92.88309,-1,-1,-1,-1,30,28.58624055947184,-9999,13423.861888875,-0.7501068115234375,0.6018829345703125,-0.2465057373046875,13423.851813875,-2.355228145108193,-1.263046205047023,-0.6520737475450878,-0.02733751200139523,0.005230999086052179,-0.002206012373790145,0.006736397743225098,-0.00760805606842041,-0.005511611700057983,XArbitraryZVertical,-0.6156430389411476,0.02451590832266296,-0.6338184200447169,0.4676075867988603,-0.7574841380119324,0.6068359613418579,-0.240765243768692,0,0,0,-1,-1,13417.69023541667,unknown,2,2025-04-21T11:14:16.935+03:00,2025-04-20T21:57:49.637+03:00,1567,1.115866,1.28579,1.378413,1172.329,1,4,2025-04-21T11:14:24.673+03:00,766916064.7796655,0,-46.29,100.2877,1,0.65,2025-04-21T11:14:06.322+03:00,123,2.05,2025-04-21T09:28:58.093+03:00,0.01174319131481236,0
2025-04-21T11:14:27.217+03:00,1745223264.941439,40.95357315239047,29.14096675058997,92.88309,-1,-1,-1,-1,30,28.58624055947184,-9999,13423.871964875,-0.75262451171875,0.610107421875,-0.248077392578125,13423.861888875,-2.355546172964081,-1.263139179216162,-0.6521454666734726,-0.02480963990092278,0.01094481162726879,-0.0002126363397110254,0.01196640729904175,-0.006673336029052734,-0.002940177917480469,XArbitraryZVertical,-0.6156728362877789,0.02461999608951904,-0.6338479007546736,0.4675229141469239,-0.7574650645256042,0.606893002986908,-0.2406816333532333,0,0,0,-1,-1,13417.69023541667,unknown,2,2025-04-21T11:14:16.935+03:00,2025-04-20T21:57:49.637+03:00,1567,1.115866,1.28579,1.378413,1172.329,1,4,2025-04-21T11:14:24.673+03:00,766916064.7796655,0,-46.29,100.2877,1,0.65,2025-04-21T11:14:06.322+03:00,123,2.05,2025-04-21T09:28:58.093+03:00,0.01174319131481236,0
2025-04-21T11:14:27.227+03:00,1745223264.941439,40.95357315239047,29.14096675058997,92.88309,-1,-1,-1,-1,30,28.58624055947184,-9999,13423.882039875,-0.7522125244140625,0.6165618896484375,-0.248748779296875,13423.871964875,-2.355745894363387,-1.263155004655236,-0.6521999104995317,-0.01463150419294834,0.009040984325110912,-0.0006919719744473696,0.007330477237701416,-0.005053341388702393,-0.0058460533618927,XArbitraryZVertical,-0.6156786029166463,0.0246989757699901,-0.6338773841935714,0.4674711821764087,-0.7574373483657837,0.6069362759590149,-0.2406596392393112,0,0,0,-1,-1,13417.69023541667,unknown,2,2025-04-21T11:14:16.935+03:00,2025-04-20T21:57:49.637+03:00,1567,1.115866,1.28579,1.378413,1172.329,1,4,2025-04-21T11:14:24.673+03:00,766916064.7796655,0,-46.29,100.2877,1,0.65,2025-04-21T11:14:06.322+03:00,123,2.05,2025-04-21T09:28:58.093+03:00,0.01174319131481236,0
2025-04-21T11:14:27.237+03:00,1745223264.941439,40.95357315239047,29.14096675058997,92.88309,-1,-1,-1,-1,30,28.58624055947184,-9999,13423.892115875,-0.75469970703125,0.61468505859375,-0.247833251953125,13423.882039875,-2.355898027914232,-1.263152639283765,-0.6522430066920063,-0.01177286729216576,0.009365357458591461,-0.001135122030973434,0.0047873854637146,0.003136873245239258,-0.007423877716064453,XArbitraryZVertical,-0.6156785184709272,0.02476315232823452,-0.633903882948512,0.4674319219032427,-0.7574118375778198,0.606970489025116,-0.2406534999608994,0,0,0,-1,-1,13417.69023541667,unknown,2,2025-04-21T11:14:16.935+03:00,2025-04-20T21:57:49.637+03:00,1567,1.115866,1.28579,1.378413,1172.329,1,4,2025-04-21T11:14:24.673+03:00,766916064.7796655,0,-46.29,100.2877,1,0.65,2025-04-21T11:14:06.322+03:00,123,2.05,2025-04-21T09:28:58.093+03:00,0.01174319131481236,0
2025-04-21T11:14:27.247+03:00,1745223264.941439,40.95357315239047,29.14096675058997,92.88309,-1,-1,-1,-1,30,28.58624055947184,-9999,13423.902191875,-0.7574310302734375,0.6120452880859375,-0.244537353515625,13423.892115875,-2.356057652923631,-1.263123789646711,-0.6522442641173016,-0.01154343597590923,0.01629024185240269,-0.005556035786867142,0.005191683769226074,0.009590327739715576,-0.008073627948760986,XArbitraryZVertical,-0.6156674692043215,0.02481952137069713,-0.6339497868646835,0.4673812331195359,-0.7574041485786438,0.6069715023040771,-0.2406751215457916,0,0,0,-1,-1,13417.69023541667,unknown,2,2025-04-21T11:14:16.935+03:00,2025-04-20T21:57:49.637+03:00,1567,1.115866,1.28579,1.378413,1172.329,1,4,2025-04-21T11:14:24.673+03:00,766916064.7796655,0,-46.29,100.2877,1,0.65,2025-04-21T11:14:06.322+03:00,123,2.05,2025-04-21T09:28:58.093+03:00,0.01174319131481236,0
2025-04-21T11:14:27.258+03:00,1745223264.941439,40.95357315239047,29.14096675058997,92.88309,-1,-1,-1,-1,30,28.58624055947184,-9999,13423.912266875,-0.75433349609375,0.6119842529296875,-0.242919921875,13423.902191875,-2.356177385952678,-1.263065394847502,-0.6522191663932424,-0.004703638609498739,0.01340151112526655,-0.002951996866613626,0.002704918384552002,0.007733464241027832,-0.007109284400939941,XArbitraryZVertical,-0.6156459974469775,0.02486026482520844,-0.6340013949775194,0.46733729590287,-0.7574045658111572,0.6069515347480774,-0.2407239526510239,0,0,0,-1,-1,13417.69023541667,unknown,2,2025-04-21T11:14:16.935+03:00,2025-04-20T21:57:49.637+03:00,1567,1.115866,1.28579,1.378413,1172.329,1,4,2025-04-21T11:14:24.673+03:00,766916064.7796655,0,-46.29,100.2877,1,0.65,2025-04-21T11:14:06.322+03:00,123,2.05,2025-04-21T09:28:58.093+03:00,0.01174319131481236,0
2025-04-21T11:14:27.268+03:00,1745223264.941439,40.95357315239047,29.14096675058997,92.88309,-1,-1,-1,-1,30,28.58624055947184,-9999,13423.922342875,-0.7574005126953125,0.6109619140625,-0.2422332763671875,13423.912266875,-2.35625641048051,-1.262981022851451,-0.6522310347716553,-0.005380614195019007,0.01972838304936886,-0.002257577842101455,-5.358457565307617e-05,0.00508415699005127,-0.003751620650291443,XArbitraryZVertical,-0.6156189724688198,0.02490894093165887,-0.6340431082321268,0.4673136548787791,-0.7573773860931396,0.6069610118865967,-0.2407856434583664,0,0,0,-1,-1,13417.69023541667,unknown,2,2025-04-21T11:14:16.935+03:00,2025-04-20T21:57:49.637+03:00,1567,1.115866,1.28579,1.378413,1172.329,1,4,2025-04-21T11:14:24.673+03:00,766916064.7796655,0,-46.29,100.2877,1,0.65,2025-04-21T11:14:06.322+03:00,123,2.05,2025-04-21T09:28:58.093+03:00,0.01174319131481236,0
2025-04-21T11:14:27.278+03:00,1745223264.941439,40.95357315239047,29.14096675058997,92.88309,-1,-1,-1,-1,30,28.58624055947184,-9999,13423.932418875,-0.7564544677734375,0.607330322265625,-0.2466583251953125,13423.922342875,-2.356306000830256,-1.262793392119449,-0.6522606441849623,-0.003070588456466794,0.02362991496920586,0.00502749951556325,0.002981662750244141,0.004999697208404541,-0.001997530460357666,XArbitraryZVertical,-0.6155606052877887,0.02497955541168754,-0.6341057883806106,0.4673018007569802,-0.7573150992393494,0.6069844961166382,-0.2409223318099976,0,0,0,-1,-1,13417.69023541667,unknown,2,2025-04-21T11:14:16.935+03:00,2025-04-20T21:57:49.637+03:00,1567,1.115866,1.28579,1.378413,1172.329,1,4,2025-04-21T11:14:24.673+03:00,766916064.7796655,0,-46.29,100.2877,1,0.65,2025-04-21T11:14:06.322+03:00,123,2.05,2025-04-21T09:28:58.093+03:00,0.01174319131481236,0
2025-04-21T11:14:27.288+03:00,1745223264.941439,40.95357315239047,29.14096675058997,92.88309,-1,-1,-1,-1,30,28.58624055947184,-9999,13423.942493875,-0.747467041015625,0.6049041748046875,-0.250396728515625,13423.932418875,-2.356286626874598,-1.262564932072388,-0.6522887361463543,-0.0003248693537898362,0.01479940395802259,0.001015180721879005,-0.000156700611114502,0.00395500659942627,-0.001143038272857666,XArbitraryZVertical,-0.6154900666438139,0.02503791446130114,-0.6341652083437362,0.4673109506774002,-0.757243812084198,0.607006847858429,-0.2410901635885239,0,0,0,-1,-1,13417.69023541667,unknown,2,2025-04-21T11:14:16.935+03:00,2025-04-20T21:57:49.637+03:00,1567,1.115866,1.28579,1.378413,1172.329,1,4,2025-04-21T11:14:24.673+03:00,766916064.7796655,0,-46.29,100.2877,1,0.65,2025-04-21T11:14:06.322+03:00,123,2.05,2025-04-21T09:28:58.093+03:00,0.01174319131481236,0
2025-04-21T11:14:27.298+03:00,1745223264.941439,40.95357315239047,29.14096675058997,92.88309,-1,-1,-1,-1,30,28.58624055947184,-9999,13423.952569875,-0.746307373046875,0.6051025390625,-0.2496185302734375,13423.942493875,-2.356286517207864,-1.2624084672975,-0.6523226781426814,-0.003736911341547966,0.01540740393102169,0.00337207829579711,0.0007320642471313477,0.000296473503112793,-0.005455851554870605,XArbitraryZVertical,-0.6154424476088259,0.02508763768052485,-0.6342056943682611,0.4673161356981692,-0.7571864724159241,0.6070337891578674,-0.2412024140357971,0,0,0,-1,-1,13417.69023541667,unknown,2,2025-04-21T11:14:16.935+03:00,2025-04-20T21:57:49.637+03:00,1567,1.115866,1.28579,1.378413,1172.329,1,4,2025-04-21T11:14:24.673+03:00,766916064.7796655,0,-46.29,100.2877,1,0.65,2025-04-21T11:14:06.322+03:00,123,2.05,2025-04-21T09:28:58.093+03:00,0.01174319131481236,0
2025-04-21T11:14:27.308+03:00,1745223264.941439,40.95357315239047,29.14096675058997,92.88309,-1,-1,-1,-1,30,28.58624055947184,-9999,13423.962645875,-0.74749755859375,0.605072021484375,-0.248199462890625,13423.952569875,-2.356274655193794,-1.262241717385259,-0.6523596014823286,-0.00199866620823741,0.01269524078816175,0.006220595445483923,0.009657859802246094,-0.002159059047698975,-0.009074851870536804,XArbitraryZVertical,-0.6153919071335127,0.02513736085514594,-0.6342458014758745,0.4673254733434045,-0.7571247816085815,0.6070631742477417,-0.2413218319416046,0,0,0,-1,-1,13417.69023541667,unknown,2,2025-04-21T11:14:16.935+03:00,2025-04-20T21:57:49.637+03:00,1567,1.115866,1.28579,1.378413,1172.329,1,4,2025-04-21T11:14:24.673+03:00,766916064.7796655,0,-46.29,100.2877,1,0.65,2025-04-21T11:14:06.322+03:00,123,2.05,2025-04-21T09:28:58.093+03:00,0.01174319131481236,0
2025-04-21T11:14:27.318+03:00,1745223264.941439,40.95357315239047,29.14096675058997,92.88309,-1,-1,-1,-1,30,28.58624055947184,-9999,13423.972720875,-0.7443084716796875,0.604156494140625,-0.246978759765625,13423.962645875,-2.356299134657341,-1.262140635353874,-0.6524195919376389,-0.003103079041466117,0.00498272618278861,0.003673814702779055,0.01075845956802368,-0.002008318901062012,-0.008231163024902344,XArbitraryZVertical,-0.6153630752539,0.02519186047118669,-0.634269076900822,0.4673289780009811,-0.7570657730102539,0.607110857963562,-0.2413873076438904,0,0,0,-1,-1,13417.69023541667,unknown,2,2025-04-21T11:14:16.935+03:00,2025-04-20T21:57:49.637+03:00,1567,1.115866,1.28579,1.378413,1172.329,1,4,2025-04-21T11:14:24.673+03:00,766916064.7796655,0,-46.29,100.2877,1,0.65,2025-04-21T11:14:06.322+03:00,123,2.05,2025-04-21T09:28:58.093+03:00,0.01174319131481236,0
2025-04-21T11:14:27.328+03:00,1745223264.941439,40.95357315239047,29.14096675058997,92.88309,-1,-1,-1,-1,30,28.58624055947184,-9999,13423.982796875,-0.744140625,0.602935791015625,-0.248077392578125,13423.972720875,-2.356329211641203,-1.262131562508745,-0.652501875965507,-0.007901296019554138,-0.001758000813424587,0.002894040895625949,0.009518444538116455,-0.002104222774505615,-0.006820440292358398,XArbitraryZVertical,-0.6153646731755859,0.02523528757118741,-0.6342602514681471,0.467336489991218,-0.7570159435272217,0.6071761846542358,-0.2413789927959442,0,0,0,-1,-1,13417.69023541667,unknown,2,2025-04-21T11:14:16.935+03:00,2025-04-20T21:57:49.637+03:00,1567,1.115866,1.28579,1.378413,1172.329,1,4,2025-04-21T11:14:24.673+03:00,766916064.7796655,0,-46.29,100.2877,1,0.65,2025-04-21T11:14:06.322+03:00,123,2.05,2025-04-21T09:28:58.093+03:00,0.01174319131481236,0
2025-04-21T11:14:27.338+03:00,1745223264.941439,40.95357315239047,29.14096675058997,92.88309,-1,-1,-1,-1,30,28.58624055947184,-9999,13423.992871875,-0.7491912841796875,0.6073455810546875,-0.2451629638671875,13423.982796875,-2.356396704194293,-1.262172512265087,-0.6525753795942364,-0.009137269109487534,-0.001315383706241846,0.003206962486729026,0.01267486810684204,-0.003078162670135498,-0.005644261837005615,XArbitraryZVertical,-0.6153811420771325,0.02527511869520568,-0.634246765158954,0.4673309357375808,-0.7569832801818848,0.6072345972061157,-0.2413344383239746,0,0,0,-1,-1,13417.69023541667,unknown,2,2025-04-21T11:14:16.935+03:00,2025-04-20T21:57:49.637+03:00,1567,1.115866,1.28579,1.378413,1172.329,1,4,2025-04-21T11:14:24.673+03:00,766916064.7796655,0,-46.29,100.2877,1,0.65,2025-04-21T11:14:06.322+03:00,123,2.05,2025-04-21T09:28:58.093+03:00,0.01174319131481236,0
2025-04-21T11:14:27.348+03:00,1745223264.941439,40.95357315239047,29.14096675058997,92.88309,-1,-1,-1,-1,30,28.58624055947184,-9999,13424.002947875,-0.75164794921875,0.610107421875,-0.24188232421875,13423.992871875,-2.356493922414682,-1.262281016102976,-0.652633716407516,-0.01018735393881798,-0.008596998639404774,0.0006077171419747174,0.01283514499664307,-0.004345238208770752,-0.006835818290710449,XArbitraryZVertical,-0.6154177610044694,0.02530240767883412,-0.6342228660736607,0.4673136434809659,-0.7569757103919983,0.607280969619751,-0.241241529583931,0,0,0,-1,-1,13417.69023541667,unknown,2,2025-04-21T11:14:16.935+03:00,2025-04-20T21:57:49.637+03:00,1567,1.115866,1.28579,1.378413,1172.329,1,4,2025-04-21T11:14:24.673+03:00,766916064.7796655,0,-46.29,100.2877,1,0.65,2025-04-21T11:14:06.322+03:00,123,2.05,2025-04-21T09:28:58.093+03:00,0.01174319131481236,0
2025-04-21T11:14:27.359+03:00,1745223264.941439,40.95357315239047,29.14096675058997,92.88309,-1,-1,-1,-1,30,28.58624055947184,-9999,13424.013023875,-0.7583770751953125,0.6103973388671875,-0.2407073974609375,13424.002947875,-2.356603280099827,-1.262381966542833,-0.6526849561102055,-0.005793670658022165,0.001688129501417279,0.001608533086255193,0.007779240608215332,2.384185791015625e-05,-0.004007220268249512,XArbitraryZVertical,-0.6154513946704006,0.02533239949302267,-0.6342058156750736,0.467290972651278,-0.7569705247879028,0.6073216795921326,-0.2411556988954544,0,0,0,-1,-1,13417.69023541667,unknown,2,2025-04-21T11:14:16.935+03:00,2025-04-20T21:57:49.637+03:00,1567,1.115866,1.28579,1.378413,1172.329,1,4,2025-04-21T11:14:24.673+03:00,766916064.7796655,0,-46.29,100.2877,1,0.65,2025-04-21T11:14:06.322+03:00,123,2.05,2025-04-21T09:28:58.093+03:00,0.01174319131481236,0
2025-04-21T11:14:27.369+03:00,1745223264.941439,40.95357315239047,29.14096675058997,92.88309,-1,-1,-1,-1,30,28.58624055947184,-9999,13424.023098875,-0.7603607177734375,0.6116485595703125,-0.241424560546875,13424.013023875,-2.356610198717309,-1.262339650929083,-0.6527206991907578,0.002100271638482809,0.008112006820738316,0.002708452055230737,0.005291581153869629,0.002757370471954346,-0.0007011592388153076,XArbitraryZVertical,-0.6154399908780424,0.02535833283353396,-0.6342123665589928,0.4672957069119655,-0.7569396495819092,0.6073500514030457,-0.2411811500787735,0,0,0,-1,-1,13417.69023541667,unknown,2,2025-04-21T11:14:16.935+03:00,2025-04-20T21:57:49.637+03:00,1567,1.115866,0,0,1172.329,1,4,2025-04-21T11:14:27.253+03:00,766916067.3515623,0,-46.27,100.2868,1,0.65,2025-04-21T11:14:06.322+03:00,123,2.05,2025-04-21T09:28:58.093+03:00,0.01174319131481236,0
2025-04-21T11:14:27.379+03:00,1745223264.941439,40.95357315239047,29.14096675058997,92.88309,-1,-1,-1,-1,30,28.58624055947184,-9999,13424.033174875,-0.756805419921875,0.612152099609375,-0.23931884765625,13424.023098875,-2.356484669478031,-1.262164237424184,-0.6527427820031859,0.01171588059514761,0.008383914828300476,0.00558013841509819,-0.001492559909820557,0.003029704093933105,0.0006024837493896484,XArbitraryZVertical,-0.6153872648867931,0.02536931393707868,-0.6342319640405429,0.4673378733696473,-0.7568844556808472,0.6073676347732544,-0.2413098216056824,0,0,0,-1,-1,13417.69023541667,unknown,2,2025-04-21T11:14:16.935+03:00,2025-04-20T21:57:49.637+03:00,1567,1.115866,0,0,1172.329,1,4,2025-04-21T11:14:27.253+03:00,766916067.3515623,0,-46.27,100.2868,1,0.65,2025-04-21T11:14:06.322+03:00,123,2.05,2025-04-21T09:28:58.093+03:00,0.01174319131481236,0
2025-04-21T11:14:27.388+03:00,1745223264.941439,40.95357315239047,29.14096675058997,92.88309,-1,-1,-1,-1,30,28.58624055947184,-9999,13424.043250875,-0.753509521484375,0.6143951416015625,-0.2453460693359375,13424.033174875,-2.35626678120888,-1.261934751871293,-0.6527590615499577,0.01340985111892223,0.003273243084549904,0.004544002003967762,-0.003541111946105957,0.004267990589141846,5.59389591217041e-05,XArbitraryZVertical,-0.6153182116617871,0.02536223926913014,-0.6342479758860536,0.4674074608396043,-0.7568196654319763,0.6073805689811707,-0.2414805144071579,0,0,0,-1,-1,13417.69023541667,unknown,2,2025-04-21T11:14:16.935+03:00,2025-04-20T21:57:49.637+03:00,1567,1.115866,0,0,1172.329,1,4,2025-04-21T11:14:27.253+03:00,766916067.3515623,0,-46.27,100.2868,1,0.65,2025-04-21T11:14:06.322+03:00,123,2.05,2025-04-21T09:28:58.093+03:00,0.01174319131481236,0
2025-04-21T11:14:27.399+03:00,1745223264.941439,40.95357315239047,29.14096675058997,92.88309,-1,-1,-1,-1,30,28.58624055947184,-9999,13424.053325875,-0.7514190673828125,0.6071929931640625,-0.2437591552734375,13424.043250875,-2.356109457547135,-1.26177079751154,-0.6527709036161506,0.004782541189342737,0.002820772118866444,0.002950633177533746,-3.218650817871094e-05,0.004762113094329834,0.002283573150634766,XArbitraryZVertical,-0.6152689145337638,0.0253567806594756,-0.6342589407668001,0.4674577309498368,-0.7567731738090515,0.6073899269104004,-0.2416023910045624,0,0,0,-1,-1,13417.69023541667,unknown,2,2025-04-21T11:14:16.935+03:00,2025-04-20T21:57:49.637+03:00,1567,1.115866,0,0,1172.329,1,4,2025-04-21T11:14:27.253+03:00,766916067.3515623,0,-46.27,100.2868,1,0.65,2025-04-21T11:14:06.322+03:00,123,2.05,2025-04-21T09:28:58.093+03:00,0.01174319131481236,0
2025-04-21T11:14:27.409+03:00,1745223264.941439,40.95357315239047,29.14096675058997,92.88309,-1,-1,-1,-1,30,28.58624055947184,-9999,13424.063401875,-0.7523040771484375,0.597412109375,-0.2427825927734375,13424.053325875,-2.356112862180761,-1.261688170990879,-0.6528357873438916,-0.009682285599410534,0.007315255701541901,0.005212255753576756,0.003206193447113037,0.006953597068786621,-0.003693103790283203,XArbitraryZVertical,-0.6152464928393673,0.02540240460482432,-0.6342704786818236,0.4674691442778395,-0.756715714931488,0.6074414849281311,-0.2416529357433319,0,0,0,-1,-1,13417.69023541667,unknown,2,2025-04-21T11:14:16.935+03:00,2025-04-20T21:57:49.637+03:00,1567,1.115866,0,0,1172.329,1,4,2025-04-21T11:14:27.253+03:00,766916067.3515623,0,-46.27,100.2868,1,0.65,2025-04-21T11:14:06.322+03:00,123,2.05,2025-04-21T09:28:58.093+03:00,0.01174319131481236,0
2025-04-21T11:14:27.419+03:00,1745223264.941439,40.95357315239047,29.14096675058997,92.88309,-1,-1,-1,-1,30,28.58624055947184,-9999,13424.073477875,-0.74859619140625,0.595123291015625,-0.242279052734375,13424.063401875,-2.356352632138466,-1.261769161329745,-0.6530035046106758,-0.03772164136171341,0.004681655205786228,0.01505529973655939,0.005219221115112305,-0.000381767749786377,-0.002198457717895508,XArbitraryZVertical,-0.6152790111791521,0.02552255654708915,-0.6342636311445977,0.4674291212303523,-0.75663822889328,0.6075747013092041,-0.2415606677532196,0,0,0,-1,-1,13417.69023541667,unknown,2,2025-04-21T11:14:16.935+03:00,2025-04-20T21:57:49.637+03:00,1567,1.115866,0,0,1172.329,1,4,2025-04-21T11:14:27.253+03:00,766916067.3515623,0,-46.27,100.2868,1,0.65,2025-04-21T11:14:06.322+03:00,123,2.05,2025-04-21T09:28:58.093+03:00,0.01174319131481236,0
2025-04-21T11:14:27.432+03:00,1745223264.941439,40.95357315239047,29.14096675058997,92.88309,-1,-1,-1,-1,30,28.58624055947184,-9999,13424.083552875,-0.7534332275390625,0.59912109375,-0.25054931640625,13424.073477875,-2.356754804779611,-1.2618570501949,-0.653282096475881,-0.04458267986774445,0.02202156558632851,0.01766376569867134,0.004194080829620361,-0.01038390398025513,-0.001339852809906006,XArbitraryZVertical,-0.6153181317929578,0.02573427308283009,-0.6342674433384325,0.4673607946765732,-0.7564981579780579,0.6077959537506104,-0.2414426803588867,0,0,0,-1,-1,13417.69023541667,unknown,2,2025-04-21T11:14:16.935+03:00,2025-04-20T21:57:49.637+03:00,1567,1.115866,0,0,1172.329,1,4,2025-04-21T11:14:27.253+03:00,766916067.3515623,0,-46.27,100.2868,1,0.65,2025-04-21T11:14:06.322+03:00,123,2.05,2025-04-21T09:28:58.093+03:00,0.01174319131481236,0
2025-04-21T11:14:27.444+03:00,1745223264.941439,40.95357315239047,29.14096675058997,92.88309,-1,-1,-1,-1,30,28.58624055947184,-9999,13424.093628875,-0.75396728515625,0.6159210205078125,-0.247161865234375,13424.083552875,-2.356995835196884,-1.261757451979867,-0.6535439739076764,-0.00844278372824192,0.01885160431265831,0.01861637830734253,0.007726311683654785,-0.01288062334060669,-0.0008093714714050293,XArbitraryZVertical,-0.6152988156143006,0.02593370189828335,-0.6342950987470708,0.4673376942569189,-0.75632244348526,0.6080039143562317,-0.2414696216583252,0,0,0,-1,-1,13417.69023541667,unknown,2,2025-04-21T11:14:16.935+03:00,2025-04-20T21:57:49.637+03:00,1567,1.115866,0,0,1172.329,1,4,2025-04-21T11:14:27.253+03:00,766916067.3515623,0,-46.27,100.2868,1,0.65,2025-04-21T11:14:06.322+03:00,123,2.05,2025-04-21T09:28:58.093+03:00,0.01174319131481236,0
2025-04-21T11:14:27.449+03:00,1745223264.941439,40.95357315239047,29.14096675058997,92.88309,-1,-1,-1,-1,30,28.58624055947184,-9999,13424.103704875,-0.75048828125,0.6144561767578125,-0.2301483154296875,13424.093628875,-2.357043847981834,-1.261651548441196,-0.6537662079419486,-0.02128115110099316,0.006645470857620239,0.01671165227890015,0.002734839916229248,-0.009059250354766846,-0.009040683507919312,XArbitraryZVertical,-0.6152776536990332,0.02605979863892381,-0.6342885268898653,0.467367421570689,-0.7561681270599365,0.6081803441047668,-0.2415085881948471,0,0,0,-1,-1,13417.69023541667,unknown,2,2025-04-21T11:14:16.935+03:00,2025-04-20T21:57:49.637+03:00,1567,1.115866,0,0,1172.329,1,4,2025-04-21T11:14:27.253+03:00,766916067.3515623,0,-46.27,100.2868,1,0.65,2025-04-21T11:14:06.322+03:00,123,2.05,2025-04-21T09:28:58.093+03:00,0.01174319131481236,0
2025-04-21T11:14:27.459+03:00,1745223264.941439,40.95357315239047,29.14096675058997,92.88309,-1,-1,-1,-1,30,28.58624055947184,-9999,13424.113779875,-0.7491302490234375,0.586456298828125,-0.2319488525390625,13424.103704875,-2.357358153897709,-1.261778775848834,-0.6539893089119608,-0.03231089934706688,0.009073209017515182,0.01076081953942776,0.002102315425872803,0.007563650608062744,-0.005790680646896362,XArbitraryZVertical,-0.6153269647144332,0.02621364463415278,-0.6342723469015822,0.4673159629259657,-0.7560696601867676,0.6083574295043945,-0.2413711398839951,0,0,0,-1,-1,13417.69023541667,unknown,2,2025-04-21T11:14:16.935+03:00,2025-04-20T21:57:49.637+03:00,1567,1.115866,0,0,1172.329,1,4,2025-04-21T11:14:27.253+03:00,766916067.3515623,0,-46.27,100.2868,1,0.65,2025-04-21T11:14:06.322+03:00,123,2.05,2025-04-21T09:28:58.093+03:00,0.01174319131481236,0
2025-04-21T11:14:27.469+03:00,1745223264.941439,40.95357315239047,29.14096675058997,92.88309,-1,-1,-1,-1,30,28.58624055947184,-9999,13424.123855875,-0.7466583251953125,0.6042633056640625,-0.24029541015625,13424.113779875,-2.357641854780999,-1.26182129836475,-0.6542409077084121,-0.01916400529444218,0.01681841351091862,0.02089611068367958,0.005445718765258789,0.005899131298065186,0.01114413142204285,XArbitraryZVertical,-0.6153514424064921,0.02638899859101065,-0.634268553340002,0.4672790276911667,-0.7559340596199036,0.6085570454597473,-0.2412924468517303,0,0,0,-1,-1,13417.69023541667,unknown,2,2025-04-21T11:14:16.935+03:00,2025-04-20T21:57:49.637+03:00,1567,1.115866,0,0,1172.329,1,4,2025-04-21T11:14:27.253+03:00,766916067.3515623,0,-46.27,100.2868,1,0.65,2025-04-21T11:14:06.322+03:00,123,2.05,2025-04-21T09:28:58.093+03:00,0.01174319131481236,0
2025-04-21T11:14:27.479+03:00,1745223264.941439,40.95357315239047,29.14096675058997,92.88309,-1,-1,-1,-1,30,28.58624055947184,-9999,13424.133931875,-0.749298095703125,0.631134033203125,-0.2429046630859375,13424.123855875,-2.357624316768326,-1.261558613102381,-0.6544709628341062,0.008642326109111309,0.02661831304430962,0.0185924768447876,0.0066070556640625,-0.02228337526321411,0.009499549865722656,XArbitraryZVertical,-0.6152818245102859,0.02653461366603073,-0.6342931064094161,0.4673290663781254,-0.7557372450828552,0.6087396144866943,-0.241448387503624,0,0,0,-1,-1,13417.69023541667,unknown,2,2025-04-21T11:14:16.935+03:00,2025-04-20T21:57:49.637+03:00,1567,1.115866,0,0,1172.329,1,4,2025-04-21T11:14:27.253+03:00,766916067.3515623,0,-46.27,100.2868,1,0.65,2025-04-21T11:14:06.322+03:00,123,2.05,2025-04-21T09:28:58.093+03:00,0.01174319131481236,0
2025-04-21T11:14:27.490+03:00,1745223264.941439,40.95357315239047,29.14096675058997,92.88309,-1,-1,-1,-1,30,28.58624055947184,-9999,13424.144006875,-0.752593994140625,0.621673583984375,-0.2376861572265625,13424.133931875,-2.357440070392609,-1.261276170635792,-0.6546053569724875,0.007658688351511955,0.006529157049953938,0.01161213219165802,0.008932769298553467,-0.00458294153213501,0.001341521739959717,XArbitraryZVertical,-0.6152025620167375,0.02659630860626259,-0.6343064462880814,0.4674117441805815,-0.7555910348892212,0.6088462471961975,-0.2416368871927261,0,0,0,-1,-1,13417.69023541667,unknown,2,2025-04-21T11:14:16.935+03:00,2025-04-20T21:57:49.637+03:00,1567,1.115866,0,0,1172.329,1,4,2025-04-21T11:14:27.253+03:00,766916067.3515623,0,-46.27,100.2868,1,0.65,2025-04-21T11:14:06.322+03:00,123,2.05,2025-04-21T09:28:58.093+03:00,0.01174319131481236,0
2025-04-21T11:14:27.499+03:00,1745223264.941439,40.95357315239047,29.14096675058997,92.88309,-1,-1,-1,-1,30,28.58624055947184,-9999,13424.154082875,-0.7556610107421875,0.5985260009765625,-0.2487335205078125,13424.144006875,-2.357468239576214,-1.261242756128107,-0.6546693756978427,-0.01219571009278297,0.0008813911117613316,0.001627940917387605,0.006247758865356445,0.02223700284957886,-0.001254349946975708,XArbitraryZVertical,-0.6151953245655657,0.02663769466021736,-0.634308865899961,0.4674157412915539,-0.7555459141731262,0.6088970303535461,-0.2416502982378006,0,0,0,-1,-1,13417.69023541667,unknown,2,2025-04-21T11:14:16.935+03:00,2025-04-20T21:57:49.637+03:00,1567,1.115866,0,0,1172.329,1,4,2025-04-21T11:14:27.253+03:00,766916067.3515623,0,-46.27,100.2868,1,0.65,2025-04-21T11:14:06.322+03:00,123,2.05,2025-04-21T09:28:58.093+03:00,0.01174319131481236,0
2025-04-21T11:14:27.510+03:00,1745223264.941439,40.95357315239047,29.14096675058997,92.88309,-1,-1,-1,-1,30,28.58624055947184,-9999,13424.164157875,-0.7472991943359375,0.6090087890625,-0.2501220703125,13424.154082875,-2.357567527736177,-1.261374701203142,-0.6546565065679452,0.001019827323034406,-0.01783597096800804,-0.002795236883684993,0.002991318702697754,0.01278674602508545,0.003866851329803467,XArbitraryZVertical,-0.6152350979017628,0.02663239219860635,-0.6342943874981436,0.4673833212786585,-0.755585253238678,0.6088867783546448,-0.2415529787540436,0,0,0,-1,-1,13417.69023541667,unknown,2,2025-04-21T11:14:16.935+03:00,2025-04-20T21:57:49.637+03:00,1567,1.115866,0,0,1172.329,1,4,2025-04-21T11:14:27.253+03:00,766916067.3515623,0,-46.27,100.2868,1,0.65,2025-04-21T11:14:06.322+03:00,123,2.05,2025-04-21T09:28:58.093+03:00,0.01174319131481236,0
2025-04-21T11:14:27.519+03:00,1745223264.941439,40.95357315239047,29.14096675058997,92.88309,-1,-1,-1,-1,30,28.58624055947184,-9999,13424.174233875,-0.7427520751953125,0.6133575439453125,-0.2421722412109375,13424.164157875,-2.357491726228744,-1.261565174098592,-0.654561968014053,0.0127340080216527,-0.02628698013722897,-0.006147623993456364,2.509355545043945e-05,-0.01028585433959961,-0.007306933403015137,XArbitraryZVertical,-0.6152909893632095,0.02652775098187412,-0.6342394590010263,0.4673901630463198,-0.7556860446929932,0.6088117957115173,-0.241426557302475,0,0,0,-1,-1,13417.69023541667,unknown,2,2025-04-21T11:14:16.935+03:00,2025-04-20T21:57:49.637+03:00,1567,1.115866,0,0,1172.329,1,4,2025-04-21T11:14:27.253+03:00,766916067.3515623,0,-46.27,100.2868,1,0.65,2025-04-21T11:14:06.322+03:00,123,2.05,2025-04-21T09:28:58.093+03:00,0.01174319131481236,0
2025-04-21T11:14:27.530+03:00,1745223264.941439,40.95357315239047,29.14096675058997,92.88309,-1,-1,-1,-1,30,28.58624055947184,-9999,13424.184309875,-0.747467041015625,0.605438232421875,-0.23968505859375,13424.174233875,-2.357371928847737,-1.26171012217117,-0.6544179617755419,0.009522167965769768,-0.02462230436503887,-0.009959040209650993,0.008505284786224365,0.0003112554550170898,-0.008778363466262817,XArbitraryZVertical,-0.615330114558223,0.02640092230584488,-0.6341995077117094,0.4674000495810988,-0.7558045387268066,0.6086975336074829,-0.2413436770439148,0,0,0,-1,-1,13417.69023541667,unknown,2,2025-04-21T11:14:16.935+03:00,2025-04-20T21:57:49.637+03:00,1567,1.115866,0,0,1172.329,1,4,2025-04-21T11:14:27.253+03:00,766916067.3515623,0,-46.27,100.2868,1,0.65,2025-04-21T11:14:06.322+03:00,123,2.05,2025-04-21T09:28:58.093+03:00,0.01174319131481236,0
2025-04-21T11:14:27.540+03:00,1745223264.941439,40.95357315239047,29.14096675058997,92.88309,-1,-1,-1,-1,30,28.58624055947184,-9999,13424.194384875,-0.7469482421875,0.6123504638671875,-0.24114990234375,13424.184309875,-2.357327130118594,-1.261959191053107,-0.6543165188828054,0.002030696719884872,-0.03392232581973076,-0.01254124194383621,0.01317131519317627,0.004740417003631592,-0.0009980201721191406,XArbitraryZVertical,-0.6154037557040021,0.02628944503814976,-0.6341353274551574,0.4673963481670581,-0.755923330783844,0.6086170673370361,-0.2411741614341736,0,0,0,-1,-1,13417.69023541667,unknown,2,2025-04-21T11:14:16.935+03:00,2025-04-20T21:57:49.637+03:00,1567,1.115866,0,0,1172.329,1,4,2025-04-21T11:14:27.253+03:00,766916067.3515623,0,-46.27,100.2868,1,0.65,2025-04-21T11:14:06.322+03:00,123,2.05,2025-04-21T09:28:58.093+03:00,0.01174319131481236,0
2025-04-21T11:14:27.550+03:00,1745223264.941439,40.95357315239047,29.14096675058997,92.88309,-1,-1,-1,-1,30,28.58624055947184,-9999,13424.204460875,-0.75067138671875,0.605987548828125,-0.2396240234375,13424.194384875,-2.357420113828482,-1.262362199103205,-0.6542523752216562,-0.006281894631683826,-0.02723919227719307,-0.007979545742273331,0.0085906982421875,-0.003127992153167725,0.001196354627609253,XArbitraryZVertical,-0.6155265665292589,0.02619892396692013,-0.6340475117284842,0.467358743752026,-0.7560575604438782,0.6085661649703979,-0.2408813238143921,0,0,0,-1,-1,13417.69023541667,unknown,2,2025-04-21T11:14:16.935+03:00,2025-04-20T21:57:49.637+03:00,1567,1.115866,0,0,1172.329,1,4,2025-04-21T11:14:27.253+03:00,766916067.3515623,0,-46.27,100.2868,1,0.65,2025-04-21T11:14:06.322+03:00,123,2.05,2025-04-21T09:28:58.093+03:00,0.01174319131481236,0
2025-04-21T11:14:27.560+03:00,1745223264.941439,40.95357315239047,29.14096675058997,92.88309,-1,-1,-1,-1,30,28.58624055947184,-9999,13424.214536875,-0.759185791015625,0.602569580078125,-0.2378997802734375,13424.204460875,-2.357582718562724,-1.26268386967041,-0.6541734025087947,-0.01303673628717661,-0.01150736678391695,-0.005283627659082413,0.009232819080352783,0.003846883773803711,-0.0004971325397491455,XArbitraryZVertical,-0.6156217897968779,0.02614302957034528,-0.6340044494427086,0.4672949522457646,-0.7561808824539185,0.608503520488739,-0.2406527101993561,0,0,0,-1,-1,13417.69023541667,unknown,2,2025-04-21T11:14:16.935+03:00,2025-04-20T21:57:49.637+03:00,1567,1.115866,0,0,1172.329,1,4,2025-04-21T11:14:27.253+03:00,766916067.3515623,0,-46.27,100.2868,1,0.65,2025-04-21T11:14:06.322+03:00,123,2.05,2025-04-21T09:28:58.093+03:00,0.01174319131481236,0
2025-04-21T11:14:27.570+03:00,1745223264.941439,40.95357315239047,29.14096675058997,92.88309,-1,-1,-1,-1,30,28.58624055947184,-9999,13424.224611875,-0.75616455078125,0.6118621826171875,-0.235137939453125,13424.214536875,-2.357683883525077,-1.262853382104503,-0.6541465012476961,-0.001416033133864403,-0.0106793912127614,-0.006638111546635628,0.005565941333770752,-0.002494633197784424,0.0009055435657501221,XArbitraryZVertical,-0.6156726178670583,0.02612405166802909,-0.6339820897324808,0.4672595285917284,-0.7562373876571655,0.6084821820259094,-0.2405295222997665,0,0,0,-1,-1,13417.69023541667,unknown,2,2025-04-21T11:14:16.935+03:00,2025-04-20T21:57:49.637+03:00,1567,1.115866,0,0,1172.329,1,4,2025-04-21T11:14:27.253+03:00,766916067.3515623,0,-46.27,100.2868,1,0.65,2025-04-21T11:14:06.322+03:00,123,2.05,2025-04-21T09:28:58.093+03:00,0.01174319131481236,0
2025-04-21T11:14:27.580+03:00,1745223264.941439,40.95357315239047,29.14096675058997,92.88309,-1,-1,-1,-1,30,28.58624055947184,-9999,13424.234687875,-0.7560882568359375,0.614105224609375,-0.2379302978515625,13424.224611875,-2.357633699215387,-1.262906398967799,-0.6541166529278762,0.01233439985662699,-0.006247624754905701,-0.008508715778589249,-0.0029183030128479,-0.005888938903808594,0.002595186233520508,XArbitraryZVertical,-0.615688335691125,0.02608459114665668,-0.6339608113105396,0.4672698983432336,-0.7562674880027771,0.6084584593772888,-0.2404949367046356,0,0,0,-1,-1,13417.69023541667,unknown,2,2025-04-21T11:14:16.935+03:00,2025-04-20T21:57:49.637+03:00,1567,1.115866,0,0,1172.329,1,4,2025-04-21T11:14:27.253+03:00,766916067.3515623,0,-46.27,100.2868,1,0.65,2025-04-21T11:14:06.322+03:00,123,2.05,2025-04-21T09:28:58.093+03:00,0.01174319131481236,0
2025-04-21T11:14:27.590+03:00,1745223264.941439,40.95357315239047,29.14096675058997,92.88309,-1,-1,-1,-1,30,28.58624055947184,-9999,13424.244763875,-0.758880615234375,0.6124114990234375,-0.2403106689453125,13424.234687875,-2.357436209534733,-1.262811551687018,-0.654027962808045,0.0252555925399065,0.001056161243468523,-0.007368183694779873,0.0001316070556640625,0.003474056720733643,0.005445122718811035,XArbitraryZVertical,-0.6156556620578265,0.02601141615558841,-0.6339639695259255,0.4673127510794477,-0.7562960982322693,0.6083880662918091,-0.2405830174684525,0,0,0,-1,-1,13417.69023541667,unknown,2,2025-04-21T11:14:16.935+03:00,2025-04-20T21:57:49.637+03:00,1567,1.115866,0,0,1172.329,1,4,2025-04-21T11:14:27.253+03:00,766916067.3515623,0,-46.27,100.2868,1,0.65,2025-04-21T11:14:06.322+03:00,123,2.05,2025-04-21T09:28:58.093+03:00,0.01174319131481236,0
2025-04-21T11:14:27.600+03:00,1745223264.941439,40.95357315239047,29.14096675058997,92.88309,-1,-1,-1,-1,30,28.58624055947184,-9999,13424.254838875,-0.7592010498046875,0.6039581298828125,-0.2403564453125,13424.244763875,-2.357163880538217,-1.262616064874296,-0.6538674886049731,0.02058999985456467,0.001601310446858406,-0.00702277198433876,0.0002537965774536133,0.005844414234161377,0.002830177545547485,XArbitraryZVertical,-0.6155878630452285,0.02591082441939197,-0.633996754880147,0.4673629829338475,-0.7563418745994568,0.6082606911659241,-0.2407604306936264,0,0,0,-1,-1,13417.69023541667,unknown,2,2025-04-21T11:14:16.935+03:00,2025-04-20T21:57:49.637+03:00,1567,1.115866,0,0,1172.329,1,4,2025-04-21T11:14:27.253+03:00,766916067.3515623,0,-46.27,100.2868,1,0.65,2025-04-21T11:14:06.322+03:00,123,2.05,2025-04-21T09:28:58.093+03:00,0.01174319131481236,0
2025-04-21T11:14:27.610+03:00,1745223264.941439,40.95357315239047,29.14096675058997,92.88309,-1,-1,-1,-1,30,28.58624055947184,-9999,13424.264914875,-0.7564697265625,0.60400390625,-0.2442169189453125,13424.254838875,-2.356943928414479,-1.262432343359657,-0.6537779110308306,0.01772723533213139,0.003133027348667383,-0.004396296106278896,-0.002530872821807861,0.004221796989440918,0.0006053447723388672,XArbitraryZVertical,-0.615527206687007,0.02585113662907762,-0.6340222899837753,0.4674116867751585,-0.7563496828079224,0.6081896424293518,-0.2409159541130066,0,0,0,-1,-1,13417.69023541667,unknown,2,2025-04-21T11:14:16.935+03:00,2025-04-20T21:57:49.637+03:00,1567,1.115866,0,0,1172.329,1,4,2025-04-21T11:14:27.253+03:00,766916067.3515623,0,-46.27,100.2868,1,0.65,2025-04-21T11:14:06.322+03:00,123,2.05,2025-04-21T09:28:58.093+03:00,0.01174319131481236,0
2025-04-21T11:14:27.620+03:00,1745223264.941439,40.95357315239047,29.14096675058997,92.88309,-1,-1,-1,-1,30,28.58624055947184,-9999,13424.274990875,-0.7571868896484375,0.6068115234375,-0.2408294677734375,13424.264914875,-2.356733366540333,-1.262219686672505,-0.6537400769279503,0.02032834477722645,0.00839543342590332,-0.000427386985393241,-0.002880692481994629,-0.004201531410217285,0.0007273554801940918,XArbitraryZVertical,-0.6154603001024793,0.02582132521704564,-0.6340470454460603,0.4674677722493703,-0.7563202977180481,0.608159601688385,-0.2410837560892105,0,0,0,-1,-1,13417.69023541667,unknown,2,2025-04-21T11:14:16.935+03:00,2025-04-20T21:57:49.637+03:00,1567,1.115866,0,0,1172.329,1,4,2025-04-21T11:14:27.253+03:00,766916067.3515623,0,-46.27,100.2868,1,0.65,2025-04-21T11:14:06.322+03:00,123,2.05,2025-04-21T09:28:58.093+03:00,0.01174319131481236,0
2025-04-21T11:14:27.631+03:00,1745223264.941439,40.95357315239047,29.14096675058997,92.88309,-1,-1,-1,-1,30,28.58624055947184,-9999,13424.285065875,-0.7570343017578125,0.610382080078125,-0.240753173828125,13424.274990875,-2.356459594307449,-1.261945212715481,-0.6536936613034603,0.02433992922306061,0.01246880553662777,0.00326232286170125,-0.0001886487007141113,-0.004118919372558594,-0.002916976809501648,XArbitraryZVertical,-0.6153740942213544,0.02578317692030825,-0.634077996719683,0.467541329508435,-0.7562809586524963,0.608122706413269,-0.2412998974323273,0,0,0,-1,-1,13417.69023541667,unknown,2,2025-04-21T11:14:16.935+03:00,2025-04-20T21:57:49.637+03:00,1567,1.115866,0,0,1172.329,1,4,2025-04-21T11:14:27.253+03:00,766916067.3515623,0,-46.27,100.2868,1,0.65,2025-04-21T11:14:06.322+03:00,123,2.05,2025-04-21T09:28:58.093+03:00,0.01174319131481236,0
2025-04-21T11:14:27.640+03:00,1745223264.941439,40.95357315239047,29.14096675058997,92.88309,-1,-1,-1,-1,30,28.58624055947184,-9999,13424.295141875,-0.757659912109375,0.611572265625,-0.241607666015625,13424.285065875,-2.356154340438713,-1.261643848498385,-0.6536673152479429,0.02537643164396286,0.01074360962957144,0.0007589514716528356,-0.0009633302688598633,-0.001290380954742432,0.0007032901048660278,XArbitraryZVertical,-0.6152809275528935,0.02574944764827947,-0.6341053402029941,0.4676287444657642,-0.7562234997749329,0.6081018447875977,-0.2415326982736588,0,0,0,-1,-1,13417.69023541667,unknown,2,2025-04-21T11:14:16.935+03:00,2025-04-20T21:57:49.637+03:00,1567,1.115866,0,0,1172.329,1,4,2025-04-21T11:14:27.253+03:00,766916067.3515623,0,-46.27,100.2868,1,0.65,2025-04-21T11:14:06.322+03:00,123,2.05,2025-04-21T09:28:58.093+03:00,0.01174319131481236,0
2025-04-21T11:14:27.650+03:00,1745223264.941439,40.95357315239047,29.14096675058997,92.88309,-1,-1,-1,-1,30,28.58624055947184,-9999,13424.305217875,-0.7547760009765625,0.6145172119140625,-0.237518310546875,13424.295141875,-2.355850158948877,-1.261380548201246,-0.6535932733901969,0.02548921667039394,0.005196644458919764,-0.002029977273195982,-0.0008314251899719238,0.002339005470275879,0.0009924173355102539,XArbitraryZVertical,-0.615196987070593,0.0256885831130677,-0.6341320358189362,0.4677063968358454,-0.7562028169631958,0.6080430150032043,-0.2417455315589905,0,0,0,-1,-1,13417.69023541667,unknown,2,2025-04-21T11:14:16.935+03:00,2025-04-20T21:57:49.637+03:00,1567,1.115866,0,0,1172.329,1,4,2025-04-21T11:14:27.253+03:00,766916067.3515623,0,-46.27,100.2868,1,0.65,2025-04-21T11:14:06.322+03:00,123,2.05,2025-04-21T09:28:58.093+03:00,0.01174319131481236,0
2025-04-21T11:14:27.661+03:00,1745223264.941439,40.95357315239047,29.14096675058997,92.88309,-1,-1,-1,-1,30,28.58624055947184,-9999,13424.31529325,-0.757904052734375,0.61358642578125,-0.2329254150390625,13424.305217875,-2.355532842104732,-1.261136935636269,-0.653463511939734,0.03096654079854488,0.009506437927484512,-0.001371111371554434,-0.001440882682800293,0.003632247447967529,0.0003461539745330811,XArbitraryZVertical,-0.6151161474428214,0.02559739520274518,-0.6341621988693867,0.4677768724038602,-0.7562190890312195,0.6079400181770325,-0.2419537901878357,0,0,0,-1,-1,13417.69023541667,unknown,2,2025-04-21T11:14:16.935+03:00,2025-04-20T21:57:49.637+03:00,1567,1.115866,0,0,1172.329,1,4,2025-04-21T11:14:27.253+03:00,766916067.3515623,0,-46.27,100.2868,1,0.65,2025-04-21T11:14:06.322+03:00,123,2.05,2025-04-21T09:28:58.093+03:00,0.01174319131481236,0
2025-04-21T11:14:27.671+03:00,1745223264.941439,40.95357315239047,29.14096675058997,92.88309,-1,-1,-1,-1,30,28.58624055947184,-9999,13424.32536925,-0.76104736328125,0.6038360595703125,-0.2369384765625,13424.31529325,-2.355220447655442,-1.260778722591348,-0.6533614518025518,0.02281753346323967,0.02195298671722412,-0.005217648111283779,0.001415491104125977,0.006658196449279785,0.004725337028503418,XArbitraryZVertical,-0.615000518545746,0.02554535629930885,-0.6342224163101531,0.467850096350989,-0.7561914324760437,0.6078589558601379,-0.2422435879707336,0,0,0,-1,-1,13417.69023541667,unknown,2,2025-04-21T11:14:16.935+03:00,2025-04-20T21:57:49.637+03:00,1567,1.115866,0,0,1172.329,1,4,2025-04-21T11:14:27.253+03:00,766916067.3515623,0,-46.27,100.2868,1,0.65,2025-04-21T11:14:06.322+03:00,123,2.05,2025-04-21T09:28:58.093+03:00,0.01174319131481236,0
2025-04-21T11:14:27.681+03:00,1745223264.941439,40.95357315239047,29.14096675058997,92.88309,-1,-1,-1,-1,30,28.58624055947184,-9999,13424.33544525,-0.754852294921875,0.6087188720703125,-0.2314453125,13424.32536925,-2.355042282793,-1.260475429099137,-0.6532694805637547,0.01632208377122879,0.01882004365324974,-0.008162837475538254,-0.001732885837554932,0.005800426006317139,0.009564593434333801,XArbitraryZVertical,-0.6149011759529872,0.02552573160672581,-0.6342947513862902,0.4678835350889302,-0.7561710476875305,0.6077859401702881,-0.2424899637699127,0,0,0,-1,-1,13417.69023541667,unknown,2,2025-04-21T11:14:16.935+03:00,2025-04-20T21:57:49.637+03:00,1567,1.115866,0,0,1172.329,1,4,2025-04-21T11:14:27.253+03:00,766916067.3515623,0,-46.27,100.2868,1,0.65,2025-04-21T11:14:06.322+03:00,123,2.05,2025-04-21T09:28:58.093+03:00,0.01174319131481236,0
2025-04-21T11:14:27.691+03:00,1745223264.941439,40.95357315239047,29.14096675058997,92.88309,-1,-1,-1,-1,30,28.58624055947184,-9999,13424.34552025,-0.7529144287109375,0.6169586181640625,-0.2348785400390625,13424.33544525,-2.354901901738946,-1.260201921517035,-0.6531701798604358,0.01102399174124002,0.02122061885893345,-0.005916195455938578,-0.004885077476501465,-0.003871023654937744,0.005776822566986084,XArbitraryZVertical,-0.6148103182179938,0.0255078425077001,-0.6343685673748417,0.4679039414250215,-0.7561622262001038,0.6077070832252502,-0.2427152395248413,0,0,0,-1,-1,13417.69023541667,unknown,2,2025-04-21T11:14:16.935+03:00,2025-04-20T21:57:49.637+03:00,1567,1.115866,0,0,1172.329,1,4,2025-04-21T11:14:27.253+03:00,766916067.3515623,0,-46.27,100.2868,1,0.65,2025-04-21T11:14:06.322+03:00,123,2.05,2025-04-21T09:28:58.093+03:00,0.01174319131481236,0
2025-04-21T11:14:27.701+03:00,1745223264.941439,40.95357315239047,29.14096675058997,92.88309,-1,-1,-1,-1,30,28.58624055947184,-9999,13424.35559625,-0.75469970703125,0.6102447509765625,-0.2496795654296875,13424.34552025,-2.354740728850801,-1.259837444103343,-0.653033512680274,0.02277811989188194,0.0301230326294899,-0.008776163682341576,0.001300632953643799,0.001120328903198242,0.01157099008560181,XArbitraryZVertical,-0.614688628233359,0.02549029484350738,-0.6344739277365904,0.4679220229640383,-0.756152868270874,0.6075985431671143,-0.2430162727832794,0,0,0,-1,-1,13417.69023541667,unknown,2,2025-04-21T11:14:16.935+03:00,2025-04-20T21:57:49.637+03:00,1567,1.115866,0,0,1172.329,1,4,2025-04-21T11:14:27.253+03:00,766916067.3515623,0,-46.27,100.2868,1,0.65,2025-04-21T11:14:06.322+03:00,123,2.05,2025-04-21T09:28:58.093+03:00,0.01174319131481236,0
2025-04-21T11:14:27.711+03:00,1745223264.941439,40.95357315239047,29.14096675058997,92.88309,-1,-1,-1,-1,30,28.58624055947184,-9999,13424.36567125,-0.7512054443359375,0.611968994140625,-0.2495269775390625,13424.35559625,-2.354464909573694,-1.259369276361145,-0.6528402616373417,0.03227435424923897,0.02952402085065842,-0.01132963597774506,0.003236234188079834,0.009513497352600098,0.008527696132659912,XArbitraryZVertical,-0.614532122023759,0.02543981252175612,-0.6345969477438008,0.4679633273491494,-0.7561506032943726,0.6074450612068176,-0.2434061765670776,0,0,0,-1,-1,13417.69023541667,unknown,2,2025-04-21T11:14:16.935+03:00,2025-04-20T21:57:49.637+03:00,1567,1.115866,0,0,1172.329,1,4,2025-04-21T11:14:27.253+03:00,766916067.3515623,0,-46.27,100.2868,1,0.65,2025-04-21T11:14:06.322+03:00,123,2.05,2025-04-21T09:28:58.093+03:00,0.01174319131481236,0
2025-04-21T11:14:27.721+03:00,1745223264.941439,40.95357315239047,29.14096675058997,92.88309,-1,-1,-1,-1,30,28.58624055947184,-9999,13424.37574725,-0.750091552734375,0.613861083984375,-0.246429443359375,13424.36567125,-2.354039406718468,-1.258831096861033,-0.6526004469476218,0.04657872393727303,0.0259881429374218,-0.01266680844128132,0.001458585262298584,0.002990186214447021,-0.005821704864501953,XArbitraryZVertical,-0.6143524191293908,0.0253415251774448,-0.6347171470456475,0.4680417231405577,-0.7561582326889038,0.6072545051574707,-0.2438578307628632,0,0,0,-1,-1,13417.69023541667,unknown,2,2025-04-21T11:14:16.935+03:00,2025-04-20T21:57:49.637+03:00,1567,1.115866,0,0,1172.329,1,4,2025-04-21T11:14:27.253+03:00,766916067.3515623,0,-46.27,100.2868,1,0.65,2025-04-21T11:14:06.322+03:00,123,2.05,2025-04-21T09:28:58.093+03:00,0.01174319131481236,0
2025-04-21T11:14:27.731+03:00,1745223264.941439,40.95357315239047,29.14096675058997,92.88309,-1,-1,-1,-1,30,28.58624055947184,-9999,13424.38582325,-0.753326416015625,0.6099090576171875,-0.2488555908203125,13424.37574725,-2.353576303476844,-1.258284220188411,-0.6523290481919894,0.04280881956219673,0.02742205560207367,-0.01633048616349697,0.004976093769073486,0.004930078983306885,-0.005204975605010986,XArbitraryZVertical,-0.6141684594536393,0.02522151530006298,-0.6348381866271928,0.4681254053840389,-0.756181538105011,0.6070388555526733,-0.2443219572305679,0,0,0,-1,-1,13417.69023541667,unknown,2,2025-04-21T11:14:16.935+03:00,2025-04-20T21:57:49.637+03:00,1567,1.115866,0,0,1172.329,1,4,2025-04-21T11:14:27.253+03:00,766916067.3515623,0,-46.27,100.2868,1,0.65,2025-04-21T11:14:06.322+03:00,123,2.05,2025-04-21T09:28:58.093+03:00,0.01174319131481236,0
2025-04-21T11:14:27.741+03:00,1745223264.941439,40.95357315239047,29.14096675058997,92.88309,-1,-1,-1,-1,30,28.58624055947184,-9999,13424.39589825,-0.754486083984375,0.607391357421875,-0.2419891357421875,13424.38582325,-2.353146207162908,-1.25772051845651,-0.6520234431606883,0.03856560587882996,0.03290816769003868,-0.01957128755748272,0.006128609180450439,0.007065057754516602,-0.001624077558517456,XArbitraryZVertical,-0.6139765527173139,0.02510224376529493,-0.634979915857376,0.4681914579867938,-0.7562202215194702,0.6067959666252136,-0.2448053359985352,0,0,0,-1,-1,13417.69023541667,unknown,2,2025-04-21T11:14:16.935+03:00,2025-04-20T21:57:49.637+03:00,1567,1.115866,0,0,1172.329,1,4,2025-04-21T11:14:27.253+03:00,766916067.3515623,0,-46.27,100.2868,1,0.65,2025-04-21T11:14:06.322+03:00,123,2.05,2025-04-21T09:28:58.093+03:00,0.01174319131481236,0
2025-04-21T11:14:27.751+03:00,1745223264.941439,40.95357315239047,29.14096675058997,92.88309,-1,-1,-1,-1,30,28.58624055947184,-9999,13424.40597425,-0.7550048828125,0.6053619384765625,-0.239898681640625,13424.39589825,-2.352845082341015,-1.257171400087822,-0.6517792507305931,0.02488581091165543,0.04102315008640289,-0.01608690619468689,0.002900123596191406,0.003307104110717773,-0.003589332103729248,XArbitraryZVertical,-0.6137912726923894,0.02504320177333225,-0.6351332056729915,0.4682294839198833,-0.7562264800071716,0.606601893901825,-0.2452662289142609,0,0,0,-1,-1,13417.69023541667,unknown,2,2025-04-21T11:14:16.935+03:00,2025-04-20T21:57:49.637+03:00,1567,1.115866,0,0,1172.329,1,4,2025-04-21T11:14:27.253+03:00,766916067.3515623,0,-46.27,100.2868,1,0.65,2025-04-21T11:14:06.322+03:00,123,2.05,2025-04-21T09:28:58.093+03:00,0.01174319131481236,0
2025-04-21T11:14:27.761+03:00,1745223264.941439,40.95357315239047,29.14096675058997,92.88309,-1,-1,-1,-1,30,28.58624055947184,-9999,13424.41605025,-0.7531585693359375,0.59991455078125,-0.2393646240234375,13424.40597425,-2.35264510577966,-1.256608610250477,-0.6515934639407294,0.02508181892335415,0.05230057239532471,-0.01053874380886555,0.001709461212158203,0.0009371042251586914,0.003737509250640869,XArbitraryZVertical,-0.6136038121242333,0.02504115744943086,-0.6353011651308323,0.4682474288307149,-0.7561955451965332,0.6064541935920715,-0.2457266002893448,0,0,0,-1,-1,13417.69023541667,unknown,2,2025-04-21T11:14:16.935+03:00,2025-04-20T21:57:49.637+03:00,1567,1.115866,0,0,1172.329,1,4,2025-04-21T11:14:27.253+03:00,766916067.3515623,0,-46.27,100.2868,1,0.65,2025-04-21T11:14:06.322+03:00,123,2.05,2025-04-21T09:28:58.093+03:00,0.01174319131481236,0
2025-04-21T11:14:27.771+03:00,1745223264.941439,40.95357315239047,29.14096675058997,92.88309,-1,-1,-1,-1,30,28.58624055947184,-9999,13424.42612525,-0.7496490478515625,0.601165771484375,-0.241302490234375,13424.41605025,-2.352416419939918,-1.255938742160823,-0.6513995104978519,0.02589541487395763,0.05636375769972801,-0.01030172221362591,0.001137733459472656,-0.0009380578994750977,0.006370902061462402,XArbitraryZVertical,-0.6133821180678042,0.02505219934089407,-0.6354970530133399,0.4682715111111898,-0.7561426162719727,0.6062999367713928,-0.2462695240974426,0,0,0,-1,-1,13417.69023541667,unknown,2,2025-04-21T11:14:16.935+03:00,2025-04-20T21:57:49.637+03:00,1567,1.115866,0,0,1172.329,1,4,2025-04-21T11:14:27.253+03:00,766916067.3515623,0,-46.27,100.2868,1,0.65,2025-04-21T11:14:06.322+03:00,123,2.05,2025-04-21T09:28:58.093+03:00,0.01174319131481236,0
2025-04-21T11:14:27.781+03:00,1745223264.941439,40.95357315239047,29.14096675058997,92.88309,-1,-1,-1,-1,30,28.58624055947184,-9999,13424.43620125,-0.7485809326171875,0.608978271484375,-0.2417449951171875,13424.42612525,-2.352142388078252,-1.255251969748594,-0.6512446755501133,0.03068271279335022,0.0516211986541748,-0.009642856195569038,0.002903938293457031,-0.006262302398681641,0.007453322410583496,XArbitraryZVertical,-0.6131579125401744,0.02506860374037174,-0.6356785027831663,0.4683179047410826,-0.7560624480247498,0.6061767935752869,-0.246817871928215,0,0,0,-1,-1,13417.69023541667,unknown,2,2025-04-21T11:14:16.935+03:00,2025-04-20T21:57:49.637+03:00,1567,1.115866,0,0,1172.329,1,4,2025-04-21T11:14:27.253+03:00,766916067.3515623,0,-46.27,100.2868,1,0.65,2025-04-21T11:14:06.322+03:00,123,2.05,2025-04-21T09:28:58.093+03:00,0.01174319131481236,0
2025-04-21T11:14:27.792+03:00,1745223264.941439,40.95357315239047,29.14096675058997,92.88309,-1,-1,-1,-1,30,28.58624055947184,-9999,13424.44627725,-0.7483367919921875,0.603179931640625,-0.241424560546875,13424.43620125,-2.351933999801712,-1.25460985088417,-0.6511269834315019,0.01721430942416191,0.05075860023498535,-0.008074787445366383,0.006322622299194336,-0.004917442798614502,0.00602307915687561,XArbitraryZVertical,-0.6129492349771422,0.02510913851854355,-0.6358532776439469,0.4683517864622691,-0.7559717297554016,0.6060832142829895,-0.2473255395889282,0,0,0,-1,-1,13417.69023541667,unknown,2,2025-04-21T11:14:16.935+03:00,2025-04-20T21:57:49.637+03:00,1567,1.115866,0,0,1172.329,1,4,2025-04-21T11:14:27.253+03:00,766916067.3515623,0,-46.27,100.2868,1,0.65,2025-04-21T11:14:06.322+03:00,123,2.05,2025-04-21T09:28:58.093+03:00,0.01174319131481236,0
2025-04-21T11:14:27.802+03:00,1745223264.941439,40.95357315239047,29.14096675058997,92.88309,-1,-1,-1,-1,30,28.58624055947184,-9999,13424.45635225,-0.7518463134765625,0.6026458740234375,-0.244293212890625,13424.44627725,-2.351781875768854,-1.253994171499675,-0.6510333112709168,0.01007783785462379,0.0505727119743824,-0.00428138067945838,0.007292270660400391,0.002969622611999512,0.006063610315322876,XArbitraryZVertical,-0.6127496726814761,0.02517016068690804,-0.6360275158667555,0.4683730411471551,-0.7558732628822327,0.6060087084770203,-0.2478086054325104,0,0,0,-1,-1,13417.69023541667,unknown,2,2025-04-21T11:14:16.935+03:00,2025-04-20T21:57:49.637+03:00,1567,1.115866,0,0,1172.329,1,4,2025-04-21T11:14:27.253+03:00,766916067.3515623,0,-46.27,100.2868,1,0.65,2025-04-21T11:14:06.322+03:00,123,2.05,2025-04-21T09:28:58.093+03:00,0.01174319131481236,0
2025-04-21T11:14:27.812+03:00,1745223264.941439,40.95357315239047,29.14096675058997,92.88309,-1,-1,-1,-1,30,28.58624055947184,-9999,13424.46642825,-0.7581634521484375,0.6039886474609375,-0.24993896484375,13424.45635225,-2.351644617084547,-1.253384445888558,-0.650982257312107,0.01400054059922695,0.05217926576733589,-0.00235185376368463,0.007414579391479492,-0.002788126468658447,0.00685456395149231,XArbitraryZVertical,-0.6125543532630027,0.02525096923314972,-0.6361937443873031,0.4683984795824281,-0.7557514905929565,0.6059680581092834,-0.2482791095972061,0,0,0,-1,-1,13417.69023541667,unknown,2,2025-04-21T11:14:16.935+03:00,2025-04-20T21:57:49.637+03:00,1567,1.115866,0,0,1172.329,1,4,2025-04-21T11:14:27.253+03:00,766916067.3515623,0,-46.27,100.2868,1,0.65,2025-04-21T11:14:06.322+03:00,123,2.05,2025-04-21T09:28:58.093+03:00,0.01174319131481236,0
2025-04-21T11:14:27.822+03:00,1745223264.941439,40.95357315239047,29.14096675058997,92.88309,-1,-1,-1,-1,30,28.58624055947184,-9999,13424.47650425,-0.761383056640625,0.60540771484375,-0.25628662109375,13424.46642825,-2.351509268331238,-1.252772446971482,-0.6509639765889259,0.01035760249942541,0.05403309315443039,-0.001124136499129236,0.003763556480407715,-0.003307700157165527,0.004451870918273926,XArbitraryZVertical,-0.61236025437658,0.0253457374784857,-0.6363535582222075,0.468430001797304,-0.7556098699569702,0.6059535145759583,-0.2487450242042542,0,0,0,-1,-1,13417.69023541667,unknown,2,2025-04-21T11:14:16.935+03:00,2025-04-20T21:57:49.637+03:00,1567,1.115866,0,0,1172.329,1,4,2025-04-21T11:14:27.253+03:00,766916067.3515623,0,-46.27,100.2868,1,0.65,2025-04-21T11:14:06.322+03:00,123,2.05,2025-04-21T09:28:58.093+03:00,0.01174319131481236,0
2025-04-21T11:14:27.832+03:00,1745223264.941439,40.95357315239047,29.14096675058997,92.88309,-1,-1,-1,-1,30,28.58624055947184,-9999,13424.48657925,-0.7571563720703125,0.60980224609375,-0.2646942138671875,13424.47650425,-2.351319667278734,-1.252150896016332,-0.6509025063409334,0.02342779748141766,0.04635459929704666,-0.003902246244251728,-0.002672970294952393,-0.001916050910949707,-0.0007126331329345703,XArbitraryZVertical,-0.6121611093169604,0.02540928942987074,-0.6365133278714663,0.4684697527905379,-0.7554904222488403,0.6059046387672424,-0.2492262870073318,0,0,0,-1,-1,13417.69023541667,unknown,2,2025-04-21T11:14:16.935+03:00,2025-04-20T21:57:49.637+03:00,1567,1.115866,0,0,1172.329,1,4,2025-04-21T11:14:27.253+03:00,766916067.3515623,0,-46.27,100.2868,1,0.65,2025-04-21T11:14:06.322+03:00,123,2.05,2025-04-21T09:28:58.093+03:00,0.01174319131481236,0
2025-04-21T11:14:27.842+03:00,1745223264.941439,40.95357315239047,29.14096675058997,92.88309,-1,-1,-1,-1,30,28.58624055947184,-9999,13424.49665525,-0.7522125244140625,0.6176910400390625,-0.2625885009765625,13424.48657925,-2.351000784223185,-1.251560229106653,-0.6507465301582904,0.03661257773637772,0.03660210594534874,-0.01051833759993315,-0.005950272083282471,-0.0003728270530700684,-0.006584435701370239,XArbitraryZVertical,-0.6119675768997195,0.025389166920019,-0.6366547188555861,0.4685315802659591,-0.7554328441619873,0.6057805418968201,-0.2497021555900574,0,0,0,-1,-1,13417.69023541667,unknown,2,2025-04-21T11:14:16.935+03:00,2025-04-20T21:57:49.637+03:00,1567,1.115866,0,0,1172.329,1,4,2025-04-21T11:14:27.253+03:00,766916067.3515623,0,-46.27,100.2868,1,0.65,2025-04-21T11:14:06.322+03:00,123,2.05,2025-04-21T09:28:58.093+03:00,0.01174319131481236,0
2025-04-21T11:14:27.852+03:00,1745223264.941439,40.95357315239047,29.14096675058997,92.88309,-1,-1,-1,-1,30,28.58624055947184,-9999,13424.50673125,-0.7508087158203125,0.611114501953125,-0.2569580078125,13424.49665525,-2.350659143698588,-1.251037052984629,-0.6505079380147752,0.03214764967560768,0.03146819770336151,-0.01822652481496334,-0.001717031002044678,0.004211544990539551,-0.01455140113830566,XArbitraryZVertical,-0.6117906654107617,0.02531406176402095,-0.6367887454073358,0.4685845192038225,-0.755439281463623,0.6055907011032104,-0.2501427531242371,0,0,0,-1,-1,13417.69023541667,unknown,2,2025-04-21T11:14:16.935+03:00,2025-04-20T21:57:49.637+03:00,1567,1.115866,0,0,1172.329,1,4,2025-04-21T11:14:27.253+03:00,766916067.3515623,0,-46.27,100.2868,1,0.65,2025-04-21T11:14:06.322+03:00,123,2.05,2025-04-21T09:28:58.093+03:00,0.01174319131481236,0
2025-04-21T11:14:27.863+03:00,1745223264.941439,40.95357315239047,29.14096675058997,92.88309,-1,-1,-1,-1,30,28.58624055947184,-9999,13424.51680625,-0.74969482421875,0.611968994140625,-0.25140380859375,13424.50673125,-2.350338370921497,-1.250574452916446,-0.6502266994950713,0.03988706320524216,0.02517860755324364,-0.01714661344885826,0.003272533416748047,0.01232415437698364,-0.01204270124435425,XArbitraryZVertical,-0.6116300702360561,0.02521454967814644,-0.636918670379782,0.4686228285398777,-0.7554849982261658,0.6053668856620789,-0.2505457699298859,0,0,0,-1,-1,13417.69023541667,unknown,2,2025-04-21T11:14:16.935+03:00,2025-04-20T21:57:49.637+03:00,1567,1.115866,0,0,1172.329,1,4,2025-04-21T11:14:27.253+03:00,766916067.3515623,0,-46.27,100.2868,1,0.65,2025-04-21T11:14:06.322+03:00,123,2.05,2025-04-21T09:28:58.093+03:00,0.01174319131481236,0
2025-04-21T11:14:27.872+03:00,1745223264.941439,40.95357315239047,29.14096675058997,92.88309,-1,-1,-1,-1,30,28.58624055947184,-9999,13424.52688225,-0.7518157958984375,0.6078338623046875,-0.25189208984375,13424.51680625,-2.349925489856908,-1.250081578369397,-0.6499553997301842,0.04165380448102951,0.02579246647655964,-0.01496548298746347,0.004708647727966309,0.005963623523712158,-0.005988031625747681,XArbitraryZVertical,-0.6114614759277709,0.0250977812005558,-0.6370341881193887,0.4686923320646326,-0.7555174827575684,0.6051508784294128,-0.2509699165821075,0,0,0,-1,-1,13417.69023541667,unknown,2,2025-04-21T11:14:16.935+03:00,2025-04-20T21:57:49.637+03:00,1567,1.115866,0,0,1172.329,1,4,2025-04-21T11:14:27.253+03:00,766916067.3515623,0,-46.27,100.2868,1,0.65,2025-04-21T11:14:06.322+03:00,123,2.05,2025-04-21T09:28:58.093+03:00,0.01174319131481236,0
2025-04-21T11:14:27.882+03:00,1745223264.941439,40.95357315239047,29.14096675058997,92.88309,-1,-1,-1,-1,30,28.58624055947184,-9999,13424.53695825,-0.754425048828125,0.597869873046875,-0.261444091796875,13424.52688225,-2.349538029660045,-1.249640240736388,-0.6497261227994034,0.03579804673790932,0.01618857681751251,-0.01314121764153242,0.00584334135055542,0.007000565528869629,-5.671381950378418e-05,XArbitraryZVertical,-0.6113115509037229,0.02499330606766017,-0.6371299969932543,0.4687629269827359,-0.7555379867553711,0.6049683690071106,-0.2513470351696014,0,0,0,-1,-1,13417.69023541667,unknown,2,2025-04-21T11:14:16.935+03:00,2025-04-20T21:57:49.637+03:00,1567,1.115866,0,0,1172.329,1,4,2025-04-21T11:14:27.253+03:00,766916067.3515623,0,-46.27,100.2868,1,0.65,2025-04-21T11:14:06.322+03:00,123,2.05,2025-04-21T09:28:58.093+03:00,0.01174319131481236,0
2025-04-21T11:14:27.892+03:00,1745223264.941439,40.95357315239047,29.14096675058997,92.88309,-1,-1,-1,-1,30,28.58624055947184,-9999,13424.54703325,-0.7545318603515625,0.596771240234375,-0.2615814208984375,13424.53695825,-2.349288545741078,-1.249394305305108,-0.6495203792890119,0.01804301887750626,0.006594804115593433,-0.01485949009656906,0.003778636455535889,0.003029286861419678,-0.0003198087215423584,XArbitraryZVertical,-0.611223502897223,0.02489429779552407,-0.6371933455289818,0.4687970548871293,-0.7555943727493286,0.604804515838623,-0.2515722215175629,0,0,0,-1,-1,13417.69023541667,unknown,2,2025-04-21T11:14:16.935+03:00,2025-04-20T21:57:49.637+03:00,1567,1.115866,0,0,1172.329,1,4,2025-04-21T11:14:27.253+03:00,766916067.3515623,0,-46.27,100.2868,1,0.65,2025-04-21T11:14:06.322+03:00,123,2.05,2025-04-21T09:28:58.093+03:00,0.01174319131481236,0
2025-04-21T11:14:27.902+03:00,1745223264.941439,40.95357315239047,29.14096675058997,92.88309,-1,-1,-1,-1,30,28.58624055947184,-9999,13424.55710925,-0.7568206787109375,0.5918426513671875,-0.2584991455078125,13424.54703325,-2.349369839744123,-1.249434318496844,-0.649431244566774,-0.02773059345781803,-0.001680702436715364,-0.006450025830417871,0.001230537891387939,-0.006863653659820557,-0.009885042905807495,XArbitraryZVertical,-0.6112296839680537,0.02487492523300466,-0.6372203949265923,0.4687533398324831,-0.7556556463241577,0.6047335267066956,-0.2515590190887451,0,0,0,-1,-1,13417.69023541667,unknown,2,2025-04-21T11:14:16.935+03:00,2025-04-20T21:57:49.637+03:00,1567,1.115866,0,0,1172.329,1,4,2025-04-21T11:14:27.253+03:00,766916067.3515623,0,-46.27,100.2868,1,0.65,2025-04-21T11:14:06.322+03:00,123,2.05,2025-04-21T09:28:58.093+03:00,0.01174319131481236,0
2025-04-21T11:14:27.913+03:00,1745223264.941439,40.95357315239047,29.14096675058997,92.88309,-1,-1,-1,-1,30,28.58624055947184,-9999,13424.56718525,-0.756683349609375,0.585296630859375,-0.2610626220703125,13424.55710925,-2.350130861974078,-1.249913096873991,-0.6495657480780341,-0.09137428551912308,-0.001386955846101046,-0.004306846763938665,0.001166939735412598,-0.008069455623626709,-0.01040983200073242,XArbitraryZVertical,-0.6113810919043919,0.02504789827147657,-0.6372219030835045,0.4685445105701079,-0.7556987404823303,0.6048406362533569,-0.2511715292930603,0,0,0,-1,-1,13417.69023541667,unknown,2,2025-04-21T11:14:16.935+03:00,2025-04-20T21:57:49.637+03:00,1567,1.115866,0,0,1172.329,1,4,2025-04-21T11:14:27.253+03:00,766916067.3515623,0,-46.27,100.2868,1,0.65,2025-04-21T11:14:06.322+03:00,123,2.05,2025-04-21T09:28:58.093+03:00,0.01174319131481236,0
2025-04-21T11:14:27.922+03:00,1745223264.941439,40.95357315239047,29.14096675058997,92.88309,-1,-1,-1,-1,30,28.58624055947184,-9999,13424.57726025,-0.7572021484375,0.5771942138671875,-0.271697998046875,13424.56718525,-2.351508431186554,-1.250796203546064,-0.6499557476911417,-0.142084613442421,-0.01048937439918518,0.007379370275884867,-0.001124322414398193,-0.01330858469009399,-0.008069217205047607,XArbitraryZVertical,-0.6116691681123346,0.02541460410379899,-0.6371862749449374,0.4681971338597639,-0.7556962966918945,0.6051511764526367,-0.2504298388957977,0,0,0,-1,-1,13417.69023541667,unknown,2,2025-04-21T11:14:16.935+03:00,2025-04-20T21:57:49.637+03:00,1567,1.115866,0,0,1172.329,1,4,2025-04-21T11:14:27.253+03:00,766916067.3515623,0,-46.27,100.2868,1,0.65,2025-04-21T11:14:06.322+03:00,123,2.05,2025-04-21T09:28:58.093+03:00,0.01174319131481236,0
2025-04-21T11:14:27.933+03:00,1745223264.941439,40.95357315239047,29.14096675058997,92.88309,-1,-1,-1,-1,30,28.58624055947184,-9999,13424.58733625,-0.7651824951171875,0.578521728515625,-0.2816925048828125,13424.57726025,-2.353415835858051,-1.251956851666757,-0.6505386878048227,-0.1837441623210907,0.001066348049789667,0.008394832722842693,-0.001031994819641113,-0.02031862735748291,-0.01162064075469971,XArbitraryZVertical,-0.6120501653131359,0.02595421922536931,-0.6371456065057322,0.4677246715136002,-0.7556512951850891,0.6056151390075684,-0.2494419515132904,0,0,0,-1,-1,13417.69023541667,unknown,2,2025-04-21T11:14:16.935+03:00,2025-04-20T21:57:49.637+03:00,1567,1.115866,0,0,1172.329,1,4,2025-04-21T11:14:27.253+03:00,766916067.3515623,0,-46.27,100.2868,1,0.65,2025-04-21T11:14:06.322+03:00,123,2.05,2025-04-21T09:28:58.093+03:00,0.01174319131481236,0
2025-04-21T11:14:27.942+03:00,1745223264.941439,40.95357315239047,29.14096675058997,92.88309,-1,-1,-1,-1,30,28.58624055947184,-9999,13424.59741225,-0.7661590576171875,0.5908660888671875,-0.298370361328125,13424.58733625,-2.355643369600751,-1.253360147786745,-0.6512072758216217,-0.1910436153411865,-0.02361343242228031,0.002152383793145418,-0.001586318016052246,-0.02895289659500122,-0.0234430730342865,XArbitraryZVertical,-0.6125084995789696,0.0265692330783159,-0.637085389991483,0.4671717348811761,-0.7556156516075134,0.6061470508575439,-0.2482548207044601,0,0,0,-1,-1,13417.69023541667,unknown,2,2025-04-21T11:14:16.935+03:00,2025-04-20T21:57:49.637+03:00,1567,1.115866,0,0,1172.329,1,4,2025-04-21T11:14:27.253+03:00,766916067.3515623,0,-46.27,100.2868,1,0.65,2025-04-21T11:14:06.322+03:00,123,2.05,2025-04-21T09:28:58.093+03:00,0.01174319131481236,0
2025-04-21T11:14:27.953+03:00,1745223264.941439,40.95357315239047,29.14096675058997,92.88309,-1,-1,-1,-1,30,28.58624055947184,-9999,13424.60748725,-0.7626953125,0.6119842529296875,-0.3254241943359375,13424.59741225,-2.35773719625528,-1.255247687085898,-0.6517527530518148,-0.1469161659479141,-0.1129953041672707,-0.002064764965325594,-0.00941389799118042,-0.02805918455123901,-0.03496693074703217,XArbitraryZVertical,-0.6131143181836307,0.02698303563791998,-0.6368725835559879,0.4666432388799462,-0.7557684779167175,0.6065807938575745,-0.2467254996299744,0,0,0,-1,-1,13417.69023541667,unknown,2,2025-04-21T11:14:16.935+03:00,2025-04-20T21:57:49.637+03:00,1567,1.115866,0,0,1172.329,1,4,2025-04-21T11:14:27.253+03:00,766916067.3515623,0,-46.27,100.2868,1,0.65,2025-04-21T11:14:06.322+03:00,123,2.05,2025-04-21T09:28:58.093+03:00,0.01174319131481236,0
2025-04-21T11:14:27.963+03:00,1745223264.941439,40.95357315239047,29.14096675058997,92.88309,-1,-1,-1,-1,30,28.58624055947184,-9999,13424.61756325,-0.77490234375,0.59381103515625,-0.362548828125,13424.60748725,-2.358393028683556,-1.257378725611874,-0.6516964808333114,0.0631885901093483,-0.2272233515977859,-0.05347708985209465,-0.009833931922912598,-0.0156700611114502,-0.05324541032314301,XArbitraryZVertical,-0.6137805203216666,0.0266651275243299,-0.6363846437253157,0.4664513623353881,-0.7563250064849854,0.6065360903739929,-0.2451248914003372,0,0,0,-1,-1,13417.69023541667,unknown,2,2025-04-21T11:14:16.935+03:00,2025-04-20T21:57:49.637+03:00,1567,1.115866,0,0,1172.329,1,4,2025-04-21T11:14:27.253+03:00,766916067.3515623,0,-46.27,100.2868,1,0.65,2025-04-21T11:14:06.322+03:00,123,2.05,2025-04-21T09:28:58.093+03:00,0.01174319131481236,0
2025-04-21T11:14:27.973+03:00,1745223264.941439,40.95357315239047,29.14096675058997,92.88309,-1,-1,-1,-1,30,28.58624055947184,-9999,13424.62763925,-0.7722015380859375,0.5924072265625,-0.37725830078125,13424.61756325,-2.356524935209047,-1.259297748380549,-0.650190128335364,0.3001558482646942,-0.4089438915252686,-0.139099046587944,-0.005032360553741455,0.006646454334259033,-0.08147132396697998,XArbitraryZVertical,-0.6143254634855261,0.02505648868015844,-0.6357000655814489,0.4667566005126664,-0.7576628923416138,0.6053377389907837,-0.2439527958631516,0,0,0,-1,-1,13417.69023541667,unknown,2,2025-04-21T11:14:16.935+03:00,2025-04-20T21:57:49.637+03:00,1567,1.115866,0,0,1172.329,1,4,2025-04-21T11:14:27.253+03:00,766916067.3515623,0,-46.27,100.2868,1,0.65,2025-04-21T11:14:06.322+03:00,123,2.05,2025-04-21T09:28:58.093+03:00,0.01174319131481236,0
2025-04-21T11:14:27.983+03:00,1745223264.941439,40.95357315239047,29.14096675058997,92.88309,-1,-1,-1,-1,30,28.58624055947184,-9999,13424.63771425,-0.71484375,0.6576995849609375,-0.4022064208984375,13424.62763925,-2.352944395778432,-1.262475933495964,-0.6472257721151952,0.3954903781414032,-0.6380487084388733,-0.2434880286455154,-0.01476138830184937,-0.009164512157440186,-0.1204617321491241,XArbitraryZVertical,-0.6151990453470508,0.02205882582953153,-0.6345570158796803,0.4673124908124963,-0.7601410150527954,0.6029755473136902,-0.2420870810747147,0,0,0,-1,-1,13417.69023541667,unknown,2,2025-04-21T11:14:16.935+03:00,2025-04-20T21:57:49.637+03:00,1567,1.115866,0,0,1172.329,1,4,2025-04-21T11:14:27.253+03:00,766916067.3515623,0,-46.27,100.2868,1,0.65,2025-04-21T11:14:06.322+03:00,123,2.05,2025-04-21T09:28:58.093+03:00,0.01174319131481236,0
2025-04-21T11:14:27.993+03:00,1745223264.941439,40.95357315239047,29.14096675058997,92.88309,-1,-1,-1,-1,30,28.58624055947184,-9999,13424.64779025,-0.691009521484375,0.6731109619140625,-0.352142333984375,13424.63771425,-2.350698758086867,-1.267353590634638,-0.6440823357254528,0.07648515701293945,-0.5491337776184082,-0.2277166992425919,-0.009083747863769531,-0.008057713508605957,-0.1383165717124939,XArbitraryZVertical,-0.6165776478250572,0.01900440117623103,-0.6332403329520652,0.4674157225359659,-0.7631177306175232,0.6004648804664612,-0.2389416694641113,0,0,0,-1,-1,13417.69023541667,unknown,2,2025-04-21T11:14:16.935+03:00,2025-04-20T21:57:49.637+03:00,1567,1.115866,0,0,1172.329,1,4,2025-04-21T11:14:27.253+03:00,766916067.3515623,0,-46.27,100.2868,1,0.65,2025-04-21T11:14:06.322+03:00,123,2.05,2025-04-21T09:28:58.093+03:00,0.01174319131481236,0
2025-04-21T11:14:28.003+03:00,1745223264.941439,40.95357315239047,29.14096675058997,92.88309,-1,-1,-1,-1,30,28.58624055947184,-9999,13424.65786625,-0.78924560546875,0.5630645751953125,-0.2862396240234375,13424.64779025,-2.355236695224516,-1.272741163402886,-0.6439385562976149,-0.8123986721038818,-0.02539335563778877,0.02227822504937649,0.049632728099823,0.05734968185424805,-0.1673541963100433,XArbitraryZVertical,-0.6182308400436016,0.01909217809315943,-0.632668597746983,0.4660005779227236,-0.7644765377044678,0.6003499031066895,-0.2348522394895554,0,0,0,-1,-1,13417.69023541667,unknown,2,2025-04-21T11:14:16.935+03:00,2025-04-20T21:57:49.637+03:00,1567,1.115866,0,0,1172.329,1,4,2025-04-21T11:14:27.253+03:00,766916067.3515623,0,-46.27,100.2868,1,0.65,2025-04-21T11:14:06.322+03:00,123,2.05,2025-04-21T09:28:58.093+03:00,0.01174319131481236,0
2025-04-21T11:14:28.013+03:00,1745223264.941439,40.95357315239047,29.14096675058997,92.88309,-1,-1,-1,-1,30,28.58624055947184,-9999,13424.66794125,-0.8631591796875,0.4501953125,-0.4503326416015625,13424.65786625,-2.367350679695694,-1.278955432849719,-0.6481986645210425,-1.19045615196228,0.242118775844574,0.204979196190834,0.07245534658432007,0.06935954093933105,-0.1227831542491913,XArbitraryZVertical,-0.6203135996902672,0.02305347522936946,-0.6325984919834607,0.4631401146296935,-0.7634649276733398,0.6037514209747314,-0.2293591499328613,0,0,0,-1,-1,13417.69023541667,unknown,2,2025-04-21T11:14:16.935+03:00,2025-04-20T21:57:49.637+03:00,1567,1.115866,0,0,1172.329,1,4,2025-04-21T11:14:27.253+03:00,766916067.3515623,0,-46.27,100.2868,1,0.65,2025-04-21T11:14:06.322+03:00,123,2.05,2025-04-21T09:28:58.093+03:00,0.01174319131481236,0
2025-04-21T11:14:28.023+03:00,1745223264.941439,40.95357315239047,29.14096675058997,92.88309,-1,-1,-1,-1,30,28.58624055947184,-9999,13424.67801725,-0.7646026611328125,0.5697784423828125,-0.62615966796875,13424.66794125,-2.381155693886496,-1.28452187609491,-0.6542298011573393,-1.200897574424744,0.2532912790775299,0.3319602906703949,-0.0280228853225708,-0.04548370838165283,-0.06216609477996826,XArbitraryZVertical,-0.6222193291094561,0.02839657591501115,-0.6326992881978234,0.4601394111277928,-0.7612226605415344,0.6085482835769653,-0.2240734845399857,0,0,0,-1,-1,13417.69023541667,unknown,2,2025-04-21T11:14:16.935+03:00,2025-04-20T21:57:49.637+03:00,1567,1.115866,0,0,1172.329,1,4,2025-04-21T11:14:27.253+03:00,766916067.3515623,0,-46.27,100.2868,1,0.65,2025-04-21T11:14:06.322+03:00,123,2.05,2025-04-21T09:28:58.093+03:00,0.01174319131481236,0
2025-04-21T11:14:28.034+03:00,1745223264.941439,40.95357315239047,29.14096675058997,92.88309,-1,-1,-1,-1,30,28.58624055947184,-9999,13424.68809325,-0.672088623046875,0.6978607177734375,-0.640106201171875,13424.67801725,-2.393674074122504,-1.290586849855488,-0.661286204121205,-1.123193740844727,0.03736356645822525,0.4247585833072662,-0.1047369837760925,-0.1639371514320374,-0.2320730090141296,XArbitraryZVertical,-0.6242903987635003,0.03364075641566271,-0.6320967370753183,0.4578029809661808,-0.7584221959114075,0.6141324639320374,-0.2182595878839493,0,0,0,-1,-1,13417.69023541667,unknown,2,2025-04-21T11:14:16.935+03:00,2025-04-20T21:57:49.637+03:00,1567,1.115866,0,0,1172.329,1,4,2025-04-21T11:14:27.253+03:00,766916067.3515623,0,-46.27,100.2868,1,0.65,2025-04-21T11:14:06.322+03:00,123,2.05,2025-04-21T09:28:58.093+03:00,0.01174319131481236,0
2025-04-21T11:14:28.043+03:00,1745223264.941439,40.95357315239047,29.14096675058997,92.88309,-1,-1,-1,-1,30,28.58624055947184,-9999,13424.69816825,-0.7542572021484375,0.6475372314453125,-0.6349639892578125,13424.68809325,-2.407122194874705,-1.299920405779094,-0.668231291096257,-1.299865007400513,-0.2354205697774887,0.3428639769554138,-0.008304476737976074,-0.04982030391693115,-0.4161345660686493,XArbitraryZVertical,-0.6273057313194532,0.03840596837425574,-0.6306862516999272,0.4552440724559132,-0.7562980055809021,0.6195986866950989,-0.2100249975919724,0,0,0,-1,-1,13417.69023541667,unknown,2,2025-04-21T11:14:16.935+03:00,2025-04-20T21:57:49.637+03:00,1567,1.115866,0,0,1172.329,1,4,2025-04-21T11:14:27.253+03:00,766916067.3515623,0,-46.27,100.2868,1,0.65,2025-04-21T11:14:06.322+03:00,123,2.05,2025-04-21T09:28:58.093+03:00,0.01174319131481236,0
2025-04-21T11:14:28.053+03:00,1745223264.941439,40.95357315239047,29.14096675058997,92.88309,-1,-1,-1,-1,30,28.58624055947184,-9999,13424.70824425,-0.82080078125,0.6015625,-0.60406494140625,13424.69816825,-2.424156338868679,-1.314934000909212,-0.6755862621920615,-1.618134617805481,-0.6276488304138184,0.3866572678089142,0.08284813165664673,0.07250571250915527,-0.4426178336143494,XArbitraryZVertical,-0.6319726090141432,0.04320246173579335,-0.62817300968956,0.4518215341184483,-0.754936695098877,0.6253548860549927,-0.1974883377552032,0,0,0,-1,-1,13417.69023541667,unknown,2,2025-04-21T11:14:16.935+03:00,2025-04-20T21:57:49.637+03:00,1567,1.115866,0,0,1172.329,1,4,2025-04-21T11:14:27.253+03:00,766916067.3515623,0,-46.27,100.2868,1,0.65,2025-04-21T11:14:06.322+03:00,123,2.05,2025-04-21T09:28:58.093+03:00,0.01174319131481236,0
2025-04-21T11:14:28.064+03:00,1745223264.941439,40.95357315239047,29.14096675058997,92.88309,-1,-1,-1,-1,30,28.58624055947184,-9999,13424.71832025,-0.819671630859375,0.65972900390625,-0.6218109130859375,13424.70824425,-2.444574246076487,-1.334819447624736,-0.6837209022384367,-1.809853434562683,-0.7725325226783752,0.3996137976646423,-0.000513911247253418,0.01585519313812256,-0.453721284866333,XArbitraryZVertical,-0.637998464259426,0.0483385458932159,-0.6246314593009141,0.4477239489135749,-0.7537431716918945,0.6316819190979004,-0.1812426894903183,0,0,0,-1,-1,13417.69023541667,unknown,2,2025-04-21T11:14:16.935+03:00,2025-04-20T21:57:49.637+03:00,1567,1.115866,0,0,1172.329,1,4,2025-04-21T11:14:27.253+03:00,766916067.3515623,0,-46.27,100.2868,1,0.65,2025-04-21T11:14:06.322+03:00,123,2.05,2025-04-21T09:28:58.093+03:00,0.01174319131481236,0
2025-04-21T11:14:28.074+03:00,1745223264.941439,40.95357315239047,29.14096675058997,92.88309,-1,-1,-1,-1,30,28.58624055947184,-9999,13424.72839525,-0.7800750732421875,0.75421142578125,-0.62652587890625,13424.71832025,-2.465660306692368,-1.357316455254632,-0.6915316054290479,-1.639924883842468,-1.040026307106018,0.3928124904632568,-0.06801605224609375,-0.03615528345108032,-0.440873920917511,XArbitraryZVertical,-0.6446611232035521,0.05307108985562536,-0.6203749275826691,0.4435429034800716,-0.7527846097946167,0.6377176642417908,-0.1631909906864166,0,0,0,-1,-1,13417.69023541667,unknown,2,2025-04-21T11:14:16.935+03:00,2025-04-20T21:57:49.637+03:00,1567,1.115866,0,0,1172.329,1,4,2025-04-21T11:14:27.253+03:00,766916067.3515623,0,-46.27,100.2868,1,0.65,2025-04-21T11:14:06.322+03:00,123,2.05,2025-04-21T09:28:58.093+03:00,0.01174319131481236,0
2025-04-21T11:14:28.084+03:00,1745223264.941439,40.95357315239047,29.14096675058997,92.88309,-1,-1,-1,-1,30,28.58624055947184,-9999,13424.73847125,-0.72265625,0.8143157958984375,-0.6776885986328125,13424.72839525,-2.48250140136769,-1.380086131041085,-0.6980633595854216,-1.105517029762268,-1.352740883827209,0.3383074402809143,-0.06747257709503174,0.01699364185333252,-0.4765940308570862,XArbitraryZVertical,-0.6513513110677545,0.05597368408025776,-0.6152695619210015,0.4405130057023515,-0.7521989941596985,0.6427352428436279,-0.1452168375253677,0,0,0,-1,-1,13417.69023541667,unknown,2,2025-04-21T11:14:16.935+03:00,2025-04-20T21:57:49.637+03:00,1567,1.115866,0,0,1172.329,1,4,2025-04-21T11:14:27.253+03:00,766916067.3515623,0,-46.27,100.2868,1,0.65,2025-04-21T11:14:06.322+03:00,123,2.05,2025-04-21T09:28:58.093+03:00,0.01174319131481236,0
2025-04-21T11:14:28.094+03:00,1745223264.941439,40.95357315239047,29.14096675058997,92.88309,-1,-1,-1,-1,30,28.58624055947184,-9999,13424.74854725,-0.7427215576171875,0.7832183837890625,-0.69281005859375,13424.73847125,-2.493081015943159,-1.401637136170142,-0.7020914317525929,-0.6724312305450439,-1.543310284614563,0.1732968688011169,-0.02747952938079834,0.1083954572677612,-0.4979890584945679,XArbitraryZVertical,-0.6577015726385327,0.05621600040435919,-0.6096510021001066,0.4388552760328786,-0.7525954842567444,0.645815908908844,-0.1285368055105209,0,0,0,-1,-1,13417.69023541667,unknown,2,2025-04-21T11:14:16.935+03:00,2025-04-20T21:57:49.637+03:00,1567,1.115866,0,0,1172.329,1,4,2025-04-21T11:14:27.253+03:00,766916067.3515623,0,-46.27,100.2868,1,0.65,2025-04-21T11:14:06.322+03:00,123,2.05,2025-04-21T09:28:58.093+03:00,0.01174319131481236,0
