loggingTime(txt),locationTimestamp_since1970(s),locationLatitude(WGS84),locationLongitude(WGS84),locationAltitude(m),locationSpeed(m/s),locationSpeedAccuracy(m/s),locationCourse(°),locationCourseAccuracy(°),locationVerticalAccuracy(m),locationHorizontalAccuracy(m),locationFloor(Z),accelerometerTimestamp_sinceReboot(s),accelerometerAccelerationX(G),accelerometerAccelerationY(G),accelerometerAccelerationZ(G),motionTimestamp_sinceReboot(s),motionYaw(rad),motionRoll(rad),motionPitch(rad),motionRotationRateX(rad/s),motionRotationRateY(rad/s),motionRotationRateZ(rad/s),motionUserAccelerationX(G),motionUserAccelerationY(G),motionUserAccelerationZ(G),motionAttitudeReferenceFrame(txt),motionQuaternionX(R),motionQuaternionY(R),motionQuaternionZ(R),motionQuaternionW(R),motionGravityX(G),motionGravityY(G),motionGravityZ(G),motionMagneticFieldX(µT),motionMagneticFieldY(µT),motionMagneticFieldZ(µT),motionHeading(°),motionMagneticFieldCalibrationAccuracy(Z),activityTimestamp_sinceReboot(s),activity(txt),activityActivityConfidence(Z),activityActivityStartDate(txt),pedometerStartDate(txt),pedometerNumberofSteps(N),pedometerAverageActivePace(s/m),pedometerCurrentPace(s/m),pedometerCurrentCadence(steps/s),pedometerDistance(m),pedometerFloorAscended(N),pedometerFloorDescended(N),pedometerEndDate(txt),altimeterTimestamp_sinceReboot(s),altimeterReset(bool),altimeterRelativeAltitude(m),altimeterPressure(kPa),batteryState(N),batteryLevel(R),heartRateBPMTimestamp(txt),heartRateBPM(N),heartRateBPS(R),heartRateVariabilityTimestamp(txt),heartRateVariability(ms),label
2025-04-22T15:53:07.947+03:00,1745326387.629975,40.9522137686932,29.14028088868508,76.16171,-1,-1,-1,-1,30,19.36516156965402,-9999,36431.0730975,-0.6967926025390625,0.4053955078125,-0.4587554931640625,36431.06302150001,-2.688820341959216,-0.9561317549743942,-0.4714384423982511,-0.002800705377012491,-0.06663808971643448,0.04346507415175438,0.003483712673187256,-0.0251828134059906,0.01174783706665039,XArbitraryZVertical,-0.4824693927736478,0.1016592772912393,-0.8171876917920754,0.298484080049903,-0.7278487682342529,0.454168289899826,-0.5137773752212524,0,0,0,-1,-1,36426.358702625,unknown,2,2025-04-22T15:53:03.194+03:00,2025-04-21T17:08:51.449+03:00,8293,1.047924,0,0,6896.382,7,22,2025-04-22T15:52:55.455+03:00,767019185.8753557,0,-14.37,100.3758,1,0.5,2025-04-22T15:50:57.745+03:00,80,1.333333333333333,2025-04-22T14:20:19.516+03:00,0.02197104130929222,0
2025-04-22T15:53:07.951+03:00,1745326387.629975,40.9522137686932,29.14028088868508,76.16171,-1,-1,-1,-1,30,19.36516156965402,-9999,36431.0831735,-0.761322021484375,0.4349212646484375,-0.4864959716796875,36431.0730975,-2.688572535429519,-0.9561159626230007,-0.4718892898561996,-0.01185838226228952,0.03609494864940643,0.06092795357108116,0.01539319753646851,-0.05204316973686218,0.03993099927902222,XArbitraryZVertical,-0.482495622431705,0.1017969331510985,-0.8170863102158187,0.2986722911375023,-0.7276732921600342,0.4545699059963226,-0.5136707425117493,0,0,0,-1,-1,36426.358702625,unknown,2,2025-04-22T15:53:03.194+03:00,2025-04-21T17:08:51.449+03:00,8293,1.047924,0,0,6896.382,7,22,2025-04-22T15:52:55.455+03:00,767019185.8753557,0,-14.37,100.3758,1,0.5,2025-04-22T15:50:57.745+03:00,80,1.333333333333333,2025-04-22T14:20:19.516+03:00,0.02197104130929222,0
2025-04-22T15:53:07.953+03:00,1745326387.629975,40.9522137686932,29.14028088868508,76.16171,-1,-1,-1,-1,30,19.36516156965402,-9999,36431.0932495,-0.713714599609375,0.448699951171875,-0.5006866455078125,36431.0831735,-2.688425246738892,-0.9558380943117942,-0.4724611310524435,-0.03477541357278824,-0.003206119406968355,0.05124390125274658,0.02504777908325195,-0.04657098650932312,0.05324304103851318,XArbitraryZVertical,-0.4824150580777892,0.1020503253271922,-0.8170448354734263,0.2988295976655647,-0.7273181676864624,0.4550791680812836,-0.5137228965759277,0,0,0,-1,-1,36426.358702625,unknown,2,2025-04-22T15:53:03.194+03:00,2025-04-21T17:08:51.449+03:00,8293,1.047924,0,0,6896.382,7,22,2025-04-22T15:52:55.455+03:00,767019185.8753557,0,-14.37,100.3758,1,0.5,2025-04-22T15:50:57.745+03:00,80,1.333333333333333,2025-04-22T14:20:19.516+03:00,0.02197104130929222,0
2025-04-22T15:53:07.955+03:00,1745326387.629975,40.9522137686932,29.14028088868508,76.16171,-1,-1,-1,-1,30,19.36516156965402,-9999,36431.1033265,-0.68853759765625,0.4644317626953125,-0.5069427490234375,36431.0932495,-2.688494850730948,-0.9560680105130824,-0.4730993248879991,-0.0394262932240963,-0.02950503490865231,0.04181487858295441,-0.03628981113433838,-0.01804065704345703,0.02335184812545776,XArbitraryZVertical,-0.4825338191777259,0.1023089172453002,-0.8169029644993543,0.2989370262977594,-0.7271987795829773,0.4556473791599274,-0.5133879780769348,0,0,0,-1,-1,36426.358702625,unknown,2,2025-04-22T15:53:03.194+03:00,2025-04-21T17:08:51.449+03:00,8293,1.047924,0,0,6896.382,7,22,2025-04-22T15:52:55.455+03:00,767019185.8753557,0,-14.37,100.3758,1,0.5,2025-04-22T15:50:57.745+03:00,80,1.333333333333333,2025-04-22T14:20:19.516+03:00,0.02197104130929222,0
2025-04-22T15:53:07.957+03:00,1745326387.629975,40.9522137686932,29.14028088868508,76.16171,-1,-1,-1,-1,30,19.36516156965402,-9999,36431.1134025,-0.734527587890625,0.4690093994140625,-0.5130767822265625,36431.1033265,-2.68853380829734,-0.9561984022104142,-0.4736524947417131,-0.02855127677321434,-0.0001737778075039387,0.03499718755483627,0.02340078353881836,-0.005486756563186646,0.01137763261795044,XArbitraryZVertical,-0.4826096208748644,0.1025381517092779,-0.8167934476260521,0.2990354028722331,-0.7270596623420715,0.4561397135257721,-0.51314777135849,0,0,0,-1,-1,36426.358702625,unknown,2,2025-04-22T15:53:03.194+03:00,2025-04-21T17:08:51.449+03:00,8293,1.047924,0,0,6896.382,7,22,2025-04-22T15:52:55.455+03:00,767019185.8753557,0,-14.37,100.3758,1,0.5,2025-04-22T15:50:57.745+03:00,80,1.333333333333333,2025-04-22T14:20:19.516+03:00,0.02197104130929222,0
2025-04-22T15:53:07.964+03:00,1745326387.629975,40.9522137686932,29.14028088868508,76.16171,-1,-1,-1,-1,30,19.36516156965402,-9999,36431.12347850001,-0.727813720703125,0.4681396484375,-0.50738525390625,36431.1134025,-2.688578778749956,-0.956201454578491,-0.4740814752671147,-0.03108946606516838,-0.002805979456752539,0.02254055067896843,0.03300803899765015,0.009481906890869141,0.00464022159576416,XArbitraryZVertical,-0.4826275469258717,0.1027341211281294,-0.8167344095396476,0.2991006577737507,-0.7269013524055481,0.4565214216709137,-0.5130326747894287,0,0,0,-1,-1,36426.358702625,unknown,2,2025-04-22T15:53:03.194+03:00,2025-04-21T17:08:51.449+03:00,8293,1.047924,0,0,6896.382,7,22,2025-04-22T15:52:55.455+03:00,767019185.8753557,0,-14.37,100.3758,1,0.5,2025-04-22T15:50:57.745+03:00,80,1.333333333333333,2025-04-22T14:20:19.516+03:00,0.02197104130929222,0
2025-04-22T15:53:07.973+03:00,1745326387.629975,40.9522137686932,29.14028088868508,76.16171,-1,-1,-1,-1,30,19.36516156965402,-9999,36431.1335555,-0.723419189453125,0.466156005859375,-0.503173828125,36431.12347850001,-2.688806315680556,-0.9563104285220085,-0.4744620269565695,-0.04317329451441765,0.002393043134361506,0.01402056589722633,-0.01038247346878052,0.01202726364135742,0.0001730918884277344,XArbitraryZVertical,-0.4826771646019418,0.1029373597084967,-0.8166844037511648,0.2990873757963898,-0.7268152832984924,0.4568599760532379,-0.5128533244132996,0,0,0,-1,-1,36426.358702625,unknown,2,2025-04-22T15:53:03.194+03:00,2025-04-21T17:08:51.449+03:00,8293,1.047924,0,0,6896.382,7,22,2025-04-22T15:52:55.455+03:00,767019185.8753557,0,-14.37,100.3758,1,0.5,2025-04-22T15:50:57.745+03:00,80,1.333333333333333,2025-04-22T14:20:19.516+03:00,0.02197104130929222,0
2025-04-22T15:53:07.989+03:00,1745326387.629975,40.9522137686932,29.14028088868508,76.16171,-1,-1,-1,-1,30,19.36516156965402,-9999,36431.1436315,-0.7378082275390625,0.4654388427734375,-0.5043487548828125,36431.1335555,-2.689093421168208,-0.9563263916849003,-0.4748121011045464,-0.04198279604315758,0.0157318189740181,0.01057873014360666,0.001106917858123779,0.01110553741455078,0.006813645362854004,XArbitraryZVertical,-0.4826843374720082,0.103155715244669,-0.8166702886845894,0.2990390448566185,-0.7266927361488342,0.4571713507175446,-0.5127494335174561,0,0,0,-1,-1,36426.358702625,unknown,2,2025-04-22T15:53:03.194+03:00,2025-04-21T17:08:51.449+03:00,8293,1.047924,0,0,6896.382,7,22,2025-04-22T15:52:55.455+03:00,767019185.8753557,0,-14.37,100.3758,1,0.5,2025-04-22T15:50:57.745+03:00,80,1.333333333333333,2025-04-22T14:20:19.516+03:00,0.02197104130929222,0
2025-04-22T15:53:07.993+03:00,1745326387.629975,40.9522137686932,29.14028088868508,76.16171,-1,-1,-1,-1,30,19.36516156965402,-9999,36431.1537075,-0.731231689453125,0.4659881591796875,-0.50531005859375,36431.1436315,-2.689420532719595,-0.9563313996687615,-0.4751024888819418,-0.03942402824759483,0.0115192299708724,0.00364918471314013,0.0007110238075256348,0.008848398923873901,0.01005983352661133,XArbitraryZVertical,-0.4826822789573269,0.103359544365798,-0.8166738376018009,0.2989622039958449,-0.7265867590904236,0.4574295878410339,-0.5126692652702332,0,0,0,-1,-1,36426.358702625,unknown,2,2025-04-22T15:53:03.194+03:00,2025-04-21T17:08:51.449+03:00,8293,1.047924,0,0,6896.382,7,22,2025-04-22T15:52:55.455+03:00,767019185.8753557,0,-14.37,100.3758,1,0.5,2025-04-22T15:50:57.745+03:00,80,1.333333333333333,2025-04-22T14:20:19.516+03:00,0.02197104130929222,0
2025-04-22T15:53:08.003+03:00,1745326387.629975,40.9522137686932,29.14028088868508,76.16171,-1,-1,-1,-1,30,19.36516156965402,-9999,36431.1637835,-0.731842041015625,0.46673583984375,-0.50738525390625,36431.1537075,-2.689788594883123,-0.9563822288582593,-0.4752938757662263,-0.03548095747828484,0.01353311259299517,-0.005153761245310307,-0.01141941547393799,0.007259160280227661,0.008019328117370605,XArbitraryZVertical,-0.4826923926085754,0.1035235646595748,-0.8166875350823287,0.2988517777936428,-0.7265413403511047,0.4575997591018677,-0.5125818252563477,0,0,0,-1,-1,36426.358702625,unknown,2,2025-04-22T15:53:03.194+03:00,2025-04-21T17:08:51.449+03:00,8293,1.047924,0,0,6896.382,7,22,2025-04-22T15:52:55.455+03:00,767019185.8753557,0,-14.37,100.3758,1,0.5,2025-04-22T15:50:57.745+03:00,80,1.333333333333333,2025-04-22T14:20:19.516+03:00,0.02197104130929222,0
2025-04-22T15:53:08.021+03:00,1745326387.629975,40.9522137686932,29.14028088868508,76.16171,-1,-1,-1,-1,30,19.36516156965402,-9999,36431.1738605,-0.7365264892578125,0.4640350341796875,-0.510345458984375,36431.1637835,-2.690201206556092,-0.9564143263356475,-0.4754278678122539,-0.0361747108399868,0.01985439285635948,-0.01159648038446903,-0.004571318626403809,0.008910030126571655,0.006923079490661621,XArbitraryZVertical,-0.4826899995659572,0.1036763241357622,-0.816721045186476,0.2987110088014375,-0.7265076637268066,0.4577189087867737,-0.5125231742858887,0,0,0,-1,-1,36426.358702625,unknown,2,2025-04-22T15:53:03.194+03:00,2025-04-21T17:08:51.449+03:00,8293,1.047924,0,0,6896.382,7,22,2025-04-22T15:52:55.455+03:00,767019185.8753557,0,-14.37,100.3758,1,0.5,2025-04-22T15:50:57.745+03:00,80,1.333333333333333,2025-04-22T14:20:19.516+03:00,0.02197104130929222,0
2025-04-22T15:53:08.024+03:00,1745326387.629975,40.9522137686932,29.14028088868508,76.16171,-1,-1,-1,-1,30,19.36516156965402,-9999,36431.18393650001,-0.7352447509765625,0.462860107421875,-0.5058135986328125,36431.1738605,-2.690638449446145,-0.9564310667089138,-0.4755084541692777,-0.03731467574834824,0.02121619880199432,-0.01588436961174011,-0.005859375,0.008792608976364136,0.005226433277130127,XArbitraryZVertical,-0.482677668138397,0.1038142039798895,-0.8167700849688587,0.298549010289761,-0.7264860868453979,0.4577905535697937,-0.5124897360801697,0,0,0,-1,-1,36426.358702625,unknown,2,2025-04-22T15:53:03.194+03:00,2025-04-21T17:08:51.449+03:00,8293,1.047924,0,0,6896.382,7,22,2025-04-22T15:52:55.455+03:00,767019185.8753557,0,-14.37,100.3758,1,0.5,2025-04-22T15:50:57.745+03:00,80,1.333333333333333,2025-04-22T14:20:19.516+03:00,0.02197104130929222,0
2025-04-22T15:53:08.034+03:00,1745326387.629975,40.9522137686932,29.14028088868508,76.16171,-1,-1,-1,-1,30,19.36516156965402,-9999,36431.1940125,-0.73150634765625,0.463165283203125,-0.503692626953125,36431.18393650001,-2.691165040341112,-0.9564154263415752,-0.4755994416807496,-0.04934949800372124,0.03016708418726921,-0.019969392567873,-0.01096737384796143,0.006636589765548706,0.002604484558105469,XArbitraryZVertical,-0.4826478800064555,0.1039829737042778,-0.8168386638226455,0.2983508572515708,-0.7264440655708313,0.4578714370727539,-0.5124771595001221,0,0,0,-1,-1,36426.358702625,unknown,2,2025-04-22T15:53:03.194+03:00,2025-04-21T17:08:51.449+03:00,8293,1.047924,0,0,6896.382,7,22,2025-04-22T15:52:55.455+03:00,767019185.8753557,0,-14.37,100.3758,1,0.5,2025-04-22T15:50:57.745+03:00,80,1.333333333333333,2025-04-22T14:20:19.516+03:00,0.02197104130929222,0
2025-04-22T15:53:08.044+03:00,1745326387.629975,40.9522137686932,29.14028088868508,76.16171,-1,-1,-1,-1,30,19.36516156965402,-9999,36431.2040885,-0.7315216064453125,0.462615966796875,-0.5057525634765625,36431.1940125,-2.691759078655313,-0.9563246828350963,-0.4757633593312554,-0.05437221750617027,0.03721753507852554,-0.02065955102443695,-0.007855594158172607,0.004720777273178101,0.007586240768432617,XArbitraryZVertical,-0.4825870266398186,0.1042107787119182,-0.8169242123859738,0.2981353944816982,-0.7263361811637878,0.4580171704292297,-0.5124997496604919,0,0,0,-1,-1,36426.358702625,unknown,2,2025-04-22T15:53:03.194+03:00,2025-04-21T17:08:51.449+03:00,8293,1.047924,0,0,6896.382,7,22,2025-04-22T15:52:55.455+03:00,767019185.8753557,0,-14.37,100.3758,1,0.5,2025-04-22T15:50:57.745+03:00,80,1.333333333333333,2025-04-22T14:20:19.516+03:00,0.02197104130929222,0
2025-04-22T15:53:08.055+03:00,1745326387.629975,40.9522137686932,29.14028088868508,76.16171,-1,-1,-1,-1,30,19.36516156965402,-9999,36431.2141655,-0.7278900146484375,0.4655303955078125,-0.502899169921875,36431.2040885,-2.692456781004035,-0.9562654352910996,-0.4759075003378349,-0.05687319487333298,0.04300005733966827,-0.02655285969376564,-0.00562053918838501,0.004867315292358398,0.00818634033203125,XArbitraryZVertical,-0.4825326654182064,0.1044503082224687,-0.8170205971820189,0.2978753630520668,-0.7262519001960754,0.4581452906131744,-0.5125046968460083,0,0,0,-1,-1,36426.358702625,unknown,2,2025-04-22T15:53:03.194+03:00,2025-04-21T17:08:51.449+03:00,8293,1.047924,0,0,6896.382,7,22,2025-04-22T15:52:55.455+03:00,767019185.8753557,0,-14.37,100.3758,1,0.5,2025-04-22T15:50:57.745+03:00,80,1.333333333333333,2025-04-22T14:20:19.516+03:00,0.02197104130929222,0
2025-04-22T15:53:08.064+03:00,1745326387.629975,40.9522137686932,29.14028088868508,76.16171,-1,-1,-1,-1,30,19.36516156965402,-9999,36431.2242415,-0.72454833984375,0.470550537109375,-0.5013427734375,36431.2141655,-2.693166718347746,-0.9561530765886185,-0.4760013429587594,-0.05469273403286934,0.04796379059553146,-0.0341622419655323,-0.005591213703155518,0.004921227693557739,0.006793498992919922,XArbitraryZVertical,-0.4824537099237672,0.1046789285832448,-0.8171390617093817,0.297597692668042,-0.7261591553688049,0.4582287073135376,-0.5125615000724792,0,0,0,-1,-1,36426.358702625,unknown,2,2025-04-22T15:53:03.194+03:00,2025-04-21T17:08:51.449+03:00,8293,1.047924,0,0,6896.382,7,22,2025-04-22T15:52:55.455+03:00,767019185.8753557,0,-14.37,100.3758,1,0.5,2025-04-22T15:50:57.745+03:00,80,1.333333333333333,2025-04-22T14:20:19.516+03:00,0.02197104130929222,0
2025-04-22T15:53:08.074+03:00,1745326387.629975,40.9522137686932,29.14028088868508,76.16171,-1,-1,-1,-1,30,19.36516156965402,-9999,36431.2343175,-0.7269134521484375,0.4683990478515625,-0.504547119140625,36431.2242415,-2.693915132091775,-0.9559935711194926,-0.4760304108735125,-0.0573686771094799,0.05441955849528313,-0.04127474874258041,-0.0008925795555114746,0.007718265056610107,0.009922921657562256,XArbitraryZVertical,-0.4823505584150406,0.1048957307407441,-0.8172844958327073,0.2972892093601325,-0.726066529750824,0.4582545459270477,-0.5126696228981018,0,0,0,-1,-1,36426.358702625,unknown,2,2025-04-22T15:53:03.194+03:00,2025-04-21T17:08:51.449+03:00,8293,1.047924,0,0,6896.382,7,22,2025-04-22T15:52:55.455+03:00,767019185.8753557,0,-14.37,100.3758,1,0.5,2025-04-22T15:50:57.745+03:00,80,1.333333333333333,2025-04-22T14:20:19.516+03:00,0.02197104130929222,0
2025-04-22T15:53:08.084+03:00,1745326387.629975,40.9522137686932,29.14028088868508,76.16171,-1,-1,-1,-1,30,19.36516156965402,-9999,36431.24439450001,-0.728973388671875,0.46319580078125,-0.50640869140625,36431.2343175,-2.694726128631256,-0.9558299537499749,-0.4759915913211193,-0.05161971226334572,0.05740070343017578,-0.04730973765254021,0.001265764236450195,0.01274240016937256,0.01113533973693848,XArbitraryZVertical,-0.4822394701952273,0.1050988291782693,-0.8174502314015002,0.2969415926902812,-0.7259970903396606,0.4582200348377228,-0.5127986669540405,0,0,0,-1,-1,36426.358702625,unknown,2,2025-04-22T15:53:03.194+03:00,2025-04-21T17:08:51.449+03:00,8293,1.047924,0,0,6896.382,7,22,2025-04-22T15:52:55.455+03:00,767019185.8753557,0,-14.37,100.3758,1,0.5,2025-04-22T15:50:57.745+03:00,80,1.333333333333333,2025-04-22T14:20:19.516+03:00,0.02197104130929222,0
2025-04-22T15:53:08.095+03:00,1745326387.629975,40.9522137686932,29.14028088868508,76.16171,-1,-1,-1,-1,30,19.36516156965402,-9999,36431.2544705,-0.7327117919921875,0.461456298828125,-0.5074615478515625,36431.24439450001,-2.695568456959601,-0.9556352106386491,-0.4758818538678559,-0.05626799166202545,0.06130942329764366,-0.05677168443799019,-0.00157010555267334,0.009498238563537598,0.008147120475769043,XArbitraryZVertical,-0.4821108628864469,0.1052832876825353,-0.8176388788844436,0.2965656852773765,-0.7259383797645569,0.4581224918365479,-0.5129690766334534,0,0,0,-1,-1,36426.358702625,unknown,2,2025-04-22T15:53:03.194+03:00,2025-04-21T17:08:51.449+03:00,8293,1.047924,0,0,6896.382,7,22,2025-04-22T15:52:55.455+03:00,767019185.8753557,0,-14.37,100.3758,1,0.5,2025-04-22T15:50:57.745+03:00,80,1.333333333333333,2025-04-22T14:20:19.516+03:00,0.02197104130929222,0
2025-04-22T15:53:08.104+03:00,1745326387.629975,40.9522137686932,29.14028088868508,76.16171,-1,-1,-1,-1,30,19.36516156965402,-9999,36431.2645465,-0.730438232421875,0.460479736328125,-0.509002685546875,36431.2544705,-2.696490016175802,-0.9554624146888898,-0.4757255474767634,-0.05465511232614517,0.06011080369353294,-0.06285284459590912,-0.003828048706054688,0.004983276128768921,0.007215261459350586,XArbitraryZVertical,-0.4819850176379969,0.1054633617491995,-0.8178407383815901,0.2961493335886702,-0.7259081602096558,0.4579835534095764,-0.5131358504295349,0,0,0,-1,-1,36426.358702625,unknown,2,2025-04-22T15:53:03.194+03:00,2025-04-21T17:08:51.449+03:00,8293,1.047924,0,0,6896.382,7,22,2025-04-22T15:52:55.455+03:00,767019185.8753557,0,-14.37,100.3758,1,0.5,2025-04-22T15:50:57.745+03:00,80,1.333333333333333,2025-04-22T14:20:19.516+03:00,0.02197104130929222,0
2025-04-22T15:53:08.114+03:00,1745326387.629975,40.9522137686932,29.14028088868508,76.16171,-1,-1,-1,-1,30,19.36516156965402,-9999,36431.2746225,-0.72576904296875,0.458282470703125,-0.505767822265625,36431.2645465,-2.697430443711383,-0.9553070210464959,-0.4755361582417771,-0.05643197521567345,0.0610695406794548,-0.06463396549224854,-0.007071852684020996,0.003091663122177124,0.005653917789459229,XArbitraryZVertical,-0.481863843958548,0.1056310130344154,-0.8180458684824736,0.295719588659662,-0.7258991599082947,0.4578151702880859,-0.5132986307144165,0,0,0,-1,-1,36426.358702625,unknown,2,2025-04-22T15:53:03.194+03:00,2025-04-21T17:08:51.449+03:00,8293,1.047924,0,0,6896.382,7,22,2025-04-22T15:52:55.455+03:00,767019185.8753557,0,-14.37,100.3758,1,0.5,2025-04-22T15:50:57.745+03:00,80,1.333333333333333,2025-04-22T14:20:19.516+03:00,0.02197104130929222,0
2025-04-22T15:53:08.124+03:00,1745326387.629975,40.9522137686932,29.14028088868508,76.16171,-1,-1,-1,-1,30,19.36516156965402,-9999,36431.2846995,-0.715606689453125,0.46075439453125,-0.50634765625,36431.2746225,-2.698399577967578,-0.9551685216726861,-0.4753529330259118,-0.05816029757261276,0.05802907422184944,-0.06509492546319962,-0.003458201885223389,0.001637130975723267,0.005222976207733154,XArbitraryZVertical,-0.4817482394068909,0.1058056312623538,-0.8182501001953079,0.2952801063135601,-0.7258964776992798,0.4576522707939148,-0.5134475827217102,0,0,0,-1,-1,36426.358702625,unknown,2,2025-04-22T15:53:03.194+03:00,2025-04-21T17:08:51.449+03:00,8293,1.047924,0,0,6896.382,7,22,2025-04-22T15:52:55.455+03:00,767019185.8753557,0,-14.37,100.3758,1,0.5,2025-04-22T15:50:57.745+03:00,80,1.333333333333333,2025-04-22T14:20:19.516+03:00,0.02197104130929222,0
2025-04-22T15:53:08.134+03:00,1745326387.629975,40.9522137686932,29.14028088868508,76.16171,-1,-1,-1,-1,30,19.36516156965402,-9999,36431.2947755,-0.7080535888671875,0.46240234375,-0.5114593505859375,36431.2846995,-2.69939437785409,-0.9550944813782132,-0.4751677204992253,-0.06087113171815872,0.04949098080396652,-0.06712371855974197,0.000982820987701416,0.0009320974349975586,0.008362174034118652,XArbitraryZVertical,-0.4816574742799862,0.1059759402640804,-0.8184427891830689,0.2948330714866246,-0.7259277701377869,0.4574875831604004,-0.513550341129303,0,0,0,-1,-1,36426.358702625,unknown,2,2025-04-22T15:53:03.194+03:00,2025-04-21T17:08:51.449+03:00,8293,1.047924,0,0,6896.382,7,22,2025-04-22T15:52:55.455+03:00,767019185.8753557,0,-14.37,100.3758,1,0.5,2025-04-22T15:50:57.745+03:00,80,1.333333333333333,2025-04-22T14:20:19.516+03:00,0.02197104130929222,0
2025-04-22T15:53:08.145+03:00,1745326387.629975,40.9522137686932,29.14028088868508,76.16171,-1,-1,-1,-1,30,19.36516156965402,-9999,36431.3048515,-0.7127838134765625,0.46075439453125,-0.5093536376953125,36431.2947755,-2.700416540440867,-0.9551091827126118,-0.4749664577932644,-0.06065807864069939,0.04297742247581482,-0.06919872760772705,0.01127362251281738,0.003399878740310669,0.006756782531738281,XArbitraryZVertical,-0.4816008992731331,0.1061328109598228,-0.8186200866128943,0.2943762321753524,-0.7260103821754456,0.4573086202144623,-0.5135927796363831,0,0,0,-1,-1,36426.358702625,unknown,2,2025-04-22T15:53:03.194+03:00,2025-04-21T17:08:51.449+03:00,8293,1.047924,0,0,6896.382,7,22,2025-04-22T15:52:55.455+03:00,767019185.8753557,0,-14.37,100.3758,1,0.5,2025-04-22T15:50:57.745+03:00,80,1.333333333333333,2025-04-22T14:20:19.516+03:00,0.02197104130929222,0
2025-04-22T15:53:08.155+03:00,1745326387.629975,40.9522137686932,29.14028088868508,76.16171,-1,-1,-1,-1,30,19.36516156965402,-9999,36431.3149275,-0.72039794921875,0.4584197998046875,-0.5078277587890625,36431.3048515,-2.701454389077107,-0.9551886083397759,-0.474746447287638,-0.0587318167090416,0.03818932175636292,-0.07170555740594864,0.01786631345748901,0.005533456802368164,0.002164304256439209,XArbitraryZVertical,-0.4815691286883799,0.1062757489271536,-0.8187868787536272,0.2939127069537001,-0.726133406162262,0.4571129381656647,-0.5135932564735413,0,0,0,-1,-1,36426.358702625,unknown,2,2025-04-22T15:53:03.194+03:00,2025-04-21T17:08:51.449+03:00,8293,1.047924,0,0,6896.382,7,22,2025-04-22T15:52:55.455+03:00,767019185.8753557,0,-14.37,100.3758,1,0.5,2025-04-22T15:50:57.745+03:00,80,1.333333333333333,2025-04-22T14:20:19.516+03:00,0.02197104130929222,0
2025-04-22T15:53:08.165+03:00,1745326387.629975,40.9522137686932,29.14028088868508,76.16171,-1,-1,-1,-1,30,19.36516156965402,-9999,36431.3250045,-0.718048095703125,0.458526611328125,-0.5069427490234375,36431.3149275,-2.702491075238075,-0.9553225062934939,-0.4745472775552451,-0.0633988082408905,0.03167969360947609,-0.07245900481939316,0.01213473081588745,0.002826660871505737,0.004652559757232666,XArbitraryZVertical,-0.4815606042113715,0.106419484199425,-0.8189367726927523,0.2934564592645845,-0.7262763977050781,0.4569357931613922,-0.5135485529899597,0,0,0,-1,-1,36426.358702625,unknown,2,2025-04-22T15:53:03.194+03:00,2025-04-21T17:08:51.449+03:00,8293,1.047924,0,0,6896.382,7,22,2025-04-22T15:52:55.455+03:00,767019185.8753557,0,-14.37,100.3758,1,0.5,2025-04-22T15:50:57.745+03:00,80,1.333333333333333,2025-04-22T14:20:19.516+03:00,0.02197104130929222,0
2025-04-22T15:53:08.175+03:00,1745326387.629975,40.9522137686932,29.14028088868508,76.16171,-1,-1,-1,-1,30,19.36516156965402,-9999,36431.3350805,-0.7158660888671875,0.4559326171875,-0.498626708984375,36431.3250045,-2.703569288148896,-0.9555432450259386,-0.4743456721096344,-0.06341478228569031,0.02768601477146149,-0.07256153225898743,0.006357073783874512,0.001556426286697388,0.004804790019989014,XArbitraryZVertical,-0.481585281852852,0.1065594337693861,-0.8190720770658787,0.2929873040386613,-0.7264649868011475,0.4567564725875854,-0.5134413838386536,0,0,0,-1,-1,36426.358702625,unknown,2,2025-04-22T15:53:03.194+03:00,2025-04-21T17:08:51.449+03:00,8293,1.047924,0,0,6896.382,7,22,2025-04-22T15:52:55.455+03:00,767019185.8753557,0,-14.37,100.3758,1,0.5,2025-04-22T15:50:57.745+03:00,80,1.333333333333333,2025-04-22T14:20:19.516+03:00,0.02197104130929222,0
2025-04-22T15:53:08.185+03:00,1745326387.629975,40.9522137686932,29.14028088868508,76.16171,-1,-1,-1,-1,30,19.36516156965402,-9999,36431.3451565,-0.71466064453125,0.4574432373046875,-0.4994354248046875,36431.3350805,-2.704616446172856,-0.9557595670871494,-0.4741061842698891,-0.05673724040389061,0.02819834277033806,-0.07384773343801498,0.009532928466796875,0.001906812191009521,0.007472574710845947,XArbitraryZVertical,-0.4816082719231112,0.1066762415624325,-0.819209181243749,0.2925230983201884,-0.7266653180122375,0.4565433859825134,-0.513347327709198,0,0,0,-1,-1,36426.358702625,unknown,2,2025-04-22T15:53:03.194+03:00,2025-04-21T17:08:51.449+03:00,8293,1.047924,0,0,6896.382,7,22,2025-04-22T15:52:55.455+03:00,767019185.8753557,0,-14.37,100.3758,1,0.5,2025-04-22T15:50:57.745+03:00,80,1.333333333333333,2025-04-22T14:20:19.516+03:00,0.02197104130929222,0
2025-04-22T15:53:08.195+03:00,1745326387.629975,40.9522137686932,29.14028088868508,76.16171,-1,-1,-1,-1,30,19.36516156965402,-9999,36431.3552335,-0.7100677490234375,0.4536895751953125,-0.5045166015625,36431.3451565,-2.705637023816803,-0.9559946855649814,-0.4738596039948435,-0.06108405068516731,0.01941603422164917,-0.07169909775257111,0.01044744253158569,-0.0005593299865722656,0.01514863967895508,XArbitraryZVertical,-0.4816400774609286,0.1067808689968903,-0.8193387633871428,0.2920693345486994,-0.7268779277801514,0.4563240110874176,-0.5132413506507874,0,0,0,-1,-1,36426.358702625,unknown,2,2025-04-22T15:53:03.194+03:00,2025-04-21T17:08:51.449+03:00,8293,1.047924,0,0,6896.382,7,22,2025-04-22T15:52:55.455+03:00,767019185.8753557,0,-14.37,100.3758,1,0.5,2025-04-22T15:50:57.745+03:00,80,1.333333333333333,2025-04-22T14:20:19.516+03:00,0.02197104130929222,0
2025-04-22T15:53:08.205+03:00,1745326387.629975,40.9522137686932,29.14028088868508,76.16171,-1,-1,-1,-1,30,19.36516156965402,-9999,36431.3653095,-0.714324951171875,0.4470367431640625,-0.5045013427734375,36431.3552335,-2.706705653812244,-0.9563064294770298,-0.4736810075955267,-0.0721728578209877,0.01585918478667736,-0.06807237863540649,0.01288646459579468,0.001735806465148926,0.01258862018585205,XArbitraryZVertical,-0.4817034778583592,0.1069154128906163,-0.8194463929690301,0.2916131950155059,-0.7271044850349426,0.456165075302124,-0.5130617022514343,0,0,0,-1,-1,36426.358702625,unknown,2,2025-04-22T15:53:03.194+03:00,2025-04-21T17:08:51.449+03:00,8293,1.047924,0,0,6896.382,7,22,2025-04-22T15:52:55.455+03:00,767019185.8753557,0,-14.37,100.3758,1,0.5,2025-04-22T15:50:57.745+03:00,80,1.333333333333333,2025-04-22T14:20:19.516+03:00,0.02197104130929222,0
2025-04-22T15:53:08.215+03:00,1745326387.629975,40.9522137686932,29.14028088868508,76.16171,-1,-1,-1,-1,30,19.36516156965402,-9999,36431.3753855,-0.7221221923828125,0.44915771484375,-0.504058837890625,36431.3653095,-2.707854560248613,-0.9567211778205488,-0.4735848218271618,-0.08205797523260117,0.01034377701580524,-0.0648113340139389,0.01667511463165283,-0.003641247749328613,0.007704079151153564,XArbitraryZVertical,-0.4818080810601325,0.107090087856207,-0.8195282794566047,0.2911457716473358,-0.727353036403656,0.4560794830322266,-0.5127853751182556,0,0,0,-1,-1,36426.358702625,unknown,2,2025-04-22T15:53:03.194+03:00,2025-04-21T17:08:51.449+03:00,8293,1.047924,0,0,6896.382,7,22,2025-04-22T15:52:55.455+03:00,767019185.8753557,0,-14.37,100.3758,1,0.5,2025-04-22T15:50:57.745+03:00,80,1.333333333333333,2025-04-22T14:20:19.516+03:00,0.02197104130929222,0
2025-04-22T15:53:08.225+03:00,1745326387.629975,40.9522137686932,29.14028088868508,76.16171,-1,-1,-1,-1,30,19.36516156965402,-9999,36431.3854615,-0.7223052978515625,0.4572601318359375,-0.5008697509765625,36431.3753855,-2.709106967348909,-0.9572158316933295,-0.4735934732782348,-0.09685023874044418,0.004551668651401997,-0.0664820671081543,0.01234781742095947,-0.009157359600067139,0.007967591285705566,XArbitraryZVertical,-0.4819439639853421,0.1073236055846155,-0.8195901073416054,0.2906608146673044,-0.7276034951210022,0.4560871720314026,-0.5124233365058899,0,0,0,-1,-1,36426.358702625,unknown,2,2025-04-22T15:53:03.194+03:00,2025-04-21T17:08:51.449+03:00,8293,1.047924,0,0,6896.382,7,22,2025-04-22T15:52:55.455+03:00,767019185.8753557,0,-14.37,100.3758,1,0.5,2025-04-22T15:50:57.745+03:00,80,1.333333333333333,2025-04-22T14:20:19.516+03:00,0.02197104130929222,0
2025-04-22T15:53:08.236+03:00,1745326387.629975,40.9522137686932,29.14028088868508,76.16171,-1,-1,-1,-1,30,19.36516156965402,-9999,36431.3955385,-0.72119140625,0.458343505859375,-0.49676513671875,36431.3854615,-2.710440430104164,-0.9578208984155551,-0.473679974227552,-0.1018937304615974,-0.005574202630668879,-0.0626809373497963,0.005163908004760742,-0.005663692951202393,0.008084356784820557,XArbitraryZVertical,-0.4821236999966524,0.1075945791495742,-0.8196249799980124,0.2901638627125481,-0.727881133556366,0.45616415143013,-0.5119602680206299,0,0,0,-1,-1,36426.358702625,unknown,2,2025-04-22T15:53:03.194+03:00,2025-04-21T17:08:51.449+03:00,8293,1.047924,0,0,6896.382,7,22,2025-04-22T15:52:55.455+03:00,767019185.8753557,0,-14.37,100.3758,1,0.5,2025-04-22T15:50:57.745+03:00,80,1.333333333333333,2025-04-22T14:20:19.516+03:00,0.02197104130929222,0
2025-04-22T15:53:08.246+03:00,1745326387.629975,40.9522137686932,29.14028088868508,76.16171,-1,-1,-1,-1,30,19.36516156965402,-9999,36431.4056145,-0.7280120849609375,0.4592132568359375,-0.4979095458984375,36431.3955385,-2.711781576580444,-0.9584626000851416,-0.473725388834137,-0.09299178421497345,-0.001668610144406557,-0.06647857278585434,0.006482481956481934,0.0009181499481201172,0.01096224784851074,XArbitraryZVertical,-0.4823162394404316,0.1078445929132464,-0.8196578426868539,0.2896577161990807,-0.7281925678253174,0.4562045633792877,-0.5114811658859253,0,0,0,-1,-1,36426.358702625,unknown,2,2025-04-22T15:53:03.194+03:00,2025-04-21T17:08:51.449+03:00,8293,1.047924,0,0,6896.382,7,22,2025-04-22T15:52:55.455+03:00,767019185.8753557,0,-14.37,100.3758,1,0.5,2025-04-22T15:50:57.745+03:00,80,1.333333333333333,2025-04-22T14:20:19.516+03:00,0.02197104130929222,0
2025-04-22T15:53:08.270+03:00,1745326387.629975,40.9522137686932,29.14028088868508,76.16171,-1,-1,-1,-1,30,19.36516156965402,-9999,36431.41569050001,-0.7303009033203125,0.4578857421875,-0.501800537109375,36431.4056145,-2.713071229032043,-0.9590543251887049,-0.4736866400946684,-0.08803271502256393,0.0004454068839550018,-0.07100594788789749,0.005914449691772461,0.002035975456237793,0.01498168706893921,XArbitraryZVertical,-0.4824876529954656,0.108053280672653,-0.8197074364194301,0.2891534472946857,-0.7285094857215881,0.4561700820922852,-0.5110602974891663,0,0,0,-1,-1,36426.358702625,unknown,2,2025-04-22T15:53:03.194+03:00,2025-04-21T17:08:51.449+03:00,8293,1.047924,0,0,6896.382,7,22,2025-04-22T15:52:55.455+03:00,767019185.8753557,0,-14.37,100.3758,1,0.5,2025-04-22T15:50:57.745+03:00,80,1.333333333333333,2025-04-22T14:20:19.516+03:00,0.02197104130929222,0
2025-04-22T15:53:08.271+03:00,1745326387.629975,40.9522137686932,29.14028088868508,76.16171,-1,-1,-1,-1,30,19.36516156965402,-9999,36431.4257675,-0.73309326171875,0.4544830322265625,-0.5095367431640625,36431.41569050001,-2.714336982989244,-0.9595675413200793,-0.4736172307972663,-0.08467745780944824,0.009878523647785187,-0.07298657298088074,0.0003584027290344238,0.003349006175994873,0.0118488073348999,XArbitraryZVertical,-0.482626873279006,0.1082544995326536,-0.8197768187951218,0.2886487270889443,-0.7287976145744324,0.4561083316802979,-0.510704517364502,0,0,0,-1,-1,36426.358702625,unknown,2,2025-04-22T15:53:03.194+03:00,2025-04-21T17:08:51.449+03:00,8293,1.047924,0,0,6896.382,7,22,2025-04-22T15:52:55.455+03:00,767019185.8753557,0,-14.37,100.3758,1,0.5,2025-04-22T15:50:57.745+03:00,80,1.333333333333333,2025-04-22T14:20:19.516+03:00,0.02197104130929222,0
2025-04-22T15:53:08.276+03:00,1745326387.629975,40.9522137686932,29.14028088868508,76.16171,-1,-1,-1,-1,30,19.36516156965402,-9999,36431.4358435,-0.733978271484375,0.457763671875,-0.512847900390625,36431.4257675,-2.715611517083593,-0.9600209864383121,-0.4735301697479276,-0.08725886046886444,0.01287005189806223,-0.0723295733332634,-0.001971542835235596,0.001351326704025269,0.007238090038299561,XArbitraryZVertical,-0.4827403343291612,0.1084590071632889,-0.8198642528361778,0.2881337012488346,-0.7290617227554321,0.4560308456420898,-0.5103968381881714,0,0,0,-1,-1,36426.358702625,unknown,2,2025-04-22T15:53:03.194+03:00,2025-04-21T17:08:51.449+03:00,8293,1.047924,0,0,6896.382,7,22,2025-04-22T15:52:55.455+03:00,767019185.8753557,0,-14.37,100.3758,1,0.5,2025-04-22T15:50:57.745+03:00,80,1.333333333333333,2025-04-22T14:20:19.516+03:00,0.02197104130929222,0
2025-04-22T15:53:08.286+03:00,1745326387.629975,40.9522137686932,29.14028088868508,76.16171,-1,-1,-1,-1,30,19.36516156965402,-9999,36431.4459195,-0.7369384765625,0.4647216796875,-0.5153656005859375,36431.4358435,-2.716885700034287,-0.9604720322651989,-0.4734298401522827,-0.08176995068788528,0.01331786252558231,-0.07795809209346771,-0.003504455089569092,-0.002038449048995972,-0.0005414485931396484,XArbitraryZVertical,-0.4828522756321337,0.1086582593648872,-0.8199536677997616,0.2876159952827577,-0.7293292880058289,0.4559415578842163,-0.5100941061973572,0,0,0,-1,-1,36426.358702625,unknown,2,2025-04-22T15:53:03.194+03:00,2025-04-21T17:08:51.449+03:00,8293,1.047924,0,0,6896.382,7,22,2025-04-22T15:52:55.455+03:00,767019185.8753557,0,-14.37,100.3758,1,0.5,2025-04-22T15:50:57.745+03:00,80,1.333333333333333,2025-04-22T14:20:19.516+03:00,0.02197104130929222,0
2025-04-22T15:53:08.296+03:00,1745326387.629975,40.9522137686932,29.14028088868508,76.16171,-1,-1,-1,-1,30,19.36516156965402,-9999,36431.4559955,-0.743865966796875,0.46319580078125,-0.514678955078125,36431.4459195,-2.718177529559072,-0.9608692278111428,-0.4732484954369706,-0.08477266877889633,0.01926203817129135,-0.08104443550109863,-0.004576921463012695,0.002364873886108398,-0.003057301044464111,XArbitraryZVertical,-0.4829380582926198,0.1088346357225236,-0.8200702798790934,0.287072059341129,-0.7295995354652405,0.4557801485061646,-0.5098516941070557,0,0,0,-1,-1,36426.358702625,unknown,2,2025-04-22T15:53:03.194+03:00,2025-04-21T17:08:51.449+03:00,8293,1.047924,0,0,6896.382,7,22,2025-04-22T15:52:55.455+03:00,767019185.8753557,0,-14.37,100.3758,1,0.5,2025-04-22T15:50:57.745+03:00,80,1.333333333333333,2025-04-22T14:20:19.516+03:00,0.02197104130929222,0
2025-04-22T15:53:08.306+03:00,1745326387.629975,40.9522137686932,29.14028088868508,76.16171,-1,-1,-1,-1,30,19.36516156965402,-9999,36431.4660725,-0.7438507080078125,0.456695556640625,-0.5085906982421875,36431.4559955,-2.719536580541013,-0.9613038898718633,-0.4730714198755409,-0.09099014848470688,0.01842574030160904,-0.08501403778791428,-0.008805811405181885,0.008915930986404419,-0.005601823329925537,XArbitraryZVertical,-0.4830356342323862,0.1090238611754901,-0.8201865791785184,0.2865034071498677,-0.7298872470855713,0.455622524023056,-0.5095807313919067,0,0,0,-1,-1,36426.358702625,unknown,2,2025-04-22T15:53:03.194+03:00,2025-04-21T17:08:51.449+03:00,8293,1.047924,0,0,6896.382,7,22,2025-04-22T15:52:55.455+03:00,767019185.8753557,0,-14.37,100.3758,1,0.5,2025-04-22T15:50:57.745+03:00,80,1.333333333333333,2025-04-22T14:20:19.516+03:00,0.02197104130929222,0
2025-04-22T15:53:08.316+03:00,1745326387.629975,40.9522137686932,29.14028088868508,76.16171,-1,-1,-1,-1,30,19.36516156965402,-9999,36431.47614850001,-0.745269775390625,0.4556427001953125,-0.5022125244140625,36431.4660725,-2.720965849146131,-0.9617361047836017,-0.4729393698621896,-0.09847230464220047,0.02686875872313976,-0.08210773020982742,-0.01381582021713257,0.007049828767776489,-0.004158675670623779,XArbitraryZVertical,-0.4831299954447049,0.1092500855168379,-0.8203063469890401,0.2859146602424945,-0.7301567792892456,0.455504983663559,-0.509299635887146,0,0,0,-1,-1,36426.358702625,unknown,2,2025-04-22T15:53:03.194+03:00,2025-04-21T17:08:51.449+03:00,8293,1.047924,0,0,6896.382,7,22,2025-04-22T15:52:55.455+03:00,767019185.8753557,0,-14.37,100.3758,1,0.5,2025-04-22T15:50:57.745+03:00,80,1.333333333333333,2025-04-22T14:20:19.516+03:00,0.02197104130929222,0
2025-04-22T15:53:08.327+03:00,1745326387.629975,40.9522137686932,29.14028088868508,76.16171,-1,-1,-1,-1,30,19.36516156965402,-9999,36431.4862245,-0.7386474609375,0.452606201171875,-0.496490478515625,36431.47614850001,-2.72241922311293,-0.9621056821130373,-0.4728952909111709,-0.1060694381594658,0.03248143568634987,-0.07451076060533524,-0.01402318477630615,0.001443326473236084,0.000450432300567627,XArbitraryZVertical,-0.4832004807468421,0.1095293453506734,-0.8204311382221139,0.2853299749957058,-0.7303614020347595,0.4554657340049744,-0.5090412497520447,0,0,0,-1,-1,36426.358702625,unknown,2,2025-04-22T15:53:03.194+03:00,2025-04-21T17:08:51.449+03:00,8293,1.047924,0,0,6896.382,7,22,2025-04-22T15:52:55.455+03:00,767019185.8753557,0,-14.37,100.3758,1,0.5,2025-04-22T15:50:57.745+03:00,80,1.333333333333333,2025-04-22T14:20:19.516+03:00,0.02197104130929222,0
2025-04-22T15:53:08.336+03:00,1745326387.629975,40.9522137686932,29.14028088868508,76.16171,-1,-1,-1,-1,30,19.36516156965402,-9999,36431.4963005,-0.7266387939453125,0.45233154296875,-0.4998321533203125,36431.4862245,-2.723879657702779,-0.9624528338337268,-0.4729338358753277,-0.1058121770620346,0.03328917175531387,-0.07076849043369293,-0.01483750343322754,5.155801773071289e-06,0.007892489433288574,XArbitraryZVertical,-0.4832642143432549,0.1098494223454314,-0.8205496518142316,0.2847575186496136,-0.7305236458778381,0.4555000364780426,-0.5087776184082031,0,0,0,-1,-1,36426.358702625,unknown,2,2025-04-22T15:53:03.194+03:00,2025-04-21T17:08:51.449+03:00,8293,1.047924,0,0,6896.382,7,22,2025-04-22T15:52:55.455+03:00,767019185.8753557,0,-14.37,100.3758,1,0.5,2025-04-22T15:50:57.745+03:00,80,1.333333333333333,2025-04-22T14:20:19.516+03:00,0.02197104130929222,0
2025-04-22T15:53:08.346+03:00,1745326387.629975,40.9522137686932,29.14028088868508,76.16171,-1,-1,-1,-1,30,19.36516156965402,-9999,36431.5063775,-0.7220611572265625,0.4558258056640625,-0.510711669921875,36431.4963005,-2.725272761709988,-0.9627537545771019,-0.4729920226979105,-0.1000544205307961,0.03553794696927071,-0.06434494256973267,-0.006146013736724854,-0.002518504858016968,0.01264715194702148,XArbitraryZVertical,-0.4833131549880915,0.1101684303112566,-0.8206664936779002,0.2842140392008321,-0.7306550145149231,0.4555518329143524,-0.5085425972938538,0,0,0,-1,-1,36426.358702625,unknown,2,2025-04-22T15:53:03.194+03:00,2025-04-21T17:08:51.449+03:00,8293,1.047924,0,0,6896.382,7,22,2025-04-22T15:52:55.455+03:00,767019185.8753557,0,-14.37,100.3758,1,0.5,2025-04-22T15:50:57.745+03:00,80,1.333333333333333,2025-04-22T14:20:19.516+03:00,0.02197104130929222,0
2025-04-22T15:53:08.356+03:00,1745326387.629975,40.9522137686932,29.14028088868508,76.16171,-1,-1,-1,-1,30,19.36516156965402,-9999,36431.5164535,-0.7283782958984375,0.4622802734375,-0.51116943359375,36431.5063775,-2.726594093395752,-0.9629421103783735,-0.4730720330816557,-0.09407375752925873,0.04791312292218208,-0.0562734343111515,0.005318164825439453,-0.00265076756477356,0.007193863391876221,XArbitraryZVertical,-0.4833204057431649,0.1104956046019213,-0.8207968146498016,0.2836981301411944,-0.7307208776473999,0.455623060464859,-0.5083842277526855,0,0,0,-1,-1,36426.358702625,unknown,2,2025-04-22T15:53:03.194+03:00,2025-04-21T17:08:51.449+03:00,8293,1.047924,0,0,6896.382,7,22,2025-04-22T15:52:55.455+03:00,767019185.8753557,0,-14.37,100.3758,1,0.5,2025-04-22T15:50:57.745+03:00,80,1.333333333333333,2025-04-22T14:20:19.516+03:00,0.02197104130929222,0
2025-04-22T15:53:08.367+03:00,1745326387.629975,40.9522137686932,29.14028088868508,76.16171,-1,-1,-1,-1,30,19.36516156965402,-9999,36431.5265295,-0.7437744140625,0.4622650146484375,-0.5018463134765625,36431.5164535,-2.727785273110914,-0.9629208961594931,-0.4731049017157248,-0.08225231617689133,0.06503532081842422,-0.05862331390380859,0.008240044116973877,0.0009363293647766113,-0.003083586692810059,XArbitraryZVertical,-0.4832469728203887,0.1108006827148709,-0.8209658656169787,0.2832145760225194,-0.7306978106498718,0.4556523263454437,-0.5083911418914795,0,0,0,-1,-1,36426.358702625,unknown,2,2025-04-22T15:53:03.194+03:00,2025-04-21T17:08:51.449+03:00,8293,1.047924,0,0,6896.382,7,22,2025-04-22T15:52:55.455+03:00,767019185.8753557,0,-14.37,100.3758,1,0.5,2025-04-22T15:50:57.745+03:00,80,1.333333333333333,2025-04-22T14:20:19.516+03:00,0.02197104130929222,0
2025-04-22T15:53:08.379+03:00,1745326387.629975,40.9522137686932,29.14028088868508,76.16171,-1,-1,-1,-1,30,19.36516156965402,-9999,36431.53660650001,-0.75738525390625,0.4626312255859375,-0.50347900390625,36431.5265295,-2.728897749323709,-0.9626045497756408,-0.4730556409425762,-0.07056370377540588,0.1003331243991852,-0.06236425414681435,0.001017510890960693,0.007220983505249023,-0.001390039920806885,XArbitraryZVertical,-0.4830536597429197,0.111092881336553,-0.8212069081464873,0.2827304904032772,-0.7305552959442139,0.4556084871292114,-0.5086350440979004,0,0,0,-1,-1,36426.358702625,unknown,2,2025-04-22T15:53:03.194+03:00,2025-04-21T17:08:51.449+03:00,8293,1.047924,0,0,6896.382,7,22,2025-04-22T15:52:55.455+03:00,767019185.8753557,0,-14.37,100.3758,1,0.5,2025-04-22T15:50:57.745+03:00,80,1.333333333333333,2025-04-22T14:20:19.516+03:00,0.02197104130929222,0
2025-04-22T15:53:08.389+03:00,1745326387.629975,40.9522137686932,29.14028088868508,76.16171,-1,-1,-1,-1,30,19.36516156965402,-9999,36431.5466825,-0.7520904541015625,0.4639434814453125,-0.50067138671875,36431.53660650001,-2.729846208048218,-0.9619086076353862,-0.472930388169611,-0.0504632331430912,0.1207899302244186,-0.05624404549598694,-0.01587611436843872,0.006569534540176392,0.007787406444549561,XArbitraryZVertical,-0.4827106983595619,0.1113659601123432,-0.821527418965841,0.282277355444119,-0.730247974395752,0.4554969668388367,-0.5091760158538818,0,0,0,-1,-1,36426.358702625,unknown,2,2025-04-22T15:53:03.194+03:00,2025-04-21T17:08:51.449+03:00,8293,1.047924,0,0,6896.382,7,22,2025-04-22T15:52:55.455+03:00,767019185.8753557,0,-14.37,100.3758,1,0.5,2025-04-22T15:50:57.745+03:00,80,1.333333333333333,2025-04-22T14:20:19.516+03:00,0.02197104130929222,0
2025-04-22T15:53:08.397+03:00,1745326387.629975,40.9522137686932,29.14028088868508,76.16171,-1,-1,-1,-1,30,19.36516156965402,-9999,36431.5567585,-0.7445831298828125,0.456146240234375,-0.5021514892578125,36431.5466825,-2.730638861461211,-0.9610062595310435,-0.4727153966880098,-0.04030194133520126,0.1328825354576111,-0.05949816107749939,-0.02769964933395386,0.007172942161560059,0.006518542766571045,XArbitraryZVertical,-0.4822882440035122,0.1115913501553644,-0.8218886844689464,0.2818586620723644,-0.7298685312271118,0.4553055763244629,-0.5098908543586731,0,0,0,-1,-1,36426.358702625,unknown,2,2025-04-22T15:53:03.194+03:00,2025-04-21T17:08:51.449+03:00,8293,1.047924,0,0,6896.382,7,22,2025-04-22T15:52:55.455+03:00,767019185.8753557,0,-14.37,100.3758,1,0.5,2025-04-22T15:50:57.745+03:00,80,1.333333333333333,2025-04-22T14:20:19.516+03:00,0.02197104130929222,0
2025-04-22T15:53:08.407+03:00,1745326387.629975,40.9522137686932,29.14028088868508,76.16171,-1,-1,-1,-1,30,19.36516156965402,-9999,36431.5668345,-0.74237060546875,0.4524078369140625,-0.5013275146484375,36431.5567585,-2.731290883383743,-0.9599452988680346,-0.4723867409523444,-0.01526716258376837,0.1399889141321182,-0.05979110673069954,-0.0219234824180603,0.008350610733032227,0.01000291109085083,XArbitraryZVertical,-0.481804238432426,0.1117555713822244,-0.8222847149236161,0.2814661204891445,-0.7294496893882751,0.4550129473209381,-0.5107507109642029,0,0,0,-1,-1,36426.358702625,unknown,2,2025-04-22T15:53:03.194+03:00,2025-04-21T17:08:51.449+03:00,8293,1.047924,0,0,6896.382,7,22,2025-04-22T15:52:55.455+03:00,767019185.8753557,0,-14.37,100.3758,1,0.5,2025-04-22T15:50:57.745+03:00,80,1.333333333333333,2025-04-22T14:20:19.516+03:00,0.02197104130929222,0
2025-04-22T15:53:08.416+03:00,1745326387.629975,40.9522137686932,29.14028088868508,76.16171,-1,-1,-1,-1,30,19.36516156965402,-9999,36431.5769115,-0.7357177734375,0.451446533203125,-0.4975128173828125,36431.5668345,-2.731845399277431,-0.9588375027032312,-0.4719343104990157,-0.0127906883135438,0.1384658515453339,-0.06703916937112808,-0.01510387659072876,0.0001476705074310303,0.009372472763061523,XArbitraryZVertical,-0.4813018343039202,0.1118488648059228,-0.8226961295775064,0.2810863488592094,-0.729051947593689,0.4546100199222565,-0.5116767287254333,0,0,0,-1,-1,36426.358702625,unknown,2,2025-04-22T15:53:03.194+03:00,2025-04-21T17:08:51.449+03:00,8293,1.047924,0,0,6896.382,7,22,2025-04-22T15:52:55.455+03:00,767019185.8753557,0,-14.37,100.3758,1,0.5,2025-04-22T15:50:57.745+03:00,80,1.333333333333333,2025-04-22T14:20:19.516+03:00,0.02197104130929222,0
2025-04-22T15:53:08.426+03:00,1745326387.629975,40.9522137686932,29.14028088868508,76.16171,-1,-1,-1,-1,30,19.36516156965402,-9999,36431.5869875,-0.7341461181640625,0.4479827880859375,-0.4931640625,36431.5769115,-2.732444957478541,-0.9577266425355839,-0.4714770065804944,-0.01795162819325924,0.1409923881292343,-0.06672517955303192,-0.01304614543914795,-0.001337140798568726,0.01127815246582031,XArbitraryZVertical,-0.4807952537392977,0.1119509352221878,-0.8231146768798607,0.28068676353348,-0.7286529541015625,0.4542026519775391,-0.5126058459281921,0,0,0,-1,-1,36426.358702625,unknown,2,2025-04-22T15:53:03.194+03:00,2025-04-21T17:08:51.449+03:00,8293,1.047924,0,0,6896.382,7,22,2025-04-22T15:52:55.455+03:00,767019185.8753557,0,-14.37,100.3758,1,0.5,2025-04-22T15:50:57.745+03:00,80,1.333333333333333,2025-04-22T14:20:19.516+03:00,0.02197104130929222,0
2025-04-22T15:53:08.437+03:00,1745326387.629975,40.9522137686932,29.14028088868508,76.16171,-1,-1,-1,-1,30,19.36516156965402,-9999,36431.5970635,-0.7306060791015625,0.4419403076171875,-0.4907684326171875,36431.5869875,-2.733120958170188,-0.9566594478166209,-0.4710556181884896,-0.03184214606881142,0.1337091773748398,-0.07049275189638138,-0.006586015224456787,-0.00274696946144104,0.01634663343429565,XArbitraryZVertical,-0.4803033408742761,0.1120803596945403,-0.8235277894939926,0.2802651823671832,-0.7282618284225464,0.4538272023200989,-0.5134933590888977,0,0,0,-1,-1,36426.358702625,unknown,2,2025-04-22T15:53:03.194+03:00,2025-04-21T17:08:51.449+03:00,8293,1.047924,0,0,6896.382,7,22,2025-04-22T15:52:55.455+03:00,767019185.8753557,0,-14.37,100.3758,1,0.5,2025-04-22T15:50:57.745+03:00,80,1.333333333333333,2025-04-22T14:20:19.516+03:00,0.02197104130929222,0
2025-04-22T15:53:08.447+03:00,1745326387.629975,40.9522137686932,29.14028088868508,76.16171,-1,-1,-1,-1,30,19.36516156965402,-9999,36431.6071405,-0.7256927490234375,0.425537109375,-0.4868316650390625,36431.5970635,-2.733976005674509,-0.9557259561632783,-0.4707218353084256,-0.05518821254372597,0.1252022534608841,-0.07280278205871582,-0.006133317947387695,-0.005180835723876953,0.02118766307830811,XArbitraryZVertical,-0.4798592575737555,0.1122715755685401,-0.8239205724240601,0.2797945511618034,-0.7279058694839478,0.4535297453403473,-0.5142603516578674,0,0,0,-1,-1,36426.358702625,unknown,2,2025-04-22T15:53:03.194+03:00,2025-04-21T17:08:51.449+03:00,8293,1.047924,0,0,6896.382,7,22,2025-04-22T15:52:55.455+03:00,767019185.8753557,0,-14.37,100.3758,1,0.5,2025-04-22T15:50:57.745+03:00,80,1.333333333333333,2025-04-22T14:20:19.516+03:00,0.02197104130929222,0
2025-04-22T15:53:08.457+03:00,1745326387.629975,40.9522137686932,29.14028088868508,76.16171,-1,-1,-1,-1,30,19.36516156965402,-9999,36431.6172165,-0.7243804931640625,0.429229736328125,-0.4999237060546875,36431.6071405,-2.735042290732813,-0.9550289559734947,-0.4704557892821608,-0.06695645302534103,0.1120819225907326,-0.07780420035123825,-0.0018463134765625,-0.01400738954544067,0.02528941631317139,XArbitraryZVertical,-0.4795028725964892,0.1125093334069325,-0.8242758016674629,0.2792633568226058,-0.7276457548141479,0.4532926082611084,-0.5148372650146484,0,0,0,-1,-1,36426.358702625,unknown,2,2025-04-22T15:53:03.194+03:00,2025-04-21T17:08:51.449+03:00,8293,1.047924,0,0,6896.382,7,22,2025-04-22T15:52:55.455+03:00,767019185.8753557,0,-14.37,100.3758,1,0.5,2025-04-22T15:50:57.745+03:00,80,1.333333333333333,2025-04-22T14:20:19.516+03:00,0.02197104130929222,0
2025-04-22T15:53:08.467+03:00,1745326387.629975,40.9522137686932,29.14028088868508,76.16171,-1,-1,-1,-1,30,19.36516156965402,-9999,36431.6272925,-0.72161865234375,0.4372100830078125,-0.5119476318359375,36431.6172165,-2.736272418605254,-0.9545342324960592,-0.4702464872636993,-0.08480329811573029,0.1046858578920364,-0.08131168037652969,0.001882553100585938,-0.0285302996635437,0.02813029289245605,XArbitraryZVertical,-0.4792224002104432,0.1127823770582858,-0.8245966401780297,0.2786869868170023,-0.7274683713912964,0.4531060457229614,-0.5152520537376404,0,0,0,-1,-1,36426.358702625,unknown,2,2025-04-22T15:53:03.194+03:00,2025-04-21T17:08:51.449+03:00,8293,1.047924,0,0,6896.382,7,22,2025-04-22T15:52:55.455+03:00,767019188.4532119,0,-14.34,100.375,1,0.5,2025-04-22T15:50:57.745+03:00,80,1.333333333333333,2025-04-22T14:20:19.516+03:00,0.02197104130929222,0
2025-04-22T15:53:08.477+03:00,1745326387.629975,40.9522137686932,29.14028088868508,76.16171,-1,-1,-1,-1,30,19.36516156965402,-9999,36431.6373685,-0.72265625,0.437957763671875,-0.50146484375,36431.6272925,-2.737683292716286,-0.9541625774612763,-0.4701382305247049,-0.09777635335922241,0.1018916741013527,-0.07818485796451569,0.002951741218566895,-0.02269649505615234,0.01355165243148804,XArbitraryZVertical,-0.4789857430107792,0.1131251241004086,-0.8248978361943976,0.2780627468685082,-0.7273168563842773,0.4530095160007477,-0.5155507326126099,0,0,0,-1,-1,36426.358702625,unknown,2,2025-04-22T15:53:03.194+03:00,2025-04-21T17:08:51.449+03:00,8293,1.047924,0,0,6896.382,7,22,2025-04-22T15:52:55.455+03:00,767019188.4532119,0,-14.34,100.375,1,0.5,2025-04-22T15:50:57.745+03:00,80,1.333333333333333,2025-04-22T14:20:19.516+03:00,0.02197104130929222,0
2025-04-22T15:53:08.487+03:00,1745326387.629975,40.9522137686932,29.14028088868508,76.16171,-1,-1,-1,-1,30,19.36516156965402,-9999,36431.6474455,-0.7216949462890625,0.4404144287109375,-0.4944915771484375,36431.6373685,-2.739197464194164,-0.953904032152941,-0.4701331258353296,-0.1184892952442169,0.09240902215242386,-0.07728081941604614,0.005246520042419434,-0.01588654518127441,0.004112720489501953,XArbitraryZVertical,-0.4787931119082515,0.1135213660708833,-0.8251707997625287,0.2774224739974082,-0.7271854281425476,0.4530049860477448,-0.5157400965690613,0,0,0,-1,-1,36426.358702625,unknown,2,2025-04-22T15:53:03.194+03:00,2025-04-21T17:08:51.449+03:00,8293,1.047924,0,0,6896.382,7,22,2025-04-22T15:52:55.455+03:00,767019188.4532119,0,-14.34,100.375,1,0.5,2025-04-22T15:50:57.745+03:00,80,1.333333333333333,2025-04-22T14:20:19.516+03:00,0.02197104130929222,0
2025-04-22T15:53:08.497+03:00,1745326387.629975,40.9522137686932,29.14028088868508,76.16171,-1,-1,-1,-1,30,19.36516156965402,-9999,36431.6575215,-0.71685791015625,0.4421539306640625,-0.493255615234375,36431.6474455,-2.740913285201571,-0.9538903927657234,-0.4702376871272816,-0.13834048807621,0.07176446169614792,-0.07991655170917511,0.004620909690856934,-0.01485058665275574,0.01601237058639526,XArbitraryZVertical,-0.4786934382957553,0.1139793646056674,-0.8253964536950502,0.2767343763397989,-0.7271397113800049,0.4530981779098511,-0.5157225728034973,0,0,0,-1,-1,36426.358702625,unknown,2,2025-04-22T15:53:03.194+03:00,2025-04-21T17:08:51.449+03:00,8293,1.047924,0,0,6896.382,7,22,2025-04-22T15:52:55.455+03:00,767019188.4532119,0,-14.34,100.375,1,0.5,2025-04-22T15:50:57.745+03:00,80,1.333333333333333,2025-04-22T14:20:19.516+03:00,0.02197104130929222,0
2025-04-22T15:53:08.508+03:00,1745326387.629975,40.9522137686932,29.14028088868508,76.16171,-1,-1,-1,-1,30,19.36516156965402,-9999,36431.6675975,-0.720794677734375,0.4426116943359375,-0.4972991943359375,36431.6575215,-2.742808640442344,-0.9541897621279255,-0.4704078042559615,-0.1525017768144608,0.04706530645489693,-0.08068816363811493,0.006451845169067383,-0.01205730438232422,0.02098381519317627,XArbitraryZVertical,-0.4787144453279855,0.1144655028933981,-0.8255618101302588,0.2760028865847035,-0.7272310853004456,0.4532498419284821,-0.5154602527618408,0,0,0,-1,-1,36426.358702625,unknown,2,2025-04-22T15:53:03.194+03:00,2025-04-21T17:08:51.449+03:00,8293,1.047924,0,0,6896.382,7,22,2025-04-22T15:52:55.455+03:00,767019188.4532119,0,-14.34,100.375,1,0.5,2025-04-22T15:50:57.745+03:00,80,1.333333333333333,2025-04-22T14:20:19.516+03:00,0.02197104130929222,0
2025-04-22T15:53:08.518+03:00,1745326387.629975,40.9522137686932,29.14028088868508,76.16171,-1,-1,-1,-1,30,19.36516156965402,-9999,36431.6776745,-0.7296600341796875,0.4546356201171875,-0.5147247314453125,36431.6675975,-2.744871091653217,-0.9547828728587304,-0.4706414867897357,-0.1671547591686249,0.03167250379920006,-0.08894689381122589,0.01088243722915649,-0.01234188675880432,0.02226120233535767,XArbitraryZVertical,-0.478848660782062,0.1149789108428549,-0.8256700090133776,0.2752318909087931,-0.7274502515792847,0.4534581303596497,-0.5149676203727722,0,0,0,-1,-1,36426.358702625,unknown,2,2025-04-22T15:53:03.194+03:00,2025-04-21T17:08:51.449+03:00,8293,1.047924,0,0,6896.382,7,22,2025-04-22T15:52:55.455+03:00,767019188.4532119,0,-14.34,100.375,1,0.5,2025-04-22T15:50:57.745+03:00,80,1.333333333333333,2025-04-22T14:20:19.516+03:00,0.02197104130929222,0
2025-04-22T15:53:08.528+03:00,1745326387.629975,40.9522137686932,29.14028088868508,76.16171,-1,-1,-1,-1,30,19.36516156965402,-9999,36431.6877505,-0.735443115234375,0.463470458984375,-0.5262603759765625,36431.6776745,-2.747028676809879,-0.9555148067554214,-0.4708495662811576,-0.1623741239309311,0.02541433833539486,-0.09633716940879822,0.005704164505004883,-0.01046738028526306,0.01572322845458984,XArbitraryZVertical,-0.4790332506725585,0.1154852928123787,-0.8257609873066221,0.2744246552940625,-0.7277499437332153,0.4536435604095459,-0.5143805742263794,0,0,0,-1,-1,36426.358702625,unknown,2,2025-04-22T15:53:03.194+03:00,2025-04-21T17:08:51.449+03:00,8293,1.047924,0,0,6896.382,7,22,2025-04-22T15:52:55.455+03:00,767019188.4532119,0,-14.34,100.375,1,0.5,2025-04-22T15:50:57.745+03:00,80,1.333333333333333,2025-04-22T14:20:19.516+03:00,0.02197104130929222,0
2025-04-22T15:53:08.538+03:00,1745326387.629975,40.9522137686932,29.14028088868508,76.16171,-1,-1,-1,-1,30,19.36516156965402,-9999,36431.6978265,-0.7351837158203125,0.477783203125,-0.52996826171875,36431.6877505,-2.749067157637301,-0.9561876826195406,-0.4708707325488863,-0.1334103792905807,0.03179873526096344,-0.105009488761425,-0.002762019634246826,0.002041220664978027,-0.002975821495056152,XArbitraryZVertical,-0.4791938305081798,0.1158905984048828,-0.8258760982082504,0.2736261028111625,-0.7280880808830261,0.4536624252796173,-0.5138852596282959,0,0,0,-1,-1,36426.358702625,unknown,2,2025-04-22T15:53:03.194+03:00,2025-04-21T17:08:51.449+03:00,8293,1.047924,0,0,6896.382,7,22,2025-04-22T15:52:55.455+03:00,767019188.4532119,0,-14.34,100.375,1,0.5,2025-04-22T15:50:57.745+03:00,80,1.333333333333333,2025-04-22T14:20:19.516+03:00,0.02197104130929222,0
2025-04-22T15:53:08.548+03:00,1745326387.629975,40.9522137686932,29.14028088868508,76.16171,-1,-1,-1,-1,30,19.36516156965402,-9999,36431.70790250001,-0.7285919189453125,0.48663330078125,-0.5253143310546875,36431.6978265,-2.750866547599593,-0.9566801122687737,-0.4706505800151015,-0.1043004989624023,0.04129150882363319,-0.1064151301980019,-0.007050871849060059,0.01093491911888123,-0.01267629861831665,XArbitraryZVertical,-0.4792858996317864,0.1161589703390666,-0.8260359045024367,0.2728676828864026,-0.7284226417541504,0.4534662365913391,-0.5135842561721802,0,0,0,-1,-1,36426.358702625,unknown,2,2025-04-22T15:53:03.194+03:00,2025-04-21T17:08:51.449+03:00,8293,1.047924,0,0,6896.382,7,22,2025-04-22T15:52:55.455+03:00,767019188.4532119,0,-14.34,100.375,1,0.5,2025-04-22T15:50:57.745+03:00,80,1.333333333333333,2025-04-22T14:20:19.516+03:00,0.02197104130929222,0
2025-04-22T15:53:08.558+03:00,1745326387.629975,40.9522137686932,29.14028088868508,76.16171,-1,-1,-1,-1,30,19.36516156965402,-9999,36431.7179795,-0.72283935546875,0.480133056640625,-0.5144805908203125,36431.70790250001,-2.752438628959137,-0.9569433412286136,-0.4703307028564334,-0.0872136577963829,0.04928258806467056,-0.09716677665710449,-0.005469620227813721,0.02609738707542419,-0.01675176620483398,XArbitraryZVertical,-0.4792933266027185,0.1163610567516801,-0.826233403525277,0.2721697824610764,-0.7286763787269592,0.453181117773056,-0.5134760141372681,0,0,0,-1,-1,36426.358702625,unknown,2,2025-04-22T15:53:03.194+03:00,2025-04-21T17:08:51.449+03:00,8293,1.047924,0,0,6896.382,7,22,2025-04-22T15:52:55.455+03:00,767019188.4532119,0,-14.34,100.375,1,0.5,2025-04-22T15:50:57.745+03:00,80,1.333333333333333,2025-04-22T14:20:19.516+03:00,0.02197104130929222,0
2025-04-22T15:53:08.568+03:00,1745326387.629975,40.9522137686932,29.14028088868508,76.16171,-1,-1,-1,-1,30,19.36516156965402,-9999,36431.7280555,-0.7238006591796875,0.4726409912109375,-0.5048065185546875,36431.7179795,-2.753726756196399,-0.9569475466554092,-0.4699883849841963,-0.06086414307355881,0.06450221687555313,-0.08607354015111923,0.001159548759460449,0.03304016590118408,-0.01002800464630127,XArbitraryZVertical,-0.4792095532686222,0.1165206272801753,-0.8264570304002665,0.2715694467991572,-0.7288053035736084,0.452875941991806,-0.5135623216629028,0,0,0,-1,-1,36426.358702625,unknown,2,2025-04-22T15:53:03.194+03:00,2025-04-21T17:08:51.449+03:00,8293,1.047924,0,0,6896.382,7,22,2025-04-22T15:52:55.455+03:00,767019188.4532119,0,-14.34,100.375,1,0.5,2025-04-22T15:50:57.745+03:00,80,1.333333333333333,2025-04-22T14:20:19.516+03:00,0.02197104130929222,0
2025-04-22T15:53:08.578+03:00,1745326387.629975,40.9522137686932,29.14028088868508,76.16171,-1,-1,-1,-1,30,19.36516156965402,-9999,36431.7381315,-0.722381591796875,0.4638671875,-0.4974212646484375,36431.7280555,-2.754651405174898,-0.9566989865700092,-0.4695523043012526,-0.02524303086102009,0.07156811654567719,-0.07356280833482742,0.006716907024383545,0.02653199434280396,0.001115918159484863,XArbitraryZVertical,-0.4790396358493827,0.1165866447205742,-0.8267049787512286,0.2710856785002807,-0.7288389801979065,0.4524870812892914,-0.5138571858406067,0,0,0,-1,-1,36426.358702625,unknown,2,2025-04-22T15:53:03.194+03:00,2025-04-21T17:08:51.449+03:00,8293,1.047924,0,0,6896.382,7,22,2025-04-22T15:52:55.455+03:00,767019188.4532119,0,-14.34,100.375,1,0.5,2025-04-22T15:50:57.745+03:00,80,1.333333333333333,2025-04-22T14:20:19.516+03:00,0.02197104130929222,0
2025-04-22T15:53:08.588+03:00,1745326387.629975,40.9522137686932,29.14028088868508,76.16171,-1,-1,-1,-1,30,19.36516156965402,-9999,36431.7482085,-0.717498779296875,0.457733154296875,-0.499359130859375,36431.7381315,-2.755208311507566,-0.9562513811215591,-0.469046437369838,-0.0007222413551062346,0.0721721276640892,-0.06285078078508377,0.004812121391296387,0.01935377717018127,0.01056146621704102,XArbitraryZVertical,-0.4788067341419703,0.116561106957259,-0.8269605486556409,0.2707282719691467,-0.7287957668304443,0.4520359039306641,-0.5143152475357056,0,0,0,-1,-1,36426.358702625,unknown,2,2025-04-22T15:53:03.194+03:00,2025-04-21T17:08:51.449+03:00,8293,1.047924,0,0,6896.382,7,22,2025-04-22T15:52:55.455+03:00,767019188.4532119,0,-14.34,100.375,1,0.5,2025-04-22T15:50:57.745+03:00,80,1.333333333333333,2025-04-22T14:20:19.516+03:00,0.02197104130929222,0
2025-04-22T15:53:08.598+03:00,1745326387.629975,40.9522137686932,29.14028088868508,76.16171,-1,-1,-1,-1,30,19.36516156965402,-9999,36431.7582845,-0.715545654296875,0.448089599609375,-0.505950927734375,36431.7482085,-2.755582573887757,-0.9557396436071,-0.4685923031182053,-0.004885561298578978,0.06893425434827805,-0.04865213483572006,0.00708162784576416,0.0112597644329071,0.01723253726959229,XArbitraryZVertical,-0.4785594651854971,0.1165227902781353,-0.8271991894613052,0.2704529767563098,-0.7287001609802246,0.4516307711601257,-0.5148065686225891,0,0,0,-1,-1,36426.358702625,unknown,2,2025-04-22T15:53:03.194+03:00,2025-04-21T17:08:51.449+03:00,8293,1.047924,0,0,6896.382,7,22,2025-04-22T15:52:55.455+03:00,767019188.4532119,0,-14.34,100.375,1,0.5,2025-04-22T15:50:57.745+03:00,80,1.333333333333333,2025-04-22T14:20:19.516+03:00,0.02197104130929222,0
2025-04-22T15:53:08.608+03:00,1745326387.629975,40.9522137686932,29.14028088868508,76.16171,-1,-1,-1,-1,30,19.36516156965402,-9999,36431.76836050001,-0.7158203125,0.4404754638671875,-0.5093841552734375,36431.7582845,-2.75603748384152,-0.9552656597912654,-0.4683497495275999,-0.03180166333913803,0.06793763488531113,-0.03652546554803848,0.01119935512542725,0.005403190851211548,0.01428413391113281,XArbitraryZVertical,-0.4783295267165715,0.116590401820415,-0.827408909618035,0.2701887187161354,-0.7285454273223877,0.4514143466949463,-0.5152150988578796,0,0,0,-1,-1,36426.358702625,unknown,2,2025-04-22T15:53:03.194+03:00,2025-04-21T17:08:51.449+03:00,8293,1.047924,0,0,6896.382,7,22,2025-04-22T15:52:55.455+03:00,767019188.4532119,0,-14.34,100.375,1,0.5,2025-04-22T15:50:57.745+03:00,80,1.333333333333333,2025-04-22T14:20:19.516+03:00,0.02197104130929222,0
2025-04-22T15:53:08.618+03:00,1745326387.629975,40.9522137686932,29.14028088868508,76.16171,-1,-1,-1,-1,30,19.36516156965402,-9999,36431.7784365,-0.716888427734375,0.4414825439453125,-0.5103302001953125,36431.76836050001,-2.756695856154818,-0.9549131734439277,-0.4683963407945306,-0.06809708476066589,0.06037052720785141,-0.02756579220294952,0.01327413320541382,-0.004510819911956787,0.009340822696685791,XArbitraryZVertical,-0.4781466703146516,0.1168156390728232,-0.8275754520828472,0.2699050702877642,-0.7283466458320618,0.4514559209346771,-0.5154597163200378,0,0,0,-1,-1,36426.358702625,unknown,2,2025-04-22T15:53:03.194+03:00,2025-04-21T17:08:51.449+03:00,8293,1.047924,0,0,6896.382,7,22,2025-04-22T15:52:55.455+03:00,767019188.4532119,0,-14.34,100.375,1,0.5,2025-04-22T15:50:57.745+03:00,80,1.333333333333333,2025-04-22T14:20:19.516+03:00,0.02197104130929222,0
2025-04-22T15:53:08.629+03:00,1745326387.629975,40.9522137686932,29.14028088868508,76.16171,-1,-1,-1,-1,30,19.36516156965402,-9999,36431.7885135,-0.71954345703125,0.4437103271484375,-0.507354736328125,36431.7784365,-2.757653681949003,-0.9548204971855928,-0.4687140342894651,-0.109554186463356,0.04586275666952133,-0.02227472513914108,0.01176643371582031,-0.01166075468063354,0.00570911169052124,XArbitraryZVertical,-0.4780618834663913,0.1171950655778895,-0.8276809938295421,0.2695666996178519,-0.7281817197799683,0.4517393708229065,-0.515444278717041,0,0,0,-1,-1,36426.358702625,unknown,2,2025-04-22T15:53:03.194+03:00,2025-04-21T17:08:51.449+03:00,8293,1.047924,0,0,6896.382,7,22,2025-04-22T15:52:55.455+03:00,767019188.4532119,0,-14.34,100.375,1,0.5,2025-04-22T15:50:57.745+03:00,80,1.333333333333333,2025-04-22T14:20:19.516+03:00,0.02197104130929222,0
2025-04-22T15:53:08.638+03:00,1745326387.629975,40.9522137686932,29.14028088868508,76.16171,-1,-1,-1,-1,30,19.36516156965402,-9999,36431.7985895,-0.7222442626953125,0.4495391845703125,-0.506195068359375,36431.7885135,-2.758931220725795,-0.9549244466767355,-0.4693256784921409,-0.1420058608055115,0.04277561977505684,-0.01818118058145046,0.01086193323135376,-0.0104362964630127,0.005305767059326172,XArbitraryZVertical,-0.4780481330309986,0.1177520054705923,-0.8277402083439438,0.2691662428136224,-0.7280095815658569,0.4522849917411804,-0.515208899974823,0,0,0,-1,-1,36426.358702625,unknown,2,2025-04-22T15:53:03.194+03:00,2025-04-21T17:08:51.449+03:00,8293,1.047924,0,0,6896.382,7,22,2025-04-22T15:52:55.455+03:00,767019188.4532119,0,-14.34,100.375,1,0.5,2025-04-22T15:50:57.745+03:00,80,1.333333333333333,2025-04-22T14:20:19.516+03:00,0.02197104130929222,0
2025-04-22T15:53:08.649+03:00,1745326387.629975,40.9522137686932,29.14028088868508,76.16171,-1,-1,-1,-1,30,19.36516156965402,-9999,36431.8086655,-0.72137451171875,0.46136474609375,-0.5075225830078125,36431.7985895,-2.76041048025368,-0.9551914963301396,-0.4700670614181748,-0.1487061083316803,0.03350009396672249,-0.02358246967196465,0.007643222808837891,-0.00828978419303894,0.008030414581298828,XArbitraryZVertical,-0.4780931757223783,0.1183915769883567,-0.8277686441467885,0.2687179162117567,-0.7278732061386108,0.4529460668563843,-0.5148206949234009,0,0,0,-1,-1,36426.358702625,unknown,2,2025-04-22T15:53:03.194+03:00,2025-04-21T17:08:51.449+03:00,8293,1.047924,0,0,6896.382,7,22,2025-04-22T15:52:55.455+03:00,767019188.4532119,0,-14.34,100.375,1,0.5,2025-04-22T15:50:57.745+03:00,80,1.333333333333333,2025-04-22T14:20:19.516+03:00,0.02197104130929222,0
2025-04-22T15:53:08.659+03:00,1745326387.629975,40.9522137686932,29.14028088868508,76.16171,-1,-1,-1,-1,30,19.36516156965402,-9999,36431.8187415,-0.7206878662109375,0.4713287353515625,-0.506927490234375,36431.8086655,-2.761965175097477,-0.9555875407164248,-0.4707458648401328,-0.1471393704414368,0.029262475669384,-0.03338183835148811,0.005673229694366455,-0.003310143947601318,0.008876800537109375,XArbitraryZVertical,-0.4781845184602806,0.1190047762898,-0.8277850689453247,0.2682336890755544,-0.7278258204460144,0.4535511434078217,-0.5143548846244812,0,0,0,-1,-1,36426.358702625,unknown,2,2025-04-22T15:53:03.194+03:00,2025-04-21T17:08:51.449+03:00,8293,1.047924,0,0,6896.382,7,22,2025-04-22T15:52:55.455+03:00,767019188.4532119,0,-14.34,100.375,1,0.5,2025-04-22T15:50:57.745+03:00,80,1.333333333333333,2025-04-22T14:20:19.516+03:00,0.02197104130929222,0
2025-04-22T15:53:08.669+03:00,1745326387.629975,40.9522137686932,29.14028088868508,76.16171,-1,-1,-1,-1,30,19.36516156965402,-9999,36431.82881850001,-0.7176513671875,0.4770050048828125,-0.50775146484375,36431.8187415,-2.763507136352688,-0.9560142535998528,-0.4712622111560397,-0.1250902563333511,0.02184210903942585,-0.04719565436244011,0.006540477275848389,0.009123384952545166,0.006157517433166504,XArbitraryZVertical,-0.4782839573586478,0.1195404745115255,-0.8278152981852254,0.2677242260689776,-0.7278537750244141,0.4540112614631653,-0.5139090418815613,0,0,0,-1,-1,36426.358702625,unknown,2,2025-04-22T15:53:03.194+03:00,2025-04-21T17:08:51.449+03:00,8293,1.047924,0,0,6896.382,7,22,2025-04-22T15:52:55.455+03:00,767019188.4532119,0,-14.34,100.375,1,0.5,2025-04-22T15:50:57.745+03:00,80,1.333333333333333,2025-04-22T14:20:19.516+03:00,0.02197104130929222,0
2025-04-22T15:53:08.679+03:00,1745326387.629975,40.9522137686932,29.14028088868508,76.16171,-1,-1,-1,-1,30,19.36516156965402,-9999,36431.8388945,-0.7128753662109375,0.4782562255859375,-0.5054473876953125,36431.82881850001,-2.764859247886587,-0.9564491292187606,-0.4714696411625841,-0.09145267307758331,0.01581670716404915,-0.06031571701169014,0.007800817489624023,0.01771235466003418,0.006946265697479248,XArbitraryZVertical,-0.4783888826279381,0.1198957436654393,-0.8278622614080657,0.2672321280840259,-0.7280002236366272,0.4541960954666138,-0.5135381817817688,0,0,0,-1,-1,36426.358702625,unknown,2,2025-04-22T15:53:03.194+03:00,2025-04-21T17:08:51.449+03:00,8293,1.047924,0,0,6896.382,7,22,2025-04-22T15:52:55.455+03:00,767019188.4532119,0,-14.34,100.375,1,0.5,2025-04-22T15:50:57.745+03:00,80,1.333333333333333,2025-04-22T14:20:19.516+03:00,0.02197104130929222,0
2025-04-22T15:53:08.689+03:00,1745326387.629975,40.9522137686932,29.14028088868508,76.16171,-1,-1,-1,-1,30,19.36516156965402,-9999,36431.8489705,-0.711029052734375,0.471405029296875,-0.4975433349609375,36431.8388945,-2.765992102436749,-0.9568499125356791,-0.4714425537161307,-0.06850195676088333,0.01005003042519093,-0.06148051470518112,0.01152610778808594,0.02300077676773071,0.004845798015594482,XArbitraryZVertical,-0.4784860645672906,0.1201014862184695,-0.8279214912903499,0.2667817984830106,-0.7282159924507141,0.4541719555854797,-0.5132534503936768,0,0,0,-1,-1,36426.358702625,unknown,2,2025-04-22T15:53:03.194+03:00,2025-04-21T17:08:51.449+03:00,8293,1.047924,0,0,6896.382,7,22,2025-04-22T15:52:55.455+03:00,767019188.4532119,0,-14.34,100.375,1,0.5,2025-04-22T15:50:57.745+03:00,80,1.333333333333333,2025-04-22T14:20:19.516+03:00,0.02197104130929222,0
2025-04-22T15:53:08.699+03:00,1745326387.629975,40.9522137686932,29.14028088868508,76.16171,-1,-1,-1,-1,30,19.36516156965402,-9999,36431.8590475,-0.7173004150390625,0.466339111328125,-0.4925994873046875,36431.8489705,-2.766959495157055,-0.9571911163967958,-0.4712647493591326,-0.05112908780574799,0.0102620180696249,-0.06603958457708359,0.01616173982620239,0.0232507586479187,0.009328186511993408,XArbitraryZVertical,-0.4785642814832051,0.1202102991172966,-0.8279943113741911,0.2663661450219824,-0.7284570932388306,0.4540135264396667,-0.513051450252533,0,0,0,-1,-1,36426.358702625,unknown,2,2025-04-22T15:53:03.194+03:00,2025-04-21T17:08:51.449+03:00,8293,1.047924,0,0,6896.382,7,22,2025-04-22T15:52:55.455+03:00,767019188.4532119,0,-14.34,100.375,1,0.5,2025-04-22T15:50:57.745+03:00,80,1.333333333333333,2025-04-22T14:20:19.516+03:00,0.02197104130929222,0
2025-04-22T15:53:08.709+03:00,1745326387.629975,40.9522137686932,29.14028088868508,76.16171,-1,-1,-1,-1,30,19.36516156965402,-9999,36431.8691235,-0.7210693359375,0.4620361328125,-0.4964447021484375,36431.8590475,-2.767782729156934,-0.9574567620382473,-0.4710049402504259,-0.04058024287223816,0.008442613296210766,-0.06033479049801826,0.01714211702346802,0.01676839590072632,0.01622152328491211,XArbitraryZVertical,-0.4786176232756263,0.1202591650259768,-0.8280776410888752,0.2659891379160156,-0.7286898493766785,0.4537820219993591,-0.5129258036613464,0,0,0,-1,-1,36426.358702625,unknown,2,2025-04-22T15:53:03.194+03:00,2025-04-21T17:08:51.449+03:00,8293,1.047924,0,0,6896.382,7,22,2025-04-22T15:52:55.455+03:00,767019188.4532119,0,-14.34,100.375,1,0.5,2025-04-22T15:50:57.745+03:00,80,1.333333333333333,2025-04-22T14:20:19.516+03:00,0.02197104130929222,0
2025-04-22T15:53:08.719+03:00,1745326387.629975,40.9522137686932,29.14028088868508,76.16171,-1,-1,-1,-1,30,19.36516156965402,-9999,36431.8791995,-0.724945068359375,0.4580535888671875,-0.5073394775390625,36431.8691235,-2.768529002871515,-0.9577232936074628,-0.4707420751744893,-0.0370829775929451,0.005025511141866446,-0.0585523396730423,0.01095235347747803,0.01306596398353577,0.02013951539993286,XArbitraryZVertical,-0.478675916225823,0.1202882460580504,-0.8281507571436071,0.2656433701772031,-0.7289240956306458,0.4535477757453918,-0.5128002166748047,0,0,0,-1,-1,36426.358702625,unknown,2,2025-04-22T15:53:03.194+03:00,2025-04-21T17:08:51.449+03:00,8293,1.047924,0,0,6896.382,7,22,2025-04-22T15:52:55.455+03:00,767019188.4532119,0,-14.34,100.375,1,0.5,2025-04-22T15:50:57.745+03:00,80,1.333333333333333,2025-04-22T14:20:19.516+03:00,0.02197104130929222,0
2025-04-22T15:53:08.729+03:00,1745326387.629975,40.9522137686932,29.14028088868508,76.16171,-1,-1,-1,-1,30,19.36516156965402,-9999,36431.88927550001,-0.731475830078125,0.4557342529296875,-0.512359619140625,36431.8791995,-2.769229892740234,-0.9580099490039299,-0.4704438750209918,-0.03420409932732582,0.001453679986298084,-0.06051881611347198,0.007959902286529541,0.008357346057891846,0.01466774940490723,XArbitraryZVertical,-0.4787443576979764,0.120288533454781,-0.8282179020583222,0.2653104396113031,-0.729181706905365,0.4532819986343384,-0.5126690268516541,0,0,0,-1,-1,36426.358702625,unknown,2,2025-04-22T15:53:03.194+03:00,2025-04-21T17:08:51.449+03:00,8293,1.047924,0,0,6896.382,7,22,2025-04-22T15:52:55.455+03:00,767019188.4532119,0,-14.34,100.375,1,0.5,2025-04-22T15:50:57.745+03:00,80,1.333333333333333,2025-04-22T14:20:19.516+03:00,0.02197104130929222,0
2025-04-22T15:53:08.739+03:00,1745326387.629975,40.9522137686932,29.14028088868508,76.16171,-1,-1,-1,-1,30,19.36516156965402,-9999,36431.8993525,-0.7335662841796875,0.4582366943359375,-0.50811767578125,36431.88927550001,-2.769923656037592,-0.9583325708115891,-0.4701477469831144,-0.03272205218672752,-0.003270767629146576,-0.05949189886450768,0.003504812717437744,0.004425108432769775,0.004347264766693115,XArbitraryZVertical,-0.4788282614806922,0.1202833575556436,-0.8282748682915504,0.2649829417978542,-0.7294567823410034,0.4530180096626282,-0.5125108361244202,0,0,0,-1,-1,36426.358702625,unknown,2,2025-04-22T15:53:03.194+03:00,2025-04-21T17:08:51.449+03:00,8293,1.047924,0,0,6896.382,7,22,2025-04-22T15:52:55.455+03:00,767019188.4532119,0,-14.34,100.375,1,0.5,2025-04-22T15:50:57.745+03:00,80,1.333333333333333,2025-04-22T14:20:19.516+03:00,0.02197104130929222,0
2025-04-22T15:53:08.749+03:00,1745326387.629975,40.9522137686932,29.14028088868508,76.16171,-1,-1,-1,-1,30,19.36516156965402,-9999,36431.9094285,-0.7271728515625,0.46148681640625,-0.502410888671875,36431.8993525,-2.770642892747766,-0.9587416438512731,-0.469890468562476,-0.0446605384349823,-0.01530193164944649,-0.06019207835197449,-0.002812564373016357,0.003327071666717529,0.000301063060760498,XArbitraryZVertical,-0.4789474723566769,0.1202897250249569,-0.8283090852852284,0.2646579200529484,-0.7297618389129639,0.4527886211872101,-0.5122793912887573,0,0,0,-1,-1,36426.358702625,unknown,2,2025-04-22T15:53:03.194+03:00,2025-04-21T17:08:51.449+03:00,8293,1.047924,0,0,6896.382,7,22,2025-04-22T15:52:55.455+03:00,767019188.4532119,0,-14.34,100.375,1,0.5,2025-04-22T15:50:57.745+03:00,80,1.333333333333333,2025-04-22T14:20:19.516+03:00,0.02197104130929222,0
2025-04-22T15:53:08.760+03:00,1745326387.629975,40.9522137686932,29.14028088868508,76.16171,-1,-1,-1,-1,30,19.36516156965402,-9999,36431.9195045,-0.72674560546875,0.463836669921875,-0.498565673828125,36431.9094285,-2.771501032622592,-0.9593383586932231,-0.4697637122227642,-0.05950126796960831,-0.02529437839984894,-0.05413525179028511,-0.002597332000732422,0.005805134773254395,0.00450664758682251,XArbitraryZVertical,-0.4791396228593742,0.1203613869004231,-0.8282975830616019,0.2643128456070266,-0.7301142811775208,0.4526756107807159,-0.5118767023086548,0,0,0,-1,-1,36426.358702625,unknown,2,2025-04-22T15:53:03.194+03:00,2025-04-21T17:08:51.449+03:00,8293,1.047924,0,0,6896.382,7,22,2025-04-22T15:52:55.455+03:00,767019188.4532119,0,-14.34,100.375,1,0.5,2025-04-22T15:50:57.745+03:00,80,1.333333333333333,2025-04-22T14:20:19.516+03:00,0.02197104130929222,0
2025-04-22T15:53:08.772+03:00,1745326387.629975,40.9522137686932,29.14028088868508,76.16171,-1,-1,-1,-1,30,19.36516156965402,-9999,36431.9295815,-0.72760009765625,0.462860107421875,-0.49920654296875,36431.9195045,-2.772473787615528,-0.9600332798693412,-0.4697319613073783,-0.07141505181789398,-0.02859230153262615,-0.05600152909755707,0.003232657909393311,0.008564800024032593,0.009683609008789062,XArbitraryZVertical,-0.4793679835013372,0.1204889113818157,-0.8282641702237525,0.2639454517309025,-0.7304816246032715,0.4526472985744476,-0.5113775134086609,0,0,0,-1,-1,36426.358702625,unknown,2,2025-04-22T15:53:03.194+03:00,2025-04-21T17:08:51.449+03:00,8293,1.047924,0,0,6896.382,7,22,2025-04-22T15:52:55.455+03:00,767019188.4532119,0,-14.34,100.375,1,0.5,2025-04-22T15:50:57.745+03:00,80,1.333333333333333,2025-04-22T14:20:19.516+03:00,0.02197104130929222,0
2025-04-22T15:53:08.780+03:00,1745326387.629975,40.9522137686932,29.14028088868508,76.16171,-1,-1,-1,-1,30,19.36516156965402,-9999,36431.9396575,-0.731658935546875,0.4648284912109375,-0.5023193359375,36431.9295815,-2.77349531487857,-0.9607907412025023,-0.4697531234453924,-0.06803390383720398,-0.03078514896333218,-0.05637650191783905,0.003611862659454346,0.01059058308601379,0.01303088665008545,XArbitraryZVertical,-0.4796206529849138,0.1206431236622914,-0.8282141892608852,0.2635723347104017,-0.7308608889579773,0.452666163444519,-0.5108185410499573,0,0,0,-1,-1,36426.358702625,unknown,2,2025-04-22T15:53:03.194+03:00,2025-04-21T17:08:51.449+03:00,8293,1.047924,0,0,6896.382,7,22,2025-04-22T15:52:55.455+03:00,767019188.4532119,0,-14.34,100.375,1,0.5,2025-04-22T15:50:57.745+03:00,80,1.333333333333333,2025-04-22T14:20:19.516+03:00,0.02197104130929222,0
2025-04-22T15:53:08.790+03:00,1745326387.629975,40.9522137686932,29.14028088868508,76.16171,-1,-1,-1,-1,30,19.36516156965402,-9999,36431.94973350001,-0.7344207763671875,0.468414306640625,-0.500244140625,36431.9396575,-2.774372987383963,-0.9614490994139534,-0.4696589228301616,-0.04273500293493271,-0.01993975974619389,-0.05949536338448524,0.003159046173095703,0.01043045520782471,0.01042258739471436,XArbitraryZVertical,-0.4798378595036227,0.1207260635638884,-0.8281853643589128,0.2632295915898812,-0.7312320470809937,0.4525821506977081,-0.5103616714477539,0,0,0,-1,-1,36426.358702625,unknown,2,2025-04-22T15:53:03.194+03:00,2025-04-21T17:08:51.449+03:00,8293,1.047924,0,0,6896.382,7,22,2025-04-22T15:52:55.455+03:00,767019188.4532119,0,-14.34,100.375,1,0.5,2025-04-22T15:50:57.745+03:00,80,1.333333333333333,2025-04-22T14:20:19.516+03:00,0.02197104130929222,0
2025-04-22T15:53:08.800+03:00,1745326387.629975,40.9522137686932,29.14028088868508,76.16171,-1,-1,-1,-1,30,19.36516156965402,-9999,36431.9598105,-0.7337188720703125,0.4578399658203125,-0.503387451171875,36431.94973350001,-2.775045178309018,-0.9619366906516518,-0.4694778097419866,-0.02925887703895569,-0.01246559806168079,-0.04208148270845413,-0.0005990862846374512,0.01352158188819885,0.00808340311050415,XArbitraryZVertical,-0.4799945453562334,0.1207446906424432,-0.8281824777468051,0.2629440101754285,-0.7315479516983032,0.4524206519126892,-0.5100519061088562,0,0,0,-1,-1,36426.358702625,unknown,2,2025-04-22T15:53:03.194+03:00,2025-04-21T17:08:51.449+03:00,8293,1.047924,0,0,6896.382,7,22,2025-04-22T15:52:55.455+03:00,767019188.4532119,0,-14.34,100.375,1,0.5,2025-04-22T15:50:57.745+03:00,80,1.333333333333333,2025-04-22T14:20:19.516+03:00,0.02197104130929222,0
2025-04-22T15:53:08.810+03:00,1745326387.629975,40.9522137686932,29.14028088868508,76.16171,-1,-1,-1,-1,30,19.36516156965402,-9999,36431.9698865,-0.737335205078125,0.4566192626953125,-0.508056640625,36431.9598105,-2.775535475662188,-0.9622545007061052,-0.469303076943474,-0.02150308713316917,-0.005124460905790329,-0.03847070783376694,-0.002920389175415039,0.01485240459442139,0.009238839149475098,XArbitraryZVertical,-0.4800920560903326,0.1207448096351281,-0.8281955831147406,0.2627248063170193,-0.7317749261856079,0.452264815568924,-0.5098646283149719,0,0,0,-1,-1,36426.358702625,unknown,2,2025-04-22T15:53:03.194+03:00,2025-04-21T17:08:51.449+03:00,8293,1.047924,0,0,6896.382,7,22,2025-04-22T15:52:55.455+03:00,767019188.4532119,0,-14.34,100.375,1,0.5,2025-04-22T15:50:57.745+03:00,80,1.333333333333333,2025-04-22T14:20:19.516+03:00,0.02197104130929222,0
2025-04-22T15:53:08.820+03:00,1745326387.629975,40.9522137686932,29.14028088868508,76.16171,-1,-1,-1,-1,30,19.36516156965402,-9999,36431.9799625,-0.7362060546875,0.45294189453125,-0.50299072265625,36431.9698865,-2.776021548462976,-0.9625738082064554,-0.4691930294404658,-0.03446096554398537,-0.01399731542915106,-0.03314412012696266,-0.001877546310424805,0.005627483129501343,0.005707204341888428,XArbitraryZVertical,-0.4801921102507531,0.1207718327376804,-0.828198485881646,0.2625205258828723,-0.7319785952568054,0.4521666765213013,-0.5096594095230103,0,0,0,-1,-1,36426.358702625,unknown,2,2025-04-22T15:53:03.194+03:00,2025-04-21T17:08:51.449+03:00,8293,1.047924,0,0,6896.382,7,22,2025-04-22T15:52:55.455+03:00,767019188.4532119,0,-14.34,100.375,1,0.5,2025-04-22T15:50:57.745+03:00,80,1.333333333333333,2025-04-22T14:20:19.516+03:00,0.02197104130929222,0
2025-04-22T15:53:08.830+03:00,1745326387.629975,40.9522137686932,29.14028088868508,76.16171,-1,-1,-1,-1,30,19.36516156965402,-9999,36431.9900385,-0.7431182861328125,0.4535980224609375,-0.494110107421875,36431.9799625,-2.776570948685203,-0.9629170294696363,-0.4691091601697735,-0.03790689632296562,-0.003018233459442854,-0.03805062547326088,-0.005242109298706055,0.004161089658737183,0.001586556434631348,XArbitraryZVertical,-0.4802989460620949,0.1208223749329118,-0.8281999808401836,0.2622967280004997,-0.7321845293045044,0.4520918726921082,-0.5094297528266907,0,0,0,-1,-1,36426.358702625,unknown,2,2025-04-22T15:53:03.194+03:00,2025-04-21T17:08:51.449+03:00,8293,1.047924,0,0,6896.382,7,22,2025-04-22T15:52:55.455+03:00,767019188.4532119,0,-14.34,100.375,1,0.5,2025-04-22T15:50:57.745+03:00,80,1.333333333333333,2025-04-22T14:20:19.516+03:00,0.02197104130929222,0
2025-04-22T15:53:08.840+03:00,1745326387.629975,40.9522137686932,29.14028088868508,76.16171,-1,-1,-1,-1,30,19.36516156965402,-9999,36432.0001155,-0.7403717041015625,0.45758056640625,-0.4948883056640625,36431.9900385,-2.777075923579325,-0.9631314550315483,-0.4691038994117862,-0.03452388197183609,0.006805901415646076,-0.02191746048629284,-0.003711819648742676,0.0004426538944244385,0.007870137691497803,XArbitraryZVertical,-0.4803570852047304,0.1209132544612941,-0.8282154576012274,0.262099512835096,-0.7322956919670105,0.4520871639251709,-0.5092741250991821,0,0,0,-1,-1,36426.358702625,unknown,2,2025-04-22T15:53:03.194+03:00,2025-04-21T17:08:51.449+03:00,8293,1.047924,0,0,6896.382,7,22,2025-04-22T15:52:55.455+03:00,767019188.4532119,0,-14.34,100.375,1,0.5,2025-04-22T15:50:57.745+03:00,80,1.333333333333333,2025-04-22T14:20:19.516+03:00,0.02197104130929222,0
2025-04-22T15:53:08.850+03:00,1745326387.629975,40.9522137686932,29.14028088868508,76.16171,-1,-1,-1,-1,30,19.36516156965402,-9999,36432.01019150001,-0.7332763671875,0.4589996337890625,-0.5010833740234375,36432.0001155,-2.777527107170546,-0.9632756639604897,-0.4691504892471684,-0.03256659209728241,0.008101129904389381,-0.01936142519116402,-0.01195651292800903,0.001972764730453491,0.01583969593048096,XArbitraryZVertical,-0.4803906911264395,0.1210229383198225,-0.8282332799999832,0.2619308403913492,-0.7323518395423889,0.4521287381649017,-0.5091564655303955,0,0,0,-1,-1,36426.358702625,unknown,2,2025-04-22T15:53:03.194+03:00,2025-04-21T17:08:51.449+03:00,8293,1.047924,0,0,6896.382,7,22,2025-04-22T15:52:55.455+03:00,767019188.4532119,0,-14.34,100.375,1,0.5,2025-04-22T15:50:57.745+03:00,80,1.333333333333333,2025-04-22T14:20:19.516+03:00,0.02197104130929222,0
2025-04-22T15:53:08.860+03:00,1745326387.629975,40.9522137686932,29.14028088868508,76.16171,-1,-1,-1,-1,30,19.36516156965402,-9999,36432.02026779167,-0.7334747314453125,0.4546661376953125,-0.502288818359375,36432.01019150001,-2.777868950662966,-0.9633332622234723,-0.4691907759038547,-0.01814290881156921,0.01198907848447561,-0.01512646675109863,-0.006021738052368164,0.006010890007019043,0.01378822326660156,XArbitraryZVertical,-0.4803948657403432,0.121114981812218,-0.8282584470247274,0.2618009298962056,-0.7323662042617798,0.4521646499633789,-0.5091038942337036,0,0,0,-1,-1,36426.358702625,unknown,2,2025-04-22T15:53:03.194+03:00,2025-04-21T17:08:51.449+03:00,8293,1.047924,0,0,6896.382,7,22,2025-04-22T15:52:55.455+03:00,767019188.4532119,0,-14.34,100.375,1,0.5,2025-04-22T15:50:57.745+03:00,80,1.333333333333333,2025-04-22T14:20:19.516+03:00,0.02197104130929222,0
2025-04-22T15:53:08.870+03:00,1745326387.629975,40.9522137686932,29.14028088868508,76.16171,-1,-1,-1,-1,30,19.36516156965402,-9999,36432.03034479167,-0.7388916015625,0.452728271484375,-0.5086517333984375,36432.02026779167,-2.778034470390433,-0.9632468340933681,-0.4691569702474193,-0.0002907427260652184,0.02161766961216927,-0.01252792123705149,-0.0004226565361022949,0.007002383470535278,0.007497310638427734,XArbitraryZVertical,-0.4803481995109987,0.1211513870224258,-0.8283056877453671,0.2617202898854215,-0.7323347330093384,0.4521345198154449,-0.5091758966445923,0,0,0,-1,-1,36426.358702625,unknown,2,2025-04-22T15:53:03.194+03:00,2025-04-21T17:08:51.449+03:00,8293,1.047924,0,0,6896.382,7,22,2025-04-22T15:52:55.455+03:00,767019188.4532119,0,-14.34,100.375,1,0.5,2025-04-22T15:50:57.745+03:00,80,1.333333333333333,2025-04-22T14:20:19.516+03:00,0.02197104130929222,0
2025-04-22T15:53:08.880+03:00,1745326387.629975,40.9522137686932,29.14028088868508,76.16171,-1,-1,-1,-1,30,19.36516156965402,-9999,36432.04042079167,-0.7327423095703125,0.455352783203125,-0.5220947265625,36432.03034479167,-2.778005206882127,-0.9630003494139512,-0.4690203388438606,0.02240018919110298,0.02111140266060829,-0.01064107101410627,-0.001794517040252686,0.002653419971466064,0.006797552108764648,XArbitraryZVertical,-0.4802444757327533,0.121117369870495,-0.828380430143543,0.2616897519615566,-0.7322599291801453,0.4520126283168793,-0.5093916654586792,0,0,0,-1,-1,36426.358702625,unknown,2,2025-04-22T15:53:03.194+03:00,2025-04-21T17:08:51.449+03:00,8293,1.047924,0,0,6896.382,7,22,2025-04-22T15:52:55.455+03:00,767019188.4532119,0,-14.34,100.375,1,0.5,2025-04-22T15:50:57.745+03:00,80,1.333333333333333,2025-04-22T14:20:19.516+03:00,0.02197104130929222,0
2025-04-22T15:53:08.890+03:00,1745326387.629975,40.9522137686932,29.14028088868508,76.16171,-1,-1,-1,-1,30,19.36516156965402,-9999,36432.05049679167,-0.7277679443359375,0.4609375,-0.5308074951171875,36432.04042079167,-2.777712131529311,-0.9627397274615555,-0.4687279381038594,0.05927931144833565,0.005987778306007385,-0.01277842465788126,-0.00619804859161377,9.137392044067383e-05,-0.0006113052368164062,XArbitraryZVertical,-0.4801469177222002,0.1209542899622086,-0.8284462378310734,0.2617360718211474,-0.7322356104850769,0.4517517983913422,-0.5096579790115356,0,0,0,-1,-1,36426.358702625,unknown,2,2025-04-22T15:53:03.194+03:00,2025-04-21T17:08:51.449+03:00,8293,1.047924,0,0,6896.382,7,22,2025-04-22T15:52:55.455+03:00,767019188.4532119,0,-14.34,100.375,1,0.5,2025-04-22T15:50:57.745+03:00,80,1.333333333333333,2025-04-22T14:20:19.516+03:00,0.02197104130929222,0
2025-04-22T15:53:08.901+03:00,1745326387.629975,40.9522137686932,29.14028088868508,76.16171,-1,-1,-1,-1,30,19.36516156965402,-9999,36432.06057279167,-0.735992431640625,0.470703125,-0.5511322021484375,36432.05049679167,-2.776998286648615,-0.9624307066568859,-0.4680407506175397,0.1325942724943161,-0.00866599939763546,-0.0297054760158062,0.001284182071685791,0.004275113344192505,-0.01351344585418701,XArbitraryZVertical,-0.4800446475858068,0.1205253509467204,-0.8285245073135193,0.2618737651608196,-0.7323326468467712,0.4511386156082153,-0.5100615620613098,0,0,0,-1,-1,36426.358702625,unknown,2,2025-04-22T15:53:03.194+03:00,2025-04-21T17:08:51.449+03:00,8293,1.047924,0,0,6896.382,7,22,2025-04-22T15:52:55.455+03:00,767019188.4532119,0,-14.34,100.375,1,0.5,2025-04-22T15:50:57.745+03:00,80,1.333333333333333,2025-04-22T14:20:19.516+03:00,0.02197104130929222,0
2025-04-22T15:53:08.911+03:00,1745326387.629975,40.9522137686932,29.14028088868508,76.16171,-1,-1,-1,-1,30,19.36516156965402,-9999,36432.07064979167,-0.738525390625,0.483489990234375,-0.5760040283203125,36432.06057279167,-2.775649563705597,-0.9619933377180695,-0.4667635499886041,0.2100081145763397,-0.0170925073325634,-0.04790884628891945,0.004142403602600098,0.01165619492530823,-0.02111905813217163,XArbitraryZVertical,-0.4799117214968379,0.1197049742474663,-0.8286339411177959,0.2621473719894072,-0.732581615447998,0.4499984085559845,-0.5107108950614929,0,0,0,-1,-1,36426.358702625,unknown,2,2025-04-22T15:53:03.194+03:00,2025-04-21T17:08:51.449+03:00,8293,1.047924,0,0,6896.382,7,22,2025-04-22T15:52:55.455+03:00,767019188.4532119,0,-14.34,100.375,1,0.5,2025-04-22T15:50:57.745+03:00,80,1.333333333333333,2025-04-22T14:20:19.516+03:00,0.02197104130929222,0
2025-04-22T15:53:08.921+03:00,1745326387.629975,40.9522137686932,29.14028088868508,76.16171,-1,-1,-1,-1,30,19.36516156965402,-9999,36432.08072579167,-0.74005126953125,0.4922637939453125,-0.5553131103515625,36432.07064979167,-2.773605593728424,-0.9613280880249174,-0.4648107436856151,0.31672203540802,-0.03120486438274384,-0.06388115882873535,-0.004496335983276367,0.02493658661842346,-0.04431498050689697,XArbitraryZVertical,-0.4797065569754386,0.1184546826736165,-0.8288020435596496,0.2625591231133805,-0.7329608201980591,0.4482536315917969,-0.5117002129554749,0,0,0,-1,-1,36426.358702625,unknown,2,2025-04-22T15:53:03.194+03:00,2025-04-21T17:08:51.449+03:00,8293,1.047924,0,0,6896.382,7,22,2025-04-22T15:52:55.455+03:00,767019188.4532119,0,-14.34,100.375,1,0.5,2025-04-22T15:50:57.745+03:00,80,1.333333333333333,2025-04-22T14:20:19.516+03:00,0.02197104130929222,0
2025-04-22T15:53:08.931+03:00,1745326387.629975,40.9522137686932,29.14028088868508,76.16171,-1,-1,-1,-1,30,19.36516156965402,-9999,36432.09080179167,-0.75640869140625,0.4949493408203125,-0.5345306396484375,36432.08072579167,-2.770801209689568,-0.9601952747528257,-0.4622010422681228,0.3847593367099762,0.01709016412496567,-0.07886626571416855,-0.004608809947967529,0.03920331597328186,-0.06225574016571045,XArbitraryZVertical,-0.4793312985255453,0.1167986789907841,-0.8290740891102332,0.2631267386577843,-0.7333366274833679,0.4459192752838135,-0.5131991505622864,0,0,0,-1,-1,36426.358702625,unknown,2,2025-04-22T15:53:03.194+03:00,2025-04-21T17:08:51.449+03:00,8293,1.047924,0,0,6896.382,7,22,2025-04-22T15:52:55.455+03:00,767019188.4532119,0,-14.34,100.375,1,0.5,2025-04-22T15:50:57.745+03:00,80,1.333333333333333,2025-04-22T14:20:19.516+03:00,0.02197104130929222,0
2025-04-22T15:53:08.941+03:00,1745326387.629975,40.9522137686932,29.14028088868508,76.16171,-1,-1,-1,-1,30,19.36516156965402,-9999,36432.10087779167,-0.747772216796875,0.4824066162109375,-0.540985107421875,36432.09080179167,-2.767499523247821,-0.9579705920863738,-0.4591813230781959,0.4510635435581207,0.163801833987236,-0.08002740144729614,-0.007934808731079102,0.04949182271957397,-0.03562247753143311,XArbitraryZVertical,-0.478514960953988,0.1149900264933685,-0.8295979716915172,0.2637570566052779,-0.7332912087440491,0.4432143867015839,-0.5156014561653137,0,0,0,-1,-1,36426.358702625,unknown,2,2025-04-22T15:53:03.194+03:00,2025-04-21T17:08:51.449+03:00,8293,1.047924,0,0,6896.382,7,22,2025-04-22T15:52:55.455+03:00,767019188.4532119,0,-14.34,100.375,1,0.5,2025-04-22T15:50:57.745+03:00,80,1.333333333333333,2025-04-22T14:20:19.516+03:00,0.02197104130929222,0
2025-04-22T15:53:08.951+03:00,1745326387.629975,40.9522137686932,29.14028088868508,76.16171,-1,-1,-1,-1,30,19.36516156965402,-9999,36432.11095479167,-0.68902587890625,0.4836578369140625,-0.562957763671875,36432.10087779167,-2.763675441365386,-0.9543652350350262,-0.4560981970556268,0.4602039754390717,0.2147722691297531,-0.007243909873068333,-0.02507495880126953,0.05369201302528381,-0.01437222957611084,XArbitraryZVertical,-0.4771458066725865,0.1132129177806512,-0.8303884402841353,0.264517801747653,-0.7325390577316284,0.440448522567749,-0.519029438495636,0,0,0,-1,-1,36426.358702625,unknown,2,2025-04-22T15:53:03.194+03:00,2025-04-21T17:08:51.449+03:00,8293,1.047924,0,0,6896.382,7,22,2025-04-22T15:52:55.455+03:00,767019188.4532119,0,-14.34,100.375,1,0.5,2025-04-22T15:50:57.745+03:00,80,1.333333333333333,2025-04-22T14:20:19.516+03:00,0.02197104130929222,0
2025-04-22T15:53:08.961+03:00,1745326387.629975,40.9522137686932,29.14028088868508,76.16171,-1,-1,-1,-1,30,19.36516156965402,-9999,36432.12103079167,-0.658721923828125,0.5191650390625,-0.612457275390625,36432.11095479167,-2.759136873130044,-0.9511194533031764,-0.4532624221304902,0.5424066781997681,0.1291111707687378,0.02725627645850182,-0.01021617650985718,0.04326972365379333,-0.02221453189849854,XArbitraryZVertical,-0.4759644305187384,0.1113284969687933,-0.8309588679595552,0.2656522555680436,-0.7318643927574158,0.4379008412361145,-0.522127628326416,0,0,0,-1,-1,36426.358702625,unknown,2,2025-04-22T15:53:03.194+03:00,2025-04-21T17:08:51.449+03:00,8293,1.047924,0,0,6896.382,7,22,2025-04-22T15:52:55.455+03:00,767019188.4532119,0,-14.34,100.375,1,0.5,2025-04-22T15:50:57.745+03:00,80,1.333333333333333,2025-04-22T14:20:19.516+03:00,0.02197104130929222,0
2025-04-22T15:53:08.971+03:00,1745326387.629975,40.9522137686932,29.14028088868508,76.16171,-1,-1,-1,-1,30,19.36516156965402,-9999,36432.13110679167,-0.6944580078125,0.5438995361328125,-0.68060302734375,36432.12103079167,-2.753779024009983,-0.948152265511462,-0.4499325776993371,0.6594331860542297,0.1279582977294922,0.01767648756504059,0.04953145980834961,0.05192673206329346,-0.04117041826248169,XArbitraryZVertical,-0.4749174835198774,0.1090008937802157,-0.8314180342462155,0.267050818335595,-0.7314923405647278,0.4349048137664795,-0.5251443982124329,0,0,0,-1,-1,36426.358702625,unknown,2,2025-04-22T15:53:03.194+03:00,2025-04-21T17:08:51.449+03:00,8293,1.047924,0,0,6896.382,7,22,2025-04-22T15:52:55.455+03:00,767019188.4532119,0,-14.34,100.375,1,0.5,2025-04-22T15:50:57.745+03:00,80,1.333333333333333,2025-04-22T14:20:19.516+03:00,0.02197104130929222,0
2025-04-22T15:53:08.981+03:00,1745326387.629975,40.9522137686932,29.14028088868508,76.16171,-1,-1,-1,-1,30,19.36516156965402,-9999,36432.14118379167,-0.7004852294921875,0.5349578857421875,-0.7398681640625,36432.13110679167,-2.747045266161475,-0.9450877786873286,-0.4456338138389125,0.8000861406326294,-0.0119684524834156,0.005848855711519718,0.071003258228302,0.09333831071853638,-0.09286439418792725,XArbitraryZVertical,-0.4738559216573412,0.1059421824029803,-0.8318451325564203,0.2688316129003748,-0.73138827085495,0.431029886007309,-0.5284736156463623,0,0,0,-1,-1,36426.358702625,unknown,2,2025-04-22T15:53:03.194+03:00,2025-04-21T17:08:51.449+03:00,8293,1.047924,0,0,6896.382,7,22,2025-04-22T15:52:55.455+03:00,767019188.4532119,0,-14.34,100.375,1,0.5,2025-04-22T15:50:57.745+03:00,80,1.333333333333333,2025-04-22T14:20:19.516+03:00,0.02197104130929222,0
2025-04-22T15:53:08.991+03:00,1745326387.629975,40.9522137686932,29.14028088868508,76.16171,-1,-1,-1,-1,30,19.36516156965402,-9999,36432.15125979167,-0.671600341796875,0.538238525390625,-0.758087158203125,36432.14118379167,-2.739751870674929,-0.9422090967714304,-0.4409059002177497,0.8101574182510376,-0.05695916712284088,-0.003696612548083067,0.03349095582962036,0.1159656047821045,-0.1571652889251709,XArbitraryZVertical,-0.4728637441585883,0.1025440233911873,-0.8322035783286361,0.2707797982681679,-0.7315040826797485,0.4267589151859283,-0.5317692160606384,0,0,0,-1,-1,36426.358702625,unknown,2,2025-04-22T15:53:03.194+03:00,2025-04-21T17:08:51.449+03:00,8293,1.047924,0,0,6896.382,7,22,2025-04-22T15:52:55.455+03:00,767019188.4532119,0,-14.34,100.375,1,0.5,2025-04-22T15:50:57.745+03:00,80,1.333333333333333,2025-04-22T14:20:19.516+03:00,0.02197104130929222,0
2025-04-22T15:53:09.001+03:00,1745326387.629975,40.9522137686932,29.14028088868508,76.16171,-1,-1,-1,-1,30,19.36516156965402,-9999,36432.16133579167,-0.688873291015625,0.49847412109375,-0.7129669189453125,36432.15125979167,-2.733160221441739,-0.9409116501552923,-0.4363861106404976,0.6574138998985291,-0.2002524137496948,-0.01654423400759697,0.0348857045173645,0.1129164099693298,-0.2109482884407043,XArbitraryZVertical,-0.4724792597421,0.09919192950225211,-0.8322453940896795,0.2725653667562615,-0.73236483335495,0.4226670265197754,-0.5338486433029175,0,0,0,-1,-1,36426.358702625,unknown,2,2025-04-22T15:53:03.194+03:00,2025-04-21T17:08:51.449+03:00,8293,1.047924,0,0,6896.382,7,22,2025-04-22T15:52:55.455+03:00,767019188.4532119,0,-14.34,100.375,1,0.5,2025-04-22T15:50:57.745+03:00,80,1.333333333333333,2025-04-22T14:20:19.516+03:00,0.02197104130929222,0
2025-04-22T15:53:09.011+03:00,1745326387.629975,40.9522137686932,29.14028088868508,76.16171,-1,-1,-1,-1,30,19.36516156965402,-9999,36432.17141179167,-0.754058837890625,0.4755401611328125,-0.646087646484375,36432.16133579167,-2.728810025568901,-0.9424769907527232,-0.4327349933052645,0.4139256775379181,-0.4864729046821594,-0.1120253205299377,0.06458240747451782,0.1162128746509552,-0.2224069833755493,XArbitraryZVertical,-0.4731940330126181,0.09635798760246297,-0.8317894119859943,0.2737314184728551,-0.7344431281089783,0.4193552434444427,-0.5336050987243652,0,0,0,-1,-1,36426.358702625,unknown,2,2025-04-22T15:53:03.194+03:00,2025-04-21T17:08:51.449+03:00,8293,1.047924,0,0,6896.382,7,22,2025-04-22T15:52:55.455+03:00,767019188.4532119,0,-14.34,100.375,1,0.5,2025-04-22T15:50:57.745+03:00,80,1.333333333333333,2025-04-22T14:20:19.516+03:00,0.02197104130929222,0
2025-04-22T15:53:09.021+03:00,1745326387.629975,40.9522137686932,29.14028088868508,76.16171,-1,-1,-1,-1,30,19.36516156965402,-9999,36432.18148879167,-0.8431243896484375,0.505126953125,-0.6342926025390625,36432.17141179167,-2.727249282291555,-0.9479938503324744,-0.429127086708838,0.2478125989437103,-0.7216275930404663,-0.3221988081932068,0.04342484474182129,0.07708680629730225,-0.1732807159423828,XArbitraryZVertical,-0.4754108983175126,0.09366083999762062,-0.8307681374871339,0.2739275783789621,-0.7385998964309692,0.416077196598053,-0.5304242372512817,0,0,0,-1,-1,36426.358702625,unknown,2,2025-04-22T15:53:03.194+03:00,2025-04-21T17:08:51.449+03:00,8293,1.047924,0,0,6896.382,7,22,2025-04-22T15:52:55.455+03:00,767019188.4532119,0,-14.34,100.375,1,0.5,2025-04-22T15:50:57.745+03:00,80,1.333333333333333,2025-04-22T14:20:19.516+03:00,0.02197104130929222,0
2025-04-22T15:53:09.032+03:00,1745326387.629975,40.9522137686932,29.14028088868508,76.16171,-1,-1,-1,-1,30,19.36516156965402,-9999,36432.19156479167,-0.9049072265625,0.5683746337890625,-0.6581268310546875,36432.18148879167,-2.728008297903167,-0.9561116219011202,-0.4247202281013246,0.1385117471218109,-0.81332927942276,-0.4583680629730225,-0.01910126209259033,0.06490850448608398,-0.1149023175239563,XArbitraryZVertical,-0.478561405399658,0.09081456811692744,-0.8295447315850406,0.2731064253818997,-0.7443721294403076,0.4120658934116364,-0.5254634022712708,0,0,0,-1,-1,36426.358702625,unknown,2,2025-04-22T15:53:03.194+03:00,2025-04-21T17:08:51.449+03:00,8293,1.047924,0,0,6896.382,7,22,2025-04-22T15:52:55.455+03:00,767019188.4532119,0,-14.34,100.375,1,0.5,2025-04-22T15:50:57.745+03:00,80,1.333333333333333,2025-04-22T14:20:19.516+03:00,0.02197104130929222,0
2025-04-22T15:53:09.042+03:00,1745326387.629975,40.9522137686932,29.14028088868508,76.16171,-1,-1,-1,-1,30,19.36516156965402,-9999,36432.20164079167,-0.889007568359375,0.5740203857421875,-0.6183624267578125,36432.19156479167,-2.730688280100237,-0.9655487068555152,-0.4201193300091958,-0.02595389448106289,-0.8458704352378845,-0.5698245167732239,-0.1045281887054443,0.1040323376655579,-0.1180084347724915,XArbitraryZVertical,-0.4821626659731156,0.08817530782871116,-0.8282743141233502,0.2714879669400699,-0.7508488297462463,0.4078693985939026,-0.5194885730743408,0,0,0,-1,-1,36426.358702625,unknown,2,2025-04-22T15:53:03.194+03:00,2025-04-21T17:08:51.449+03:00,8293,1.047924,0,0,6896.382,7,22,2025-04-22T15:52:55.455+03:00,767019188.4532119,0,-14.34,100.375,1,0.5,2025-04-22T15:50:57.745+03:00,80,1.333333333333333,2025-04-22T14:20:19.516+03:00,0.02197104130929222,0
2025-04-22T15:53:09.052+03:00,1745326387.629975,40.9522137686932,29.14028088868508,76.16171,-1,-1,-1,-1,30,19.36516156965402,-9999,36432.21171779167,-0.845947265625,0.508453369140625,-0.5327606201171875,36432.20164079167,-2.735545053071201,-0.9762365600152193,-0.4157547403026663,-0.2176258563995361,-0.8844332695007324,-0.637740433216095,-0.1486073136329651,0.1712994575500488,-0.1453496217727661,XArbitraryZVertical,-0.4861977062728656,0.08601497444426523,-0.8269374812887094,0.2690494778544884,-0.7578256726264954,0.4038804769515991,-0.5124264359474182,0,0,0,-1,-1,36426.358702625,unknown,2,2025-04-22T15:53:03.194+03:00,2025-04-21T17:08:51.449+03:00,8293,1.047924,0,0,6896.382,7,22,2025-04-22T15:52:55.455+03:00,767019188.4532119,0,-14.34,100.375,1,0.5,2025-04-22T15:50:57.745+03:00,80,1.333333333333333,2025-04-22T14:20:19.516+03:00,0.02197104130929222,0
2025-04-22T15:53:09.062+03:00,1745326387.629975,40.9522137686932,29.14028088868508,76.16171,-1,-1,-1,-1,30,19.36516156965402,-9999,36432.22179379167,-0.8136138916015625,0.455474853515625,-0.4539337158203125,36432.21171779167,-2.742329186365808,-0.9879900477847173,-0.4117676484074108,-0.3543496131896973,-0.9042757153511047,-0.7032813429832458,-0.1188071966171265,0.1675190925598145,-0.1044899821281433,XArbitraryZVertical,-0.4906094173226948,0.08437538395944892,-0.8255123361308092,0.2659182658314556,-0.765134334564209,0.4002298414707184,-0.504366397857666,0,0,0,-1,-1,36426.358702625,unknown,2,2025-04-22T15:53:03.194+03:00,2025-04-21T17:08:51.449+03:00,8293,1.047924,0,0,6896.382,7,22,2025-04-22T15:52:55.455+03:00,767019188.4532119,0,-14.34,100.375,1,0.5,2025-04-22T15:50:57.745+03:00,80,1.333333333333333,2025-04-22T14:20:19.516+03:00,0.02197104130929222,0
2025-04-22T15:53:09.072+03:00,1745326387.629975,40.9522137686932,29.14028088868508,76.16171,-1,-1,-1,-1,30,19.36516156965402,-9999,36432.23186979167,-0.7987213134765625,0.4081573486328125,-0.3995208740234375,36432.22179379167,-2.750131411965075,-0.9999845290612118,-0.4078914235742706,-0.4030992388725281,-0.8584455847740173,-0.709574818611145,-0.06807136535644531,0.1042103171348572,-0.02624475955963135,XArbitraryZVertical,-0.4950862610614397,0.08304142581950569,-0.8241046494186141,0.2623835421754646,-0.7724283933639526,0.396674633026123,-0.4959874451160431,0,0,0,-1,-1,36426.358702625,unknown,2,2025-04-22T15:53:03.194+03:00,2025-04-21T17:08:51.449+03:00,8293,1.047924,0,0,6896.382,7,22,2025-04-22T15:52:55.455+03:00,767019188.4532119,0,-14.34,100.375,1,0.5,2025-04-22T15:50:57.745+03:00,80,1.333333333333333,2025-04-22T14:20:19.516+03:00,0.02197104130929222,0
2025-04-22T15:53:09.082+03:00,1745326387.629975,40.9522137686932,29.14028088868508,76.16171,-1,-1,-1,-1,30,19.36516156965402,-9999,36432.24194679167,-0.787109375,0.339874267578125,-0.3397216796875,36432.23186979167,-2.758024024807193,-1.011369840429335,-0.4041281236006321,-0.411877304315567,-0.7802850008010864,-0.6945817470550537,-0.03135335445404053,0.05600136518478394,0.04124870896339417,XArbitraryZVertical,-0.4993169290001244,0.0819002220085303,-0.822799819795939,0.2587958430741608,-0.7792848944664001,0.3932172656059265,-0.4879499077796936,0,0,0,-1,-1,36426.358702625,unknown,2,2025-04-22T15:53:03.194+03:00,2025-04-21T17:08:51.449+03:00,8293,1.047924,0,0,6896.382,7,22,2025-04-22T15:52:55.455+03:00,767019188.4532119,0,-14.34,100.375,1,0.5,2025-04-22T15:50:57.745+03:00,80,1.333333333333333,2025-04-22T14:20:19.516+03:00,0.02197104130929222,0
2025-04-22T15:53:09.092+03:00,1745326387.629975,40.9522137686932,29.14028088868508,76.16171,-1,-1,-1,-1,30,19.36516156965402,-9999,36432.25202279167,-0.7753143310546875,0.24700927734375,-0.2724761962890625,36432.24194679167,-2.765507628694042,-1.022012037823277,-0.4003455051402839,-0.3609082400798798,-0.7457955479621887,-0.6574718356132507,-0.01143735647201538,0.01236298680305481,0.08744186162948608,XArbitraryZVertical,-0.5032625580028284,0.08078362693309613,-0.8215886811162147,0.2553286741333044,-0.7856968641281128,0.3897365629673004,-0.4804016053676605,0,0,0,-1,-1,36426.358702625,unknown,2,2025-04-22T15:53:03.194+03:00,2025-04-21T17:08:51.449+03:00,8293,1.047924,0,0,6896.382,7,22,2025-04-22T15:52:55.455+03:00,767019188.4532119,0,-14.34,100.375,1,0.5,2025-04-22T15:50:57.745+03:00,80,1.333333333333333,2025-04-22T14:20:19.516+03:00,0.02197104130929222,0
2025-04-22T15:53:09.102+03:00,1745326387.629975,40.9522137686932,29.14028088868508,76.16171,-1,-1,-1,-1,30,19.36516156965402,-9999,36432.26209879167,-0.76544189453125,0.199462890625,-0.23443603515625,36432.25202279167,-2.772223014237692,-1.031712897019488,-0.3967710301530236,-0.3067605793476105,-0.6469789743423462,-0.5825808644294739,0.005500078201293945,-0.05818003416061401,0.1425670683383942,XArbitraryZVertical,-0.5068634504903163,0.07971690538016654,-0.8204532139544363,0.252172706985729,-0.7915106415748596,0.386442244052887,-0.4734693169593811,0,0,0,-1,-1,36426.358702625,unknown,2,2025-04-22T15:53:03.194+03:00,2025-04-21T17:08:51.449+03:00,8293,1.047924,0,0,6896.382,7,22,2025-04-22T15:52:55.455+03:00,767019188.4532119,0,-14.34,100.375,1,0.5,2025-04-22T15:50:57.745+03:00,80,1.333333333333333,2025-04-22T14:20:19.516+03:00,0.02197104130929222,0
2025-04-22T15:53:09.112+03:00,1745326387.629975,40.9522137686932,29.14028088868508,76.16171,-1,-1,-1,-1,30,19.36516156965402,-9999,36432.27217479167,-0.768707275390625,0.132080078125,-0.20867919921875,36432.26209879167,-2.777128220661909,-1.039705932872123,-0.3931692584044599,-0.09516705572605133,-0.5663101077079773,-0.4859185814857483,0.02411073446273804,-0.1443788409233093,0.2014110088348389,XArbitraryZVertical,-0.5098386450987056,0.07842035846976171,-0.8194983375869425,0.2496741590055742,-0.796464741230011,0.3831177651882172,-0.4678296148777008,0,0,0,-1,-1,36426.358702625,unknown,2,2025-04-22T15:53:03.194+03:00,2025-04-21T17:08:51.449+03:00,8293,1.047924,0,0,6896.382,7,22,2025-04-22T15:52:55.455+03:00,767019188.4532119,0,-14.34,100.375,1,0.5,2025-04-22T15:50:57.745+03:00,80,1.333333333333333,2025-04-22T14:20:19.516+03:00,0.02197104130929222,0
2025-04-22T15:53:09.122+03:00,1745326387.629975,40.9522137686932,29.14028088868508,76.16171,-1,-1,-1,-1,30,19.36516156965402,-9999,36432.28225179167,-0.7624969482421875,0.0841827392578125,-0.197784423828125,36432.27217479167,-2.779420053688878,-1.045939999164521,-0.3893240197552224,0.1097155138850212,-0.4906686842441559,-0.3865970373153687,0.03487253189086914,-0.186203807592392,0.2329533100128174,XArbitraryZVertical,-0.5121906143847862,0.07658807899070992,-0.8186790856348747,0.2481117224323597,-0.8006346821784973,0.3795630931854248,-0.4635900855064392,0,0,0,-1,-1,36426.358702625,unknown,2,2025-04-22T15:53:03.194+03:00,2025-04-21T17:08:51.449+03:00,8293,1.047924,0,0,6896.382,7,22,2025-04-22T15:52:55.455+03:00,767019188.4532119,0,-14.34,100.375,1,0.5,2025-04-22T15:50:57.745+03:00,80,1.333333333333333,2025-04-22T14:20:19.516+03:00,0.02197104130929222,0
2025-04-22T15:53:09.132+03:00,1745326387.629975,40.9522137686932,29.14028088868508,76.16171,-1,-1,-1,-1,30,19.36516156965402,-9999,36432.29232779167,-0.75433349609375,0.0712127685546875,-0.205352783203125,36432.28225179167,-2.779587480172551,-1.050329874053469,-0.3856836456919376,0.2109316140413284,-0.3623301386833191,-0.2539005279541016,0.03545361757278442,-0.2534815669059753,0.2548833191394806,XArbitraryZVertical,-0.5138745971936993,0.07453451910948131,-0.8180331382950496,0.2473845164975306,-0.8038555383682251,0.3761926591396332,-0.4607550203800201,0,0,0,-1,-1,36426.358702625,unknown,2,2025-04-22T15:53:03.194+03:00,2025-04-21T17:08:51.449+03:00,8293,1.047924,0,0,6896.382,7,22,2025-04-22T15:52:55.455+03:00,767019188.4532119,0,-14.34,100.375,1,0.5,2025-04-22T15:50:57.745+03:00,80,1.333333333333333,2025-04-22T14:20:19.516+03:00,0.02197104130929222,0
2025-04-22T15:53:09.142+03:00,1745326387.629975,40.9522137686932,29.14028088868508,76.16171,-1,-1,-1,-1,30,19.36516156965402,-9999,36432.30240379167,-0.7516632080078125,0.0584259033203125,-0.17901611328125,36432.29232779167,-2.778389280788789,-1.052840205040519,-0.3829651959906943,0.2297135591506958,-0.220697894692421,-0.1060021445155144,0.04489380121231079,-0.2922822237014771,0.2607385218143463,XArbitraryZVertical,-0.5148652773997354,0.07275730673373396,-0.8175809013147849,0.2473487237748855,-0.805895209312439,0.3736725151538849,-0.4592402279376984,0,0,0,-1,-1,36426.358702625,unknown,2,2025-04-22T15:53:03.194+03:00,2025-04-21T17:08:51.449+03:00,8293,1.047924,0,0,6896.382,7,22,2025-04-22T15:52:55.455+03:00,767019188.4532119,0,-14.34,100.375,1,0.5,2025-04-22T15:50:57.745+03:00,80,1.333333333333333,2025-04-22T14:20:19.516+03:00,0.02197104130929222,0
2025-04-22T15:53:09.152+03:00,1745326387.629975,40.9522137686932,29.14028088868508,76.16171,-1,-1,-1,-1,30,19.36516156965402,-9999,36432.31248079167,-0.7427825927734375,0.0868072509765625,-0.125885009765625,36432.30240379167,-2.777148939598405,-1.053791755379394,-0.3819295697452972,0.06236012279987335,-0.06604347378015518,0.04386145249009132,0.0529753565788269,-0.3035131990909576,0.2548829615116119,XArbitraryZVertical,-0.515268193498934,0.07187893996753626,-0.8173122515757212,0.2476541611351774,-0.8066678047180176,0.3727116882801056,-0.458664208650589,0,0,0,-1,-1,36426.358702625,unknown,2,2025-04-22T15:53:03.194+03:00,2025-04-21T17:08:51.449+03:00,8293,1.047924,0,0,6896.382,7,22,2025-04-22T15:52:55.455+03:00,767019188.4532119,0,-14.34,100.375,1,0.5,2025-04-22T15:50:57.745+03:00,80,1.333333333333333,2025-04-22T14:20:19.516+03:00,0.02197104130929222,0
2025-04-22T15:53:09.162+03:00,1745326387.629975,40.9522137686932,29.14028088868508,76.16171,-1,-1,-1,-1,30,19.36516156965402,-9999,36432.32255679167,-0.733978271484375,0.127166748046875,-0.066558837890625,36432.31248079167,-2.776837491017225,-1.053607059003173,-0.3831598001454813,-0.1413908749818802,0.07767214626073837,0.1935683935880661,0.05545169115066528,-0.3151830732822418,0.2839339077472687,XArbitraryZVertical,-0.5152407590978042,0.07234560232566244,-0.8171668088942445,0.2480550626004934,-0.806183934211731,0.3738529980182648,-0.4585861563682556,0,0,0,-1,-1,36426.358702625,unknown,2,2025-04-22T15:53:03.194+03:00,2025-04-21T17:08:51.449+03:00,8293,1.047924,0,0,6896.382,7,22,2025-04-22T15:52:55.455+03:00,767019188.4532119,0,-14.34,100.375,1,0.5,2025-04-22T15:50:57.745+03:00,80,1.333333333333333,2025-04-22T14:20:19.516+03:00,0.02197104130929222,0
2025-04-22T15:53:09.173+03:00,1745326387.629975,40.9522137686932,29.14028088868508,76.16171,-1,-1,-1,-1,30,19.36516156965402,-9999,36432.33263279167,-0.7149200439453125,0.164093017578125,-0.0890960693359375,36432.32255679167,-2.777920571670792,-1.052241740495949,-0.3869493368716156,-0.40911665558815,0.274186760187149,0.3642259538173676,0.06312531232833862,-0.2853851616382599,0.342663049697876,XArbitraryZVertical,-0.5147551936424126,0.07440827197829031,-0.8171754086489486,0.2484247341765339,-0.8043208718299866,0.3773650527000427,-0.4589810073375702,0,0,0,-1,-1,36426.358702625,unknown,2,2025-04-22T15:53:03.194+03:00,2025-04-21T17:08:51.449+03:00,8293,1.047924,0,0,6896.382,7,22,2025-04-22T15:52:55.455+03:00,767019188.4532119,0,-14.34,100.375,1,0.5,2025-04-22T15:50:57.745+03:00,80,1.333333333333333,2025-04-22T14:20:19.516+03:00,0.02197104130929222,0
2025-04-22T15:53:09.183+03:00,1745326387.629975,40.9522137686932,29.14028088868508,76.16171,-1,-1,-1,-1,30,19.36516156965402,-9999,36432.34270879167,-0.664794921875,0.186614990234375,-0.1714019775390625,36432.33263279167,-2.780380681588466,-1.049351936230215,-0.3937071685340452,-0.6421791911125183,0.4842970967292786,0.576793909072876,0.06786680221557617,-0.2526332139968872,0.3954929709434509,XArbitraryZVertical,-0.5136739926875293,0.07828000525575554,-0.8173669393032295,0.2488422769916414,-0.8007615208625793,0.3836145997047424,-0.4600225389003754,0,0,0,-1,-1,36426.358702625,unknown,2,2025-04-22T15:53:03.194+03:00,2025-04-21T17:08:51.449+03:00,8293,1.047924,0,0,6896.382,7,22,2025-04-22T15:52:55.455+03:00,767019188.4532119,0,-14.34,100.375,1,0.5,2025-04-22T15:50:57.745+03:00,80,1.333333333333333,2025-04-22T14:20:19.516+03:00,0.02197104130929222,0
2025-04-22T15:53:09.193+03:00,1745326387.629975,40.9522137686932,29.14028088868508,76.16171,-1,-1,-1,-1,30,19.36516156965402,-9999,36432.35278579167,-0.6255035400390625,0.238983154296875,-0.2974853515625,36432.34270879167,-2.783178701378337,-1.044500023680617,-0.4032364191266866,-0.7188450694084167,0.6822747588157654,0.7970700263977051,0.08563691377639771,-0.2242454588413239,0.3644496202468872,XArbitraryZVertical,-0.5118373667567853,0.08366605881208031,-0.8177382854814135,0.2496528923906938,-0.7953230738639832,0.3923972249031067,-0.4620450139045715,0,0,0,-1,-1,36426.358702625,unknown,2,2025-04-22T15:53:03.194+03:00,2025-04-21T17:08:51.449+03:00,8293,1.047924,0,0,6896.382,7,22,2025-04-22T15:52:55.455+03:00,767019188.4532119,0,-14.34,100.375,1,0.5,2025-04-22T15:50:57.745+03:00,80,1.333333333333333,2025-04-22T14:20:19.516+03:00,0.02197104130929222,0
2025-04-22T15:53:09.203+03:00,1745326387.629975,40.9522137686932,29.14028088868508,76.16171,-1,-1,-1,-1,30,19.36516156965402,-9999,36432.36286179167,-0.659210205078125,0.33819580078125,-0.40625,36432.35278579167,-2.784826539964938,-1.037128963078361,-0.4145212324307556,-0.6670519113540649,0.9180992841720581,0.9931641817092896,0.1297537088394165,-0.2132071554660797,0.2807978391647339,XArbitraryZVertical,-0.5090429403357563,0.08982793777839904,-0.8183592494182507,0.2511857924341702,-0.7880330085754395,0.4027517437934875,-0.4656124413013458,0,0,0,-1,-1,36426.358702625,unknown,2,2025-04-22T15:53:03.194+03:00,2025-04-21T17:08:51.449+03:00,8293,1.047924,0,0,6896.382,7,22,2025-04-22T15:52:55.455+03:00,767019188.4532119,0,-14.34,100.375,1,0.5,2025-04-22T15:50:57.745+03:00,80,1.333333333333333,2025-04-22T14:20:19.516+03:00,0.02197104130929222,0
2025-04-22T15:53:09.213+03:00,1745326387.629975,40.9522137686932,29.14028088868508,76.16171,-1,-1,-1,-1,30,19.36516156965402,-9999,36432.37293779167,-0.72119140625,0.3913726806640625,-0.4243621826171875,36432.36286179167,-2.784190885534849,-1.026395718487443,-0.4273676896135786,-0.5178303122520447,1.155531167984009,1.250606298446655,0.1529962420463562,-0.1645072996616364,0.1568869352340698,XArbitraryZVertical,-0.5049971062612125,0.09651651874921147,-0.8193009205525176,0.2537881231901288,-0.7784997224807739,0.4144766926765442,-0.4713249802589417,0,0,0,-1,-1,36426.358702625,unknown,2,2025-04-22T15:53:03.194+03:00,2025-04-21T17:08:51.449+03:00,8293,1.047924,0,0,6896.382,7,22,2025-04-22T15:52:55.455+03:00,767019188.4532119,0,-14.34,100.375,1,0.5,2025-04-22T15:50:57.745+03:00,80,1.333333333333333,2025-04-22T14:20:19.516+03:00,0.02197104130929222,0
2025-04-22T15:53:09.223+03:00,1745326387.629975,40.9522137686932,29.14028088868508,76.16171,-1,-1,-1,-1,30,19.36516156965402,-9999,36432.38301479167,-0.75531005859375,0.3800506591796875,-0.402313232421875,36432.37293779167,-2.780405530224273,-1.012367703064287,-0.4408775943082878,-0.3271862864494324,1.303098320960999,1.375753283500671,0.09888643026351929,-0.07814633846282959,0.06602579355239868,XArbitraryZVertical,-0.4997656710055283,0.1031512365501507,-0.8205162023219156,0.2575795007838219,-0.7669923901557922,0.4267333149909973,-0.4791882038116455,0,0,0,-1,-1,36426.358702625,unknown,2,2025-04-22T15:53:03.194+03:00,2025-04-21T17:08:51.449+03:00,8293,1.047924,0,0,6896.382,7,22,2025-04-22T15:52:55.455+03:00,767019188.4532119,0,-14.34,100.375,1,0.5,2025-04-22T15:50:57.745+03:00,80,1.333333333333333,2025-04-22T14:20:19.516+03:00,0.02197104130929222,0
2025-04-22T15:53:09.233+03:00,1745326387.629975,40.9522137686932,29.14028088868508,76.16171,-1,-1,-1,-1,30,19.36516156965402,-9999,36432.39309079167,-0.75048828125,0.3867034912109375,-0.386932373046875,36432.38301479167,-2.774566976059469,-0.996585177453348,-0.4542719844152472,-0.2275379449129105,1.301420092582703,1.428261160850525,0.02819478511810303,-0.04659643769264221,0.06471392512321472,XArbitraryZVertical,-0.4939285778780906,0.1095096034716748,-0.8218281583194651,0.2619934434751283,-0.754467248916626,0.438808262348175,-0.4880844056606293,0,0,0,-1,-1,36426.358702625,unknown,2,2025-04-22T15:53:03.194+03:00,2025-04-21T17:08:51.449+03:00,8293,1.047924,0,0,6896.382,7,22,2025-04-22T15:52:55.455+03:00,767019188.4532119,0,-14.34,100.375,1,0.5,2025-04-22T15:50:57.745+03:00,80,1.333333333333333,2025-04-22T14:20:19.516+03:00,0.02197104130929222,0
2025-04-22T15:53:09.243+03:00,1745326387.629975,40.9522137686932,29.14028088868508,76.16171,-1,-1,-1,-1,30,19.36516156965402,-9999,36432.40316679167,-0.73870849609375,0.40142822265625,-0.457794189453125,36432.39309079167,-2.767089643377237,-0.9799258722174788,-0.4676460507220671,-0.1507613956928253,1.360368847846985,1.526929497718811,-0.01693278551101685,-0.07136136293411255,0.09904700517654419,XArbitraryZVertical,-0.4878431628798074,0.1156440216697173,-0.823037400288029,0.2669173578302648,-0.7412915229797363,0.4507863223552704,-0.4972710311412811,0,0,0,-1,-1,36426.358702625,unknown,2,2025-04-22T15:53:03.194+03:00,2025-04-21T17:08:51.449+03:00,8293,1.047924,0,0,6896.382,7,22,2025-04-22T15:52:55.455+03:00,767019188.4532119,0,-14.34,100.375,1,0.5,2025-04-22T15:50:57.745+03:00,80,1.333333333333333,2025-04-22T14:20:19.516+03:00,0.02197104130929222,0
2025-04-22T15:53:09.253+03:00,1745326387.629975,40.9522137686932,29.14028088868508,76.16171,-1,-1,-1,-1,30,19.36516156965402,-9999,36432.41324279167,-0.7552642822265625,0.3508453369140625,-0.4276580810546875,36432.40316679167,-2.758743092299931,-0.9621434230202307,-0.482287910218934,-0.2808366119861603,1.414214491844177,1.71560525894165,-0.02129954099655151,-0.07447946071624756,0.1144858002662659,XArbitraryZVertical,-0.4814121956774084,0.122350581610779,-0.8241001722694689,0.2722708954080491,-0.7268387675285339,0.4638073444366455,-0.5065452456474304,0,0,0,-1,-1,36426.358702625,unknown,2,2025-04-22T15:53:03.194+03:00,2025-04-21T17:08:51.449+03:00,8293,1.047924,0,0,6896.382,7,22,2025-04-22T15:52:55.455+03:00,767019188.4532119,0,-14.34,100.375,1,0.5,2025-04-22T15:50:57.745+03:00,80,1.333333333333333,2025-04-22T14:20:19.516+03:00,0.02197104130929222,0
2025-04-22T15:53:09.272+03:00,1745326387.629975,40.9522137686932,29.14028088868508,76.16171,-1,-1,-1,-1,30,19.36516156965402,-9999,36432.42331979167,-0.7490234375,0.1181640625,-0.2940521240234375,36432.41324279167,-2.750459396598851,-0.9430600332774228,-0.5002288180406257,-0.7365564107894897,1.613805294036865,2.041088104248047,-0.02996730804443359,-0.07900691032409668,0.05119490623474121,XArbitraryZVertical,-0.4745748512561985,0.1307769708674076,-0.8248519449106441,0.2780204793157877,-0.7101906538009644,0.479626327753067,-0.515352189540863,0,0,0,-1,-1,36426.358702625,unknown,2,2025-04-22T15:53:03.194+03:00,2025-04-21T17:08:51.449+03:00,8293,1.047924,0,0,6896.382,7,22,2025-04-22T15:52:55.455+03:00,767019188.4532119,0,-14.34,100.375,1,0.5,2025-04-22T15:50:57.745+03:00,80,1.333333333333333,2025-04-22T14:20:19.516+03:00,0.02197104130929222,0
2025-04-22T15:53:09.275+03:00,1745326387.629975,40.9522137686932,29.14028088868508,76.16171,-1,-1,-1,-1,30,19.36516156965402,-9999,36432.43339579167,-0.7247314453125,-0.2057037353515625,-0.3573150634765625,36432.42331979167,-2.750669043647065,-0.9309223382048701,-0.5277932642304167,-2.95632791519165,0.4131567478179932,2.157049179077148,-0.06338131427764893,-0.1707730293273926,0.1029849052429199,XArbitraryZVertical,-0.470317360544424,0.1445010006160229,-0.8235130113432901,0.2823957168050012,-0.693011999130249,0.503628134727478,-0.515842080116272,0,0,0,-1,-1,36426.358702625,unknown,2,2025-04-22T15:53:03.194+03:00,2025-04-21T17:08:51.449+03:00,8293,1.047924,0,0,6896.382,7,22,2025-04-22T15:52:55.455+03:00,767019188.4532119,0,-14.34,100.375,1,0.5,2025-04-22T15:50:57.745+03:00,80,1.333333333333333,2025-04-22T14:20:19.516+03:00,0.02197104130929222,0
2025-04-22T15:53:09.284+03:00,1745326387.629975,40.9522137686932,29.14028088868508,76.16171,-1,-1,-1,-1,30,19.36516156965402,-9999,36432.44347179167,-0.7112884521484375,0.3358154296875,-1.291275024414062,36432.43339579167,-2.780604085720098,-0.9463700572861674,-0.5636305664117436,-4.377031326293945,-0.1237040311098099,0.4018502533435822,-0.05995011329650879,-0.4579648375511169,0.2162931561470032,XArbitraryZVertical,-0.4750730163445763,0.1649388315225786,-0.81836717252029,0.2781652997041005,-0.6858078241348267,0.5342587232589722,-0.4942016303539276,0,0,0,-1,-1,36426.358702625,unknown,2,2025-04-22T15:53:03.194+03:00,2025-04-21T17:08:51.449+03:00,8293,1.047924,0,0,6896.382,7,22,2025-04-22T15:52:55.455+03:00,767019188.4532119,0,-14.34,100.375,1,0.5,2025-04-22T15:50:57.745+03:00,80,1.333333333333333,2025-04-22T14:20:19.516+03:00,0.02197104130929222,0
