loggingTime(txt),locationTimestamp_since1970(s),locationLatitude(WGS84),locationLongitude(WGS84),locationAltitude(m),locationSpeed(m/s),locationSpeedAccuracy(m/s),locationCourse(°),locationCourseAccuracy(°),locationVerticalAccuracy(m),locationHorizontalAccuracy(m),locationFloor(Z),accelerometerTimestamp_sinceReboot(s),accelerometerAccelerationX(G),accelerometerAccelerationY(G),accelerometerAccelerationZ(G),motionTimestamp_sinceReboot(s),motionYaw(rad),motionRoll(rad),motionPitch(rad),motionRotationRateX(rad/s),motionRotationRateY(rad/s),motionRotationRateZ(rad/s),motionUserAccelerationX(G),motionUserAccelerationY(G),motionUserAccelerationZ(G),motionAttitudeReferenceFrame(txt),motionQuaternionX(R),motionQuaternionY(R),motionQuaternionZ(R),motionQuaternionW(R),motionGravityX(G),motionGravityY(G),motionGravityZ(G),motionMagneticFieldX(µT),motionMagneticFieldY(µT),motionMagneticFieldZ(µT),motionHeading(°),motionMagneticFieldCalibrationAccuracy(Z),activityTimestamp_sinceReboot(s),activity(txt),activityActivityConfidence(Z),activityActivityStartDate(txt),pedometerStartDate(txt),pedometerNumberofSteps(N),pedometerAverageActivePace(s/m),pedometerCurrentPace(s/m),pedometerCurrentCadence(steps/s),pedometerDistance(m),pedometerFloorAscended(N),pedometerFloorDescended(N),pedometerEndDate(txt),altimeterTimestamp_sinceReboot(s),altimeterReset(bool),altimeterRelativeAltitude(m),altimeterPressure(kPa),batteryState(N),batteryLevel(R),heartRateBPMTimestamp(txt),heartRateBPM(N),heartRateBPS(R),heartRateVariabilityTimestamp(txt),heartRateVariability(ms),label
2025-04-30T12:37:09.326+03:00,1746005823.934455,40.95223000732172,29.1402646129218,76.18292,-1,-1,-1,-1,30,20.89625706053636,-9999,13179.105936625,-0.781158447265625,0.5753936767578125,-0.3495330810546875,13179.095860625,2.520104759246841,-1.106140803151587,-0.6051656773457091,-0.02403086610138416,0.01188408210873604,-0.02866736240684986,0.01896536350250244,-0.08159369230270386,0.02751454710960388,XArbitraryZVertical,-0.3998914278892439,0.3947407339036809,-0.8212192227983268,-0.09932573374861577,-0.7352128624916077,0.5688983201980591,-0.368533194065094,0,0,0,-1,-1,13173.68978425,unknown,2,2025-04-30T12:37:03.890+03:00,2025-04-30T12:00:08.093+03:00,179,1.435125,0,0,144.5252,0,0,2025-04-30T12:37:09.049+03:00,767698629.1509881,0,1.01,100.9538,1,0.75,2025-04-30T12:36:44.961+03:00,102,1.7,2025-04-22T14:20:19.516+03:00,0.02197104130929222,0
2025-04-30T12:37:09.328+03:00,1746005823.934455,40.95223000732172,29.1402646129218,76.18292,-1,-1,-1,-1,30,20.89625706053636,-9999,13179.116013625,-0.7334442138671875,0.5845947265625,-0.363525390625,13179.105936625,2.51989694162897,-1.10609540169617,-0.60504679175869,-0.004300571512430906,0.01919366046786308,-0.009829758666455746,-0.01176786422729492,-0.07594168186187744,0.03525343537330627,XArbitraryZVertical,-0.3998553743453387,0.3947369053411956,-0.8212232523404224,-0.09945306927595905,-0.7352566719055176,0.5688005685806274,-0.3685969114303589,0,0,0,-1,-1,13173.68978425,unknown,2,2025-04-30T12:37:03.890+03:00,2025-04-30T12:00:08.093+03:00,179,1.435125,0,0,144.5252,0,0,2025-04-30T12:37:09.049+03:00,767698629.1509881,0,1.01,100.9538,1,0.75,2025-04-30T12:36:44.961+03:00,102,1.7,2025-04-22T14:20:19.516+03:00,0.02197104130929222,0
2025-04-30T12:37:09.330+03:00,1746005823.934455,40.95223000732172,29.1402646129218,76.18292,-1,-1,-1,-1,30,20.89625706053636,-9999,13179.126089625,-0.7247161865234375,0.55938720703125,-0.3681793212890625,13179.116013625,2.519802063857389,-1.105940343759208,-0.6049828687714718,-0.006181029602885246,0.02118437364697456,-0.007588308304548264,-0.03320068120956421,0.03925377130508423,0.009031772613525391,XArbitraryZVertical,-0.3997856818436603,0.3947249702790849,-0.8212523432833428,-0.09954036812575927,-0.7352319955825806,0.5687479972839355,-0.3687272071838379,0,0,0,-1,-1,13173.68978425,unknown,2,2025-04-30T12:37:03.890+03:00,2025-04-30T12:00:08.093+03:00,179,1.435125,0,0,144.5252,0,0,2025-04-30T12:37:09.049+03:00,767698629.1509881,0,1.01,100.9538,1,0.75,2025-04-30T12:36:44.961+03:00,102,1.7,2025-04-22T14:20:19.516+03:00,0.02197104130929222,0
2025-04-30T12:37:09.340+03:00,1746005823.934455,40.95223000732172,29.1402646129218,76.18292,-1,-1,-1,-1,30,20.89625706053636,-9999,13179.136166625,-0.7330169677734375,0.57965087890625,-0.3663330078125,13179.126089625,2.519674838535735,-1.105790157899577,-0.6049438529179335,-0.006302736233919859,0.02363980747759342,-0.007380848750472069,0.01824694871902466,-0.009603321552276611,0.00190424919128418,XArbitraryZVertical,-0.3997066510475499,0.3947287677485389,-0.8212777523156216,-0.09963308819516745,-0.7351964712142944,0.5687158703804016,-0.3688475787639618,0,0,0,-1,-1,13173.68978425,unknown,2,2025-04-30T12:37:03.890+03:00,2025-04-30T12:00:08.093+03:00,179,1.435125,0,0,144.5252,0,0,2025-04-30T12:37:09.049+03:00,767698629.1509881,0,1.01,100.9538,1,0.75,2025-04-30T12:36:44.961+03:00,102,1.7,2025-04-22T14:20:19.516+03:00,0.02197104130929222,0
2025-04-30T12:37:09.350+03:00,1746005823.934455,40.95223000732172,29.1402646129218,76.18292,-1,-1,-1,-1,30,20.89625706053636,-9999,13179.146243625,-0.73040771484375,0.5684051513671875,-0.36761474609375,13179.136166625,2.519616479656585,-1.105546124805268,-0.604905642582495,0.001605387660674751,0.03036655485630035,-0.005041727796196938,0.00183415412902832,0.00522911548614502,0.002123892307281494,XArbitraryZVertical,-0.3996025263632491,0.3947144036343127,-0.821325260777884,-0.09971578153860342,-0.7351257801055908,0.568684458732605,-0.3690367341041565,0,0,0,-1,-1,13173.68978425,unknown,2,2025-04-30T12:37:03.890+03:00,2025-04-30T12:00:08.093+03:00,179,1.435125,0,0,144.5252,0,0,2025-04-30T12:37:09.049+03:00,767698629.1509881,0,1.01,100.9538,1,0.75,2025-04-30T12:36:44.961+03:00,102,1.7,2025-04-22T14:20:19.516+03:00,0.02197104130929222,0
2025-04-30T12:37:09.360+03:00,1746005823.934455,40.95223000732172,29.1402646129218,76.18292,-1,-1,-1,-1,30,20.89625706053636,-9999,13179.156319625,-0.732177734375,0.564208984375,-0.367584228515625,13179.146243625,2.519584837885919,-1.105219461344793,-0.6048932903639627,-0.00427673663944006,0.03795762732625008,-0.002972185146063566,0.004603743553161621,0.006475269794464111,0.002504527568817139,XArbitraryZVertical,-0.3994645726913819,0.3946999509179605,-0.8213895083201903,-0.09979670109225816,-0.7350115180015564,0.5686743259429932,-0.3692800104618073,0,0,0,-1,-1,13173.68978425,unknown,2,2025-04-30T12:37:03.890+03:00,2025-04-30T12:00:08.093+03:00,179,1.435125,0,0,144.5252,0,0,2025-04-30T12:37:09.049+03:00,767698629.1509881,0,1.01,100.9538,1,0.75,2025-04-30T12:36:44.961+03:00,102,1.7,2025-04-22T14:20:19.516+03:00,0.02197104130929222,0
2025-04-30T12:37:09.371+03:00,1746005823.934455,40.95223000732172,29.1402646129218,76.18292,-1,-1,-1,-1,30,20.89625706053636,-9999,13179.166396625,-0.73223876953125,0.5650787353515625,-0.3698272705078125,13179.156319625,2.519536142499818,-1.104841712607327,-0.6049088148427705,-0.002105660736560822,0.04074762016534805,0.0001906184479594231,0.00297623872756958,-0.004340767860412598,0.001938939094543457,XArbitraryZVertical,-0.3992967242442751,0.3946964516843122,-0.8214618435914883,-0.0998869649617644,-0.7348641157150269,0.5686870813369751,-0.3695536851882935,0,0,0,-1,-1,13173.68978425,unknown,2,2025-04-30T12:37:03.890+03:00,2025-04-30T12:00:08.093+03:00,179,1.435125,0,0,144.5252,0,0,2025-04-30T12:37:09.049+03:00,767698629.1509881,0,1.01,100.9538,1,0.75,2025-04-30T12:36:44.961+03:00,102,1.7,2025-04-22T14:20:19.516+03:00,0.02197104130929222,0
2025-04-30T12:37:09.380+03:00,1746005823.934455,40.95223000732172,29.1402646129218,76.18292,-1,-1,-1,-1,30,20.89625706053636,-9999,13179.176472625,-0.72930908203125,0.56439208984375,-0.37005615234375,13179.166396625,2.519523347434176,-1.104466475093548,-0.604935176423121,-0.004346444271504879,0.03511689975857735,0.00192939629778266,0.002274870872497559,-0.003996193408966064,0.0004989504814147949,XArbitraryZVertical,-0.3991348019225968,0.3946898293754514,-0.8215350168461654,-0.09995905309384119,-0.7347120642662048,0.5687087774276733,-0.3698227107524872,0,0,0,-1,-1,13173.68978425,unknown,2,2025-04-30T12:37:03.890+03:00,2025-04-30T12:00:08.093+03:00,179,1.435125,0,0,144.5252,0,0,2025-04-30T12:37:09.049+03:00,767698629.1509881,0,1.01,100.9538,1,0.75,2025-04-30T12:36:44.961+03:00,102,1.7,2025-04-22T14:20:19.516+03:00,0.02197104130929222,0
2025-04-30T12:37:09.390+03:00,1746005823.934455,40.95223000732172,29.1402646129218,76.18292,-1,-1,-1,-1,30,20.89625706053636,-9999,13179.186549625,-0.726654052734375,0.565948486328125,-0.3715667724609375,13179.176472625,2.519474232784073,-1.104150630056655,-0.6049837084601819,-0.003775396151468158,0.03383065760135651,0.001676961896009743,0.00289618968963623,-0.004478633403778076,-0.0002122819423675537,XArbitraryZVertical,-0.3989857932789828,0.3947014434224373,-0.8215932585514502,-0.1000278895885929,-0.7345703840255737,0.5687486529350281,-0.3700422048568726,0,0,0,-1,-1,13173.68978425,unknown,2,2025-04-30T12:37:03.890+03:00,2025-04-30T12:00:08.093+03:00,179,1.435125,0,0,144.5252,0,0,2025-04-30T12:37:09.049+03:00,767698629.1509881,0,1.01,100.9538,1,0.75,2025-04-30T12:36:44.961+03:00,102,1.7,2025-04-22T14:20:19.516+03:00,0.02197104130929222,0
2025-04-30T12:37:09.401+03:00,1746005823.934455,40.95223000732172,29.1402646129218,76.18292,-1,-1,-1,-1,30,20.89625706053636,-9999,13179.196626625,-0.729827880859375,0.5702667236328125,-0.3704071044921875,13179.186549625,2.519425903885403,-1.103862623114053,-0.6050007186286031,-0.004668619949370623,0.03090464510023594,-0.003221656661480665,0.0080299973487854,-0.003699183464050293,-0.001073151826858521,XArbitraryZVertical,-0.3988545516608077,0.3947028490808617,-0.8216475528369203,-0.1000998890765074,-0.7344551682472229,0.5687626600265503,-0.3702494204044342,0,0,0,-1,-1,13173.68978425,unknown,2,2025-04-30T12:37:03.890+03:00,2025-04-30T12:00:08.093+03:00,179,1.435125,0,0,144.5252,0,0,2025-04-30T12:37:09.049+03:00,767698629.1509881,0,1.01,100.9538,1,0.75,2025-04-30T12:36:44.961+03:00,102,1.7,2025-04-22T14:20:19.516+03:00,0.02197104130929222,0
2025-04-30T12:37:09.411+03:00,1746005823.934455,40.95223000732172,29.1402646129218,76.18292,-1,-1,-1,-1,30,20.89625706053636,-9999,13179.206702625,-0.7299957275390625,0.572265625,-0.3737030029296875,13179.196626625,2.51940585442677,-1.103568562559138,-0.6049559751560283,0.002516854554414749,0.02831205725669861,-0.005693336483091116,0.005868613719940186,-0.000992119312286377,-0.0004032552242279053,XArbitraryZVertical,-0.3987386722230835,0.3946758806031396,-0.8217071702057525,-0.1001785660406533,-0.7343689799308777,0.5687258839607239,-0.3704768419265747,0,0,0,-1,-1,13173.68978425,unknown,2,2025-04-30T12:37:03.890+03:00,2025-04-30T12:00:08.093+03:00,179,1.435125,0,0,144.5252,0,0,2025-04-30T12:37:09.049+03:00,767698629.1509881,0,1.01,100.9538,1,0.75,2025-04-30T12:36:44.961+03:00,102,1.7,2025-04-22T14:20:19.516+03:00,0.02197104130929222,0
2025-04-30T12:37:09.421+03:00,1746005823.934455,40.95223000732172,29.1402646129218,76.18292,-1,-1,-1,-1,30,20.89625706053636,-9999,13179.216779625,-0.7291717529296875,0.5670928955078125,-0.3709564208984375,13179.206702625,2.519409971625651,-1.103268693228806,-0.6048722203496683,0.008136124350130558,0.02791045233607292,-0.008822550997138023,0.004304647445678711,0.004936158657073975,-0.001412838697433472,XArbitraryZVertical,-0.3986329286468326,0.3946296231389744,-0.82177083850112,-0.1002592288279402,-0.7343003749847412,0.5686569809913635,-0.3707185089588165,0,0,0,-1,-1,13173.68978425,unknown,2,2025-04-30T12:37:03.890+03:00,2025-04-30T12:00:08.093+03:00,179,1.435125,0,0,144.5252,0,0,2025-04-30T12:37:09.049+03:00,767698629.1509881,0,1.01,100.9538,1,0.75,2025-04-30T12:36:44.961+03:00,102,1.7,2025-04-22T14:20:19.516+03:00,0.02197104130929222,0
2025-04-30T12:37:09.431+03:00,1746005823.934455,40.95223000732172,29.1402646129218,76.18292,-1,-1,-1,-1,30,20.89625706053636,-9999,13179.226855625,-0.726165771484375,0.5640411376953125,-0.3672637939453125,13179.216779625,2.519470301115714,-1.102970758054078,-0.60477064971274,0.007462610956281424,0.02445606701076031,-0.006402403116226196,0.00455087423324585,0.0004420280456542969,-0.002373427152633667,XArbitraryZVertical,-0.3985425936223275,0.3945657760919745,-0.8218377275895509,-0.1003213491937873,-0.7342414259910583,0.5685734152793884,-0.3709633052349091,0,0,0,-1,-1,13173.68978425,unknown,2,2025-04-30T12:37:03.890+03:00,2025-04-30T12:00:08.093+03:00,179,1.435125,0,0,144.5252,0,0,2025-04-30T12:37:09.049+03:00,767698629.1509881,0,1.01,100.9538,1,0.75,2025-04-30T12:36:44.961+03:00,102,1.7,2025-04-22T14:20:19.516+03:00,0.02197104130929222,0
2025-04-30T12:37:09.441+03:00,1746005823.934455,40.95223000732172,29.1402646129218,76.18292,-1,-1,-1,-1,30,20.89625706053636,-9999,13179.236932625,-0.7197265625,0.5606231689453125,-0.370330810546875,13179.226855625,2.519554837576688,-1.102771561082438,-0.6047105386917541,0.009922838769853115,0.00705150980502367,0.003883790457621217,0.006842076778411865,-0.002728044986724854,0.002854138612747192,XArbitraryZVertical,-0.3984893462608707,0.3945171088119387,-0.821884345559293,-0.1003425843435254,-0.7341980338096619,0.5685239434242249,-0.3711249828338623,0,0,0,-1,-1,13173.68978425,unknown,2,2025-04-30T12:37:03.890+03:00,2025-04-30T12:00:08.093+03:00,179,1.435125,0,0,144.5252,0,0,2025-04-30T12:37:09.049+03:00,767698629.1509881,0,1.01,100.9538,1,0.75,2025-04-30T12:36:44.961+03:00,102,1.7,2025-04-22T14:20:19.516+03:00,0.02197104130929222,0
2025-04-30T12:37:09.451+03:00,1746005823.934455,40.95223000732172,29.1402646129218,76.18292,-1,-1,-1,-1,30,20.89625706053636,-9999,13179.247009625,-0.7235565185546875,0.560272216796875,-0.3712615966796875,13179.236932625,2.519601580978833,-1.102641647883825,-0.6047030194595971,-0.001000914955511689,0.0149632291868329,0.0008324735099449754,0.0110853910446167,-0.005956768989562988,0.00348547101020813,XArbitraryZVertical,-0.3984466805370292,0.3944985456089122,-0.8219128869131099,-0.100351059315806,-0.7341536283493042,0.568517804145813,-0.3712222874164581,0,0,0,-1,-1,13173.68978425,unknown,2,2025-04-30T12:37:03.890+03:00,2025-04-30T12:00:08.093+03:00,179,1.435125,0,0,144.5252,0,0,2025-04-30T12:37:09.049+03:00,767698629.1509881,0,1.01,100.9538,1,0.75,2025-04-30T12:36:44.961+03:00,102,1.7,2025-04-22T14:20:19.516+03:00,0.02197104130929222,0
2025-04-30T12:37:09.461+03:00,1746005823.934455,40.95223000732172,29.1402646129218,76.18292,-1,-1,-1,-1,30,20.89625706053636,-9999,13179.257085625,-0.7303009033203125,0.565765380859375,-0.370025634765625,13179.247009625,2.5195896185436,-1.102483459839177,-0.6046952994844932,-0.002504269359633327,0.01820509508252144,-4.796753637492657e-05,0.01537936925888062,-0.008391797542572021,-0.0002110898494720459,XArbitraryZVertical,-0.398380846657984,0.3944901855232261,-0.8219441361944514,-0.1003893098503031,-0.7340987920761108,0.568511426448822,-0.3713403940200806,0,0,0,-1,-1,13173.68978425,unknown,2,2025-04-30T12:37:03.890+03:00,2025-04-30T12:00:08.093+03:00,179,1.435125,0,0,144.5252,0,0,2025-04-30T12:37:09.049+03:00,767698629.1509881,0,1.01,100.9538,1,0.75,2025-04-30T12:36:44.961+03:00,102,1.7,2025-04-22T14:20:19.516+03:00,0.02197104130929222,0
2025-04-30T12:37:09.471+03:00,1746005823.934455,40.95223000732172,29.1402646129218,76.18292,-1,-1,-1,-1,30,20.89625706053636,-9999,13179.267162625,-0.733428955078125,0.5727081298828125,-0.3696136474609375,13179.257085625,2.519645133887658,-1.10222147211073,-0.6046449545470202,0.01244858093559742,0.02891473099589348,-0.001307909144088626,0.00607597827911377,-0.0078163743019104,0.001336902379989624,XArbitraryZVertical,-0.3982941248252151,0.394447686390597,-0.8220013291814894,-0.1004320993430037,-0.7340270280838013,0.5684700012207031,-0.3715456128120422,0,0,0,-1,-1,13173.68978425,unknown,2,2025-04-30T12:37:03.890+03:00,2025-04-30T12:00:08.093+03:00,179,1.435125,0,0,144.5252,0,0,2025-04-30T12:37:09.049+03:00,767698629.1509881,0,1.01,100.9538,1,0.75,2025-04-30T12:36:44.961+03:00,102,1.7,2025-04-22T14:20:19.516+03:00,0.02197104130929222,0
2025-04-30T12:37:09.481+03:00,1746005823.934455,40.95223000732172,29.1402646129218,76.18292,-1,-1,-1,-1,30,20.89625706053636,-9999,13179.277238625,-0.735504150390625,0.5724334716796875,-0.37152099609375,13179.267162625,2.519701509020158,-1.101887943885892,-0.6045864933985136,5.103368312120438e-05,0.02995336428284645,-0.005281345453113317,0.002563774585723877,0.003096103668212891,0.002207100391387939,XArbitraryZVertical,-0.3981797215994743,0.3943984734881201,-0.8220732786740079,-0.1004910226109913,-0.7339328527450562,0.5684219002723694,-0.3718055188655853,0,0,0,-1,-1,13173.68978425,unknown,2,2025-04-30T12:37:03.890+03:00,2025-04-30T12:00:08.093+03:00,179,1.435125,0,0,144.5252,0,0,2025-04-30T12:37:09.049+03:00,767698629.1509881,0,1.01,100.9538,1,0.75,2025-04-30T12:36:44.961+03:00,102,1.7,2025-04-22T14:20:19.516+03:00,0.02197104130929222,0
2025-04-30T12:37:09.491+03:00,1746005823.934455,40.95223000732172,29.1402646129218,76.18292,-1,-1,-1,-1,30,20.89625706053636,-9999,13179.287315625,-0.7301483154296875,0.5728607177734375,-0.3740081787109375,13179.277238625,2.519699071325264,-1.101662376638083,-0.6045658558662379,0.002030361443758011,0.01558620855212212,0.002398578682914376,-0.001629531383514404,0.003387689590454102,0.002530574798583984,XArbitraryZVertical,-0.3980906179164516,0.3943801234628518,-0.8221189810455255,-0.1005422241571288,-0.7338594198226929,0.5684049129486084,-0.3719763457775116,0,0,0,-1,-1,13173.68978425,unknown,2,2025-04-30T12:37:03.890+03:00,2025-04-30T12:00:08.093+03:00,179,1.435125,0,0,144.5252,0,0,2025-04-30T12:37:09.049+03:00,767698629.1509881,0,1.01,100.9538,1,0.75,2025-04-30T12:36:44.961+03:00,102,1.7,2025-04-22T14:20:19.516+03:00,0.02197104130929222,0
2025-04-30T12:37:09.502+03:00,1746005823.934455,40.95223000732172,29.1402646129218,76.18292,-1,-1,-1,-1,30,20.89625706053636,-9999,13179.297392625,-0.7279205322265625,0.567535400390625,-0.3719940185546875,13179.287315625,2.519735190853914,-1.101535082536054,-0.6046348655196043,0.0001264677266590297,0.01131529733538628,0.00534909451380372,0.0004243850708007812,0.00526881217956543,-0.001864612102508545,XArbitraryZVertical,-0.3980317077807107,0.3943916133210386,-0.8221430736798302,-0.1005333876412674,-0.7337770462036133,0.5684617161750793,-0.3720520436763763,0,0,0,-1,-1,13173.68978425,unknown,2,2025-04-30T12:37:03.890+03:00,2025-04-30T12:00:08.093+03:00,179,1.435125,0,0,144.5252,0,0,2025-04-30T12:37:09.049+03:00,767698629.1509881,0,1.01,100.9538,1,0.75,2025-04-30T12:36:44.961+03:00,102,1.7,2025-04-22T14:20:19.516+03:00,0.02197104130929222,0
2025-04-30T12:37:09.512+03:00,1746005823.934455,40.95223000732172,29.1402646129218,76.18292,-1,-1,-1,-1,30,20.89625706053636,-9999,13179.307468625,-0.73583984375,0.5595703125,-0.37530517578125,13179.297392625,2.519743448428645,-1.101357908271876,-0.6046906961053887,-0.004162420053035021,0.02163225039839745,0.002716759918257594,0.006357312202453613,0.002522051334381104,-0.0002536177635192871,XArbitraryZVertical,-0.3979494370862383,0.3944013499427582,-0.8221762133786858,-0.1005494209594814,-0.7336827516555786,0.5685076713562012,-0.3721676468849182,0,0,0,-1,-1,13173.68978425,unknown,2,2025-04-30T12:37:03.890+03:00,2025-04-30T12:00:08.093+03:00,179,1.435125,0,0,144.5252,0,0,2025-04-30T12:37:09.049+03:00,767698629.1509881,0,1.01,100.9538,1,0.75,2025-04-30T12:36:44.961+03:00,102,1.7,2025-04-22T14:20:19.516+03:00,0.02197104130929222,0
2025-04-30T12:37:09.522+03:00,1746005823.934455,40.95223000732172,29.1402646129218,76.18292,-1,-1,-1,-1,30,20.89625706053636,-9999,13179.317545625,-0.7324371337890625,0.5658111572265625,-0.3771209716796875,13179.307468625,2.519729443841603,-1.101145593314575,-0.6047186624560951,0.000451772881206125,0.02312255650758743,0.001371863530948758,0.001305043697357178,-0.005664348602294922,-0.001615643501281738,XArbitraryZVertical,-0.3978538279638376,0.3944036252588295,-0.8222165346696079,-0.1005893438547087,-0.7335895895957947,0.5685306787490845,-0.3723162114620209,0,0,0,-1,-1,13173.68978425,unknown,2,2025-04-30T12:37:03.890+03:00,2025-04-30T12:00:08.093+03:00,179,1.435125,0,0,144.5252,0,0,2025-04-30T12:37:09.049+03:00,767698629.1509881,0,1.01,100.9538,1,0.75,2025-04-30T12:36:44.961+03:00,102,1.7,2025-04-22T14:20:19.516+03:00,0.02197104130929222,0
2025-04-30T12:37:09.532+03:00,1746005823.934455,40.95223000732172,29.1402646129218,76.18292,-1,-1,-1,-1,30,20.89625706053636,-9999,13179.327622625,-0.7326812744140625,0.5704345703125,-0.376922607421875,13179.317545625,2.519785272740291,-1.100874461688272,-0.6047081154522649,0.01127772219479084,0.02289824932813644,-0.001428750110790133,-0.0006674528121948242,-0.008188724517822266,-0.004084348678588867,XArbitraryZVertical,-0.3977554572038154,0.3943750493365723,-0.82227375584955,-0.1006227925119538,-0.733493983745575,0.5685219764709473,-0.3725178241729736,0,0,0,-1,-1,13173.68978425,unknown,2,2025-04-30T12:37:03.890+03:00,2025-04-30T12:00:08.093+03:00,179,1.435125,0,0,144.5252,0,0,2025-04-30T12:37:09.049+03:00,767698629.1509881,0,1.01,100.9538,1,0.75,2025-04-30T12:36:44.961+03:00,102,1.7,2025-04-22T14:20:19.516+03:00,0.02197104130929222,0
2025-04-30T12:37:09.544+03:00,1746005823.934455,40.95223000732172,29.1402646129218,76.18292,-1,-1,-1,-1,30,20.89625706053636,-9999,13179.337698625,-0.7304534912109375,0.5671234130859375,-0.3753662109375,13179.327622625,2.519927076000132,-1.100545715562129,-0.604659987252663,0.0106241824105382,0.02305351197719574,0.0002543677110224962,0.001309573650360107,0.001067161560058594,-0.004456490278244019,XArbitraryZVertical,-0.3976578504172581,0.394312808870951,-0.822348297103584,-0.1006424889246599,-0.7333957552909851,0.5684823989868164,-0.372771292924881,0,0,0,-1,-1,13173.68978425,unknown,2,2025-04-30T12:37:03.890+03:00,2025-04-30T12:00:08.093+03:00,179,1.435125,0,0,144.5252,0,0,2025-04-30T12:37:09.049+03:00,767698629.1509881,0,1.01,100.9538,1,0.75,2025-04-30T12:36:44.961+03:00,102,1.7,2025-04-22T14:20:19.516+03:00,0.02197104130929222,0
2025-04-30T12:37:09.552+03:00,1746005823.934455,40.95223000732172,29.1402646129218,76.18292,-1,-1,-1,-1,30,20.89625706053636,-9999,13179.347775625,-0.726531982421875,0.5664215087890625,-0.3739166259765625,13179.337698625,2.520073742327459,-1.100241271091335,-0.6046187929447846,0.01576288603246212,0.01928767003118992,0.009715713560581207,0.00118643045425415,-0.000180661678314209,-0.004115790128707886,XArbitraryZVertical,-0.397569755098943,0.3942533525024141,-0.8224180440165197,-0.1006535955759924,-0.7333031296730042,0.5684484839439392,-0.3730051815509796,0,0,0,-1,-1,13173.68978425,unknown,2,2025-04-30T12:37:03.890+03:00,2025-04-30T12:00:08.093+03:00,179,1.435125,0,0,144.5252,0,0,2025-04-30T12:37:09.049+03:00,767698629.1509881,0,1.01,100.9538,1,0.75,2025-04-30T12:36:44.961+03:00,102,1.7,2025-04-22T14:20:19.516+03:00,0.02197104130929222,0
2025-04-30T12:37:09.564+03:00,1746005823.934455,40.95223000732172,29.1402646129218,76.18292,-1,-1,-1,-1,30,20.89625706053636,-9999,13179.357851625,-0.7247772216796875,0.5709991455078125,-0.3725433349609375,13179.347775625,2.520321066575897,-1.099972904266848,-0.6046575606287614,0.01762496680021286,0.01556776650249958,0.006918595172464848,0.004469454288482666,-0.001951992511749268,-0.001167118549346924,XArbitraryZVertical,-0.3975004055271046,0.3942047939865794,-0.8224822186763178,-0.1005942135083007,-0.7331835031509399,0.568480372428894,-0.3731920123100281,0,0,0,-1,-1,13173.68978425,unknown,2,2025-04-30T12:37:03.890+03:00,2025-04-30T12:00:08.093+03:00,179,1.435125,0,0,144.5252,0,0,2025-04-30T12:37:09.049+03:00,767698629.1509881,0,1.01,100.9538,1,0.75,2025-04-30T12:36:44.961+03:00,102,1.7,2025-04-22T14:20:19.516+03:00,0.02197104130929222,0
2025-04-30T12:37:09.580+03:00,1746005823.934455,40.95223000732172,29.1402646129218,76.18292,-1,-1,-1,-1,30,20.89625706053636,-9999,13179.367928625,-0.7315673828125,0.5699005126953125,-0.3720703125,13179.357851625,2.520530571826571,-1.099645835270795,-0.6046664300649324,0.01483557280153036,0.02637594006955624,0.007874404080212116,0.008264243602752686,0.0002989768981933594,-0.0005634427070617676,XArbitraryZVertical,-0.3974054683449973,0.394149931564032,-0.8225572511237911,-0.1005699369951372,-0.7330567836761475,0.5684877038002014,-0.3734294474124908,0,0,0,-1,-1,13173.68978425,unknown,2,2025-04-30T12:37:03.890+03:00,2025-04-30T12:00:08.093+03:00,179,1.435125,0,0,144.5252,0,0,2025-04-30T12:37:09.049+03:00,767698629.1509881,0,1.01,100.9538,1,0.75,2025-04-30T12:36:44.961+03:00,102,1.7,2025-04-22T14:20:19.516+03:00,0.02197104130929222,0
2025-04-30T12:37:09.582+03:00,1746005823.934455,40.95223000732172,29.1402646129218,76.18292,-1,-1,-1,-1,30,20.89625706053636,-9999,13179.378005625,-0.728363037109375,0.5708160400390625,-0.375030517578125,13179.367928625,2.520724944333863,-1.099256127909468,-0.6047329661090842,0.01514023821800947,0.02652960456907749,0.01661276817321777,0.004590749740600586,0.002685606479644775,0.002207458019256592,XArbitraryZVertical,-0.3972702656520051,0.3941159277635357,-0.8226415212188114,-0.1005484673325521,-0.7328775525093079,0.5685424208641052,-0.3736979365348816,0,0,0,-1,-1,13173.68978425,unknown,2,2025-04-30T12:37:03.890+03:00,2025-04-30T12:00:08.093+03:00,179,1.435125,0,0,144.5252,0,0,2025-04-30T12:37:09.049+03:00,767698629.1509881,0,1.01,100.9538,1,0.75,2025-04-30T12:36:44.961+03:00,102,1.7,2025-04-22T14:20:19.516+03:00,0.02197104130929222,0
2025-04-30T12:37:09.592+03:00,1746005823.934455,40.95223000732172,29.1402646129218,76.18292,-1,-1,-1,-1,30,20.89625706053636,-9999,13179.388081625,-0.729278564453125,0.5721435546875,-0.37774658203125,13179.378005625,2.520970884578741,-1.098828779019127,-0.6048356678709041,0.01554870046675205,0.03129952400922775,0.01807041652500629,0.002181708812713623,0.0006175041198730469,0.0007088184356689453,XArbitraryZVertical,-0.3971225614633461,0.3940829725823796,-0.8227341712441771,-0.1005031675170694,-0.7326657772064209,0.568626880645752,-0.3739845752716064,0,0,0,-1,-1,13173.68978425,unknown,2,2025-04-30T12:37:03.890+03:00,2025-04-30T12:00:08.093+03:00,179,1.435125,0,0,144.5252,0,0,2025-04-30T12:37:09.049+03:00,767698629.1509881,0,1.01,100.9538,1,0.75,2025-04-30T12:36:44.961+03:00,102,1.7,2025-04-22T14:20:19.516+03:00,0.02197104130929222,0
2025-04-30T12:37:09.602+03:00,1746005823.934455,40.95223000732172,29.1402646129218,76.18292,-1,-1,-1,-1,30,20.89625706053636,-9999,13179.398158625,-0.7289886474609375,0.566741943359375,-0.3781890869140625,13179.388081625,2.521248299361325,-1.098346311972416,-0.6049131943962059,0.01627387851476669,0.03151630610227585,0.01739370822906494,0.003838837146759033,0.003376603126525879,-0.001673877239227295,XArbitraryZVertical,-0.3969633462043841,0.3940318753248654,-0.8228404475294924,-0.1004627425984283,-0.732446014881134,0.5686906576156616,-0.3743179738521576,0,0,0,-1,-1,13173.68978425,unknown,2,2025-04-30T12:37:03.890+03:00,2025-04-30T12:00:08.093+03:00,179,1.435125,0,0,144.5252,0,0,2025-04-30T12:37:09.049+03:00,767698629.1509881,0,1.01,100.9538,1,0.75,2025-04-30T12:36:44.961+03:00,102,1.7,2025-04-22T14:20:19.516+03:00,0.02197104130929222,0
2025-04-30T12:37:09.612+03:00,1746005823.934455,40.95223000732172,29.1402646129218,76.18292,-1,-1,-1,-1,30,20.89625706053636,-9999,13179.408234625,-0.7256927490234375,0.5629425048828125,-0.373565673828125,13179.398158625,2.521582450972394,-1.097837537785108,-0.6049466981744017,0.02101403847336769,0.03012107685208321,0.01909852959215641,0.002227485179901123,0.001273870468139648,-0.00411754846572876,XArbitraryZVertical,-0.3968131908676335,0.3939522108074676,-0.8229566966338848,-0.1004162504195007,-0.7322385311126709,0.5687182545661926,-0.3746818900108337,0,0,0,-1,-1,13173.68978425,unknown,2,2025-04-30T12:37:03.890+03:00,2025-04-30T12:00:08.093+03:00,179,1.435125,0,0,144.5252,0,0,2025-04-30T12:37:09.049+03:00,767698629.1509881,0,1.01,100.9538,1,0.75,2025-04-30T12:36:44.961+03:00,102,1.7,2025-04-22T14:20:19.516+03:00,0.02197104130929222,0
2025-04-30T12:37:09.622+03:00,1746005823.934455,40.95223000732172,29.1402646129218,76.18292,-1,-1,-1,-1,30,20.89625706053636,-9999,13179.418311625,-0.7207183837890625,0.5650177001953125,-0.3751220703125,13179.408234625,2.521932667747679,-1.097355996612595,-0.6050129313873588,0.0238479096442461,0.02358381450176239,0.01526171341538429,0.004683732986450195,-0.005463898181915283,-0.0006389021873474121,XArbitraryZVertical,-0.3966708715435636,0.3938826867588315,-0.8230668466615697,-0.1003487466523494,-0.7320245504379272,0.5687727332115173,-0.3750172853469849,0,0,0,-1,-1,13173.68978425,unknown,2,2025-04-30T12:37:03.890+03:00,2025-04-30T12:00:08.093+03:00,179,1.435125,0,0,144.5252,0,0,2025-04-30T12:37:09.049+03:00,767698629.1509881,0,1.01,100.9538,1,0.75,2025-04-30T12:36:44.961+03:00,102,1.7,2025-04-22T14:20:19.516+03:00,0.02197104130929222,0
2025-04-30T12:37:09.632+03:00,1746005823.934455,40.95223000732172,29.1402646129218,76.18292,-1,-1,-1,-1,30,20.89625706053636,-9999,13179.428388625,-0.7186737060546875,0.561859130859375,-0.3764801025390625,13179.418311625,2.522266738312034,-1.096954696115849,-0.6050523984388569,0.02118681184947491,0.01633781939744949,0.01632161810994148,0.009075582027435303,-0.005053997039794922,0.001582473516464233,XArbitraryZVertical,-0.3965637339623466,0.3938106769600684,-0.8231612670313371,-0.1002792382641719,-0.7318539023399353,0.5688051581382751,-0.3753007054328918,0,0,0,-1,-1,13173.68978425,unknown,2,2025-04-30T12:37:03.890+03:00,2025-04-30T12:00:08.093+03:00,179,1.435125,0,0,144.5252,0,0,2025-04-30T12:37:09.049+03:00,767698629.1509881,0,1.01,100.9538,1,0.75,2025-04-30T12:36:44.961+03:00,102,1.7,2025-04-22T14:20:19.516+03:00,0.02197104130929222,0
2025-04-30T12:37:09.642+03:00,1746005823.934455,40.95223000732172,29.1402646129218,76.18292,-1,-1,-1,-1,30,20.89625706053636,-9999,13179.438464625,-0.7194061279296875,0.561798095703125,-0.37451171875,13179.428388625,2.522560495857402,-1.096666687192245,-0.6050860683533281,0.01878836937248707,0.01028605177998543,0.01209891028702259,0.01226150989532471,-0.004776477813720703,-0.00143510103225708,XArbitraryZVertical,-0.3964963768446703,0.3937502627242657,-0.8232315244480554,-0.1002056981550061,-0.7317286729812622,0.5688328742980957,-0.3755027055740356,0,0,0,-1,-1,13173.68978425,unknown,2,2025-04-30T12:37:03.890+03:00,2025-04-30T12:00:08.093+03:00,179,1.435125,0,0,144.5252,0,0,2025-04-30T12:37:09.049+03:00,767698629.1509881,0,1.01,100.9538,1,0.75,2025-04-30T12:36:44.961+03:00,102,1.7,2025-04-22T14:20:19.516+03:00,0.02197104130929222,0
2025-04-30T12:37:09.652+03:00,1746005823.934455,40.95223000732172,29.1402646129218,76.18292,-1,-1,-1,-1,30,20.89625706053636,-9999,13179.448541625,-0.7230377197265625,0.5688323974609375,-0.3713836669921875,13179.438464625,2.522796580426951,-1.096442992921746,-0.6050983458402662,0.0126202218234539,0.005299016833305359,0.005478824023157358,0.01355987787246704,-0.00857079029083252,-0.0001912415027618408,XArbitraryZVertical,-0.3964483271804452,0.3936967326705769,-0.8232871758208713,-0.1001492170960894,-0.731638491153717,0.5688429474830627,-0.3756632208824158,0,0,0,-1,-1,13173.68978425,unknown,2,2025-04-30T12:37:03.890+03:00,2025-04-30T12:00:08.093+03:00,179,1.435125,0,0,144.5252,0,0,2025-04-30T12:37:09.049+03:00,767698629.1509881,0,1.01,100.9538,1,0.75,2025-04-30T12:36:44.961+03:00,102,1.7,2025-04-22T14:20:19.516+03:00,0.02197104130929222,0
2025-04-30T12:37:09.663+03:00,1746005823.934455,40.95223000732172,29.1402646129218,76.18292,-1,-1,-1,-1,30,20.89625706053636,-9999,13179.458617625,-0.726470947265625,0.562225341796875,-0.374481201171875,13179.448541625,2.522953169639811,-1.096308897121289,-0.6051230350804697,0.01020819693803787,0.006001292262226343,0.006990434136241674,0.0104299783706665,-0.003540456295013428,0.00369986891746521,XArbitraryZVertical,-0.3964190638186261,0.3936679767149173,-0.823320469691799,-0.1001043411648918,-0.731575608253479,0.5688632726669312,-0.3757548928260803,0,0,0,-1,-1,13173.68978425,unknown,2,2025-04-30T12:37:03.890+03:00,2025-04-30T12:00:08.093+03:00,179,1.435125,0,0,144.5252,0,0,2025-04-30T12:37:09.049+03:00,767698629.1509881,0,1.01,100.9538,1,0.75,2025-04-30T12:36:44.961+03:00,102,1.7,2025-04-22T14:20:19.516+03:00,0.02197104130929222,0
2025-04-30T12:37:09.673+03:00,1746005823.934455,40.95223000732172,29.1402646129218,76.18292,-1,-1,-1,-1,30,20.89625706053636,-9999,13179.468694625,-0.7270660400390625,0.563079833984375,-0.3730621337890625,13179.458617625,2.522993771854398,-1.096237936286009,-0.6051633570452566,-0.001817306969314814,0.008178426884114742,0.004504639655351639,0.006690263748168945,-0.001452505588531494,0.002749502658843994,XArbitraryZVertical,-0.3963898459966006,0.3936710729433687,-0.8233347745964349,-0.1000905280918558,-0.7315285801887512,0.5688964128494263,-0.3757963478565216,0,0,0,-1,-1,13173.68978425,unknown,2,2025-04-30T12:37:03.890+03:00,2025-04-30T12:00:08.093+03:00,179,1.435125,0,0,144.5252,0,0,2025-04-30T12:37:09.049+03:00,767698629.1509881,0,1.01,100.9538,1,0.75,2025-04-30T12:36:44.961+03:00,102,1.7,2025-04-22T14:20:19.516+03:00,0.02197104130929222,0
2025-04-30T12:37:09.683+03:00,1746005823.934455,40.95223000732172,29.1402646129218,76.18292,-1,-1,-1,-1,30,20.89625706053636,-9999,13179.478771625,-0.7279510498046875,0.5709381103515625,-0.374908447265625,13179.468694625,2.523064172961446,-1.096121721047855,-0.6052117003506285,0.007424926850944757,0.006907565984874964,0.004165352787822485,0.004806339740753174,-0.009350597858428955,0.001616477966308594,XArbitraryZVertical,-0.3963462930343053,0.3936689217769502,-0.8233591281878416,-0.1000710923213096,-0.7314604520797729,0.5689361691474915,-0.3758687973022461,0,0,0,-1,-1,13173.68978425,unknown,2,2025-04-30T12:37:03.890+03:00,2025-04-30T12:00:08.093+03:00,179,1.435125,0,0,144.5252,0,0,2025-04-30T12:37:09.049+03:00,767698629.1509881,0,1.01,100.9538,1,0.75,2025-04-30T12:36:44.961+03:00,102,1.7,2025-04-22T14:20:19.516+03:00,0.02197104130929222,0
2025-04-30T12:37:09.693+03:00,1746005823.934455,40.95223000732172,29.1402646129218,76.18292,-1,-1,-1,-1,30,20.89625706053636,-9999,13179.488847625,-0.7235870361328125,0.5732879638671875,-0.3747711181640625,13179.478771625,2.523300499432963,-1.095966742062438,-0.6052465568754981,0.01982746832072735,-0.004337964113801718,0.01097302511334419,0.004013299942016602,-0.000605463981628418,0.002529501914978027,XArbitraryZVertical,-0.3963220923657632,0.393627042939085,-0.8234001079411528,-0.09999473698217184,-0.7313845753669739,0.5689648389816284,-0.375973105430603,0,0,0,-1,-1,13173.68978425,unknown,2,2025-04-30T12:37:03.890+03:00,2025-04-30T12:00:08.093+03:00,179,1.435125,0,0,144.5252,0,0,2025-04-30T12:37:09.049+03:00,767698629.1509881,0,1.01,100.9538,1,0.75,2025-04-30T12:36:44.961+03:00,102,1.7,2025-04-22T14:20:19.516+03:00,0.02197104130929222,0
2025-04-30T12:37:09.703+03:00,1746005823.934455,40.95223000732172,29.1402646129218,76.18292,-1,-1,-1,-1,30,20.89625706053636,-9999,13179.498924625,-0.72515869140625,0.5689697265625,-0.372772216796875,13179.488847625,2.523540105290431,-1.095874013633037,-0.6052236119079792,0.01834169030189514,-0.004585371818393469,0.006649116985499859,0.005164980888366699,0.002068459987640381,-5.173683166503906e-05,XArbitraryZVertical,-0.3963356136999475,0.3935665635961467,-0.8234314931864348,-0.09992064833642088,-0.7313613295555115,0.5689460039138794,-0.376046895980835,0,0,0,-1,-1,13173.68978425,unknown,2,2025-04-30T12:37:03.890+03:00,2025-04-30T12:00:08.093+03:00,179,1.435125,0,0,144.5252,0,0,2025-04-30T12:37:09.049+03:00,767698629.1509881,0,1.01,100.9538,1,0.75,2025-04-30T12:36:44.961+03:00,102,1.7,2025-04-22T14:20:19.516+03:00,0.02197104130929222,0
2025-04-30T12:37:09.713+03:00,1746005823.934455,40.95223000732172,29.1402646129218,76.18292,-1,-1,-1,-1,30,20.89625706053636,-9999,13179.509000625,-0.7252197265625,0.5610198974609375,-0.3743133544921875,13179.498924625,2.523763263224946,-1.09580429182862,-0.6052146296136851,0.01527645904570818,-0.006732611916959286,0.007560217287391424,0.008362889289855957,0.004425644874572754,0.002702385187149048,XArbitraryZVertical,-0.3963526196878004,0.3935155807913651,-0.8234568038873521,-0.09984489124135677,-0.7313395738601685,0.5689386129379272,-0.3761001825332642,0,0,0,-1,-1,13173.68978425,unknown,2,2025-04-30T12:37:03.890+03:00,2025-04-30T12:00:08.093+03:00,179,1.435125,0,0,144.5252,0,0,2025-04-30T12:37:09.049+03:00,767698629.1509881,0,1.01,100.9538,1,0.75,2025-04-30T12:36:44.961+03:00,102,1.7,2025-04-22T14:20:19.516+03:00,0.02197104130929222,0
2025-04-30T12:37:09.724+03:00,1746005823.934455,40.95223000732172,29.1402646129218,76.18292,-1,-1,-1,-1,30,20.89625706053636,-9999,13179.519077625,-0.725982666015625,0.5645599365234375,-0.377197265625,13179.509000625,2.523946809689637,-1.095742252792699,-0.6052069497053086,0.011772271245718,-0.003652666695415974,0.001785685308277607,0.005047500133514404,-0.004814863204956055,0.003115952014923096,XArbitraryZVertical,-0.3963646896318255,0.3934733119430796,-0.8234786536491138,-0.09978369385033019,-0.7313201427459717,0.5689322948455811,-0.3761475682258606,0,0,0,-1,-1,13173.68978425,unknown,2,2025-04-30T12:37:03.890+03:00,2025-04-30T12:00:08.093+03:00,179,1.435125,0,0,144.5252,0,0,2025-04-30T12:37:09.049+03:00,767698629.1509881,0,1.01,100.9538,1,0.75,2025-04-30T12:36:44.961+03:00,102,1.7,2025-04-22T14:20:19.516+03:00,0.02197104130929222,0
2025-04-30T12:37:09.733+03:00,1746005823.934455,40.95223000732172,29.1402646129218,76.18292,-1,-1,-1,-1,30,20.89625706053636,-9999,13179.529154625,-0.7294769287109375,0.5699462890625,-0.3782958984375,13179.519077625,2.524106640014611,-1.095635763921092,-0.605173452151511,0.01384494360536337,0.001507940469309688,0.00418782327324152,0.007511615753173828,-0.007045567035675049,0.0001507997512817383,XArbitraryZVertical,-0.3963589046926338,0.3934241128074973,-0.8235092722016647,-0.09974807707403541,-0.7312970757484436,0.5689047574996948,-0.3762341737747192,0,0,0,-1,-1,13173.68978425,unknown,2,2025-04-30T12:37:03.890+03:00,2025-04-30T12:00:08.093+03:00,179,1.435125,0,0,144.5252,0,0,2025-04-30T12:37:09.049+03:00,767698629.1509881,0,1.01,100.9538,1,0.75,2025-04-30T12:36:44.961+03:00,102,1.7,2025-04-22T14:20:19.516+03:00,0.02197104130929222,0
2025-04-30T12:37:09.744+03:00,1746005823.934455,40.95223000732172,29.1402646129218,76.18292,-1,-1,-1,-1,30,20.89625706053636,-9999,13179.539230625,-0.7318572998046875,0.5672607421875,-0.3747406005859375,13179.529154625,2.524273862969922,-1.095499391994851,-0.6051623840734136,0.01083423942327499,0.006176728289574385,0.002917228965088725,0.003742754459381104,-4.792213439941406e-05,-0.001257240772247314,XArbitraryZVertical,-0.3963378286791833,0.3933801383974084,-0.823545152260225,-0.09970910701116698,-0.7312513589859009,0.5688956379890442,-0.3763367831707001,0,0,0,-1,-1,13173.68978425,unknown,2,2025-04-30T12:37:03.890+03:00,2025-04-30T12:00:08.093+03:00,179,1.435125,0,0,144.5252,0,0,2025-04-30T12:37:09.049+03:00,767698629.1509881,0,1.01,100.9538,1,0.75,2025-04-30T12:36:44.961+03:00,102,1.7,2025-04-22T14:20:19.516+03:00,0.02197104130929222,0
2025-04-30T12:37:09.754+03:00,1746005823.934455,40.95223000732172,29.1402646129218,76.18292,-1,-1,-1,-1,30,20.89625706053636,-9999,13179.549307625,-0.732696533203125,0.5658111572265625,-0.3734588623046875,13179.539230625,2.52441431181403,-1.095346343986884,-0.6051665016828405,0.01193812023848295,0.009266793727874756,0.006519554182887077,0.0006771087646484375,-0.0003412365913391113,-0.001405775547027588,XArbitraryZVertical,-0.3963016100108702,0.393346180237182,-0.8235823080557962,-0.09968025818687773,-0.7311916947364807,0.5688990354537964,-0.3764476180076599,0,0,0,-1,-1,13173.68978425,unknown,2,2025-04-30T12:37:03.890+03:00,2025-04-30T12:00:08.093+03:00,179,1.435125,0,0,144.5252,0,0,2025-04-30T12:37:09.049+03:00,767698629.1509881,0,1.01,100.9538,1,0.75,2025-04-30T12:36:44.961+03:00,102,1.7,2025-04-22T14:20:19.516+03:00,0.02197104130929222,0
2025-04-30T12:37:09.764+03:00,1746005823.934455,40.95223000732172,29.1402646129218,76.18292,-1,-1,-1,-1,30,20.89625706053636,-9999,13179.559383625,-0.7301788330078125,0.564361572265625,-0.3759002685546875,13179.549307625,2.524545839935377,-1.095165022308412,-0.6051616618856202,0.007317801471799612,0.009669464081525803,0.007364309392869473,-0.001250267028808594,-0.002458155155181885,0.002756357192993164,XArbitraryZVertical,-0.3962537519313501,0.3933093196415853,-0.8236250434809952,-0.09966312562520599,-0.7311258912086487,0.5688950419425964,-0.3765814900398254,0,0,0,-1,-1,13173.68978425,unknown,2,2025-04-30T12:37:03.890+03:00,2025-04-30T12:00:08.093+03:00,179,1.435125,0,0,144.5252,0,0,2025-04-30T12:37:09.049+03:00,767698629.1509881,0,1.01,100.9538,1,0.75,2025-04-30T12:36:44.961+03:00,102,1.7,2025-04-22T14:20:19.516+03:00,0.02197104130929222,0
2025-04-30T12:37:09.774+03:00,1746005823.934455,40.95223000732172,29.1402646129218,76.18292,-1,-1,-1,-1,30,20.89625706053636,-9999,13179.569460625,-0.7263641357421875,0.5662078857421875,-0.377288818359375,13179.559383625,2.524668723052731,-1.094997722042195,-0.605196202332497,0.01056765671819448,0.008277961984276772,0.007998940534889698,-0.001010358333587646,-0.003966808319091797,0.001328557729721069,XArbitraryZVertical,-0.3962022469069944,0.3932892301641517,-0.8236625938216821,-0.09963574582687053,-0.7310452461242676,0.5689234137535095,-0.3766947090625763,0,0,0,-1,-1,13173.68978425,unknown,2,2025-04-30T12:37:03.890+03:00,2025-04-30T12:00:08.093+03:00,179,1.435125,0,0,144.5252,0,0,2025-04-30T12:37:09.049+03:00,767698629.1509881,0,1.01,100.9538,1,0.75,2025-04-30T12:36:44.961+03:00,102,1.7,2025-04-22T14:20:19.516+03:00,0.02197104130929222,0
2025-04-30T12:37:09.784+03:00,1746005823.934455,40.95223000732172,29.1402646129218,76.18292,-1,-1,-1,-1,30,20.89625706053636,-9999,13179.579537625,-0.7265472412109375,0.5746002197265625,-0.3773193359375,13179.569460625,2.524817383001391,-1.09482317718062,-0.605210025632745,0.01124916039407253,0.005445690359920263,0.002667557913810015,0.002701103687286377,-0.004847884178161621,0.0003539621829986572,XArbitraryZVertical,-0.3961568391390839,0.3932561329385495,-0.8237039992589709,-0.09960510691150856,-0.7309725880622864,0.5689347982406616,-0.3768187463283539,0,0,0,-1,-1,13173.68978425,unknown,2,2025-04-30T12:37:03.890+03:00,2025-04-30T12:00:08.093+03:00,179,1.435125,0,0,144.5252,0,0,2025-04-30T12:37:09.049+03:00,767698629.1509881,0,1.01,100.9538,1,0.75,2025-04-30T12:36:44.961+03:00,102,1.7,2025-04-22T14:20:19.516+03:00,0.02197104130929222,0
2025-04-30T12:37:09.807+03:00,1746005823.934455,40.95223000732172,29.1402646129218,76.18292,-1,-1,-1,-1,30,20.89625706053636,-9999,13179.589613625,-0.7265777587890625,0.57147216796875,-0.3795166015625,13179.579537625,2.524957860331418,-1.094687048202711,-0.6052097422990504,0.01199624314904213,0.004476899281144142,0.002997290343046188,0.004297852516174316,0.00148475170135498,-0.0002942085266113281,XArbitraryZVertical,-0.3961284404704249,0.3932214276174156,-0.8237379932555455,-0.09957412052956034,-0.7309214472770691,0.5689345598220825,-0.3769183456897736,0,0,0,-1,-1,13173.68978425,unknown,2,2025-04-30T12:37:03.890+03:00,2025-04-30T12:00:08.093+03:00,179,1.435125,0,0,144.5252,0,0,2025-04-30T12:37:09.049+03:00,767698629.1509881,0,1.01,100.9538,1,0.75,2025-04-30T12:36:44.961+03:00,102,1.7,2025-04-22T14:20:19.516+03:00,0.02197104130929222,0
2025-04-30T12:37:09.809+03:00,1746005823.934455,40.95223000732172,29.1402646129218,76.18292,-1,-1,-1,-1,30,20.89625706053636,-9999,13179.599690625,-0.726348876953125,0.56646728515625,-0.37945556640625,13179.589613625,2.525090901767521,-1.09457616602722,-0.6051704959988371,0.01190116815268993,0.005421255715191364,0.0004206822486594319,0.003451943397521973,0.005591094493865967,-0.000813215970993042,XArbitraryZVertical,-0.3961166939972931,0.3931752377277309,-0.8237683418880595,-0.09955188356831743,-0.730899453163147,0.568902313709259,-0.3770096004009247,0,0,0,-1,-1,13173.68978425,unknown,2,2025-04-30T12:37:03.890+03:00,2025-04-30T12:00:08.093+03:00,179,1.435125,0,0,144.5252,0,0,2025-04-30T12:37:09.049+03:00,767698629.1509881,0,1.01,100.9538,1,0.75,2025-04-30T12:36:44.961+03:00,102,1.7,2025-04-22T14:20:19.516+03:00,0.02197104130929222,0
2025-04-30T12:37:09.814+03:00,1746005823.934455,40.95223000732172,29.1402646129218,76.18292,-1,-1,-1,-1,30,20.89625706053636,-9999,13179.609766625,-0.7291107177734375,0.5711822509765625,-0.3780975341796875,13179.599690625,2.525233887778004,-1.094412731977234,-0.6050992994317131,0.01264458894729614,0.01034557446837425,-0.00209873472340405,0.004280805587768555,-0.0008963346481323242,-0.0022316575050354,XArbitraryZVertical,-0.396091531660039,0.3931128091406572,-0.8238111300384682,-0.0995447533118005,-0.7308738827705383,0.5688437223434448,-0.3771476447582245,0,0,0,-1,-1,13173.68978425,unknown,2,2025-04-30T12:37:03.890+03:00,2025-04-30T12:00:08.093+03:00,179,1.435125,0,0,144.5252,0,0,2025-04-30T12:37:09.049+03:00,767698629.1509881,0,1.01,100.9538,1,0.75,2025-04-30T12:36:44.961+03:00,102,1.7,2025-04-22T14:20:19.516+03:00,0.02197104130929222,0
2025-04-30T12:37:09.824+03:00,1746005823.934455,40.95223000732172,29.1402646129218,76.18292,-1,-1,-1,-1,30,20.89625706053636,-9999,13179.619843625,-0.7297515869140625,0.569610595703125,-0.378692626953125,13179.609766625,2.525343296288178,-1.094210355724051,-0.6050349734504011,0.01011485233902931,0.01714169606566429,-0.002649210160598159,0.003001034259796143,0.0007435083389282227,-0.001365005970001221,XArbitraryZVertical,-0.3960423659158742,0.3930575975550026,-0.8238596315726431,-0.09955719407347925,-0.7308300733566284,0.5687908530235291,-0.3773123323917389,0,0,0,-1,-1,13173.68978425,unknown,2,2025-04-30T12:37:03.890+03:00,2025-04-30T12:00:08.093+03:00,179,1.435125,0,0,144.5252,0,0,2025-04-30T12:37:09.049+03:00,767698629.1509881,0,1.01,100.9538,1,0.75,2025-04-30T12:36:44.961+03:00,102,1.7,2025-04-22T14:20:19.516+03:00,0.02197104130929222,0
2025-04-30T12:37:09.834+03:00,1746005823.934455,40.95223000732172,29.1402646129218,76.18292,-1,-1,-1,-1,30,20.89625706053636,-9999,13179.629920625,-0.7262725830078125,0.56549072265625,-0.37945556640625,13179.619843625,2.525506864845058,-1.09394128783305,-0.6049700100774096,0.02179481275379658,0.01779616624116898,0.004735935013741255,0.0003383159637451172,0.002795815467834473,-0.0008615255355834961,XArbitraryZVertical,-0.3959764927101262,0.3929881075093107,-0.8239240390020081,-0.09956056718053596,-0.7307613492012024,0.5687373876571655,-0.3775259256362915,0,0,0,-1,-1,13173.68978425,unknown,2,2025-04-30T12:37:03.890+03:00,2025-04-30T12:00:08.093+03:00,179,1.435125,0,0,144.5252,0,0,2025-04-30T12:37:09.049+03:00,767698629.1509881,0,1.01,100.9538,1,0.75,2025-04-30T12:36:44.961+03:00,102,1.7,2025-04-22T14:20:19.516+03:00,0.02197104130929222,0
2025-04-30T12:37:09.844+03:00,1746005823.934455,40.95223000732172,29.1402646129218,76.18292,-1,-1,-1,-1,30,20.89625706053636,-9999,13179.639996625,-0.7222747802734375,0.5678863525390625,-0.3847198486328125,13179.629920625,2.525741982482918,-1.093636732687762,-0.6048861570925183,0.01993645913898945,0.01729682460427284,0.001632819883525372,0.002569735050201416,-0.002475738525390625,-0.001181721687316895,XArbitraryZVertical,-0.3959137569927109,0.3928957938473899,-0.8239999184261065,-0.09954663891435543,-0.7306886911392212,0.5686684250831604,-0.3777703940868378,0,0,0,-1,-1,13173.68978425,unknown,2,2025-04-30T12:37:03.890+03:00,2025-04-30T12:00:08.093+03:00,179,1.435125,0,0,144.5252,0,0,2025-04-30T12:37:09.049+03:00,767698629.1509881,0,1.01,100.9538,1,0.75,2025-04-30T12:36:44.961+03:00,102,1.7,2025-04-22T14:20:19.516+03:00,0.02197104130929222,0
2025-04-30T12:37:09.854+03:00,1746005823.934455,40.95223000732172,29.1402646129218,76.18292,-1,-1,-1,-1,30,20.89625706053636,-9999,13179.650073625,-0.7189788818359375,0.555572509765625,-0.387420654296875,13179.639996625,2.525939680310324,-1.093410409492692,-0.6048058059330272,0.01369101274758577,0.002733793575316668,0.001781390979886055,0.006751537322998047,-0.0008684992790222168,-0.004047036170959473,XArbitraryZVertical,-0.3958751908489205,0.3928160616405049,-0.824058274730427,-0.09953176328968695,-0.7306438088417053,0.5686023235321045,-0.377956748008728,0,0,0,-1,-1,13173.68978425,unknown,2,2025-04-30T12:37:03.890+03:00,2025-04-30T12:00:08.093+03:00,179,1.435125,0,0,144.5252,0,0,2025-04-30T12:37:09.049+03:00,767698629.1509881,0,1.01,100.9538,1,0.75,2025-04-30T12:36:44.961+03:00,102,1.7,2025-04-22T14:20:19.516+03:00,0.02197104130929222,0
2025-04-30T12:37:09.864+03:00,1746005823.934455,40.95223000732172,29.1402646129218,76.18292,-1,-1,-1,-1,30,20.89625706053636,-9999,13179.660149625,-0.7212677001953125,0.5593414306640625,-0.379730224609375,13179.650073625,2.526002658360357,-1.093376090609236,-0.6047921145307708,-0.00376787269487977,-0.0003930237144231796,0.0008751172572374344,0.009644627571105957,-0.006686091423034668,-0.00826030969619751,XArbitraryZVertical,-0.3958761243605575,0.3927968886480428,-0.8240688233823859,-0.09951630968459083,-0.7306377291679382,0.5685910582542419,-0.3779853880405426,0,0,0,-1,-1,13173.68978425,unknown,2,2025-04-30T12:37:03.890+03:00,2025-04-30T12:00:08.093+03:00,179,1.435125,0,0,144.5252,0,0,2025-04-30T12:37:09.049+03:00,767698629.1509881,0,1.01,100.9538,1,0.75,2025-04-30T12:36:44.961+03:00,102,1.7,2025-04-22T14:20:19.516+03:00,0.02197104130929222,0
2025-04-30T12:37:09.875+03:00,1746005823.934455,40.95223000732172,29.1402646129218,76.18292,-1,-1,-1,-1,30,20.89625706053636,-9999,13179.670226625,-0.7193145751953125,0.560455322265625,-0.370697021484375,13179.660149625,2.525942943679768,-1.093403080936212,-0.604851837054052,-0.01229391619563103,-0.001380723901093006,0.00369543838314712,0.0108758807182312,-0.01254886388778687,-0.007258057594299316,XArbitraryZVertical,-0.3958637492675567,0.3928318554292269,-0.8240577187367432,-0.09951913976379456,-0.7306177616119385,0.5686402320861816,-0.3779500424861908,0,0,0,-1,-1,13173.68978425,unknown,2,2025-04-30T12:37:03.890+03:00,2025-04-30T12:00:08.093+03:00,179,1.435125,0,0,144.5252,0,0,2025-04-30T12:37:09.049+03:00,767698629.1509881,0,1.01,100.9538,1,0.75,2025-04-30T12:36:44.961+03:00,102,1.7,2025-04-22T14:20:19.516+03:00,0.02197104130929222,0
2025-04-30T12:37:09.884+03:00,1746005823.934455,40.95223000732172,29.1402646129218,76.18292,-1,-1,-1,-1,30,20.89625706053636,-9999,13179.680303625,-0.7175140380859375,0.5638427734375,-0.369659423828125,13179.670226625,2.52579923768972,-1.093481435479665,-0.6050004549654873,-0.01862824521958828,0.0002555223181843758,0.006906411610543728,0.008526265621185303,-0.008047699928283691,0.004746019840240479,XArbitraryZVertical,-0.3958385026414258,0.3929184539948951,-0.8240281474267436,-0.09952200262950454,-0.7305722236633301,0.5687624216079712,-0.3778539299964905,0,0,0,-1,-1,13173.68978425,unknown,2,2025-04-30T12:37:03.890+03:00,2025-04-30T12:00:08.093+03:00,179,1.435125,0,0,144.5252,0,0,2025-04-30T12:37:09.049+03:00,767698629.1509881,0,1.01,100.9538,1,0.75,2025-04-30T12:36:44.961+03:00,102,1.7,2025-04-22T14:20:19.516+03:00,0.02197104130929222,0
2025-04-30T12:37:09.894+03:00,1746005823.934455,40.95223000732172,29.1402646129218,76.18292,-1,-1,-1,-1,30,20.89625706053636,-9999,13179.690379625,-0.721282958984375,0.5666046142578125,-0.3707733154296875,13179.680303625,2.525623995440421,-1.093561165611375,-0.6052076180473168,-0.02443746477365494,0.001539365854114294,0.01262485049664974,0.01345664262771606,-0.008050262928009033,0.007410794496536255,XArbitraryZVertical,-0.3957960226596433,0.3930327291115073,-0.8239941179912685,-0.09952157063594352,-0.7304976582527161,0.568932831287384,-0.3777415752410889,0,0,0,-1,-1,13173.68978425,unknown,2,2025-04-30T12:37:03.890+03:00,2025-04-30T12:00:08.093+03:00,179,1.435125,0,0,144.5252,0,0,2025-04-30T12:37:09.049+03:00,767698629.1509881,0,1.01,100.9538,1,0.75,2025-04-30T12:36:44.961+03:00,102,1.7,2025-04-22T14:20:19.516+03:00,0.02197104130929222,0
2025-04-30T12:37:09.904+03:00,1746005823.934455,40.95223000732172,29.1402646129218,76.18292,-1,-1,-1,-1,30,20.89625706053636,-9999,13179.700456625,-0.718994140625,0.566925048828125,-0.378936767578125,13179.690379625,2.525428394594889,-1.093661776946697,-0.6054171967747568,-0.0249935332685709,-0.003364579286426306,0.00906367227435112,0.009726583957672119,-0.002103805541992188,0.008198022842407227,XArbitraryZVertical,-0.3957576364505058,0.3931529405096523,-0.8239548498045581,-0.09952476574846759,-0.7304297685623169,0.5691051483154297,-0.3776133060455322,0,0,0,-1,-1,13173.68978425,unknown,2,2025-04-30T12:37:03.890+03:00,2025-04-30T12:00:08.093+03:00,179,1.435125,0,0,144.5252,0,0,2025-04-30T12:37:09.049+03:00,767698629.1509881,0,1.01,100.9538,1,0.75,2025-04-30T12:36:44.961+03:00,102,1.7,2025-04-22T14:20:19.516+03:00,0.02197104130929222,0
2025-04-30T12:37:09.915+03:00,1746005823.934455,40.95223000732172,29.1402646129218,76.18292,-1,-1,-1,-1,30,20.89625706053636,-9999,13179.710532625,-0.7211761474609375,0.574493408203125,-0.3824615478515625,13179.700456625,2.52512514775648,-1.093869974947667,-0.6056034288138321,-0.03273161500692368,-0.007678101304918528,0.0009434274397790432,0.01080965995788574,-0.003599703311920166,0.002061665058135986,XArbitraryZVertical,-0.3957469843034697,0.3932912724915816,-0.8238900235800986,-0.0995575715242093,-0.7304142117500305,0.5692582726478577,-0.3774125874042511,0,0,0,-1,-1,13173.68978425,unknown,2,2025-04-30T12:37:03.890+03:00,2025-04-30T12:00:08.093+03:00,179,1.435125,0,0,144.5252,0,0,2025-04-30T12:37:09.049+03:00,767698629.1509881,0,1.01,100.9538,1,0.75,2025-04-30T12:36:44.961+03:00,102,1.7,2025-04-22T14:20:19.516+03:00,0.02197104130929222,0
2025-04-30T12:37:09.925+03:00,1746005823.934455,40.95223000732172,29.1402646129218,76.18292,-1,-1,-1,-1,30,20.89625706053636,-9999,13179.720609625,-0.724212646484375,0.568328857421875,-0.385986328125,13179.710532625,2.524794560780965,-1.094167988776192,-0.6057296681829174,-0.0304037444293499,-0.01476344093680382,-0.003924298100173473,0.01093453168869019,0.001804947853088379,-0.004262030124664307,XArbitraryZVertical,-0.3957797844971487,0.3934175859712121,-0.8238087728744315,-0.09960038654417358,-0.7304627895355225,0.5693621039390564,-0.3771619200706482,0,0,0,-1,-1,13173.68978425,unknown,2,2025-04-30T12:37:03.890+03:00,2025-04-30T12:00:08.093+03:00,179,1.435125,0,0,144.5252,0,0,2025-04-30T12:37:09.049+03:00,767698629.1509881,0,1.01,100.9538,1,0.75,2025-04-30T12:36:44.961+03:00,102,1.7,2025-04-22T14:20:19.516+03:00,0.02197104130929222,0
2025-04-30T12:37:09.935+03:00,1746005823.934455,40.95223000732172,29.1402646129218,76.18292,-1,-1,-1,-1,30,20.89625706053636,-9999,13179.730686625,-0.725738525390625,0.568939208984375,-0.3814849853515625,13179.720609625,2.524481993670595,-1.094487594398442,-0.6058222775716608,-0.02936704270541668,-0.01601892150938511,-0.006780039519071579,0.007208764553070068,0.002323925495147705,-0.007998645305633545,XArbitraryZVertical,-0.3958316217079621,0.3935291449561982,-0.8237257048140934,-0.0996407706372546,-0.7305364608764648,0.5694382190704346,-0.3769042789936066,0,0,0,-1,-1,13173.68978425,unknown,2,2025-04-30T12:37:03.890+03:00,2025-04-30T12:00:08.093+03:00,179,1.435125,0,0,144.5252,0,0,2025-04-30T12:37:09.049+03:00,767698629.1509881,0,1.01,100.9538,1,0.75,2025-04-30T12:36:44.961+03:00,102,1.7,2025-04-22T14:20:19.516+03:00,0.02197104130929222,0
2025-04-30T12:37:09.945+03:00,1746005823.934455,40.95223000732172,29.1402646129218,76.18292,-1,-1,-1,-1,30,20.89625706053636,-9999,13179.740762625,-0.7264556884765625,0.5665130615234375,-0.376495361328125,13179.730686625,2.524205811325975,-1.094763490791397,-0.6058518398922683,-0.01990349963307381,-0.01271606981754303,-0.007924932055175304,0.005497217178344727,-0.001393020153045654,-0.007017791271209717,XArbitraryZVertical,-0.3958850639015544,0.3936083383333069,-0.8236559529114925,-0.09969205616535375,-0.7306254506111145,0.5694625377655029,-0.3766949772834778,0,0,0,-1,-1,13173.68978425,unknown,2,2025-04-30T12:37:03.890+03:00,2025-04-30T12:00:08.093+03:00,179,1.435125,0,0,144.5252,0,0,2025-04-30T12:37:09.049+03:00,767698629.1509881,0,1.01,100.9538,1,0.75,2025-04-30T12:36:44.961+03:00,102,1.7,2025-04-22T14:20:19.516+03:00,0.02197104130929222,0
2025-04-30T12:37:09.955+03:00,1746005823.934455,40.95223000732172,29.1402646129218,76.18292,-1,-1,-1,-1,30,20.89625706053636,-9999,13179.750839625,-0.7236328125,0.5686187744140625,-0.375091552734375,13179.740762625,2.524004589036218,-1.094988153379146,-0.6058307595535833,-0.01442378014326096,-0.01681414246559143,-0.008134788833558559,0.003532528877258301,-0.000979006290435791,-0.001576453447341919,XArbitraryZVertical,-0.395942179719745,0.3936516824204945,-0.8236023370046061,-0.09973641843815893,-0.7307206392288208,0.5694451928138733,-0.3765362799167633,0,0,0,-1,-1,13173.68978425,unknown,2,2025-04-30T12:37:03.890+03:00,2025-04-30T12:00:08.093+03:00,179,1.435125,0,0,144.5252,0,0,2025-04-30T12:37:09.049+03:00,767698629.1509881,0,1.01,100.9538,1,0.75,2025-04-30T12:36:44.961+03:00,102,1.7,2025-04-22T14:20:19.516+03:00,0.02197104130929222,0
2025-04-30T12:37:09.965+03:00,1746005823.934455,40.95223000732172,29.1402646129218,76.18292,-1,-1,-1,-1,30,20.89625706053636,-9999,13179.760915625,-0.7240753173828125,0.572540283203125,-0.375152587890625,13179.750839625,2.523804225151236,-1.095297820497656,-0.6058051435003226,-0.009752328507602215,-0.02173779346048832,-0.01083257142454386,0.005554139614105225,-0.003048360347747803,0.0007520914077758789,XArbitraryZVertical,-0.3960353206776883,0.3936974594163812,-0.8235322128935764,-0.09976503577855478,-0.7308501601219177,0.5694241523742676,-0.3763166666030884,0,0,0,-1,-1,13173.68978425,unknown,2,2025-04-30T12:37:03.890+03:00,2025-04-30T12:00:08.093+03:00,179,1.435125,0,0,144.5252,0,0,2025-04-30T12:37:09.049+03:00,767698629.1509881,0,1.01,100.9538,1,0.75,2025-04-30T12:36:44.961+03:00,102,1.7,2025-04-22T14:20:19.516+03:00,0.02197104130929222,0
2025-04-30T12:37:09.975+03:00,1746005823.934455,40.95223000732172,29.1402646129218,76.18292,-1,-1,-1,-1,30,20.89625706053636,-9999,13179.770992625,-0.723541259765625,0.5745391845703125,-0.3735504150390625,13179.760915625,2.523616270821095,-1.095621752174775,-0.6057545683172098,-0.01408935338258743,-0.02058950625360012,-0.01269322261214256,0.006800234317779541,0.002043843269348145,0.0007116198539733887,XArbitraryZVertical,-0.3961416977065734,0.3937324087481414,-0.8234610163127216,-0.09979261344992681,-0.7309976816177368,0.5693825483322144,-0.3760930895805359,0,0,0,-1,-1,13173.68978425,unknown,2,2025-04-30T12:37:03.890+03:00,2025-04-30T12:00:08.093+03:00,179,1.435125,0,0,144.5252,0,0,2025-04-30T12:37:09.049+03:00,767698629.1509881,0,1.01,100.9538,1,0.75,2025-04-30T12:36:44.961+03:00,102,1.7,2025-04-22T14:20:19.516+03:00,0.02197104130929222,0
2025-04-30T12:37:09.986+03:00,1746005823.934455,40.95223000732172,29.1402646129218,76.18292,-1,-1,-1,-1,30,20.89625706053636,-9999,13179.781069625,-0.7267303466796875,0.5716705322265625,-0.3761444091796875,13179.770992625,2.523403600971082,-1.095947691918094,-0.6057275658959727,-0.01317322533577681,-0.01947017945349216,-0.01136323995888233,0.008157193660736084,0.004232823848724365,0.000938117504119873,XArbitraryZVertical,-0.3962393543569445,0.393780963320594,-0.8233870953238344,-0.09982347304839269,-0.7311339378356934,0.5693603754043579,-0.3758618533611298,0,0,0,-1,-1,13173.68978425,unknown,2,2025-04-30T12:37:03.890+03:00,2025-04-30T12:00:08.093+03:00,179,1.435125,0,0,144.5252,0,0,2025-04-30T12:37:09.049+03:00,767698629.1509881,0,1.01,100.9538,1,0.75,2025-04-30T12:36:44.961+03:00,102,1.7,2025-04-22T14:20:19.516+03:00,0.02197104130929222,0
2025-04-30T12:37:09.996+03:00,1746005823.934455,40.95223000732172,29.1402646129218,76.18292,-1,-1,-1,-1,30,20.89625706053636,-9999,13179.791145625,-0.7317047119140625,0.56951904296875,-0.375946044921875,13179.781069625,2.523207552176987,-1.096191538294167,-0.6057255699966396,-0.01411951333284378,-0.01255348417907953,-0.007712745107710361,0.006296694278717041,0.005104184150695801,0.001355469226837158,XArbitraryZVertical,-0.3963015333417564,0.3938312530003863,-0.823329084837564,-0.09985671796578832,-0.7312265634536743,0.5693587064743042,-0.3756840825080872,0,0,0,-1,-1,13173.68978425,unknown,2,2025-04-30T12:37:03.890+03:00,2025-04-30T12:00:08.093+03:00,179,1.435125,0,0,144.5252,0,0,2025-04-30T12:37:09.049+03:00,767698629.1509881,0,1.01,100.9538,1,0.75,2025-04-30T12:36:44.961+03:00,102,1.7,2025-04-22T14:20:19.516+03:00,0.02197104130929222,0
2025-04-30T12:37:10.006+03:00,1746005823.934455,40.95223000732172,29.1402646129218,76.18292,-1,-1,-1,-1,30,20.89625706053636,-9999,13179.801222625,-0.733062744140625,0.5756378173828125,-0.3790740966796875,13179.791145625,2.523072055383237,-1.096320076289074,-0.6057591567627485,-0.007966812700033188,-0.003550400957465172,-0.001613573404029012,0.001262068748474121,-0.0001266002655029297,-0.0004715323448181152,XArbitraryZVertical,-0.3963210890615235,0.3938767614959445,-0.8232953808521168,-0.099878001170893,-0.7312579154968262,0.5693863034248352,-0.3755813837051392,0,0,0,-1,-1,13173.68978425,unknown,2,2025-04-30T12:37:03.890+03:00,2025-04-30T12:00:08.093+03:00,179,1.435125,0,0,144.5252,0,0,2025-04-30T12:37:09.049+03:00,767698629.1509881,0,1.01,100.9538,1,0.75,2025-04-30T12:36:44.961+03:00,102,1.7,2025-04-22T14:20:19.516+03:00,0.02197104130929222,0
2025-04-30T12:37:10.016+03:00,1746005823.934455,40.95223000732172,29.1402646129218,76.18292,-1,-1,-1,-1,30,20.89625706053636,-9999,13179.811298625,-0.733978271484375,0.573974609375,-0.373748779296875,13179.801222625,2.523048580501074,-1.096298848801791,-0.6057881042686514,-0.004378069657832384,0.004349733237177134,0.003211608389392495,-0.002025961875915527,0.003496348857879639,-0.002264052629470825,XArbitraryZVertical,-0.3963020457450867,0.3938908937317586,-0.8232969716864001,-0.09988371728573503,-0.731235146522522,0.5694101452827454,-0.3755893111228943,0,0,0,-1,-1,13173.68978425,unknown,2,2025-04-30T12:37:03.890+03:00,2025-04-30T12:00:08.093+03:00,179,1.435125,0,0,144.5252,0,0,2025-04-30T12:37:09.049+03:00,767698629.1509881,0,1.01,100.9538,1,0.75,2025-04-30T12:36:44.961+03:00,102,1.7,2025-04-22T14:20:19.516+03:00,0.02197104130929222,0
2025-04-30T12:37:10.026+03:00,1746005823.934455,40.95223000732172,29.1402646129218,76.18292,-1,-1,-1,-1,30,20.89625706053636,-9999,13179.821375625,-0.73150634765625,0.5743408203125,-0.370819091796875,13179.811298625,2.52305166023837,-1.096231081720239,-0.6058627550617904,-0.001122887711971998,0.003156104357913136,0.006327240727841854,-0.002669036388397217,0.006379961967468262,-0.002172887325286865,XArbitraryZVertical,-0.3962599513084903,0.393914100296069,-0.8233072089320603,-0.09987528937145443,-0.7311719059944153,0.5694714784622192,-0.3756194710731506,0,0,0,-1,-1,13173.68978425,unknown,2,2025-04-30T12:37:03.890+03:00,2025-04-30T12:00:08.093+03:00,179,1.435125,0,0,144.5252,0,0,2025-04-30T12:37:09.049+03:00,767698629.1509881,0,1.01,100.9538,1,0.75,2025-04-30T12:36:44.961+03:00,102,1.7,2025-04-22T14:20:19.516+03:00,0.02197104130929222,0
2025-04-30T12:37:10.036+03:00,1746005823.934455,40.95223000732172,29.1402646129218,76.18292,-1,-1,-1,-1,30,20.89625706053636,-9999,13179.831452625,-0.727569580078125,0.5781707763671875,-0.373870849609375,13179.821375625,2.523159612467124,-1.096128038812048,-0.6059618082769561,0.0003947146178688854,0.00654058251529932,0.008441057987511158,-0.0021933913230896,0.004040241241455078,0.005277156829833984,XArbitraryZVertical,-0.3962191974169924,0.3939236564289474,-0.8233284575533167,-0.0998237983041642,-0.7310829758644104,0.5695528984069824,-0.375669002532959,0,0,0,-1,-1,13173.68978425,unknown,2,2025-04-30T12:37:03.890+03:00,2025-04-30T12:00:08.093+03:00,179,1.435125,0,0,144.5252,0,0,2025-04-30T12:37:09.049+03:00,767698629.1509881,0,1.01,100.9538,1,0.75,2025-04-30T12:36:44.961+03:00,102,1.7,2025-04-22T14:20:19.516+03:00,0.02197104130929222,0
2025-04-30T12:37:10.046+03:00,1746005823.934455,40.95223000732172,29.1402646129218,76.18292,-1,-1,-1,-1,30,20.89625706053636,-9999,13179.841528625,-0.72979736328125,0.56927490234375,-0.37109375,13179.831452625,2.523225675778212,-1.096006145171421,-0.6060266082766992,0.003751629265025258,0.009536905214190483,0.00660134619101882,0.00253450870513916,0.007053971290588379,0.002373963594436646,XArbitraryZVertical,-0.3961692053354738,0.3939280962708075,-0.8233529288309952,-0.09980273416800962,-0.7310043573379517,0.5696061849594116,-0.3757412433624268,0,0,0,-1,-1,13173.68978425,unknown,2,2025-04-30T12:37:03.890+03:00,2025-04-30T12:00:08.093+03:00,179,1.435125,0,0,144.5252,0,0,2025-04-30T12:37:09.049+03:00,767698629.1509881,0,1.01,100.9538,1,0.75,2025-04-30T12:36:44.961+03:00,102,1.7,2025-04-22T14:20:19.516+03:00,0.02197104130929222,0
2025-04-30T12:37:10.056+03:00,1746005823.934455,40.95223000732172,29.1402646129218,76.18292,-1,-1,-1,-1,30,20.89625706053636,-9999,13179.851605625,-0.7274322509765625,0.5709991455078125,-0.3736724853515625,13179.841528625,2.523275696322882,-1.095888105205728,-0.6060668359958928,0.001856457209214568,0.008378096856176853,0.003699665889143944,0.002012014389038086,0.006059587001800537,0.003227978944778442,XArbitraryZVertical,-0.3961225024648128,0.3939269561507636,-0.8233769569473006,-0.09979429225320001,-0.7309396266937256,0.5696392059326172,-0.3758170306682587,0,0,0,-1,-1,13173.68978425,unknown,2,2025-04-30T12:37:03.890+03:00,2025-04-30T12:00:08.093+03:00,179,1.435125,0,0,144.5252,0,0,2025-04-30T12:37:09.049+03:00,767698629.1509881,0,1.01,100.9538,1,0.75,2025-04-30T12:36:44.961+03:00,102,1.7,2025-04-22T14:20:19.516+03:00,0.02197104130929222,0
2025-04-30T12:37:10.066+03:00,1746005823.934455,40.95223000732172,29.1402646129218,76.18292,-1,-1,-1,-1,30,20.89625706053636,-9999,13179.861681625,-0.7275848388671875,0.57537841796875,-0.374298095703125,13179.851605625,2.523347889314857,-1.09574186215123,-0.6060953193717292,0.006349476054310799,0.009035365656018257,0.001920408103615046,0.001332283020019531,-0.001974582672119141,0.003983557224273682,XArbitraryZVertical,-0.3960708560702044,0.393915743339818,-0.8234082675237336,-0.09978558249789807,-0.730870246887207,0.5696626305580139,-0.3759165406227112,0,0,0,-1,-1,13173.68978425,unknown,2,2025-04-30T12:37:03.890+03:00,2025-04-30T12:00:08.093+03:00,179,1.435125,0,0,144.5252,0,0,2025-04-30T12:37:09.049+03:00,767698629.1509881,0,1.01,100.9538,1,0.75,2025-04-30T12:36:44.961+03:00,102,1.7,2025-04-22T14:20:19.516+03:00,0.02197104130929222,0
2025-04-30T12:37:10.076+03:00,1746005823.934455,40.95223000732172,29.1402646129218,76.18292,-1,-1,-1,-1,30,20.89625706053636,-9999,13179.871758625,-0.7259979248046875,0.5739898681640625,-0.3761138916015625,13179.861681625,2.523561609295245,-1.095534666327123,-0.6061124040919509,0.02239562198519707,0.00474880775436759,0.009644674137234688,0.003046274185180664,0.004923522472381592,0.001597553491592407,XArbitraryZVertical,-0.3960242656514796,0.3938693124045263,-0.8234591607143897,-0.09973367143756605,-0.7307837009429932,0.5696766972541809,-0.3760634958744049,0,0,0,-1,-1,13173.68978425,unknown,2,2025-04-30T12:37:03.890+03:00,2025-04-30T12:00:08.093+03:00,179,1.435125,0,0,144.5252,0,0,2025-04-30T12:37:09.049+03:00,767698629.1509881,0,1.01,100.9538,1,0.75,2025-04-30T12:36:44.961+03:00,102,1.7,2025-04-22T14:20:19.516+03:00,0.02197104130929222,0
2025-04-30T12:37:10.086+03:00,1746005823.934455,40.95223000732172,29.1402646129218,76.18292,-1,-1,-1,-1,30,20.89625706053636,-9999,13179.881835625,-0.7224578857421875,0.571685791015625,-0.3741455078125,13179.871758625,2.523842815973298,-1.095332975835428,-0.6060794202495875,0.02036868967115879,0.00363667169585824,0.009443605318665504,0.003688991069793701,0.004447042942047119,0.001448363065719604,XArbitraryZVertical,-0.396003135953451,0.3937915532669095,-0.8235145911710675,-0.0996666473869772,-0.7307245135307312,0.5696495771408081,-0.3762194514274597,0,0,0,-1,-1,13173.68978425,unknown,2,2025-04-30T12:37:03.890+03:00,2025-04-30T12:00:08.093+03:00,179,1.435125,0,0,144.5252,0,0,2025-04-30T12:37:09.049+03:00,767698629.1509881,0,1.01,100.9538,1,0.75,2025-04-30T12:36:44.961+03:00,102,1.7,2025-04-22T14:20:19.516+03:00,0.02197104130929222,0
2025-04-30T12:37:10.096+03:00,1746005823.934455,40.95223000732172,29.1402646129218,76.18292,-1,-1,-1,-1,30,20.89625706053636,-9999,13179.891911625,-0.7198028564453125,0.5623931884765625,-0.3760986328125,13179.881835625,2.524070595286794,-1.0951988396567,-0.606084979408792,0.01425580214709044,-0.003031217493116856,0.007348828949034214,0.006199240684509277,0.004289984703063965,0.001071929931640625,XArbitraryZVertical,-0.3959915932468078,0.3937418043681122,-0.8235523821812557,-0.09959790067884151,-0.7306713461875916,0.5696541666984558,-0.376316100358963,0,0,0,-1,-1,13173.68978425,unknown,2,2025-04-30T12:37:03.890+03:00,2025-04-30T12:00:08.093+03:00,179,1.435125,0,0,144.5252,0,0,2025-04-30T12:37:09.049+03:00,767698629.1509881,0,1.01,100.9538,1,0.75,2025-04-30T12:36:44.961+03:00,102,1.7,2025-04-22T14:20:19.516+03:00,0.02197104130929222,0
2025-04-30T12:37:10.107+03:00,1746005823.934455,40.95223000732172,29.1402646129218,76.18292,-1,-1,-1,-1,30,20.89625706053636,-9999,13179.901988625,-0.717376708984375,0.56463623046875,-0.3746490478515625,13179.891911625,2.524258824166633,-1.09514081643841,-0.6061004669719838,0.01381291914731264,-0.00516440998762846,0.007714214734733105,0.009282350540161133,-0.003169059753417969,0.001278162002563477,XArbitraryZVertical,-0.3960017063118274,0.3937072915425526,-0.8235724945346318,-0.09952750593260594,-0.7306416630744934,0.569666862487793,-0.3763544261455536,0,0,0,-1,-1,13173.68978425,unknown,2,2025-04-30T12:37:03.890+03:00,2025-04-30T12:00:08.093+03:00,179,1.435125,0,0,144.5252,0,0,2025-04-30T12:37:09.049+03:00,767698629.1509881,0,1.01,100.9538,1,0.75,2025-04-30T12:36:44.961+03:00,102,1.7,2025-04-22T14:20:19.516+03:00,0.02197104130929222,0
2025-04-30T12:37:10.116+03:00,1746005823.934455,40.95223000732172,29.1402646129218,76.18292,-1,-1,-1,-1,30,20.89625706053636,-9999,13179.912064625,-0.72039794921875,0.5721588134765625,-0.3725128173828125,13179.901988625,2.52441209585533,-1.095143897247419,-0.6061220118405068,0.01085947267711163,-0.007799607701599598,0.006313658319413662,0.01227861642837524,-0.007596492767333984,0.000263214111328125,XArbitraryZVertical,-0.3960288709344645,0.3936849526407708,-0.8235785554478969,-0.09945789288246104,-0.730631947517395,0.5696845650672913,-0.3763465881347656,0,0,0,-1,-1,13173.68978425,unknown,2,2025-04-30T12:37:03.890+03:00,2025-04-30T12:00:08.093+03:00,179,1.435125,0,0,144.5252,0,0,2025-04-30T12:37:09.049+03:00,767698629.1509881,0,1.01,100.9538,1,0.75,2025-04-30T12:36:44.961+03:00,102,1.7,2025-04-22T14:20:19.516+03:00,0.02197104130929222,0
2025-04-30T12:37:10.127+03:00,1746005823.934455,40.95223000732172,29.1402646129218,76.18292,-1,-1,-1,-1,30,20.89625706053636,-9999,13179.922141625,-0.7262725830078125,0.572662353515625,-0.3733978271484375,13179.912064625,2.524564486554595,-1.095124891818851,-0.6061687661543027,0.01295111887156963,-0.004785441793501377,0.006250541657209396,0.01247656345367432,-0.001241505146026611,0.002889394760131836,XArbitraryZVertical,-0.3960418143444428,0.3936708764443257,-0.8235876986569457,-0.09938594774812975,-0.7306010127067566,0.5697230100631714,-0.3763482570648193,0,0,0,-1,-1,13173.68978425,unknown,2,2025-04-30T12:37:03.890+03:00,2025-04-30T12:00:08.093+03:00,179,1.435125,0,0,144.5252,0,0,2025-04-30T12:37:09.049+03:00,767698629.1509881,0,1.01,100.9538,1,0.75,2025-04-30T12:36:44.961+03:00,102,1.7,2025-04-22T14:20:19.516+03:00,0.02197104130929222,0
2025-04-30T12:37:10.136+03:00,1746005823.934455,40.95223000732172,29.1402646129218,76.18292,-1,-1,-1,-1,30,20.89625706053636,-9999,13179.932218625,-0.728790283203125,0.570770263671875,-0.377166748046875,13179.922141625,2.524678106328132,-1.095084561012893,-0.606195508049396,0.003610747866332531,0.0007436801679432392,0.001807656488381326,0.007122576236724854,0.00393974781036377,0.002866089344024658,XArbitraryZVertical,-0.396042281620813,0.3936561243781814,-0.8236001026500915,-0.09933973604651683,-0.7305723428726196,0.5697450041770935,-0.3763707280158997,0,0,0,-1,-1,13173.68978425,unknown,2,2025-04-30T12:37:03.890+03:00,2025-04-30T12:00:08.093+03:00,179,1.435125,0,0,144.5252,0,0,2025-04-30T12:37:09.049+03:00,767698629.1509881,0,1.01,100.9538,1,0.75,2025-04-30T12:36:44.961+03:00,102,1.7,2025-04-22T14:20:19.516+03:00,0.02197104130929222,0
2025-04-30T12:37:10.147+03:00,1746005823.934455,40.95223000732172,29.1402646129218,76.18292,-1,-1,-1,-1,30,20.89625706053636,-9999,13179.942294625,-0.72686767578125,0.5679473876953125,-0.378509521484375,13179.932218625,2.524725545759925,-1.095070832141896,-0.6062046834832462,0.00664328970015049,-0.001066470518708229,0.003177586477249861,0.001680612564086914,0.00158238410949707,0.002278625965118408,XArbitraryZVertical,-0.3960441518243493,0.3936493940663419,-0.8236047539114769,-0.09932037412075512,-0.7305625081062317,0.5697525143623352,-0.3763783574104309,0,0,0,-1,-1,13173.68978425,unknown,2,2025-04-30T12:37:03.890+03:00,2025-04-30T12:00:08.093+03:00,179,1.435125,0,0,144.5252,0,0,2025-04-30T12:37:09.049+03:00,767698629.1509881,0,1.01,100.9538,1,0.75,2025-04-30T12:36:44.961+03:00,102,1.7,2025-04-22T14:20:19.516+03:00,0.02197104130929222,0
2025-04-30T12:37:10.157+03:00,1746005823.934455,40.95223000732172,29.1402646129218,76.18292,-1,-1,-1,-1,30,20.89625706053636,-9999,13179.952371625,-0.7241668701171875,0.565032958984375,-0.3746795654296875,13179.942294625,2.524828780510172,-1.095030255607248,-0.606234500746741,0.003517137840390205,-0.00108657730743289,0.00687545258551836,0.00303882360458374,0.0006728172302246094,-0.003162145614624023,XArbitraryZVertical,-0.3960418592838984,0.3936378100986678,-0.8236165595385181,-0.09927765690898029,-0.730532169342041,0.5697770118713379,-0.3764002323150635,0,0,0,-1,-1,13173.68978425,unknown,2,2025-04-30T12:37:03.890+03:00,2025-04-30T12:00:08.093+03:00,179,1.435125,0,0,144.5252,0,0,2025-04-30T12:37:09.049+03:00,767698629.1509881,0,1.01,100.9538,1,0.75,2025-04-30T12:36:44.961+03:00,102,1.7,2025-04-22T14:20:19.516+03:00,0.02197104130929222,0
2025-04-30T12:37:10.167+03:00,1746005823.934455,40.95223000732172,29.1402646129218,76.18292,-1,-1,-1,-1,30,20.89625706053636,-9999,13179.962447625,-0.72216796875,0.56982421875,-0.379150390625,13179.952371625,2.524913723463342,-1.095019137246853,-0.6062978700551802,0.002979179378598928,-0.004917800892144442,0.00898014847189188,0.005077719688415527,-0.005162358283996582,0.0005067884922027588,XArbitraryZVertical,-0.3960414891185561,0.3936435432099381,-0.823620015562992,-0.09922736223025329,-0.730495810508728,0.5698291063308716,-0.3763917982578278,0,0,0,-1,-1,13173.68978425,unknown,2,2025-04-30T12:37:03.890+03:00,2025-04-30T12:00:08.093+03:00,179,1.435125,0,0,144.5252,0,0,2025-04-30T12:37:09.049+03:00,767698629.1509881,0,1.01,100.9538,1,0.75,2025-04-30T12:36:44.961+03:00,102,1.7,2025-04-22T14:20:19.516+03:00,0.02197104130929222,0
2025-04-30T12:37:10.177+03:00,1746005823.934455,40.95223000732172,29.1402646129218,76.18292,-1,-1,-1,-1,30,20.89625706053636,-9999,13179.972524625,-0.72491455078125,0.570892333984375,-0.3782501220703125,13179.962447625,2.525044770358379,-1.09498861493649,-0.6063550186336778,0.01218599360436201,-0.005651768296957016,0.006647352129220963,0.007387101650238037,-0.00163877010345459,0.0003005564212799072,XArbitraryZVertical,-0.3960434231888778,0.3936369178740761,-0.8236299071816751,-0.09916364244855826,-0.7304553389549255,0.5698760747909546,-0.3763991594314575,0,0,0,-1,-1,13173.68978425,unknown,2,2025-04-30T12:37:03.890+03:00,2025-04-30T12:00:08.093+03:00,179,1.435125,0,0,144.5252,0,0,2025-04-30T12:37:09.049+03:00,767698629.1509881,0,1.01,100.9538,1,0.75,2025-04-30T12:36:44.961+03:00,102,1.7,2025-04-22T14:20:19.516+03:00,0.02197104130929222,0
2025-04-30T12:37:10.187+03:00,1746005823.934455,40.95223000732172,29.1402646129218,76.18292,-1,-1,-1,-1,30,20.89625706053636,-9999,13179.982601625,-0.7224578857421875,0.57763671875,-0.37762451171875,13179.972524625,2.525213903762841,-1.094943425810767,-0.6063729948312112,0.01023735851049423,-0.005071199499070644,0.004584734328091145,0.006765902042388916,0.0005590319633483887,-0.00315016508102417,XArbitraryZVertical,-0.3960545408900192,0.3936077417151472,-0.8236464274500612,-0.09909795434027312,-0.7304292321205139,0.5698908567428589,-0.3764275014400482,0,0,0,-1,-1,13173.68978425,unknown,2,2025-04-30T12:37:03.890+03:00,2025-04-30T12:00:08.093+03:00,179,1.435125,0,0,144.5252,0,0,2025-04-30T12:37:09.049+03:00,767698629.1509881,0,1.01,100.9538,1,0.75,2025-04-30T12:36:44.961+03:00,102,1.7,2025-04-22T14:20:19.516+03:00,0.02197104130929222,0
2025-04-30T12:37:10.197+03:00,1746005823.934455,40.95223000732172,29.1402646129218,76.18292,-1,-1,-1,-1,30,20.89625706053636,-9999,13179.992677625,-0.724212646484375,0.576324462890625,-0.3816680908203125,13179.982601625,2.525356234300239,-1.094886938346761,-0.606372634540905,0.01122685521841049,-0.003904335200786591,0.004205700010061264,0.005829334259033203,0.004724979400634766,-0.0001333355903625488,XArbitraryZVertical,-0.3960593443858939,0.393576628337846,-0.823664717650232,-0.09905059826937743,-0.7304081916809082,0.569890558719635,-0.3764688670635223,0,0,0,-1,-1,13173.68978425,unknown,2,2025-04-30T12:37:03.890+03:00,2025-04-30T12:00:08.093+03:00,179,1.435125,0,0,144.5252,0,0,2025-04-30T12:37:09.049+03:00,767698629.1509881,0,1.01,100.9538,1,0.75,2025-04-30T12:36:44.961+03:00,102,1.7,2025-04-22T14:20:19.516+03:00,0.02197104130929222,0
2025-04-30T12:37:10.207+03:00,1746005823.934455,40.95223000732172,29.1402646129218,76.18292,-1,-1,-1,-1,30,20.89625706053636,-9999,13180.002754625,-0.7263946533203125,0.573883056640625,-0.3809051513671875,13179.992677625,2.525479142953092,-1.094847096920854,-0.6063754718020955,0.01030140742659569,-0.002932281233370304,0.0007539768703281879,0.007857561111450195,0.008689939975738525,-0.002729475498199463,XArbitraryZVertical,-0.3960665563744697,0.3935513512601038,-0.8236785760044473,-0.09900705525508939,-0.730391800403595,0.5698928833007812,-0.3764972388744354,0,0,0,-1,-1,13173.68978425,unknown,2,2025-04-30T12:37:03.890+03:00,2025-04-30T12:00:08.093+03:00,179,1.435125,0,0,144.5252,0,0,2025-04-30T12:37:09.049+03:00,767698629.1509881,0,1.01,100.9538,1,0.75,2025-04-30T12:36:44.961+03:00,102,1.7,2025-04-22T14:20:19.516+03:00,0.02197104130929222,0
2025-04-30T12:37:10.217+03:00,1746005823.934455,40.95223000732172,29.1402646129218,76.18292,-1,-1,-1,-1,30,20.89625706053636,-9999,13180.012831625,-0.7259368896484375,0.5742340087890625,-0.3791046142578125,13180.002754625,2.525627062724551,-1.094775326187399,-0.6063729982286483,0.01242587808519602,-0.0003707865253090858,0.002209560945630074,0.004688501358032227,0.004984080791473389,-0.00511777400970459,XArbitraryZVertical,-0.3960665773091514,0.3935176057424373,-0.8237002620166103,-0.09896098367507193,-0.730366051197052,0.5698908567428589,-0.3765503168106079,0,0,0,-1,-1,13173.68978425,unknown,2,2025-04-30T12:37:03.890+03:00,2025-04-30T12:00:08.093+03:00,179,1.435125,0,0,144.5252,0,0,2025-04-30T12:37:09.049+03:00,767698629.1509881,0,1.01,100.9538,1,0.75,2025-04-30T12:36:44.961+03:00,102,1.7,2025-04-22T14:20:19.516+03:00,0.02197104130929222,0
2025-04-30T12:37:10.227+03:00,1746005823.934455,40.95223000732172,29.1402646129218,76.18292,-1,-1,-1,-1,30,20.89625706053636,-9999,13180.02290725,-0.7238006591796875,0.570098876953125,-0.3779144287109375,13180.012831625,2.525773598265618,-1.094708135846512,-0.6063573227542534,0.014100207015872,0.001262263860553503,0.005146228708326817,0.003175795078277588,0.004615485668182373,-0.002913117408752441,XArbitraryZVertical,-0.3960708422938788,0.3934795437889257,-0.8237215153559889,-0.09891813656689816,-0.7303486466407776,0.5698779821395874,-0.3766034841537476,0,0,0,-1,-1,13173.68978425,unknown,2,2025-04-30T12:37:03.890+03:00,2025-04-30T12:00:08.093+03:00,179,1.435125,0,0,144.5252,0,0,2025-04-30T12:37:09.049+03:00,767698629.1509881,0,1.01,100.9538,1,0.75,2025-04-30T12:36:44.961+03:00,102,1.7,2025-04-22T14:20:19.516+03:00,0.02197104130929222,0
2025-04-30T12:37:10.237+03:00,1746005823.934455,40.95223000732172,29.1402646129218,76.18292,-1,-1,-1,-1,30,20.89625706053636,-9999,13180.03298425,-0.7263031005859375,0.56689453125,-0.377960205078125,13180.02290725,2.526003066254942,-1.094551801056945,-0.6063295688697975,0.01882272399961948,0.00235782191157341,0.007623600773513317,0.005801141262054443,0.003860116004943848,-0.001784682273864746,XArbitraryZVertical,-0.3960571127301751,0.3934162429717019,-0.8237650111746647,-0.09886190987752129,-0.7303037643432617,0.5698551535606384,-0.3767248392105103,0,0,0,-1,-1,13173.68978425,unknown,2,2025-04-30T12:37:03.890+03:00,2025-04-30T12:00:08.093+03:00,179,1.435125,0,0,144.5252,0,0,2025-04-30T12:37:09.049+03:00,767698629.1509881,0,1.01,100.9538,1,0.75,2025-04-30T12:36:44.961+03:00,102,1.7,2025-04-22T14:20:19.516+03:00,0.02197104130929222,0
2025-04-30T12:37:10.247+03:00,1746005823.934455,40.95223000732172,29.1402646129218,76.18292,-1,-1,-1,-1,30,20.89625706053636,-9999,13180.04306025,-0.7263336181640625,0.56951904296875,-0.380889892578125,13180.03298425,2.526281164849072,-1.094349128006959,-0.6063227955343959,0.01840167865157127,0.003585805417969823,0.01107159536331892,0.005484104156494141,-0.002619385719299316,-0.001055032014846802,XArbitraryZVertical,-0.3960296689811931,0.3933486876152342,-0.8238192011368078,-0.09878909194248095,-0.7302308082580566,0.5698495507240295,-0.3768746256828308,0,0,0,-1,-1,13173.68978425,unknown,2,2025-04-30T12:37:03.890+03:00,2025-04-30T12:00:08.093+03:00,179,1.435125,0,0,144.5252,0,0,2025-04-30T12:37:09.049+03:00,767698629.1509881,0,1.01,100.9538,1,0.75,2025-04-30T12:36:44.961+03:00,102,1.7,2025-04-22T14:20:19.516+03:00,0.02197104130929222,0
2025-04-30T12:37:10.257+03:00,1746005823.934455,40.95223000732172,29.1402646129218,76.18292,-1,-1,-1,-1,30,20.89625706053636,-9999,13180.05313725,-0.7227630615234375,0.56683349609375,-0.3791046142578125,13180.04306025,2.526583129727947,-1.094144507767407,-0.6063186293302097,0.02180553041398525,0.0007088589482009411,0.01028266735374928,0.002631962299346924,-0.001776695251464844,-0.002140551805496216,XArbitraryZVertical,-0.3960056117618354,0.3932772698352427,-0.823874757436944,-0.09870601754402158,-0.7301557064056396,0.5698461532592773,-0.3770250976085663,0,0,0,-1,-1,13173.68978425,unknown,2,2025-04-30T12:37:03.890+03:00,2025-04-30T12:00:08.093+03:00,179,1.435125,0,0,144.5252,0,0,2025-04-30T12:37:09.049+03:00,767698629.1509881,0,1.01,100.9538,1,0.75,2025-04-30T12:36:44.961+03:00,102,1.7,2025-04-22T14:20:19.516+03:00,0.02197104130929222,0
2025-04-30T12:37:10.268+03:00,1746005823.934455,40.95223000732172,29.1402646129218,76.18292,-1,-1,-1,-1,30,20.89625706053636,-9999,13180.06321325,-0.72235107421875,0.568359375,-0.379730224609375,13180.05313725,2.526882693848521,-1.093951438221686,-0.6063374692839537,0.01899056881666183,-0.001975341234356165,0.01218176726251841,0.006043851375579834,-0.001471757888793945,-0.003408282995223999,XArbitraryZVertical,-0.3959812506290296,0.3932153098688777,-0.8239269118473923,-0.09861541836106097,-0.7300733923912048,0.5698616504669189,-0.3771611452102661,0,0,0,-1,-1,13173.68978425,unknown,2,2025-04-30T12:37:03.890+03:00,2025-04-30T12:00:08.093+03:00,179,1.435125,0,0,144.5252,0,0,2025-04-30T12:37:09.049+03:00,767698629.1509881,0,1.01,100.9538,1,0.75,2025-04-30T12:36:44.961+03:00,102,1.7,2025-04-22T14:20:19.516+03:00,0.02197104130929222,0
2025-04-30T12:37:10.278+03:00,1746005823.934455,40.95223000732172,29.1402646129218,76.18292,-1,-1,-1,-1,30,20.89625706053636,-9999,13180.07329025,-0.722900390625,0.5699310302734375,-0.379730224609375,13180.06321325,2.52714138237757,-1.093831497229486,-0.6063733504891149,0.0137693090364337,-0.005078589078038931,0.008582971058785915,0.008086144924163818,-0.003225445747375488,-0.001483798027038574,XArbitraryZVertical,-0.395975606507258,0.393171279152166,-0.8239617670501475,-0.09852258494165045,-0.7300100326538086,0.569891095161438,-0.377239316701889,0,0,0,-1,-1,13173.68978425,unknown,2,2025-04-30T12:37:03.890+03:00,2025-04-30T12:00:08.093+03:00,179,1.435125,0,0,144.5252,0,0,2025-04-30T12:37:09.049+03:00,767698629.1509881,0,1.01,100.9538,1,0.75,2025-04-30T12:36:44.961+03:00,102,1.7,2025-04-22T14:20:19.516+03:00,0.02197104130929222,0
2025-04-30T12:37:10.288+03:00,1746005823.934455,40.95223000732172,29.1402646129218,76.18292,-1,-1,-1,-1,30,20.89625706053636,-9999,13180.08336725,-0.7247467041015625,0.57501220703125,-0.3773651123046875,13180.07329025,2.52732187396072,-1.093753937401219,-0.6064275574625042,0.01043103728443384,-0.003174429293721914,0.00789028313010931,0.007983803749084473,-0.0006301999092102051,-0.002845108509063721,XArbitraryZVertical,-0.395968398193345,0.3931515177268823,-0.8239835996060584,-0.09844869005758203,-0.729953408241272,0.56993567943573,-0.3772818148136139,0,0,0,-1,-1,13173.68978425,unknown,2,2025-04-30T12:37:03.890+03:00,2025-04-30T12:00:08.093+03:00,179,1.435125,0,0,144.5252,0,0,2025-04-30T12:37:09.049+03:00,767698629.1509881,0,1.01,100.9538,1,0.75,2025-04-30T12:36:44.961+03:00,102,1.7,2025-04-22T14:20:19.516+03:00,0.02197104130929222,0
2025-04-30T12:37:10.302+03:00,1746005823.934455,40.95223000732172,29.1402646129218,76.18292,-1,-1,-1,-1,30,20.89625706053636,-9999,13180.09344325,-0.723785400390625,0.5696563720703125,-0.377105712890625,13180.08336725,2.527476805336129,-1.093679473565814,-0.6064503205230245,0.00414664251729846,-0.001589715015143156,0.007454656530171633,0.005991041660308838,0.002021431922912598,-0.001545548439025879,XArbitraryZVertical,-0.3959636728369145,0.3931254908117085,-0.8240049369149309,-0.09839327003901716,-0.7299138307571411,0.5699543952941895,-0.3773302435874939,0,0,0,-1,-1,13173.68978425,unknown,2,2025-04-30T12:37:03.890+03:00,2025-04-30T12:00:08.093+03:00,179,1.435125,0,0,144.5252,0,0,2025-04-30T12:37:09.049+03:00,767698629.1509881,0,1.01,100.9538,1,0.75,2025-04-30T12:36:44.961+03:00,102,1.7,2025-04-22T14:20:19.516+03:00,0.02197104130929222,0
2025-04-30T12:37:10.308+03:00,1746005823.934455,40.95223000732172,29.1402646129218,76.18292,-1,-1,-1,-1,30,20.89625706053636,-9999,13180.10352025,-0.723052978515625,0.570068359375,-0.378875732421875,13180.09344325,2.527567037406075,-1.09365630392693,-0.6065017955316845,0.005580754484981298,-0.005258219782263041,0.005326524376869202,0.005681514739990234,0.004313647747039795,-0.0004892647266387939,XArbitraryZVertical,-0.3959617637011929,0.3931252731977065,-0.8240114358033519,-0.09834633593005231,-0.7298789024353027,0.5699966549873352,-0.3773336112499237,0,0,0,-1,-1,13173.68978425,unknown,2,2025-04-30T12:37:03.890+03:00,2025-04-30T12:00:08.093+03:00,179,1.435125,0,0,144.5252,0,0,2025-04-30T12:37:09.049+03:00,767698629.1509881,0,1.01,100.9538,1,0.75,2025-04-30T12:36:44.961+03:00,102,1.7,2025-04-22T14:20:19.516+03:00,0.02197104130929222,0
2025-04-30T12:37:10.318+03:00,1746005823.934455,40.95223000732172,29.1402646129218,76.18292,-1,-1,-1,-1,30,20.89625706053636,-9999,13180.11359725,-0.7226104736328125,0.5712127685546875,-0.38177490234375,13180.10352025,2.527692943607378,-1.093633223628119,-0.6065471353809253,0.008381867781281471,-0.007188212592154741,0.009024323895573616,0.006931602954864502,-0.001674532890319824,-0.0004995465278625488,XArbitraryZVertical,-0.3959680448423893,0.3931157662927913,-0.8240201257501171,-0.09828657920582161,-0.7298473119735718,0.5700339078903198,-0.3773386180400848,0,0,0,-1,-1,13173.68978425,unknown,2,2025-04-30T12:37:03.890+03:00,2025-04-30T12:00:08.093+03:00,179,1.435125,0,0,144.5252,0,0,2025-04-30T12:37:09.049+03:00,767698629.1509881,0,1.01,100.9538,1,0.75,2025-04-30T12:36:44.961+03:00,102,1.7,2025-04-22T14:20:19.516+03:00,0.02197104130929222,0
2025-04-30T12:37:10.328+03:00,1746005823.934455,40.95223000732172,29.1402646129218,76.18292,-1,-1,-1,-1,30,20.89625706053636,-9999,13180.12367325,-0.7223663330078125,0.5725860595703125,-0.378692626953125,13180.11359725,2.52791009386926,-1.093578877217696,-0.6065721990063025,0.01866087131202221,-0.008643098175525665,0.006545719690620899,0.006364345550537109,0.001616120338439941,-0.003655552864074707,XArbitraryZVertical,-0.3959833731969893,0.3930792566269468,-0.8240404322112355,-0.09820095557208122,-0.7298141121864319,0.5700545310974121,-0.3773717284202576,0,0,0,-1,-1,13173.68978425,unknown,2,2025-04-30T12:37:03.890+03:00,2025-04-30T12:00:08.093+03:00,179,1.435125,0,0,144.5252,0,0,2025-04-30T12:37:09.049+03:00,767698629.1509881,0,1.01,100.9538,1,0.75,2025-04-30T12:36:44.961+03:00,102,1.7,2025-04-22T14:20:19.516+03:00,0.02197104130929222,0
2025-04-30T12:37:10.338+03:00,1746005823.934455,40.95223000732172,29.1402646129218,76.18292,-1,-1,-1,-1,30,20.89625706053636,-9999,13180.13375025,-0.7240142822265625,0.5742340087890625,-0.3783111572265625,13180.12367325,2.528159820992165,-1.093492383124649,-0.6065412957390439,0.02185293659567833,-0.00546168489381671,0.006718958262354136,0.007781684398651123,0.001092076301574707,-0.003767400979995728,XArbitraryZVertical,-0.3960029237878786,0.393014280058677,-0.8240712067134575,-0.09812349886426079,-0.7297970652580261,0.5700291395187378,-0.3774429261684418,0,0,0,-1,-1,13173.68978425,unknown,2,2025-04-30T12:37:03.890+03:00,2025-04-30T12:00:08.093+03:00,179,1.435125,0,0,144.5252,0,0,2025-04-30T12:37:09.049+03:00,767698629.1509881,0,1.01,100.9538,1,0.75,2025-04-30T12:36:44.961+03:00,102,1.7,2025-04-22T14:20:19.516+03:00,0.02197104130929222,0
2025-04-30T12:37:10.348+03:00,1746005823.934455,40.95223000732172,29.1402646129218,76.18292,-1,-1,-1,-1,30,20.89625706053636,-9999,13180.14382625,-0.72216796875,0.566131591796875,-0.3777923583984375,13180.13375025,2.528411217319011,-1.093371757331118,-0.606501279551834,0.01558651681989431,-0.005069401580840349,0.004100538324564695,0.006550967693328857,0.004909157752990723,-0.0003119409084320068,XArbitraryZVertical,-0.3960105163455105,0.3929439720835235,-0.8241092557401403,-0.09805457826357873,-0.7297717928886414,0.5699962377548218,-0.3775414228439331,0,0,0,-1,-1,13173.68978425,unknown,2,2025-04-30T12:37:03.890+03:00,2025-04-30T12:00:08.093+03:00,179,1.435125,0,0,144.5252,0,0,2025-04-30T12:37:09.049+03:00,767698629.1509881,0,1.01,100.9538,1,0.75,2025-04-30T12:36:44.961+03:00,102,1.7,2025-04-22T14:20:19.516+03:00,0.02197104130929222,0
2025-04-30T12:37:10.358+03:00,1746005823.934455,40.95223000732172,29.1402646129218,76.18292,-1,-1,-1,-1,30,20.89625706053636,-9999,13180.15390325,-0.7245941162109375,0.56610107421875,-0.3792266845703125,13180.14382625,2.528632684756128,-1.093274449116296,-0.6064690176634145,0.01653340458869934,-0.002788803074508905,0.002965033054351807,0.006454229354858398,0.0001749992370605469,-0.0006902813911437988,XArbitraryZVertical,-0.3960202845208639,0.3928835678456667,-0.8241408846562832,-0.09799130643053827,-0.7297513484954834,0.5699697136878967,-0.3776208758354187,0,0,0,-1,-1,13173.68978425,unknown,2,2025-04-30T12:37:03.890+03:00,2025-04-30T12:00:08.093+03:00,179,1.435125,0,0,144.5252,0,0,2025-04-30T12:37:09.049+03:00,767698629.1509881,0,1.01,100.9538,1,0.75,2025-04-30T12:36:44.961+03:00,102,1.7,2025-04-22T14:20:19.516+03:00,0.02197104130929222,0
2025-04-30T12:37:10.368+03:00,1746005823.934455,40.95223000732172,29.1402646129218,76.18292,-1,-1,-1,-1,30,20.89625706053636,-9999,13180.16398025,-0.724639892578125,0.56951904296875,-0.380096435546875,13180.15390325,2.528837724718971,-1.093175346095787,-0.606448162794501,0.01678001321852207,-0.00257841357961297,0.005090235266834497,0.006488382816314697,-0.004278779029846191,-0.0003988444805145264,XArbitraryZVertical,-0.3960238437328366,0.3928304945060286,-0.8241714914964603,-0.09793197299889672,-0.7297244668006897,0.5699526071548462,-0.3776986300945282,0,0,0,-1,-1,13173.68978425,unknown,2,2025-04-30T12:37:03.890+03:00,2025-04-30T12:00:08.093+03:00,179,1.435125,0,0,144.5252,0,0,2025-04-30T12:37:09.049+03:00,767698629.1509881,0,1.01,100.9538,1,0.75,2025-04-30T12:36:44.961+03:00,102,1.7,2025-04-22T14:20:19.516+03:00,0.02197104130929222,0
2025-04-30T12:37:10.378+03:00,1746005823.934455,40.95223000732172,29.1402646129218,76.18292,-1,-1,-1,-1,30,20.89625706053636,-9999,13180.17405625,-0.725433349609375,0.5700836181640625,-0.378204345703125,13180.16398025,2.529061418351144,-1.093067635198219,-0.6064219541759175,0.02029498666524887,-0.003452064003795385,0.003866712562739849,0.004492580890655518,-0.002319395542144775,-0.003166764974594116,XArbitraryZVertical,-0.3960285433591785,0.3927713548216561,-0.8242050162986131,-0.09786817383830745,-0.729697048664093,0.5699310898780823,-0.3777841031551361,0,0,0,-1,-1,13173.68978425,unknown,2,2025-04-30T12:37:03.890+03:00,2025-04-30T12:00:08.093+03:00,179,1.435125,0,0,144.5252,0,0,2025-04-30T12:37:09.049+03:00,767698629.1509881,0,1.01,100.9538,1,0.75,2025-04-30T12:36:44.961+03:00,102,1.7,2025-04-22T14:20:19.516+03:00,0.02197104130929222,0
2025-04-30T12:37:10.388+03:00,1746005823.934455,40.95223000732172,29.1402646129218,76.18292,-1,-1,-1,-1,30,20.89625706053636,-9999,13180.18413325,-0.7273406982421875,0.5695953369140625,-0.3795623779296875,13180.17405625,2.529310436330108,-1.092960016435677,-0.6064020572317593,0.02166837826371193,-0.004973261151462793,0.005896840244531631,0.004446685314178467,0.0008860230445861816,-0.0005653798580169678,XArbitraryZVertical,-0.396037020910717,0.3927095106108684,-0.8242394104695299,-0.09779211925198981,-0.7296664118766785,0.569914698600769,-0.3778678476810455,0,0,0,-1,-1,13173.68978425,unknown,2,2025-04-30T12:37:03.890+03:00,2025-04-30T12:00:08.093+03:00,179,1.435125,0,0,144.5252,0,0,2025-04-30T12:37:09.049+03:00,767698629.1509881,0,1.01,100.9538,1,0.75,2025-04-30T12:36:44.961+03:00,102,1.7,2025-04-22T14:20:19.516+03:00,0.02197104130929222,0
2025-04-30T12:37:10.398+03:00,1746005823.934455,40.95223000732172,29.1402646129218,76.18292,-1,-1,-1,-1,30,20.89625706053636,-9999,13180.19420925,-0.7249755859375,0.5692596435546875,-0.3804473876953125,13180.18413325,2.529568889323158,-1.092844740987564,-0.6063669844717077,0.02018373087048531,-0.001916418317705393,0.004519753158092499,0.002803504467010498,-0.0003973841667175293,-0.0005941092967987061,XArbitraryZVertical,-0.3960471353597977,0.3926398850694918,-0.8242765756406382,-0.09771794925764449,-0.7296406626701355,0.5698859095573425,-0.3779611885547638,0,0,0,-1,-1,13173.68978425,unknown,2,2025-04-30T12:37:03.890+03:00,2025-04-30T12:00:08.093+03:00,179,1.435125,0,0,144.5252,0,0,2025-04-30T12:37:09.049+03:00,767698629.1509881,0,1.01,100.9538,1,0.75,2025-04-30T12:36:44.961+03:00,102,1.7,2025-04-22T14:20:19.516+03:00,0.02197104130929222,0
2025-04-30T12:37:10.408+03:00,1746005823.934455,40.95223000732172,29.1402646129218,76.18292,-1,-1,-1,-1,30,20.89625706053636,-9999,13180.20428625,-0.724945068359375,0.5712432861328125,-0.382598876953125,13180.19420925,2.529820144907073,-1.09271002199644,-0.6063163846142311,0.02007880248129368,-0.0009270543232560158,-0.00101669249124825,0.002671360969543457,2.574920654296875e-05,-0.001443862915039062,XArbitraryZVertical,-0.3960508883040972,0.3925650598763508,-0.8243179026822814,-0.09765475053045343,-0.7296153903007507,0.5698443055152893,-0.3780727386474609,0,0,0,-1,-1,13173.68978425,unknown,2,2025-04-30T12:37:03.890+03:00,2025-04-30T12:00:08.093+03:00,179,1.435125,0,0,144.5252,0,0,2025-04-30T12:37:09.049+03:00,767698629.1509881,0,1.01,100.9538,1,0.75,2025-04-30T12:36:44.961+03:00,102,1.7,2025-04-22T14:20:19.516+03:00,0.02197104130929222,0
2025-04-30T12:37:10.418+03:00,1746005830.403322,40.9522128963286,29.14026521625192,76.22546,-1,-1,-1,-1,30,20.40287522475609,-9999,13180.21436325,-0.72735595703125,0.570709228515625,-0.3832855224609375,13180.20428625,2.530023538180159,-1.092579905663396,-0.6062330622418649,0.01878410764038563,-0.0004946896806359291,-0.002350603230297565,0.005105733871459961,-0.0004093647003173828,-0.002929270267486572,XArbitraryZVertical,-0.3960535650316284,0.3924879789537812,-0.8243575186808442,-0.09761936239766048,-0.7296082973480225,0.5697758197784424,-0.3781895339488983,0,0,0,-1,-1,13173.68978425,unknown,2,2025-04-30T12:37:03.890+03:00,2025-04-30T12:00:08.093+03:00,179,1.435125,0,0,144.5252,0,0,2025-04-30T12:37:09.049+03:00,767698629.1509881,0,1.01,100.9538,1,0.75,2025-04-30T12:36:44.961+03:00,102,1.7,2025-04-22T14:20:19.516+03:00,0.02197104130929222,0
2025-04-30T12:37:10.429+03:00,1746005830.403322,40.9522128963286,29.14026521625192,76.22546,-1,-1,-1,-1,30,20.40287522475609,-9999,13180.22443925,-0.725616455078125,0.56512451171875,-0.382293701171875,13180.21436325,2.530294430031609,-1.092398902999861,-0.6061314988776878,0.02741621248424053,-0.001592444721609354,-0.001557513838633895,0.002921879291534424,0.003610908985137939,-0.004601597785949707,XArbitraryZVertical,-0.3960520771817255,0.3923883795650666,-0.8244113725131111,-0.09757114959505556,-0.7295912504196167,0.5696923732757568,-0.3783482313156128,0,0,0,-1,-1,13173.68978425,unknown,2,2025-04-30T12:37:03.890+03:00,2025-04-30T12:00:08.093+03:00,179,1.435125,0,0,144.5252,0,0,2025-04-30T12:37:09.049+03:00,767698629.1509881,0,1.01,100.9538,1,0.75,2025-04-30T12:36:44.961+03:00,102,1.7,2025-04-22T14:20:19.516+03:00,0.02197104130929222,0
2025-04-30T12:37:10.439+03:00,1746005830.403322,40.9522128963286,29.14026521625192,76.22546,-1,-1,-1,-1,30,20.40287522475609,-9999,13180.23451625,-0.720458984375,0.565185546875,-0.378173828125,13180.22443925,2.5306166734928,-1.092236552330086,-0.6060134397227266,0.02839851751923561,-0.0001781731843948364,-0.001208706409670413,0.002248823642730713,-0.003387391567230225,-0.004284322261810303,XArbitraryZVertical,-0.396071550692715,0.3922734895017322,-0.8244648527774325,-0.09750267226766332,-0.729589581489563,0.5695953369140625,-0.3784976601600647,0,0,0,-1,-1,13173.68978425,unknown,2,2025-04-30T12:37:03.890+03:00,2025-04-30T12:00:08.093+03:00,179,1.435125,0,0,144.5252,0,0,2025-04-30T12:37:09.049+03:00,767698629.1509881,0,1.01,100.9538,1,0.75,2025-04-30T12:36:44.961+03:00,102,1.7,2025-04-22T14:20:19.516+03:00,0.02197104130929222,0
2025-04-30T12:37:10.449+03:00,1746005830.403322,40.9522128963286,29.14026521625192,76.22546,-1,-1,-1,-1,30,20.40287522475609,-9999,13180.24459225,-0.72137451171875,0.5615692138671875,-0.3750457763671875,13180.23451625,2.530933194203347,-1.092060172385016,-0.6059009798502157,0.02376115694642067,-0.001051157247275114,0.001215302851051092,0.007121682167053223,-0.003432273864746094,-0.002478182315826416,XArbitraryZVertical,-0.3960830277023365,0.3921610868930333,-0.8245204602216953,-0.09743762187315805,-0.7295796275138855,0.5695028901100159,-0.3786558210849762,0,0,0,-1,-1,13173.68978425,unknown,2,2025-04-30T12:37:03.890+03:00,2025-04-30T12:00:08.093+03:00,179,1.435125,0,0,144.5252,0,0,2025-04-30T12:37:09.049+03:00,767698629.1509881,0,1.01,100.9538,1,0.75,2025-04-30T12:36:44.961+03:00,102,1.7,2025-04-22T14:20:19.516+03:00,0.02197104130929222,0
2025-04-30T12:37:10.459+03:00,1746005830.403322,40.9522128963286,29.14026521625192,76.22546,-1,-1,-1,-1,30,20.40287522475609,-9999,13180.25466925,-0.719879150390625,0.5615081787109375,-0.375701904296875,13180.24459225,2.531202029570803,-1.091917746426287,-0.6058115352661997,0.02268943563103676,-0.003794013988226652,0.004224108997732401,0.009218692779541016,-0.006792008876800537,0.002943992614746094,XArbitraryZVertical,-0.3960945823573847,0.3920681981674971,-0.8245659873169094,-0.09737929640685056,-0.7295708656311035,0.5694293975830078,-0.3787832260131836,0,0,0,-1,-1,13173.68978425,unknown,2,2025-04-30T12:37:03.890+03:00,2025-04-30T12:00:08.093+03:00,179,1.435125,0,0,144.5252,0,0,2025-04-30T12:37:09.049+03:00,767698629.1509881,0,1.01,100.9538,1,0.75,2025-04-30T12:36:44.961+03:00,102,1.7,2025-04-22T14:20:19.516+03:00,0.02197104130929222,0
2025-04-30T12:37:10.469+03:00,1746005830.403322,40.9522128963286,29.14026521625192,76.22546,-1,-1,-1,-1,30,20.40287522475609,-9999,13180.26474625,-0.7220611572265625,0.5665435791015625,-0.3794708251953125,13180.25466925,2.531432027086874,-1.091833025841757,-0.6057679306531594,0.01548877917230129,-0.005066737998276949,0.003578558564186096,0.009315371513366699,-0.007458090782165527,0.003780186176300049,XArbitraryZVertical,-0.3961133070896466,0.3920025733808231,-0.8245959987315492,-0.09731303210388006,-0.7295607924461365,0.569393515586853,-0.3788564503192902,0,0,0,-1,-1,13173.68978425,unknown,2,2025-04-30T12:37:03.890+03:00,2025-04-30T12:00:08.093+03:00,179,1.435125,0,0,144.5252,0,0,2025-04-30T12:37:09.049+03:00,767698629.1509881,0,1.01,100.9538,1,0.75,2025-04-30T12:36:44.961+03:00,102,1.7,2025-04-22T14:20:19.516+03:00,0.02197104130929222,0
2025-04-30T12:37:10.479+03:00,1746005830.403322,40.9522128963286,29.14026521625192,76.22546,-1,-1,-1,-1,30,20.40287522475609,-9999,13180.27482225,-0.7264404296875,0.570556640625,-0.38165283203125,13180.26474625,2.531629111468765,-1.091768287871933,-0.6056952717157873,0.02037694491446018,-0.003837489522993565,-0.002645947737619281,0.009800612926483154,-0.005857169628143311,0.001786530017852783,XArbitraryZVertical,-0.3961395135939097,0.3919338097717334,-0.8246218180586445,-0.09726439513594989,-0.7295730113983154,0.5693337917327881,-0.3789227604866028,0,0,0,-1,-1,13173.68978425,unknown,2,2025-04-30T12:37:03.890+03:00,2025-04-30T12:00:08.093+03:00,179,1.435125,0,0,144.5252,0,0,2025-04-30T12:37:09.049+03:00,767698629.1509881,0,1.01,100.9538,1,0.75,2025-04-30T12:36:44.961+03:00,102,1.7,2025-04-22T14:20:19.516+03:00,0.02197104130929222,0
2025-04-30T12:37:10.489+03:00,1746005830.403322,40.9522128963286,29.14026521625192,76.22546,-1,-1,-1,-1,30,20.40287522475609,-9999,13180.28489925,-0.7288055419921875,0.57232666015625,-0.386199951171875,13180.27482225,2.531890963717682,-1.0916750782592,-0.6055150092660013,0.03202587738633156,-0.00723941158503294,-0.009817840531468391,0.004775106906890869,0.0002114176750183105,-0.002111256122589111,XArbitraryZVertical,-0.3961877839357504,0.3918114600645253,-0.8246614848386616,-0.09722415351609699,-0.7296286821365356,0.5691856145858765,-0.3790380358695984,0,0,0,-1,-1,13173.68978425,unknown,2,2025-04-30T12:37:03.890+03:00,2025-04-30T12:00:08.093+03:00,179,1.435125,0,0,144.5252,0,0,2025-04-30T12:37:09.049+03:00,767698629.1509881,0,1.01,100.9538,1,0.75,2025-04-30T12:36:44.961+03:00,102,1.7,2025-04-22T14:20:19.516+03:00,0.02197104130929222,0
2025-04-30T12:37:10.499+03:00,1746005830.403322,40.9522128963286,29.14026521625192,76.22546,-1,-1,-1,-1,30,20.40287522475609,-9999,13180.29497525,-0.7288665771484375,0.57684326171875,-0.3935089111328125,13180.28489925,2.532302469715098,-1.091541235122025,-0.6052214311938618,0.06144887953996658,-0.01301860436797142,-0.01085840445011854,0.002187132835388184,0.001505613327026367,-0.003767579793930054,XArbitraryZVertical,-0.3962708037292345,0.3916160039226431,-0.8247218185811692,-0.09716125339204035,-0.7297261357307434,0.5689442157745361,-0.3792127072811127,0,0,0,-1,-1,13173.68978425,unknown,2,2025-04-30T12:37:03.890+03:00,2025-04-30T12:00:08.093+03:00,179,1.435125,0,0,144.5252,0,0,2025-04-30T12:37:09.049+03:00,767698629.1509881,0,1.01,100.9538,1,0.75,2025-04-30T12:36:44.961+03:00,102,1.7,2025-04-22T14:20:19.516+03:00,0.02197104130929222,0
2025-04-30T12:37:10.510+03:00,1746005830.403322,40.9522128963286,29.14026521625192,76.22546,-1,-1,-1,-1,30,20.40287522475609,-9999,13180.30505225,-0.7304229736328125,0.57073974609375,-0.394195556640625,13180.29497525,2.532849642565216,-1.091350070281388,-0.6048302216243572,0.05966988950967789,-0.01514141075313091,-0.01761564239859581,0.001518547534942627,0.005275905132293701,-0.01106330752372742,XArbitraryZVertical,-0.3963757872804027,0.3913551014532173,-0.8248047225540391,-0.09708040857417377,-0.7298510670661926,0.5686224102973938,-0.3794548511505127,0,0,0,-1,-1,13173.68978425,unknown,2,2025-04-30T12:37:03.890+03:00,2025-04-30T12:00:08.093+03:00,179,1.435125,0,0,144.5252,0,0,2025-04-30T12:37:09.049+03:00,767698629.1509881,0,1.01,100.9538,1,0.75,2025-04-30T12:36:44.961+03:00,102,1.7,2025-04-22T14:20:19.516+03:00,0.02197104130929222,0
2025-04-30T12:37:10.519+03:00,1746005830.403322,40.9522128963286,29.14026521625192,76.22546,-1,-1,-1,-1,30,20.40287522475609,-9999,13180.31512925,-0.7308197021484375,0.563079833984375,-0.3920745849609375,13180.30505225,2.533522809042295,-1.09109553729111,-0.6043246674169266,0.08090107887983322,-0.01465092226862907,-0.02115554921329021,0.0004104375839233398,0.007828116416931152,-0.01442235708236694,XArbitraryZVertical,-0.3965014782355411,0.3910242121422949,-0.8249118177835427,-0.09699144562777801,-0.7300094962120056,0.5682064890861511,-0.3797732889652252,0,0,0,-1,-1,13173.68978425,unknown,2,2025-04-30T12:37:03.890+03:00,2025-04-30T12:00:08.093+03:00,179,1.435125,0,0,144.5252,0,0,2025-04-30T12:37:09.049+03:00,767698629.1509881,0,1.01,100.9538,1,0.75,2025-04-30T12:36:44.961+03:00,102,1.7,2025-04-22T14:20:19.516+03:00,0.02197104130929222,0
2025-04-30T12:37:10.529+03:00,1746005830.403322,40.9522128963286,29.14026521625192,76.22546,-1,-1,-1,-1,30,20.40287522475609,-9999,13180.32520525,-0.7335357666015625,0.5697479248046875,-0.388885498046875,13180.31512925,2.534382260915268,-1.090716957928875,-0.603714189855595,0.09950006008148193,-0.007476366590708494,-0.02396678179502487,-0.0002803206443786621,-0.003220319747924805,-0.01264303922653198,XArbitraryZVertical,-0.3966327442749223,0.3906118134894195,-0.8250573586696732,-0.09687838242642681,-0.7301732301712036,0.5677040219306946,-0.380209743976593,0,0,0,-1,-1,13173.68978425,unknown,2,2025-04-30T12:37:03.890+03:00,2025-04-30T12:00:08.093+03:00,179,1.435125,0,0,144.5252,0,0,2025-04-30T12:37:09.049+03:00,767698629.1509881,0,1.01,100.9538,1,0.75,2025-04-30T12:36:44.961+03:00,102,1.7,2025-04-22T14:20:19.516+03:00,0.02197104130929222,0
2025-04-30T12:37:10.540+03:00,1746005830.403322,40.9522128963286,29.14026521625192,76.22546,-1,-1,-1,-1,30,20.40287522475609,-9999,13180.33528225,-0.731658935546875,0.56964111328125,-0.39080810546875,13180.32520525,2.535338745562544,-1.090220636134933,-0.6030399396949425,0.09885837137699127,-0.001820478122681379,-0.02521320804953575,-0.002540826797485352,-0.0009714365005493164,-0.009280979633331299,XArbitraryZVertical,-0.3967464941262241,0.3901509310896158,-0.8252339087713653,-0.09676547348344318,-0.7303236126899719,0.5671488046646118,-0.3807489275932312,0,0,0,-1,-1,13173.68978425,unknown,2,2025-04-30T12:37:03.890+03:00,2025-04-30T12:00:08.093+03:00,179,1.435125,0,0,144.5252,0,0,2025-04-30T12:37:09.049+03:00,767698629.1509881,0,1.01,100.9538,1,0.75,2025-04-30T12:36:44.961+03:00,102,1.7,2025-04-22T14:20:19.516+03:00,0.02197104130929222,0
2025-04-30T12:37:10.550+03:00,1746005830.403322,40.9522128963286,29.14026521625192,76.22546,-1,-1,-1,-1,30,20.40287522475609,-9999,13180.34535925,-0.7294158935546875,0.5677947998046875,-0.393096923828125,13180.33528225,2.536276792269927,-1.089702298248311,-0.6023629652700186,0.09928979724645615,0.002772675827145576,-0.02621322497725487,-0.003252625465393066,0.003797650337219238,-0.007656753063201904,XArbitraryZVertical,-0.3968476691110229,0.3896914634532441,-0.8254140464917749,-0.09666490045357781,-0.7304662466049194,0.5665911436080933,-0.3813049793243408,0,0,0,-1,-1,13173.68978425,unknown,2,2025-04-30T12:37:03.890+03:00,2025-04-30T12:00:08.093+03:00,179,1.435125,0,0,144.5252,0,0,2025-04-30T12:37:09.049+03:00,767698629.1509881,0,1.01,100.9538,1,0.75,2025-04-30T12:36:44.961+03:00,102,1.7,2025-04-22T14:20:19.516+03:00,0.02197104130929222,0
2025-04-30T12:37:10.560+03:00,1746005830.403322,40.9522128963286,29.14026521625192,76.22546,-1,-1,-1,-1,30,20.40287522475609,-9999,13180.35543525,-0.7307891845703125,0.568359375,-0.393951416015625,13180.34535925,2.537182228442851,-1.089117755859954,-0.6016800998420108,0.1009655296802521,0.01354735903441906,-0.03007091581821442,0.0009717941284179688,0.002132713794708252,-0.01046866178512573,XArbitraryZVertical,-0.3969158049054068,0.3892329411825061,-0.8256062336816326,-0.09659222709258095,-0.730586051940918,0.5660282969474792,-0.3819111287593842,0,0,0,-1,-1,13173.68978425,unknown,2,2025-04-30T12:37:03.890+03:00,2025-04-30T12:00:08.093+03:00,179,1.435125,0,0,144.5252,0,0,2025-04-30T12:37:09.049+03:00,767698629.1509881,0,1.01,100.9538,1,0.75,2025-04-30T12:36:44.961+03:00,102,1.7,2025-04-22T14:20:19.516+03:00,0.02197104130929222,0
2025-04-30T12:37:10.570+03:00,1746005830.403322,40.9522128963286,29.14026521625192,76.22546,-1,-1,-1,-1,30,20.40287522475609,-9999,13180.36551225,-0.7274017333984375,0.5722808837890625,-0.4004669189453125,13180.35543525,2.538191876920791,-1.088318776913216,-0.6009135566867025,0.1213075518608093,0.03251625597476959,-0.03161421418190002,-0.0006889700889587402,0.00152885913848877,-0.009943246841430664,XArbitraryZVertical,-0.3969315551589713,0.3887124685933402,-0.825849858822244,-0.0965406316098634,-0.730664849281311,0.565396249294281,-0.3826959133148193,0,0,0,-1,-1,13173.68978425,unknown,2,2025-04-30T12:37:03.890+03:00,2025-04-30T12:00:08.093+03:00,179,1.435125,0,0,144.5252,0,0,2025-04-30T12:37:09.049+03:00,767698629.1509881,0,1.01,100.9538,1,0.75,2025-04-30T12:36:44.961+03:00,102,1.7,2025-04-22T14:20:19.516+03:00,0.02197104130929222,0
2025-04-30T12:37:10.580+03:00,1746005830.403322,40.9522128963286,29.14026521625192,76.22546,-1,-1,-1,-1,30,20.40287522475609,-9999,13180.37558825,-0.73114013671875,0.5836639404296875,-0.4054718017578125,13180.36551225,2.539647590175352,-1.087068834264046,-0.5999268896660797,0.1882761418819427,0.05368645861744881,-0.03529913350939751,0.001690685749053955,0.005684614181518555,-0.01334863901138306,XArbitraryZVertical,-0.3968897552969262,0.388000566353155,-0.8262149902729066,-0.09645201969219967,-0.7306793928146362,0.5645821094512939,-0.3838681578636169,0,0,0,-1,-1,13173.68978425,unknown,2,2025-04-30T12:37:03.890+03:00,2025-04-30T12:00:08.093+03:00,179,1.435125,0,0,144.5252,0,0,2025-04-30T12:37:09.049+03:00,767698629.1509881,0,1.01,100.9538,1,0.75,2025-04-30T12:36:44.961+03:00,102,1.7,2025-04-22T14:20:19.516+03:00,0.02197104130929222,0
2025-04-30T12:37:10.590+03:00,1746005830.403322,40.9522128963286,29.14026521625192,76.22546,-1,-1,-1,-1,30,20.40287522475609,-9999,13180.38566525,-0.7309112548828125,0.59503173828125,-0.414398193359375,13180.37558825,2.541827735639594,-1.085231127197921,-0.5986059421457507,0.2490875571966171,0.06355453282594681,-0.03376568481326103,0.002421200275421143,0.01300102472305298,-0.01596176624298096,XArbitraryZVertical,-0.396808821068721,0.3869931915145685,-0.8267476724105906,-0.09626812344034774,-0.7306317687034607,0.5634913444519043,-0.3855580687522888,0,0,0,-1,-1,13173.68978425,unknown,2,2025-04-30T12:37:03.890+03:00,2025-04-30T12:00:08.093+03:00,179,1.435125,0,0,144.5252,0,0,2025-04-30T12:37:09.049+03:00,767698629.1509881,0,1.01,100.9538,1,0.75,2025-04-30T12:36:44.961+03:00,102,1.7,2025-04-22T14:20:19.516+03:00,0.02197104130929222,0
2025-04-30T12:37:10.600+03:00,1746005830.403322,40.9522128963286,29.14026521625192,76.22546,-1,-1,-1,-1,30,20.40287522475609,-9999,13180.39574125,-0.7306060791015625,0.5730133056640625,-0.430999755859375,13180.38566525,2.544288959124019,-1.083134774738904,-0.5972318603338113,0.2295639961957932,0.0693347305059433,-0.0252469964325428,-0.001535236835479736,0.0292123556137085,-0.02252185344696045,XArbitraryZVertical,-0.3966830649328298,0.38589751235546,-0.8273476352302839,-0.09603021475509178,-0.7305052280426025,0.5623556971549988,-0.3874513208866119,0,0,0,-1,-1,13173.68978425,unknown,2,2025-04-30T12:37:03.890+03:00,2025-04-30T12:00:08.093+03:00,179,1.435125,0,0,144.5252,0,0,2025-04-30T12:37:09.049+03:00,767698629.1509881,0,1.01,100.9538,1,0.75,2025-04-30T12:36:44.961+03:00,102,1.7,2025-04-22T14:20:19.516+03:00,0.02197104130929222,0
2025-04-30T12:37:10.610+03:00,1746005830.403322,40.9522128963286,29.14026521625192,76.22546,-1,-1,-1,-1,30,20.40287522475609,-9999,13180.40581825,-0.733642578125,0.532806396484375,-0.45819091796875,13180.39574125,2.54616491296406,-1.08148208294628,-0.5961476329007843,0.1361730545759201,0.04814288765192032,-0.0221854280680418,0.0007719993591308594,0.02783560752868652,-0.03232023119926453,XArbitraryZVertical,-0.3965697411915246,0.3850457805856185,-0.8278174102272738,-0.09586763470180351,-0.7304015159606934,0.5614587664604187,-0.3889443874359131,0,0,0,-1,-1,13173.68978425,unknown,2,2025-04-30T12:37:03.890+03:00,2025-04-30T12:00:08.093+03:00,179,1.435125,0,0,144.5252,0,0,2025-04-30T12:37:09.049+03:00,767698629.1509881,0,1.01,100.9538,1,0.75,2025-04-30T12:36:44.961+03:00,102,1.7,2025-04-22T14:20:19.516+03:00,0.02197104130929222,0
2025-04-30T12:37:10.620+03:00,1746005830.403322,40.9522128963286,29.14026521625192,76.22546,-1,-1,-1,-1,30,20.40287522475609,-9999,13180.41589525,-0.729034423828125,0.52032470703125,-0.4727325439453125,13180.40581825,2.546965249800426,-1.080779205510482,-0.5956306133088507,0.0305837094783783,0.008067039772868156,-0.004008720628917217,-0.002205729484558105,-0.01079893112182617,-0.05407032370567322,XArbitraryZVertical,-0.3965322506793569,0.3846622812176114,-0.8280200145105806,-0.095812195276942,-0.7303839325904846,0.5610308647155762,-0.3895941972732544,0,0,0,-1,-1,13173.68978425,unknown,2,2025-04-30T12:37:03.890+03:00,2025-04-30T12:00:08.093+03:00,179,1.435125,0,0,144.5252,0,0,2025-04-30T12:37:09.049+03:00,767698629.1509881,0,1.01,100.9538,1,0.75,2025-04-30T12:36:44.961+03:00,102,1.7,2025-04-22T14:20:19.516+03:00,0.02197104130929222,0
2025-04-30T12:37:10.630+03:00,1746005830.403322,40.9522128963286,29.14026521625192,76.22546,-1,-1,-1,-1,30,20.40287522475609,-9999,13180.42597125,-0.7220458984375,0.517852783203125,-0.4383697509765625,13180.41589525,2.546423327133167,-1.081214631809426,-0.5961034654090425,-0.1865989416837692,-0.02366985008120537,0.04454097151756287,-0.002117812633514404,-0.03703868389129639,-0.08069723844528198,XArbitraryZVertical,-0.3965173032587533,0.3849654009096607,-0.8278848941211683,-0.09582410834625385,-0.7303193211555481,0.5614222288131714,-0.3891513347625732,0,0,0,-1,-1,13173.68978425,unknown,2,2025-04-30T12:37:03.890+03:00,2025-04-30T12:00:08.093+03:00,179,1.435125,0,0,144.5252,0,0,2025-04-30T12:37:09.049+03:00,767698629.1509881,0,1.01,100.9538,1,0.75,2025-04-30T12:36:44.961+03:00,102,1.7,2025-04-22T14:20:19.516+03:00,0.02197104130929222,0
2025-04-30T12:37:10.640+03:00,1746005830.403322,40.9522128963286,29.14026521625192,76.22546,-1,-1,-1,-1,30,20.40287522475609,-9999,13180.43604825,-0.7167510986328125,0.5180206298828125,-0.4196014404296875,13180.42597125,2.542833283866084,-1.083525301818307,-0.5982841795857834,-0.507341742515564,-0.02990370988845825,0.05402904748916626,0.004043638706207275,-0.04470127820968628,-0.07461339235305786,XArbitraryZVertical,-0.3963602382997852,0.3865930943866916,-0.8271496918828212,-0.09627000290290244,-0.7301331162452698,0.5632255077362061,-0.3868886828422546,0,0,0,-1,-1,13173.68978425,unknown,2,2025-04-30T12:37:03.890+03:00,2025-04-30T12:00:08.093+03:00,179,1.435125,0,0,144.5252,0,0,2025-04-30T12:37:09.049+03:00,767698629.1509881,0,1.01,100.9538,1,0.75,2025-04-30T12:36:44.961+03:00,102,1.7,2025-04-22T14:20:19.516+03:00,0.02197104130929222,0
2025-04-30T12:37:10.651+03:00,1746005830.403322,40.9522128963286,29.14026521625192,76.22546,-1,-1,-1,-1,30,20.40287522475609,-9999,13180.44612525,-0.722900390625,0.4967803955078125,-0.460723876953125,13180.43604825,2.53700817179997,-1.087189590642291,-0.6014479605784727,-0.6165279150009155,-0.05482290685176849,0.06136659160256386,0.01267945766448975,-0.04531377553939819,-0.03442072868347168,XArbitraryZVertical,-0.3961310273077236,0.3890888276435335,-0.8259910906290151,-0.09710281496558966,-0.7299646139144897,0.5658369064331055,-0.3833801746368408,0,0,0,-1,-1,13173.68978425,unknown,2,2025-04-30T12:37:03.890+03:00,2025-04-30T12:00:08.093+03:00,179,1.435125,0,0,144.5252,0,0,2025-04-30T12:37:09.049+03:00,767698629.1509881,0,1.01,100.9538,1,0.75,2025-04-30T12:36:44.961+03:00,102,1.7,2025-04-22T14:20:19.516+03:00,0.02197104130929222,0
2025-04-30T12:37:10.660+03:00,1746005830.403322,40.9522128963286,29.14026521625192,76.22546,-1,-1,-1,-1,30,20.40287522475609,-9999,13180.45620125,-0.71392822265625,0.5227203369140625,-0.4417266845703125,13180.44612525,2.529650524861695,-1.092113983086904,-0.6053120047771108,-0.8465573787689209,-0.09497752040624619,0.05442159995436668,0.009362280368804932,-0.06178593635559082,-0.06329137086868286,XArbitraryZVertical,-0.3959694575327097,0.3922023450097484,-0.8244747581059958,-0.09811766088028188,-0.7298976182937622,0.5690186619758606,-0.3787710070610046,0,0,0,-1,-1,13173.68978425,unknown,2,2025-04-30T12:37:03.890+03:00,2025-04-30T12:00:08.093+03:00,179,1.435125,0,0,144.5252,0,0,2025-04-30T12:37:09.049+03:00,767698629.1509881,0,1.01,100.9538,1,0.75,2025-04-30T12:36:44.961+03:00,102,1.7,2025-04-22T14:20:19.516+03:00,0.02197104130929222,0
2025-04-30T12:37:10.671+03:00,1746005830.403322,40.9522128963286,29.14026521625192,76.22546,-1,-1,-1,-1,30,20.40287522475609,-9999,13180.46627825,-0.708770751953125,0.5209808349609375,-0.4413909912109375,13180.45620125,2.519343049976622,-1.099221415242204,-0.6102789814190163,-1.101841568946838,-0.1543066203594208,0.05968507006764412,0.01045507192611694,-0.06885409355163574,-0.08560055494308472,XArbitraryZVertical,-0.3958803873200916,0.3964039819070525,-0.822328564134816,-0.09959135722835659,-0.7300443053245544,0.5730960965156555,-0.3722852170467377,0,0,0,-1,-1,13173.68978425,unknown,2,2025-04-30T12:37:03.890+03:00,2025-04-30T12:00:08.093+03:00,179,1.435125,0,0,144.5252,0,0,2025-04-30T12:37:09.049+03:00,767698629.1509881,0,1.01,100.9538,1,0.75,2025-04-30T12:36:44.961+03:00,102,1.7,2025-04-22T14:20:19.516+03:00,0.02197104130929222,0
2025-04-30T12:37:10.681+03:00,1746005830.403322,40.9522128963286,29.14026521625192,76.22546,-1,-1,-1,-1,30,20.40287522475609,-9999,13180.47635425,-0.696197509765625,0.4799346923828125,-0.4863433837890625,13180.46627825,2.505783845646055,-1.109046337135763,-0.6166858523195756,-1.438825845718384,-0.2407331913709641,0.08816221356391907,0.02025097608566284,-0.04569602012634277,-0.06889104843139648,XArbitraryZVertical,-0.3959199763367348,0.401897554291061,-0.8194146282202946,-0.1014179805350087,-0.7303645014762878,0.5783346891403198,-0.3634514510631561,0,0,0,-1,-1,13173.68978425,unknown,2,2025-04-30T12:37:03.890+03:00,2025-04-30T12:00:08.093+03:00,179,1.435125,0,0,144.5252,0,0,2025-04-30T12:37:09.049+03:00,767698629.1509881,0,1.01,100.9538,1,0.75,2025-04-30T12:36:44.961+03:00,102,1.7,2025-04-22T14:20:19.516+03:00,0.02197104130929222,0
2025-04-30T12:37:10.691+03:00,1746005830.403322,40.9522128963286,29.14026521625192,76.22546,-1,-1,-1,-1,30,20.40287522475609,-9999,13180.48643125,-0.6804351806640625,0.48095703125,-0.5281829833984375,13180.47635425,2.488706048666725,-1.121775074503822,-0.6246345648306364,-1.723127841949463,-0.3102880418300629,0.1145677268505096,0.025887131690979,-0.0862656831741333,-0.1113057136535645,XArbitraryZVertical,-0.3960360594185964,0.4087737271134433,-0.8156764324989831,-0.1035932328340499,-0.7307669520378113,0.5848008990287781,-0.352118968963623,0,0,0,-1,-1,13173.68978425,unknown,2,2025-04-30T12:37:03.890+03:00,2025-04-30T12:00:08.093+03:00,179,1.435125,0,0,144.5252,0,0,2025-04-30T12:37:09.049+03:00,767698629.1509881,0,1.01,100.9538,1,0.75,2025-04-30T12:36:44.961+03:00,102,1.7,2025-04-22T14:20:19.516+03:00,0.02197104130929222,0
2025-04-30T12:37:10.701+03:00,1746005830.403322,40.9522128963286,29.14026521625192,76.22546,-1,-1,-1,-1,30,20.40287522475609,-9999,13180.49650825,-0.6561737060546875,0.5231781005859375,-0.594635009765625,13180.48643125,2.46924754470893,-1.136899692008229,-0.6340481244901572,-1.884155035018921,-0.4222249388694763,0.2498340755701065,0.04236739873886108,-0.1174811124801636,-0.1668113172054291,XArbitraryZVertical,-0.3962050034990912,0.4167410072946717,-0.8112777616941096,-0.1057211604570215,-0.7309812903404236,0.5924109220504761,-0.3386970460414886,0,0,0,-1,-1,13173.68978425,unknown,2,2025-04-30T12:37:03.890+03:00,2025-04-30T12:00:08.093+03:00,179,1.435125,0,0,144.5252,0,0,2025-04-30T12:37:09.049+03:00,767698629.1509881,0,1.01,100.9538,1,0.75,2025-04-30T12:36:44.961+03:00,102,1.7,2025-04-22T14:20:19.516+03:00,0.02197104130929222,0
