loggingTime(txt),locationTimestamp_since1970(s),locationLatitude(WGS84),locationLongitude(WGS84),locationAltitude(m),locationSpeed(m/s),locationSpeedAccuracy(m/s),locationCourse(°),locationCourseAccuracy(°),locationVerticalAccuracy(m),locationHorizontalAccuracy(m),locationFloor(Z),accelerometerTimestamp_sinceReboot(s),accelerometerAccelerationX(G),accelerometerAccelerationY(G),accelerometerAccelerationZ(G),motionTimestamp_sinceReboot(s),motionYaw(rad),motionRoll(rad),motionPitch(rad),motionRotationRateX(rad/s),motionRotationRateY(rad/s),motionRotationRateZ(rad/s),motionUserAccelerationX(G),motionUserAccelerationY(G),motionUserAccelerationZ(G),motionAttitudeReferenceFrame(txt),motionQuaternionX(R),motionQuaternionY(R),motionQuaternionZ(R),motionQuaternionW(R),motionGravityX(G),motionGravityY(G),motionGravityZ(G),motionMagneticFieldX(µT),motionMagneticFieldY(µT),motionMagneticFieldZ(µT),motionHeading(°),motionMagneticFieldCalibrationAccuracy(Z),activityTimestamp_sinceReboot(s),activity(txt),activityActivityConfidence(Z),activityActivityStartDate(txt),pedometerStartDate(txt),pedometerNumberofSteps(N),pedometerAverageActivePace(s/m),pedometerCurrentPace(s/m),pedometerCurrentCadence(steps/s),pedometerDistance(m),pedometerFloorAscended(N),pedometerFloorDescended(N),pedometerEndDate(txt),altimeterTimestamp_sinceReboot(s),altimeterReset(bool),altimeterRelativeAltitude(m),altimeterPressure(kPa),batteryState(N),batteryLevel(R),heartRateBPMTimestamp(txt),heartRateBPM(N),heartRateBPS(R),heartRateVariabilityTimestamp(txt),heartRateVariability(ms),label
2025-04-30T12:16:33.283+03:00,1746004590.822486,40.95209689816259,29.14023898507819,76.36157,-1,-1,-1,-1,30,67.48781531964896,-9999,12195.870039875,-0.67864990234375,0.6600799560546875,-0.2966156005859375,12195.859963875,2.427301793571038,-1.151633547293155,-0.7278780605164565,0.03993562236428261,0.001770801842212677,0.01861128397285938,-0.00455242395401001,0.02105343341827393,-0.0004020929336547852,XArbitraryZVertical,0.3723689394321729,-0.457615869369586,0.8021138618534167,0.0924260018627291,-0.6819558143615723,0.6652868986129761,-0.3038581907749176,0,0,0,-1,-1,12173.33683954167,unknown,2,2025-04-30T12:15:54.596+03:00,2025-04-30T12:00:08.093+03:00,132,1.288074,0,0,109.9097,0,0,2025-04-30T12:15:54.596+03:00,767697390.8104054,0,1.97,100.9423,1,0.8,2025-04-30T12:16:28.395+03:00,94,1.566666666666667,2025-04-22T14:20:19.516+03:00,0.02197104130929222,0
2025-04-30T12:16:33.284+03:00,1746004590.822486,40.95209689816259,29.14023898507819,76.36157,-1,-1,-1,-1,30,67.48781531964896,-9999,12195.880116875,-0.6818695068359375,0.6636505126953125,-0.2949981689453125,12195.870039875,2.427841544758518,-1.151246446765171,-0.727880343407348,0.03727312758564949,0.01152289845049381,0.0192707497626543,-0.007753729820251465,-0.01123583316802979,0.02036911249160767,XArbitraryZVertical,0.3723366327828523,-0.4574982662636748,0.8022107647329413,0.09229745046117296,-0.6818367838859558,0.6652886271476746,-0.3041215240955353,0,0,0,-1,-1,12173.33683954167,unknown,2,2025-04-30T12:15:54.596+03:00,2025-04-30T12:00:08.093+03:00,132,1.288074,0,0,109.9097,0,0,2025-04-30T12:15:54.596+03:00,767697390.8104054,0,1.97,100.9423,1,0.8,2025-04-30T12:16:28.395+03:00,94,1.566666666666667,2025-04-22T14:20:19.516+03:00,0.02197104130929222,0
2025-04-30T12:16:33.285+03:00,1746004590.822486,40.95209689816259,29.14023898507819,76.36157,-1,-1,-1,-1,30,67.48781531964896,-9999,12195.890192875,-0.68304443359375,0.66546630859375,-0.30389404296875,12195.880116875,2.428303855328812,-1.150868406914782,-0.7279166473143642,0.03015210293233395,0.01398605573922396,0.01826753653585911,0.003049731254577637,-0.005235731601715088,0.007753849029541016,XArbitraryZVertical,0.3722824704778109,-0.457406874942607,0.8023006006855937,0.09218792003824092,-0.6816996932029724,0.6653157472610474,-0.3043694198131561,0,0,0,-1,-1,12173.33683954167,unknown,2,2025-04-30T12:15:54.596+03:00,2025-04-30T12:00:08.093+03:00,132,1.288074,0,0,109.9097,0,0,2025-04-30T12:15:54.596+03:00,767697390.8104054,0,1.97,100.9423,1,0.8,2025-04-30T12:16:28.395+03:00,94,1.566666666666667,2025-04-22T14:20:19.516+03:00,0.02197104130929222,0
2025-04-30T12:16:33.299+03:00,1746004590.822486,40.95209689816259,29.14023898507819,76.36157,-1,-1,-1,-1,30,67.48781531964896,-9999,12195.900269875,-0.6814727783203125,0.659576416015625,-0.3053741455078125,12195.890192875,2.428714050967604,-1.150531398772734,-0.7279774942591215,0.02592999488115311,0.01031974889338017,0.01673944853246212,-0.0003094077110290527,-0.00171053409576416,0.009584486484527588,XArbitraryZVertical,0.3722272155933286,-0.4573352991022209,0.8023791396873416,0.09208280885011691,-0.6815601587295532,0.6653611660003662,-0.3045826554298401,0,0,0,-1,-1,12173.33683954167,unknown,2,2025-04-30T12:15:54.596+03:00,2025-04-30T12:00:08.093+03:00,132,1.288074,0,0,109.9097,0,0,2025-04-30T12:15:54.596+03:00,767697390.8104054,0,1.97,100.9423,1,0.8,2025-04-30T12:16:28.395+03:00,94,1.566666666666667,2025-04-22T14:20:19.516+03:00,0.02197104130929222,0
2025-04-30T12:16:33.303+03:00,1746004590.822486,40.95209689816259,29.14023898507819,76.36157,-1,-1,-1,-1,30,67.48781531964896,-9999,12195.910345875,-0.6851806640625,0.661102294921875,-0.301361083984375,12195.900269875,2.429128286342936,-1.150148333447506,-0.7280382951433557,0.02892684936523438,0.01853666640818119,0.02041647396981716,-0.001638114452362061,5.972385406494141e-05,0.0009330809116363525,XArbitraryZVertical,0.3721544667526365,-0.4572608629647506,0.802466241992057,0.0919863634569857,-0.6814063191413879,0.6654065251350403,-0.3048271238803864,0,0,0,-1,-1,12173.33683954167,unknown,2,2025-04-30T12:15:54.596+03:00,2025-04-30T12:00:08.093+03:00,132,1.288074,0,0,109.9097,0,0,2025-04-30T12:15:54.596+03:00,767697390.8104054,0,1.97,100.9423,1,0.8,2025-04-30T12:16:28.395+03:00,94,1.566666666666667,2025-04-22T14:20:19.516+03:00,0.02197104130929222,0
2025-04-30T12:16:33.313+03:00,1746004590.822486,40.95209689816259,29.14023898507819,76.36157,-1,-1,-1,-1,30,67.48781531964896,-9999,12195.920422875,-0.6848602294921875,0.6683349609375,-0.3021697998046875,12195.910345875,2.429557842090325,-1.149691060780456,-0.7281199526026774,0.03384025022387505,0.02814122289419174,0.02151669375598431,-0.0002555251121520996,-0.005891084671020508,-0.000257641077041626,XArbitraryZVertical,0.372050615067171,-0.4571871755995804,0.8025668567275237,0.09189482836845893,-0.6812172532081604,0.6654675006866455,-0.3051164448261261,0,0,0,-1,-1,12173.33683954167,unknown,2,2025-04-30T12:15:54.596+03:00,2025-04-30T12:00:08.093+03:00,132,1.288074,0,0,109.9097,0,0,2025-04-30T12:15:54.596+03:00,767697390.8104054,0,1.97,100.9423,1,0.8,2025-04-30T12:16:28.395+03:00,94,1.566666666666667,2025-04-22T14:20:19.516+03:00,0.02197104130929222,0
2025-04-30T12:16:33.323+03:00,1746004590.822486,40.95209689816259,29.14023898507819,76.36157,-1,-1,-1,-1,30,67.48781531964896,-9999,12195.930498875,-0.682342529296875,0.6654205322265625,-0.3025970458984375,12195.920422875,2.429980383056225,-1.149246909991469,-0.7280762988390411,0.04116979986429214,0.02736757509410381,0.0182372760027647,-0.004072368144989014,-0.004332602024078369,0.00406983494758606,XArbitraryZVertical,0.3719788489004238,-0.4570736073997354,0.8026711896738937,0.09183952734737019,-0.6811082363128662,0.6654348969459534,-0.3054309189319611,0,0,0,-1,-1,12173.33683954167,unknown,2,2025-04-30T12:15:54.596+03:00,2025-04-30T12:00:08.093+03:00,132,1.288074,0,0,109.9097,0,0,2025-04-30T12:15:54.596+03:00,767697390.8104054,0,1.97,100.9423,1,0.8,2025-04-30T12:16:28.395+03:00,94,1.566666666666667,2025-04-22T14:20:19.516+03:00,0.02197104130929222,0
2025-04-30T12:16:33.333+03:00,1746004590.822486,40.95209689816259,29.14023898507819,76.36157,-1,-1,-1,-1,30,67.48781531964896,-9999,12195.94057404167,-0.6830902099609375,0.6606903076171875,-0.3001708984375,12195.930498875,2.430671261807174,-1.148408513836117,-0.7281461577721448,0.03310282155871391,0.02628899365663528,0.01550274342298508,-0.004050672054290771,0.002847969532012939,0.003813028335571289,XArbitraryZVertical,0.3717843038734756,-0.4569300046847604,0.8028552154582096,0.0917335938002429,-0.6808096170425415,0.6654870510101318,-0.3059827983379364,0,0,0,-1,-1,12173.33683954167,unknown,2,2025-04-30T12:15:54.596+03:00,2025-04-30T12:00:08.093+03:00,132,1.288074,0,0,109.9097,0,0,2025-04-30T12:15:54.596+03:00,767697390.8104054,0,1.97,100.9423,1,0.8,2025-04-30T12:16:28.395+03:00,94,1.566666666666667,2025-04-22T14:20:19.516+03:00,0.02197104130929222,0
2025-04-30T12:16:33.343+03:00,1746004590.822486,40.95209689816259,29.14023898507819,76.36157,-1,-1,-1,-1,30,67.48781531964896,-9999,12195.95065004167,-0.681640625,0.662933349609375,-0.3026885986328125,12195.94057404167,2.431118544346964,-1.147848172355751,-0.7282130006848276,0.03133954107761383,0.02635051310062408,0.01492297276854515,-0.001745045185089111,-0.0001163482666015625,0.003748953342437744,XArbitraryZVertical,0.3716463375504174,-0.4568435210971214,0.8029764157700855,0.09166268385601878,-0.6805974841117859,0.6655369400978088,-0.3063459992408752,0,0,0,-1,-1,12173.33683954167,unknown,2,2025-04-30T12:15:54.596+03:00,2025-04-30T12:00:08.093+03:00,132,1.288074,0,0,109.9097,0,0,2025-04-30T12:15:54.596+03:00,767697390.8104054,0,1.97,100.9423,1,0.8,2025-04-30T12:16:28.395+03:00,94,1.566666666666667,2025-04-22T14:20:19.516+03:00,0.02197104130929222,0
2025-04-30T12:16:33.354+03:00,1746004590.822486,40.95209689816259,29.14023898507819,76.36157,-1,-1,-1,-1,30,67.48781531964896,-9999,12195.96072704167,-0.6776123046875,0.6608734130859375,-0.3043670654296875,12195.95065004167,2.431412024649131,-1.14750789218484,-0.7281689969816355,0.02912805043160915,0.0241968147456646,0.01286967564374208,-0.002570390701293945,-0.004813730716705322,0.006418704986572266,XArbitraryZVertical,0.3715867548847762,-0.456758684781072,0.8030553387230168,0.09163526205604655,-0.6805198788642883,0.6655040979385376,-0.3065895736217499,0,0,0,-1,-1,12173.33683954167,unknown,2,2025-04-30T12:15:54.596+03:00,2025-04-30T12:00:08.093+03:00,132,1.288074,0,0,109.9097,0,0,2025-04-30T12:15:54.596+03:00,767697390.8104054,0,1.97,100.9423,1,0.8,2025-04-30T12:16:28.395+03:00,94,1.566666666666667,2025-04-22T14:20:19.516+03:00,0.02197104130929222,0
2025-04-30T12:16:33.364+03:00,1746004590.822486,40.95209689816259,29.14023898507819,76.36157,-1,-1,-1,-1,30,67.48781531964896,-9999,12195.97080404167,-0.6774749755859375,0.6579437255859375,-0.30450439453125,12195.96072704167,2.431776147985106,-1.147088089978058,-0.7281733443996229,0.02389121055603027,0.01805316843092442,0.01152424607425928,-0.001252174377441406,-0.002573966979980469,0.004185467958450317,XArbitraryZVertical,0.3715003521985905,-0.4566732649878314,0.803149765976451,0.09158363538440091,-0.6803884506225586,0.6655073165893555,-0.3068740367889404,0,0,0,-1,-1,12173.33683954167,unknown,2,2025-04-30T12:15:54.596+03:00,2025-04-30T12:00:08.093+03:00,132,1.288074,0,0,109.9097,0,0,2025-04-30T12:15:54.596+03:00,767697390.8104054,0,1.97,100.9423,1,0.8,2025-04-30T12:16:28.395+03:00,94,1.566666666666667,2025-04-22T14:20:19.516+03:00,0.02197104130929222,0
2025-04-30T12:16:33.374+03:00,1746004590.822486,40.95209689816259,29.14023898507819,76.36157,-1,-1,-1,-1,30,67.48781531964896,-9999,12195.98088004167,-0.67608642578125,0.658203125,-0.3052825927734375,12195.97080404167,2.432067468432133,-1.14679353709663,-0.7281577227719945,0.02377562969923019,0.01251539215445518,0.007094876375049353,0.002695202827453613,-0.004622220993041992,0.002711713314056396,XArbitraryZVertical,0.3714520930289271,-0.4566004493340816,0.8032186866935818,0.09153850727528795,-0.6803075671195984,0.6654956936836243,-0.3070787489414215,0,0,0,-1,-1,12173.33683954167,unknown,2,2025-04-30T12:15:54.596+03:00,2025-04-30T12:00:08.093+03:00,132,1.288074,0,0,109.9097,0,0,2025-04-30T12:15:54.596+03:00,767697390.8104054,0,1.97,100.9423,1,0.8,2025-04-30T12:16:28.395+03:00,94,1.566666666666667,2025-04-22T14:20:19.516+03:00,0.02197104130929222,0
2025-04-30T12:16:33.384+03:00,1746004590.822486,40.95209689816259,29.14023898507819,76.36157,-1,-1,-1,-1,30,67.48781531964896,-9999,12195.99095704167,-0.676513671875,0.6627349853515625,-0.3046417236328125,12195.98088004167,2.432443572282588,-1.146440051752873,-0.7280923795699397,0.03092115558683872,0.01179474033415318,0.005163818132132292,0.002763509750366211,-0.007503151893615723,0.002832710742950439,XArbitraryZVertical,0.3714108239526508,-0.4564925629768491,0.8033049107525068,0.09148699790378056,-0.6802385449409485,0.665446937084198,-0.3073370754718781,0,0,0,-1,-1,12173.33683954167,unknown,2,2025-04-30T12:15:54.596+03:00,2025-04-30T12:00:08.093+03:00,132,1.288074,0,0,109.9097,0,0,2025-04-30T12:15:54.596+03:00,767697390.8104054,0,1.97,100.9423,1,0.8,2025-04-30T12:16:28.395+03:00,94,1.566666666666667,2025-04-22T14:20:19.516+03:00,0.02197104130929222,0
2025-04-30T12:16:33.394+03:00,1746004590.822486,40.95209689816259,29.14023898507819,76.36157,-1,-1,-1,-1,30,67.48781531964896,-9999,12196.00103304167,-0.6791534423828125,0.66558837890625,-0.30419921875,12195.99095704167,2.432795419699489,-1.146064066870748,-0.727975524945654,0.02650057524442673,0.0161743089556694,0.0004857097519561648,0.004107356071472168,-0.007156550884246826,0.002342253923416138,XArbitraryZVertical,0.3713666180282086,-0.4563709210466977,0.8033968971187857,0.09146525030359071,-0.6801937222480774,0.6653596758842468,-0.3076248466968536,0,0,0,-1,-1,12173.33683954167,unknown,2,2025-04-30T12:15:54.596+03:00,2025-04-30T12:00:08.093+03:00,132,1.288074,0,0,109.9097,0,0,2025-04-30T12:15:54.596+03:00,767697393.3892071,0,2.27,100.9393,1,0.8,2025-04-30T12:16:28.395+03:00,94,1.566666666666667,2025-04-22T14:20:19.516+03:00,0.02197104130929222,0
2025-04-30T12:16:33.404+03:00,1746004590.822486,40.95209689816259,29.14023898507819,76.36157,-1,-1,-1,-1,30,67.48781531964896,-9999,12196.01111004167,-0.6782684326171875,0.6637115478515625,-0.3065948486328125,12196.00103304167,2.433062927250051,-1.145760221815949,-0.7278317559396391,0.02572499588131905,0.0150261539965868,-0.001572014996781945,0.003673732280731201,-0.002517342567443848,0.003229230642318726,XArbitraryZVertical,0.3713381936200923,-0.4562592263925099,0.8034730667509351,0.0914687098793534,-0.6801873445510864,0.6652523279190063,-0.3078709244728088,0,0,0,-1,-1,12173.33683954167,unknown,2,2025-04-30T12:15:54.596+03:00,2025-04-30T12:00:08.093+03:00,132,1.288074,0,0,109.9097,0,0,2025-04-30T12:15:54.596+03:00,767697393.3892071,0,2.27,100.9393,1,0.8,2025-04-30T12:16:28.395+03:00,94,1.566666666666667,2025-04-22T14:20:19.516+03:00,0.02197104130929222,0
2025-04-30T12:16:33.414+03:00,1746004590.822486,40.95209689816259,29.14023898507819,76.36157,-1,-1,-1,-1,30,67.48781531964896,-9999,12196.02118604167,-0.680816650390625,0.662078857421875,-0.301788330078125,12196.01111004167,2.433338218156402,-1.145450645292811,-0.7277074304453905,0.02378108911216259,0.01768285594880581,-0.002844373462721705,0.00101393461227417,0.0004288554191589355,0.003916412591934204,XArbitraryZVertical,0.3713047849461932,-0.4561523281187968,0.8035496692219853,0.09146473145740297,-0.6801673769950867,0.6651595234870911,-0.3081156313419342,0,0,0,-1,-1,12173.33683954167,unknown,2,2025-04-30T12:15:54.596+03:00,2025-04-30T12:00:08.093+03:00,132,1.288074,0,0,109.9097,0,0,2025-04-30T12:15:54.596+03:00,767697393.3892071,0,2.27,100.9393,1,0.8,2025-04-30T12:16:28.395+03:00,94,1.566666666666667,2025-04-22T14:20:19.516+03:00,0.02197104130929222,0
2025-04-30T12:16:33.424+03:00,1746004590.822486,40.95209689816259,29.14023898507819,76.36157,-1,-1,-1,-1,30,67.48781531964896,-9999,12196.03126304167,-0.6797637939453125,0.662322998046875,-0.3023529052734375,12196.02118604167,2.433598627057262,-1.145117320951708,-0.7275828408540435,0.02499948628246784,0.02196095883846283,-0.002761282958090305,0.001871645450592041,-0.001354873180389404,0.001781702041625977,XArbitraryZVertical,0.3712584633938632,-0.4560470121749879,0.8036300187058525,0.09147219667134203,-0.6801401376724243,0.6650664806365967,-0.3083765506744385,0,0,0,-1,-1,12173.33683954167,unknown,2,2025-04-30T12:15:54.596+03:00,2025-04-30T12:00:08.093+03:00,132,1.288074,0,0,109.9097,0,0,2025-04-30T12:15:54.596+03:00,767697393.3892071,0,2.27,100.9393,1,0.8,2025-04-30T12:16:28.395+03:00,94,1.566666666666667,2025-04-22T14:20:19.516+03:00,0.02197104130929222,0
2025-04-30T12:16:33.435+03:00,1746004590.822486,40.95209689816259,29.14023898507819,76.36157,-1,-1,-1,-1,30,67.48781531964896,-9999,12196.04133904167,-0.675872802734375,0.6618804931640625,-0.3064422607421875,12196.03126304167,2.433858928024462,-1.144785526789445,-0.727432990287451,0.02798615396022797,0.01820503547787666,-0.004072124138474464,-0.0006881356239318848,-0.002875626087188721,0.0068550705909729,XArbitraryZVertical,0.371218414399913,-0.4559333155904052,0.8037114151303567,0.0914866395712149,-0.6801285743713379,0.6649545431137085,-0.3086434006690979,0,0,0,-1,-1,12173.33683954167,unknown,2,2025-04-30T12:15:54.596+03:00,2025-04-30T12:00:08.093+03:00,132,1.288074,0,0,109.9097,0,0,2025-04-30T12:15:54.596+03:00,767697393.3892071,0,2.27,100.9393,1,0.8,2025-04-30T12:16:28.395+03:00,94,1.566666666666667,2025-04-22T14:20:19.516+03:00,0.02197104130929222,0
2025-04-30T12:16:33.445+03:00,1746004590.822486,40.95209689816259,29.14023898507819,76.36157,-1,-1,-1,-1,30,67.48781531964896,-9999,12196.05141604167,-0.67755126953125,0.6602325439453125,-0.3083343505859375,12196.04133904167,2.434121668742784,-1.144477386322068,-0.7272723293495894,0.02462923899292946,0.01430776529014111,-0.005841261707246304,0.0003668665885925293,-0.002511441707611084,0.006544202566146851,XArbitraryZVertical,0.3711908356766284,-0.4558166138111024,0.8037891072217462,0.09149780281989918,-0.6801307201385498,0.6648345589637756,-0.3088971674442291,0,0,0,-1,-1,12173.33683954167,unknown,2,2025-04-30T12:15:54.596+03:00,2025-04-30T12:00:08.093+03:00,132,1.288074,0,0,109.9097,0,0,2025-04-30T12:15:54.596+03:00,767697393.3892071,0,2.27,100.9393,1,0.8,2025-04-30T12:16:28.395+03:00,94,1.566666666666667,2025-04-22T14:20:19.516+03:00,0.02197104130929222,0
2025-04-30T12:16:33.455+03:00,1746004590.822486,40.95209689816259,29.14023898507819,76.36157,-1,-1,-1,-1,30,67.48781531964896,-9999,12196.06149204167,-0.6765289306640625,0.660675048828125,-0.3091888427734375,12196.05141604167,2.434372888086795,-1.144208434784927,-0.7271272253587747,0.02569856494665146,0.01051096338778734,-0.004484081640839577,0.004262626171112061,-0.002845585346221924,0.002677708864212036,XArbitraryZVertical,0.3711728241366691,-0.4557090458254501,0.8038581828972284,0.09150012952947981,-0.6801354885101318,0.664726197719574,-0.3091199994087219,0,0,0,-1,-1,12173.33683954167,unknown,2,2025-04-30T12:15:54.596+03:00,2025-04-30T12:00:08.093+03:00,132,1.288074,0,0,109.9097,0,0,2025-04-30T12:15:54.596+03:00,767697393.3892071,0,2.27,100.9393,1,0.8,2025-04-30T12:16:28.395+03:00,94,1.566666666666667,2025-04-22T14:20:19.516+03:00,0.02197104130929222,0
2025-04-30T12:16:33.465+03:00,1746004590.822486,40.95209689816259,29.14023898507819,76.36157,-1,-1,-1,-1,30,67.48781531964896,-9999,12196.07156904167,-0.676483154296875,0.6632537841796875,-0.3102569580078125,12196.06149204167,2.434638336338836,-1.143937875147024,-0.727002307288401,0.02363860979676247,0.009965548291802406,-0.001288821105845273,0.002575993537902832,-0.004400253295898438,0.00100398063659668,XArbitraryZVertical,0.3711528694604196,-0.4556055154880793,0.803927017454737,0.09149104562452809,-0.6801272630691528,0.6646328568458557,-0.3093383312225342,0,0,0,-1,-1,12173.33683954167,unknown,2,2025-04-30T12:15:54.596+03:00,2025-04-30T12:00:08.093+03:00,132,1.288074,0,0,109.9097,0,0,2025-04-30T12:15:54.596+03:00,767697393.3892071,0,2.27,100.9393,1,0.8,2025-04-30T12:16:28.395+03:00,94,1.566666666666667,2025-04-22T14:20:19.516+03:00,0.02197104130929222,0
2025-04-30T12:16:33.475+03:00,1746004590.822486,40.95209689816259,29.14023898507819,76.36157,-1,-1,-1,-1,30,67.48781531964896,-9999,12196.08164504167,-0.6751251220703125,0.6629486083984375,-0.312530517578125,12196.07156904167,2.434931658442755,-1.143684887200229,-0.7269078942500635,0.02322488650679588,0.006401306949555874,0.002382812555879354,0.003577172756195068,-0.00388723611831665,0.000347524881362915,XArbitraryZVertical,0.3711393572073642,-0.4555078462713822,0.8039923382066798,0.09145802359404356,-0.6801061034202576,0.6645622849464417,-0.3095363676548004,0,0,0,-1,-1,12173.33683954167,unknown,2,2025-04-30T12:15:54.596+03:00,2025-04-30T12:00:08.093+03:00,132,1.288074,0,0,109.9097,0,0,2025-04-30T12:15:54.596+03:00,767697393.3892071,0,2.27,100.9393,1,0.8,2025-04-30T12:16:28.395+03:00,94,1.566666666666667,2025-04-22T14:20:19.516+03:00,0.02197104130929222,0
2025-04-30T12:16:33.485+03:00,1746004590.822486,40.95209689816259,29.14023898507819,76.36157,-1,-1,-1,-1,30,67.48781531964896,-9999,12196.09172204167,-0.676300048828125,0.667083740234375,-0.3134918212890625,12196.08164504167,2.43525089832587,-1.143433802925525,-0.7268345718523566,0.02720897644758224,0.00227686925791204,0.002443266101181507,0.003589510917663574,-0.001253664493560791,-0.0005296468734741211,XArbitraryZVertical,0.3711277157483913,-0.4554125289369738,0.8040573699997402,0.09140801907629452,-0.6800726652145386,0.6645075082778931,-0.309727281332016,0,0,0,-1,-1,12173.33683954167,unknown,2,2025-04-30T12:15:54.596+03:00,2025-04-30T12:00:08.093+03:00,132,1.288074,0,0,109.9097,0,0,2025-04-30T12:15:54.596+03:00,767697393.3892071,0,2.27,100.9393,1,0.8,2025-04-30T12:16:28.395+03:00,94,1.566666666666667,2025-04-22T14:20:19.516+03:00,0.02197104130929222,0
2025-04-30T12:16:33.495+03:00,1746004590.822486,40.95209689816259,29.14023898507819,76.36157,-1,-1,-1,-1,30,67.48781531964896,-9999,12196.10179804167,-0.680450439453125,0.6662139892578125,-0.310455322265625,12196.09172204167,2.435540573351572,-1.143239189702275,-0.7267629889366787,0.01918620429933071,0.002008155919611454,0.001631667953915894,0.004930555820465088,-0.00150531530380249,-0.0026511549949646,XArbitraryZVertical,0.3711315943694311,-0.455325866921995,0.8041105435208816,0.09135661590633634,-0.6800557374954224,0.6644539833068848,-0.3098793923854828,0,0,0,-1,-1,12173.33683954167,unknown,2,2025-04-30T12:15:54.596+03:00,2025-04-30T12:00:08.093+03:00,132,1.288074,0,0,109.9097,0,0,2025-04-30T12:15:54.596+03:00,767697393.3892071,0,2.27,100.9393,1,0.8,2025-04-30T12:16:28.395+03:00,94,1.566666666666667,2025-04-22T14:20:19.516+03:00,0.02197104130929222,0
2025-04-30T12:16:33.505+03:00,1746004590.822486,40.95209689816259,29.14023898507819,76.36157,-1,-1,-1,-1,30,67.48781531964896,-9999,12196.11187504167,-0.6867828369140625,0.6604766845703125,-0.30145263671875,12196.10179804167,2.435680938844523,-1.143065490342137,-0.7267343052589559,0.008785228244960308,0.01654901541769505,0.00330333411693573,0.003719091415405273,0.002651214599609375,-0.003486394882202148,XArbitraryZVertical,0.3711002080712771,-0.4552822595168261,0.8041506757492183,0.09134797100240487,-0.680019199848175,0.6644325852394104,-0.310005396604538,0,0,0,-1,-1,12173.33683954167,unknown,2,2025-04-30T12:15:54.596+03:00,2025-04-30T12:00:08.093+03:00,132,1.288074,0,0,109.9097,0,0,2025-04-30T12:15:54.596+03:00,767697393.3892071,0,2.27,100.9393,1,0.8,2025-04-30T12:16:28.395+03:00,94,1.566666666666667,2025-04-22T14:20:19.516+03:00,0.02197104130929222,0
2025-04-30T12:16:33.515+03:00,1746004590.822486,40.95209689816259,29.14023898507819,76.36157,-1,-1,-1,-1,30,67.48781531964896,-9999,12196.12195104167,-0.6822662353515625,0.666015625,-0.301239013671875,12196.11187504167,2.435791524237683,-1.142790795949227,-0.7268172911816083,0.01024244353175163,0.03380756452679634,0.00824413076043129,-0.0005665421485900879,0.001719474792480469,-0.0002859830856323242,XArbitraryZVertical,0.370996138993113,-0.4552770541143197,0.8042023639166227,0.09134216086392462,-0.6798838973045349,0.6644945740699768,-0.3101693391799927,0,0,0,-1,-1,12173.33683954167,unknown,2,2025-04-30T12:15:54.596+03:00,2025-04-30T12:00:08.093+03:00,132,1.288074,0,0,109.9097,0,0,2025-04-30T12:15:54.596+03:00,767697393.3892071,0,2.27,100.9393,1,0.8,2025-04-30T12:16:28.395+03:00,94,1.566666666666667,2025-04-22T14:20:19.516+03:00,0.02197104130929222,0
2025-04-30T12:16:33.526+03:00,1746004590.822486,40.95209689816259,29.14023898507819,76.36157,-1,-1,-1,-1,30,67.48781531964896,-9999,12196.13202804167,-0.6779937744140625,0.662933349609375,-0.2957000732421875,12196.12195104167,2.435919915384997,-1.142414117993037,-0.7268916812769627,0.009030172601342201,0.03215667232871056,0.01681604608893394,-0.007060825824737549,-0.004073441028594971,0.00895226001739502,XArbitraryZVertical,0.3708570815718631,-0.4552610096607009,0.8042741444928871,0.09135478845929018,-0.6797220706939697,0.6645501852035522,-0.3104048669338226,0,0,0,-1,-1,12173.33683954167,unknown,2,2025-04-30T12:15:54.596+03:00,2025-04-30T12:00:08.093+03:00,132,1.288074,0,0,109.9097,0,0,2025-04-30T12:15:54.596+03:00,767697393.3892071,0,2.27,100.9393,1,0.8,2025-04-30T12:16:28.395+03:00,94,1.566666666666667,2025-04-22T14:20:19.516+03:00,0.02197104130929222,0
2025-04-30T12:16:33.535+03:00,1746004590.822486,40.95209689816259,29.14023898507819,76.36157,-1,-1,-1,-1,30,67.48781531964896,-9999,12196.14210504167,-0.6748809814453125,0.6608428955078125,-0.306610107421875,12196.13202804167,2.436184866928376,-1.141924977880608,-0.727053115026389,0.01563980616629124,0.02746251784265041,0.0220926683396101,-0.002793610095977783,0.001344919204711914,0.009453713893890381,XArbitraryZVertical,0.3706841752882893,-0.4552437591933119,0.8043683917624204,0.09131301800015555,-0.6794726252555847,0.6646708250045776,-0.3106927275657654,0,0,0,-1,-1,12173.33683954167,unknown,2,2025-04-30T12:15:54.596+03:00,2025-04-30T12:00:08.093+03:00,132,1.288074,0,0,109.9097,0,0,2025-04-30T12:15:54.596+03:00,767697393.3892071,0,2.27,100.9393,1,0.8,2025-04-30T12:16:28.395+03:00,94,1.566666666666667,2025-04-22T14:20:19.516+03:00,0.02197104130929222,0
2025-04-30T12:16:33.547+03:00,1746004590.822486,40.95209689816259,29.14023898507819,76.36157,-1,-1,-1,-1,30,67.48781531964896,-9999,12196.15218104167,-0.6721038818359375,0.668487548828125,-0.31817626953125,12196.14210504167,2.436487349293463,-1.141482294043067,-0.7271866003143965,0.01796554401516914,0.01994441263377666,0.02221384085714817,0.001260519027709961,-0.001837074756622314,0.01525649428367615,XArbitraryZVertical,0.3705447965949458,-0.4552123340593783,0.804457159550495,0.09125363247349462,-0.679254412651062,0.6647705435752869,-0.3109565675258636,0,0,0,-1,-1,12173.33683954167,unknown,2,2025-04-30T12:15:54.596+03:00,2025-04-30T12:00:08.093+03:00,132,1.288074,0,0,109.9097,0,0,2025-04-30T12:15:54.596+03:00,767697393.3892071,0,2.27,100.9393,1,0.8,2025-04-30T12:16:28.395+03:00,94,1.566666666666667,2025-04-22T14:20:19.516+03:00,0.02197104130929222,0
2025-04-30T12:16:33.563+03:00,1746004590.822486,40.95209689816259,29.14023898507819,76.36157,-1,-1,-1,-1,30,67.48781531964896,-9999,12196.16225804167,-0.6778411865234375,0.66705322265625,-0.3173370361328125,12196.15218104167,2.436831124683754,-1.141104270117413,-0.7272463422568295,0.02178085595369339,0.009417802095413208,0.01008983422070742,0.004219591617584229,-0.003972232341766357,0.004586637020111084,XArbitraryZVertical,0.3704574978118919,-0.4551514751087415,0.8045396469742155,0.09118409073146878,-0.6791006326675415,0.6648151278495789,-0.3111967444419861,0,0,0,-1,-1,12173.33683954167,unknown,2,2025-04-30T12:15:54.596+03:00,2025-04-30T12:00:08.093+03:00,132,1.288074,0,0,109.9097,0,0,2025-04-30T12:15:54.596+03:00,767697393.3892071,0,2.27,100.9393,1,0.8,2025-04-30T12:16:28.395+03:00,94,1.566666666666667,2025-04-22T14:20:19.516+03:00,0.02197104130929222,0
2025-04-30T12:16:33.565+03:00,1746004590.822486,40.95209689816259,29.14023898507819,76.36157,-1,-1,-1,-1,30,67.48781531964896,-9999,12196.17233404167,-0.6786346435546875,0.6689453125,-0.3168487548828125,12196.16225804167,2.437150347477451,-1.140830948295015,-0.727201877920547,0.0276001300662756,0.003650993341580033,0.002451621927320957,0.006938457489013672,0.003705680370330811,-0.006781578063964844,XArbitraryZVertical,0.3704302388317616,-0.4550649484591407,0.8046071704664259,0.09113065819741184,-0.6790423989295959,0.664781928062439,-0.3113946616649628,0,0,0,-1,-1,12173.33683954167,unknown,2,2025-04-30T12:15:54.596+03:00,2025-04-30T12:00:08.093+03:00,132,1.288074,0,0,109.9097,0,0,2025-04-30T12:15:54.596+03:00,767697393.3892071,0,2.27,100.9393,1,0.8,2025-04-30T12:16:28.395+03:00,94,1.566666666666667,2025-04-22T14:20:19.516+03:00,0.02197104130929222,0
2025-04-30T12:16:33.575+03:00,1746004590.822486,40.95209689816259,29.14023898507819,76.36157,-1,-1,-1,-1,30,67.48781531964896,-9999,12196.18241104167,-0.678863525390625,0.6681976318359375,-0.3096466064453125,12196.17233404167,2.437470923105987,-1.140513083236993,-0.7271180646247996,0.02608945034444332,0.01417540572583675,-0.005570950917899609,0.001152753829956055,0.002333998680114746,-0.00570330023765564,XArbitraryZVertical,0.3703941961173071,-0.4549629269699276,0.804685157699697,0.09109822161433526,-0.6789940595626831,0.6647193431854248,-0.3116337358951569,0,0,0,-1,-1,12173.33683954167,unknown,2,2025-04-30T12:15:54.596+03:00,2025-04-30T12:00:08.093+03:00,132,1.288074,0,0,109.9097,0,0,2025-04-30T12:15:54.596+03:00,767697393.3892071,0,2.27,100.9393,1,0.8,2025-04-30T12:16:28.395+03:00,94,1.566666666666667,2025-04-22T14:20:19.516+03:00,0.02197104130929222,0
2025-04-30T12:16:33.585+03:00,1746004590.822486,40.95209689816259,29.14023898507819,76.36157,-1,-1,-1,-1,30,67.48781531964896,-9999,12196.19248704167,-0.6751251220703125,0.6555633544921875,-0.3042755126953125,12196.18241104167,2.437776675506405,-1.140243478156476,-0.7269675882100335,0.02542898617684841,0.002050300361588597,-0.00607322296127677,0.0003662109375,0.004338443279266357,-0.004990220069885254,XArbitraryZVertical,0.3703892354055335,-0.4548434341387892,0.8047570444717993,0.09107988615950248,-0.6790008544921875,0.6646068692207336,-0.3118585348129272,0,0,0,-1,-1,12173.33683954167,unknown,2,2025-04-30T12:15:54.596+03:00,2025-04-30T12:00:08.093+03:00,132,1.288074,0,0,109.9097,0,0,2025-04-30T12:15:54.596+03:00,767697393.3892071,0,2.27,100.9393,1,0.8,2025-04-30T12:16:28.395+03:00,94,1.566666666666667,2025-04-22T14:20:19.516+03:00,0.02197104130929222,0
2025-04-30T12:16:33.595+03:00,1746004590.822486,40.95209689816259,29.14023898507819,76.36157,-1,-1,-1,-1,30,67.48781531964896,-9999,12196.20256404167,-0.6747589111328125,0.660308837890625,-0.3043365478515625,12196.19248704167,2.438001394840977,-1.140105478512473,-0.7267645404947153,0.02204776927828789,-0.002219079528003931,-0.01497673615813255,0.0002168416976928711,0.003742516040802002,0.002361953258514404,XArbitraryZVertical,0.370430622715351,-0.4547272517307147,0.8048037050358852,0.09107938526308468,-0.6790804266929626,0.6644551753997803,-0.3120085597038269,0,0,0,-1,-1,12173.33683954167,unknown,2,2025-04-30T12:15:54.596+03:00,2025-04-30T12:00:08.093+03:00,132,1.288074,0,0,109.9097,0,0,2025-04-30T12:15:54.596+03:00,767697393.3892071,0,2.27,100.9393,1,0.8,2025-04-30T12:16:28.395+03:00,94,1.566666666666667,2025-04-22T14:20:19.516+03:00,0.02197104130929222,0
2025-04-30T12:16:33.605+03:00,1746004590.822486,40.95209689816259,29.14023898507819,76.36157,-1,-1,-1,-1,30,67.48781531964896,-9999,12196.21264004167,-0.6760101318359375,0.6646881103515625,-0.3076629638671875,12196.20256404167,2.438135381468144,-1.14007686034232,-0.7265112534727594,0.01961204223334789,-0.0005655223503708839,-0.01490270160138607,0.004099190235137939,-0.008702456951141357,0.007822751998901367,XArbitraryZVertical,0.3705067181435173,-0.4546159406249253,0.8048286399040724,0.09110496209288133,-0.6792243719100952,0.6642658710479736,-0.3120982348918915,0,0,0,-1,-1,12173.33683954167,unknown,2,2025-04-30T12:15:54.596+03:00,2025-04-30T12:00:08.093+03:00,132,1.288074,0,0,109.9097,0,0,2025-04-30T12:15:54.596+03:00,767697393.3892071,0,2.27,100.9393,1,0.8,2025-04-30T12:16:28.395+03:00,94,1.566666666666667,2025-04-22T14:20:19.516+03:00,0.02197104130929222,0
2025-04-30T12:16:33.616+03:00,1746004590.822486,40.95209689816259,29.14023898507819,76.36157,-1,-1,-1,-1,30,67.48781531964896,-9999,12196.22271704167,-0.674560546875,0.6656494140625,-0.311920166015625,12196.21264004167,2.43820849807675,-1.140078229130757,-0.7263237760348601,0.01803491823375225,-0.002666490618139505,-0.01399536244571209,0.004578948020935059,-0.003816783428192139,0.007812768220901489,XArbitraryZVertical,0.3705661629878845,-0.4545393969330287,0.8048417696131431,0.09112931101298748,-0.6793379783630371,0.6641256809234619,-0.312149316072464,0,0,0,-1,-1,12173.33683954167,unknown,2,2025-04-30T12:15:54.596+03:00,2025-04-30T12:00:08.093+03:00,132,1.288074,0,0,109.9097,0,0,2025-04-30T12:15:54.596+03:00,767697393.3892071,0,2.27,100.9393,1,0.8,2025-04-30T12:16:28.395+03:00,94,1.566666666666667,2025-04-22T14:20:19.516+03:00,0.02197104130929222,0
2025-04-30T12:16:33.626+03:00,1746004590.822486,40.95209689816259,29.14023898507819,76.36157,-1,-1,-1,-1,30,67.48781531964896,-9999,12196.23279304167,-0.6762542724609375,0.664581298828125,-0.312469482421875,12196.22271704167,2.438307939075163,-1.140106607224629,-0.7261317672691446,0.02346856705844402,-0.004258261527866125,-0.01291678100824356,0.003452539443969727,0.0007060766220092773,0.004520326852798462,XArbitraryZVertical,0.3706434571849205,-0.4544576754119343,0.8048513636784107,0.09113828039324062,-0.6794627904891968,0.6639821529388428,-0.312183290719986,0,0,0,-1,-1,12173.33683954167,unknown,2,2025-04-30T12:15:54.596+03:00,2025-04-30T12:00:08.093+03:00,132,1.288074,0,0,109.9097,0,0,2025-04-30T12:15:54.596+03:00,767697393.3892071,0,2.27,100.9393,1,0.8,2025-04-30T12:16:28.395+03:00,94,1.566666666666667,2025-04-22T14:20:19.516+03:00,0.02197104130929222,0
2025-04-30T12:16:33.636+03:00,1746004590.822486,40.95209689816259,29.14023898507819,76.36157,-1,-1,-1,-1,30,67.48781531964896,-9999,12196.24287004167,-0.6788330078125,0.66290283203125,-0.3094635009765625,12196.23279304167,2.438505920529874,-1.140011258935498,-0.7259342734187149,0.02263998985290527,0.001455483492463827,-0.01197805069386959,0.004991471767425537,0.00181502103805542,0.0003826320171356201,XArbitraryZVertical,0.3706946042537247,-0.4543501923625154,0.8048886005890232,0.09113718405885991,-0.6795521378517151,0.6638344526290894,-0.312302827835083,0,0,0,-1,-1,12173.33683954167,unknown,2,2025-04-30T12:15:54.596+03:00,2025-04-30T12:00:08.093+03:00,132,1.288074,0,0,109.9097,0,0,2025-04-30T12:15:54.596+03:00,767697393.3892071,0,2.27,100.9393,1,0.8,2025-04-30T12:16:28.395+03:00,94,1.566666666666667,2025-04-22T14:20:19.516+03:00,0.02197104130929222,0
2025-04-30T12:16:33.646+03:00,1746004590.822486,40.95209689816259,29.14023898507819,76.36157,-1,-1,-1,-1,30,67.48781531964896,-9999,12196.25294604167,-0.6780853271484375,0.660797119140625,-0.3071746826171875,12196.24287004167,2.438799145654938,-1.139775118552432,-0.7257874847326935,0.02512685023248196,0.002820353489369154,-0.002424226608127356,0.003312468528747559,0.0008566379547119141,3.448128700256348e-05,XArbitraryZVertical,0.3706993085909566,-0.4542356830407762,0.8049534769862634,0.09111497438817773,-0.6795667409896851,0.6637246608734131,-0.3125039339065552,0,0,0,-1,-1,12173.33683954167,unknown,2,2025-04-30T12:15:54.596+03:00,2025-04-30T12:00:08.093+03:00,132,1.288074,0,0,109.9097,0,0,2025-04-30T12:15:54.596+03:00,767697393.3892071,0,2.27,100.9393,1,0.8,2025-04-30T12:16:28.395+03:00,94,1.566666666666667,2025-04-22T14:20:19.516+03:00,0.02197104130929222,0
2025-04-30T12:16:33.656+03:00,1746004590.822486,40.95209689816259,29.14023898507819,76.36157,-1,-1,-1,-1,30,67.48781531964896,-9999,12196.26302304167,-0.6793670654296875,0.663299560546875,-0.3075103759765625,12196.25294604167,2.439140387399976,-1.139465231461592,-0.7256780566491785,0.02697328664362431,0.01008019782602787,-0.0004961977829225361,0.0007028579711914062,-0.0007398724555969238,0.00328141450881958,XArbitraryZVertical,0.3706767081552231,-0.454121490095027,0.805032362310051,0.09107960551038469,-0.6795359253883362,0.6636428236961365,-0.3127448856830597,0,0,0,-1,-1,12173.33683954167,unknown,2,2025-04-30T12:15:54.596+03:00,2025-04-30T12:00:08.093+03:00,132,1.288074,0,0,109.9097,0,0,2025-04-30T12:15:54.596+03:00,767697393.3892071,0,2.27,100.9393,1,0.8,2025-04-30T12:16:28.395+03:00,94,1.566666666666667,2025-04-22T14:20:19.516+03:00,0.02197104130929222,0
2025-04-30T12:16:33.666+03:00,1746004590.822486,40.95209689816259,29.14023898507819,76.36157,-1,-1,-1,-1,30,67.48781531964896,-9999,12196.27309904167,-0.678070068359375,0.663238525390625,-0.31109619140625,12196.26302304167,2.439484545797223,-1.139131646904419,-0.7256063887082369,0.02170954830944538,0.006893725134432316,0.004675394855439663,0.001389384269714355,-0.002792060375213623,0.005816757678985596,XArbitraryZVertical,0.3706367093349154,-0.4540183896149343,0.8051136939342191,0.09103745195896305,-0.6794747114181519,0.6635891795158386,-0.3129914700984955,0,0,0,-1,-1,12173.33683954167,unknown,2,2025-04-30T12:15:54.596+03:00,2025-04-30T12:00:08.093+03:00,132,1.288074,0,0,109.9097,0,0,2025-04-30T12:15:54.596+03:00,767697393.3892071,0,2.27,100.9393,1,0.8,2025-04-30T12:16:28.395+03:00,94,1.566666666666667,2025-04-22T14:20:19.516+03:00,0.02197104130929222,0
2025-04-30T12:16:33.676+03:00,1746004590.822486,40.95209689816259,29.14023898507819,76.36157,-1,-1,-1,-1,30,67.48781531964896,-9999,12196.28317604167,-0.680908203125,0.660491943359375,-0.310699462890625,12196.27309904167,2.43980302799915,-1.138870841133727,-0.7255976124376068,0.0277705043554306,0.007362307980656624,0.008801363408565521,3.123283386230469e-05,-0.0002830028533935547,0.005660712718963623,XArbitraryZVertical,0.3706059989755234,-0.4539445470406128,0.8051769569887848,0.09097092526495562,-0.6793983578681946,0.6635826230049133,-0.3131710886955261,0,0,0,-1,-1,12173.33683954167,unknown,2,2025-04-30T12:15:54.596+03:00,2025-04-30T12:00:08.093+03:00,132,1.288074,0,0,109.9097,0,0,2025-04-30T12:15:54.596+03:00,767697393.3892071,0,2.27,100.9393,1,0.8,2025-04-30T12:16:28.395+03:00,94,1.566666666666667,2025-04-22T14:20:19.516+03:00,0.02197104130929222,0
2025-04-30T12:16:33.698+03:00,1746004590.822486,40.95209689816259,29.14023898507819,76.36157,-1,-1,-1,-1,30,67.48781531964896,-9999,12196.29325204167,-0.682891845703125,0.667877197265625,-0.30804443359375,12196.28317604167,2.440131655944296,-1.138606178924733,-0.7255561119384392,0.02685517631471157,0.006495182868093252,0.007242082618176937,0.001270294189453125,-0.0003129839897155762,0.002266228199005127,XArbitraryZVertical,0.3705833807069519,-0.4538576379859628,0.8052431489673986,0.09091060356691336,-0.6793404221534729,0.6635515689849854,-0.3133624196052551,0,0,0,-1,-1,12173.33683954167,unknown,2,2025-04-30T12:15:54.596+03:00,2025-04-30T12:00:08.093+03:00,132,1.288074,0,0,109.9097,0,0,2025-04-30T12:15:54.596+03:00,767697393.3892071,0,2.27,100.9393,1,0.8,2025-04-30T12:16:28.395+03:00,94,1.566666666666667,2025-04-22T14:20:19.516+03:00,0.02197104130929222,0
2025-04-30T12:16:33.701+03:00,1746004590.822486,40.95209689816259,29.14023898507819,76.36157,-1,-1,-1,-1,30,67.48781531964896,-9999,12196.30332904167,-0.6776123046875,0.6649627685546875,-0.3085174560546875,12196.29325204167,2.440492246471234,-1.13832564542989,-0.7255239969774576,0.03113780543208122,0.007269363850355148,0.006485745310783386,-0.001636385917663574,-0.003035604953765869,0.002862483263015747,XArbitraryZVertical,0.3705594797993131,-0.4537672577647782,0.8053132305347462,0.09083830417548484,-0.6792718172073364,0.6635275483131409,-0.313561886548996,0,0,0,-1,-1,12173.33683954167,unknown,2,2025-04-30T12:15:54.596+03:00,2025-04-30T12:00:08.093+03:00,132,1.288074,0,0,109.9097,0,0,2025-04-30T12:15:54.596+03:00,767697393.3892071,0,2.27,100.9393,1,0.8,2025-04-30T12:16:28.395+03:00,94,1.566666666666667,2025-04-22T14:20:19.516+03:00,0.02197104130929222,0
2025-04-30T12:16:33.707+03:00,1746004590.822486,40.95209689816259,29.14023898507819,76.36157,-1,-1,-1,-1,30,67.48781531964896,-9999,12196.31340604167,-0.6763458251953125,0.6654052734375,-0.3089141845703125,12196.30332904167,2.440876160273173,-1.138027978665997,-0.7254973969919762,0.0279217716306448,0.006780940108001232,0.008406416513025761,-0.003697454929351807,0.004369556903839111,0.005727082490921021,XArbitraryZVertical,0.3705327171983969,-0.4536736478828004,0.8053871989717599,0.09075883441807824,-0.6791943907737732,0.6635076403617859,-0.3137714564800262,0,0,0,-1,-1,12173.33683954167,unknown,2,2025-04-30T12:15:54.596+03:00,2025-04-30T12:00:08.093+03:00,132,1.288074,0,0,109.9097,0,0,2025-04-30T12:15:54.596+03:00,767697393.3892071,0,2.27,100.9393,1,0.8,2025-04-30T12:16:28.395+03:00,94,1.566666666666667,2025-04-22T14:20:19.516+03:00,0.02197104130929222,0
2025-04-30T12:16:33.717+03:00,1746004590.822486,40.95209689816259,29.14023898507819,76.36157,-1,-1,-1,-1,30,67.48781531964896,-9999,12196.32348204167,-0.674560546875,0.6641387939453125,-0.3108062744140625,12196.31340604167,2.441266598800623,-1.137713958166573,-0.725468394320862,0.02842511050403118,0.004055194556713104,0.005435260944068432,0.001501023769378662,0.001476764678955078,0.005475372076034546,XArbitraryZVertical,0.3705013250757684,-0.4535772958329575,0.8054646744970484,0.09068120754455522,-0.6791133284568787,0.6634859442710876,-0.3139927983283997,0,0,0,-1,-1,12173.33683954167,unknown,2,2025-04-30T12:15:54.596+03:00,2025-04-30T12:00:08.093+03:00,132,1.288074,0,0,109.9097,0,0,2025-04-30T12:15:54.596+03:00,767697393.3892071,0,2.27,100.9393,1,0.8,2025-04-30T12:16:28.395+03:00,94,1.566666666666667,2025-04-22T14:20:19.516+03:00,0.02197104130929222,0
2025-04-30T12:16:33.727+03:00,1746004590.822486,40.95209689816259,29.14023898507819,76.36157,-1,-1,-1,-1,30,67.48781531964896,-9999,12196.33355904167,-0.6775360107421875,0.6636505126953125,-0.313995361328125,12196.32348204167,2.441677011742314,-1.137389104959661,-0.7254100342640784,0.02820912748575211,0.006173206493258476,0.006258177570998669,0.002700626850128174,0.001963019371032715,0.005315542221069336,XArbitraryZVertical,0.3704766502968324,-0.4534668692400435,0.8055466638137181,0.09060645247196865,-0.6790465116500854,0.6634423136711121,-0.3142296969890594,0,0,0,-1,-1,12173.33683954167,unknown,2,2025-04-30T12:15:54.596+03:00,2025-04-30T12:00:08.093+03:00,132,1.288074,0,0,109.9097,0,0,2025-04-30T12:15:54.596+03:00,767697393.3892071,0,2.27,100.9393,1,0.8,2025-04-30T12:16:28.395+03:00,94,1.566666666666667,2025-04-22T14:20:19.516+03:00,0.02197104130929222,0
2025-04-30T12:16:33.737+03:00,1746004590.822486,40.95209689816259,29.14023898507819,76.36157,-1,-1,-1,-1,30,67.48781531964896,-9999,12196.34363504167,-0.6810760498046875,0.6654815673828125,-0.316009521484375,12196.33355904167,2.441973223313775,-1.137143945411594,-0.7253360990267081,0.02383342012763023,0.006278534885495901,0.0012557627633214,0.004453420639038086,0.0007518529891967773,0.003610521554946899,XArbitraryZVertical,0.3704616820464944,-0.4533759575430464,0.8056094794622417,0.09056397251684693,-0.6790139675140381,0.6633870005607605,-0.314416766166687,0,0,0,-1,-1,12173.33683954167,unknown,2,2025-04-30T12:15:54.596+03:00,2025-04-30T12:00:08.093+03:00,132,1.288074,0,0,109.9097,0,0,2025-04-30T12:15:54.596+03:00,767697393.3892071,0,2.27,100.9393,1,0.8,2025-04-30T12:16:28.395+03:00,94,1.566666666666667,2025-04-22T14:20:19.516+03:00,0.02197104130929222,0
2025-04-30T12:16:33.747+03:00,1746004590.822486,40.95209689816259,29.14023898507819,76.36157,-1,-1,-1,-1,30,67.48781531964896,-9999,12196.35371204167,-0.6835174560546875,0.6616973876953125,-0.315704345703125,12196.34363504167,2.442289639535641,-1.136885844776413,-0.7252387445995204,0.03327379375696182,0.006504903547465801,0.0007470990531146526,0.001455366611480713,0.0003364086151123047,0.000623852014541626,XArbitraryZVertical,0.3704513059652058,-0.4532728183914568,0.8056768924285703,0.09052302752155639,-0.6789913773536682,0.6633141040802002,-0.3146191537380219,0,0,0,-1,-1,12173.33683954167,unknown,2,2025-04-30T12:15:54.596+03:00,2025-04-30T12:00:08.093+03:00,132,1.288074,0,0,109.9097,0,0,2025-04-30T12:15:54.596+03:00,767697393.3892071,0,2.27,100.9393,1,0.8,2025-04-30T12:16:28.395+03:00,94,1.566666666666667,2025-04-22T14:20:19.516+03:00,0.02197104130929222,0
2025-04-30T12:16:33.757+03:00,1746004590.822486,40.95209689816259,29.14023898507819,76.36157,-1,-1,-1,-1,30,67.48781531964896,-9999,12196.36378804167,-0.6866607666015625,0.6597442626953125,-0.3107757568359375,12196.35371204167,2.442633938234598,-1.13658993030859,-0.7251121664287069,0.0295072179287672,0.01362506486475468,-0.0007914424641057849,-0.002101659774780273,0.0022621750831604,-0.001154094934463501,XArbitraryZVertical,0.3704385622929469,-0.4531529376060787,0.8057541171281301,0.09048773825809689,-0.6789743900299072,0.6632193922996521,-0.3148553669452667,0,0,0,-1,-1,12173.33683954167,unknown,2,2025-04-30T12:15:54.596+03:00,2025-04-30T12:00:08.093+03:00,132,1.288074,0,0,109.9097,0,0,2025-04-30T12:15:54.596+03:00,767697393.3892071,0,2.27,100.9393,1,0.8,2025-04-30T12:16:28.395+03:00,94,1.566666666666667,2025-04-22T14:20:19.516+03:00,0.02197104130929222,0
2025-04-30T12:16:33.767+03:00,1746004590.822486,40.95209689816259,29.14023898507819,76.36157,-1,-1,-1,-1,30,67.48781531964896,-9999,12196.37386504167,-0.686798095703125,0.6585693359375,-0.3052520751953125,12196.36378804167,2.443012243447205,-1.13615606142098,-0.7249794999784748,0.03482075780630112,0.02686816453933716,0.002131110522896051,-0.004599928855895996,-0.001422703266143799,-0.0005173087120056152,XArbitraryZVertical,0.3703792222028509,-0.4530184628914102,0.8058588431243426,0.09047182799691153,-0.6789175868034363,0.6631200909614563,-0.315187007188797,0,0,0,-1,-1,12173.33683954167,unknown,2,2025-04-30T12:15:54.596+03:00,2025-04-30T12:00:08.093+03:00,132,1.288074,0,0,109.9097,0,0,2025-04-30T12:15:54.596+03:00,767697393.3892071,0,2.27,100.9393,1,0.8,2025-04-30T12:16:28.395+03:00,94,1.566666666666667,2025-04-22T14:20:19.516+03:00,0.02197104130929222,0
2025-04-30T12:16:33.777+03:00,1746004590.822486,40.95209689816259,29.14023898507819,76.36157,-1,-1,-1,-1,30,67.48781531964896,-9999,12196.38394104167,-0.6823577880859375,0.6566009521484375,-0.3112640380859375,12196.37386504167,2.44341888418739,-1.135628385215444,-0.7248346528762435,0.03307931870222092,0.02673846855759621,0.001125101465731859,-0.007822513580322266,-0.003267347812652588,0.004809975624084473,XArbitraryZVertical,0.3702911803355161,-0.4528703820930161,0.8059828522927475,0.09046914528636317,-0.6788382530212402,0.6630116701126099,-0.315585732460022,0,0,0,-1,-1,12173.33683954167,unknown,2,2025-04-30T12:15:54.596+03:00,2025-04-30T12:00:08.093+03:00,132,1.288074,0,0,109.9097,0,0,2025-04-30T12:15:54.596+03:00,767697393.3892071,0,2.27,100.9393,1,0.8,2025-04-30T12:16:28.395+03:00,94,1.566666666666667,2025-04-22T14:20:19.516+03:00,0.02197104130929222,0
2025-04-30T12:16:33.788+03:00,1746004590.822486,40.95209689816259,29.14023898507819,76.36157,-1,-1,-1,-1,30,67.48781531964896,-9999,12196.39401804167,-0.68145751953125,0.6591796875,-0.314788818359375,12196.38394104167,2.443833428212138,-1.135095087243553,-0.7247005753832718,0.03851030021905899,0.03244748711585999,1.536228228360415e-05,-0.008047640323638916,-0.00434190034866333,0.01073312759399414,XArbitraryZVertical,0.3702001776049533,-0.4527242210733748,0.8061076432802619,0.09046135047341336,-0.6787504553794861,0.6629112958908081,-0.3159852027893066,0,0,0,-1,-1,12173.33683954167,unknown,2,2025-04-30T12:15:54.596+03:00,2025-04-30T12:00:08.093+03:00,132,1.288074,0,0,109.9097,0,0,2025-04-30T12:15:54.596+03:00,767697393.3892071,0,2.27,100.9393,1,0.8,2025-04-30T12:16:28.395+03:00,94,1.566666666666667,2025-04-22T14:20:19.516+03:00,0.02197104130929222,0
2025-04-30T12:16:33.797+03:00,1746004590.822486,40.95209689816259,29.14023898507819,76.36157,-1,-1,-1,-1,30,67.48781531964896,-9999,12196.40409404167,-0.6782379150390625,0.659820556640625,-0.3185577392578125,12196.39401804167,2.444243303760079,-1.134513416978685,-0.7245388164680455,0.03713937103748322,0.03257272392511368,-0.004281614907085896,-0.003694057464599609,-0.006189167499542236,0.005161285400390625,XArbitraryZVertical,0.3700947419292813,-0.4525673811722254,0.8062426868059561,0.09047427398952272,-0.6786637902259827,0.6627901792526245,-0.3164252936840057,0,0,0,-1,-1,12173.33683954167,unknown,2,2025-04-30T12:15:54.596+03:00,2025-04-30T12:00:08.093+03:00,132,1.288074,0,0,109.9097,0,0,2025-04-30T12:15:54.596+03:00,767697393.3892071,0,2.27,100.9393,1,0.8,2025-04-30T12:16:28.395+03:00,94,1.566666666666667,2025-04-22T14:20:19.516+03:00,0.02197104130929222,0
2025-04-30T12:16:33.807+03:00,1746004590.822486,40.95209689816259,29.14023898507819,76.36157,-1,-1,-1,-1,30,67.48781531964896,-9999,12196.41417104167,-0.673858642578125,0.665283203125,-0.3195037841796875,12196.40409404167,2.444698724449318,-1.133889674997615,-0.7244270560335663,0.04486760124564171,0.04565789923071861,0.006792607717216015,-0.002924263477325439,-0.003526747226715088,0.002091050148010254,XArbitraryZVertical,0.3699713910796079,-0.4524171128549807,0.8063847443116122,0.09046379225577324,-0.6785333156585693,0.6627064943313599,-0.3168798387050629,0,0,0,-1,-1,12173.33683954167,unknown,2,2025-04-30T12:15:54.596+03:00,2025-04-30T12:00:08.093+03:00,132,1.288074,0,0,109.9097,0,0,2025-04-30T12:15:54.596+03:00,767697393.3892071,0,2.27,100.9393,1,0.8,2025-04-30T12:16:28.395+03:00,94,1.566666666666667,2025-04-22T14:20:19.516+03:00,0.02197104130929222,0
2025-04-30T12:16:33.817+03:00,1746004590.822486,40.95209689816259,29.14023898507819,76.36157,-1,-1,-1,-1,30,67.48781531964896,-9999,12196.42424704167,-0.6724395751953125,0.6554718017578125,-0.3160400390625,12196.41417104167,2.44514940068006,-1.133254513371107,-0.7242513579875076,0.03450037911534309,0.0234846193343401,-0.001398376887664199,0.0001993775367736816,-0.002754330635070801,-0.001197636127471924,XArbitraryZVertical,0.3698565803659907,-0.4522455862678011,0.8065322052096686,0.09047609906190802,-0.6784372925758362,0.6625748872756958,-0.3173600733280182,0,0,0,-1,-1,12173.33683954167,unknown,2,2025-04-30T12:15:54.596+03:00,2025-04-30T12:00:08.093+03:00,132,1.288074,0,0,109.9097,0,0,2025-04-30T12:15:54.596+03:00,767697393.3892071,0,2.27,100.9393,1,0.8,2025-04-30T12:16:28.395+03:00,94,1.566666666666667,2025-04-22T14:20:19.516+03:00,0.02197104130929222,0
2025-04-30T12:16:33.827+03:00,1746004590.822486,40.95209689816259,29.14023898507819,76.36157,-1,-1,-1,-1,30,67.48781531964896,-9999,12196.43432404167,-0.666900634765625,0.6408538818359375,-0.3148651123046875,12196.42424704167,2.445398322820774,-1.132902134956847,-0.724127703020526,0.01252130977809429,0.01436702162027359,-0.004492171108722687,0.00454103946685791,0.002801001071929932,-0.001869857311248779,XArbitraryZVertical,0.3697984127580445,-0.4521417704869193,0.8066154785116459,0.09049095687426581,-0.6783997416496277,0.6624822616577148,-0.3176338970661163,0,0,0,-1,-1,12173.33683954167,unknown,2,2025-04-30T12:15:54.596+03:00,2025-04-30T12:00:08.093+03:00,132,1.288074,0,0,109.9097,0,0,2025-04-30T12:15:54.596+03:00,767697393.3892071,0,2.27,100.9393,1,0.8,2025-04-30T12:16:28.395+03:00,94,1.566666666666667,2025-04-22T14:20:19.516+03:00,0.02197104130929222,0
2025-04-30T12:16:33.837+03:00,1746004590.822486,40.95209689816259,29.14023898507819,76.36157,-1,-1,-1,-1,30,67.48781531964896,-9999,12196.44440004167,-0.6706695556640625,0.6622772216796875,-0.3211669921875,12196.43432404167,2.445514807745961,-1.132708093369761,-0.724056278108567,0.0100954370573163,0.007887016981840134,-0.0009907800704240799,0.005941271781921387,-0.006956934928894043,0.001745522022247314,XArbitraryZVertical,0.3697625000200185,-0.4520872740096094,0.8066604979885003,0.0905082573137637,-0.6783808469772339,0.6624287962913513,-0.3177855908870697,0,0,0,-1,-1,12173.33683954167,unknown,2,2025-04-30T12:15:54.596+03:00,2025-04-30T12:00:08.093+03:00,132,1.288074,0,0,109.9097,0,0,2025-04-30T12:15:54.596+03:00,767697393.3892071,0,2.27,100.9393,1,0.8,2025-04-30T12:16:28.395+03:00,94,1.566666666666667,2025-04-22T14:20:19.516+03:00,0.02197104130929222,0
2025-04-30T12:16:33.848+03:00,1746004590.822486,40.95209689816259,29.14023898507819,76.36157,-1,-1,-1,-1,30,67.48781531964896,-9999,12196.45447704167,-0.6738433837890625,0.664825439453125,-0.319976806640625,12196.44440004167,2.445659693329933,-1.132528468651798,-0.7239421054884004,0.02096406370401382,0.009814613498747349,-0.007418585475534201,0.01149153709411621,-0.02148932218551636,0.003074407577514648,XArbitraryZVertical,0.3697483696165098,-0.4520137046454497,0.8067065091278742,0.09052312693727986,-0.678392231464386,0.6623432636260986,-0.3179395198822021,0,0,0,-1,-1,12173.33683954167,unknown,2,2025-04-30T12:15:54.596+03:00,2025-04-30T12:00:08.093+03:00,132,1.288074,0,0,109.9097,0,0,2025-04-30T12:15:54.596+03:00,767697393.3892071,0,2.27,100.9393,1,0.8,2025-04-30T12:16:28.395+03:00,94,1.566666666666667,2025-04-22T14:20:19.516+03:00,0.02197104130929222,0
2025-04-30T12:16:33.858+03:00,1746004590.822486,40.95209689816259,29.14023898507819,76.36157,-1,-1,-1,-1,30,67.48781531964896,-9999,12196.46455304167,-0.678680419921875,0.667388916015625,-0.319061279296875,12196.45447704167,2.445857189177035,-1.132328188054609,-0.7237732332311607,0.0253745261579752,0.01336593925952911,-0.006075819954276085,0.007760167121887207,6.055831909179688e-05,-0.00304412841796875,XArbitraryZVertical,0.3697500184781467,-0.4519109447630386,0.8067617378237804,0.0905371267748665,-0.6784297823905945,0.6622167229652405,-0.3181228339672089,0,0,0,-1,-1,12173.33683954167,unknown,2,2025-04-30T12:15:54.596+03:00,2025-04-30T12:00:08.093+03:00,132,1.288074,0,0,109.9097,0,0,2025-04-30T12:15:54.596+03:00,767697393.3892071,0,2.27,100.9393,1,0.8,2025-04-30T12:16:28.395+03:00,94,1.566666666666667,2025-04-22T14:20:19.516+03:00,0.02197104130929222,0
2025-04-30T12:16:33.868+03:00,1746004590.822486,40.95209689816259,29.14023898507819,76.36157,-1,-1,-1,-1,30,67.48781531964896,-9999,12196.47463004167,-0.678558349609375,0.6619110107421875,-0.3149566650390625,12196.46455304167,2.446108789364349,-1.132074080053643,-0.7236078252942902,0.03069072775542736,0.01682431995868683,-0.001971888588741422,0.004604697227478027,0.002732694149017334,-0.001635044813156128,XArbitraryZVertical,0.3697413704786929,-0.4517969060359953,0.8068291907811573,0.09054045763499369,-0.6784480810165405,0.6620927453041077,-0.3183417618274689,0,0,0,-1,-1,12173.33683954167,unknown,2,2025-04-30T12:15:54.596+03:00,2025-04-30T12:00:08.093+03:00,132,1.288074,0,0,109.9097,0,0,2025-04-30T12:15:54.596+03:00,767697393.3892071,0,2.27,100.9393,1,0.8,2025-04-30T12:16:28.395+03:00,94,1.566666666666667,2025-04-22T14:20:19.516+03:00,0.02197104130929222,0
2025-04-30T12:16:33.878+03:00,1746004590.822486,40.95209689816259,29.14023898507819,76.36157,-1,-1,-1,-1,30,67.48781531964896,-9999,12196.48470704167,-0.676666259765625,0.6590118408203125,-0.3152313232421875,12196.47463004167,2.446421395187232,-1.131726851670728,-0.7234607599330821,0.02716403640806675,0.01951477862894535,0.000701858545653522,-0.0002548098564147949,0.005406379699707031,-0.0004425346851348877,XArbitraryZVertical,0.3697048008852442,-0.4516735753292595,0.8069156002118352,0.09053489549637712,-0.6784256100654602,0.661982536315918,-0.3186186850070953,0,0,0,-1,-1,12173.33683954167,unknown,2,2025-04-30T12:15:54.596+03:00,2025-04-30T12:00:08.093+03:00,132,1.288074,0,0,109.9097,0,0,2025-04-30T12:15:54.596+03:00,767697393.3892071,0,2.27,100.9393,1,0.8,2025-04-30T12:16:28.395+03:00,94,1.566666666666667,2025-04-22T14:20:19.516+03:00,0.02197104130929222,0
2025-04-30T12:16:33.888+03:00,1746004590.822486,40.95209689816259,29.14023898507819,76.36157,-1,-1,-1,-1,30,67.48781531964896,-9999,12196.49478304167,-0.6749420166015625,0.66015625,-0.3199310302734375,12196.48470704167,2.446731120599413,-1.131347753987874,-0.7233631202209574,0.02798721939325333,0.01796242222189903,0.005262788385152817,-0.0001950860023498535,1.668930053710938e-06,0.003946691751480103,XArbitraryZVertical,0.3696436157213212,-0.4515660789964021,0.8070050680454529,0.0905235130824452,-0.6783632636070251,0.6619093418121338,-0.3189033567905426,0,0,0,-1,-1,12173.33683954167,unknown,2,2025-04-30T12:15:54.596+03:00,2025-04-30T12:00:08.093+03:00,132,1.288074,0,0,109.9097,0,0,2025-04-30T12:15:54.596+03:00,767697393.3892071,0,2.27,100.9393,1,0.8,2025-04-30T12:16:28.395+03:00,94,1.566666666666667,2025-04-22T14:20:19.516+03:00,0.02197104130929222,0
2025-04-30T12:16:33.898+03:00,1746004590.822486,40.95209689816259,29.14023898507819,76.36157,-1,-1,-1,-1,30,67.48781531964896,-9999,12196.50486004167,-0.6764373779296875,0.6711883544921875,-0.322265625,12196.49478304167,2.447252513598246,-1.130774518787435,-0.7233742941468411,0.04449142888188362,0.02774161472916603,0.001930407946929336,0.001507461071014404,-0.002905845642089844,0.004057735204696655,XArbitraryZVertical,0.3695274806197239,-0.4514475859936223,0.807134019286543,0.09043939309604247,-0.6781737208366394,0.6619177460670471,-0.3192890286445618,0,0,0,-1,-1,12173.33683954167,unknown,2,2025-04-30T12:15:54.596+03:00,2025-04-30T12:00:08.093+03:00,132,1.288074,0,0,109.9097,0,0,2025-04-30T12:15:54.596+03:00,767697393.3892071,0,2.27,100.9393,1,0.8,2025-04-30T12:16:28.395+03:00,94,1.566666666666667,2025-04-22T14:20:19.516+03:00,0.02197104130929222,0
2025-04-30T12:16:33.908+03:00,1746004590.822486,40.95209689816259,29.14023898507819,76.36157,-1,-1,-1,-1,30,67.48781531964896,-9999,12196.51493604167,-0.6743316650390625,0.6547698974609375,-0.3191375732421875,12196.50486004167,2.44775129653472,-1.130250942625058,-0.7232994039263606,0.03210213780403137,0.01183029357343912,0.006068161688745022,0.003109276294708252,-0.001705288887023926,-0.0002657771110534668,XArbitraryZVertical,0.3694454460613524,-0.4513063755711172,0.8072574831409242,0.09037776653321521,-0.6780513525009155,0.6618615984916687,-0.3196652233600616,0,0,0,-1,-1,12173.33683954167,unknown,2,2025-04-30T12:15:54.596+03:00,2025-04-30T12:00:08.093+03:00,132,1.288074,0,0,109.9097,0,0,2025-04-30T12:15:54.596+03:00,767697393.3892071,0,2.27,100.9393,1,0.8,2025-04-30T12:16:28.395+03:00,94,1.566666666666667,2025-04-22T14:20:19.516+03:00,0.02197104130929222,0
2025-04-30T12:16:33.918+03:00,1746004590.822486,40.95209689816259,29.14023898507819,76.36157,-1,-1,-1,-1,30,67.48781531964896,-9999,12196.52501304167,-0.673095703125,0.6536865234375,-0.318328857421875,12196.51493604167,2.448096334211675,-1.129906320244638,-0.7232287608109867,0.02377775870263577,0.01156837213784456,0.004167662933468819,0.001545965671539307,0.009379804134368896,-0.002346783876419067,XArbitraryZVertical,0.3693999645417215,-0.4512031079273983,0.8073406448289362,0.09033647940988396,-0.6779834032058716,0.6618086099624634,-0.3199188411235809,0,0,0,-1,-1,12173.33683954167,unknown,2,2025-04-30T12:15:54.596+03:00,2025-04-30T12:00:08.093+03:00,132,1.288074,0,0,109.9097,0,0,2025-04-30T12:15:54.596+03:00,767697393.3892071,0,2.27,100.9393,1,0.8,2025-04-30T12:16:28.395+03:00,94,1.566666666666667,2025-04-22T14:20:19.516+03:00,0.02197104130929222,0
2025-04-30T12:16:33.928+03:00,1746004590.822486,40.95209689816259,29.14023898507819,76.36157,-1,-1,-1,-1,30,67.48781531964896,-9999,12196.53508904167,-0.675140380859375,0.660552978515625,-0.3178558349609375,12196.52501304167,2.448399578717585,-1.12957025258319,-0.723123866121928,0.02067171409726143,0.01418918929994106,0.002999334130436182,0.003606855869293213,-0.006960034370422363,0.001038730144500732,XArbitraryZVertical,0.369356151686052,-0.4510963249680435,0.8074221601026251,0.09031979926330344,-0.6779385209083557,0.6617299914360046,-0.3201762735843658,0,0,0,-1,-1,12173.33683954167,unknown,2,2025-04-30T12:15:54.596+03:00,2025-04-30T12:00:08.093+03:00,132,1.288074,0,0,109.9097,0,0,2025-04-30T12:15:54.596+03:00,767697393.3892071,0,2.27,100.9393,1,0.8,2025-04-30T12:16:28.395+03:00,94,1.566666666666667,2025-04-22T14:20:19.516+03:00,0.02197104130929222,0
2025-04-30T12:16:33.938+03:00,1746004590.822486,40.95209689816259,29.14023898507819,76.36157,-1,-1,-1,-1,30,67.48781531964896,-9999,12196.54516604167,-0.67529296875,0.6597137451171875,-0.3183135986328125,12196.53508904167,2.448660892024716,-1.129223498892587,-0.7230810621243888,0.0181070901453495,0.01668377220630646,0.002325953915715218,0.004757344722747803,-0.008011341094970703,0.002094626426696777,XArbitraryZVertical,0.3692846383494757,-0.4510178840396883,0.8075003806288089,0.0903047682239904,-0.6778531074523926,0.6616979241371155,-0.3204234540462494,0,0,0,-1,-1,12173.33683954167,unknown,2,2025-04-30T12:15:54.596+03:00,2025-04-30T12:00:08.093+03:00,132,1.288074,0,0,109.9097,0,0,2025-04-30T12:15:54.596+03:00,767697393.3892071,0,2.27,100.9393,1,0.8,2025-04-30T12:16:28.395+03:00,94,1.566666666666667,2025-04-22T14:20:19.516+03:00,0.02197104130929222,0
2025-04-30T12:16:33.948+03:00,1746004590.822486,40.95209689816259,29.14023898507819,76.36157,-1,-1,-1,-1,30,67.48781531964896,-9999,12196.55524204167,-0.6769866943359375,0.66046142578125,-0.3201904296875,12196.54516604167,2.448918710334777,-1.128871065251381,-0.7230022198185172,0.02116892673075199,0.01732319593429565,-0.003564958227798343,0.002646863460540771,-0.001085817813873291,0.002828806638717651,XArbitraryZVertical,0.3692180864745577,-0.450927600156608,0.8075814235763128,0.09030262323601952,-0.6777872443199158,0.6616387963294983,-0.3206846117973328,0,0,0,-1,-1,12173.33683954167,unknown,2,2025-04-30T12:15:54.596+03:00,2025-04-30T12:00:08.093+03:00,132,1.288074,0,0,109.9097,0,0,2025-04-30T12:15:54.596+03:00,767697393.3892071,0,2.27,100.9393,1,0.8,2025-04-30T12:16:28.395+03:00,94,1.566666666666667,2025-04-22T14:20:19.516+03:00,0.02197104130929222,0
2025-04-30T12:16:33.958+03:00,1746004590.822486,40.95209689816259,29.14023898507819,76.36157,-1,-1,-1,-1,30,67.48781531964896,-9999,12196.56531904167,-0.6814422607421875,0.658233642578125,-0.3198699951171875,12196.55524204167,2.449159968340465,-1.128523580472386,-0.7229091467999861,0.02119283005595207,0.02045154571533203,-0.003178034210577607,0.002438485622406006,-0.001855194568634033,0.00263291597366333,XArbitraryZVertical,0.3691528949026678,-0.4508357695340149,0.8076616946394835,0.09031023768705275,-0.677731454372406,0.6615689992904663,-0.3209464848041534,0,0,0,-1,-1,12173.33683954167,unknown,2,2025-04-30T12:15:54.596+03:00,2025-04-30T12:00:08.093+03:00,132,1.288074,0,0,109.9097,0,0,2025-04-30T12:15:54.596+03:00,767697393.3892071,0,2.27,100.9393,1,0.8,2025-04-30T12:16:28.395+03:00,94,1.566666666666667,2025-04-22T14:20:19.516+03:00,0.02197104130929222,0
2025-04-30T12:16:33.968+03:00,1746004590.822486,40.95209689816259,29.14023898507819,76.36157,-1,-1,-1,-1,30,67.48781531964896,-9999,12196.57539504167,-0.6801910400390625,0.6555023193359375,-0.319854736328125,12196.56531904167,2.449342399788342,-1.12822264368699,-0.7228206339312488,0.01803618483245373,0.02173758484423161,-0.001231796108186245,0.0007010102272033691,-0.001041233539581299,0.0009850561618804932,XArbitraryZVertical,0.3690922606140492,-0.4507584388566083,0.807730323185596,0.09032958859012717,-0.6776876449584961,0.6615025997161865,-0.3211754560470581,0,0,0,-1,-1,12173.33683954167,unknown,2,2025-04-30T12:15:54.596+03:00,2025-04-30T12:00:08.093+03:00,132,1.288074,0,0,109.9097,0,0,2025-04-30T12:15:54.596+03:00,767697393.3892071,0,2.27,100.9393,1,0.8,2025-04-30T12:16:28.395+03:00,94,1.566666666666667,2025-04-22T14:20:19.516+03:00,0.02197104130929222,0
2025-04-30T12:16:33.979+03:00,1746004590.822486,40.95209689816259,29.14023898507819,76.36157,-1,-1,-1,-1,30,67.48781531964896,-9999,12196.58547204167,-0.6785430908203125,0.65374755859375,-0.3176422119140625,12196.57539504167,2.449514757127021,-1.127904372371431,-0.722724834953041,0.01403498463332653,0.02475408092141151,-0.001352204359136522,-0.003799498081207275,-0.003197073936462402,0.001548349857330322,XArbitraryZVertical,0.3690238731258248,-0.4506797122183303,0.8078022788917534,0.09035923408428147,-0.677642822265625,0.6614307761192322,-0.3214183449745178,0,0,0,-1,-1,12173.33683954167,unknown,2,2025-04-30T12:15:54.596+03:00,2025-04-30T12:00:08.093+03:00,132,1.288074,0,0,109.9097,0,0,2025-04-30T12:15:54.596+03:00,767697393.3892071,0,2.27,100.9393,1,0.8,2025-04-30T12:16:28.395+03:00,94,1.566666666666667,2025-04-22T14:20:19.516+03:00,0.02197104130929222,0
2025-04-30T12:16:33.989+03:00,1746004590.822486,40.95209689816259,29.14023898507819,76.36157,-1,-1,-1,-1,30,67.48781531964896,-9999,12196.59554804167,-0.677215576171875,0.6547088623046875,-0.3165740966796875,12196.58547204167,2.449675628165404,-1.127539667221137,-0.7226793358451951,0.009571793489158154,0.02472531795501709,0.0003711271565407515,-0.002638399600982666,-0.005894303321838379,0.001823633909225464,XArbitraryZVertical,0.368922978272081,-0.4506180888228872,0.8078793150929722,0.09038935911917061,-0.6775526404380798,0.6613966226577759,-0.3216783404350281,0,0,0,-1,-1,12173.33683954167,unknown,2,2025-04-30T12:15:54.596+03:00,2025-04-30T12:00:08.093+03:00,132,1.288074,0,0,109.9097,0,0,2025-04-30T12:15:54.596+03:00,767697393.3892071,0,2.27,100.9393,1,0.8,2025-04-30T12:16:28.395+03:00,94,1.566666666666667,2025-04-22T14:20:19.516+03:00,0.02197104130929222,0
2025-04-30T12:16:33.999+03:00,1746004590.822486,40.95209689816259,29.14023898507819,76.36157,-1,-1,-1,-1,30,67.48781531964896,-9999,12196.60562504167,-0.6762237548828125,0.6564788818359375,-0.319854736328125,12196.59554804167,2.449784924362906,-1.127196811238261,-0.7226935741543873,0.006817684974521399,0.02624158933758736,-0.001020973664708436,-0.001109302043914795,-0.007659733295440674,0.004264414310455322,XArbitraryZVertical,0.3688059180234777,-0.4505872741823754,0.8079467202394773,0.0904184226452488,-0.6774338483810425,0.6614073514938354,-0.3219065964221954,0,0,0,-1,-1,12173.33683954167,unknown,2,2025-04-30T12:15:54.596+03:00,2025-04-30T12:00:08.093+03:00,132,1.288074,0,0,109.9097,0,0,2025-04-30T12:15:54.596+03:00,767697393.3892071,0,2.27,100.9393,1,0.8,2025-04-30T12:16:28.395+03:00,94,1.566666666666667,2025-04-22T14:20:19.516+03:00,0.02197104130929222,0
2025-04-30T12:16:34.009+03:00,1746004590.822486,40.95209689816259,29.14023898507819,76.36157,-1,-1,-1,-1,30,67.48781531964896,-9999,12196.61570104167,-0.67596435546875,0.659454345703125,-0.3199615478515625,12196.60562504167,2.449914606578083,-1.126859967938133,-0.7226360794756699,0.01424044743180275,0.02470041811466217,5.307921674102545e-05,0.0001441240310668945,-0.006655275821685791,0.005576997995376587,XArbitraryZVertical,0.3687118356478657,-0.4505285878131837,0.8080179672750364,0.09045843213194127,-0.6773598194122314,0.6613641977310181,-0.3221511542797089,0,0,0,-1,-1,12173.33683954167,unknown,2,2025-04-30T12:15:54.596+03:00,2025-04-30T12:00:08.093+03:00,132,1.288074,0,0,109.9097,0,0,2025-04-30T12:15:54.596+03:00,767697393.3892071,0,2.27,100.9393,1,0.8,2025-04-30T12:16:28.395+03:00,94,1.566666666666667,2025-04-22T14:20:19.516+03:00,0.02197104130929222,0
2025-04-30T12:16:34.019+03:00,1746004590.822486,40.95209689816259,29.14023898507819,76.36157,-1,-1,-1,-1,30,67.48781531964896,-9999,12196.62577804167,-0.6791839599609375,0.6625518798828125,-0.320587158203125,12196.61570104167,2.450085285057303,-1.126477298579903,-0.7225383636913202,0.01714868471026421,0.03088993951678276,-0.003520050551742315,0.001070976257324219,-0.004811942577362061,0.002583324909210205,XArbitraryZVertical,0.3686174601360034,-0.4504465844391536,0.8081016580179199,0.09050352831540379,-0.6772947907447815,0.6612908840179443,-0.3224380910396576,0,0,0,-1,-1,12173.33683954167,unknown,2,2025-04-30T12:15:54.596+03:00,2025-04-30T12:00:08.093+03:00,132,1.288074,0,0,109.9097,0,0,2025-04-30T12:15:54.596+03:00,767697393.3892071,0,2.27,100.9393,1,0.8,2025-04-30T12:16:28.395+03:00,94,1.566666666666667,2025-04-22T14:20:19.516+03:00,0.02197104130929222,0
2025-04-30T12:16:34.029+03:00,1746004590.822486,40.95209689816259,29.14023898507819,76.36157,-1,-1,-1,-1,30,67.48781531964896,-9999,12196.63585504167,-0.676544189453125,0.6585693359375,-0.32647705078125,12196.62577804167,2.450264245710706,-1.126083273238402,-0.722422569556169,0.01609114371240139,0.02621689066290855,-0.005808238871395588,0.001272380352020264,-0.001749634742736816,0.00277632474899292,XArbitraryZVertical,0.3685243576052869,-0.4503563823516122,0.8081888241314186,0.09055297412292608,-0.6772367358207703,0.6612040400505066,-0.322737842798233,0,0,0,-1,-1,12173.33683954167,unknown,2,2025-04-30T12:15:54.596+03:00,2025-04-30T12:00:08.093+03:00,132,1.288074,0,0,109.9097,0,0,2025-04-30T12:15:54.596+03:00,767697393.3892071,0,2.27,100.9393,1,0.8,2025-04-30T12:16:28.395+03:00,94,1.566666666666667,2025-04-22T14:20:19.516+03:00,0.02197104130929222,0
2025-04-30T12:16:34.039+03:00,1746004590.822486,40.95209689816259,29.14023898507819,76.36157,-1,-1,-1,-1,30,67.48781531964896,-9999,12196.64593104167,-0.6771240234375,0.653778076171875,-0.3244476318359375,12196.63585504167,2.450416698181592,-1.125751384545226,-0.7222746733420373,0.01668735966086388,0.02336883917450905,-0.008313907310366631,-0.001966118812561035,0.00145876407623291,0.002417534589767456,XArbitraryZVertical,0.3684575111660115,-0.4502629441633559,0.8082651447538183,0.0906082904886531,-0.6772178411483765,0.6610930562019348,-0.3230046927928925,0,0,0,-1,-1,12173.33683954167,unknown,2,2025-04-30T12:15:54.596+03:00,2025-04-30T12:00:08.093+03:00,132,1.288074,0,0,109.9097,0,0,2025-04-30T12:15:54.596+03:00,767697393.3892071,0,2.27,100.9393,1,0.8,2025-04-30T12:16:28.395+03:00,94,1.566666666666667,2025-04-22T14:20:19.516+03:00,0.02197104130929222,0
2025-04-30T12:16:34.049+03:00,1746004590.822486,40.95209689816259,29.14023898507819,76.36157,-1,-1,-1,-1,30,67.48781531964896,-9999,12196.65600804167,-0.677764892578125,0.6548004150390625,-0.32470703125,12196.64593104167,2.450565579561248,-1.125425883559531,-0.7221386094507216,0.01720401272177696,0.02463703602552414,-0.00569548737257719,0.0006496310234069824,-0.002421677112579346,-0.00321313738822937,XArbitraryZVertical,0.3683897728802146,-0.4501744650378702,0.8083394785819064,0.09066022988442743,-0.677193820476532,0.6609909534454346,-0.3232638537883759,0,0,0,-1,-1,12173.33683954167,unknown,2,2025-04-30T12:15:54.596+03:00,2025-04-30T12:00:08.093+03:00,132,1.288074,0,0,109.9097,0,0,2025-04-30T12:15:54.596+03:00,767697393.3892071,0,2.27,100.9393,1,0.8,2025-04-30T12:16:28.395+03:00,94,1.566666666666667,2025-04-22T14:20:19.516+03:00,0.02197104130929222,0
2025-04-30T12:16:34.059+03:00,1746004590.822486,40.95209689816259,29.14023898507819,76.36157,-1,-1,-1,-1,30,67.48781531964896,-9999,12196.66608404167,-0.675750732421875,0.65728759765625,-0.327667236328125,12196.65600804167,2.450739745766351,-1.125087241949347,-0.7219835591807492,0.01999633759260178,0.0265963226556778,-0.007167816162109375,5.269050598144531e-05,-0.007096588611602783,-0.0009103119373321533,XArbitraryZVertical,0.3683266403401225,-0.4500742536091964,0.8084183858350211,0.09071021604928871,-0.6771767139434814,0.660874605178833,-0.323537290096283,0,0,0,-1,-1,12173.33683954167,unknown,2,2025-04-30T12:15:54.596+03:00,2025-04-30T12:00:08.093+03:00,132,1.288074,0,0,109.9097,0,0,2025-04-30T12:15:54.596+03:00,767697393.3892071,0,2.27,100.9393,1,0.8,2025-04-30T12:16:28.395+03:00,94,1.566666666666667,2025-04-22T14:20:19.516+03:00,0.02197104130929222,0
2025-04-30T12:16:34.069+03:00,1746004590.822486,40.95209689816259,29.14023898507819,76.36157,-1,-1,-1,-1,30,67.48781531964896,-9999,12196.67616104167,-0.67901611328125,0.6588134765625,-0.3267669677734375,12196.66608404167,2.450959897425605,-1.124689193795554,-0.7217991616613313,0.02195535786449909,0.02560482919216156,-0.005457000806927681,-0.0006070733070373535,-0.005935788154602051,-0.0008476078510284424,XArbitraryZVertical,0.3682563137685704,-0.449952871822364,0.8085120184851802,0.09076339313537649,-0.6771578192710876,0.6607362031936646,-0.3238593935966492,0,0,0,-1,-1,12173.33683954167,unknown,2,2025-04-30T12:15:54.596+03:00,2025-04-30T12:00:08.093+03:00,132,1.288074,0,0,109.9097,0,0,2025-04-30T12:15:54.596+03:00,767697393.3892071,0,2.27,100.9393,1,0.8,2025-04-30T12:16:28.395+03:00,94,1.566666666666667,2025-04-22T14:20:19.516+03:00,0.02197104130929222,0
2025-04-30T12:16:34.079+03:00,1746004590.822486,40.95209689816259,29.14023898507819,76.36157,-1,-1,-1,-1,30,67.48781531964896,-9999,12196.68623704167,-0.6803436279296875,0.6563262939453125,-0.320281982421875,12196.67616104167,2.451047391707464,-1.124405731347906,-0.7216504301025319,0.0034140320494771,0.02516154572367668,-0.009729176759719849,0.001404047012329102,-0.003336906433105469,-0.003573358058929443,XArbitraryZVertical,0.3681944201910938,-0.4498732487310267,0.8085766913739318,0.09083444257360886,-0.6771548390388489,0.6606245636940002,-0.3240938484668732,0,0,0,-1,-1,12173.33683954167,unknown,2,2025-04-30T12:15:54.596+03:00,2025-04-30T12:00:08.093+03:00,132,1.288074,0,0,109.9097,0,0,2025-04-30T12:15:54.596+03:00,767697393.3892071,0,2.27,100.9393,1,0.8,2025-04-30T12:16:28.395+03:00,94,1.566666666666667,2025-04-22T14:20:19.516+03:00,0.02197104130929222,0
2025-04-30T12:16:34.089+03:00,1746004590.822486,40.95209689816259,29.14023898507819,76.36157,-1,-1,-1,-1,30,67.48781531964896,-9999,12196.69631404167,-0.6805877685546875,0.6476287841796875,-0.3108062744140625,12196.68623704167,2.450915202892027,-1.12420207258445,-0.7215574488704576,-0.003962657880038023,0.03678837418556213,-0.009104132652282715,-0.001872062683105469,-0.001741349697113037,-0.002508729696273804,XArbitraryZVertical,0.3681030990087273,-0.4498566496711736,0.8086132580289878,0.0909600213756063,-0.6771440505981445,0.6605547666549683,-0.3242582082748413,0,0,0,-1,-1,12173.33683954167,unknown,2,2025-04-30T12:15:54.596+03:00,2025-04-30T12:00:08.093+03:00,132,1.288074,0,0,109.9097,0,0,2025-04-30T12:15:54.596+03:00,767697393.3892071,0,2.27,100.9393,1,0.8,2025-04-30T12:16:28.395+03:00,94,1.566666666666667,2025-04-22T14:20:19.516+03:00,0.02197104130929222,0
2025-04-30T12:16:34.099+03:00,1746004590.822486,40.95209689816259,29.14023898507819,76.36157,-1,-1,-1,-1,30,67.48781531964896,-9999,12196.70639004167,-0.6707000732421875,0.6485443115234375,-0.312652587890625,12196.69631404167,2.450776851210102,-1.123933069357283,-0.7214873717018437,-0.01312659494578838,0.03891437500715256,-0.009348212741315365,-0.003245115280151367,-0.004175841808319092,0.004178375005722046,XArbitraryZVertical,0.367978826339683,-0.4498459936530164,0.8086603621828113,0.09109639842407631,-0.6770984530448914,0.6605021357536316,-0.3244603276252747,0,0,0,-1,-1,12173.33683954167,unknown,2,2025-04-30T12:15:54.596+03:00,2025-04-30T12:00:08.093+03:00,132,1.288074,0,0,109.9097,0,0,2025-04-30T12:15:54.596+03:00,767697393.3892071,0,2.27,100.9393,1,0.8,2025-04-30T12:16:28.395+03:00,94,1.566666666666667,2025-04-22T14:20:19.516+03:00,0.02197104130929222,0
2025-04-30T12:16:34.110+03:00,1746004590.822486,40.95209689816259,29.14023898507819,76.36157,-1,-1,-1,-1,30,67.48781531964896,-9999,12196.71646704167,-0.6740875244140625,0.6571044921875,-0.3141632080078125,12196.70639004167,2.450523553078165,-1.123653915516674,-0.721509465026014,-0.01154654193669558,0.05187677964568138,-0.003762231906875968,-0.003592908382415771,-0.01288992166519165,0.01383680105209351,XArbitraryZVertical,0.367804001639178,-0.4498873922587812,0.8086990523016613,0.09125549263858422,-0.6769948601722717,0.6605187654495239,-0.3246431052684784,0,0,0,-1,-1,12173.33683954167,unknown,2,2025-04-30T12:15:54.596+03:00,2025-04-30T12:00:08.093+03:00,132,1.288074,0,0,109.9097,0,0,2025-04-30T12:15:54.596+03:00,767697393.3892071,0,2.27,100.9393,1,0.8,2025-04-30T12:16:28.395+03:00,94,1.566666666666667,2025-04-22T14:20:19.516+03:00,0.02197104130929222,0
2025-04-30T12:16:34.120+03:00,1746004590.822486,40.95209689816259,29.14023898507819,76.36157,-1,-1,-1,-1,30,67.48781531964896,-9999,12196.72654304167,-0.6721343994140625,0.65960693359375,-0.3291473388671875,12196.71646704167,2.450371855859116,-1.123285144018199,-0.7215587107090592,-0.01169574446976185,0.04326990991830826,0.001881638891063631,0.006145715713500977,-0.01201134920120239,0.01222610473632812,XArbitraryZVertical,0.3676097875399664,-0.4499152218249085,0.8087571853440737,0.09138578602340355,-0.6768458485603333,0.6605557203292847,-0.3248786628246307,0,0,0,-1,-1,12173.33683954167,unknown,2,2025-04-30T12:15:54.596+03:00,2025-04-30T12:00:08.093+03:00,132,1.288074,0,0,109.9097,0,0,2025-04-30T12:15:54.596+03:00,767697393.3892071,0,2.27,100.9393,1,0.8,2025-04-30T12:16:28.395+03:00,94,1.566666666666667,2025-04-22T14:20:19.516+03:00,0.02197104130929222,0
2025-04-30T12:16:34.130+03:00,1746004590.822486,40.95209689816259,29.14023898507819,76.36157,-1,-1,-1,-1,30,67.48781531964896,-9999,12196.73662004167,-0.6702423095703125,0.6590118408203125,-0.3361053466796875,12196.72654304167,2.450267156929032,-1.122961474061089,-0.7215923979714129,-0.001872941968031228,0.0339491106569767,-0.001567687373608351,0.002633035182952881,-0.003476440906524658,0.01092487573623657,XArbitraryZVertical,0.3674478393503508,-0.4499311418478762,0.8088100010735669,0.09149136022733911,-0.6767206192016602,0.6605809926986694,-0.3250881135463715,0,0,0,-1,-1,12173.33683954167,unknown,2,2025-04-30T12:15:54.596+03:00,2025-04-30T12:00:08.093+03:00,132,1.288074,0,0,109.9097,0,0,2025-04-30T12:15:54.596+03:00,767697393.3892071,0,2.27,100.9393,1,0.8,2025-04-30T12:16:28.395+03:00,94,1.566666666666667,2025-04-22T14:20:19.516+03:00,0.02197104130929222,0
2025-04-30T12:16:34.140+03:00,1746004590.822486,40.95209689816259,29.14023898507819,76.36157,-1,-1,-1,-1,30,67.48781531964896,-9999,12196.74669604167,-0.6761932373046875,0.65875244140625,-0.3342742919921875,12196.73662004167,2.450218987340491,-1.122738032964993,-0.7215138179072551,-0.0007929635467007756,0.01857501640915871,-0.01027858816087246,0.004560232162475586,-0.0009150505065917969,-0.003885596990585327,XArbitraryZVertical,0.3673641744925928,-0.4499029851403469,0.8088531647410722,0.09158336388215875,-0.6766946315765381,0.6605219841003418,-0.3252617418766022,0,0,0,-1,-1,12173.33683954167,unknown,2,2025-04-30T12:15:54.596+03:00,2025-04-30T12:00:08.093+03:00,132,1.288074,0,0,109.9097,0,0,2025-04-30T12:15:54.596+03:00,767697393.3892071,0,2.27,100.9393,1,0.8,2025-04-30T12:16:28.395+03:00,94,1.566666666666667,2025-04-22T14:20:19.516+03:00,0.02197104130929222,0
2025-04-30T12:16:34.150+03:00,1746004590.822486,40.95209689816259,29.14023898507819,76.36157,-1,-1,-1,-1,30,67.48781531964896,-9999,12196.75677304167,-0.6735687255859375,0.6555938720703125,-0.3262939453125,12196.74669604167,2.450115068050744,-1.122694495765492,-0.7213683876771347,-0.001662219408899546,0.005385177209973335,-0.01647656224668026,0.00652468204498291,-0.001400947570800781,-0.01077252626419067,XArbitraryZVertical,0.3673555586892628,-0.4498705217453106,0.8088645741974414,0.09167663104018581,-0.6767670512199402,0.6604127883911133,-0.3253328204154968,0,0,0,-1,-1,12173.33683954167,unknown,2,2025-04-30T12:15:54.596+03:00,2025-04-30T12:00:08.093+03:00,132,1.288074,0,0,109.9097,0,0,2025-04-30T12:15:54.596+03:00,767697393.3892071,0,2.27,100.9393,1,0.8,2025-04-30T12:16:28.395+03:00,94,1.566666666666667,2025-04-22T14:20:19.516+03:00,0.02197104130929222,0
2025-04-30T12:16:34.160+03:00,1746004590.822486,40.95209689816259,29.14023898507819,76.36157,-1,-1,-1,-1,30,67.48781531964896,-9999,12196.76684904167,-0.6751556396484375,0.6544647216796875,-0.3193206787109375,12196.75677304167,2.45002150166072,-1.122712282068121,-0.7211719789389525,0.0011245789937675,0.002568152267485857,-0.02457360364496708,0.0006964206695556641,-0.001512825489044189,-0.008897304534912109,XArbitraryZVertical,0.3673854230241753,-0.4498215940433716,0.8088680411395013,0.09176643878582322,-0.6768897175788879,0.660265326499939,-0.325376957654953,0,0,0,-1,-1,12173.33683954167,unknown,2,2025-04-30T12:15:54.596+03:00,2025-04-30T12:00:08.093+03:00,132,1.288074,0,0,109.9097,0,0,2025-04-30T12:15:54.596+03:00,767697393.3892071,0,2.27,100.9393,1,0.8,2025-04-30T12:16:28.395+03:00,94,1.566666666666667,2025-04-22T14:20:19.516+03:00,0.02197104130929222,0
2025-04-30T12:16:34.170+03:00,1746004590.822486,40.95209689816259,29.14023898507819,76.36157,-1,-1,-1,-1,30,67.48781531964896,-9999,12196.77692604167,-0.6724853515625,0.652130126953125,-0.3214569091796875,12196.76684904167,2.449875719994716,-1.122786972755367,-0.720935652313515,-0.001201958511956036,0.002412091009318829,-0.02491342276334763,0.003485918045043945,-0.004493892192840576,-0.0008999109268188477,XArbitraryZVertical,0.3674354216551006,-0.4497712721129362,0.8088609289053292,0.09187601673951473,-0.6770547032356262,0.6600878238677979,-0.3253940343856812,0,0,0,-1,-1,12173.33683954167,unknown,2,2025-04-30T12:15:54.596+03:00,2025-04-30T12:00:08.093+03:00,132,1.288074,0,0,109.9097,0,0,2025-04-30T12:15:54.596+03:00,767697393.3892071,0,2.27,100.9393,1,0.8,2025-04-30T12:16:28.395+03:00,94,1.566666666666667,2025-04-22T14:20:19.516+03:00,0.02197104130929222,0
2025-04-30T12:16:34.184+03:00,1746004590.822486,40.95209689816259,29.14023898507819,76.36157,-1,-1,-1,-1,30,67.48781531964896,-9999,12196.78700304167,-0.6743927001953125,0.656768798828125,-0.322784423828125,12196.77692604167,2.449693142877174,-1.122904468258652,-0.7206675668856456,0.003212696872651577,0.003862381912767887,-0.03310254588723183,0.002096712589263916,-0.005421638488769531,0.006070435047149658,XArbitraryZVertical,0.367501562415427,-0.4497188627115848,0.8088459417564998,0.09199981084338324,-0.6772524118423462,0.6598864197731018,-0.3253910839557648,0,0,0,-1,-1,12173.33683954167,unknown,2,2025-04-30T12:15:54.596+03:00,2025-04-30T12:00:08.093+03:00,132,1.288074,0,0,109.9097,0,0,2025-04-30T12:15:54.596+03:00,767697393.3892071,0,2.27,100.9393,1,0.8,2025-04-30T12:16:28.395+03:00,94,1.566666666666667,2025-04-22T14:20:19.516+03:00,0.02197104130929222,0
2025-04-30T12:16:34.190+03:00,1746004590.822486,40.95209689816259,29.14023898507819,76.36157,-1,-1,-1,-1,30,67.48781531964896,-9999,12196.79707904167,-0.6770172119140625,0.66156005859375,-0.3250885009765625,12196.78700304167,2.449484208108565,-1.123028758515751,-0.7203270386755715,0.004304326605051756,0.01000203378498554,-0.03228788450360298,0.005009889602661133,-0.007500350475311279,0.003947257995605469,XArbitraryZVertical,0.3675806714607272,-0.4496469386776372,0.8088324660799431,0.0921533469477791,-0.6774953007698059,0.6596304774284363,-0.325404167175293,0,0,0,-1,-1,12173.33683954167,unknown,2,2025-04-30T12:15:54.596+03:00,2025-04-30T12:00:08.093+03:00,132,1.288074,0,0,109.9097,0,0,2025-04-30T12:15:54.596+03:00,767697393.3892071,0,2.27,100.9393,1,0.8,2025-04-30T12:16:28.395+03:00,94,1.566666666666667,2025-04-22T14:20:19.516+03:00,0.02197104130929222,0
2025-04-30T12:16:34.201+03:00,1746004590.822486,40.95209689816259,29.14023898507819,76.36157,-1,-1,-1,-1,30,67.48781531964896,-9999,12196.80715604167,-0.675048828125,0.6662445068359375,-0.3264312744140625,12196.79707904167,2.449394700287786,-1.12302681620041,-0.720172354080392,0.003995799459517002,0.007532084360718727,0.02959778904914856,0.003193914890289307,-0.002745330333709717,0.002665251493453979,XArbitraryZVertical,0.3675941772959785,-0.4496105901999125,0.8088373688730068,0.0922341250427114,-0.6775866746902466,0.6595142483711243,-0.325449675321579,0,0,0,-1,-1,12173.33683954167,unknown,2,2025-04-30T12:15:54.596+03:00,2025-04-30T12:00:08.093+03:00,132,1.288074,0,0,109.9097,0,0,2025-04-30T12:15:54.596+03:00,767697393.3892071,0,2.27,100.9393,1,0.8,2025-04-30T12:16:28.395+03:00,94,1.566666666666667,2025-04-22T14:20:19.516+03:00,0.02197104130929222,0
2025-04-30T12:16:34.210+03:00,1746004590.822486,40.95209689816259,29.14023898507819,76.36157,-1,-1,-1,-1,30,67.48781531964896,-9999,12196.81723204167,-0.6767120361328125,0.6671142578125,-0.324249267578125,12196.80715604167,2.449429946625143,-1.12282267970818,-0.7200094856074162,0.01129046361893415,0.02493930421769619,-0.01033151801675558,0.0005997419357299805,0.002168238162994385,0.0005460083484649658,XArbitraryZVertical,0.367555829624337,-0.4495391857724217,0.8088855200176553,0.0923120616767603,-0.6776169538497925,0.6593918204307556,-0.3256344795227051,0,0,0,-1,-1,12173.33683954167,unknown,2,2025-04-30T12:15:54.596+03:00,2025-04-30T12:00:08.093+03:00,132,1.288074,0,0,109.9097,0,0,2025-04-30T12:15:54.596+03:00,767697393.3892071,0,2.27,100.9393,1,0.8,2025-04-30T12:16:28.395+03:00,94,1.566666666666667,2025-04-22T14:20:19.516+03:00,0.02197104130929222,0
2025-04-30T12:16:34.220+03:00,1746004590.822486,40.95209689816259,29.14023898507819,76.36157,-1,-1,-1,-1,30,67.48781531964896,-9999,12196.82730904167,-0.6744842529296875,0.6321868896484375,-0.31964111328125,12196.81723204167,2.449364522479363,-1.122573425098298,-0.7199511924198669,-0.01443174388259649,0.03059818781912327,-0.008952699601650238,0.002521514892578125,0.006896555423736572,-0.0006112754344940186,XArbitraryZVertical,0.3674533186457999,-0.4495198253140174,0.8089314835731605,0.09241105952748825,-0.6775703430175781,0.6593479514122009,-0.3258199691772461,0,0,0,-1,-1,12173.33683954167,unknown,2,2025-04-30T12:15:54.596+03:00,2025-04-30T12:00:08.093+03:00,132,1.288074,0,0,109.9097,0,0,2025-04-30T12:15:54.596+03:00,767697393.3892071,0,2.27,100.9393,1,0.8,2025-04-30T12:16:28.395+03:00,94,1.566666666666667,2025-04-22T14:20:19.516+03:00,0.02197104130929222,0
2025-04-30T12:16:34.230+03:00,1746004590.822486,40.95209689816259,29.14023898507819,76.36157,-1,-1,-1,-1,30,67.48781531964896,-9999,12196.83738504167,-0.681549072265625,0.657379150390625,-0.32379150390625,12196.82730904167,2.449296158162441,-1.122216756236889,-0.7199269945507499,-0.004021447151899338,0.03998849540948868,-0.005071941297501326,0.0007565021514892578,0.007784485816955566,0.001819372177124023,XArbitraryZVertical,0.3672990163651911,-0.44950764914229,0.8089953098780066,0.09252594275109444,-0.6774685978889465,0.6593297719955444,-0.3260686099529266,0,0,0,-1,-1,12173.33683954167,unknown,2,2025-04-30T12:15:54.596+03:00,2025-04-30T12:00:08.093+03:00,132,1.288074,0,0,109.9097,0,0,2025-04-30T12:15:54.596+03:00,767697393.3892071,0,2.27,100.9393,1,0.8,2025-04-30T12:16:28.395+03:00,94,1.566666666666667,2025-04-22T14:20:19.516+03:00,0.02197104130929222,0
2025-04-30T12:16:34.241+03:00,1746004590.822486,40.95209689816259,29.14023898507819,76.36157,-1,-1,-1,-1,30,67.48781531964896,-9999,12196.84746204167,-0.6817626953125,0.6619110107421875,-0.3241729736328125,12196.83738504167,2.449296830722913,-1.12176946137441,-0.7199050749195486,0.0008896882063709199,0.04430787637829781,-0.00247203023172915,0.002851426601409912,-0.02712637186050415,0.00673675537109375,XArbitraryZVertical,0.367123109254506,-0.4494793471450807,0.8090786858056698,0.0926324351067177,-0.6773356795310974,0.6593133211135864,-0.3263778686523438,0,0,0,-1,-1,12173.33683954167,unknown,2,2025-04-30T12:15:54.596+03:00,2025-04-30T12:00:08.093+03:00,132,1.288074,0,0,109.9097,0,0,2025-04-30T12:15:54.596+03:00,767697393.3892071,0,2.27,100.9393,1,0.8,2025-04-30T12:16:28.395+03:00,94,1.566666666666667,2025-04-22T14:20:19.516+03:00,0.02197104130929222,0
2025-04-30T12:16:34.251+03:00,1746004590.822486,40.95209689816259,29.14023898507819,76.36157,-1,-1,-1,-1,30,67.48781531964896,-9999,12196.85753804167,-0.6816558837890625,0.6600494384765625,-0.3274078369140625,12196.84746204167,2.449371682259964,-1.121278646880797,-0.7198635278374812,0.01132421940565109,0.04310599341988564,-0.002452589105814695,-0.004349052906036377,-0.001902878284454346,0.002930700778961182,XArbitraryZVertical,0.3669506128000011,-0.4494286983544667,0.8091745454262873,0.09272427641967143,-0.6772000789642334,0.6592820882797241,-0.3267221748828888,0,0,0,-1,-1,12173.33683954167,unknown,2,2025-04-30T12:15:54.596+03:00,2025-04-30T12:00:08.093+03:00,132,1.288074,0,0,109.9097,0,0,2025-04-30T12:15:54.596+03:00,767697393.3892071,0,2.27,100.9393,1,0.8,2025-04-30T12:16:28.395+03:00,94,1.566666666666667,2025-04-22T14:20:19.516+03:00,0.02197104130929222,0
2025-04-30T12:16:34.261+03:00,1746004590.822486,40.95209689816259,29.14023898507819,76.36157,-1,-1,-1,-1,30,67.48781531964896,-9999,12196.86761504167,-0.681060791015625,0.6617889404296875,-0.32757568359375,12196.85753804167,2.449536067358931,-1.120779068855927,-0.7197600925474877,0.02150541730225086,0.04133652150630951,-0.0042607756331563,-0.004664599895477295,0.002706766128540039,0.002917110919952393,XArbitraryZVertical,0.3668084428338177,-0.4493400891865588,0.8092795650492928,0.09279941070325251,-0.6770981550216675,0.6592043042182922,-0.3270901143550873,0,0,0,-1,-1,12173.33683954167,unknown,2,2025-04-30T12:15:54.596+03:00,2025-04-30T12:00:08.093+03:00,132,1.288074,0,0,109.9097,0,0,2025-04-30T12:15:54.596+03:00,767697393.3892071,0,2.27,100.9393,1,0.8,2025-04-30T12:16:28.395+03:00,94,1.566666666666667,2025-04-22T14:20:19.516+03:00,0.02197104130929222,0
2025-04-30T12:16:34.271+03:00,1746004590.822486,40.95209689816259,29.14023898507819,76.36157,-1,-1,-1,-1,30,67.48781531964896,-9999,12196.87769104167,-0.6751861572265625,0.6591949462890625,-0.3289947509765625,12196.86761504167,2.449765918573852,-1.120253460729601,-0.7196127263531019,0.02440213784575462,0.03553029522299767,-0.008038735948503017,-0.004642248153686523,0.0009560585021972656,8.046627044677734e-05,XArbitraryZVertical,0.3666801236617989,-0.4492232639166597,0.8093949458481338,0.0928665154771056,-0.6770136952400208,0.65909343957901,-0.3274883031845093,0,0,0,-1,-1,12173.33683954167,unknown,2,2025-04-30T12:15:54.596+03:00,2025-04-30T12:00:08.093+03:00,132,1.288074,0,0,109.9097,0,0,2025-04-30T12:15:54.596+03:00,767697393.3892071,0,2.27,100.9393,1,0.8,2025-04-30T12:16:28.395+03:00,94,1.566666666666667,2025-04-22T14:20:19.516+03:00,0.02197104130929222,0
2025-04-30T12:16:34.281+03:00,1746004590.822486,40.95209689816259,29.14023898507819,76.36157,-1,-1,-1,-1,30,67.48781531964896,-9999,12196.88776804167,-0.6721038818359375,0.65631103515625,-0.3282623291015625,12196.87769104167,2.449987859831505,-1.119783722385618,-0.7194442198162462,0.01970865018665791,0.03107649274170399,-0.008625529706478119,-0.004101157188415527,0.002822339534759521,0.0002789795398712158,XArbitraryZVertical,0.366577324493297,-0.449103244253655,0.8095008107811154,0.09293011967147924,-0.6769596934318542,0.6589667201042175,-0.3278546929359436,0,0,0,-1,-1,12173.33683954167,unknown,2,2025-04-30T12:15:54.596+03:00,2025-04-30T12:00:08.093+03:00,132,1.288074,0,0,109.9097,0,0,2025-04-30T12:15:54.596+03:00,767697393.3892071,0,2.27,100.9393,1,0.8,2025-04-30T12:16:28.395+03:00,94,1.566666666666667,2025-04-22T14:20:19.516+03:00,0.02197104130929222,0
2025-04-30T12:16:34.291+03:00,1746004590.822486,40.95209689816259,29.14023898507819,76.36157,-1,-1,-1,-1,30,67.48781531964896,-9999,12196.89784404167,-0.6723785400390625,0.65679931640625,-0.32659912109375,12196.88776804167,2.450185788275993,-1.119365227922895,-0.7193019296490684,0.0200364850461483,0.02744527161121368,-0.005090184044092894,0.001720547676086426,0.0003353357315063477,-0.0008159279823303223,XArbitraryZVertical,0.3664840163636611,-0.4489989363636366,0.8095946571315735,0.09298438508538587,-0.6769067645072937,0.6588596701622009,-0.3281788527965546,0,0,0,-1,-1,12173.33683954167,unknown,2,2025-04-30T12:15:54.596+03:00,2025-04-30T12:00:08.093+03:00,132,1.288074,0,0,109.9097,0,0,2025-04-30T12:15:54.596+03:00,767697393.3892071,0,2.27,100.9393,1,0.8,2025-04-30T12:16:28.395+03:00,94,1.566666666666667,2025-04-22T14:20:19.516+03:00,0.02197104130929222,0
2025-04-30T12:16:34.301+03:00,1746004590.822486,40.95209689816259,29.14023898507819,76.36157,-1,-1,-1,-1,30,67.48781531964896,-9999,12196.90792104167,-0.672943115234375,0.655517578125,-0.3260498046875,12196.89784404167,2.450414088870949,-1.118944263063261,-0.7191851849938584,0.02331403829157352,0.02543831430375576,-0.006206980440765619,0.004733860492706299,-0.002460777759552002,0.0002350211143493652,XArbitraryZVertical,0.3663907931695555,-0.4488976607227509,0.8096889620716745,0.09301965645121253,-0.6768378019332886,0.6587718725204468,-0.3284973502159119,0,0,0,-1,-1,12173.33683954167,unknown,2,2025-04-30T12:15:54.596+03:00,2025-04-30T12:00:08.093+03:00,132,1.288074,0,0,109.9097,0,0,2025-04-30T12:15:54.596+03:00,767697393.3892071,0,2.27,100.9393,1,0.8,2025-04-30T12:16:28.395+03:00,94,1.566666666666667,2025-04-22T14:20:19.516+03:00,0.02197104130929222,0
2025-04-30T12:16:34.311+03:00,1746004590.822486,40.95209689816259,29.14023898507819,76.36157,-1,-1,-1,-1,30,67.48781531964896,-9999,12196.91799704167,-0.6722869873046875,0.6536865234375,-0.3248443603515625,12196.90792104167,2.450599016183383,-1.118559987720628,-0.7190968721024775,0.01507448311895132,0.02808922342956066,-0.003943826071918011,0.004385232925415039,-0.001906037330627441,0.002183735370635986,XArbitraryZVertical,0.3662963499902854,-0.4488157408195839,0.8097728934590406,0.09305609477497125,-0.6767637729644775,0.6587054133415222,-0.3287828266620636,0,0,0,-1,-1,12173.33683954167,unknown,2,2025-04-30T12:15:54.596+03:00,2025-04-30T12:00:08.093+03:00,132,1.288074,0,0,109.9097,0,0,2025-04-30T12:15:54.596+03:00,767697393.3892071,0,2.27,100.9393,1,0.8,2025-04-30T12:16:28.395+03:00,94,1.566666666666667,2025-04-22T14:20:19.516+03:00,0.02197104130929222,0
2025-04-30T12:16:34.321+03:00,1746004590.822486,40.95209689816259,29.14023898507819,76.36157,-1,-1,-1,-1,30,67.48781531964896,-9999,12196.92807404167,-0.6738739013671875,0.650604248046875,-0.3255462646484375,12196.91799704167,2.450758035254499,-1.118166785588972,-0.7189034684037489,0.02009474113583565,0.03220054507255554,-0.002481384668499231,0.003805875778198242,-0.003042221069335938,0.00305485725402832,XArbitraryZVertical,0.366215769119955,-0.4487022304540632,0.809863208914265,0.09313492914909995,-0.676749050617218,0.6585599184036255,-0.3291046321392059,0,0,0,-1,-1,12173.33683954167,unknown,2,2025-04-30T12:15:54.596+03:00,2025-04-30T12:00:08.093+03:00,132,1.288074,0,0,109.9097,0,0,2025-04-30T12:15:54.596+03:00,767697393.3892071,0,2.27,100.9393,1,0.8,2025-04-30T12:16:28.395+03:00,94,1.566666666666667,2025-04-22T14:20:19.516+03:00,0.02197104130929222,0
2025-04-30T12:16:34.331+03:00,1746004590.822486,40.95209689816259,29.14023898507819,76.36157,-1,-1,-1,-1,30,67.48781531964896,-9999,12196.938152375,-0.6717681884765625,0.6507720947265625,-0.3303375244140625,12196.92807404167,2.450993269321764,-1.117743178403476,-0.7187922099253971,0.02438509464263916,0.02233726158738136,0.005927546881139278,0.004388391971588135,-0.004789531230926514,0.004578977823257446,XArbitraryZVertical,0.3661217026338921,-0.4486014043996586,0.8099579882903513,0.09316630762273304,-0.6766754388809204,0.6584761738777161,-0.3294233679771423,0,0,0,-1,-1,12173.33683954167,unknown,2,2025-04-30T12:15:54.596+03:00,2025-04-30T12:00:08.093+03:00,132,1.288074,0,0,109.9097,0,0,2025-04-30T12:15:54.596+03:00,767697393.3892071,0,2.27,100.9393,1,0.8,2025-04-30T12:16:28.395+03:00,94,1.566666666666667,2025-04-22T14:20:19.516+03:00,0.02197104130929222,0
2025-04-30T12:16:34.341+03:00,1746004590.822486,40.95209689816259,29.14023898507819,76.36157,-1,-1,-1,-1,30,67.48781531964896,-9999,12196.948228375,-0.6761016845703125,0.6622161865234375,-0.3298797607421875,12196.938152375,2.451397726319229,-1.117210673908968,-0.7186807982679315,0.04216009378433228,0.03451856225728989,-0.005079564638435841,0.002691864967346191,-0.007788002490997314,0.00426948070526123,XArbitraryZVertical,0.3660214927673979,-0.448464474451803,0.8100805332735292,0.09315349987085041,-0.6765658259391785,0.6583923101425171,-0.3298157751560211,0,0,0,-1,-1,12173.33683954167,unknown,2,2025-04-30T12:15:54.596+03:00,2025-04-30T12:00:08.093+03:00,132,1.288074,0,0,109.9097,0,0,2025-04-30T12:15:54.596+03:00,767697393.3892071,0,2.27,100.9393,1,0.8,2025-04-30T12:16:28.395+03:00,94,1.566666666666667,2025-04-22T14:20:19.516+03:00,0.02197104130929222,0
2025-04-30T12:16:34.351+03:00,1746004590.822486,40.95209689816259,29.14023898507819,76.36157,-1,-1,-1,-1,30,67.48781531964896,-9999,12196.958305375,-0.672576904296875,0.6344451904296875,-0.3268280029296875,12196.948228375,2.451739472688026,-1.116702393267393,-0.7185546732636119,0.01566483825445175,0.02552799507975578,0.0004994915798306465,0.004704535007476807,-0.007525205612182617,-0.000141441822052002,XArbitraryZVertical,0.365920192068052,-0.4483351247609225,0.8101966232663523,0.09316489102287544,-0.6764727830886841,0.6582973599433899,-0.3301960527896881,0,0,0,-1,-1,12173.33683954167,unknown,2,2025-04-30T12:15:54.596+03:00,2025-04-30T12:00:08.093+03:00,132,1.288074,0,0,109.9097,0,0,2025-04-30T12:15:54.596+03:00,767697393.3892071,0,2.27,100.9393,1,0.8,2025-04-30T12:16:28.395+03:00,94,1.566666666666667,2025-04-22T14:20:19.516+03:00,0.02197104130929222,0
2025-04-30T12:16:34.362+03:00,1746004590.822486,40.95209689816259,29.14023898507819,76.36157,-1,-1,-1,-1,30,67.48781531964896,-9999,12196.968381375,-0.667144775390625,0.6404571533203125,-0.3285980224609375,12196.958305375,2.451887774503868,-1.116444463834656,-0.7185023678325573,0.01199846528470516,0.01371767558157444,0.0004985594423487782,0.0003167390823364258,0.003958284854888916,0.0005058348178863525,XArbitraryZVertical,0.3658605624589468,-0.4482780807672792,0.8102536441751528,0.09317742824149799,-0.6764184832572937,0.6582580208778381,-0.3303856253623962,0,0,0,-1,-1,12173.33683954167,unknown,2,2025-04-30T12:15:54.596+03:00,2025-04-30T12:00:08.093+03:00,132,1.288074,0,0,109.9097,0,0,2025-04-30T12:15:54.596+03:00,767697393.3892071,0,2.27,100.9393,1,0.8,2025-04-30T12:16:28.395+03:00,94,1.566666666666667,2025-04-22T14:20:19.516+03:00,0.02197104130929222,0
2025-04-30T12:16:34.372+03:00,1746004590.822486,40.95209689816259,29.14023898507819,76.36157,-1,-1,-1,-1,30,67.48781531964896,-9999,12196.978458375,-0.67071533203125,0.6501922607421875,-0.3257598876953125,12196.968381375,2.452037629161797,-1.116222287701477,-0.7184747398865438,0.01213748194277287,0.01188914943486452,0.003791291732341051,0.003784477710723877,-0.02379196882247925,0.003715872764587402,XArbitraryZVertical,0.3658102786741386,-0.4482308636432422,0.8103027989356439,0.09317431003278746,-0.6763613820075989,0.6582372188568115,-0.3305438756942749,0,0,0,-1,-1,12173.33683954167,unknown,2,2025-04-30T12:15:54.596+03:00,2025-04-30T12:00:08.093+03:00,132,1.288074,0,0,109.9097,0,0,2025-04-30T12:15:54.596+03:00,767697393.3892071,0,2.27,100.9393,1,0.8,2025-04-30T12:16:28.395+03:00,94,1.566666666666667,2025-04-22T14:20:19.516+03:00,0.02197104130929222,0
2025-04-30T12:16:34.382+03:00,1746004590.822486,40.95209689816259,29.14023898507819,76.36157,-1,-1,-1,-1,30,67.48781531964896,-9999,12196.988534375,-0.672515869140625,0.6479034423828125,-0.326995849609375,12196.978458375,2.452154568522628,-1.11605376495326,-0.7184450187117991,0.008244006894528866,0.007510446477681398,-9.5558469183743e-05,0.009178400039672852,-0.01775771379470825,0.002068370580673218,XArbitraryZVertical,0.3657748440512067,-0.4481914493684688,0.8103406530543622,0.09317299049037306,-0.6763231158256531,0.658214807510376,-0.3306663632392883,0,0,0,-1,-1,12173.33683954167,unknown,2,2025-04-30T12:15:54.596+03:00,2025-04-30T12:00:08.093+03:00,132,1.288074,0,0,109.9097,0,0,2025-04-30T12:15:54.596+03:00,767697393.3892071,0,2.27,100.9393,1,0.8,2025-04-30T12:16:28.395+03:00,94,1.566666666666667,2025-04-22T14:20:19.516+03:00,0.02197104130929222,0
2025-04-30T12:16:34.392+03:00,1746004590.822486,40.95209689816259,29.14023898507819,76.36157,-1,-1,-1,-1,30,67.48781531964896,-9999,12196.998611375,-0.673004150390625,0.6472015380859375,-0.32940673828125,12196.988534375,2.452211091499517,-1.115990139241447,-0.7184113316406345,0.00189210195094347,0.002022736938670278,-0.003478838130831718,0.005606770515441895,-0.007997214794158936,0.004959315061569214,XArbitraryZVertical,0.3657691801994308,-0.4481666195066841,0.8103568747418524,0.09317396815230881,-0.6763220429420471,0.6581894755363464,-0.3307191729545593,0,0,0,-1,-1,12173.33683954167,unknown,2,2025-04-30T12:15:54.596+03:00,2025-04-30T12:00:08.093+03:00,132,1.288074,0,0,109.9097,0,0,2025-04-30T12:15:54.596+03:00,767697393.3892071,0,2.27,100.9393,1,0.8,2025-04-30T12:16:28.395+03:00,94,1.566666666666667,2025-04-22T14:20:19.516+03:00,0.02197104130929222,0
2025-04-30T12:16:34.402+03:00,1746004590.822486,40.95209689816259,29.14023898507819,76.36157,-1,-1,-1,-1,30,67.48781531964896,-9999,12197.008687375,-0.674774169921875,0.6516876220703125,-0.328216552734375,12196.998611375,2.452199275055806,-1.115990506139651,-0.7183682992580989,0.002296303166076541,-0.0005613947287201881,-0.004913249984383583,0.003831744194030762,-0.01025354862213135,0.003735542297363281,XArbitraryZVertical,0.3657762155682521,-0.4481540690043231,0.8103587104958112,0.09319090643460706,-0.6763476729393005,0.6581570506095886,-0.3307313919067383,0,0,0,-1,-1,12173.33683954167,unknown,2,2025-04-30T12:15:54.596+03:00,2025-04-30T12:00:08.093+03:00,132,1.288074,0,0,109.9097,0,0,2025-04-30T12:15:54.596+03:00,767697393.3892071,0,2.27,100.9393,1,0.8,2025-04-30T12:16:28.395+03:00,94,1.566666666666667,2025-04-22T14:20:19.516+03:00,0.02197104130929222,0
2025-04-30T12:16:34.412+03:00,1746004590.822486,40.95209689816259,29.14023898507819,76.36157,-1,-1,-1,-1,30,67.48781531964896,-9999,12197.018764375,-0.6695556640625,0.6509552001953125,-0.3322601318359375,12197.008687375,2.452209402120951,-1.116020802693652,-0.7183271269994901,0.003641732269898057,-0.00267993938177824,-0.0007991988677531481,0.003377914428710938,-0.01092439889907837,0.001316100358963013,XArbitraryZVertical,0.3657998480578381,-0.448139539184672,0.8103560620662672,0.09319182390960061,-0.6763821244239807,0.6581260561943054,-0.330722838640213,0,0,0,-1,-1,12173.33683954167,unknown,2,2025-04-30T12:15:54.596+03:00,2025-04-30T12:00:08.093+03:00,132,1.288074,0,0,109.9097,0,0,2025-04-30T12:15:54.596+03:00,767697393.3892071,0,2.27,100.9393,1,0.8,2025-04-30T12:16:28.395+03:00,94,1.566666666666667,2025-04-22T14:20:19.516+03:00,0.02197104130929222,0
2025-04-30T12:16:34.422+03:00,1746004590.822486,40.95209689816259,29.14023898507819,76.36157,-1,-1,-1,-1,30,67.48781531964896,-9999,12197.028840375,-0.6693572998046875,0.651031494140625,-0.3327178955078125,12197.018764375,2.45223208399394,-1.11603948399762,-0.7183100955454346,0.002541513880714774,-9.301165118813515e-05,0.001691355835646391,0.001624107360839844,-0.006425559520721436,0.0024985671043396,XArbitraryZVertical,0.3658162873652818,-0.4481304304465097,0.8103546420865867,0.0931832456644543,-0.6763983368873596,0.6581132411956787,-0.3307151198387146,0,0,0,-1,-1,12173.33683954167,unknown,2,2025-04-30T12:15:54.596+03:00,2025-04-30T12:00:08.093+03:00,132,1.288074,0,0,109.9097,0,0,2025-04-30T12:15:54.596+03:00,767697393.3892071,0,2.27,100.9393,1,0.8,2025-04-30T12:16:28.395+03:00,94,1.566666666666667,2025-04-22T14:20:19.516+03:00,0.02197104130929222,0
2025-04-30T12:16:34.432+03:00,1746004590.822486,40.95209689816259,29.14023898507819,76.36157,-1,-1,-1,-1,30,67.48781531964896,-9999,12197.038917375,-0.6721343994140625,0.654449462890625,-0.3339996337890625,12197.028840375,2.45229165210362,-1.116005879825524,-0.718294076505037,0.001995299477130175,0.0005783713422715664,0.001171773299574852,0.006840944290161133,-0.007146000862121582,-0.001517683267593384,XArbitraryZVertical,0.3658195998296025,-0.4481124837263192,0.8103644077260953,0.09317109429956087,-0.6763966083526611,0.6581012010574341,-0.3307424485683441,0,0,0,-1,-1,12173.33683954167,unknown,2,2025-04-30T12:15:54.596+03:00,2025-04-30T12:00:08.093+03:00,132,1.288074,0,0,109.9097,0,0,2025-04-30T12:15:54.596+03:00,767697393.3892071,0,2.27,100.9393,1,0.8,2025-04-30T12:16:28.395+03:00,94,1.566666666666667,2025-04-22T14:20:19.516+03:00,0.02197104130929222,0
2025-04-30T12:16:34.442+03:00,1746004590.822486,40.95209689816259,29.14023898507819,76.36157,-1,-1,-1,-1,30,67.48781531964896,-9999,12197.048993375,-0.67388916015625,0.651947021484375,-0.335906982421875,12197.038917375,2.452359082781011,-1.115965589897763,-0.7183093004509783,0.003865637583658099,-0.002162553835660219,0.001838495722040534,0.007016956806182861,-0.007081151008605957,-0.001952558755874634,XArbitraryZVertical,0.3658150211451673,-0.4481034835601253,0.8103740270683627,0.09314843915180071,-0.6763742566108704,0.658112645149231,-0.3307652771472931,0,0,0,-1,-1,12173.33683954167,unknown,2,2025-04-30T12:15:54.596+03:00,2025-04-30T12:00:08.093+03:00,132,1.288074,0,0,109.9097,0,0,2025-04-30T12:15:54.596+03:00,767697393.3892071,0,2.27,100.9393,1,0.8,2025-04-30T12:16:28.395+03:00,94,1.566666666666667,2025-04-22T14:20:19.516+03:00,0.02197104130929222,0
2025-04-30T12:16:34.452+03:00,1746004590.822486,40.95209689816259,29.14023898507819,76.36157,-1,-1,-1,-1,30,67.48781531964896,-9999,12197.059070375,-0.6766815185546875,0.6519927978515625,-0.33428955078125,12197.048993375,2.452441276620814,-1.115940666718617,-0.7182229950789194,0.005178309977054596,-0.001315668690949678,0.002625459805130959,0.004282653331756592,-0.003598153591156006,-0.003192543983459473,XArbitraryZVertical,0.3658424598754464,-0.4480577448359573,0.8103873260757901,0.09314523858694221,-0.6764170527458191,0.6580476760864258,-0.330807089805603,0,0,0,-1,-1,12173.33683954167,unknown,2,2025-04-30T12:15:54.596+03:00,2025-04-30T12:00:08.093+03:00,132,1.288074,0,0,109.9097,0,0,2025-04-30T12:15:54.596+03:00,767697393.3892071,0,2.27,100.9393,1,0.8,2025-04-30T12:16:28.395+03:00,94,1.566666666666667,2025-04-22T14:20:19.516+03:00,0.02197104130929222,0
2025-04-30T12:16:34.462+03:00,1746004590.822486,40.95209689816259,29.14023898507819,76.36157,-1,-1,-1,-1,30,67.48781531964896,-9999,12197.069147375,-0.678680419921875,0.6565093994140625,-0.3308563232421875,12197.059070375,2.452561775703303,-1.115841418105536,-0.7182492774669137,0.003996531944721937,0.001183308660984039,0.02409832738339901,0.00247955322265625,-0.006120383739471436,-0.005040287971496582,XArbitraryZVertical,0.3658233887236744,-0.4480400818020355,0.810409654105666,0.09311126439743972,-0.676368772983551,0.6580674648284912,-0.330866664648056,0,0,0,-1,-1,12173.33683954167,unknown,2,2025-04-30T12:15:54.596+03:00,2025-04-30T12:00:08.093+03:00,132,1.288074,0,0,109.9097,0,0,2025-04-30T12:15:54.596+03:00,767697393.3892071,0,2.27,100.9393,1,0.8,2025-04-30T12:16:28.395+03:00,94,1.566666666666667,2025-04-22T14:20:19.516+03:00,0.02197104130929222,0
2025-04-30T12:16:34.472+03:00,1746004590.822486,40.95209689816259,29.14023898507819,76.36157,-1,-1,-1,-1,30,67.48781531964896,-9999,12197.079223375,-0.6795654296875,0.6665802001953125,-0.330902099609375,12197.069147375,2.452799905041473,-1.115631077899139,-0.7183190057596271,0.02014061436057091,0.006619619205594063,0.007245045155286789,-0.0004236102104187012,-0.006127119064331055,-0.003300786018371582,XArbitraryZVertical,0.3657760507998631,-0.4480106124444534,0.8104552398073941,0.09304209050874052,-0.6762579083442688,0.6581199765205383,-0.330988734960556,0,0,0,-1,-1,12173.33683954167,unknown,2,2025-04-30T12:15:54.596+03:00,2025-04-30T12:00:08.093+03:00,132,1.288074,0,0,109.9097,0,0,2025-04-30T12:15:54.596+03:00,767697393.3892071,0,2.27,100.9393,1,0.8,2025-04-30T12:16:28.395+03:00,94,1.566666666666667,2025-04-22T14:20:19.516+03:00,0.02197104130929222,0
2025-04-30T12:16:34.482+03:00,1746004590.822486,40.95209689816259,29.14023898507819,76.36157,-1,-1,-1,-1,30,67.48781531964896,-9999,12197.089300375,-0.67333984375,0.633880615234375,-0.328826904296875,12197.079223375,2.45302546680049,-1.115435557234299,-0.7183743644371273,0.004293940495699644,0.00497877923771739,0.0149699104949832,-0.002519965171813965,-0.001652181148529053,0.0002486109733581543,XArbitraryZVertical,0.3657350765581344,-0.4479792259718379,0.8104983413025593,0.09297877675701886,-0.676160454750061,0.6581616401672363,-0.3311049342155457,0,0,0,-1,-1,12173.33683954167,unknown,2,2025-04-30T12:15:54.596+03:00,2025-04-30T12:00:08.093+03:00,132,1.288074,0,0,109.9097,0,0,2025-04-30T12:15:54.596+03:00,767697393.3892071,0,2.27,100.9393,1,0.8,2025-04-30T12:16:28.395+03:00,94,1.566666666666667,2025-04-22T14:20:19.516+03:00,0.02197104130929222,0
2025-04-30T12:16:34.493+03:00,1746004590.822486,40.95209689816259,29.14023898507819,76.36157,-1,-1,-1,-1,30,67.48781531964896,-9999,12197.099376375,-0.6726837158203125,0.6477508544921875,-0.3303375244140625,12197.089300375,2.453085637319785,-1.115374373422909,-0.7184752822424253,-0.003920579794794321,-0.0005648569203913212,0.01308465842157602,-0.003484904766082764,0.008342623710632324,0.000214993953704834,XArbitraryZVertical,0.3657013982056705,-0.4479999394060722,0.8105065903084978,0.09293947550247615,-0.6760805249214172,0.658237636089325,-0.3311170935630798,0,0,0,-1,-1,12173.33683954167,unknown,2,2025-04-30T12:15:54.596+03:00,2025-04-30T12:00:08.093+03:00,132,1.288074,0,0,109.9097,0,0,2025-04-30T12:15:54.596+03:00,767697393.3892071,0,2.27,100.9393,1,0.8,2025-04-30T12:16:28.395+03:00,94,1.566666666666667,2025-04-22T14:20:19.516+03:00,0.02197104130929222,0
2025-04-30T12:16:34.502+03:00,1746004590.822486,40.95209689816259,29.14023898507819,76.36157,-1,-1,-1,-1,30,67.48781531964896,-9999,12197.109453375,-0.674041748046875,0.6566162109375,-0.3330230712890625,12197.099376375,2.453107482596668,-1.11538811738047,-0.7185584806997128,-0.002392990747466683,-0.003028547391295433,0.004746301099658012,0.002696037292480469,-0.02441960573196411,0.002256780862808228,XArbitraryZVertical,0.3656934397036346,-0.448025074167759,0.810500332446794,0.09290390659603889,-0.6760358810424805,0.6583002209663391,-0.3310836851596832,0,0,0,-1,-1,12173.33683954167,unknown,2,2025-04-30T12:15:54.596+03:00,2025-04-30T12:00:08.093+03:00,132,1.288074,0,0,109.9097,0,0,2025-04-30T12:15:54.596+03:00,767697393.3892071,0,2.27,100.9393,1,0.8,2025-04-30T12:16:30.395+03:00,94,1.566666666666667,2025-04-22T14:20:19.516+03:00,0.02197104130929222,0
2025-04-30T12:16:34.513+03:00,1746004590.822486,40.95209689816259,29.14023898507819,76.36157,-1,-1,-1,-1,30,67.48781531964896,-9999,12197.119529375,-0.672882080078125,0.6555633544921875,-0.33441162109375,12197.109453375,2.453185100420419,-1.11534342691823,-0.7185450762052017,0.008102526888251305,-0.0001645837910473347,8.656841237097979e-05,0.003345251083374023,-0.01053923368453979,0.0007802844047546387,XArbitraryZVertical,0.3656956750290983,-0.4480042165750429,0.8105128946710963,0.09288629729827692,-0.6760290265083313,0.6582901477813721,-0.3311177790164948,0,0,0,-1,-1,12173.33683954167,unknown,2,2025-04-30T12:15:54.596+03:00,2025-04-30T12:00:08.093+03:00,132,1.288074,0,0,109.9097,0,0,2025-04-30T12:15:54.596+03:00,767697393.3892071,0,2.27,100.9393,1,0.8,2025-04-30T12:16:30.395+03:00,94,1.566666666666667,2025-04-22T14:20:19.516+03:00,0.02197104130929222,0
2025-04-30T12:16:34.523+03:00,1746004590.822486,40.95209689816259,29.14023898507819,76.36157,-1,-1,-1,-1,30,67.48781531964896,-9999,12197.129606375,-0.6725311279296875,0.656585693359375,-0.3369140625,12197.119529375,2.453342888454444,-1.1152413348592,-0.7184803369856515,0.0153431287035346,-0.006385727785527706,-0.001908272271975875,0.001991748809814453,-0.001625120639801025,-0.001817464828491211,XArbitraryZVertical,0.3657039686343721,-0.4479484532924531,0.8105426109439972,0.09286363282611772,-0.6760335564613342,0.6582413911819458,-0.3312055766582489,0,0,0,-1,-1,12173.33683954167,unknown,2,2025-04-30T12:15:54.596+03:00,2025-04-30T12:00:08.093+03:00,132,1.288074,0,0,109.9097,0,0,2025-04-30T12:15:54.596+03:00,767697393.3892071,0,2.27,100.9393,1,0.8,2025-04-30T12:16:30.395+03:00,94,1.566666666666667,2025-04-22T14:20:19.516+03:00,0.02197104130929222,0
2025-04-30T12:16:34.533+03:00,1746004590.822486,40.95209689816259,29.14023898507819,76.36157,-1,-1,-1,-1,30,67.48781531964896,-9999,12197.139682375,-0.6732940673828125,0.661346435546875,-0.3389434814453125,12197.129606375,2.453595620140779,-1.115075654525177,-0.7184274204097146,0.02448336407542229,0.0004151863977313042,0.02225432172417641,0.003127753734588623,-0.002638161182403564,-0.003078699111938477,XArbitraryZVertical,0.3657051578130315,-0.4478764231033731,0.8105876191765821,0.09281327149063903,-0.6760098934173584,0.6582015752792358,-0.3313328921794891,0,0,0,-1,-1,12173.33683954167,unknown,2,2025-04-30T12:15:54.596+03:00,2025-04-30T12:00:08.093+03:00,132,1.288074,0,0,109.9097,0,0,2025-04-30T12:15:54.596+03:00,767697393.3892071,0,2.27,100.9393,1,0.8,2025-04-30T12:16:30.395+03:00,94,1.566666666666667,2025-04-22T14:20:19.516+03:00,0.02197104130929222,0
2025-04-30T12:16:34.543+03:00,1746004590.822486,40.95209689816259,29.14023898507819,76.36157,-1,-1,-1,-1,30,67.48781531964896,-9999,12197.149759375,-0.6749725341796875,0.660186767578125,-0.3370361328125,12197.139682375,2.45403278059576,-1.114756605537669,-0.7182938783355027,0.03476030007004738,-0.002017544582486153,0.00430504884570837,0.003451883792877197,-0.00151526927947998,-0.005326777696609497,XArbitraryZVertical,0.3657032788690467,-0.4477359342216705,0.8106738805574879,0.09274542720004565,-0.6759831309318542,0.6581010222434998,-0.3315872848033905,0,0,0,-1,-1,12173.33683954167,unknown,2,2025-04-30T12:15:54.596+03:00,2025-04-30T12:00:08.093+03:00,132,1.288074,0,0,109.9097,0,0,2025-04-30T12:15:54.596+03:00,767697393.3892071,0,2.27,100.9393,1,0.8,2025-04-30T12:16:30.395+03:00,94,1.566666666666667,2025-04-22T14:20:19.516+03:00,0.02197104130929222,0
2025-04-30T12:16:34.553+03:00,1746004590.822486,40.95209689816259,29.14023898507819,76.36157,-1,-1,-1,-1,30,67.48781531964896,-9999,12197.159835375,-0.6755828857421875,0.6417694091796875,-0.333160400390625,12197.149759375,2.454456995734057,-1.114501721076367,-0.7181267370222264,0.03449451923370361,-0.00580509239807725,-0.003283096011728048,0.002703189849853516,0.003371298313140869,-0.007135450839996338,XArbitraryZVertical,0.3657319053878519,-0.4475892644284394,0.8107496912693226,0.09267789995133771,-0.6759973168373108,0.6579751968383789,-0.3318080604076385,0,0,0,-1,-1,12173.33683954167,unknown,2,2025-04-30T12:15:54.596+03:00,2025-04-30T12:00:08.093+03:00,132,1.288074,0,0,109.9097,0,0,2025-04-30T12:15:54.596+03:00,767697393.3892071,0,2.27,100.9393,1,0.8,2025-04-30T12:16:30.395+03:00,94,1.566666666666667,2025-04-22T14:20:19.516+03:00,0.02197104130929222,0
2025-04-30T12:16:34.563+03:00,1746004590.822486,40.95209689816259,29.14023898507819,76.36157,-1,-1,-1,-1,30,67.48781531964896,-9999,12197.169912375,-0.673980712890625,0.6513214111328125,-0.3385467529296875,12197.159835375,2.454910984833324,-1.114304147427906,-0.7179264057560922,0.04361744225025177,-0.01297538727521896,-0.002236739965155721,0.001077473163604736,0.002362608909606934,-0.005036443471908569,XArbitraryZVertical,0.3657977076784137,-0.4474284087297988,0.8108183023525734,0.09259485326369989,-0.676050066947937,0.6578243374824524,-0.3319997191429138,0,0,0,-1,-1,12173.33683954167,unknown,2,2025-04-30T12:15:54.596+03:00,2025-04-30T12:00:08.093+03:00,132,1.288074,0,0,109.9097,0,0,2025-04-30T12:15:54.596+03:00,767697393.3892071,0,2.27,100.9393,1,0.8,2025-04-30T12:16:30.395+03:00,94,1.566666666666667,2025-04-22T14:20:19.516+03:00,0.02197104130929222,0
2025-04-30T12:16:34.573+03:00,1746004590.822486,40.95209689816259,29.14023898507819,76.36157,-1,-1,-1,-1,30,67.48781531964896,-9999,12197.179988375,-0.6753387451171875,0.6533660888671875,-0.3420562744140625,12197.169912375,2.455400056296603,-1.114149697850512,-0.7177145089550853,0.0455399788916111,-0.01924526877701283,-0.003671118523925543,0.0005408525466918945,-0.01589524745941162,-0.0009948611259460449,XArbitraryZVertical,0.3658913835686872,-0.4472591321370907,0.8108811963057981,0.09249101949746662,-0.6761237978935242,0.6576647162437439,-0.332165539264679,0,0,0,-1,-1,12173.33683954167,unknown,2,2025-04-30T12:15:54.596+03:00,2025-04-30T12:00:08.093+03:00,132,1.288074,0,0,109.9097,0,0,2025-04-30T12:15:54.596+03:00,767697393.3892071,0,2.27,100.9393,1,0.8,2025-04-30T12:16:30.395+03:00,94,1.566666666666667,2025-04-22T14:20:19.516+03:00,0.02197104130929222,0
2025-04-30T12:16:34.583+03:00,1746004590.822486,40.95209689816259,29.14023898507819,76.36157,-1,-1,-1,-1,30,67.48781531964896,-9999,12197.190065375,-0.681182861328125,0.654205322265625,-0.3451995849609375,12197.179988375,2.456033332269744,-1.113956352688691,-0.7173155053195156,0.07072509080171585,-0.02311044558882713,-0.01519042253494263,0.002314269542694092,-0.006042599678039551,-0.006134748458862305,XArbitraryZVertical,0.3660427507163729,-0.4469974403926135,0.8109686541674742,0.09239049972440795,-0.6762950420379639,0.6573640704154968,-0.3324119746685028,0,0,0,-1,-1,12173.33683954167,unknown,2,2025-04-30T12:15:54.596+03:00,2025-04-30T12:00:08.093+03:00,132,1.288074,0,0,109.9097,0,0,2025-04-30T12:15:54.596+03:00,767697393.3892071,0,2.27,100.9393,1,0.8,2025-04-30T12:16:30.395+03:00,94,1.566666666666667,2025-04-22T14:20:19.516+03:00,0.02197104130929222,0
2025-04-30T12:16:34.593+03:00,1746004590.822486,40.95209689816259,29.14023898507819,76.36157,-1,-1,-1,-1,30,67.48781531964896,-9999,12197.200142375,-0.6843109130859375,0.658203125,-0.350006103515625,12197.190065375,2.45691103428638,-1.11363807388247,-0.7167707963495517,0.09291908144950867,-0.02785486541688442,-0.02312025055289268,0.001171588897705078,-0.00358736515045166,-0.009271025657653809,XArbitraryZVertical,0.3662300730783173,-0.4466351136385222,0.8110985621313177,0.09225988998340595,-0.6765103936195374,0.6569535136222839,-0.3327852189540863,0,0,0,-1,-1,12173.33683954167,unknown,2,2025-04-30T12:15:54.596+03:00,2025-04-30T12:00:08.093+03:00,132,1.288074,0,0,109.9097,0,0,2025-04-30T12:15:54.596+03:00,767697393.3892071,0,2.27,100.9393,1,0.8,2025-04-30T12:16:30.395+03:00,94,1.566666666666667,2025-04-22T14:20:19.516+03:00,0.02197104130929222,0
2025-04-30T12:16:34.603+03:00,1746004590.822486,40.95209689816259,29.14023898507819,76.36157,-1,-1,-1,-1,30,67.48781531964896,-9999,12197.210218375,-0.686553955078125,0.664764404296875,-0.3621063232421875,12197.200142375,2.458191925591964,-1.113107238485223,-0.7160015521756686,0.1524776071310043,-0.03381515666842461,-0.03226334974169731,-0.004396140575408936,-0.002167999744415283,-0.01183211803436279,XArbitraryZVertical,0.3664703475245233,-0.4461118086310731,0.8112988177560444,0.09207649853869279,-0.6767867207527161,0.6563733816146851,-0.3333674669265747,0,0,0,-1,-1,12173.33683954167,unknown,2,2025-04-30T12:15:54.596+03:00,2025-04-30T12:00:08.093+03:00,132,1.288074,0,0,109.9097,0,0,2025-04-30T12:15:54.596+03:00,767697393.3892071,0,2.27,100.9393,1,0.8,2025-04-30T12:16:30.395+03:00,94,1.566666666666667,2025-04-22T14:20:19.516+03:00,0.02197104130929222,0
2025-04-30T12:16:34.613+03:00,1746004590.822486,40.95209689816259,29.14023898507819,76.36157,-1,-1,-1,-1,30,67.48781531964896,-9999,12197.220295375,-0.688232421875,0.6759490966796875,-0.376953125,12197.210218375,2.460117641917921,-1.112201141589562,-0.7148116473060551,0.202655553817749,-0.0385499894618988,-0.05254784598946571,-0.007126688957214355,0.002727925777435303,-0.01568004488945007,XArbitraryZVertical,0.3667939252598352,-0.4453079719590982,0.8116216189432421,0.0918335452115123,-0.6771841645240784,0.6554751992225647,-0.3343260586261749,0,0,0,-1,-1,12173.33683954167,unknown,2,2025-04-30T12:15:54.596+03:00,2025-04-30T12:00:08.093+03:00,132,1.288074,0,0,109.9097,0,0,2025-04-30T12:15:54.596+03:00,767697393.3892071,0,2.27,100.9393,1,0.8,2025-04-30T12:16:30.395+03:00,94,1.566666666666667,2025-04-22T14:20:19.516+03:00,0.02197104130929222,0
2025-04-30T12:16:34.623+03:00,1746004590.822486,40.95209689816259,29.14023898507819,76.36157,-1,-1,-1,-1,30,67.48781531964896,-9999,12197.230371375,-0.6883544921875,0.682403564453125,-0.382904052734375,12197.220295375,2.462203308439626,-1.111199609660557,-0.7133809681064844,0.1993170231580734,-0.03811536356806755,-0.06707245856523514,-0.008865118026733398,0.01037043333053589,-0.02668648958206177,XArbitraryZVertical,0.3671656087248929,-0.4443866744789605,0.8119833192212672,0.09161410328955566,-0.6776888966560364,0.6543940305709839,-0.3354198038578033,0,0,0,-1,-1,12173.33683954167,unknown,2,2025-04-30T12:15:54.596+03:00,2025-04-30T12:00:08.093+03:00,132,1.288074,0,0,109.9097,0,0,2025-04-30T12:15:54.596+03:00,767697393.3892071,0,2.27,100.9393,1,0.8,2025-04-30T12:16:30.395+03:00,94,1.566666666666667,2025-04-22T14:20:19.516+03:00,0.02197104130929222,0
