loggingTime(txt),locationTimestamp_since1970(s),locationLatitude(WGS84),locationLongitude(WGS84),locationAltitude(m),locationSpeed(m/s),locationSpeedAccuracy(m/s),locationCourse(°),locationCourseAccuracy(°),locationVerticalAccuracy(m),locationHorizontalAccuracy(m),locationFloor(Z),accelerometerTimestamp_sinceReboot(s),accelerometerAccelerationX(G),accelerometerAccelerationY(G),accelerometerAccelerationZ(G),motionTimestamp_sinceReboot(s),motionYaw(rad),motionRoll(rad),motionPitch(rad),motionRotationRateX(rad/s),motionRotationRateY(rad/s),motionRotationRateZ(rad/s),motionUserAccelerationX(G),motionUserAccelerationY(G),motionUserAccelerationZ(G),motionAttitudeReferenceFrame(txt),motionQuaternionX(R),motionQuaternionY(R),motionQuaternionZ(R),motionQuaternionW(R),motionGravityX(G),motionGravityY(G),motionGravityZ(G),motionMagneticFieldX(µT),motionMagneticFieldY(µT),motionMagneticFieldZ(µT),motionHeading(°),motionMagneticFieldCalibrationAccuracy(Z),activityTimestamp_sinceReboot(s),activity(txt),activityActivityConfidence(Z),activityActivityStartDate(txt),pedometerStartDate(txt),pedometerNumberofSteps(N),pedometerAverageActivePace(s/m),pedometerCurrentPace(s/m),pedometerCurrentCadence(steps/s),pedometerDistance(m),pedometerFloorAscended(N),pedometerFloorDescended(N),pedometerEndDate(txt),altimeterTimestamp_sinceReboot(s),altimeterReset(bool),altimeterRelativeAltitude(m),altimeterPressure(kPa),batteryState(N),batteryLevel(R),heartRateBPMTimestamp(txt),heartRateBPM(N),heartRateBPS(R),heartRateVariabilityTimestamp(txt),heartRateVariability(ms),label
2025-04-20T22:18:37.838+03:00,1745176712.716959,40.98552636824662,29.137368114026,128.4453,-1,-1,-1,-1,30,30.35635389065777,-9999,9091.226645000001,0.6389923095703125,-0.5129547119140625,-0.5525054931640625,9091.222875000001,1.185417354820506,0.8596808231467706,0.5204886655567064,0.02058757655322552,-0.0001190910115838051,-0.05385139957070351,0.004224002361297607,0.003102481365203857,0.01194310188293457,XArbitraryZVertical,-0.03093703400719853,0.4646701603879985,0.579635624497019,0.6686905627445454,0.6573055386543274,-0.4973041415214539,-0.5662490725517273,0,0,0,-1,-1,9080.303592166667,unknown,2,2025-04-20T22:18:26.887+03:00,2025-04-20T21:57:49.637+03:00,29,1.789309,0,0,23.86625,0,0,2025-04-20T22:09:07.141+03:00,766869517.3048571,0,0.9300003,99.72591,1,1,2025-04-20T22:18:29.793+03:00,93,1.55,2025-04-19T12:19:17.059+03:00,0.05691595998002078,0
2025-04-20T22:18:37.840+03:00,1745176712.716959,40.98552636824662,29.137368114026,128.4453,-1,-1,-1,-1,30,30.35635389065777,-9999,9091.236722,0.670989990234375,-0.492340087890625,-0.5561676025390625,9091.232951,1.184835581266795,0.8599228898421898,0.5202405023814739,0.02218920178711414,-0.005001730285584927,-0.05206415429711342,-0.0185437798500061,-0.01586586236953735,0.01366502046585083,XArbitraryZVertical,-0.03096986946725684,0.464710285736826,0.5794121020548867,0.6688547880932789,0.6575360298156738,-0.4970888495445251,-0.5661704540252686,0,0,0,-1,-1,9080.303592166667,unknown,2,2025-04-20T22:18:26.887+03:00,2025-04-20T21:57:49.637+03:00,29,1.789309,0,0,23.86625,0,0,2025-04-20T22:09:07.141+03:00,766869517.3048571,0,0.9300003,99.72591,1,1,2025-04-20T22:18:29.793+03:00,93,1.55,2025-04-19T12:19:17.059+03:00,0.05691595998002078,0
2025-04-20T22:18:37.841+03:00,1745176712.716959,40.98552636824662,29.137368114026,128.4453,-1,-1,-1,-1,30,30.35635389065777,-9999,9091.246798,0.661163330078125,-0.495941162109375,-0.55963134765625,9091.243028000001,1.184186058679594,0.8601770950444826,0.5200023666401455,0.02964532189071178,-0.007205962669104338,-0.05443846434354782,0.01322036981582642,0.004542082548141479,0.009912967681884766,XArbitraryZVertical,-0.03098646051888803,0.4647575696066483,0.5791666485492122,0.6690337586409895,0.6577696800231934,-0.4968822002410889,-0.5660805106163025,0,0,0,-1,-1,9080.303592166667,unknown,2,2025-04-20T22:18:26.887+03:00,2025-04-20T21:57:49.637+03:00,29,1.789309,0,0,23.86625,0,0,2025-04-20T22:09:07.141+03:00,766869517.3048571,0,0.9300003,99.72591,1,1,2025-04-20T22:18:29.793+03:00,93,1.55,2025-04-19T12:19:17.059+03:00,0.05691595998002078,0
2025-04-20T22:18:37.844+03:00,1745176712.716959,40.98552636824662,29.137368114026,128.4453,-1,-1,-1,-1,30,30.35635389065777,-9999,9091.256875000001,0.6600799560546875,-0.495086669921875,-0.567230224609375,9091.253105,1.183495950020841,0.860407885863995,0.5198020728021452,0.03295136988162994,-0.0115080326795578,-0.05356894060969353,0.00318753719329834,0.0007672011852264404,0.006362318992614746,XArbitraryZVertical,-0.03097185959352203,0.4648052795769649,0.5789117351822352,0.6692219856004894,0.6579757928848267,-0.4967083632946014,-0.56599360704422,0,0,0,-1,-1,9080.303592166667,unknown,2,2025-04-20T22:18:26.887+03:00,2025-04-20T21:57:49.637+03:00,29,1.789309,0,0,23.86625,0,0,2025-04-20T22:09:07.141+03:00,766869517.3048571,0,0.9300003,99.72591,1,1,2025-04-20T22:18:29.793+03:00,93,1.55,2025-04-19T12:19:17.059+03:00,0.05691595998002078,0
2025-04-20T22:18:37.853+03:00,1745176712.716959,40.98552636824662,29.137368114026,128.4453,-1,-1,-1,-1,30,30.35635389065777,-9999,9091.266951000001,0.660858154296875,-0.497802734375,-0.56427001953125,9091.263181,1.182824116793642,0.8605862650724312,0.5196006678499435,0.02737237885594368,-0.01732164621353149,-0.05138924345374107,0.001927435398101807,0.00144687294960022,-0.001288771629333496,XArbitraryZVertical,-0.03094682780383591,0.4648350357383786,0.5786635792560825,0.6694169304580756,0.6581524610519409,-0.4965335428714752,-0.5659413933753967,0,0,0,-1,-1,9080.303592166667,unknown,2,2025-04-20T22:18:26.887+03:00,2025-04-20T21:57:49.637+03:00,29,1.789309,0,0,23.86625,0,0,2025-04-20T22:09:07.141+03:00,766869517.3048571,0,0.9300003,99.72591,1,1,2025-04-20T22:18:29.793+03:00,93,1.55,2025-04-19T12:19:17.059+03:00,0.05691595998002078,0
2025-04-20T22:18:37.864+03:00,1745176712.716959,40.98552636824662,29.137368114026,128.4453,-1,-1,-1,-1,30,30.35635389065777,-9999,9091.277028,0.6632843017578125,-0.5034637451171875,-0.5567626953125,9091.273258000001,1.182198612904466,0.8607110057512161,0.5193260033409683,0.02000048384070396,-0.01952354796230793,-0.05594591051340103,0.002531647682189941,-0.00150763988494873,0.001678228378295898,XArbitraryZVertical,-0.03094585828126489,0.4648314355717854,0.5784241416239659,0.6696264498979092,0.6583265066146851,-0.4962951242923737,-0.5659481883049011,0,0,0,-1,-1,9080.303592166667,unknown,2,2025-04-20T22:18:26.887+03:00,2025-04-20T21:57:49.637+03:00,29,1.789309,0,0,23.86625,0,0,2025-04-20T22:09:07.141+03:00,766869517.3048571,0,0.9300003,99.72591,1,1,2025-04-20T22:18:29.793+03:00,93,1.55,2025-04-19T12:19:17.059+03:00,0.05691595998002078,0
2025-04-20T22:18:37.874+03:00,1745176712.716959,40.98552636824662,29.137368114026,128.4453,-1,-1,-1,-1,30,30.35635389065777,-9999,9091.287105000001,0.6636505126953125,-0.500396728515625,-0.5553741455078125,9091.283334,1.181585689957237,0.8608167101548166,0.5190199205686633,0.02085835486650467,-0.02122337743639946,-0.05855165049433708,0.004782795906066895,-0.00743439793586731,0.009214878082275391,XArbitraryZVertical,-0.0309547451728485,0.4648150408938103,0.5781859070833892,0.6698430926751645,0.6585015058517456,-0.4960293769836426,-0.5659775733947754,0,0,0,-1,-1,9080.303592166667,unknown,2,2025-04-20T22:18:26.887+03:00,2025-04-20T21:57:49.637+03:00,29,1.789309,0,0,23.86625,0,0,2025-04-20T22:09:07.141+03:00,766869517.3048571,0,0.9300003,99.72591,1,1,2025-04-20T22:18:29.793+03:00,93,1.55,2025-04-19T12:19:17.059+03:00,0.05691595998002078,0
2025-04-20T22:18:37.884+03:00,1745176712.716959,40.98552636824662,29.137368114026,128.4453,-1,-1,-1,-1,30,30.35635389065777,-9999,9091.297181,0.66351318359375,-0.494232177734375,-0.558502197265625,9091.293411000001,1.181009894999223,0.8608997758997632,0.5187349467579081,0.0197286419570446,-0.02348227053880692,-0.04835227504372597,0.004994809627532959,-0.004614830017089844,0.01064085960388184,XArbitraryZVertical,-0.03095737830369562,0.46479474241118,0.5779625136163948,0.6700498310286875,0.6586557030677795,-0.4957818984985352,-0.5660150051116943,0,0,0,-1,-1,9080.303592166667,unknown,2,2025-04-20T22:18:26.887+03:00,2025-04-20T21:57:49.637+03:00,29,1.789309,0,0,23.86625,0,0,2025-04-20T22:09:07.141+03:00,766869517.3048571,0,0.9300003,99.72591,1,1,2025-04-20T22:18:29.793+03:00,93,1.55,2025-04-19T12:19:17.059+03:00,0.05691595998002078,0
2025-04-20T22:18:37.894+03:00,1745176712.716959,40.98552636824662,29.137368114026,128.4453,-1,-1,-1,-1,30,30.35635389065777,-9999,9091.307258000001,0.660003662109375,-0.489837646484375,-0.56475830078125,9091.303488000001,1.18048088813251,0.8609227751634422,0.5184822376466938,0.01385244261473417,-0.02742448076605797,-0.0485522449016571,0.004749417304992676,0.00133022665977478,0.007579326629638672,XArbitraryZVertical,-0.03094079509539201,0.4647600686240096,0.5777589445989059,0.6702502406612579,0.6587637662887573,-0.4955624341964722,-0.5660814642906189,0,0,0,-1,-1,9080.303592166667,unknown,2,2025-04-20T22:18:26.887+03:00,2025-04-20T21:57:49.637+03:00,29,1.789309,0,0,23.86625,0,0,2025-04-20T22:09:07.141+03:00,766869517.3048571,0,0.9300003,99.72591,1,1,2025-04-20T22:18:29.793+03:00,93,1.55,2025-04-19T12:19:17.059+03:00,0.05691595998002078,0
2025-04-20T22:18:37.904+03:00,1745176712.716959,40.98552636824662,29.137368114026,128.4453,-1,-1,-1,-1,30,30.35635389065777,-9999,9091.317334000001,0.658111572265625,-0.488525390625,-0.5601959228515625,9091.313564,1.179995114748353,0.8608696653020043,0.5182748068598897,0.016229048371315,-0.02977019175887108,-0.04572290182113647,0.001192033290863037,0.005544573068618774,0.001425206661224365,XArbitraryZVertical,-0.03089444726907373,0.4647082961812614,0.57757563171042,0.6704462396465382,0.658811628818512,-0.4953822493553162,-0.5661834478378296,0,0,0,-1,-1,9080.303592166667,unknown,2,2025-04-20T22:18:26.887+03:00,2025-04-20T21:57:49.637+03:00,29,1.789309,0,0,23.86625,0,0,2025-04-20T22:09:07.141+03:00,766869517.3048571,0,0.9300003,99.72591,1,1,2025-04-20T22:18:29.793+03:00,93,1.55,2025-04-19T12:19:17.059+03:00,0.05691595998002078,0
2025-04-20T22:18:37.914+03:00,1745176712.716959,40.98552636824662,29.137368114026,128.4453,-1,-1,-1,-1,30,30.35635389065777,-9999,9091.327411,0.6614227294921875,-0.4912872314453125,-0.5572662353515625,9091.323641000001,1.179557964242016,0.8607968686042985,0.5179938621677919,0.009107955731451511,-0.03266191855072975,-0.04453636333346367,-0.000764310359954834,0.006612718105316162,0.006126224994659424,XArbitraryZVertical,-0.030882764352384,0.4646344775056661,0.5774013035346083,0.6706480551792819,0.6588759422302246,-0.4951381683349609,-0.5663220882415771,0,0,0,-1,-1,9080.303592166667,unknown,2,2025-04-20T22:18:26.887+03:00,2025-04-20T21:57:49.637+03:00,29,1.789309,0,0,23.86625,0,0,2025-04-20T22:09:07.141+03:00,766869517.3048571,0,0.9300003,99.72591,1,1,2025-04-20T22:18:29.793+03:00,93,1.55,2025-04-19T12:19:17.059+03:00,0.05691595998002078,0
2025-04-20T22:18:37.924+03:00,1745176712.716959,40.98552636824662,29.137368114026,128.4453,-1,-1,-1,-1,30,30.35635389065777,-9999,9091.337488000001,0.6583099365234375,-0.49530029296875,-0.55767822265625,9091.333717000001,1.179138924485928,0.8607191063034617,0.5177113187441502,0.007408858276903629,-0.02552811056375504,-0.04236775264143944,0.002484798431396484,0.003605455160140991,0.009198367595672607,XArbitraryZVertical,-0.03087455144776285,0.4645584155360777,0.5772329106629545,0.6708459566127712,0.6589378714561462,-0.4948926866054535,-0.5664644837379456,0,0,0,-1,-1,9080.303592166667,unknown,2,2025-04-20T22:18:26.887+03:00,2025-04-20T21:57:49.637+03:00,29,1.789309,0,0,23.86625,0,0,2025-04-20T22:09:07.141+03:00,766869517.3048571,0,0.9300003,99.72591,1,1,2025-04-20T22:18:29.793+03:00,93,1.55,2025-04-19T12:19:17.059+03:00,0.05691595998002078,0
2025-04-20T22:18:37.934+03:00,1745176712.716959,40.98552636824662,29.137368114026,128.4453,-1,-1,-1,-1,30,30.35635389065777,-9999,9091.347564,0.65460205078125,-0.49688720703125,-0.5621795654296875,9091.343794,1.178701915837153,0.8607091220084848,0.5174524918854267,0.01477822475135326,-0.02026663720607758,-0.04401645064353943,-0.0007194280624389648,-0.0006325244903564453,0.008876442909240723,XArbitraryZVertical,-0.0308723721295672,0.4645101006736261,0.5770598158163908,0.6710283647362975,0.6590293049812317,-0.4946677386760712,-0.5665545463562012,0,0,0,-1,-1,9080.303592166667,unknown,2,2025-04-20T22:18:26.887+03:00,2025-04-20T21:57:49.637+03:00,29,1.789309,0,0,23.86625,0,0,2025-04-20T22:09:07.141+03:00,766869517.3048571,0,0.9300003,99.72591,1,1,2025-04-20T22:18:36.793+03:00,89,1.483333333333333,2025-04-19T12:19:17.059+03:00,0.05691595998002078,0
2025-04-20T22:18:37.944+03:00,1745176712.716959,40.98552636824662,29.137368114026,128.4453,-1,-1,-1,-1,30,30.35635389065777,-9999,9091.357641000001,0.6536102294921875,-0.4942626953125,-0.5640716552734375,9091.353871000001,1.178246927637633,0.8607672944244057,0.5172447752535133,0.01553296484053135,-0.01482686400413513,-0.03859585151076317,-0.004538178443908691,-0.002400010824203491,0.004403650760650635,XArbitraryZVertical,-0.03086550720687475,0.4644951525071166,0.5768848397496267,0.671189443650181,0.6591401696205139,-0.4944872260093689,-0.5665831565856934,0,0,0,-1,-1,9080.303592166667,unknown,2,2025-04-20T22:18:26.887+03:00,2025-04-20T21:57:49.637+03:00,29,1.789309,0,0,23.86625,0,0,2025-04-20T22:09:07.141+03:00,766869517.3048571,0,0.9300003,99.72591,1,1,2025-04-20T22:18:36.793+03:00,89,1.483333333333333,2025-04-19T12:19:17.059+03:00,0.05691595998002078,0
2025-04-20T22:18:37.954+03:00,1745176712.716959,40.98552636824662,29.137368114026,128.4453,-1,-1,-1,-1,30,30.35635389065777,-9999,9091.367718000001,0.6520538330078125,-0.497039794921875,-0.560882568359375,9091.363947,1.177834852543522,0.860857113915667,0.5170537110791009,0.01403553504496813,-0.01247469335794449,-0.03923018276691437,-0.005652546882629395,5.84721565246582e-05,0.002514004707336426,XArbitraryZVertical,-0.03087114698136244,0.464493497038301,0.5767254356362456,0.6713273398565112,0.6592627167701721,-0.4943211376667023,-0.5665855407714844,0,0,0,-1,-1,9080.303592166667,unknown,2,2025-04-20T22:18:26.887+03:00,2025-04-20T21:57:49.637+03:00,29,1.789309,0,0,23.86625,0,0,2025-04-20T22:09:07.141+03:00,766869517.3048571,0,0.9300003,99.72591,1,1,2025-04-20T22:18:36.793+03:00,89,1.483333333333333,2025-04-19T12:19:17.059+03:00,0.05691595998002078,0
2025-04-20T22:18:37.964+03:00,1745176712.716959,40.98552636824662,29.137368114026,128.4453,-1,-1,-1,-1,30,30.35635389065777,-9999,9091.377794,0.65179443359375,-0.499176025390625,-0.558074951171875,9091.374024000001,1.177453581486626,0.8609565580669599,0.5168160604121148,0.006460706237703562,-0.008416568860411644,-0.04266246408224106,-0.007354378700256348,-0.002925276756286621,0.005713999271392822,XArbitraryZVertical,-0.03090512654272077,0.4644853263756729,0.5765713728487554,0.6714637524091319,0.6594081521034241,-0.4941145479679108,-0.566596508026123,0,0,0,-1,-1,9080.303592166667,unknown,2,2025-04-20T22:18:26.887+03:00,2025-04-20T21:57:49.637+03:00,29,1.789309,0,0,23.86625,0,0,2025-04-20T22:09:07.141+03:00,766869517.3048571,0,0.9300003,99.72591,1,1,2025-04-20T22:18:36.793+03:00,89,1.483333333333333,2025-04-19T12:19:17.059+03:00,0.05691595998002078,0
2025-04-20T22:18:37.975+03:00,1745176712.716959,40.98552636824662,29.137368114026,128.4453,-1,-1,-1,-1,30,30.35635389065777,-9999,9091.387871000001,0.65020751953125,-0.5006866455078125,-0.55865478515625,9091.384100000001,1.177084430856502,0.8610839335540258,0.5165340535640505,0.005723876412957907,-0.002675792668014765,-0.04234964028000832,-0.007791578769683838,-0.00530669093132019,0.008528411388397217,XArbitraryZVertical,-0.03096749938825701,0.4644775280372265,0.5764163153572884,0.6715993663970771,0.6595859527587891,-0.4938693344593048,-0.5666033029556274,0,0,0,-1,-1,9080.303592166667,unknown,2,2025-04-20T22:18:26.887+03:00,2025-04-20T21:57:49.637+03:00,29,1.789309,0,0,23.86625,0,0,2025-04-20T22:09:07.141+03:00,766869517.3048571,0,0.9300003,99.72591,1,1,2025-04-20T22:18:36.793+03:00,89,1.483333333333333,2025-04-19T12:19:17.059+03:00,0.05691595998002078,0
2025-04-20T22:18:37.984+03:00,1745176712.716959,40.98552636824662,29.137368114026,128.4453,-1,-1,-1,-1,30,30.35635389065777,-9999,9091.397947000001,0.6519317626953125,-0.498199462890625,-0.5604248046875,9091.394177,1.176742551751883,0.8612524568410377,0.5162618048612878,0.004728120286017656,0.0006923074834048748,-0.03530770912766457,-0.009575963020324707,-0.007054060697555542,0.007925033569335938,XArbitraryZVertical,-0.03104418004635482,0.4644850920948057,0.5762707185652465,0.6717155883794399,0.6597834825515747,-0.493632584810257,-0.5665796995162964,0,0,0,-1,-1,9080.303592166667,unknown,2,2025-04-20T22:18:26.887+03:00,2025-04-20T21:57:49.637+03:00,29,1.789309,0,0,23.86625,0,0,2025-04-20T22:09:07.141+03:00,766869517.3048571,0,0.9300003,99.72591,1,1,2025-04-20T22:18:36.793+03:00,89,1.483333333333333,2025-04-19T12:19:17.059+03:00,0.05691595998002078,0
2025-04-20T22:18:37.995+03:00,1745176712.716959,40.98552636824662,29.137368114026,128.4453,-1,-1,-1,-1,30,30.35635389065777,-9999,9091.408024,0.6533203125,-0.496185302734375,-0.5637054443359375,9091.404254000001,1.17645099613894,0.861445492121796,0.516006780737027,-6.224066601134837e-05,0.006750066764652729,-0.03149479627609253,-0.008056581020355225,-0.004788637161254883,0.00610959529876709,XArbitraryZVertical,-0.03113285046429212,0.4645036114623253,0.5761433962932735,0.6718077971493511,0.6599882841110229,-0.4934107959270477,-0.5665342807769775,0,0,0,-1,-1,9080.303592166667,unknown,2,2025-04-20T22:18:26.887+03:00,2025-04-20T21:57:49.637+03:00,29,1.789309,0,0,23.86625,0,0,2025-04-20T22:09:07.141+03:00,766869517.3048571,0,0.9300003,99.72591,1,1,2025-04-20T22:18:36.793+03:00,89,1.483333333333333,2025-04-19T12:19:17.059+03:00,0.05691595998002078,0
2025-04-20T22:18:38.005+03:00,1745176712.716959,40.98552636824662,29.137368114026,128.4453,-1,-1,-1,-1,30,30.35635389065777,-9999,9091.418101000001,0.651641845703125,-0.494415283203125,-0.5622406005859375,9091.414330000001,1.176216244114832,0.8616449184316847,0.5157842997269235,0.001118871266953647,0.009860105812549591,-0.02713200636208057,-0.006864309310913086,-0.002968043088912964,0.002768754959106445,XArbitraryZVertical,-0.03122361861812496,0.4645298715037804,0.5760383521952553,0.6718756102727583,0.6601845622062683,-0.493217259645462,-0.5664741396903992,0,0,0,-1,-1,9080.303592166667,unknown,2,2025-04-20T22:18:26.887+03:00,2025-04-20T21:57:49.637+03:00,29,1.789309,0,0,23.86625,0,0,2025-04-20T22:09:07.141+03:00,766869517.3048571,0,0.9300003,99.72591,1,1,2025-04-20T22:18:36.793+03:00,89,1.483333333333333,2025-04-19T12:19:17.059+03:00,0.05691595998002078,0
2025-04-20T22:18:38.015+03:00,1745176712.716959,40.98552636824662,29.137368114026,128.4453,-1,-1,-1,-1,30,30.35635389065777,-9999,9091.428177,0.6510467529296875,-0.493438720703125,-0.5605010986328125,9091.424407,1.176026387241526,0.86181534316912,0.5156035604061425,-0.001551746623590589,0.005052301567047834,-0.02156440168619156,-0.008706927299499512,-0.001355260610580444,0.004179120063781738,XArbitraryZVertical,-0.03130001099398805,0.4645540630837488,0.5759531606129153,0.671928331012552,0.6603487730026245,-0.4930600225925446,-0.5664196610450745,0,0,0,-1,-1,9080.303592166667,unknown,2,2025-04-20T22:18:26.887+03:00,2025-04-20T21:57:49.637+03:00,29,1.789309,0,0,23.86625,0,0,2025-04-20T22:09:07.141+03:00,766869517.3048571,0,0.9300003,99.72591,1,1,2025-04-20T22:18:36.793+03:00,89,1.483333333333333,2025-04-19T12:19:17.059+03:00,0.05691595998002078,0
2025-04-20T22:18:38.025+03:00,1745176712.716959,40.98552636824662,29.137368114026,128.4453,-1,-1,-1,-1,30,30.35635389065777,-9999,9091.438254000001,0.654205322265625,-0.4933319091796875,-0.559234619140625,9091.434483000001,1.17589402696082,0.861938499477904,0.515442929931333,-0.001111792400479317,0.004670138005167246,-0.01744608953595161,-0.009431898593902588,-0.0005184412002563477,0.005888879299163818,XArbitraryZVertical,-0.03136816798603571,0.4645654801228763,0.5758900784373731,0.6719713785724062,0.6604786515235901,-0.4929202795028687,-0.5663899183273315,0,0,0,-1,-1,9080.303592166667,unknown,2,2025-04-20T22:18:26.887+03:00,2025-04-20T21:57:49.637+03:00,29,1.789309,0,0,23.86625,0,0,2025-04-20T22:09:07.141+03:00,766869517.3048571,0,0.9300003,99.72591,1,1,2025-04-20T22:18:36.793+03:00,89,1.483333333333333,2025-04-19T12:19:17.059+03:00,0.05691595998002078,0
2025-04-20T22:18:38.035+03:00,1745176712.716959,40.98552636824662,29.137368114026,128.4453,-1,-1,-1,-1,30,30.35635389065777,-9999,9091.448330000001,0.65582275390625,-0.495361328125,-0.561798095703125,9091.44456,1.175770338326633,0.8620167818192396,0.5153258673853826,0.001501367776654661,-0.0012758350931108,-0.01548503898084164,-0.006361484527587891,-0.0005134940147399902,0.007141232490539551,XArbitraryZVertical,-0.03140822558558086,0.4645703907881344,0.5758351340013228,0.6720131873742278,0.6605668067932129,-0.4928184151649475,-0.566375732421875,0,0,0,-1,-1,9080.303592166667,unknown,2,2025-04-20T22:18:26.887+03:00,2025-04-20T21:57:49.637+03:00,29,1.789309,0,0,23.86625,0,0,2025-04-20T22:09:07.141+03:00,766869517.3048571,0,0.9300003,99.72591,1,1,2025-04-20T22:18:36.793+03:00,89,1.483333333333333,2025-04-19T12:19:17.059+03:00,0.05691595998002078,0
2025-04-20T22:18:38.045+03:00,1745176712.716959,40.98552636824662,29.137368114026,128.4453,-1,-1,-1,-1,30,30.35635389065777,-9999,9091.458407,0.6576080322265625,-0.49859619140625,-0.560302734375,9091.454637000001,1.175705807372219,0.862028857415384,0.5152321889945458,-0.005067052785307169,-0.001973849721252918,-0.01047350186854601,-0.004785895347595215,-0.002624422311782837,0.004599809646606445,XArbitraryZVertical,-0.03143374384926505,0.4645568034746052,0.575803538151166,0.6720483929405323,0.6606086492538452,-0.4927369058132172,-0.5663977861404419,0,0,0,-1,-1,9080.303592166667,unknown,2,2025-04-20T22:18:26.887+03:00,2025-04-20T21:57:49.637+03:00,29,1.789309,0,0,23.86625,0,0,2025-04-20T22:09:07.141+03:00,766869517.3048571,0,0.9300003,99.72591,1,1,2025-04-20T22:18:36.793+03:00,89,1.483333333333333,2025-04-19T12:19:17.059+03:00,0.05691595998002078,0
2025-04-20T22:18:38.055+03:00,1745176712.716959,40.98552636824662,29.137368114026,128.4453,-1,-1,-1,-1,30,30.35635389065777,-9999,9091.468484000001,0.6610870361328125,-0.497833251953125,-0.5582427978515625,9091.464713000001,1.175637397050642,0.8620157344593936,0.5151697792075536,-0.0009725090931169689,-0.007160954643040895,-0.009401745162904263,-0.00301659107208252,-0.005913585424423218,0.006123900413513184,XArbitraryZVertical,-0.03143868545681393,0.4645410012827631,0.5757742507561985,0.6720843088494718,0.660624623298645,-0.4926826059818268,-0.5664265155792236,0,0,0,-1,-1,9080.303592166667,unknown,2,2025-04-20T22:18:26.887+03:00,2025-04-20T21:57:49.637+03:00,29,1.789309,0,0,23.86625,0,0,2025-04-20T22:09:07.141+03:00,766869517.3048571,0,0.9300003,99.72591,1,1,2025-04-20T22:18:36.793+03:00,89,1.483333333333333,2025-04-19T12:19:17.059+03:00,0.05691595998002078,0
2025-04-20T22:18:38.066+03:00,1745176712.716959,40.98552636824662,29.137368114026,128.4453,-1,-1,-1,-1,30,30.35635389065777,-9999,9091.478560000001,0.6599884033203125,-0.49822998046875,-0.558837890625,9091.47479,1.175587720151452,0.8619616980128448,0.5151142893731468,-0.0007895499584265053,-0.007976947352290154,-0.01035169512033463,0.0004723072052001953,-0.005198955535888672,0.008237242698669434,XArbitraryZVertical,-0.03143355814944723,0.4645125899306539,0.5757526591530787,0.6721225528399255,0.6606146693229675,-0.4926342964172363,-0.5664799809455872,0,0,0,-1,-1,9080.303592166667,unknown,2,2025-04-20T22:18:26.887+03:00,2025-04-20T21:57:49.637+03:00,29,1.789309,0,0,23.86625,0,0,2025-04-20T22:09:07.141+03:00,766869517.3048571,0,0.9300003,99.72591,1,1,2025-04-20T22:18:36.793+03:00,89,1.483333333333333,2025-04-19T12:19:17.059+03:00,0.05691595998002078,0
2025-04-20T22:18:38.087+03:00,1745176712.716959,40.98552636824662,29.137368114026,128.4453,-1,-1,-1,-1,30,30.35635389065777,-9999,9091.488637,0.658721923828125,-0.5005645751953125,-0.561065673828125,9091.484867000001,1.175575570333852,0.8618847458413272,0.5150231579597824,-0.01178021542727947,-0.009758668951690197,-0.005745258647948503,-0.0006167888641357422,-0.005674958229064941,0.007722258567810059,XArbitraryZVertical,-0.03144459825228386,0.4644687606959225,0.5757403196671654,0.6721628635531576,0.6606051325798035,-0.4925549924373627,-0.5665600299835205,0,0,0,-1,-1,9080.303592166667,unknown,2,2025-04-20T22:18:26.887+03:00,2025-04-20T21:57:49.637+03:00,29,1.789309,0,0,23.86625,0,0,2025-04-20T22:09:07.141+03:00,766869517.3048571,0,0.9300003,99.72591,1,1,2025-04-20T22:18:36.793+03:00,89,1.483333333333333,2025-04-19T12:19:17.059+03:00,0.05691595998002078,0
2025-04-20T22:18:38.089+03:00,1745176712.716959,40.98552636824662,29.137368114026,128.4453,-1,-1,-1,-1,30,30.35635389065777,-9999,9091.498713000001,0.6569061279296875,-0.4990234375,-0.5620574951171875,9091.494943,1.175650752877679,0.8617179971980639,0.5148717282343818,-0.01907088607549667,-0.01419789250940084,-0.007643293589353561,-0.001845419406890869,-0.008141368627548218,0.005653142929077148,XArbitraryZVertical,-0.03147385740580628,0.4643813313589352,0.5757524653110606,0.6722115628024186,0.6605672836303711,-0.4924232065677643,-0.5667187571525574,0,0,0,-1,-1,9080.303592166667,unknown,2,2025-04-20T22:18:26.887+03:00,2025-04-20T21:57:49.637+03:00,29,1.789309,0,0,23.86625,0,0,2025-04-20T22:09:07.141+03:00,766869517.3048571,0,0.9300003,99.72591,1,1,2025-04-20T22:18:36.793+03:00,89,1.483333333333333,2025-04-19T12:19:17.059+03:00,0.05691595998002078,0
2025-04-20T22:18:38.106+03:00,1745176712.716959,40.98552636824662,29.137368114026,128.4453,-1,-1,-1,-1,30,30.35635389065777,-9999,9091.50879,0.6567840576171875,-0.50286865234375,-0.562347412109375,9091.505020000001,1.175775026058057,0.8615171059217797,0.5146885968893308,-0.01923899911344051,-0.01215052045881748,-0.01020622067153454,-0.003615796566009521,-0.006759613752365112,0.004852771759033203,XArbitraryZVertical,-0.03151723431008897,0.4642753354369641,0.5757783771989535,0.6722605274834038,0.6605218648910522,-0.4922638237476349,-0.5669101476669312,0,0,0,-1,-1,9080.303592166667,unknown,2,2025-04-20T22:18:26.887+03:00,2025-04-20T21:57:49.637+03:00,29,1.789309,0,0,23.86625,0,0,2025-04-20T22:09:07.141+03:00,766869517.3048571,0,0.9300003,99.72591,1,1,2025-04-20T22:18:36.793+03:00,89,1.483333333333333,2025-04-19T12:19:17.059+03:00,0.05691595998002078,0
2025-04-20T22:18:38.107+03:00,1745176712.716959,40.98552636824662,29.137368114026,128.4453,-1,-1,-1,-1,30,30.35635389065777,-9999,9091.518867000001,0.65478515625,-0.502410888671875,-0.5648040771484375,9091.515096000001,1.175884029890825,0.8613591648718815,0.5144846605896187,-0.02184170484542847,-0.009125968441367149,-0.009771060198545456,-0.003724396228790283,-0.01078236103057861,0.004732489585876465,XArbitraryZVertical,-0.03157764208327157,0.4641798474552908,0.5757963296171233,0.6723082310392726,0.6605084538459778,-0.4920862913131714,-0.5670798420906067,0,0,0,-1,-1,9080.303592166667,unknown,2,2025-04-20T22:18:26.887+03:00,2025-04-20T21:57:49.637+03:00,29,1.789309,0,0,23.86625,0,0,2025-04-20T22:09:07.141+03:00,766869517.3048571,0,0.9300003,99.72591,1,1,2025-04-20T22:18:36.793+03:00,89,1.483333333333333,2025-04-19T12:19:17.059+03:00,0.05691595998002078,0
2025-04-20T22:18:38.116+03:00,1745176712.716959,40.98552636824662,29.137368114026,128.4453,-1,-1,-1,-1,30,30.35635389065777,-9999,9091.528943000001,0.657318115234375,-0.498016357421875,-0.5640869140625,9091.525173,1.175999955473802,0.8611885972375252,0.5143067826528249,-0.01819164305925369,-0.01347231306135654,-0.007205802947282791,-0.005693018436431885,-0.01047948002815247,0.002445518970489502,XArbitraryZVertical,-0.03162569282780451,0.4640851706890445,0.5758195135382093,0.6723515269079372,0.6604781150817871,-0.4919314384460449,-0.5672495365142822,0,0,0,-1,-1,9080.303592166667,unknown,2,2025-04-20T22:18:26.887+03:00,2025-04-20T21:57:49.637+03:00,29,1.789309,0,0,23.86625,0,0,2025-04-20T22:09:07.141+03:00,766869517.3048571,0,0.9300003,99.72591,1,1,2025-04-20T22:18:36.793+03:00,89,1.483333333333333,2025-04-19T12:19:17.059+03:00,0.05691595998002078,0
2025-04-20T22:18:38.126+03:00,1745176712.716959,40.98552636824662,29.137368114026,128.4453,-1,-1,-1,-1,30,30.35635389065777,-9999,9091.53902,0.6616363525390625,-0.4969329833984375,-0.5610809326171875,9091.535250000001,1.176135638574074,0.8609506080214974,0.5140904875636192,-0.02736490219831467,-0.02016537077724934,-0.007300877943634987,-0.003105700016021729,-0.006273239850997925,0.003389179706573486,XArbitraryZVertical,-0.03167413531755126,0.46395985784852,0.5758464521477697,0.672412559326568,0.660423755645752,-0.4917431175708771,-0.5674759745597839,0,0,0,-1,-1,9080.303592166667,unknown,2,2025-04-20T22:18:26.887+03:00,2025-04-20T21:57:49.637+03:00,29,1.789309,0,0,23.86625,0,0,2025-04-20T22:09:07.141+03:00,766869517.3048571,0,0.9300003,99.72591,1,1,2025-04-20T22:18:36.793+03:00,89,1.483333333333333,2025-04-19T12:19:17.059+03:00,0.05691595998002078,0
2025-04-20T22:18:38.136+03:00,1745176712.716959,40.98552636824662,29.137368114026,128.4453,-1,-1,-1,-1,30,30.35635389065777,-9999,9091.549096000001,0.6616973876953125,-0.496795654296875,-0.55712890625,9091.545326000001,1.176304310081242,0.8606738837009279,0.5138638186292709,-0.02780359052121639,-0.02057556435465813,-0.008270568214356899,0.001285135746002197,-0.005387276411056519,0.006650567054748535,XArbitraryZVertical,-0.03172312661456281,0.4638188775768961,0.5758840218405552,0.6724753333016076,0.6603512167930603,-0.491545706987381,-0.5677313804626465,0,0,0,-1,-1,9080.303592166667,unknown,2,2025-04-20T22:18:26.887+03:00,2025-04-20T21:57:49.637+03:00,29,1.789309,0,0,23.86625,0,0,2025-04-20T22:09:07.141+03:00,766869517.3048571,0,0.9300003,99.72591,1,1,2025-04-20T22:18:36.793+03:00,89,1.483333333333333,2025-04-19T12:19:17.059+03:00,0.05691595998002078,0
2025-04-20T22:18:38.146+03:00,1745176712.716959,40.98552636824662,29.137368114026,128.4453,-1,-1,-1,-1,30,30.35635389065777,-9999,9091.559173,0.6576690673828125,-0.494873046875,-0.558837890625,9091.555403,1.176445943142439,0.8604008501093049,0.5136766741160117,-0.02045672759413719,-0.02045385725796223,-0.006658290512859821,0.001431405544281006,-0.005412906408309937,0.01084285974502563,XArbitraryZVertical,-0.03175126035050788,0.4636874211810999,0.5759165532823174,0.672536855508456,0.6602659225463867,-0.4913827478885651,-0.5679716467857361,0,0,0,-1,-1,9080.303592166667,unknown,2,2025-04-20T22:18:26.887+03:00,2025-04-20T21:57:49.637+03:00,29,1.789309,0,0,23.86625,0,0,2025-04-20T22:09:07.141+03:00,766869517.3048571,0,0.9300003,99.72591,1,1,2025-04-20T22:18:36.793+03:00,89,1.483333333333333,2025-04-19T12:19:17.059+03:00,0.05691595998002078,0
2025-04-20T22:18:38.156+03:00,1745176712.716959,40.98552636824662,29.137368114026,128.4453,-1,-1,-1,-1,30,30.35635389065777,-9999,9091.56925,0.662322998046875,-0.4903564453125,-0.56427001953125,9091.565479000001,1.176561433104649,0.8601408627675627,0.5135413955501107,-0.01413058862090111,-0.01934511587023735,-0.004949972499161959,-0.002499580383300781,-0.003608137369155884,0.009348869323730469,XArbitraryZVertical,-0.03175658169991671,0.4635711065222922,0.5759454770053231,0.6725920919183336,0.6601686477661133,-0.4912649095058441,-0.5681867003440857,0,0,0,-1,-1,9080.303592166667,unknown,2,2025-04-20T22:18:26.887+03:00,2025-04-20T21:57:49.637+03:00,29,1.789309,0,0,23.86625,0,0,2025-04-20T22:09:07.141+03:00,766869517.3048571,0,0.9300003,99.72591,1,1,2025-04-20T22:18:36.793+03:00,89,1.483333333333333,2025-04-19T12:19:17.059+03:00,0.05691595998002078,0
2025-04-20T22:18:38.166+03:00,1745176712.716959,40.98552636824662,29.137368114026,128.4453,-1,-1,-1,-1,30,30.35635389065777,-9999,9091.579326000001,0.6581573486328125,-0.491424560546875,-0.565673828125,9091.575556,1.176652949380816,0.8599331469548069,0.513447700162599,-0.01151776127517223,-0.01376313157379627,-0.002349928254261613,0.002237558364868164,0.0008268356323242188,0.004083871841430664,XArbitraryZVertical,-0.03175499622686639,0.4634810708034975,0.5759698423416533,0.6726333289406556,0.6600854992866516,-0.4911833107471466,-0.5683538317680359,0,0,0,-1,-1,9080.303592166667,unknown,2,2025-04-20T22:18:26.887+03:00,2025-04-20T21:57:49.637+03:00,29,1.789309,0,0,23.86625,0,0,2025-04-20T22:09:07.141+03:00,766869517.3048571,0,0.9300003,99.72591,1,1,2025-04-20T22:18:36.793+03:00,89,1.483333333333333,2025-04-19T12:19:17.059+03:00,0.05691595998002078,0
2025-04-20T22:18:38.176+03:00,1745176712.716959,40.98552636824662,29.137368114026,128.4453,-1,-1,-1,-1,30,30.35635389065777,-9999,9091.589403,0.6532745361328125,-0.492218017578125,-0.563232421875,9091.585633000001,1.176763945319933,0.8597488269616784,0.5133694352632001,-0.01368164643645287,-0.01127340830862522,-0.0007130496087484062,-0.001852452754974365,-0.0003094375133514404,0.002826809883117676,XArbitraryZVertical,-0.03175857375382805,0.463401680146141,0.5760019980853952,0.6726602619465351,0.6600098013877869,-0.4911151230335236,-0.5685005784034729,0,0,0,-1,-1,9080.303592166667,unknown,2,2025-04-20T22:18:26.887+03:00,2025-04-20T21:57:49.637+03:00,29,1.789309,0,0,23.86625,0,0,2025-04-20T22:09:07.141+03:00,766869517.3048571,0,0.9300003,99.72591,1,1,2025-04-20T22:18:36.793+03:00,89,1.483333333333333,2025-04-19T12:19:17.059+03:00,0.05691595998002078,0
2025-04-20T22:18:38.186+03:00,1745176712.716959,40.98552636824662,29.137368114026,128.4453,-1,-1,-1,-1,30,30.35635389065777,-9999,9091.599480000001,0.6522064208984375,-0.494842529296875,-0.5622406005859375,9091.595709000001,1.17688843087036,0.8595791317345718,0.5132481556369726,-0.01750781014561653,-0.01114930585026741,-0.006109146866947412,-0.006683945655822754,-0.00120854377746582,0.005419075489044189,XArbitraryZVertical,-0.03178643907866963,0.4633183615746724,0.5760339924441674,0.6726889797786734,0.6599584221839905,-0.4910094738006592,-0.5686514377593994,0,0,0,-1,-1,9080.303592166667,unknown,2,2025-04-20T22:18:26.887+03:00,2025-04-20T21:57:49.637+03:00,29,1.789309,0,0,23.86625,0,0,2025-04-20T22:09:07.141+03:00,766869517.3048571,0,0.9300003,99.72591,1,1,2025-04-20T22:18:36.793+03:00,89,1.483333333333333,2025-04-19T12:19:17.059+03:00,0.05691595998002078,0
2025-04-20T22:18:38.196+03:00,1745176712.716959,40.98552636824662,29.137368114026,128.4453,-1,-1,-1,-1,30,30.35635389065777,-9999,9091.609556000001,0.65118408203125,-0.495849609375,-0.562347412109375,9091.605786,1.176971382312174,0.859395821282084,0.5131241195998688,-0.01369516178965569,-0.01612269133329391,-0.006753598339855671,-0.007693946361541748,-0.003941088914871216,0.006571650505065918,XArbitraryZVertical,-0.03180186706312846,0.4632305758414465,0.5760519654712737,0.672733285410946,0.6599003076553345,-0.4909014105796814,-0.5688121318817139,0,0,0,-1,-1,9080.303592166667,unknown,2,2025-04-20T22:18:26.887+03:00,2025-04-20T21:57:49.637+03:00,29,1.789309,0,0,23.86625,0,0,2025-04-20T22:09:07.141+03:00,766869517.3048571,0,0.9300003,99.72591,1,1,2025-04-20T22:18:36.793+03:00,89,1.483333333333333,2025-04-19T12:19:17.059+03:00,0.05691595998002078,0
2025-04-20T22:18:38.206+03:00,1745176712.716959,40.98552636824662,29.137368114026,128.4453,-1,-1,-1,-1,30,30.35635389065777,-9999,9091.619633,0.6516876220703125,-0.49407958984375,-0.5628814697265625,9091.615862000001,1.177013496587085,0.8591947278459016,0.5130184576240802,-0.008576299995183945,-0.01764335669577122,-0.00861141923815012,-0.00864112377166748,-0.005040258169174194,0.006631374359130859,XArbitraryZVertical,-0.03179543133179634,0.4631411112414499,0.5760583837010291,0.672789719430031,0.6598252058029175,-0.4908093512058258,-0.5689787268638611,0,0,0,-1,-1,9080.303592166667,unknown,2,2025-04-20T22:18:26.887+03:00,2025-04-20T21:57:49.637+03:00,29,1.789309,0,0,23.86625,0,0,2025-04-20T22:09:07.141+03:00,766869517.3048571,0,0.9300003,99.72591,1,1,2025-04-20T22:18:36.793+03:00,89,1.483333333333333,2025-04-19T12:19:17.059+03:00,0.05691595998002078,0
2025-04-20T22:18:38.216+03:00,1745176712.716959,40.98552636824662,29.137368114026,128.4453,-1,-1,-1,-1,30,30.35635389065777,-9999,9091.629709000001,0.6532440185546875,-0.4909210205078125,-0.5623779296875,9091.625939000001,1.176972914586279,0.8590251343251244,0.512937239412859,-0.0003147083334624767,-0.01966929063200951,-0.01122933998703957,-0.008071303367614746,-0.003340989351272583,0.006235241889953613,XArbitraryZVertical,-0.03176926312892877,0.46306844106561,0.5760390140350852,0.6728575880312929,0.6597589254379272,-0.4907386004924774,-0.5691166520118713,0,0,0,-1,-1,9080.303592166667,unknown,2,2025-04-20T22:18:26.887+03:00,2025-04-20T21:57:49.637+03:00,29,1.789309,0,0,23.86625,0,0,2025-04-20T22:09:07.141+03:00,766869517.3048571,0,0.9300003,99.72591,1,1,2025-04-20T22:18:36.793+03:00,89,1.483333333333333,2025-04-19T12:19:17.059+03:00,0.05691595998002078,0
2025-04-20T22:18:38.226+03:00,1745176712.716959,40.98552636824662,29.137368114026,128.4453,-1,-1,-1,-1,30,30.35635389065777,-9999,9091.639786,0.657196044921875,-0.4885711669921875,-0.5618743896484375,9091.636016,1.176862484450368,0.8589099995474103,0.5128854510659955,0.005603102035820484,-0.01892253942787647,-0.01078938506543636,-0.006468594074249268,-0.0002275705337524414,0.006831347942352295,XArbitraryZVertical,-0.03173099757456455,0.4630210925720466,0.5759983278225654,0.6729268015581207,0.6597126126289368,-0.4906934797763824,-0.5692092180252075,0,0,0,-1,-1,9080.303592166667,unknown,2,2025-04-20T22:18:26.887+03:00,2025-04-20T21:57:49.637+03:00,29,1.789309,0,0,23.86625,0,0,2025-04-20T22:09:07.141+03:00,766869517.3048571,0,0.9300003,99.72591,1,1,2025-04-20T22:18:36.793+03:00,89,1.483333333333333,2025-04-19T12:19:17.059+03:00,0.05691595998002078,0
2025-04-20T22:18:38.237+03:00,1745176712.716959,40.98552636824662,29.137368114026,128.4453,-1,-1,-1,-1,30,30.35635389065777,-9999,9091.649863000001,0.6575164794921875,-0.4866180419921875,-0.5650634765625,9091.646092000001,1.17670400460416,0.8588380787538269,0.5128797407654063,0.0104296812787652,-0.01301418244838715,-0.009410867467522621,-0.002477765083312988,0.002117305994033813,0.007384181022644043,XArbitraryZVertical,-0.03167586146044537,0.4629982674099261,0.5759455555064725,0.6729902445482352,0.6596737504005432,-0.4906885027885437,-0.5692585110664368,0,0,0,-1,-1,9080.303592166667,unknown,2,2025-04-20T22:18:26.887+03:00,2025-04-20T21:57:49.637+03:00,29,1.789309,0,0,23.86625,0,0,2025-04-20T22:09:07.141+03:00,766869517.3048571,0,0.9300003,99.72591,1,1,2025-04-20T22:18:36.793+03:00,89,1.483333333333333,2025-04-19T12:19:17.059+03:00,0.05691595998002078,0
2025-04-20T22:18:38.247+03:00,1745176712.716959,40.98552636824662,29.137368114026,128.4453,-1,-1,-1,-1,30,30.35635389065777,-9999,9091.659939000001,0.6598663330078125,-0.4880218505859375,-0.566192626953125,9091.656169,1.176535372167741,0.8587941210375319,0.5128779068190131,0.007555598393082619,-0.01331458799540997,-0.008092868141829967,-0.002133011817932129,0.004068851470947266,0.004224658012390137,XArbitraryZVertical,-0.03162487121303092,0.4629857651861917,0.5758893063989476,0.6730494319547655,0.6596494913101196,-0.4906868934631348,-0.5692880749702454,0,0,0,-1,-1,9080.303592166667,unknown,2,2025-04-20T22:18:26.887+03:00,2025-04-20T21:57:49.637+03:00,29,1.789309,0,0,23.86625,0,0,2025-04-20T22:09:07.141+03:00,766869517.3048571,0,0.9300003,99.72591,1,1,2025-04-20T22:18:36.793+03:00,89,1.483333333333333,2025-04-19T12:19:17.059+03:00,0.05691595998002078,0
2025-04-20T22:18:38.257+03:00,1745176712.716959,40.98552636824662,29.137368114026,128.4453,-1,-1,-1,-1,30,30.35635389065777,-9999,9091.670016,0.66192626953125,-0.4919281005859375,-0.5650634765625,9091.666245,1.17642988485704,0.8586915575330608,0.5128559529997193,0.004012595862150192,-0.01662030443549156,-0.005611834581941366,0.0002670884132385254,0.002645909786224365,0.003170192241668701,XArbitraryZVertical,-0.03157961832834049,0.4629485363719488,0.5758531637858624,0.673108020940161,0.6595991849899292,-0.4906677603721619,-0.5693627595901489,0,0,0,-1,-1,9080.303592166667,unknown,2,2025-04-20T22:18:26.887+03:00,2025-04-20T21:57:49.637+03:00,29,1.789309,0,0,23.86625,0,0,2025-04-20T22:09:07.141+03:00,766869517.3048571,0,0.9300003,99.72591,1,1,2025-04-20T22:18:36.793+03:00,89,1.483333333333333,2025-04-19T12:19:17.059+03:00,0.05691595998002078,0
2025-04-20T22:18:38.267+03:00,1745176712.716959,40.98552636824662,29.137368114026,128.4453,-1,-1,-1,-1,30,30.35635389065777,-9999,9091.680092000001,0.6597900390625,-0.49334716796875,-0.56524658203125,9091.676322000001,1.176337485994468,0.8585473553022072,0.512820720720611,0.001281523727811873,-0.02084141224622726,-0.008182850666344166,0.002396047115325928,-0.001291036605834961,0.004405736923217773,XArbitraryZVertical,-0.03153062830085476,0.4628944061217305,0.5758206903788837,0.6731753416469718,0.6595301628112793,-0.4906370639801025,-0.569469153881073,0,0,0,-1,-1,9080.303592166667,unknown,2,2025-04-20T22:18:26.887+03:00,2025-04-20T21:57:49.637+03:00,29,1.789309,0,0,23.86625,0,0,2025-04-20T22:09:07.141+03:00,766869517.3048571,0,0.9300003,99.72591,1,1,2025-04-20T22:18:36.793+03:00,89,1.483333333333333,2025-04-19T12:19:17.059+03:00,0.05691595998002078,0
2025-04-20T22:18:38.277+03:00,1745176712.716959,40.98552636824662,29.137368114026,128.4453,-1,-1,-1,-1,30,30.35635389065777,-9999,9091.690169000001,0.6584014892578125,-0.496337890625,-0.5648651123046875,9091.686399,1.17627922751529,0.85835014794306,0.5127694237013656,-0.001303273718804121,-0.02252659574151039,-0.007715965155512094,0.0003530979156494141,-0.002754807472229004,0.004369139671325684,XArbitraryZVertical,-0.03148062439159548,0.4628186690376542,0.5757988715546518,0.6732484587108037,0.6594369411468506,-0.490592360496521,-0.5696157217025757,0,0,0,-1,-1,9080.303592166667,unknown,2,2025-04-20T22:18:26.887+03:00,2025-04-20T21:57:49.637+03:00,29,1.789309,0,0,23.86625,0,0,2025-04-20T22:09:07.141+03:00,766869517.3048571,0,0.9300003,99.72591,1,1,2025-04-20T22:18:36.793+03:00,89,1.483333333333333,2025-04-19T12:19:17.059+03:00,0.05691595998002078,0
2025-04-20T22:18:38.287+03:00,1745176712.716959,40.98552636824662,29.137368114026,128.4453,-1,-1,-1,-1,30,30.35635389065777,-9999,9091.700246,0.65521240234375,-0.4994049072265625,-0.5634765625,9091.696475000001,1.17624264827497,0.8581124585670821,0.5126810445866528,-0.004841549322009087,-0.02645236067473888,-0.009977786801755428,-0.0009328722953796387,-0.005822539329528809,0.004935741424560547,XArbitraryZVertical,-0.03143865280930939,0.4627215387214483,0.5757811508032201,0.6733323447450378,0.6593343019485474,-0.4905153512954712,-0.5698007941246033,0,0,0,-1,-1,9080.303592166667,unknown,2,2025-04-20T22:18:26.887+03:00,2025-04-20T21:57:49.637+03:00,29,1.789309,0,0,23.86625,0,0,2025-04-20T22:09:07.141+03:00,766869517.3048571,0,0.9300003,99.72591,1,1,2025-04-20T22:18:36.793+03:00,89,1.483333333333333,2025-04-19T12:19:17.059+03:00,0.05691595998002078,0
2025-04-20T22:18:38.297+03:00,1745176712.716959,40.98552636824662,29.137368114026,128.4453,-1,-1,-1,-1,30,30.35635389065777,-9999,9091.710322000001,0.6550750732421875,-0.500579833984375,-0.5624237060546875,9091.706552,1.176206751966326,0.8578748436342867,0.5125589160726433,-0.005084363278001547,-0.02328765951097012,-0.01464561000466347,-0.004031836986541748,-0.008995950222015381,0.006520092487335205,XArbitraryZVertical,-0.03141021802298619,0.4626176629214702,0.5757601710758857,0.6734229506503251,0.659244179725647,-0.4904089272022247,-0.5699965953826904,0,0,0,-1,-1,9080.303592166667,unknown,2,2025-04-20T22:18:26.887+03:00,2025-04-20T21:57:49.637+03:00,29,1.789309,0,0,23.86625,0,0,2025-04-20T22:09:07.141+03:00,766869517.3048571,0,0.9300003,99.72591,1,1,2025-04-20T22:18:36.793+03:00,89,1.483333333333333,2025-04-19T12:19:17.059+03:00,0.05691595998002078,0
2025-04-20T22:18:38.307+03:00,1745176712.716959,40.98552636824662,29.137368114026,128.4453,-1,-1,-1,-1,30,30.35635389065777,-9999,9091.720399,0.6546630859375,-0.497772216796875,-0.562744140625,9091.716628,1.176140964365471,0.8576653407169861,0.5124135695198436,-0.003709905780851841,-0.02462510019540787,-0.0167244728654623,-0.004103660583496094,-0.01029759645462036,0.007757663726806641,XArbitraryZVertical,-0.03139211157573824,0.4625190391825775,0.5757262664476378,0.6735205847828303,0.6591787338256836,-0.490282267332077,-0.5701813697814941,0,0,0,-1,-1,9080.303592166667,unknown,2,2025-04-20T22:18:26.887+03:00,2025-04-20T21:57:49.637+03:00,29,1.789309,0,0,23.86625,0,0,2025-04-20T22:09:07.141+03:00,766869517.3048571,0,0.9300003,99.72591,1,1,2025-04-20T22:18:36.793+03:00,89,1.483333333333333,2025-04-19T12:19:17.059+03:00,0.05691595998002078,0
2025-04-20T22:18:38.317+03:00,1745176712.716959,40.98552636824662,29.137368114026,128.4453,-1,-1,-1,-1,30,30.35635389065777,-9999,9091.730475,0.6571807861328125,-0.4949951171875,-0.564361572265625,9091.726705000001,1.176002846613186,0.857484892988309,0.5122794749372466,0.002080605132505298,-0.02447569742798805,-0.0190918892621994,-0.00446242094039917,-0.007606834173202515,0.007599234580993652,XArbitraryZVertical,-0.03136122952276836,0.4624335881857639,0.5756687148723332,0.6736298829139004,0.6591255068778992,-0.4901653826236725,-0.5703433156013489,0,0,0,-1,-1,9080.303592166667,unknown,2,2025-04-20T22:18:26.887+03:00,2025-04-20T21:57:49.637+03:00,29,1.789309,0,0,23.86625,0,0,2025-04-20T22:09:07.141+03:00,766869517.3048571,0,0.9300003,99.72591,1,1,2025-04-20T22:18:36.793+03:00,89,1.483333333333333,2025-04-19T12:19:17.059+03:00,0.05691595998002078,0
2025-04-20T22:18:38.327+03:00,1745176712.716959,40.98552636824662,29.137368114026,128.4453,-1,-1,-1,-1,30,30.35635389065777,-9999,9091.740552000001,0.659515380859375,-0.490753173828125,-0.5672760009765625,9091.736782,1.175818089900875,0.8573476289071643,0.5121613774062417,0.004472922999411821,-0.02127537503838539,-0.0198985617607832,-0.001910209655761719,-0.004932671785354614,0.006110131740570068,XArbitraryZVertical,-0.03132572614836308,0.4623666299001,0.5755964380169584,0.6737391314528657,0.6590909361839294,-0.4900624454021454,-0.5704715847969055,0,0,0,-1,-1,9080.303592166667,unknown,2,2025-04-20T22:18:26.887+03:00,2025-04-20T21:57:49.637+03:00,29,1.789309,0,0,23.86625,0,0,2025-04-20T22:09:07.141+03:00,766869517.3048571,0,0.9300003,99.72591,1,1,2025-04-20T22:18:36.793+03:00,89,1.483333333333333,2025-04-19T12:19:17.059+03:00,0.05691595998002078,0
2025-04-20T22:18:38.337+03:00,1745176712.716959,40.98552636824662,29.137368114026,128.4453,-1,-1,-1,-1,30,30.35635389065777,-9999,9091.750629,0.65771484375,-0.489227294921875,-0.5670166015625,9091.746858,1.175630548990397,0.8572526560964178,0.5120226208838351,0.0005047463346272707,-0.01862186938524246,-0.02108902856707573,0.0004271864891052246,-0.0008116960525512695,0.00330275297164917,XArbitraryZVertical,-0.03130988979278766,0.4623097946408559,0.5755203934658455,0.6738438194324637,0.659088134765625,-0.4899414777755737,-0.5705786943435669,0,0,0,-1,-1,9080.303592166667,unknown,2,2025-04-20T22:18:26.887+03:00,2025-04-20T21:57:49.637+03:00,29,1.789309,0,0,23.86625,0,0,2025-04-20T22:09:07.141+03:00,766869517.3048571,0,0.9300003,99.72591,1,1,2025-04-20T22:18:36.793+03:00,89,1.483333333333333,2025-04-19T12:19:17.059+03:00,0.05691595998002078,0
2025-04-20T22:18:38.347+03:00,1745176712.716959,40.98552636824662,29.137368114026,128.4453,-1,-1,-1,-1,30,30.35635389065777,-9999,9091.760705000001,0.6575927734375,-0.4879302978515625,-0.564208984375,9091.756935000001,1.175456896032958,0.8571897018359587,0.5118666306994129,-0.001393554848618805,-0.01377038843929768,-0.02193964086472988,-0.001395225524902344,0.0005782246589660645,0.00365370512008667,XArbitraryZVertical,-0.03131332527459657,0.4622600920141837,0.5754467422120214,0.6739405746739583,0.6591099500656128,-0.4898054897785187,-0.5706701874732971,0,0,0,-1,-1,9080.303592166667,unknown,2,2025-04-20T22:18:26.887+03:00,2025-04-20T21:57:49.637+03:00,29,1.789309,0,0,23.86625,0,0,2025-04-20T22:09:07.141+03:00,766869517.3048571,0,0.9300003,99.72591,1,1,2025-04-20T22:18:36.793+03:00,89,1.483333333333333,2025-04-19T12:19:17.059+03:00,0.05691595998002078,0
2025-04-20T22:18:38.358+03:00,1745176712.716959,40.98552636824662,29.137368114026,128.4453,-1,-1,-1,-1,30,30.35635389065777,-9999,9091.770782000001,0.654083251953125,-0.488739013671875,-0.5640716552734375,9091.767012,1.175317024646109,0.8571260234407639,0.5116896186633627,-0.004767313599586487,-0.0132388873025775,-0.02300121076405048,-0.00154644250869751,0.001720845699310303,0.006559967994689941,XArbitraryZVertical,-0.03133261560655533,0.4622053680333543,0.5753822707500575,0.6740323596218011,0.6591392159461975,-0.4896511435508728,-0.5707689523696899,0,0,0,-1,-1,9080.303592166667,unknown,2,2025-04-20T22:18:26.887+03:00,2025-04-20T21:57:49.637+03:00,29,1.789309,0,0,23.86625,0,0,2025-04-20T22:09:07.141+03:00,766869517.3048571,0,0.9300003,99.72591,1,1,2025-04-20T22:18:36.793+03:00,89,1.483333333333333,2025-04-19T12:19:17.059+03:00,0.05691595998002078,0
2025-04-20T22:18:38.368+03:00,1745176712.716959,40.98552636824662,29.137368114026,128.4453,-1,-1,-1,-1,30,30.35635389065777,-9999,9091.780858,0.6529998779296875,-0.4905853271484375,-0.5633697509765625,9091.777088000001,1.175191184316343,0.8570433532959936,0.5114729735596162,-0.007890136912465096,-0.01451400946825743,-0.02482227981090546,-0.005088984966278076,0.0007232129573822021,0.006821274757385254,XArbitraryZVertical,-0.03136541034251824,0.4621361172303075,0.5753187344805436,0.6741325136276664,0.6591721773147583,-0.4894622564315796,-0.5708928108215332,0,0,0,-1,-1,9080.303592166667,unknown,2,2025-04-20T22:18:26.887+03:00,2025-04-20T21:57:49.637+03:00,29,1.789309,0,0,23.86625,0,0,2025-04-20T22:09:07.141+03:00,766869517.3048571,0,0.9300003,99.72591,1,1,2025-04-20T22:18:36.793+03:00,89,1.483333333333333,2025-04-19T12:19:17.059+03:00,0.05691595998002078,0
2025-04-20T22:18:38.378+03:00,1745176712.716959,40.98552636824662,29.137368114026,128.4453,-1,-1,-1,-1,30,30.35635389065777,-9999,9091.790935000001,0.651275634765625,-0.492218017578125,-0.5628204345703125,9091.787165,1.175071205170803,0.8569755100952863,0.5112515300506613,-0.01055183261632919,-0.01138626039028168,-0.02585751749575138,-0.006215512752532959,-0.001316219568252563,0.007638812065124512,XArbitraryZVertical,-0.03140571763505974,0.4620707999548824,0.5752564274675875,0.6742285827919797,0.6592153906822205,-0.4892691373825073,-0.5710085034370422,0,0,0,-1,-1,9080.303592166667,unknown,2,2025-04-20T22:18:26.887+03:00,2025-04-20T21:57:49.637+03:00,29,1.789309,0,0,23.86625,0,0,2025-04-20T22:09:07.141+03:00,766869517.3048571,0,0.9300003,99.72591,1,1,2025-04-20T22:18:36.793+03:00,89,1.483333333333333,2025-04-19T12:19:17.059+03:00,0.05691595998002078,0
2025-04-20T22:18:38.388+03:00,1745176712.716959,40.98552636824662,29.137368114026,128.4453,-1,-1,-1,-1,30,30.35635389065777,-9999,9091.801012,0.65155029296875,-0.492919921875,-0.563507080078125,9091.797241,1.174965116932325,0.8569377251915526,0.5110160890440361,-0.008752334862947464,-0.008011768572032452,-0.02576563879847527,-0.008005261421203613,-0.003154218196868896,0.00828850269317627,XArbitraryZVertical,-0.0314634339354318,0.4620126011369854,0.5751968755010517,0.6743165488962217,0.6592808365821838,-0.4890637695789337,-0.5711088180541992,0,0,0,-1,-1,9080.303592166667,unknown,2,2025-04-20T22:18:26.887+03:00,2025-04-20T21:57:49.637+03:00,29,1.789309,0,0,23.86625,0,0,2025-04-20T22:09:07.141+03:00,766869517.3048571,0,0.9300003,99.72591,1,1,2025-04-20T22:18:36.793+03:00,89,1.483333333333333,2025-04-19T12:19:17.059+03:00,0.05691595998002078,0
2025-04-20T22:18:38.398+03:00,1745176712.716959,40.98552636824662,29.137368114026,128.4453,-1,-1,-1,-1,30,30.35635389065777,-9999,9091.811088,0.6570281982421875,-0.4924163818359375,-0.5635223388671875,9091.807318000001,1.17481732530891,0.8569512493959722,0.5107912881942552,-0.004167969338595867,-0.00571638997644186,-0.02770282328128815,-0.007821381092071533,-0.004052221775054932,0.007664918899536133,XArbitraryZVertical,-0.0315220659235614,0.4619744864924145,0.5751235399135056,0.6744024605201077,0.6593716144561768,-0.4888677000999451,-0.5711718797683716,0,0,0,-1,-1,9080.303592166667,unknown,2,2025-04-20T22:18:26.887+03:00,2025-04-20T21:57:49.637+03:00,29,1.789309,0,0,23.86625,0,0,2025-04-20T22:09:07.141+03:00,766869517.3048571,0,0.9300003,99.72591,1,1,2025-04-20T22:18:36.793+03:00,89,1.483333333333333,2025-04-19T12:19:17.059+03:00,0.05691595998002078,0
2025-04-20T22:18:38.408+03:00,1745176712.716959,40.98552636824662,29.137368114026,128.4453,-1,-1,-1,-1,30,30.35635389065777,-9999,9091.821165000001,0.6558990478515625,-0.4891815185546875,-0.56500244140625,9091.817395,1.174626327454909,0.8570211753497204,0.5105870071519718,-0.001988172065466642,0.0002512214705348015,-0.02626658044755459,-0.002458930015563965,-0.00372689962387085,0.007668912410736084,XArbitraryZVertical,-0.0315788055501905,0.4619601756662902,0.5750368429553256,0.6744835850561041,0.6594870686531067,-0.4886894822120667,-0.571191132068634,0,0,0,-1,-1,9080.303592166667,unknown,2,2025-04-20T22:18:26.887+03:00,2025-04-20T21:57:49.637+03:00,29,1.789309,0,0,23.86625,0,0,2025-04-20T22:09:07.141+03:00,766869517.3048571,0,0.9300003,99.72591,1,1,2025-04-20T22:18:36.793+03:00,89,1.483333333333333,2025-04-19T12:19:17.059+03:00,0.05691595998002078,0
2025-04-20T22:18:38.418+03:00,1745176712.716959,40.98552636824662,29.137368114026,128.4453,-1,-1,-1,-1,30,30.35635389065777,-9999,9091.831241,0.656158447265625,-0.488677978515625,-0.5672454833984375,9091.827471000001,1.174449876818577,0.8571383075957177,0.510360690481571,-0.004334882833063602,0.00320872850716114,-0.02711103484034538,-0.003738522529602051,-0.0006895065307617188,0.006183862686157227,XArbitraryZVertical,-0.03166121341226966,0.4619571729409502,0.5749520067297341,0.674554081321968,0.6596375703811646,-0.4884920120239258,-0.5711863040924072,0,0,0,-1,-1,9080.303592166667,unknown,2,2025-04-20T22:18:26.887+03:00,2025-04-20T21:57:49.637+03:00,29,1.789309,0,0,23.86625,0,0,2025-04-20T22:09:07.141+03:00,766869517.3048571,0,0.9300003,99.72591,1,1,2025-04-20T22:18:36.793+03:00,89,1.483333333333333,2025-04-19T12:19:17.059+03:00,0.05691595998002078,0
2025-04-20T22:18:38.428+03:00,1745176712.716959,40.98552636824662,29.137368114026,128.4453,-1,-1,-1,-1,30,30.35635389065777,-9999,9091.841318000001,0.65557861328125,-0.489837646484375,-0.5692596435546875,9091.837548000001,1.174284987588461,0.857302075424241,0.5101302115957935,-0.006212677806615829,0.01044213958084583,-0.0267709493637085,-0.003657758235931396,-0.0003871023654937744,0.003906488418579102,XArbitraryZVertical,-0.0317613350409728,0.4619688975790055,0.5748698677890627,0.6746113457355097,0.6598162055015564,-0.4882908761501312,-0.5711519122123718,0,0,0,-1,-1,9080.303592166667,unknown,2,2025-04-20T22:18:26.887+03:00,2025-04-20T21:57:49.637+03:00,29,1.789309,0,0,23.86625,0,0,2025-04-20T22:09:07.141+03:00,766869517.3048571,0,0.9300003,99.72591,1,1,2025-04-20T22:18:36.793+03:00,89,1.483333333333333,2025-04-19T12:19:17.059+03:00,0.05691595998002078,0
2025-04-20T22:18:38.438+03:00,1745176712.716959,40.98552636824662,29.137368114026,128.4453,-1,-1,-1,-1,30,30.35635389065777,-9999,9091.851395,0.65447998046875,-0.4906768798828125,-0.5667266845703125,9091.847624,1.174138669757607,0.8574770958113325,0.5098929309586229,-0.007104437332600355,0.009348513558506966,-0.02492650970816612,-0.004425168037414551,-0.001753866672515869,0.001852631568908691,XArbitraryZVertical,-0.03187164961371482,0.4619827707758922,0.5747930691858045,0.6746621182868006,0.6600037813186646,-0.4880838096141815,-0.5711122155189514,0,0,0,-1,-1,9080.303592166667,unknown,2,2025-04-20T22:18:26.887+03:00,2025-04-20T21:57:49.637+03:00,29,1.789309,0,0,23.86625,0,0,2025-04-20T22:09:07.141+03:00,766869517.3048571,0,0.9300003,99.72591,1,1,2025-04-20T22:18:36.793+03:00,89,1.483333333333333,2025-04-19T12:19:17.059+03:00,0.05691595998002078,0
2025-04-20T22:18:38.448+03:00,1745176712.716959,40.98552636824662,29.137368114026,128.4453,-1,-1,-1,-1,30,30.35635389065777,-9999,9091.861471,0.6527099609375,-0.4909820556640625,-0.5660247802734375,9091.857701000001,1.174049241149189,0.8576251732696897,0.5096565131288552,-0.01140863914042711,0.01027236320078373,-0.02292194962501526,-0.005695641040802002,-0.002799451351165771,0.004363358020782471,XArbitraryZVertical,-0.03198701763438424,0.4619868363574661,0.5747359509506759,0.6747025640897626,0.6601755619049072,-0.4878774285316467,-0.5710899829864502,0,0,0,-1,-1,9080.303592166667,unknown,2,2025-04-20T22:18:26.887+03:00,2025-04-20T21:57:49.637+03:00,29,1.789309,0,0,23.86625,0,0,2025-04-20T22:09:07.141+03:00,766869517.3048571,0,0.9300003,99.72591,1,1,2025-04-20T22:18:36.793+03:00,89,1.483333333333333,2025-04-19T12:19:17.059+03:00,0.05691595998002078,0
2025-04-20T22:18:38.458+03:00,1745176712.716959,40.98552636824662,29.137368114026,128.4453,-1,-1,-1,-1,30,30.35635389065777,-9999,9091.871548000001,0.6515960693359375,-0.489471435546875,-0.5678863525390625,9091.867778,1.173970469635499,0.8577808497417813,0.5094086379121727,-0.0105771329253912,0.01186579931527376,-0.02332605049014091,-0.007646024227142334,-0.003320991992950439,0.005041599273681641,XArbitraryZVertical,-0.03211158666791344,0.4619910297641231,0.5746810993816718,0.674740440078306,0.6603559255599976,-0.4876610636711121,-0.5710662603378296,0,0,0,-1,-1,9080.303592166667,unknown,2,2025-04-20T22:18:26.887+03:00,2025-04-20T21:57:49.637+03:00,29,1.789309,0,0,23.86625,0,0,2025-04-20T22:09:07.141+03:00,766869517.3048571,0,0.9300003,99.72591,1,1,2025-04-20T22:18:36.793+03:00,89,1.483333333333333,2025-04-19T12:19:17.059+03:00,0.05691595998002078,0
2025-04-20T22:18:38.469+03:00,1745176712.716959,40.98552636824662,29.137368114026,128.4453,-1,-1,-1,-1,30,30.35635389065777,-9999,9091.881625,0.653472900390625,-0.4899139404296875,-0.5703582763671875,9091.877854,1.173912601581594,0.8578898666006475,0.5091618463281342,-0.01372951734811068,0.005939466878771782,-0.02277104742825031,-0.008913159370422363,-0.002025872468948364,0.003186702728271484,XArbitraryZVertical,-0.03222712875343656,0.4619793594448105,0.5746341284904388,0.6747829141217777,0.6605091691017151,-0.487445592880249,-0.5710729956626892,0,0,0,-1,-1,9080.303592166667,unknown,2,2025-04-20T22:18:26.887+03:00,2025-04-20T21:57:49.637+03:00,29,1.789309,0,0,23.86625,0,0,2025-04-20T22:09:07.141+03:00,766869517.3048571,0,0.9300003,99.72591,1,1,2025-04-20T22:18:36.793+03:00,89,1.483333333333333,2025-04-19T12:19:17.059+03:00,0.05691595998002078,0
2025-04-20T22:18:38.478+03:00,1745176712.716959,40.98552636824662,29.137368114026,128.4453,-1,-1,-1,-1,30,30.35635389065777,-9999,9091.891701,0.65679931640625,-0.492706298828125,-0.5700531005859375,9091.887931000001,1.17390295370219,0.8579500983225834,0.5089170450545214,-0.01557269040495157,0.004833988845348358,-0.01782395876944065,-0.007160961627960205,-0.002682089805603027,0.0007530450820922852,XArbitraryZVertical,-0.03233899932455447,0.4619508488603439,0.5746043991526542,0.674822396867288,0.6606338024139404,-0.4872318208217621,-0.5711112022399902,0,0,0,-1,-1,9080.303592166667,unknown,2,2025-04-20T22:18:26.887+03:00,2025-04-20T21:57:49.637+03:00,29,1.789309,0,0,23.86625,0,0,2025-04-20T22:09:07.141+03:00,766869517.3048571,0,0.9300003,99.72591,1,1,2025-04-20T22:18:36.793+03:00,89,1.483333333333333,2025-04-19T12:19:17.059+03:00,0.05691595998002078,0
2025-04-20T22:18:38.489+03:00,1745176712.716959,40.98552636824662,29.137368114026,128.4453,-1,-1,-1,-1,30,30.35635389065777,-9999,9091.901778000001,0.6591339111328125,-0.49163818359375,-0.5644073486328125,9091.898007,1.173936617370208,0.8579439533204392,0.5086752238189612,-0.02467990294098854,-0.004562175832688808,-0.01757495291531086,-0.003920137882232666,-0.005685687065124512,0.001139283180236816,XArbitraryZVertical,-0.03244061742777102,0.4618998276534085,0.5745906539716711,0.6748641649170988,0.6607194542884827,-0.4870206415653229,-0.5711923241615295,0,0,0,-1,-1,9080.303592166667,unknown,2,2025-04-20T22:18:26.887+03:00,2025-04-20T21:57:49.637+03:00,29,1.789309,0,0,23.86625,0,0,2025-04-20T22:09:07.141+03:00,766869517.3048571,0,0.9300003,99.72591,1,1,2025-04-20T22:18:36.793+03:00,89,1.483333333333333,2025-04-19T12:19:17.059+03:00,0.05691595998002078,0
2025-04-20T22:18:38.499+03:00,1745176712.716959,40.98552636824662,29.137368114026,128.4453,-1,-1,-1,-1,30,30.35635389065777,-9999,9091.911854,0.6602020263671875,-0.4879608154296875,-0.5633392333984375,9091.908084000001,1.174056416643558,0.8578761869632968,0.5083697743578918,-0.03593908250331879,0.001758970087394118,-0.01420039590448141,-0.001659393310546875,-0.00488436222076416,0.006927073001861572,XArbitraryZVertical,-0.03256957356821079,0.4618138580717174,0.5746003372329553,0.674908572910806,0.6607932448387146,-0.4867538213729858,-0.5713343620300293,0,0,0,-1,-1,9080.303592166667,unknown,2,2025-04-20T22:18:26.887+03:00,2025-04-20T21:57:49.637+03:00,29,1.789309,0,0,23.86625,0,0,2025-04-20T22:09:07.141+03:00,766869517.3048571,0,0.9300003,99.72591,1,1,2025-04-20T22:18:36.793+03:00,89,1.483333333333333,2025-04-19T12:19:17.059+03:00,0.05691595998002078,0
2025-04-20T22:18:38.509+03:00,1745176712.716959,40.98552636824662,29.137368114026,128.4453,-1,-1,-1,-1,30,30.35635389065777,-9999,9091.921931000001,0.653564453125,-0.4869232177734375,-0.566802978515625,9091.918161000001,1.174401725881421,0.8577243331569154,0.5079715878474239,-0.06623467057943344,0.004161940421909094,-0.004574932623654604,-0.0006510019302368164,-0.001554876565933228,0.008222281932830811,XArbitraryZVertical,-0.03276308499906052,0.4616772143805402,0.5746778332860815,0.6749267389937698,0.6608530282974243,-0.4864059686660767,-0.5715614557266235,0,0,0,-1,-1,9080.303592166667,unknown,2,2025-04-20T22:18:26.887+03:00,2025-04-20T21:57:49.637+03:00,29,1.789309,0,0,23.86625,0,0,2025-04-20T22:09:07.141+03:00,766869517.3048571,0,0.9300003,99.72591,1,1,2025-04-20T22:18:36.793+03:00,89,1.483333333333333,2025-04-19T12:19:17.059+03:00,0.05691595998002078,0
2025-04-20T22:18:38.519+03:00,1745176712.716959,40.98552636824662,29.137368114026,128.4453,-1,-1,-1,-1,30,30.35635389065777,-9999,9091.932008,0.6463165283203125,-0.4859771728515625,-0.5853424072265625,9091.928237,1.17512723879027,0.8574502627313808,0.5074948050436827,-0.08596422523260117,0.01463289000093937,0.008215530775487423,-0.007307231426239014,-0.000933915376663208,0.005091369152069092,XArbitraryZVertical,-0.03304022101936497,0.4614772003630498,0.5748774742995978,0.6748800594530424,0.660871684551239,-0.4859893321990967,-0.5718942880630493,0,0,0,-1,-1,9080.303592166667,unknown,2,2025-04-20T22:18:26.887+03:00,2025-04-20T21:57:49.637+03:00,29,1.789309,0,0,23.86625,0,0,2025-04-20T22:09:07.141+03:00,766869517.3048571,0,0.9300003,99.72591,1,1,2025-04-20T22:18:36.793+03:00,89,1.483333333333333,2025-04-19T12:19:17.059+03:00,0.05691595998002078,0
2025-04-20T22:18:38.529+03:00,1745176712.716959,40.98552636824662,29.137368114026,128.4453,-1,-1,-1,-1,30,30.35635389065777,-9999,9091.942084,0.634918212890625,-0.4827423095703125,-0.600738525390625,9091.938314000001,1.17560139385713,0.8574789231978911,0.5072275661369544,-0.025099016726017,0.031638503074646,0.0001323043252341449,-0.01466971635818481,-0.0002214312553405762,-0.01338207721710205,XArbitraryZVertical,-0.0332635292157208,0.4614254156406695,0.5750091657936288,0.6747921869492877,0.6609861850738525,-0.4857557415962219,-0.5719602704048157,0,0,0,-1,-1,9080.303592166667,unknown,2,2025-04-20T22:18:26.887+03:00,2025-04-20T21:57:49.637+03:00,29,1.789309,0,0,23.86625,0,0,2025-04-20T22:09:07.141+03:00,766869517.3048571,0,0.9300003,99.72591,1,1,2025-04-20T22:18:36.793+03:00,89,1.483333333333333,2025-04-19T12:19:17.059+03:00,0.05691595998002078,0
2025-04-20T22:18:38.539+03:00,1745176712.716959,40.98552636824662,29.137368114026,128.4453,-1,-1,-1,-1,30,30.35635389065777,-9999,9091.952161000001,0.63958740234375,-0.4658355712890625,-0.5944976806640625,9091.948390000001,1.175816008492012,0.8578471067884297,0.5071955491582831,-0.006844712421298027,0.05919230356812477,0.0159518476575613,-0.02629035711288452,0.002985477447509766,-0.02901142835617065,XArbitraryZVertical,-0.03343156542593992,0.4615396230575958,0.5750720940727011,0.674652131957435,0.6612085103988647,-0.4857277572154999,-0.5717270374298096,0,0,0,-1,-1,9080.303592166667,unknown,2,2025-04-20T22:18:26.887+03:00,2025-04-20T21:57:49.637+03:00,29,1.789309,0,0,23.86625,0,0,2025-04-20T22:09:07.141+03:00,766869517.3048571,0,0.9300003,99.72591,1,1,2025-04-20T22:18:36.793+03:00,89,1.483333333333333,2025-04-19T12:19:17.059+03:00,0.05691595998002078,0
2025-04-20T22:18:38.549+03:00,1745176712.716959,40.98552636824662,29.137368114026,128.4453,-1,-1,-1,-1,30,30.35635389065777,-9999,9091.962237,0.6496429443359375,-0.46893310546875,-0.5822296142578125,9091.958467,1.175810644657923,0.8585670847918251,0.5073844590969846,0.02838517911732197,0.08303478360176086,0.01105376146733761,-0.02196317911148071,0.02005729079246521,-0.02330672740936279,XArbitraryZVertical,-0.03356266736930204,0.4618204344730655,0.5750779148189583,0.6744485435493047,0.6615505218505859,-0.4858928918838501,-0.5711908936500549,0,0,0,-1,-1,9080.303592166667,unknown,2,2025-04-20T22:18:26.887+03:00,2025-04-20T21:57:49.637+03:00,29,1.789309,0,0,23.86625,0,0,2025-04-20T22:09:07.141+03:00,766869517.3048571,0,0.9300003,99.72591,1,1,2025-04-20T22:18:36.793+03:00,89,1.483333333333333,2025-04-19T12:19:17.059+03:00,0.05691595998002078,0
2025-04-20T22:18:38.559+03:00,1745176712.716959,40.98552636824662,29.137368114026,128.4453,-1,-1,-1,-1,30,30.35635389065777,-9999,9091.972314000001,0.6587066650390625,-0.4767303466796875,-0.5803375244140625,9091.968544000001,1.175381531022136,0.8596709796469584,0.5078643731826832,0.09235110878944397,0.09463817626237869,0.008688874542713165,-0.01236093044281006,0.01737916469573975,-0.01192164421081543,XArbitraryZVertical,-0.03359132281467291,0.462296083809663,0.5749648440491544,0.6742174646341969,0.6620038747787476,-0.4863122701644897,-0.5703079104423523,0,0,0,-1,-1,9080.303592166667,unknown,2,2025-04-20T22:18:26.887+03:00,2025-04-20T21:57:49.637+03:00,29,1.789309,0,0,23.86625,0,0,2025-04-20T22:09:07.141+03:00,766869517.3048571,0,0.9300003,99.72591,1,1,2025-04-20T22:18:36.793+03:00,89,1.483333333333333,2025-04-19T12:19:17.059+03:00,0.05691595998002078,0
2025-04-20T22:18:38.569+03:00,1745176712.716959,40.98552636824662,29.137368114026,128.4453,-1,-1,-1,-1,30,30.35635389065777,-9999,9091.982391000001,0.673583984375,-0.4660491943359375,-0.5900115966796875,9091.97862,1.173960365546441,0.8613552387001708,0.5089678775648965,0.265056848526001,0.1027038246393204,-0.007411266211420298,-0.003849267959594727,0.01054587960243225,-0.01149523258209229,XArbitraryZVertical,-0.03331047754414939,0.4631083205167951,0.5745731933713181,0.6740078297937065,0.6625558733940125,-0.4872761964797974,-0.5688421726226807,0,0,0,-1,-1,9080.303592166667,unknown,2,2025-04-20T22:18:26.887+03:00,2025-04-20T21:57:49.637+03:00,29,1.789309,0,0,23.86625,0,0,2025-04-20T22:09:07.141+03:00,766869517.3048571,0,0.9300003,99.72591,1,1,2025-04-20T22:18:36.793+03:00,89,1.483333333333333,2025-04-19T12:19:17.059+03:00,0.05691595998002078,0
2025-04-20T22:18:38.588+03:00,1745176712.716959,40.98552636824662,29.137368114026,128.4453,-1,-1,-1,-1,30,30.35635389065777,-9999,9091.992467,0.6768035888671875,-0.433837890625,-0.5998992919921875,9091.988697000001,1.17057444171538,0.8638994233949493,0.5113202572985852,0.4512689411640167,0.06000896170735359,-0.01360278204083443,0.010456383228302,0.02327987551689148,-0.02360284328460693,XArbitraryZVertical,-0.03232562933859911,0.464489742730697,0.5736377297797964,0.6739020330787961,0.6631275415420532,-0.489329069852829,-0.5664086937904358,0,0,0,-1,-1,9080.303592166667,unknown,2,2025-04-20T22:18:26.887+03:00,2025-04-20T21:57:49.637+03:00,29,1.789309,0,0,23.86625,0,0,2025-04-20T22:09:07.141+03:00,766869517.3048571,0,0.9300003,99.72591,1,1,2025-04-20T22:18:36.793+03:00,89,1.483333333333333,2025-04-19T12:19:17.059+03:00,0.05691595998002078,0
2025-04-20T22:18:38.590+03:00,1745176712.716959,40.98552636824662,29.137368114026,128.4453,-1,-1,-1,-1,30,30.35635389065777,-9999,9092.002544000001,0.684326171875,-0.3977203369140625,-0.574798583984375,9091.998773000001,1.166183138207284,0.8662697148972179,0.514376357006161,0.4984284639358521,-0.01335606630891562,-0.01999064162373543,0.01347780227661133,0.05815410614013672,-0.03603512048721313,XArbitraryZVertical,-0.03077427226399837,0.4659623342418637,0.5724433738957156,0.673973697186157,0.6633257865905762,-0.4919919967651367,-0.5638641119003296,0,0,0,-1,-1,9080.303592166667,unknown,2,2025-04-20T22:18:26.887+03:00,2025-04-20T21:57:49.637+03:00,29,1.789309,0,0,23.86625,0,0,2025-04-20T22:09:07.141+03:00,766869517.3048571,0,0.9300003,99.72591,1,1,2025-04-20T22:18:36.793+03:00,89,1.483333333333333,2025-04-19T12:19:17.059+03:00,0.05691595998002078,0
2025-04-20T22:18:38.599+03:00,1745176712.716959,40.98552636824662,29.137368114026,128.4453,-1,-1,-1,-1,30,30.35635389065777,-9999,9092.012620000001,0.6714630126953125,-0.4416351318359375,-0.567230224609375,9092.00885,1.161872551400999,0.8681407036715494,0.5174449594336367,0.4578935503959656,-0.02712514251470566,0.005344543606042862,0.02110183238983154,0.09694087505340576,-0.01315474510192871,XArbitraryZVertical,-0.02908859511198445,0.4672601045592786,0.5712880321005811,0.6741302888686265,0.6632243394851685,-0.4946612119674683,-0.5616437196731567,0,0,0,-1,-1,9080.303592166667,unknown,2,2025-04-20T22:18:26.887+03:00,2025-04-20T21:57:49.637+03:00,29,1.789309,0,0,23.86625,0,0,2025-04-20T22:09:07.141+03:00,766869517.3048571,0,0.9300003,99.72591,1,1,2025-04-20T22:18:36.793+03:00,89,1.483333333333333,2025-04-19T12:19:17.059+03:00,0.05691595998002078,0
2025-04-20T22:18:38.610+03:00,1745176712.716959,40.98552636824662,29.137368114026,128.4453,-1,-1,-1,-1,30,30.35635389065777,-9999,9092.022697,0.62091064453125,-0.4847564697265625,-0.6130523681640625,9092.018927000001,1.158374963272494,0.869788338195168,0.5203233183450661,0.3793377578258514,0.01978404447436333,0.04380698129534721,0.008404970169067383,0.05552557110786438,-0.007600545883178711,XArbitraryZVertical,-0.02760009312282859,0.4684265643638706,0.5703919394905448,0.674142279483914,0.6630580425262451,-0.4971607029438019,-0.5596295595169067,0,0,0,-1,-1,9080.303592166667,unknown,2,2025-04-20T22:18:26.887+03:00,2025-04-20T21:57:49.637+03:00,29,1.789309,0,0,23.86625,0,0,2025-04-20T22:09:07.141+03:00,766869517.3048571,0,0.9300003,99.72591,1,1,2025-04-20T22:18:36.793+03:00,89,1.483333333333333,2025-04-19T12:19:17.059+03:00,0.05691595998002078,0
2025-04-20T22:18:38.620+03:00,1745176712.716959,40.98552636824662,29.137368114026,128.4453,-1,-1,-1,-1,30,30.35635389065777,-9999,9092.032774000001,0.5880584716796875,-0.4643402099609375,-0.71868896484375,9092.029003,1.155076124796049,0.8723787807214956,0.523717611125139,0.5343179106712341,0.208286240696907,0.1023655980825424,-0.04229867458343506,0.01534640789031982,-0.05623054504394531,XArbitraryZVertical,-0.02621865104508773,0.470001811317907,0.5696076714785491,0.6737639468145588,0.6632092595100403,-0.5001029372215271,-0.5568217635154724,0,0,0,-1,-1,9080.303592166667,unknown,2,2025-04-20T22:18:26.887+03:00,2025-04-20T21:57:49.637+03:00,29,1.789309,0,0,23.86625,0,0,2025-04-20T22:09:07.141+03:00,766869517.3048571,0,0.9300003,99.72591,1,1,2025-04-20T22:18:36.793+03:00,89,1.483333333333333,2025-04-19T12:19:17.059+03:00,0.05691595998002078,0
2025-04-20T22:18:38.630+03:00,1745176712.716959,40.98552636824662,29.137368114026,128.4453,-1,-1,-1,-1,30,30.35635389065777,-9999,9092.04285,0.54449462890625,-0.4186859130859375,-0.929290771484375,9092.03908,1.149557143931679,0.8789364741190608,0.5292179212415459,0.9047915935516357,0.5611044764518738,0.1200540512800217,-0.07665961980819702,0.04051816463470459,-0.1679913997650146,XArbitraryZVertical,-0.0246005430821193,0.4733350667252496,0.5682576603364415,0.6726305075332801,0.6647180914878845,-0.5048583745956421,-0.5506974458694458,0,0,0,-1,-1,9080.303592166667,unknown,2,2025-04-20T22:18:26.887+03:00,2025-04-20T21:57:49.637+03:00,29,1.789309,0,0,23.86625,0,0,2025-04-20T22:09:07.141+03:00,766869517.3048571,0,0.9300003,99.72591,1,1,2025-04-20T22:18:36.793+03:00,89,1.483333333333333,2025-04-19T12:19:17.059+03:00,0.05691595998002078,0
2025-04-20T22:18:38.640+03:00,1745176712.716959,40.98552636824662,29.137368114026,128.4453,-1,-1,-1,-1,30,30.35635389065777,-9999,9092.052927000001,0.5016632080078125,-0.3575439453125,-1.006423950195312,9092.049157000001,1.139511747257727,0.8922051344972814,0.5371544168349462,1.417042374610901,1.100435376167297,-0.01945973932743073,-0.1243315935134888,0.09300738573074341,-0.3899934887886047,XArbitraryZVertical,-0.02281864998739488,0.479406615099796,0.5655942118882353,0.6706352326581492,0.6688261032104492,-0.5116932392120361,-0.5392972230911255,0,0,0,-1,-1,9080.303592166667,unknown,2,2025-04-20T22:18:26.887+03:00,2025-04-20T21:57:49.637+03:00,29,1.789309,0,0,23.86625,0,0,2025-04-20T22:09:07.141+03:00,766869517.3048571,0,0.9300003,99.72591,1,1,2025-04-20T22:18:36.793+03:00,89,1.483333333333333,2025-04-19T12:19:17.059+03:00,0.05691595998002078,0
2025-04-20T22:18:38.650+03:00,1745176712.716959,40.98552636824662,29.137368114026,128.4453,-1,-1,-1,-1,30,30.35635389065777,-9999,9092.063003000001,0.5053558349609375,-0.3462982177734375,-0.9958343505859375,9092.059233,1.1230668359604,0.9127161753606085,0.5473219930265493,2.002530813217163,1.255918264389038,-0.1098583415150642,-0.1739317774772644,0.1628583669662476,-0.4841665029525757,XArbitraryZVertical,-0.02057750119663987,0.4883112531815704,0.5610141026251173,0.6681255412414935,0.6755949854850769,-0.5204023122787476,-0.522257387638092,0,0,0,-1,-1,9080.303592166667,unknown,2,2025-04-20T22:18:26.887+03:00,2025-04-20T21:57:49.637+03:00,29,1.789309,0,0,23.86625,0,0,2025-04-20T22:09:07.141+03:00,766869517.3048571,0,0.9300003,99.72591,1,1,2025-04-20T22:18:36.793+03:00,89,1.483333333333333,2025-04-19T12:19:17.059+03:00,0.05691595998002078,0
2025-04-20T22:18:38.660+03:00,1745176712.716959,40.98552636824662,29.137368114026,128.4453,-1,-1,-1,-1,30,30.35635389065777,-9999,9092.07308,0.54071044921875,-0.3296356201171875,-1.05010986328125,9092.069310000001,1.101783559534788,0.9362711979325149,0.5588294517740834,2.201558351516724,1.168000221252441,-0.2343733161687851,-0.1774841547012329,0.1838959455490112,-0.4932173490524292,XArbitraryZVertical,-0.01732217851741102,0.4983889005715579,0.5550472364456319,0.6657558280713919,0.6828398704528809,-0.530194103717804,-0.5026168823242188,0,0,0,-1,-1,9080.303592166667,unknown,2,2025-04-20T22:18:26.887+03:00,2025-04-20T21:57:49.637+03:00,29,1.789309,0,0,23.86625,0,0,2025-04-20T22:09:07.141+03:00,766869517.3048571,0,0.9300003,99.72591,1,1,2025-04-20T22:18:36.793+03:00,89,1.483333333333333,2025-04-19T12:19:17.059+03:00,0.05691595998002078,0
2025-04-20T22:18:38.670+03:00,1745176712.716959,40.98552636824662,29.137368114026,128.4453,-1,-1,-1,-1,30,30.35635389065777,-9999,9092.083157000001,0.6102294921875,-0.413543701171875,-1.066513061523438,9092.079386000001,1.079734350057538,0.9601066579330717,0.5696002272556384,1.906613826751709,1.200170993804932,-0.1785406768321991,-0.1491959095001221,0.2096598148345947,-0.567212700843811,XArbitraryZVertical,-0.01406146711576265,0.5082850826689613,0.5488596566653321,0.663476833956623,0.6899062991142273,-0.5392954349517822,-0.4828971028327942,0,0,0,-1,-1,9080.303592166667,unknown,2,2025-04-20T22:18:26.887+03:00,2025-04-20T21:57:49.637+03:00,29,1.789309,0,0,23.86625,0,0,2025-04-20T22:09:07.141+03:00,766869517.3048571,0,0.9300003,99.72591,1,1,2025-04-20T22:18:36.793+03:00,89,1.483333333333333,2025-04-19T12:19:17.059+03:00,0.05691595998002078,0
2025-04-20T22:18:38.680+03:00,1745176712.716959,40.98552636824662,29.137368114026,128.4453,-1,-1,-1,-1,30,30.35635389065777,-9999,9092.093233000001,0.6377105712890625,-0.55206298828125,-1.019485473632812,9092.089463,1.063686193541523,0.9809029062266922,0.5781465822780207,1.229513883590698,1.285637617111206,0.1273624002933502,-0.08571380376815796,0.1329290270805359,-0.6006476879119873,XArbitraryZVertical,-0.01222862414745837,0.5166408894793029,0.5445078982003221,0.6606388342709278,0.6959432363510132,-0.5464726686477661,-0.4658653140068054,0,0,0,-1,-1,9080.303592166667,unknown,2,2025-04-20T22:18:26.887+03:00,2025-04-20T21:57:49.637+03:00,29,1.789309,0,0,23.86625,0,0,2025-04-20T22:09:07.141+03:00,766869517.3048571,0,0.9300003,99.72591,1,1,2025-04-20T22:18:36.793+03:00,89,1.483333333333333,2025-04-19T12:19:17.059+03:00,0.05691595998002078,0
2025-04-20T22:18:38.690+03:00,1745176712.716959,40.98552636824662,29.137368114026,128.4453,-1,-1,-1,-1,30,30.35635389065777,-9999,9092.10331,0.5886993408203125,-0.6396331787109375,-0.965301513671875,9092.099540000001,1.055423908892072,1.000745353541461,0.5848645566843403,0.6996229290962219,1.781231045722961,0.1276476234197617,-0.0642324686050415,2.348423004150391e-05,-0.5695115327835083,XArbitraryZVertical,-0.01279664729162418,0.5242607216635446,0.5425556208926018,0.6562166552090886,0.701943039894104,-0.5520864725112915,-0.4499738812446594,0,0,0,-1,-1,9080.303592166667,unknown,2,2025-04-20T22:18:26.887+03:00,2025-04-20T21:57:49.637+03:00,29,1.789309,0,0,23.86625,0,0,2025-04-20T22:09:07.141+03:00,766869517.3048571,0,0.9300003,99.72591,1,1,2025-04-20T22:18:36.793+03:00,89,1.483333333333333,2025-04-19T12:19:17.059+03:00,0.05691595998002078,0
2025-04-20T22:18:38.700+03:00,1745176712.716959,40.98552636824662,29.137368114026,128.4453,-1,-1,-1,-1,30,30.35635389065777,-9999,9092.113386000001,0.5419464111328125,-0.63751220703125,-0.966827392578125,9092.109616,1.05023774627584,1.02337012581122,0.5870665953243491,0.262262761592865,2.102278470993042,-0.176012322306633,-0.1222039461135864,-0.0857120156288147,-0.5319564938545227,XArbitraryZVertical,-0.01668130475518035,0.532023735096703,0.5409957907272048,0.6511497570375271,0.7109032869338989,-0.5539211630821228,-0.4333449602127075,0,0,0,-1,-1,9080.303592166667,unknown,2,2025-04-20T22:18:26.887+03:00,2025-04-20T21:57:49.637+03:00,29,1.789309,0,0,23.86625,0,0,2025-04-20T22:09:07.141+03:00,766869517.3048571,0,0.9300003,99.72591,1,1,2025-04-20T22:18:36.793+03:00,89,1.483333333333333,2025-04-19T12:19:17.059+03:00,0.05691595998002078,0
2025-04-20T22:18:38.710+03:00,1745176712.716959,40.98552636824662,29.137368114026,128.4453,-1,-1,-1,-1,30,30.35635389065777,-9999,9092.123463,0.6556854248046875,-0.6134033203125,-0.88873291015625,9092.119693000001,1.048039262069284,1.046728295792146,0.5872184361393999,0.1323348879814148,2.279274940490723,0.06909994781017303,-0.1788113713264465,-0.08346468210220337,-0.5502465963363647,XArbitraryZVertical,-0.02234519247680621,0.5396390453932974,0.5400767748511595,0.645451397383667,0.720757782459259,-0.5540475845336914,-0.4165807962417603,0,0,0,-1,-1,9080.303592166667,unknown,2,2025-04-20T22:18:26.887+03:00,2025-04-20T21:57:49.637+03:00,29,1.789309,0,0,23.86625,0,0,2025-04-20T22:09:07.141+03:00,766869517.3048571,0,0.9300003,99.72591,1,1,2025-04-20T22:18:36.793+03:00,89,1.483333333333333,2025-04-19T12:19:17.059+03:00,0.05691595998002078,0
2025-04-20T22:18:38.720+03:00,1745176712.716959,40.98552636824662,29.137368114026,128.4453,-1,-1,-1,-1,30,30.35635389065777,-9999,9092.133540000001,0.7758331298828125,-0.5550537109375,-0.8518829345703125,9092.129769000001,1.046612996350924,1.071625691421645,0.5902922323869896,0.4226326048374176,2.494561433792114,0.3040695190429688,-0.07372105121612549,-0.05679947137832642,-0.4910414218902588,XArbitraryZVertical,-0.02746680972814981,0.5480874577664534,0.5397599479664927,0.6383611490816884,0.729406476020813,-0.5566038489341736,-0.3976914286613464,0,0,0,-1,-1,9080.303592166667,unknown,2,2025-04-20T22:18:26.887+03:00,2025-04-20T21:57:49.637+03:00,29,1.789309,0,0,23.86625,0,0,2025-04-20T22:09:07.141+03:00,766869517.3048571,0,0.9300003,99.72591,1,1,2025-04-20T22:18:36.793+03:00,89,1.483333333333333,2025-04-19T12:19:17.059+03:00,0.05691595998002078,0
2025-04-20T22:18:38.730+03:00,1745176712.716959,40.98552636824662,29.137368114026,128.4453,-1,-1,-1,-1,30,30.35635389065777,-9999,9092.143616000001,0.7536163330078125,-0.4232635498046875,-0.8424072265625,9092.139846,1.040864930933691,1.10080113507544,0.5960110219298131,0.9658746123313904,2.654834747314453,0.2584554255008698,0.03798598051071167,0.006292104721069336,-0.4770861566066742,XArbitraryZVertical,-0.0314960830746047,0.5582200745449982,0.53837487871919,0.6305162706453938,0.7378470897674561,-0.5613457560539246,-0.3747966885566711,0,0,0,-1,-1,9080.303592166667,unknown,2,2025-04-20T22:18:26.887+03:00,2025-04-20T21:57:49.637+03:00,29,1.789309,0,0,23.86625,0,0,2025-04-20T22:09:07.141+03:00,766869517.3048571,0,0.9300003,99.72591,1,1,2025-04-20T22:18:36.793+03:00,89,1.483333333333333,2025-04-19T12:19:17.059+03:00,0.05691595998002078,0
2025-04-20T22:18:38.740+03:00,1745176712.716959,40.98552636824662,29.137368114026,128.4453,-1,-1,-1,-1,30,30.35635389065777,-9999,9092.153692875001,0.7528228759765625,-0.3420257568359375,-0.7972869873046875,9092.149923000001,1.028766426157992,1.134956300705711,0.6039041423048557,1.494948863983154,2.746633768081665,0.2839444577693939,0.007440626621246338,0.1445968747138977,-0.4949068427085876,XArbitraryZVertical,-0.03416663470325013,0.570160043677145,0.535273247357408,0.622280287220444,0.7461757063865662,-0.5678603649139404,-0.3475003242492676,0,0,0,-1,-1,9080.303592166667,unknown,2,2025-04-20T22:18:26.887+03:00,2025-04-20T21:57:49.637+03:00,29,1.789309,0,0,23.86625,0,0,2025-04-20T22:09:07.141+03:00,766869517.3048571,0,0.9300003,99.72591,1,1,2025-04-20T22:18:36.793+03:00,89,1.483333333333333,2025-04-19T12:19:17.059+03:00,0.05691595998002078,0
2025-04-20T22:18:38.751+03:00,1745176712.716959,40.98552636824662,29.137368114026,128.4453,-1,-1,-1,-1,30,30.35635389065777,-9999,9092.163768875,0.78619384765625,-0.3085479736328125,-0.7492218017578125,9092.159998875,1.011078393095955,1.172714429532455,0.6132399354539954,1.85702645778656,2.736792087554932,0.2411344051361084,-0.001018881797790527,0.2334944009780884,-0.4802708327770233,XArbitraryZVertical,-0.03549801616921758,0.5832939663950002,0.5306966181297844,0.6138964934260501,0.7538415789604187,-0.5755200386047363,-0.317016065120697,0,0,0,-1,-1,9080.303592166667,unknown,2,2025-04-20T22:18:26.887+03:00,2025-04-20T21:57:49.637+03:00,29,1.789309,0,0,23.86625,0,0,2025-04-20T22:09:07.141+03:00,766869517.3048571,0,0.9300003,99.72591,1,1,2025-04-20T22:18:36.793+03:00,89,1.483333333333333,2025-04-19T12:19:17.059+03:00,0.05691595998002078,0
2025-04-20T22:18:38.761+03:00,1745176712.716959,40.98552636824662,29.137368114026,128.4453,-1,-1,-1,-1,30,30.35635389065777,-9999,9092.173845875001,0.760894775390625,-0.3053131103515625,-0.624847412109375,9092.170075875001,0.990078432646098,1.21211472648253,0.6222446132894047,1.920563459396362,2.665173530578613,0.1687467098236084,0.02533340454101562,0.2743126749992371,-0.4639764130115509,XArbitraryZVertical,-0.0362199470771718,0.596712201048613,0.5251568556079939,0.6056672118480257,0.7608603239059448,-0.58286052942276,-0.2852453291416168,0,0,0,-1,-1,9080.303592166667,unknown,2,2025-04-20T22:18:26.887+03:00,2025-04-20T21:57:49.637+03:00,29,1.789309,0,0,23.86625,0,0,2025-04-20T22:09:07.141+03:00,766869517.3048571,0,0.9300003,99.72591,1,1,2025-04-20T22:18:36.793+03:00,89,1.483333333333333,2025-04-19T12:19:17.059+03:00,0.05691595998002078,0
2025-04-20T22:18:38.771+03:00,1745176712.716959,40.98552636824662,29.137368114026,128.4453,-1,-1,-1,-1,30,30.35635389065777,-9999,9092.183922875001,0.7168121337890625,-0.3958740234375,-0.426025390625,9092.180151875,0.9697404157534656,1.250519114252999,0.6300091570696409,1.65046215057373,2.582883834838867,0.2054008692502975,-0.00603795051574707,0.2838391065597534,-0.3704579770565033,XArbitraryZVertical,-0.03713362571688834,0.609447649482736,0.5197570156439744,0.5975342433481606,0.7669326066970825,-0.5891521573066711,-0.2543893158435822,0,0,0,-1,-1,9080.303592166667,unknown,2,2025-04-20T22:18:26.887+03:00,2025-04-20T21:57:49.637+03:00,29,1.789309,0,0,23.86625,0,0,2025-04-20T22:09:07.141+03:00,766869517.3048571,0,0.9300003,99.72591,1,1,2025-04-20T22:18:36.793+03:00,89,1.483333333333333,2025-04-19T12:19:17.059+03:00,0.05691595998002078,0
2025-04-20T22:18:38.781+03:00,1745176712.716959,40.98552636824662,29.137368114026,128.4453,-1,-1,-1,-1,30,30.35635389065777,-9999,9092.193998875,0.6980438232421875,-0.526214599609375,-0.213226318359375,9092.190228875001,0.9532898314051335,1.285756440230981,0.6368235576426838,1.278363347053528,2.472203254699707,0.3060396313667297,-0.05473595857620239,0.1987705826759338,-0.1999471485614777,XArbitraryZVertical,-0.03859011725803543,0.6208636780598483,0.5155138097397499,0.5893086277101708,0.7715480923652649,-0.5946446061134338,-0.2260781973600388,0,0,0,-1,-1,9080.303592166667,unknown,2,2025-04-20T22:18:26.887+03:00,2025-04-20T21:57:49.637+03:00,29,1.789309,0,0,23.86625,0,0,2025-04-20T22:09:07.141+03:00,766869517.3048571,0,0.9300003,99.72591,1,1,2025-04-20T22:18:36.793+03:00,89,1.483333333333333,2025-04-19T12:19:17.059+03:00,0.05691595998002078,0
2025-04-20T22:18:38.791+03:00,1745176712.716959,40.98552636824662,29.137368114026,128.4453,-1,-1,-1,-1,30,30.35635389065777,-9999,9092.204075875001,0.699432373046875,-0.5972900390625,-0.006103515625,9092.200305875,0.9402566599379341,1.317890612629173,0.6432756991220728,1.083398103713989,2.356659412384033,0.3613446950912476,-0.07663863897323608,0.07360512018203735,-0.01301787793636322,XArbitraryZVertical,-0.04031962257927701,0.6310864542543586,0.5123496861488031,0.5810351575853148,0.774682343006134,-0.5998196601867676,-0.2002084255218506,0,0,0,-1,-1,9080.303592166667,unknown,2,2025-04-20T22:18:26.887+03:00,2025-04-20T21:57:49.637+03:00,29,1.789309,0,0,23.86625,0,0,2025-04-20T22:09:07.141+03:00,766869517.3048571,0,0.9300003,99.72591,1,1,2025-04-20T22:18:36.793+03:00,89,1.483333333333333,2025-04-19T12:19:17.059+03:00,0.05691595998002078,0
2025-04-20T22:18:38.801+03:00,1745176712.716959,40.98552636824662,29.137368114026,128.4453,-1,-1,-1,-1,30,30.35635389065777,-9999,9092.214152875,0.7257537841796875,-0.589813232421875,0.171905517578125,9092.210381875,0.9284007460094571,1.347989865882793,0.6494476502126941,1.026028990745544,2.174174785614014,0.4165572226047516,-0.07729905843734741,0.007456541061401367,0.1698790639638901,XArbitraryZVertical,-0.04191383933283477,0.6405091383015284,0.5095784277080706,0.5729931127510975,0.7767314314842224,-0.6047465801239014,-0.1759825497865677,0,0,0,-1,-1,9080.303592166667,unknown,2,2025-04-20T22:18:26.887+03:00,2025-04-20T21:57:49.637+03:00,29,1.789309,0,0,23.86625,0,0,2025-04-20T22:09:07.141+03:00,766869517.3048571,0,0.9300003,99.72591,1,1,2025-04-20T22:18:36.793+03:00,89,1.483333333333333,2025-04-19T12:19:17.059+03:00,0.05691595998002078,0
2025-04-20T22:18:38.811+03:00,1745176712.716959,40.98552636824662,29.137368114026,128.4453,-1,-1,-1,-1,30,30.35635389065777,-9999,9092.224228875,0.797271728515625,-0.5548553466796875,0.3315887451171875,9092.220458875001,0.9177578115459837,1.375101147995708,0.6564351620109936,0.8923916816711426,1.932146430015564,0.5673302412033081,-0.05129867792129517,0.02048361301422119,0.32594233751297,XArbitraryZVertical,-0.04275954790716457,0.6489631893694403,0.5074529768264004,0.5652519624269846,0.7770523428916931,-0.6102967858314514,-0.1540368050336838,0,0,0,-1,-1,9080.303592166667,unknown,2,2025-04-20T22:18:26.887+03:00,2025-04-20T21:57:49.637+03:00,29,1.789309,0,0,23.86625,0,0,2025-04-20T22:09:07.141+03:00,766869517.3048571,0,0.9300003,99.72591,1,1,2025-04-20T22:18:36.793+03:00,89,1.483333333333333,2025-04-19T12:19:17.059+03:00,0.05691595998002078,0
2025-04-20T22:18:38.821+03:00,1745176712.716959,40.98552636824662,29.137368114026,128.4453,-1,-1,-1,-1,30,30.35635389065777,-9999,9092.234305875001,0.800323486328125,-0.624542236328125,0.49102783203125,9092.230534875,0.9099476554391506,1.398422891096775,0.6639229147588253,0.5561552047729492,1.752763509750366,0.6704412698745728,0.02136242389678955,0.06135594844818115,0.4666754603385925,XArbitraryZVertical,-0.04333556195257279,0.6561849401300914,0.5063778880733049,0.5577854266942581,0.7759091258049011,-0.6162111759185791,-0.1350867003202438,0,0,0,-1,-1,9080.303592166667,unknown,2,2025-04-20T22:18:26.887+03:00,2025-04-20T21:57:49.637+03:00,29,1.789309,0,0,23.86625,0,0,2025-04-20T22:09:07.141+03:00,766869517.3048571,0,0.9300003,99.72591,1,1,2025-04-20T22:18:36.793+03:00,89,1.483333333333333,2025-04-19T12:19:17.059+03:00,0.05691595998002078,0
2025-04-20T22:18:38.831+03:00,1745176712.716959,40.98552636824662,29.137368114026,128.4453,-1,-1,-1,-1,30,30.35635389065777,-9999,9092.244381875,0.7504425048828125,-0.704681396484375,0.4936370849609375,9092.240611875,0.9066608649660356,1.417045174442703,0.6712300836917652,0.1927812397480011,1.537106871604919,0.6670462489128113,0.02650362253189087,-0.002592504024505615,0.6109500527381897,XArbitraryZVertical,-0.04426409203639048,0.6618758323417059,0.5066664203196315,0.5506815102416596,0.7738198041915894,-0.6219496726989746,-0.1199221462011337,0,0,0,-1,-1,9080.303592166667,unknown,2,2025-04-20T22:18:26.887+03:00,2025-04-20T21:57:49.637+03:00,29,1.789309,0,0,23.86625,0,0,2025-04-20T22:09:07.141+03:00,766869517.3048571,0,0.9300003,99.72591,1,1,2025-04-20T22:18:36.793+03:00,89,1.483333333333333,2025-04-19T12:19:17.059+03:00,0.05691595998002078,0
2025-04-20T22:18:38.842+03:00,1745176712.716959,40.98552636824662,29.137368114026,128.4453,-1,-1,-1,-1,30,30.35635389065777,-9999,9092.254458875001,0.71905517578125,-0.71600341796875,0.372650146484375,9092.250688875001,0.9080119263233429,1.430574420737575,0.6778162699107853,-0.2009759694337845,1.314248919487,0.6355332732200623,-0.02085614204406738,-0.0775877833366394,0.6025044918060303,XArbitraryZVertical,-0.04571838362936274,0.6659400315120712,0.508195078457473,0.5442162649191838,0.7712985277175903,-0.627093493938446,-0.1088674068450928,0,0,0,-1,-1,9080.303592166667,unknown,2,2025-04-20T22:18:26.887+03:00,2025-04-20T21:57:49.637+03:00,29,1.789309,0,0,23.86625,0,0,2025-04-20T22:09:07.141+03:00,766869517.3048571,0,0.9300003,99.72591,1,1,2025-04-20T22:18:36.793+03:00,89,1.483333333333333,2025-04-19T12:19:17.059+03:00,0.05691595998002078,0
2025-04-20T22:18:38.851+03:00,1745176712.716959,40.98552636824662,29.137368114026,128.4453,-1,-1,-1,-1,30,30.35635389065777,-9999,9092.264535875001,0.675872802734375,-0.7106170654296875,0.2915191650390625,9092.260764875,0.9127994417967825,1.439770612246028,0.68280860529271,-0.3634053468704224,1.111529588699341,0.4496928453445435,-0.05009859800338745,-0.08502888679504395,0.4740097522735596,XArbitraryZVertical,-0.04782436753775125,0.6686052832823214,0.5103900665241601,0.5386851590394244,0.7691536545753479,-0.6309744119644165,-0.1013596132397652,0,0,0,-1,-1,9080.303592166667,unknown,2,2025-04-20T22:18:26.887+03:00,2025-04-20T21:57:49.637+03:00,29,1.789309,0,0,23.86625,0,0,2025-04-20T22:09:07.141+03:00,766869517.3048571,0,0.9300003,99.72591,1,1,2025-04-20T22:18:36.793+03:00,89,1.483333333333333,2025-04-19T12:19:17.059+03:00,0.05691595998002078,0
2025-04-20T22:18:38.861+03:00,1745176712.716959,40.98552636824662,29.137368114026,128.4453,-1,-1,-1,-1,30,30.35635389065777,-9999,9092.274611875,0.6392822265625,-0.7410888671875,0.3186492919921875,9092.270841875001,0.9180740997900406,1.446695329425009,0.6862991547250372,-0.342712014913559,0.9296634793281555,0.3592792153358459,-0.09177422523498535,-0.0769384503364563,0.3872770667076111,XArbitraryZVertical,-0.05008270440237851,0.6705317286253456,0.5124151961928727,0.5341437499103111,0.7676469683647156,-0.6336785554885864,-0.09575784951448441,0,0,0,-1,-1,9080.303592166667,unknown,2,2025-04-20T22:18:26.887+03:00,2025-04-20T21:57:49.637+03:00,29,1.789309,0,0,23.86625,0,0,2025-04-20T22:09:07.141+03:00,766869517.3048571,0,0.9300003,99.72591,1,1,2025-04-20T22:18:36.793+03:00,89,1.483333333333333,2025-04-19T12:19:17.059+03:00,0.05691595998002078,0
2025-04-20T22:18:38.872+03:00,1745176712.716959,40.98552636824662,29.137368114026,128.4453,-1,-1,-1,-1,30,30.35635389065777,-9999,9092.284688875001,0.645721435546875,-0.7504119873046875,0.3597259521484375,9092.280917875001,0.922687467846722,1.452256807898293,0.6893667960188452,-0.2811876535415649,0.7567734718322754,0.3314640820026398,-0.1269516348838806,-0.1050401329994202,0.4099061489105225,XArbitraryZVertical,-0.05193764625213314,0.6720670132574003,0.5141867797409668,0.5303209907505972,0.7662338018417358,-0.6360486745834351,-0.09125681966543198,0,0,0,-1,-1,9080.303592166667,unknown,2,2025-04-20T22:18:26.887+03:00,2025-04-20T21:57:49.637+03:00,29,1.789309,0,0,23.86625,0,0,2025-04-20T22:09:07.141+03:00,766869517.3048571,0,0.9300003,99.72591,1,1,2025-04-20T22:18:36.793+03:00,89,1.483333333333333,2025-04-19T12:19:17.059+03:00,0.05691595998002078,0
2025-04-20T22:18:38.881+03:00,1745176712.716959,40.98552636824662,29.137368114026,128.4453,-1,-1,-1,-1,30,30.35635389065777,-9999,9092.294764875001,0.6719207763671875,-0.7200164794921875,0.3503875732421875,9092.290994875,0.9258373361326393,1.456987746897025,0.6922315873158477,-0.1145459413528442,0.5820738077163696,0.2890588343143463,-0.1191220283508301,-0.1121551990509033,0.4471495151519775,XArbitraryZVertical,-0.05317016422895725,0.6733952628835385,0.5155358332901926,0.5271948858434338,0.7648433446884155,-0.6382566690444946,-0.08742350339889526,0,0,0,-1,-1,9080.303592166667,unknown,2,2025-04-20T22:18:26.887+03:00,2025-04-20T21:57:49.637+03:00,29,1.789309,0,0,23.86625,0,0,2025-04-20T22:09:07.141+03:00,766869517.3048571,0,0.9300003,99.72591,1,1,2025-04-20T22:18:36.793+03:00,89,1.483333333333333,2025-04-19T12:19:17.059+03:00,0.05691595998002078,0
2025-04-20T22:18:38.892+03:00,1745176712.716959,40.98552636824662,29.137368114026,128.4453,-1,-1,-1,-1,30,30.35635389065777,-9999,9092.304841875,0.693206787109375,-0.679718017578125,0.316192626953125,9092.301071875001,0.9258716459705428,1.461890351441158,0.6948744706096044,0.1770182698965073,0.3929904401302338,0.2290841937065125,-0.09166258573532104,-0.0797274112701416,0.4338766932487488,XArbitraryZVertical,-0.05348349360596367,0.6748295767163154,0.516005951085582,0.5248641230231867,0.763583242893219,-0.6402890086174011,-0.08348912000656128,0,0,0,-1,-1,9080.303592166667,unknown,2,2025-04-20T22:18:26.887+03:00,2025-04-20T21:57:49.637+03:00,29,1.789309,0,0,23.86625,0,0,2025-04-20T22:09:07.141+03:00,766869517.3048571,0,0.9300003,99.72591,1,1,2025-04-20T22:18:36.793+03:00,89,1.483333333333333,2025-04-19T12:19:17.059+03:00,0.05691595998002078,0
2025-04-20T22:18:38.902+03:00,1745176712.716959,40.98552636824662,29.137368114026,128.4453,-1,-1,-1,-1,30,30.35635389065777,-9999,9092.314918875001,0.6907806396484375,-0.6847991943359375,0.342376708984375,9092.311147875,0.922426508264747,1.467182589119035,0.6972429890454366,0.3595959544181824,0.2274969518184662,0.1909688264131546,-0.06929713487625122,-0.03761136531829834,0.3954824805259705,XArbitraryZVertical,-0.05282301169930031,0.6764353811716687,0.5154948264667654,0.5233639076060492,0.7625036835670471,-0.6421065926551819,-0.07928980886936188,0,0,0,-1,-1,9080.303592166667,unknown,2,2025-04-20T22:18:26.887+03:00,2025-04-20T21:57:49.637+03:00,29,1.789309,0,0,23.86625,0,0,2025-04-20T22:09:07.141+03:00,766869517.3048571,0,0.9300003,99.72591,1,1,2025-04-20T22:18:36.793+03:00,89,1.483333333333333,2025-04-19T12:19:17.059+03:00,0.05691595998002078,0
2025-04-20T22:18:38.912+03:00,1745176712.716959,40.98552636824662,29.137368114026,128.4453,-1,-1,-1,-1,30,30.35635389065777,-9999,9092.324994875,0.66241455078125,-0.778289794921875,0.372161865234375,9092.321224875001,0.9184891842763224,1.471490445798302,0.6991199124253273,0.2579505443572998,0.1249255761504173,0.1075674146413803,-0.07085716724395752,-0.04125487804412842,0.4182614684104919,XArbitraryZVertical,-0.05191766181638717,0.6777626365101964,0.5147764125134997,0.5224438610161659,0.761637806892395,-0.6435443162918091,-0.07588472962379456,0,0,0,-1,-1,9080.303592166667,unknown,2,2025-04-20T22:18:26.887+03:00,2025-04-20T21:57:49.637+03:00,29,1.789309,0,0,23.86625,0,0,2025-04-20T22:09:07.141+03:00,766869517.3048571,0,0.9300003,99.72591,1,1,2025-04-20T22:18:36.793+03:00,89,1.483333333333333,2025-04-19T12:19:17.059+03:00,0.05691595998002078,0
2025-04-20T22:18:38.922+03:00,1745176712.716959,40.98552636824662,29.137368114026,128.4453,-1,-1,-1,-1,30,30.35635389065777,-9999,9092.335071875001,0.6374359130859375,-0.8574371337890625,0.33807373046875,9092.331300875001,0.9162054668799138,1.473708445225734,0.6998219209796688,0.1014526635408401,0.02362864837050438,-0.003028002334758639,-0.09893995523452759,-0.1342082619667053,0.4463133215904236,XArbitraryZVertical,-0.05145914170169168,0.6784366195032248,0.5142818318524168,0.5221014040908607,0.7613544464111328,-0.6440814733505249,-0.0741514191031456,0,0,0,-1,-1,9080.303592166667,unknown,2,2025-04-20T22:18:26.887+03:00,2025-04-20T21:57:49.637+03:00,29,1.789309,0,0,23.86625,0,0,2025-04-20T22:09:07.141+03:00,766869517.3048571,0,0.9300003,99.72591,1,1,2025-04-20T22:18:36.793+03:00,89,1.483333333333333,2025-04-19T12:19:17.059+03:00,0.05691595998002078,0
2025-04-20T22:18:38.932+03:00,1745176712.716959,40.98552636824662,29.137368114026,128.4453,-1,-1,-1,-1,30,30.35635389065777,-9999,9092.345147875001,0.6434478759765625,-0.8923187255859375,0.2642669677734375,9092.341377875,0.9160903522871823,1.47369079597235,0.6993150903930023,-0.1158178672194481,-0.03626317903399467,-0.1014555096626282,-0.1242420673370361,-0.2137433886528015,0.4122702479362488,XArbitraryZVertical,-0.05159950061769977,0.6784093479977042,0.5141371936310334,0.5222654053322362,0.7616779208183289,-0.6436936855316162,-0.07419649511575699,0,0,0,-1,-1,9080.303592166667,unknown,2,2025-04-20T22:18:26.887+03:00,2025-04-20T21:57:49.637+03:00,29,1.789309,0,0,23.86625,0,0,2025-04-20T22:09:07.141+03:00,766869517.3048571,0,0.9300003,99.72591,1,1,2025-04-20T22:18:36.793+03:00,89,1.483333333333333,2025-04-19T12:19:17.059+03:00,0.05691595998002078,0
2025-04-20T22:18:38.942+03:00,1745176712.716959,40.98552636824662,29.137368114026,128.4453,-1,-1,-1,-1,30,30.35635389065777,-9999,9092.355224875,0.6396636962890625,-0.9108734130859375,0.1672821044921875,9092.351454875001,0.9195824727755897,1.470781840157041,0.6973635603459066,-0.4501794874668121,-0.09683585166931152,-0.2409406304359436,-0.1192594766616821,-0.250119686126709,0.3408041596412659,XArbitraryZVertical,-0.0527434884613157,0.677458154285201,0.5146831678238051,0.5228477396500314,0.7627072930335999,-0.6421989798545837,-0.07653714716434479,0,0,0,-1,-1,9080.303592166667,unknown,2,2025-04-20T22:18:26.887+03:00,2025-04-20T21:57:49.637+03:00,29,1.789309,0,0,23.86625,0,0,2025-04-20T22:09:07.141+03:00,766869517.3048571,0,0.9300003,99.72591,1,1,2025-04-20T22:18:36.793+03:00,89,1.483333333333333,2025-04-19T12:19:17.059+03:00,0.05691595998002078,0
2025-04-20T22:18:38.952+03:00,1745176712.716959,40.98552636824662,29.137368114026,128.4453,-1,-1,-1,-1,30,30.35635389065777,-9999,9092.365301875001,0.6502227783203125,-0.8916473388671875,0.1125946044921875,9092.361530875001,0.9271239812999008,1.46456888677721,0.6933643410008618,-0.7688285708427429,-0.1778540015220642,-0.4233418703079224,-0.1251011490821838,-0.2717450857162476,0.248828113079071,XArbitraryZVertical,-0.05514656993383555,0.6754153341433106,0.5159226229150005,0.5240198262626778,0.7647647857666016,-0.6391283273696899,-0.08154596388339996,0,0,0,-1,-1,9080.303592166667,unknown,2,2025-04-20T22:18:26.887+03:00,2025-04-20T21:57:49.637+03:00,29,1.789309,0,0,23.86625,0,0,2025-04-20T22:09:07.141+03:00,766869517.3048571,0,0.9300003,99.72591,1,1,2025-04-20T22:18:36.793+03:00,89,1.483333333333333,2025-04-19T12:19:17.059+03:00,0.05691595998002078,0
2025-04-20T22:18:38.962+03:00,1745176712.716959,40.98552636824662,29.137368114026,128.4453,-1,-1,-1,-1,30,30.35635389065777,-9999,9092.375377875,0.6799468994140625,-0.8758087158203125,0.1145782470703125,9092.371607875,0.9375691981791349,1.455859598475303,0.6873671316191277,-0.9127336740493774,-0.2249859571456909,-0.5876047611236572,-0.1175968050956726,-0.2571428418159485,0.2012359499931335,XArbitraryZVertical,-0.05859847559296951,0.672492049668348,0.5175703213157649,0.5257770167980742,0.7678194046020508,-0.6345043778419495,-0.08864132314920425,0,0,0,-1,-1,9080.303592166667,unknown,2,2025-04-20T22:18:26.887+03:00,2025-04-20T21:57:49.637+03:00,29,1.789309,0,0,23.86625,0,0,2025-04-20T22:09:07.141+03:00,766869517.3048571,0,0.9300003,99.72591,1,1,2025-04-20T22:18:36.793+03:00,89,1.483333333333333,2025-04-19T12:19:17.059+03:00,0.05691595998002078,0
2025-04-20T22:18:38.972+03:00,1745176712.716959,40.98552636824662,29.137368114026,128.4453,-1,-1,-1,-1,30,30.35635389065777,-9999,9092.385454875001,0.6941986083984375,-0.80938720703125,0.1046600341796875,9092.381684875001,0.9477213405469114,1.447045565440801,0.6798063998929501,-0.775138795375824,-0.2534535527229309,-0.7119000554084778,-0.09180021286010742,-0.2471662163734436,0.2105730772018433,XArbitraryZVertical,-0.06247609694305836,0.669402219168087,0.5188359709832422,0.5280213543671923,0.7717470526695251,-0.6286424994468689,-0.09599481523036957,0,0,0,-1,-1,9080.303592166667,unknown,2,2025-04-20T22:18:26.887+03:00,2025-04-20T21:57:49.637+03:00,29,1.789309,0,0,23.86625,0,0,2025-04-20T22:09:07.141+03:00,766869517.3048571,0,0.9300003,99.72591,1,1,2025-04-20T22:18:36.793+03:00,89,1.483333333333333,2025-04-19T12:19:17.059+03:00,0.05691595998002078,0
2025-04-20T22:18:38.982+03:00,1745176712.716959,40.98552636824662,29.137368114026,128.4453,-1,-1,-1,-1,30,30.35635389065777,-9999,9092.395530875001,0.7249603271484375,-0.67718505859375,0.0724334716796875,9092.391760875,0.9543937406276973,1.440147061710304,0.6714728763489196,-0.4473446607589722,-0.2853084206581116,-0.7881568074226379,-0.08203524351119995,-0.1872473359107971,0.2066554427146912,XArbitraryZVertical,-0.06595644127696469,0.6668223687826228,0.5189887825137314,0.5307053553776044,0.7762337327003479,-0.6221398115158081,-0.1019953563809395,0,0,0,-1,-1,9080.303592166667,unknown,2,2025-04-20T22:18:26.887+03:00,2025-04-20T21:57:49.637+03:00,29,1.789309,0,0,23.86625,0,0,2025-04-20T22:09:07.141+03:00,766869517.3048571,0,0.9300003,99.72591,1,1,2025-04-20T22:18:36.793+03:00,89,1.483333333333333,2025-04-19T12:19:17.059+03:00,0.05691595998002078,0
2025-04-20T22:18:38.992+03:00,1745176712.716959,40.98552636824662,29.137368114026,128.4453,-1,-1,-1,-1,30,30.35635389065777,-9999,9092.405607875,0.7752227783203125,-0.557098388671875,0.037109375,9092.401837875001,0.9565883801539599,1.435722022815066,0.6629888859834481,-0.1137437969446182,-0.3199710547924042,-0.8337469100952148,-0.05601674318313599,-0.06170964241027832,0.1785696744918823,XArbitraryZVertical,-0.06863913978492235,0.6649966736967953,0.5178580969140987,0.5337517156592606,0.7809768915176392,-0.6154752969741821,-0.1061361879110336,0,0,0,-1,-1,9080.303592166667,unknown,2,2025-04-20T22:18:26.887+03:00,2025-04-20T21:57:49.637+03:00,29,1.789309,0,0,23.86625,0,0,2025-04-20T22:09:07.141+03:00,766869517.3048571,0,0.9300003,99.72591,1,1,2025-04-20T22:18:36.793+03:00,89,1.483333333333333,2025-04-19T12:19:17.059+03:00,0.05691595998002078,0
2025-04-20T22:18:39.002+03:00,1745176712.716959,40.98552636824662,29.137368114026,128.4453,-1,-1,-1,-1,30,30.35635389065777,-9999,9092.415684875001,0.8058013916015625,-0.50762939453125,0.04034423828125,9092.411913875001,0.9547640122888585,1.433426697775987,0.6546312758288415,0.1605853587388992,-0.353604257106781,-0.8490581512451172,-0.01057684421539307,0.05176842212677002,0.1457385420799255,XArbitraryZVertical,-0.07049461608919468,0.6638643969428387,0.5156098768806044,0.5370856539188932,0.785799503326416,-0.608866810798645,-0.1086291447281837,0,0,0,-1,-1,9080.303592166667,unknown,2,2025-04-20T22:18:26.887+03:00,2025-04-20T21:57:49.637+03:00,29,1.789309,0,0,23.86625,0,0,2025-04-20T22:09:07.141+03:00,766869517.3048571,0,0.9300003,99.72591,1,1,2025-04-20T22:18:36.793+03:00,89,1.483333333333333,2025-04-19T12:19:17.059+03:00,0.05691595998002078,0
2025-04-20T22:18:39.012+03:00,1745176718.978256,40.98549699835832,29.13736551542375,128.4456,-1,-1,-1,-1,30,32.4849757427833,-9999,9092.425760875001,0.8061981201171875,-0.5289154052734375,0.06964111328125,9092.421990875,0.9500181491911919,1.432550246133944,0.6463680616362971,0.3321187794208527,-0.389951080083847,-0.8729613423347473,0.0151410698890686,0.09466171264648438,0.1503516435623169,XArbitraryZVertical,-0.07171618120654381,0.6632142144796737,0.5125336329387409,0.5406596315820273,0.7906602025032043,-0.6022911071777344,-0.1100073903799057,0,0,0,-1,-1,9080.303592166667,unknown,2,2025-04-20T22:18:26.887+03:00,2025-04-20T21:57:49.637+03:00,29,1.789309,0,0,23.86625,0,0,2025-04-20T22:09:07.141+03:00,766869517.3048571,0,0.9300003,99.72591,1,1,2025-04-20T22:18:36.793+03:00,89,1.483333333333333,2025-04-19T12:19:17.059+03:00,0.05691595998002078,0
2025-04-20T22:18:39.023+03:00,1745176718.978256,40.98549699835832,29.13736551542375,128.4456,-1,-1,-1,-1,30,32.4849757427833,-9999,9092.435837875,0.8003692626953125,-0.562774658203125,0.1089935302734375,9092.432067875001,0.9441859874311457,1.431844959188186,0.6380944918131989,0.350669264793396,-0.4396690726280212,-0.8845070600509644,0.01070761680603027,0.06675058603286743,0.1808925867080688,XArbitraryZVertical,-0.07262904431502343,0.6626456977651923,0.5091329491899769,0.5444348017432147,0.7954904437065125,-0.5956659317016602,-0.1112513989210129,0,0,0,-1,-1,9080.303592166667,unknown,2,2025-04-20T22:18:26.887+03:00,2025-04-20T21:57:49.637+03:00,29,1.789309,0,0,23.86625,0,0,2025-04-20T22:09:07.141+03:00,766869517.3048571,0,0.9300003,99.72591,1,1,2025-04-20T22:18:36.793+03:00,89,1.483333333333333,2025-04-19T12:19:17.059+03:00,0.05691595998002078,0
2025-04-20T22:18:39.033+03:00,1745176718.978256,40.98549699835832,29.13736551542375,128.4456,-1,-1,-1,-1,30,32.4849757427833,-9999,9092.445913875001,0.818084716796875,-0.579620361328125,0.1859588623046875,9092.442143875001,0.9386761284119036,1.42996985953666,0.6296596497822327,0.2736999094486237,-0.5797635912895203,-0.8942697048187256,0.0001424551010131836,0.02609515190124512,0.2224376350641251,XArbitraryZVertical,-0.07341581856648507,0.6617311431185289,0.5058030520958898,0.5485299612450791,0.800226628780365,-0.5888696908950806,-0.113444022834301,0,0,0,-1,-1,9080.303592166667,unknown,2,2025-04-20T22:18:26.887+03:00,2025-04-20T21:57:49.637+03:00,29,1.789309,0,0,23.86625,0,0,2025-04-20T22:09:07.141+03:00,766869517.3048571,0,0.9300003,99.72591,1,1,2025-04-20T22:18:36.793+03:00,89,1.483333333333333,2025-04-19T12:19:17.059+03:00,0.05691595998002078,0
2025-04-20T22:18:39.043+03:00,1745176718.978256,40.98549699835832,29.13736551542375,128.4456,-1,-1,-1,-1,30,32.4849757427833,-9999,9092.455990875,0.8188934326171875,-0.5971832275390625,0.291229248046875,9092.452220875,0.9349560173679683,1.425674270809642,0.6207738959510737,0.03046923689544201,-0.7086195349693298,-0.9366758465766907,0.01320672035217285,0.002044498920440674,0.3035914301872253,XArbitraryZVertical,-0.07435819033245113,0.6600413704438566,0.5029334438708324,0.5530588828209509,0.8048779368400574,-0.5816648602485657,-0.1176325008273125,0,0,0,-1,-1,9080.303592166667,unknown,2,2025-04-20T22:18:26.887+03:00,2025-04-20T21:57:49.637+03:00,29,1.789309,0,0,23.86625,0,0,2025-04-20T22:09:07.141+03:00,766869517.3048571,0,0.9300003,99.72591,1,1,2025-04-20T22:18:36.793+03:00,89,1.483333333333333,2025-04-19T12:19:17.059+03:00,0.05691595998002078,0
2025-04-20T22:18:39.053+03:00,1745176718.978256,40.98549699835832,29.13736551542375,128.4456,-1,-1,-1,-1,30,32.4849757427833,-9999,9092.466067875001,0.81494140625,-0.6100006103515625,0.37298583984375,9092.462296875001,0.936249733505865,1.416294058938845,0.6110180392145832,-0.5949221849441528,-1.041645765304565,-0.9362990260124207,0.00958549976348877,-0.02348154783248901,0.4172737002372742,XArbitraryZVertical,-0.07600871396071696,0.6566585601981261,0.5014448324239437,0.5581891997329027,0.8093078136444092,-0.5737016201019287,-0.1260444223880768,0,0,0,-1,-1,9080.303592166667,unknown,2,2025-04-20T22:18:26.887+03:00,2025-04-20T21:57:49.637+03:00,29,1.789309,0,0,23.86625,0,0,2025-04-20T22:09:07.141+03:00,766869517.3048571,0,0.9300003,99.72591,1,1,2025-04-20T22:18:36.793+03:00,89,1.483333333333333,2025-04-19T12:19:17.059+03:00,0.05691595998002078,0
2025-04-20T22:18:39.064+03:00,1745176718.978256,40.98549699835832,29.13736551542375,128.4456,-1,-1,-1,-1,30,32.4849757427833,-9999,9092.476143875001,0.8769378662109375,-0.6517333984375,0.6561737060546875,9092.472373875,0.9479977014833266,1.396438749544676,0.6000059649945203,-1.710772275924683,-1.586807131767273,-0.9081203937530518,0.002122700214385986,-0.04535311460494995,0.516160786151886,XArbitraryZVertical,-0.07891370580771775,0.6497577870518505,0.5030508128409206,0.5643821211611406,0.8128185868263245,-0.564647376537323,-0.1431748867034912,0,0,0,-1,-1,9080.303592166667,unknown,2,2025-04-20T22:18:26.887+03:00,2025-04-20T21:57:49.637+03:00,29,1.789309,0,0,23.86625,0,0,2025-04-20T22:09:07.141+03:00,766869517.3048571,0,0.9300003,99.72591,1,1,2025-04-20T22:18:36.793+03:00,89,1.483333333333333,2025-04-19T12:19:17.059+03:00,0.05691595998002078,0
2025-04-20T22:18:39.073+03:00,1745176718.978256,40.98549699835832,29.13736551542375,128.4456,-1,-1,-1,-1,30,32.4849757427833,-9999,9092.486220875,0.89007568359375,-0.71978759765625,1.055038452148438,9092.482450875001,0.9743562546803414,1.362418209380668,0.5865182561846896,-3.067534923553467,-2.260797739028931,-0.9014180302619934,0.06208205223083496,-0.09826880693435669,0.828472912311554,XArbitraryZVertical,-0.0837830606257975,0.6378329075800803,0.5089870322508523,0.5719104956875399,0.8148556351661682,-0.5534645318984985,-0.1722991615533829,0,0,0,-1,-1,9080.303592166667,unknown,2,2025-04-20T22:18:26.887+03:00,2025-04-20T21:57:49.637+03:00,29,1.789309,0,0,23.86625,0,0,2025-04-20T22:09:07.141+03:00,766869517.3048571,0,0.9300003,99.72591,1,1,2025-04-20T22:18:36.793+03:00,89,1.483333333333333,2025-04-19T12:19:17.059+03:00,0.05691595998002078,0
2025-04-20T22:18:39.087+03:00,1745176718.978256,40.98549699835832,29.13736551542375,128.4456,-1,-1,-1,-1,30,32.4849757427833,-9999,9092.496296875001,0.8338775634765625,-0.732666015625,1.35174560546875,9092.492526875001,1.01550980172655,1.312955623830906,0.5695585663512103,-4.25514030456543,-3.059950113296509,-0.7803110480308533,0.07577532529830933,-0.1805272698402405,1.269778251647949,XArbitraryZVertical,-0.09032785496669575,0.6200572477714362,0.519479130229039,0.5809572629529213,0.8143004179000854,-0.5392603278160095,-0.2147397696971893,0,0,0,-1,-1,9080.303592166667,unknown,2,2025-04-20T22:18:26.887+03:00,2025-04-20T21:57:49.637+03:00,29,1.789309,0,0,23.86625,0,0,2025-04-20T22:09:07.141+03:00,766869517.3048571,0,0.9300003,99.72591,1,1,2025-04-20T22:18:36.793+03:00,89,1.483333333333333,2025-04-19T12:19:17.059+03:00,0.05691595998002078,0
2025-04-20T22:18:39.093+03:00,1745176718.978256,40.98549699835832,29.13736551542375,128.4456,-1,-1,-1,-1,30,32.4849757427833,-9999,9092.506373875001,0.652679443359375,-0.644775390625,1.49169921875,9092.502603875,1.062956385942847,1.253701526516339,0.5500299631027735,-4.32384204864502,-3.730203866958618,-0.6573872566223145,0.02387028932571411,-0.2099531888961792,1.61756432056427,XArbitraryZVertical,-0.09652622559033396,0.5981415956295765,0.5323523696771018,0.5911938335814768,0.8100071549415588,-0.522712767124176,-0.2658186256885529,0,0,0,-1,-1,9080.303592166667,unknown,2,2025-04-20T22:18:26.887+03:00,2025-04-20T21:57:49.637+03:00,29,1.789309,0,0,23.86625,0,0,2025-04-20T22:09:07.141+03:00,766869517.3048571,0,0.9300003,99.72591,1,1,2025-04-20T22:18:36.793+03:00,89,1.483333333333333,2025-04-19T12:19:17.059+03:00,0.05691595998002078,0
2025-04-20T22:18:39.103+03:00,1745176718.978256,40.98549699835832,29.13736551542375,128.4456,-1,-1,-1,-1,30,32.4849757427833,-9999,9092.516450875,0.362030029296875,-0.3655853271484375,1.424514770507812,9092.512679875001,1.104008984488707,1.190912687013466,0.5318433862401439,-3.448150634765625,-4.565781116485596,-0.3313461244106293,-0.1477494239807129,-0.1376523971557617,1.81129264831543,XArbitraryZVertical,-0.0985331906133453,0.5748864949899039,0.5443906342466474,0.6028561464862665,0.8004288077354431,-0.5071229934692383,-0.3195934593677521,0,0,0,-1,-1,9080.303592166667,unknown,2,2025-04-20T22:18:26.887+03:00,2025-04-20T21:57:49.637+03:00,29,1.789309,0,0,23.86625,0,0,2025-04-20T22:09:07.141+03:00,766869517.3048571,0,0.9300003,99.72591,1,1,2025-04-20T22:18:36.793+03:00,89,1.483333333333333,2025-04-19T12:19:17.059+03:00,0.05691595998002078,0
2025-04-20T22:18:39.116+03:00,1745176718.978256,40.98549699835832,29.13736551542375,128.4456,-1,-1,-1,-1,30,32.4849757427833,-9999,9092.526526875001,0.243255615234375,-0.1701812744140625,1.693756103515625,9092.522756875,1.135741919941048,1.123637119567391,0.5177817872825654,-2.678802013397217,-5.613968372344971,-0.1052994132041931,-0.4214563369750977,0.1293686032295227,1.800240516662598,XArbitraryZVertical,-0.09431998983885699,0.5506731363443472,0.5549743445233839,0.6163328502077927,0.7834862470626831,-0.4949539005756378,-0.3757256865501404,0,0,0,-1,-1,9080.303592166667,unknown,2,2025-04-20T22:18:26.887+03:00,2025-04-20T21:57:49.637+03:00,29,1.789309,0,0,23.86625,0,0,2025-04-20T22:09:07.141+03:00,766869517.3048571,0,0.9300003,99.72591,1,1,2025-04-20T22:18:36.793+03:00,89,1.483333333333333,2025-04-19T12:19:17.059+03:00,0.05691595998002078,0
2025-04-20T22:18:39.123+03:00,1745176718.978256,40.98549699835832,29.13736551542375,128.4456,-1,-1,-1,-1,30,32.4849757427833,-9999,9092.536603875,0.286712646484375,-0.1788330078125,1.977783203125,9092.532833875001,1.158087224704781,1.051049173556004,0.5064719632752441,-1.793616533279419,-6.634931087493896,-0.1007463037967682,-0.5157285928726196,0.3149138987064362,2.128066778182983,XArbitraryZVertical,-0.08436795268338926,0.5250969074883003,0.5634821539456278,0.6321732904080668,0.7589841485023499,-0.4850951433181763,-0.4343105852603912,0,0,0,-1,-1,9080.303592166667,unknown,2,2025-04-20T22:18:26.887+03:00,2025-04-20T21:57:49.637+03:00,29,1.789309,0,0,23.86625,0,0,2025-04-20T22:09:07.141+03:00,766869517.3048571,0,0.9300003,99.72591,1,1,2025-04-20T22:18:36.793+03:00,89,1.483333333333333,2025-04-19T12:19:17.059+03:00,0.05691595998002078,0
2025-04-20T22:18:39.133+03:00,1745176718.978256,40.98549699835832,29.13736551542375,128.4456,-1,-1,-1,-1,30,32.4849757427833,-9999,9092.546680875001,0.4099578857421875,0.0438690185546875,1.849502563476562,9092.542909875001,1.171986152141721,0.9712680526987214,0.4968376450668472,-1.30343770980835,-7.967205047607422,-0.2370974868535995,-0.4390692710876465,0.2978149056434631,2.473814964294434,XArbitraryZVertical,-0.06904568645268731,0.4972090841640082,0.5696900935544899,0.6507449307896623,0.7257818579673767,-0.4766479134559631,-0.496031641960144,0,0,0,-1,-1,9080.303592166667,unknown,2,2025-04-20T22:18:26.887+03:00,2025-04-20T21:57:49.637+03:00,29,1.789309,0,0,23.86625,0,0,2025-04-20T22:09:07.141+03:00,766869517.3048571,0,0.9300003,99.72591,1,1,2025-04-20T22:18:36.793+03:00,89,1.483333333333333,2025-04-19T12:19:17.059+03:00,0.05691595998002078,0
2025-04-20T22:18:39.144+03:00,1745176718.978256,40.98549699835832,29.13736551542375,128.4456,-1,-1,-1,-1,30,32.4849757427833,-9999,9092.556756875001,0.6164398193359375,0.4111328125,1.567840576171875,9092.552986875,1.179595397146127,0.8809022910230087,0.4883845694218967,-0.788027286529541,-9.182406425476074,-0.237808883190155,-0.2711828351020813,0.5130689144134521,2.411551237106323,XArbitraryZVertical,-0.04834707379026221,0.4654441062548462,0.5738480385647087,0.6721032168221391,0.6811407208442688,-0.469199925661087,-0.5620486736297607,0,0,0,-1,-1,9080.303592166667,unknown,2,2025-04-20T22:18:26.887+03:00,2025-04-20T21:57:49.637+03:00,29,1.789309,0,0,23.86625,0,0,2025-04-20T22:09:07.141+03:00,766869517.3048571,0,0.9300003,99.72591,1,1,2025-04-20T22:18:36.793+03:00,89,1.483333333333333,2025-04-19T12:19:17.059+03:00,0.05691595998002078,0
2025-04-20T22:18:39.153+03:00,1745176718.978256,40.98549699835832,29.13736551542375,128.4456,-1,-1,-1,-1,30,32.4849757427833,-9999,9092.566833875,0.48406982421875,0.6511383056640625,0.8688812255859375,9092.563062875,1.188010058317147,0.785576757274757,0.4812658997329786,-2.007803201675415,-7.930156230926514,0.6132492423057556,-0.01045835018157959,0.8740344047546387,2.194514989852905,XArbitraryZVertical,-0.02560086778038979,0.4312858163132037,0.5777583552993361,0.6924826967149691,0.6268981695175171,-0.4629016518592834,-0.6266742944717407,0,0,0,-1,-1,9080.303592166667,unknown,2,2025-04-20T22:18:26.887+03:00,2025-04-20T21:57:49.637+03:00,29,1.789309,0,0,23.86625,0,0,2025-04-20T22:09:07.141+03:00,766869517.3048571,0,0.9300003,99.72591,1,1,2025-04-20T22:18:36.793+03:00,89,1.483333333333333,2025-04-19T12:19:17.059+03:00,0.05691595998002078,0
2025-04-20T22:18:39.165+03:00,1745176718.978256,40.98549699835832,29.13736551542375,128.4456,-1,-1,-1,-1,30,32.4849757427833,-9999,9092.576909875001,-0.7075958251953125,-0.0048675537109375,-3.877532958984375,9092.573139875001,1.232612755408411,0.7077100149443307,0.4293165880714834,-6.537511348724365,-5.051332950592041,-0.971893310546875,-0.1070297360420227,1.067387819290161,1.559777498245239,XArbitraryZVertical,-0.03264460624484587,0.3917731473418449,0.5900012457592504,0.7052280327198776,0.5910995006561279,-0.4162495136260986,-0.6908962726593018,0,0,0,-1,-1,9080.303592166667,unknown,2,2025-04-20T22:18:26.887+03:00,2025-04-20T21:57:49.637+03:00,29,1.789309,0,0,23.86625,0,0,2025-04-20T22:09:07.141+03:00,766869517.3048571,0,0.9300003,99.72591,1,1,2025-04-20T22:18:36.793+03:00,89,1.483333333333333,2025-04-19T12:19:17.059+03:00,0.05691595998002078,0
2025-04-20T22:18:39.173+03:00,1745176718.978256,40.98549699835832,29.13736551542375,128.4456,-1,-1,-1,-1,30,32.4849757427833,-9999,9092.586986875001,-1.006240844726562,-2.8822021484375,-9.714431762695312,9092.583216875,1.268686842200686,0.6623060056085167,0.3807349041541212,-4.306392669677734,-2.940901279449463,-0.6796718239784241,-1.27849817276001,0.3667352497577667,-3.145425319671631,XArbitraryZVertical,-0.04508063526924547,0.3631994909542321,0.5998777410324317,0.7114776808987411,0.570902407169342,-0.371602863073349,-0.7321077585220337,0,0,0,-1,-1,9080.303592166667,unknown,2,2025-04-20T22:18:26.887+03:00,2025-04-20T21:57:49.637+03:00,29,1.789309,0,0,23.86625,0,0,2025-04-20T22:09:07.141+03:00,766869517.3048571,0,0.9300003,99.72591,1,1,2025-04-20T22:18:36.793+03:00,89,1.483333333333333,2025-04-19T12:19:17.059+03:00,0.05691595998002078,0
2025-04-20T22:18:39.184+03:00,1745176718.978256,40.98549699835832,29.13736551542375,128.4456,-1,-1,-1,-1,30,32.4849757427833,-9999,9092.597063875,-1.225372314453125,2.701889038085938,-5.8336181640625,9092.593292875001,1.276835101515833,0.6486267793170483,0.3810691341650584,2.487541437149048,0.8920392394065857,2.212572813034058,-1.567000389099121,-2.510288953781128,-8.974681854248047,XArbitraryZVertical,-0.04230527578565962,0.3582394707485433,0.6030998746168457,0.7114388730589801,0.5607596039772034,-0.3719131350517273,-0.7397494912147522,0,0,0,-1,-1,9080.303592166667,unknown,2,2025-04-20T22:18:26.887+03:00,2025-04-20T21:57:49.637+03:00,29,1.789309,0,0,23.86625,0,0,2025-04-20T22:09:07.141+03:00,766869517.3048571,0,0.9300003,99.72591,1,1,2025-04-20T22:18:36.793+03:00,89,1.483333333333333,2025-04-19T12:19:17.059+03:00,0.05691595998002078,0
2025-04-20T22:18:39.198+03:00,1745176718.978256,40.98549699835832,29.13736551542375,128.4456,-1,-1,-1,-1,30,32.4849757427833,-9999,9092.607139875001,-2.106430053710938,2.523391723632812,-2.43060302734375,9092.603369875,1.275822149573357,0.6576334555729946,0.4131413199292785,2.44571328163147,0.4317933022975922,1.371126174926758,-1.785190224647522,3.103377342224121,-5.108765602111816,XArbitraryZVertical,-0.03227687680004733,0.3695023949304458,0.6048391864354553,0.704695341245803,0.5598178505897522,-0.401488333940506,-0.7248523831367493,0,0,0,-1,-1,9080.303592166667,unknown,2,2025-04-20T22:18:26.887+03:00,2025-04-20T21:57:49.637+03:00,29,1.789309,0,0,23.86625,0,0,2025-04-20T22:09:07.141+03:00,766869517.3048571,0,0.9300003,99.72591,1,1,2025-04-20T22:18:36.793+03:00,89,1.483333333333333,2025-04-19T12:19:17.059+03:00,0.05691595998002078,0
