loggingTime(txt),locationTimestamp_since1970(s),locationLatitude(WGS84),locationLongitude(WGS84),locationAltitude(m),locationSpeed(m/s),locationSpeedAccuracy(m/s),locationCourse(°),locationCourseAccuracy(°),locationVerticalAccuracy(m),locationHorizontalAccuracy(m),locationFloor(Z),accelerometerTimestamp_sinceReboot(s),accelerometerAccelerationX(G),accelerometerAccelerationY(G),accelerometerAccelerationZ(G),motionTimestamp_sinceReboot(s),motionYaw(rad),motionRoll(rad),motionPitch(rad),motionRotationRateX(rad/s),motionRotationRateY(rad/s),motionRotationRateZ(rad/s),motionUserAccelerationX(G),motionUserAccelerationY(G),motionUserAccelerationZ(G),motionAttitudeReferenceFrame(txt),motionQuaternionX(R),motionQuaternionY(R),motionQuaternionZ(R),motionQuaternionW(R),motionGravityX(G),motionGravityY(G),motionGravityZ(G),motionMagneticFieldX(µT),motionMagneticFieldY(µT),motionMagneticFieldZ(µT),motionHeading(°),motionMagneticFieldCalibrationAccuracy(Z),activityTimestamp_sinceReboot(s),activity(txt),activityActivityConfidence(Z),activityActivityStartDate(txt),pedometerStartDate(txt),pedometerNumberofSteps(N),pedometerAverageActivePace(s/m),pedometerCurrentPace(s/m),pedometerCurrentCadence(steps/s),pedometerDistance(m),pedometerFloorAscended(N),pedometerFloorDescended(N),pedometerEndDate(txt),altimeterTimestamp_sinceReboot(s),altimeterReset(bool),altimeterRelativeAltitude(m),altimeterPressure(kPa),batteryState(N),batteryLevel(R),heartRateBPMTimestamp(txt),heartRateBPM(N),heartRateBPS(R),heartRateVariabilityTimestamp(txt),heartRateVariability(ms),label
2025-04-20T22:29:16.993+03:00,1745177355.696831,40.98571032071658,29.13751301048976,128.3675,-1,-1,-1,-1,30.05240832,23.80645510177979,-9999,9339.693226541667,0.2942657470703125,-0.656005859375,-0.6967315673828125,9339.683150541667,2.17228980807077,0.3422417531148576,0.7595760003720229,-0.06387094408273697,-0.02228964492678642,-0.06410121917724609,-0.03211012482643127,-0.007354617118835449,-0.007523417472839355,XArbitraryZVertical,0.03025787355332784,0.3969224619131636,0.8391961620273155,0.370522397017774,0.2433527410030365,-0.6886140704154968,-0.6830740571022034,0,0,0,-1,-1,9334.544369125,unknown,2,2025-04-20T22:29:11.819+03:00,2025-04-20T21:57:49.637+03:00,29,3.385239,0,0,23.86625,0,0,2025-04-20T22:29:14.398+03:00,766870151.9255434,0,0.6399994,99.73888,1,0.95,2025-04-20T22:21:30.043+03:00,95,1.583333333333333,2025-04-19T12:19:17.059+03:00,0.05691595998002078,0
2025-04-20T22:29:16.994+03:00,1745177355.696831,40.98571032071658,29.13751301048976,128.3675,-1,-1,-1,-1,30.05240832,23.80645510177979,-9999,9339.703302541668,0.2599945068359375,-0.6458892822265625,-0.7122344970703125,9339.693226541667,2.171479753394222,0.3426445406091302,0.7585706854171096,-0.06536684185266495,-0.02373281121253967,-0.06776013225317001,-0.001749172806739807,0.005954146385192871,-0.0003932714462280273,XArbitraryZVertical,0.03000705751021194,0.3965926867962768,0.8391773398117569,0.3709382580056353,0.2438603192567825,-0.6878847479820251,-0.6836276054382324,0,0,0,-1,-1,9334.544369125,unknown,2,2025-04-20T22:29:11.819+03:00,2025-04-20T21:57:49.637+03:00,29,3.385239,0,0,23.86625,0,0,2025-04-20T22:29:14.398+03:00,766870151.9255434,0,0.6399994,99.73888,1,0.95,2025-04-20T22:21:30.043+03:00,95,1.583333333333333,2025-04-19T12:19:17.059+03:00,0.05691595998002078,0
2025-04-20T22:29:16.995+03:00,1745177355.696831,40.98571032071658,29.13751301048976,128.3675,-1,-1,-1,-1,30.05240832,23.80645510177979,-9999,9339.713379541667,0.2290496826171875,-0.631134033203125,-0.711456298828125,9339.703302541668,2.171093538424579,0.3429551866614957,0.757671277544128,-0.07084956765174866,0.02672896347939968,-0.03804447874426842,0.04998505115509033,0.03122574090957642,-0.01259720325469971,XArbitraryZVertical,0.02973619957438141,0.3962936128845114,0.8392221709007389,0.3711783083777918,0.2442806363105774,-0.6872316598892212,-0.6841342449188232,0,0,0,-1,-1,9334.544369125,unknown,2,2025-04-20T22:29:11.819+03:00,2025-04-20T21:57:49.637+03:00,29,3.385239,0,0,23.86625,0,0,2025-04-20T22:29:14.398+03:00,766870151.9255434,0,0.6399994,99.73888,1,0.95,2025-04-20T22:21:30.043+03:00,95,1.583333333333333,2025-04-19T12:19:17.059+03:00,0.05691595998002078,0
2025-04-20T22:29:17.004+03:00,1745177355.696831,40.98571032071658,29.13751301048976,128.3675,-1,-1,-1,-1,30.05240832,23.80645510177979,-9999,9339.723455541667,0.2420806884765625,-0.638641357421875,-0.7090911865234375,9339.713379541667,2.170932936050929,0.3434304875950829,0.7568395010497954,-0.07005994021892548,0.04048179462552071,-0.0351397693157196,0.01519632339477539,0.04073786735534668,-0.02767848968505859,XArbitraryZVertical,0.02936768561840728,0.3960549755737678,0.8393025153411776,0.3712803692013589,0.2447981238365173,-0.6866271495819092,-0.6845560073852539,0,0,0,-1,-1,9334.544369125,unknown,2,2025-04-20T22:29:11.819+03:00,2025-04-20T21:57:49.637+03:00,29,3.385239,0,0,23.86625,0,0,2025-04-20T22:29:14.398+03:00,766870151.9255434,0,0.6399994,99.73888,1,0.95,2025-04-20T22:21:30.043+03:00,95,1.583333333333333,2025-04-19T12:19:17.059+03:00,0.05691595998002078,0
2025-04-20T22:29:17.013+03:00,1745177355.696831,40.98571032071658,29.13751301048976,128.3675,-1,-1,-1,-1,30.05240832,23.80645510177979,-9999,9339.733531541668,0.252288818359375,-0.64044189453125,-0.7263031005859375,9339.723455541667,2.170892939783739,0.3438056751080686,0.7558323416277569,-0.1018117442727089,0.03090027347207069,-0.03604098409414291,-0.01623830199241638,0.05476057529449463,-0.02634137868881226,XArbitraryZVertical,0.02897491294413373,0.395731026649909,0.8394252692975389,0.3713791088731938,0.2452879250049591,-0.6858946084976196,-0.6851148009300232,0,0,0,-1,-1,9334.544369125,unknown,2,2025-04-20T22:29:11.819+03:00,2025-04-20T21:57:49.637+03:00,29,3.385239,0,0,23.86625,0,0,2025-04-20T22:29:14.398+03:00,766870151.9255434,0,0.6399994,99.73888,1,0.95,2025-04-20T22:21:30.043+03:00,95,1.583333333333333,2025-04-19T12:19:17.059+03:00,0.05691595998002078,0
2025-04-20T22:29:17.023+03:00,1745177355.696831,40.98571032071658,29.13751301048976,128.3675,-1,-1,-1,-1,30.05240832,23.80645510177979,-9999,9339.743607541668,0.24267578125,-0.632904052734375,-0.750518798828125,9339.733531541668,2.170919769075544,0.3441888072029254,0.7545137972184363,-0.1268651634454727,0.05980515852570534,-0.0484292097389698,-0.003774747252464294,0.04629313945770264,-0.02321958541870117,XArbitraryZVertical,0.02849033557749094,0.395287886382668,0.839598674435676,0.3714966626190589,0.2458553612232208,-0.6849344968795776,-0.6858716011047363,0,0,0,-1,-1,9334.544369125,unknown,2,2025-04-20T22:29:11.819+03:00,2025-04-20T21:57:49.637+03:00,29,3.385239,0,0,23.86625,0,0,2025-04-20T22:29:14.398+03:00,766870151.9255434,0,0.6399994,99.73888,1,0.95,2025-04-20T22:21:30.043+03:00,95,1.583333333333333,2025-04-19T12:19:17.059+03:00,0.05691595998002078,0
2025-04-20T22:29:17.035+03:00,1745177355.696831,40.98571032071658,29.13751301048976,128.3675,-1,-1,-1,-1,30.05240832,23.80645510177979,-9999,9339.753683541667,0.2328033447265625,-0.64251708984375,-0.7685089111328125,9339.743607541668,2.170979787648397,0.3450021139111,0.7528236974320638,-0.1776513755321503,0.1193933933973312,-0.04367600008845329,0.005484521389007568,0.04326021671295166,-0.0395432710647583,XArbitraryZVertical,0.02772873332541327,0.394779950476037,0.8398293969971706,0.3715729107450075,0.246804267168045,-0.6837021112442017,-0.6867598295211792,0,0,0,-1,-1,9334.544369125,unknown,2,2025-04-20T22:29:11.819+03:00,2025-04-20T21:57:49.637+03:00,29,3.385239,0,0,23.86625,0,0,2025-04-20T22:29:14.398+03:00,766870151.9255434,0,0.6399994,99.73888,1,0.95,2025-04-20T22:21:30.043+03:00,95,1.583333333333333,2025-04-19T12:19:17.059+03:00,0.05691595998002078,0
2025-04-20T22:29:17.043+03:00,1745177355.696831,40.98571032071658,29.13751301048976,128.3675,-1,-1,-1,-1,30.05240832,23.80645510177979,-9999,9339.763759541667,0.233642578125,-0.6463623046875,-0.7943878173828125,9339.753683541667,2.171254864114291,0.3464870490405446,0.7508383168770577,-0.1972842067480087,0.2194882929325104,-0.05626529455184937,-0.005608543753623962,0.04934787750244141,-0.06285077333450317,XArbitraryZVertical,0.02657108949021248,0.394284168212496,0.8401441268741898,0.3714723681258119,0.248284250497818,-0.6822519302368164,-0.6876679658889771,0,0,0,-1,-1,9334.544369125,unknown,2,2025-04-20T22:29:11.819+03:00,2025-04-20T21:57:49.637+03:00,29,3.385239,0,0,23.86625,0,0,2025-04-20T22:29:14.398+03:00,766870151.9255434,0,0.6399994,99.73888,1,0.95,2025-04-20T22:21:30.043+03:00,95,1.583333333333333,2025-04-19T12:19:17.059+03:00,0.05691595998002078,0
2025-04-20T22:29:17.053+03:00,1745177355.696831,40.98571032071658,29.13751301048976,128.3675,-1,-1,-1,-1,30.05240832,23.80645510177979,-9999,9339.773835541668,0.2348480224609375,-0.6407318115234375,-0.8001861572265625,9339.763759541667,2.171219337078498,0.3491416670702314,0.7487377990738381,-0.1985907554626465,0.3213512599468231,-0.1158359497785568,-0.01779526472091675,0.03819757699966431,-0.08015733957290649,XArbitraryZVertical,0.02495499856677318,0.3939561936962114,0.8404279274471494,0.3712904276099914,0.2505985796451569,-0.6807146668434143,-0.6883515119552612,0,0,0,-1,-1,9334.544369125,unknown,2,2025-04-20T22:29:11.819+03:00,2025-04-20T21:57:49.637+03:00,29,3.385239,0,0,23.86625,0,0,2025-04-20T22:29:14.398+03:00,766870151.9255434,0,0.6399994,99.73888,1,0.95,2025-04-20T22:21:30.043+03:00,95,1.583333333333333,2025-04-19T12:19:17.059+03:00,0.05691595998002078,0
2025-04-20T22:29:17.063+03:00,1745177355.696831,40.98571032071658,29.13751301048976,128.3675,-1,-1,-1,-1,30.05240832,23.80645510177979,-9999,9339.783911541666,0.2497711181640625,-0.65618896484375,-0.8260650634765625,9339.773835541668,2.17013345573221,0.3535098102684685,0.7463118813720161,-0.1911821067333221,0.397760808467865,-0.2110388875007629,-0.02053141593933105,0.03257322311401367,-0.1055902242660522,XArbitraryZVertical,0.02274589417809611,0.3938068656870383,0.840572046803348,0.3712645564844321,0.2541739344596863,-0.6789355874061584,-0.6887975335121155,0,0,0,-1,-1,9334.544369125,unknown,2,2025-04-20T22:29:11.819+03:00,2025-04-20T21:57:49.637+03:00,29,3.385239,0,0,23.86625,0,0,2025-04-20T22:29:14.398+03:00,766870151.9255434,0,0.6399994,99.73888,1,0.95,2025-04-20T22:21:30.043+03:00,95,1.583333333333333,2025-04-19T12:19:17.059+03:00,0.05691595998002078,0
2025-04-20T22:29:17.074+03:00,1745177355.696831,40.98571032071658,29.13751301048976,128.3675,-1,-1,-1,-1,30.05240832,23.80645510177979,-9999,9339.793987541667,0.2682647705078125,-0.672393798828125,-0.8724365234375,9339.783911541666,2.167712856087826,0.3595980834488639,0.7437144878423158,-0.1497558355331421,0.4640189409255981,-0.2900500893592834,-0.02413451671600342,0.03629446029663086,-0.1113004088401794,XArbitraryZVertical,0.02003338278632487,0.3938982208437029,0.840498694175432,0.3714900707669,0.2589824795722961,-0.6770262718200684,-0.6888856887817383,0,0,0,-1,-1,9334.544369125,unknown,2,2025-04-20T22:29:11.819+03:00,2025-04-20T21:57:49.637+03:00,29,3.385239,0,0,23.86625,0,0,2025-04-20T22:29:14.398+03:00,766870151.9255434,0,0.6399994,99.73888,1,0.95,2025-04-20T22:21:30.043+03:00,95,1.583333333333333,2025-04-19T12:19:17.059+03:00,0.05691595998002078,0
2025-04-20T22:29:17.084+03:00,1745177355.696831,40.98571032071658,29.13751301048976,128.3675,-1,-1,-1,-1,30.05240832,23.80645510177979,-9999,9339.804063541667,0.2462158203125,-0.6722564697265625,-0.918609619140625,9339.793987541667,2.162404417622595,0.3679819151273913,0.741713445770424,0.109253890812397,0.4926330149173737,-0.6323610544204712,-0.01546454429626465,0.01936328411102295,-0.1381120681762695,XArbitraryZVertical,0.0170697854244249,0.3946291594299123,0.8398254571633701,0.3723836663882283,0.2652356326580048,-0.6755522489547729,-0.6879528760910034,0,0,0,-1,-1,9334.544369125,unknown,2,2025-04-20T22:29:11.819+03:00,2025-04-20T21:57:49.637+03:00,29,3.385239,0,0,23.86625,0,0,2025-04-20T22:29:14.398+03:00,766870151.9255434,0,0.6399994,99.73888,1,0.95,2025-04-20T22:21:30.043+03:00,95,1.583333333333333,2025-04-19T12:19:17.059+03:00,0.05691595998002078,0
2025-04-20T22:29:17.094+03:00,1745177355.696831,40.98571032071658,29.13751301048976,128.3675,-1,-1,-1,-1,30.05240832,23.80645510177979,-9999,9339.814139541668,0.220001220703125,-0.6849517822265625,-0.9466705322265625,9339.804063541667,2.151677288839904,0.3814031273075065,0.7411288394596864,0.3567444980144501,0.7089172005653381,-0.833460807800293,-0.006326854228973389,0.002727270126342773,-0.1877387762069702,XArbitraryZVertical,0.0134187592881967,0.3968262889167891,0.8379929113850153,0.3743214906064667,0.2745915651321411,-0.6751210689544678,-0.684697687625885,0,0,0,-1,-1,9334.544369125,unknown,2,2025-04-20T22:29:11.819+03:00,2025-04-20T21:57:49.637+03:00,29,3.385239,0,0,23.86625,0,0,2025-04-20T22:29:16.978+03:00,766870157.0812269,0,0.7299995,99.72822,1,0.95,2025-04-20T22:21:30.043+03:00,95,1.583333333333333,2025-04-19T12:19:17.059+03:00,0.05691595998002078,0
2025-04-20T22:29:17.108+03:00,1745177355.696831,40.98571032071658,29.13751301048976,128.3675,-1,-1,-1,-1,30.05240832,23.80645510177979,-9999,9339.824216541667,0.3039093017578125,-0.770294189453125,-0.891448974609375,9339.814139541668,2.137036810240737,0.3991435320314398,0.741405540930248,0.5119400024414062,0.8833843469619751,-1.134250283241272,-0.04040613770484924,0.003068685531616211,-0.2390629053115845,XArbitraryZVertical,0.008983570947055711,0.4001824292655598,0.8353115284544405,0.3768657122759412,0.2866218984127045,-0.6753252148628235,-0.6795466542243958,0,0,0,-1,-1,9334.544369125,unknown,2,2025-04-20T22:29:11.819+03:00,2025-04-20T21:57:49.637+03:00,29,3.385239,0,0,23.86625,0,0,2025-04-20T22:29:16.978+03:00,766870157.0812269,0,0.7299995,99.72822,1,0.95,2025-04-20T22:21:30.043+03:00,95,1.583333333333333,2025-04-19T12:19:17.059+03:00,0.05691595998002078,0
2025-04-20T22:29:17.114+03:00,1745177355.696831,40.98571032071658,29.13751301048976,128.3675,-1,-1,-1,-1,30.05240832,23.80645510177979,-9999,9339.834292541667,0.4267578125,-0.8568878173828125,-0.842987060546875,9339.824216541667,2.117658519802979,0.4220172325754111,0.7420613599854061,0.7287620902061462,1.044575452804565,-1.384347796440125,-0.08190670609474182,-0.009143054485321045,-0.2742612361907959,XArbitraryZVertical,0.003516881908189877,0.4047011551028339,0.8316436520365453,0.3802280454419431,0.301907867193222,-0.6758087277412415,-0.6724092364311218,0,0,0,-1,-1,9334.544369125,unknown,2,2025-04-20T22:29:11.819+03:00,2025-04-20T21:57:49.637+03:00,29,3.385239,0,0,23.86625,0,0,2025-04-20T22:29:16.978+03:00,766870157.0812269,0,0.7299995,99.72822,1,0.95,2025-04-20T22:21:30.043+03:00,95,1.583333333333333,2025-04-19T12:19:17.059+03:00,0.05691595998002078,0
2025-04-20T22:29:17.124+03:00,1745177355.696831,40.98571032071658,29.13751301048976,128.3675,-1,-1,-1,-1,30.05240832,23.80645510177979,-9999,9339.844368541668,0.5896453857421875,-0.8555755615234375,-0.8059234619140625,9339.834292541667,2.095870337568807,0.4470841135629104,0.7428296887083197,0.7384989261627197,0.9832596778869629,-1.447153687477112,-0.0145326554775238,-0.09391939640045166,-0.2272863388061523,XArbitraryZVertical,-0.002244610570551111,0.4097727341407847,0.8274084273251224,0.3840268841685506,0.3184418976306915,-0.6763748526573181,-0.6641625165939331,0,0,0,-1,-1,9334.544369125,unknown,2,2025-04-20T22:29:11.819+03:00,2025-04-20T21:57:49.637+03:00,29,3.385239,0,0,23.86625,0,0,2025-04-20T22:29:16.978+03:00,766870157.0812269,0,0.7299995,99.72822,1,0.95,2025-04-20T22:21:30.043+03:00,95,1.583333333333333,2025-04-19T12:19:17.059+03:00,0.05691595998002078,0
2025-04-20T22:29:17.134+03:00,1745177355.696831,40.98571032071658,29.13751301048976,128.3675,-1,-1,-1,-1,30.05240832,23.80645510177979,-9999,9339.854444541666,0.7088470458984375,-0.9100799560546875,-0.762969970703125,9339.844368541668,2.072920834407469,0.471833143446404,0.7419318346177612,0.5574319958686829,0.8574607968330383,-1.653361320495605,0.09170180559158325,-0.1811745166778564,-0.1863675713539124,XArbitraryZVertical,-0.00796601029624916,0.4142787234272953,0.8230012195260943,0.3885594750470723,0.3350559175014496,-0.6757132411003113,-0.6566193699836731,0,0,0,-1,-1,9334.544369125,unknown,2,2025-04-20T22:29:11.819+03:00,2025-04-20T21:57:49.637+03:00,29,3.385239,0,0,23.86625,0,0,2025-04-20T22:29:16.978+03:00,766870157.0812269,0,0.7299995,99.72822,1,0.95,2025-04-20T22:21:30.043+03:00,95,1.583333333333333,2025-04-19T12:19:17.059+03:00,0.05691595998002078,0
2025-04-20T22:29:17.144+03:00,1745177355.696831,40.98571032071658,29.13751301048976,128.3675,-1,-1,-1,-1,30.05240832,23.80645510177979,-9999,9339.864520541667,0.7666778564453125,-0.913116455078125,-0.7769927978515625,9339.854444541666,2.049007146448121,0.4951186991899839,0.7382204121940817,0.4220972955226898,0.5190718173980713,-1.771408081054688,0.238202691078186,-0.1826028823852539,-0.155081033706665,XArbitraryZVertical,-0.01355083309702467,0.4176065019820078,0.8185417694764209,0.3942213408672577,0.3514426350593567,-0.6729726791381836,-0.6508423686027527,0,0,0,-1,-1,9334.544369125,unknown,2,2025-04-20T22:29:11.819+03:00,2025-04-20T21:57:49.637+03:00,29,3.385239,0,0,23.86625,0,0,2025-04-20T22:29:16.978+03:00,766870157.0812269,0,0.7299995,99.72822,1,0.95,2025-04-20T22:21:30.043+03:00,95,1.583333333333333,2025-04-19T12:19:17.059+03:00,0.05691595998002078,0
2025-04-20T22:29:17.155+03:00,1745177355.696831,40.98571032071658,29.13751301048976,128.3675,-1,-1,-1,-1,30.05240832,23.80645510177979,-9999,9339.874596541667,0.7993927001953125,-0.8428497314453125,-0.8121337890625,9339.864520541667,2.024277949199768,0.5160290234045974,0.733214999272197,0.4772570133209229,0.3104369342327118,-1.911060571670532,0.3422152400016785,-0.2408180832862854,-0.1166962385177612,XArbitraryZVertical,-0.01828368068250691,0.4201533664615168,0.813894909883369,0.4008890041439013,0.3666317164897919,-0.6692619323730469,-0.6462737321853638,0,0,0,-1,-1,9334.544369125,unknown,2,2025-04-20T22:29:11.819+03:00,2025-04-20T21:57:49.637+03:00,29,3.385239,0,0,23.86625,0,0,2025-04-20T22:29:16.978+03:00,766870157.0812269,0,0.7299995,99.72822,1,0.95,2025-04-20T22:21:30.043+03:00,95,1.583333333333333,2025-04-19T12:19:17.059+03:00,0.05691595998002078,0
2025-04-20T22:29:17.164+03:00,1745177355.696831,40.98571032071658,29.13751301048976,128.3675,-1,-1,-1,-1,30.05240832,23.80645510177979,-9999,9339.884672541668,0.7280731201171875,-0.806915283203125,-0.8177490234375,9339.874596541667,1.99812956798046,0.5359420294166093,0.727307376039091,0.455955445766449,0.2064271569252014,-2.009467840194702,0.3852380514144897,-0.2482556700706482,-0.134759247303009,XArbitraryZVertical,-0.02251357452706837,0.4223463377490727,0.808876760685604,0.4084542329743944,0.3814397156238556,-0.664860725402832,-0.6422334313392639,0,0,0,-1,-1,9334.544369125,unknown,2,2025-04-20T22:29:11.819+03:00,2025-04-20T21:57:49.637+03:00,29,3.385239,0,0,23.86625,0,0,2025-04-20T22:29:16.978+03:00,766870157.0812269,0,0.7299995,99.72822,1,0.95,2025-04-20T22:21:30.043+03:00,95,1.583333333333333,2025-04-19T12:19:17.059+03:00,0.05691595998002078,0
2025-04-20T22:29:17.175+03:00,1745177355.696831,40.98571032071658,29.13751301048976,128.3675,-1,-1,-1,-1,30.05240832,23.80645510177979,-9999,9339.894748541667,0.62420654296875,-0.777618408203125,-0.7446136474609375,9339.884672541668,1.971576134515251,0.5557080655518012,0.7204788733146543,0.434360682964325,0.2272631973028183,-2.07350492477417,0.4029479920864105,-0.1831051707267761,-0.1737227439880371,XArbitraryZVertical,-0.02681531808600941,0.4243529899521913,0.8036620456383976,0.4163323334373079,0.3964446485042572,-0.6597446203231812,-0.6384109854698181,0,0,0,-1,-1,9334.544369125,unknown,2,2025-04-20T22:29:11.819+03:00,2025-04-20T21:57:49.637+03:00,29,3.385239,0,0,23.86625,0,0,2025-04-20T22:29:16.978+03:00,766870157.0812269,0,0.7299995,99.72822,1,0.95,2025-04-20T22:21:30.043+03:00,95,1.583333333333333,2025-04-19T12:19:17.059+03:00,0.05691595998002078,0
2025-04-20T22:29:17.185+03:00,1745177355.696831,40.98571032071658,29.13751301048976,128.3675,-1,-1,-1,-1,30.05240832,23.80645510177979,-9999,9339.904824541667,0.5599517822265625,-0.75616455078125,-0.6360015869140625,9339.894748541667,1.944888827165168,0.5755125346198871,0.7124960548083628,0.3418299555778503,0.2187583893537521,-2.15545654296875,0.3162101805210114,-0.1531906127929688,-0.1829158663749695,XArbitraryZVertical,-0.03139899099103444,0.4261426896399538,0.7982979772141584,0.4244251509304228,0.411862850189209,-0.6537246704101562,-0.634833037853241,0,0,0,-1,-1,9334.544369125,unknown,2,2025-04-20T22:29:11.819+03:00,2025-04-20T21:57:49.637+03:00,29,3.385239,0,0,23.86625,0,0,2025-04-20T22:29:16.978+03:00,766870157.0812269,0,0.7299995,99.72822,1,0.95,2025-04-20T22:21:30.043+03:00,95,1.583333333333333,2025-04-19T12:19:17.059+03:00,0.05691595998002078,0
2025-04-20T22:29:17.195+03:00,1745177355.696831,40.98571032071658,29.13751301048976,128.3675,-1,-1,-1,-1,30.05240832,23.80645510177979,-9999,9339.914901541668,0.5127410888671875,-0.7722320556640625,-0.486572265625,9339.904824541667,1.918228289336341,0.5948088556189594,0.7018868843353119,0.1155082583427429,0.1661041080951691,-2.379962921142578,0.1963087320327759,-0.1319587230682373,-0.1121367216110229,XArbitraryZVertical,-0.03653414804794498,0.4271144995331422,0.7928849089670925,0.4330958232682826,0.4278977513313293,-0.6456596851348877,-0.6324769258499146,0,0,0,-1,-1,9334.544369125,unknown,2,2025-04-20T22:29:11.819+03:00,2025-04-20T21:57:49.637+03:00,29,3.385239,0,0,23.86625,0,0,2025-04-20T22:29:16.978+03:00,766870157.0812269,0,0.7299995,99.72822,1,0.95,2025-04-20T22:21:30.043+03:00,95,1.583333333333333,2025-04-19T12:19:17.059+03:00,0.05691595998002078,0
2025-04-20T22:29:17.206+03:00,1745177355.696831,40.98571032071658,29.13751301048976,128.3675,-1,-1,-1,-1,30.05240832,23.80645510177979,-9999,9339.924977541667,0.48779296875,-0.7381744384765625,-0.3133087158203125,9339.914901541668,1.891644459376346,0.6135078549374048,0.6881905178879815,-0.04050903022289276,0.1609271913766861,-2.464868783950806,0.115252822637558,-0.1210240125656128,-0.004464268684387207,XArbitraryZVertical,-0.04237355395096613,0.427125119987763,0.787401044053792,0.4424569373004842,0.4446988999843597,-0.635140597820282,-0.6315371990203857,0,0,0,-1,-1,9334.544369125,unknown,2,2025-04-20T22:29:11.819+03:00,2025-04-20T21:57:49.637+03:00,29,3.385239,0,0,23.86625,0,0,2025-04-20T22:29:16.978+03:00,766870157.0812269,0,0.7299995,99.72822,1,0.95,2025-04-20T22:21:30.043+03:00,95,1.583333333333333,2025-04-19T12:19:17.059+03:00,0.05691595998002078,0
2025-04-20T22:29:17.215+03:00,1745177355.696831,40.98571032071658,29.13751301048976,128.3675,-1,-1,-1,-1,30.05240832,23.80645510177979,-9999,9339.935053541667,0.49700927734375,-0.57928466796875,-0.1884002685546875,9339.924977541667,1.865521792505864,0.6312675344373586,0.6736603833721728,0.09316421300172806,0.09693209081888199,-2.508636713027954,0.05149877071380615,-0.1483811736106873,0.1443521976470947,XArbitraryZVertical,-0.04821205428304613,0.4268646212135696,0.7817837515556124,0.4519693496776144,0.4612422585487366,-0.6238508820533752,-0.63092440366745,0,0,0,-1,-1,9334.544369125,unknown,2,2025-04-20T22:29:11.819+03:00,2025-04-20T21:57:49.637+03:00,29,3.385239,0,0,23.86625,0,0,2025-04-20T22:29:16.978+03:00,766870157.0812269,0,0.7299995,99.72822,1,0.95,2025-04-20T22:21:30.043+03:00,95,1.583333333333333,2025-04-19T12:19:17.059+03:00,0.05691595998002078,0
2025-04-20T22:29:17.228+03:00,1745177355.696831,40.98571032071658,29.13751301048976,128.3675,-1,-1,-1,-1,30.05240832,23.80645510177979,-9999,9339.945129541667,0.5052490234375,-0.4731597900390625,-0.12274169921875,9339.935053541667,1.837346534309613,0.6493261549899867,0.660533647522064,0.4447174370288849,0.02022719010710716,-2.548629999160767,0.01032218337059021,-0.1246361136436462,0.31565260887146,XArbitraryZVertical,-0.05330473179984634,0.4274084206581892,0.7753447261321176,0.4618669488841339,0.477470725774765,-0.6135383248329163,-0.6289613246917725,0,0,0,-1,-1,9334.544369125,unknown,2,2025-04-20T22:29:11.819+03:00,2025-04-20T21:57:49.637+03:00,29,3.385239,0,0,23.86625,0,0,2025-04-20T22:29:16.978+03:00,766870157.0812269,0,0.7299995,99.72822,1,0.95,2025-04-20T22:21:30.043+03:00,95,1.583333333333333,2025-04-19T12:19:17.059+03:00,0.05691595998002078,0
2025-04-20T22:29:17.243+03:00,1745177355.696831,40.98571032071658,29.13751301048976,128.3675,-1,-1,-1,-1,30.05240832,23.80645510177979,-9999,9339.955205541668,0.5438385009765625,-0.500762939453125,-0.0814208984375,9339.945129541667,1.807625943664001,0.6668303719720483,0.6497671025470405,0.7257362604141235,-0.144035592675209,-2.457746744155884,0.004545509815216064,0.02571630477905273,0.4372619986534119,XArbitraryZVertical,-0.05709569064101062,0.428846089950368,0.768209578221547,0.4718951966848829,0.4924637377262115,-0.6050009727478027,-0.6256622076034546,0,0,0,-1,-1,9334.544369125,unknown,2,2025-04-20T22:29:11.819+03:00,2025-04-20T21:57:49.637+03:00,29,3.385239,0,0,23.86625,0,0,2025-04-20T22:29:16.978+03:00,766870157.0812269,0,0.7299995,99.72822,1,0.95,2025-04-20T22:21:30.043+03:00,95,1.583333333333333,2025-04-19T12:19:17.059+03:00,0.05691595998002078,0
2025-04-20T22:29:17.245+03:00,1745177355.696831,40.98571032071658,29.13751301048976,128.3675,-1,-1,-1,-1,30.05240832,23.80645510177979,-9999,9339.965281541667,0.5413055419921875,-0.53369140625,-0.082061767578125,9339.955205541668,1.777420952676513,0.6826514865272708,0.641214087107976,0.938499927520752,-0.3249915242195129,-2.334681749343872,-0.0002973675727844238,0.1250090003013611,0.4990435838699341,XArbitraryZVertical,-0.05939278350003264,0.430789846625632,0.7607075741225526,0.4818883699856505,0.5055463314056396,-0.5981687903404236,-0.6217852234840393,0,0,0,-1,-1,9334.544369125,unknown,2,2025-04-20T22:29:11.819+03:00,2025-04-20T21:57:49.637+03:00,29,3.385239,0,0,23.86625,0,0,2025-04-20T22:29:16.978+03:00,766870157.0812269,0,0.7299995,99.72822,1,0.95,2025-04-20T22:21:30.043+03:00,95,1.583333333333333,2025-04-19T12:19:17.059+03:00,0.05691595998002078,0
2025-04-20T22:29:17.256+03:00,1745177355.696831,40.98571032071658,29.13751301048976,128.3675,-1,-1,-1,-1,30.05240832,23.80645510177979,-9999,9339.975357541667,0.4818267822265625,-0.4897308349609375,-0.131622314453125,9339.965281541667,1.746808461275624,0.6968538168742898,0.6349785944739397,1.207651734352112,-0.46246337890625,-2.221129655838013,0.02712875604629517,0.09239733219146729,0.5359703898429871,XArbitraryZVertical,-0.06018270665759136,0.4332233086225963,0.7529044282805063,0.4917626428186334,0.5167097449302673,-0.5931602716445923,-0.6173912286758423,0,0,0,-1,-1,9334.544369125,unknown,2,2025-04-20T22:29:11.819+03:00,2025-04-20T21:57:49.637+03:00,29,3.385239,0,0,23.86625,0,0,2025-04-20T22:29:16.978+03:00,766870157.0812269,0,0.7299995,99.72822,1,0.95,2025-04-20T22:21:30.043+03:00,95,1.583333333333333,2025-04-19T12:19:17.059+03:00,0.05691595998002078,0
2025-04-20T22:29:17.265+03:00,1745177355.696831,40.98571032071658,29.13751301048976,128.3675,-1,-1,-1,-1,30.05240832,23.80645510177979,-9999,9339.985433541668,0.4172210693359375,-0.482421875,-0.200958251953125,9339.975357541667,1.715592014464035,0.7101059093304868,0.6310498856364359,1.401868104934692,-0.5847330689430237,-2.077649116516113,0.01494449377059937,0.05630135536193848,0.5301904082298279,XArbitraryZVertical,-0.05965557031508867,0.4362512478254709,0.7447763497005048,0.5014322546371643,0.5263609886169434,-0.5899927616119385,-0.6122521162033081,0,0,0,-1,-1,9334.544369125,unknown,2,2025-04-20T22:29:11.819+03:00,2025-04-20T21:57:49.637+03:00,29,3.385239,0,0,23.86625,0,0,2025-04-20T22:29:16.978+03:00,766870157.0812269,0,0.7299995,99.72822,1,0.95,2025-04-20T22:21:30.043+03:00,95,1.583333333333333,2025-04-19T12:19:17.059+03:00,0.05691595998002078,0
2025-04-20T22:29:17.275+03:00,1745177355.696831,40.98571032071658,29.13751301048976,128.3675,-1,-1,-1,-1,30.05240832,23.80645510177979,-9999,9339.995509541668,0.3892974853515625,-0.5396728515625,-0.23699951171875,9339.985433541668,1.685222319681706,0.7216629559067241,0.6285943369729748,1.402963280677795,-0.6710314154624939,-1.929620623588562,-0.05253022909164429,0.0982775092124939,0.4755915999412537,XArbitraryZVertical,-0.05811001631959292,0.4393361949326153,0.7367491434974909,0.510693100142251,0.534356951713562,-0.5880083441734314,-0.6072138547897339,0,0,0,-1,-1,9334.544369125,unknown,2,2025-04-20T22:29:11.819+03:00,2025-04-20T21:57:49.637+03:00,29,3.385239,0,0,23.86625,0,0,2025-04-20T22:29:16.978+03:00,766870157.0812269,0,0.7299995,99.72822,1,0.95,2025-04-20T22:21:30.043+03:00,95,1.583333333333333,2025-04-19T12:19:17.059+03:00,0.05691595998002078,0
2025-04-20T22:29:17.285+03:00,1745177355.696831,40.98571032071658,29.13751301048976,128.3675,-1,-1,-1,-1,30.05240832,23.80645510177979,-9999,9340.005586541667,0.3821563720703125,-0.593658447265625,-0.2687835693359375,9339.995509541668,1.656655223095627,0.7312824708647612,0.6262901959707184,1.306396484375,-0.7464824914932251,-1.801885843276978,-0.1238556504249573,0.1037212610244751,0.402094304561615,XArbitraryZVertical,-0.05612212033603953,0.4419548332061345,0.729101738981611,0.5195543888339721,0.5410766005516052,-0.5861430764198303,-0.6030524373054504,0,0,0,-1,-1,9334.544369125,unknown,2,2025-04-20T22:29:11.819+03:00,2025-04-20T21:57:49.637+03:00,29,3.385239,0,0,23.86625,0,0,2025-04-20T22:29:16.978+03:00,766870157.0812269,0,0.7299995,99.72822,1,0.95,2025-04-20T22:21:30.043+03:00,95,1.583333333333333,2025-04-19T12:19:17.059+03:00,0.05691595998002078,0
2025-04-20T22:29:17.295+03:00,1745177355.696831,40.98571032071658,29.13751301048976,128.3675,-1,-1,-1,-1,30.05240832,23.80645510177979,-9999,9340.015662541668,0.386077880859375,-0.6029052734375,-0.3158721923828125,9340.005586541667,1.630129397181837,0.7390635677828631,0.624204544254249,1.246294498443604,-0.7770370244979858,-1.637279272079468,-0.1572774648666382,0.04477912187576294,0.3627268671989441,XArbitraryZVertical,-0.05378380147555462,0.4441217640970254,0.7219178915586901,0.5279181731410006,0.5465748906135559,-0.5844519734382629,-0.5997263193130493,0,0,0,-1,-1,9334.544369125,unknown,2,2025-04-20T22:29:11.819+03:00,2025-04-20T21:57:49.637+03:00,29,3.385239,0,0,23.86625,0,0,2025-04-20T22:29:16.978+03:00,766870157.0812269,0,0.7299995,99.72822,1,0.95,2025-04-20T22:21:30.043+03:00,95,1.583333333333333,2025-04-19T12:19:17.059+03:00,0.05691595998002078,0
2025-04-20T22:29:17.305+03:00,1745177355.696831,40.98571032071658,29.13751301048976,128.3675,-1,-1,-1,-1,30.05240832,23.80645510177979,-9999,9340.025738541668,0.383270263671875,-0.6083984375,-0.356597900390625,9340.015662541668,1.605887913871245,0.7454752488463313,0.6226121092792686,1.158136606216431,-0.758108913898468,-1.466471314430237,-0.1688831448554993,-0.01049935817718506,0.3281091451644897,XArbitraryZVertical,-0.05124454549521765,0.4460130910224177,0.7152793392325292,0.5355573182067257,0.551039457321167,-0.5831590890884399,-0.5968926548957825,0,0,0,-1,-1,9334.544369125,unknown,2,2025-04-20T22:29:11.819+03:00,2025-04-20T21:57:49.637+03:00,29,3.385239,0,0,23.86625,0,0,2025-04-20T22:29:16.978+03:00,766870157.0812269,0,0.7299995,99.72822,1,0.95,2025-04-20T22:21:30.043+03:00,95,1.583333333333333,2025-04-19T12:19:17.059+03:00,0.05691595998002078,0
2025-04-20T22:29:17.315+03:00,1745177355.696831,40.98571032071658,29.13751301048976,128.3675,-1,-1,-1,-1,30.05240832,23.80645510177979,-9999,9340.035814541667,0.373260498046875,-0.6239166259765625,-0.3866729736328125,9340.025738541668,1.583493939167852,0.7510316333954411,0.6211868703630206,1.10696542263031,-0.7204950451850891,-1.377826809883118,-0.1688362956047058,-0.02090460062026978,0.2785564661026001,XArbitraryZVertical,-0.0487180345469882,0.4476742827217974,0.7090762917242271,0.5426093415708172,0.554914116859436,-0.582000732421875,-0.5944285988807678,0,0,0,-1,-1,9334.544369125,unknown,2,2025-04-20T22:29:11.819+03:00,2025-04-20T21:57:49.637+03:00,29,3.385239,0,0,23.86625,0,0,2025-04-20T22:29:16.978+03:00,766870157.0812269,0,0.7299995,99.72822,1,0.95,2025-04-20T22:21:30.043+03:00,95,1.583333333333333,2025-04-19T12:19:17.059+03:00,0.05691595998002078,0
2025-04-20T22:29:17.326+03:00,1745177355.696831,40.98571032071658,29.13751301048976,128.3675,-1,-1,-1,-1,30.05240832,23.80645510177979,-9999,9340.045890541667,0.3590087890625,-0.6045989990234375,-0.4556884765625,9340.035814541667,1.561863589829062,0.7565492286095187,0.6201364084199215,1.136993646621704,-0.7043456435203552,-1.323970556259155,-0.175334632396698,-0.02725225687026978,0.23520427942276,XArbitraryZVertical,-0.04618513644122663,0.4494061834522627,0.7030165399424245,0.5492436435446636,0.5586048364639282,-0.5811461806297302,-0.5918020606040955,0,0,0,-1,-1,9334.544369125,unknown,2,2025-04-20T22:29:11.819+03:00,2025-04-20T21:57:49.637+03:00,29,3.385239,0,0,23.86625,0,0,2025-04-20T22:29:16.978+03:00,766870157.0812269,0,0.7299995,99.72822,1,0.95,2025-04-20T22:21:30.043+03:00,95,1.583333333333333,2025-04-19T12:19:17.059+03:00,0.05691595998002078,0
2025-04-20T22:29:17.336+03:00,1745177355.696831,40.98571032071658,29.13751301048976,128.3675,-1,-1,-1,-1,30.05240832,23.80645510177979,-9999,9340.055966541668,0.36651611328125,-0.5765228271484375,-0.5486602783203125,9340.045890541667,1.540189176624903,0.7625967748145195,0.6197837733300764,1.246330857276917,-0.596991240978241,-1.254430770874023,-0.1890546083450317,-0.04305750131607056,0.2018882632255554,XArbitraryZVertical,-0.04354547720102724,0.4514678325448757,0.6968849025227455,0.5555464233358048,0.562315046787262,-0.5808591842651367,-0.5885611772537231,0,0,0,-1,-1,9334.544369125,unknown,2,2025-04-20T22:29:11.819+03:00,2025-04-20T21:57:49.637+03:00,29,3.385239,0,0,23.86625,0,0,2025-04-20T22:29:16.978+03:00,766870157.0812269,0,0.7299995,99.72822,1,0.95,2025-04-20T22:21:30.043+03:00,95,1.583333333333333,2025-04-19T12:19:17.059+03:00,0.05691595998002078,0
2025-04-20T22:29:17.346+03:00,1745177355.696831,40.98571032071658,29.13751301048976,128.3675,-1,-1,-1,-1,30.05240832,23.80645510177979,-9999,9340.066042541668,0.3962554931640625,-0.56329345703125,-0.6589202880859375,9340.055966541668,1.517388384613058,0.7701505852006649,0.6213060174857732,1.516631364822388,-0.5535505414009094,-1.199735760688782,-0.207119882106781,-0.02250140905380249,0.1279730796813965,XArbitraryZVertical,-0.04045597504085316,0.4544585503865014,0.6904057743108929,0.5614005162073231,0.5661286115646362,-0.582097589969635,-0.5836614966392517,0,0,0,-1,-1,9334.544369125,unknown,2,2025-04-20T22:29:11.819+03:00,2025-04-20T21:57:49.637+03:00,29,3.385239,0,0,23.86625,0,0,2025-04-20T22:29:16.978+03:00,766870157.0812269,0,0.7299995,99.72822,1,0.95,2025-04-20T22:21:30.043+03:00,95,1.583333333333333,2025-04-19T12:19:17.059+03:00,0.05691595998002078,0
2025-04-20T22:29:17.357+03:00,1745177355.696831,40.98571032071658,29.13751301048976,128.3675,-1,-1,-1,-1,30.05240832,23.80645510177979,-9999,9340.076118541667,0.404388427734375,-0.56170654296875,-0.7469940185546875,9340.066042541668,1.49324127564535,0.7786493853305301,0.6240450660773847,1.568365573883057,-0.5560110211372375,-1.205167531967163,-0.2034305334091187,0.007799744606018066,0.02903163433074951,XArbitraryZVertical,-0.03687727244579146,0.4580328862456256,0.6835223566068289,0.5671358367262216,0.5699465870857239,-0.5843225717544556,-0.577691912651062,0,0,0,-1,-1,9334.544369125,unknown,2,2025-04-20T22:29:11.819+03:00,2025-04-20T21:57:49.637+03:00,29,3.385239,0,0,23.86625,0,0,2025-04-20T22:29:16.978+03:00,766870157.0812269,0,0.7299995,99.72822,1,0.95,2025-04-20T22:21:30.043+03:00,95,1.583333333333333,2025-04-19T12:19:17.059+03:00,0.05691595998002078,0
2025-04-20T22:29:17.366+03:00,1745177355.696831,40.98571032071658,29.13751301048976,128.3675,-1,-1,-1,-1,30.05240832,23.80645510177979,-9999,9340.086195541668,0.3944854736328125,-0.5654144287109375,-0.9019622802734375,9340.076118541667,1.468564218534413,0.7879468144137973,0.6269912329824003,1.680532574653625,-0.4374518692493439,-1.153161644935608,-0.1778146028518677,0.02341747283935547,-0.08776891231536865,XArbitraryZVertical,-0.03329022379548555,0.4618615779701117,0.6764393775883629,0.57271751123616,0.5740700364112854,-0.5867109298706055,-0.5711513161659241,0,0,0,-1,-1,9334.544369125,unknown,2,2025-04-20T22:29:11.819+03:00,2025-04-20T21:57:49.637+03:00,29,3.385239,0,0,23.86625,0,0,2025-04-20T22:29:16.978+03:00,766870157.0812269,0,0.7299995,99.72822,1,0.95,2025-04-20T22:21:30.043+03:00,95,1.583333333333333,2025-04-19T12:19:17.059+03:00,0.05691595998002078,0
2025-04-20T22:29:17.376+03:00,1745177355.696831,40.98571032071658,29.13751301048976,128.3675,-1,-1,-1,-1,30.05240832,23.80645510177979,-9999,9340.096271541668,0.4133453369140625,-0.43072509765625,-1.276748657226562,9340.086195541668,1.443566642666516,0.7998126701669085,0.6331554491537545,2.107399702072144,-0.1298563778400421,-0.7801955938339233,-0.1738133430480957,0.02998495101928711,-0.1852254867553711,XArbitraryZVertical,-0.02921326372628302,0.4671855394946122,0.6693286249283107,0.5769605096740936,0.5782017707824707,-0.5916914939880371,-0.5617685317993164,0,0,0,-1,-1,9334.544369125,unknown,2,2025-04-20T22:29:11.819+03:00,2025-04-20T21:57:49.637+03:00,29,3.385239,0,0,23.86625,0,0,2025-04-20T22:29:16.978+03:00,766870157.0812269,0,0.7299995,99.72822,1,0.95,2025-04-20T22:21:30.043+03:00,95,1.583333333333333,2025-04-19T12:19:17.059+03:00,0.05691595998002078,0
2025-04-20T22:29:17.386+03:00,1745177355.696831,40.98571032071658,29.13751301048976,128.3675,-1,-1,-1,-1,30.05240832,23.80645510177979,-9999,9340.106347541667,0.4177093505859375,-0.1108245849609375,-1.4342041015625,9340.096271541668,1.414700155012696,0.8162209384317248,0.6452574391846139,2.877554416656494,-0.04212972894310951,-0.6781339049339294,-0.1875958442687988,0.03598970174789429,-0.3547013998031616,XArbitraryZVertical,-0.02339092477275596,0.4752077957794194,0.6613241699627935,0.579897209898721,0.5820813179016113,-0.6014041304588318,-0.5472608208656311,0,0,0,-1,-1,9334.544369125,unknown,2,2025-04-20T22:29:11.819+03:00,2025-04-20T21:57:49.637+03:00,29,3.385239,0,0,23.86625,0,0,2025-04-20T22:29:16.978+03:00,766870157.0812269,0,0.7299995,99.72822,1,0.95,2025-04-20T22:21:30.043+03:00,95,1.583333333333333,2025-04-19T12:19:17.059+03:00,0.05691595998002078,0
2025-04-20T22:29:17.396+03:00,1745177355.696831,40.98571032071658,29.13751301048976,128.3675,-1,-1,-1,-1,30.05240832,23.80645510177979,-9999,9340.116423541667,0.4305419921875,0.02825927734375,-0.98638916015625,9340.106347541667,1.381295476993366,0.837342542131682,0.6621331338758579,3.152296304702759,0.2102485150098801,-0.4120543897151947,-0.1725407242774963,0.1840755343437195,-0.748773455619812,XArbitraryZVertical,-0.01600143219386348,0.4855475210729877,0.6522747887694749,0.5818291231433012,0.5858860611915588,-0.6148006319999695,-0.5279751420021057,0,0,0,-1,-1,9334.544369125,unknown,2,2025-04-20T22:29:11.819+03:00,2025-04-20T21:57:49.637+03:00,29,3.385239,0,0,23.86625,0,0,2025-04-20T22:29:16.978+03:00,766870157.0812269,0,0.7299995,99.72822,1,0.95,2025-04-20T22:21:30.043+03:00,95,1.583333333333333,2025-04-19T12:19:17.059+03:00,0.05691595998002078,0
2025-04-20T22:29:17.406+03:00,1745177355.696831,40.98571032071658,29.13751301048976,128.3675,-1,-1,-1,-1,30.05240832,23.80645510177979,-9999,9340.126499541668,0.4712066650390625,-0.4057769775390625,-0.421783447265625,9340.116423541667,1.350798427843236,0.8591902411744752,0.6778288105174824,2.329218149185181,0.3649901747703552,-0.4330619275569916,-0.1721898913383484,0.5162786841392517,-0.9255191087722778,XArbitraryZVertical,-0.009692257049345692,0.4955437293538114,0.6441377124098201,0.5826054159039943,0.5898992419242859,-0.6271032691001892,-0.5086849331855774,0,0,0,-1,-1,9334.544369125,unknown,2,2025-04-20T22:29:11.819+03:00,2025-04-20T21:57:49.637+03:00,29,3.385239,0,0,23.86625,0,0,2025-04-20T22:29:16.978+03:00,766870157.0812269,0,0.7299995,99.72822,1,0.95,2025-04-20T22:21:30.043+03:00,95,1.583333333333333,2025-04-19T12:19:17.059+03:00,0.05691595998002078,0
2025-04-20T22:29:17.416+03:00,1745177355.696831,40.98571032071658,29.13751301048976,128.3675,-1,-1,-1,-1,30.05240832,23.80645510177979,-9999,9340.136575541666,0.5204315185546875,-0.965118408203125,-0.2533111572265625,9340.126499541668,1.33088480180541,0.8757475147387078,0.6846579369795751,0.9525009989738464,0.4363863170146942,-0.4824594557285309,-0.1643953919410706,0.6606674194335938,-0.4902948439121246,XArbitraryZVertical,-0.00745043531968515,0.5018937895464055,0.638679384572902,0.5832114832504509,0.5949373245239258,-0.632408082485199,-0.4960942268371582,0,0,0,-1,-1,9334.544369125,unknown,2,2025-04-20T22:29:11.819+03:00,2025-04-20T21:57:49.637+03:00,29,3.385239,0,0,23.86625,0,0,2025-04-20T22:29:16.978+03:00,766870157.0812269,0,0.7299995,99.72822,1,0.95,2025-04-20T22:21:30.043+03:00,95,1.583333333333333,2025-04-19T12:19:17.059+03:00,0.05691595998002078,0
2025-04-20T22:29:17.427+03:00,1745177355.696831,40.98571032071658,29.13751301048976,128.3675,-1,-1,-1,-1,30.05240832,23.80645510177979,-9999,9340.146651541667,0.6146392822265625,-1.026123046875,-0.3823394775390625,9340.136575541666,1.322424105676578,0.8855620335747755,0.6849967422681805,0.1685662865638733,0.4062910079956055,-0.2924021482467651,-0.128404974937439,0.2268934845924377,0.06831240653991699,XArbitraryZVertical,-0.008320376452223549,0.504859263056548,0.636195084448673,0.583355475692376,0.5996115803718567,-0.6326704621315002,-0.4900957942008972,0,0,0,-1,-1,9334.544369125,unknown,2,2025-04-20T22:29:11.819+03:00,2025-04-20T21:57:49.637+03:00,29,3.385239,0,0,23.86625,0,0,2025-04-20T22:29:16.978+03:00,766870157.0812269,0,0.7299995,99.72822,1,0.95,2025-04-20T22:21:30.043+03:00,95,1.583333333333333,2025-04-19T12:19:17.059+03:00,0.05691595998002078,0
2025-04-20T22:29:17.437+03:00,1745177355.696831,40.98571032071658,29.13751301048976,128.3675,-1,-1,-1,-1,30.05240832,23.80645510177979,-9999,9340.156727541667,0.660003662109375,-0.7475433349609375,-0.5089263916015625,9340.146651541667,1.319005002716441,0.8907992042468845,0.6837042903703311,0.1878355294466019,0.2040129452943802,-0.250221312046051,-0.0823739767074585,-0.3334493041038513,0.2341515123844147,XArbitraryZVertical,-0.009611983593351544,0.5061386472625982,0.6350878047054914,0.5834334884977257,0.6028053760528564,-0.6316690444946289,-0.4874625504016876,0,0,0,-1,-1,9334.544369125,unknown,2,2025-04-20T22:29:11.819+03:00,2025-04-20T21:57:49.637+03:00,29,3.385239,0,0,23.86625,0,0,2025-04-20T22:29:16.978+03:00,766870157.0812269,0,0.7299995,99.72822,1,0.95,2025-04-20T22:21:30.043+03:00,95,1.583333333333333,2025-04-19T12:19:17.059+03:00,0.05691595998002078,0
2025-04-20T22:29:17.447+03:00,1745177355.696831,40.98571032071658,29.13751301048976,128.3675,-1,-1,-1,-1,30.05240832,23.80645510177979,-9999,9340.166803541668,0.66363525390625,-0.5694732666015625,-0.5616302490234375,9340.156727541667,1.312748419699797,0.8958273929708152,0.6847965089967466,0.700661301612854,0.0006145397201180458,-0.1767822653055191,0.009929418563842773,-0.3936076164245605,0.101654589176178,XArbitraryZVertical,-0.009204875807523653,0.5078565603463648,0.633313100372152,0.5838761255315503,0.604709804058075,-0.6325154304504395,-0.4839939773082733,0,0,0,-1,-1,9334.544369125,unknown,2,2025-04-20T22:29:11.819+03:00,2025-04-20T21:57:49.637+03:00,29,3.385239,0,0,23.86625,0,0,2025-04-20T22:29:16.978+03:00,766870157.0812269,0,0.7299995,99.72822,1,0.95,2025-04-20T22:21:30.043+03:00,95,1.583333333333333,2025-04-19T12:19:17.059+03:00,0.05691595998002078,0
2025-04-20T22:29:17.457+03:00,1745177355.696831,40.98571032071658,29.13751301048976,128.3675,-1,-1,-1,-1,30.05240832,23.80645510177979,-9999,9340.176880541667,0.6714630126953125,-0.6114044189453125,-0.512847900390625,9340.166803541668,1.302477037782923,0.901345509490408,0.6890955783697669,1.041089415550232,-0.1884610503911972,-0.1561712175607681,0.05477023124694824,-0.1117039322853088,-0.02996844053268433,XArbitraryZVertical,-0.006695448903194084,0.5103687120869783,0.6305917281689453,0.5846647497237063,0.605233371257782,-0.6358394026756287,-0.4789578914642334,0,0,0,-1,-1,9334.544369125,unknown,2,2025-04-20T22:29:11.819+03:00,2025-04-20T21:57:49.637+03:00,29,3.385239,0,0,23.86625,0,0,2025-04-20T22:29:16.978+03:00,766870157.0812269,0,0.7299995,99.72822,1,0.95,2025-04-20T22:21:30.043+03:00,95,1.583333333333333,2025-04-19T12:19:17.059+03:00,0.05691595998002078,0
2025-04-20T22:29:17.467+03:00,1745177355.696831,40.98571032071658,29.13751301048976,128.3675,-1,-1,-1,-1,30.05240832,23.80645510177979,-9999,9340.186956541667,0.691253662109375,-0.70928955078125,-0.44970703125,9340.176880541667,1.28955428488011,0.9069804832464278,0.6946458849885716,1.173489332199097,-0.3337255716323853,-0.2012777179479599,0.0585014820098877,0.0706402063369751,-0.08827200531959534,XArbitraryZVertical,-0.003040148354874355,0.5131390352077059,0.627194544601742,0.5859232104809282,0.6051336526870728,-0.6401134133338928,-0.4733581840991974,0,0,0,-1,-1,9334.544369125,unknown,2,2025-04-20T22:29:11.819+03:00,2025-04-20T21:57:49.637+03:00,29,3.385239,0,0,23.86625,0,0,2025-04-20T22:29:16.978+03:00,766870157.0812269,0,0.7299995,99.72822,1,0.95,2025-04-20T22:21:30.043+03:00,95,1.583333333333333,2025-04-19T12:19:17.059+03:00,0.05691595998002078,0
2025-04-20T22:29:17.477+03:00,1745177355.696831,40.98571032071658,29.13751301048976,128.3675,-1,-1,-1,-1,30.05240832,23.80645510177979,-9999,9340.197032541668,0.7251739501953125,-0.66973876953125,-0.4206695556640625,9340.186956541667,1.27537912150118,0.9117904378102516,0.7003349730715818,1.215849757194519,-0.5214380621910095,-0.2226923853158951,0.06694835424423218,0.03306949138641357,-0.04464331269264221,XArbitraryZVertical,0.001281769067872744,0.5156511383432979,0.6234517608692092,0.5877159450471157,0.6045145392417908,-0.6444738507270813,-0.468204528093338,0,0,0,-1,-1,9334.544369125,unknown,2,2025-04-20T22:29:11.819+03:00,2025-04-20T21:57:49.637+03:00,29,3.385239,0,0,23.86625,0,0,2025-04-20T22:29:16.978+03:00,766870157.0812269,0,0.7299995,99.72822,1,0.95,2025-04-20T22:21:30.043+03:00,95,1.583333333333333,2025-04-19T12:19:17.059+03:00,0.05691595998002078,0
2025-04-20T22:29:17.487+03:00,1745177355.696831,40.98571032071658,29.13751301048976,128.3675,-1,-1,-1,-1,30.05240832,23.80645510177979,-9999,9340.207108541666,0.7286529541015625,-0.6388397216796875,-0.4347991943359375,9340.197032541668,1.261124042084761,0.9150635463252741,0.7056618854015708,1.121292948722839,-0.6633014678955078,-0.2567398548126221,0.08793944120407104,-0.06075173616409302,0.01441657543182373,XArbitraryZVertical,0.005994440767147745,0.5175928000188119,0.619661377985292,0.5899842872910788,0.603314220905304,-0.648537814617157,-0.4641235172748566,0,0,0,-1,-1,9334.544369125,unknown,2,2025-04-20T22:29:11.819+03:00,2025-04-20T21:57:49.637+03:00,29,3.385239,0,0,23.86625,0,0,2025-04-20T22:29:16.978+03:00,766870157.0812269,0,0.7299995,99.72822,1,0.95,2025-04-20T22:21:30.043+03:00,95,1.583333333333333,2025-04-19T12:19:17.059+03:00,0.05691595998002078,0
2025-04-20T22:29:17.497+03:00,1745177355.696831,40.98571032071658,29.13751301048976,128.3675,-1,-1,-1,-1,30.05240832,23.80645510177979,-9999,9340.217184541667,0.68170166015625,-0.66229248046875,-0.478912353515625,9340.207108541666,1.248267010959489,0.9166148878473058,0.7099382786240767,0.9424484968185425,-0.6708047389984131,-0.2664368152618408,0.1233468055725098,-0.01795178651809692,0.04082566499710083,XArbitraryZVertical,0.01049511907417319,0.5187892531112823,0.6161946542962584,0.5924960739657539,0.6018271446228027,-0.6517869830131531,-0.4614951312541962,0,0,0,-1,-1,9334.544369125,unknown,2,2025-04-20T22:29:11.819+03:00,2025-04-20T21:57:49.637+03:00,29,3.385239,0,0,23.86625,0,0,2025-04-20T22:29:16.978+03:00,766870157.0812269,0,0.7299995,99.72822,1,0.95,2025-04-20T22:21:30.043+03:00,95,1.583333333333333,2025-04-19T12:19:17.059+03:00,0.05691595998002078,0
2025-04-20T22:29:17.507+03:00,1745177355.696831,40.98571032071658,29.13751301048976,128.3675,-1,-1,-1,-1,30.05240832,23.80645510177979,-9999,9340.227260541667,0.5990447998046875,-0.7046661376953125,-0.5195770263671875,9340.217184541667,1.237848752510333,0.9173758564133332,0.7127868666630407,0.6448479294776917,-0.5016822814941406,-0.2280231416225433,0.1279513835906982,0.01510494947433472,0.02510738372802734,XArbitraryZVertical,0.01406663595026126,0.5194698025020255,0.6133283858098232,0.5947953587413979,0.6007015109062195,-0.6539446711540222,-0.4599065184593201,0,0,0,-1,-1,9334.544369125,unknown,2,2025-04-20T22:29:11.819+03:00,2025-04-20T21:57:49.637+03:00,29,3.385239,0,0,23.86625,0,0,2025-04-20T22:29:16.978+03:00,766870157.0812269,0,0.7299995,99.72822,1,0.95,2025-04-20T22:21:30.043+03:00,95,1.583333333333333,2025-04-19T12:19:17.059+03:00,0.05691595998002078,0
2025-04-20T22:29:17.517+03:00,1745177355.696831,40.98571032071658,29.13751301048976,128.3675,-1,-1,-1,-1,30.05240832,23.80645510177979,-9999,9340.237336541668,0.531158447265625,-0.7263031005859375,-0.523468017578125,9340.227260541667,1.230662729766763,0.9179647381806338,0.714066313310167,0.3643786907196045,-0.3013111650943756,-0.2318061888217926,0.08139455318450928,-0.007380366325378418,-0.01986825466156006,XArbitraryZVertical,0.01624898936149567,0.519821073345741,0.6112932657220628,0.5965253300377373,0.6003071069717407,-0.6549121141433716,-0.4590440392494202,0,0,0,-1,-1,9334.544369125,unknown,2,2025-04-20T22:29:11.819+03:00,2025-04-20T21:57:49.637+03:00,29,3.385239,0,0,23.86625,0,0,2025-04-20T22:29:16.978+03:00,766870157.0812269,0,0.7299995,99.72822,1,0.95,2025-04-20T22:21:30.043+03:00,95,1.583333333333333,2025-04-19T12:19:17.059+03:00,0.05691595998002078,0
2025-04-20T22:29:17.528+03:00,1745177355.696831,40.98571032071658,29.13751301048976,128.3675,-1,-1,-1,-1,30.05240832,23.80645510177979,-9999,9340.247413541667,0.5117950439453125,-0.7229156494140625,-0.5357513427734375,9340.237336541668,1.225684664060468,0.9191210855510047,0.7137139273411272,0.1896279007196426,-0.1726469248533249,-0.2780005633831024,-0.001976191997528076,-0.05002039670944214,-0.06108742952346802,XArbitraryZVertical,0.01705351915608922,0.5200619059923494,0.6097884599359824,0.5978318129817016,0.6010210514068604,-0.6546457409858704,-0.4584895968437195,0,0,0,-1,-1,9334.544369125,unknown,2,2025-04-20T22:29:11.819+03:00,2025-04-20T21:57:49.637+03:00,29,3.385239,0,0,23.86625,0,0,2025-04-20T22:29:16.978+03:00,766870157.0812269,0,0.7299995,99.72822,1,0.95,2025-04-20T22:21:30.043+03:00,95,1.583333333333333,2025-04-19T12:19:17.059+03:00,0.05691595998002078,0
2025-04-20T22:29:17.537+03:00,1745177355.696831,40.98571032071658,29.13751301048976,128.3675,-1,-1,-1,-1,30.05240832,23.80645510177979,-9999,9340.257489541667,0.5511932373046875,-0.695220947265625,-0.5494842529296875,9340.247413541667,1.221582483124415,0.9203139202591133,0.7120950146550773,0.1246943026781082,-0.1233032196760178,-0.3393478989601135,-0.07125163078308105,-0.07288199663162231,-0.06505447626113892,XArbitraryZVertical,0.0171284539993159,0.5200960286206318,0.6084408688260555,0.5991714013859436,0.6024100184440613,-0.6534211039543152,-0.4584134817123413,0,0,0,-1,-1,9334.544369125,unknown,2,2025-04-20T22:29:11.819+03:00,2025-04-20T21:57:49.637+03:00,29,3.385239,0,0,23.86625,0,0,2025-04-20T22:29:16.978+03:00,766870157.0812269,0,0.7299995,99.72822,1,0.95,2025-04-20T22:21:30.043+03:00,95,1.583333333333333,2025-04-19T12:19:17.059+03:00,0.05691595998002078,0
2025-04-20T22:29:17.547+03:00,1745177355.696831,40.98571032071658,29.13751301048976,128.3675,-1,-1,-1,-1,30.05240832,23.80645510177979,-9999,9340.267565541668,0.5982208251953125,-0.670654296875,-0.53094482421875,9340.257489541667,1.217373419593562,0.9218075236658608,0.710100367099741,0.1346374750137329,-0.1617307662963867,-0.3469277918338776,-0.09233623743057251,-0.07100582122802734,-0.07745128870010376,XArbitraryZVertical,0.01699428486411139,0.5201549425510852,0.6070286223393269,0.6005550137583874,0.604131281375885,-0.6519098877906799,-0.4583000540733337,0,0,0,-1,-1,9334.544369125,unknown,2,2025-04-20T22:29:11.819+03:00,2025-04-20T21:57:49.637+03:00,29,3.385239,0,0,23.86625,0,0,2025-04-20T22:29:16.978+03:00,766870157.0812269,0,0.7299995,99.72822,1,0.95,2025-04-20T22:21:30.043+03:00,95,1.583333333333333,2025-04-19T12:19:17.059+03:00,0.05691595998002078,0
2025-04-20T22:29:17.558+03:00,1745177355.696831,40.98571032071658,29.13751301048976,128.3675,-1,-1,-1,-1,30.05240832,23.80645510177979,-9999,9340.277641541667,0.6072540283203125,-0.660430908203125,-0.4854736328125,9340.267565541668,1.213397491020261,0.9226638441531817,0.7083194928375515,0.127511128783226,-0.1427285671234131,-0.3331436514854431,-0.05425482988357544,-0.04466253519058228,-0.09100145101547241,XArbitraryZVertical,0.0170761301972997,0.5200644724513097,0.6056936886278168,0.6019771783719839,0.6054480671882629,-0.6505584120750427,-0.4584827125072479,0,0,0,-1,-1,9334.544369125,unknown,2,2025-04-20T22:29:11.819+03:00,2025-04-20T21:57:49.637+03:00,29,3.385239,0,0,23.86625,0,0,2025-04-20T22:29:16.978+03:00,766870157.0812269,0,0.7299995,99.72822,1,0.95,2025-04-20T22:21:30.043+03:00,95,1.583333333333333,2025-04-19T12:19:17.059+03:00,0.05691595998002078,0
2025-04-20T22:29:17.568+03:00,1745177355.696831,40.98571032071658,29.13751301048976,128.3675,-1,-1,-1,-1,30.05240832,23.80645510177979,-9999,9340.287717541667,0.580322265625,-0.66058349609375,-0.45867919921875,9340.277641541667,1.209204341208722,0.9239487464125605,0.7059810239490557,0.08751018345355988,-0.1947451680898666,-0.3690933883190155,-0.009028136730194092,-0.0218735933303833,-0.07232481241226196,XArbitraryZVertical,0.01686766224082512,0.5200053020287739,0.6042455995487238,0.6034874742872637,0.6072489619255066,-0.6487807035446167,-0.4586199223995209,0,0,0,-1,-1,9334.544369125,unknown,2,2025-04-20T22:29:11.819+03:00,2025-04-20T21:57:49.637+03:00,29,3.385239,0,0,23.86625,0,0,2025-04-20T22:29:16.978+03:00,766870157.0812269,0,0.7299995,99.72822,1,0.95,2025-04-20T22:21:30.043+03:00,95,1.583333333333333,2025-04-19T12:19:17.059+03:00,0.05691595998002078,0
2025-04-20T22:29:17.578+03:00,1745177355.696831,40.98571032071658,29.13751301048976,128.3675,-1,-1,-1,-1,30.05240832,23.80645510177979,-9999,9340.297793541667,0.5632476806640625,-0.631256103515625,-0.469482421875,9340.287717541667,1.205837511023121,0.9244751919005703,0.7036584868437411,0.04425885155797005,-0.1322013586759567,-0.3209151029586792,-0.001437544822692871,-0.01341933012008667,-0.02626711130142212,XArbitraryZVertical,0.01667933218120001,0.5197293501955709,0.6030365732723232,0.6049379508966473,0.6086915135383606,-0.6470115184783936,-0.4592064023017883,0,0,0,-1,-1,9334.544369125,unknown,2,2025-04-20T22:29:11.819+03:00,2025-04-20T21:57:49.637+03:00,29,3.385239,0,0,23.86625,0,0,2025-04-20T22:29:16.978+03:00,766870157.0812269,0,0.7299995,99.72822,1,0.95,2025-04-20T22:21:30.043+03:00,95,1.583333333333333,2025-04-19T12:19:17.059+03:00,0.05691595998002078,0
2025-04-20T22:29:17.588+03:00,1745177355.696831,40.98571032071658,29.13751301048976,128.3675,-1,-1,-1,-1,30.05240832,23.80645510177979,-9999,9340.307869541668,0.5319671630859375,-0.6202239990234375,-0.4999237060546875,9340.297793541667,1.203146675878933,0.9254293588442565,0.7012549074139578,-0.004683124832808971,-0.05910877883434296,-0.2987243235111237,-0.03004777431488037,-0.01540648937225342,0.0008804202079772949,XArbitraryZVertical,0.0161543314087609,0.5195760592178855,0.6020244656200877,0.6060909166642063,0.6103700399398804,-0.6451770067214966,-0.4595595002174377,0,0,0,-1,-1,9334.544369125,unknown,2,2025-04-20T22:29:11.819+03:00,2025-04-20T21:57:49.637+03:00,29,3.385239,0,0,23.86625,0,0,2025-04-20T22:29:16.978+03:00,766870157.0812269,0,0.7299995,99.72822,1,0.95,2025-04-20T22:21:30.043+03:00,95,1.583333333333333,2025-04-19T12:19:17.059+03:00,0.05691595998002078,0
2025-04-20T22:29:17.600+03:00,1745177355.696831,40.98571032071658,29.13751301048976,128.3675,-1,-1,-1,-1,30.05240832,23.80645510177979,-9999,9340.317945541667,0.528961181640625,-0.5963134765625,-0.5091552734375,9340.307869541668,1.200915413852286,0.926954031531007,0.6986928508984361,-0.0296507254242897,0.0194670557975769,-0.2880187630653381,-0.04914242029190063,0.01196128129959106,-0.00986325740814209,XArbitraryZVertical,0.01527644571656593,0.5195739531826031,0.6011386333482595,0.606994010317213,0.6123900413513184,-0.6432173848152161,-0.4596190750598907,0,0,0,-1,-1,9334.544369125,unknown,2,2025-04-20T22:29:11.819+03:00,2025-04-20T21:57:49.637+03:00,29,3.385239,0,0,23.86625,0,0,2025-04-20T22:29:16.978+03:00,766870157.0812269,0,0.7299995,99.72822,1,0.95,2025-04-20T22:21:30.043+03:00,95,1.583333333333333,2025-04-19T12:19:17.059+03:00,0.05691595998002078,0
2025-04-20T22:29:17.611+03:00,1745177355.696831,40.98571032071658,29.13751301048976,128.3675,-1,-1,-1,-1,30.05240832,23.80645510177979,-9999,9340.328022541667,0.5410308837890625,-0.5721588134765625,-0.5081634521484375,9340.317945541667,1.199067341295469,0.9286895945711234,0.6963112382816455,-0.01557352300733328,0.08784371614456177,-0.2585226595401764,-0.08244478702545166,0.02116799354553223,-0.04045194387435913,XArbitraryZVertical,0.01430647043013353,0.5196724562806724,0.6003824413908084,0.6076814743014798,0.6144119501113892,-0.6413919925689697,-0.459471732378006,0,0,0,-1,-1,9334.544369125,unknown,2,2025-04-20T22:29:11.819+03:00,2025-04-20T21:57:49.637+03:00,29,3.385239,0,0,23.86625,0,0,2025-04-20T22:29:16.978+03:00,766870157.0812269,0,0.7299995,99.72822,1,0.95,2025-04-20T22:21:30.043+03:00,95,1.583333333333333,2025-04-19T12:19:17.059+03:00,0.05691595998002078,0
2025-04-20T22:29:17.619+03:00,1745177355.696831,40.98571032071658,29.13751301048976,128.3675,-1,-1,-1,-1,30.05240832,23.80645510177979,-9999,9340.338098541668,0.5508880615234375,-0.577606201171875,-0.5012664794921875,9340.328022541667,1.197097880764615,0.9309580159986164,0.6944917533995889,0.03498818725347519,0.06763911247253418,-0.1952508836984634,-0.08742660284042358,0.0436815619468689,-0.05038240551948547,XArbitraryZVertical,0.01342803867873174,0.5200320256572714,0.5996391025946602,0.6081275968201418,0.6163877248764038,-0.6399949789047241,-0.458772748708725,0,0,0,-1,-1,9334.544369125,unknown,2,2025-04-20T22:29:11.819+03:00,2025-04-20T21:57:49.637+03:00,29,3.385239,0,0,23.86625,0,0,2025-04-20T22:29:16.978+03:00,766870157.0812269,0,0.7299995,99.72822,1,0.95,2025-04-20T22:21:30.043+03:00,95,1.583333333333333,2025-04-19T12:19:17.059+03:00,0.05691595998002078,0
2025-04-20T22:29:17.628+03:00,1745177355.696831,40.98571032071658,29.13751301048976,128.3675,-1,-1,-1,-1,30.05240832,23.80645510177979,-9999,9340.348174541667,0.56719970703125,-0.6035308837890625,-0.488494873046875,9340.338098541668,1.195006121921518,0.93338152890485,0.6932854609466639,0.07082714885473251,0.1070416420698166,-0.1873894929885864,-0.0770869255065918,0.06690889596939087,-0.05042669177055359,XArbitraryZVertical,0.01277536718856715,0.5205462877589911,0.5989112856538589,0.608418832096953,0.6181176900863647,-0.6390676498413086,-0.4577367007732391,0,0,0,-1,-1,9334.544369125,unknown,2,2025-04-20T22:29:11.819+03:00,2025-04-20T21:57:49.637+03:00,29,3.385239,0,0,23.86625,0,0,2025-04-20T22:29:16.978+03:00,766870157.0812269,0,0.7299995,99.72822,1,0.95,2025-04-20T22:21:30.043+03:00,95,1.583333333333333,2025-04-19T12:19:17.059+03:00,0.05691595998002078,0
2025-04-20T22:29:17.638+03:00,1745177355.696831,40.98571032071658,29.13751301048976,128.3675,-1,-1,-1,-1,30.05240832,23.80645510177979,-9999,9340.358250541667,0.585205078125,-0.6327972412109375,-0.4661102294921875,9340.348174541667,1.192998311630862,0.9355565203193742,0.6923922104046952,0.06687621027231216,0.1169585883617401,-0.1594192981719971,-0.06868308782577515,0.06077420711517334,-0.04453662037849426,XArbitraryZVertical,0.01229866200995976,0.5210411318512331,0.5982336212674537,0.6086717227059303,0.6195710897445679,-0.6383803486824036,-0.4567297697067261,0,0,0,-1,-1,9334.544369125,unknown,2,2025-04-20T22:29:11.819+03:00,2025-04-20T21:57:49.637+03:00,29,3.385239,0,0,23.86625,0,0,2025-04-20T22:29:16.978+03:00,766870157.0812269,0,0.7299995,99.72822,1,0.95,2025-04-20T22:21:30.043+03:00,95,1.583333333333333,2025-04-19T12:19:17.059+03:00,0.05691595998002078,0
2025-04-20T22:29:17.648+03:00,1745177355.696831,40.98571032071658,29.13751301048976,128.3675,-1,-1,-1,-1,30.05240832,23.80645510177979,-9999,9340.368326541668,0.5965118408203125,-0.6490478515625,-0.448822021484375,9340.358250541667,1.191113714377343,0.9378298854376613,0.6914812621900733,0.04541512951254845,0.05511067435145378,-0.1411545425653458,-0.05387681722640991,0.03414803743362427,-0.03283089399337769,XArbitraryZVertical,0.01175474076704124,0.5215648099809714,0.5975909218050242,0.6088654003085963,0.6210764646530151,-0.6376789212226868,-0.4556639492511749,0,0,0,-1,-1,9334.544369125,unknown,2,2025-04-20T22:29:11.819+03:00,2025-04-20T21:57:49.637+03:00,29,3.385239,0,0,23.86625,0,0,2025-04-20T22:29:16.978+03:00,766870157.0812269,0,0.7299995,99.72822,1,0.95,2025-04-20T22:21:30.043+03:00,95,1.583333333333333,2025-04-19T12:19:17.059+03:00,0.05691595998002078,0
2025-04-20T22:29:17.658+03:00,1745177355.696831,40.98571032071658,29.13751301048976,128.3675,-1,-1,-1,-1,30.05240832,23.80645510177979,-9999,9340.378402541668,0.6051483154296875,-0.64630126953125,-0.4244232177734375,9340.368326541668,1.189749145450949,0.9393299330535623,0.6904191713564164,-0.003074375679716468,0.04402526468038559,-0.1585962623357773,-0.03710055351257324,0.004063248634338379,-0.01097890734672546,XArbitraryZVertical,0.01124800619042072,0.5218312386591254,0.5970868750852371,0.6091409922708687,0.6223055124282837,-0.6368604302406311,-0.4551312923431396,0,0,0,-1,-1,9334.544369125,unknown,2,2025-04-20T22:29:11.819+03:00,2025-04-20T21:57:49.637+03:00,29,3.385239,0,0,23.86625,0,0,2025-04-20T22:29:16.978+03:00,766870157.0812269,0,0.7299995,99.72822,1,0.95,2025-04-20T22:21:30.043+03:00,95,1.583333333333333,2025-04-19T12:19:17.059+03:00,0.05691595998002078,0
2025-04-20T22:29:17.668+03:00,1745177355.696831,40.98571032071658,29.13751301048976,128.3675,-1,-1,-1,-1,30.05240832,23.80645510177979,-9999,9340.388478541667,0.604248046875,-0.6427459716796875,-0.4167633056640625,9340.378402541668,1.188955722490903,0.9401647349922194,0.6890103777899416,-0.06024685129523277,0.05450533330440521,-0.1585496515035629,-0.02689749002456665,-0.01327419281005859,0.006318271160125732,XArbitraryZVertical,0.01065587839018033,0.5218393772753043,0.5967200379187798,0.609504068909086,0.6234092712402344,-0.6357735991477966,-0.455140233039856,0,0,0,-1,-1,9334.544369125,unknown,2,2025-04-20T22:29:11.819+03:00,2025-04-20T21:57:49.637+03:00,29,3.385239,0,0,23.86625,0,0,2025-04-20T22:29:16.978+03:00,766870157.0812269,0,0.7299995,99.72822,1,0.95,2025-04-20T22:21:30.043+03:00,95,1.583333333333333,2025-04-19T12:19:17.059+03:00,0.05691595998002078,0
2025-04-20T22:29:17.678+03:00,1745177355.696831,40.98571032071658,29.13751301048976,128.3675,-1,-1,-1,-1,30.05240832,23.80645510177979,-9999,9340.398555541668,0.6020355224609375,-0.646026611328125,-0.4290313720703125,9340.388478541667,1.188649775612583,0.9407027758131388,0.6874297249016449,-0.09116841107606888,0.03957472369074821,-0.1189345344901085,-0.01931703090667725,-0.01174849271774292,0.03097313642501831,XArbitraryZVertical,0.009958055691959419,0.5217304709767636,0.5964833834343194,0.6098406473180319,0.62446528673172,-0.6345527768135071,-0.455396294593811,0,0,0,-1,-1,9334.544369125,unknown,2,2025-04-20T22:29:11.819+03:00,2025-04-20T21:57:49.637+03:00,29,3.385239,0,0,23.86625,0,0,2025-04-20T22:29:16.978+03:00,766870157.0812269,0,0.7299995,99.72822,1,0.95,2025-04-20T22:21:30.043+03:00,95,1.583333333333333,2025-04-19T12:19:17.059+03:00,0.05691595998002078,0
2025-04-20T22:29:17.689+03:00,1745177355.696831,40.98571032071658,29.13751301048976,128.3675,-1,-1,-1,-1,30.05240832,23.80645510177979,-9999,9340.408631541668,0.6096343994140625,-0.6311187744140625,-0.453460693359375,9340.398555541668,1.188747436279356,0.9410345669595649,0.6859157551499554,-0.09733869135379791,0.04205252602696419,-0.1189779415726662,-0.02114403247833252,-0.009364008903503418,0.03899115324020386,XArbitraryZVertical,0.009242572018763036,0.5215720190829384,0.5963742516651463,0.610094203360814,0.6253920793533325,-0.6333819031715393,-0.4557543992996216,0,0,0,-1,-1,9334.544369125,unknown,2,2025-04-20T22:29:11.819+03:00,2025-04-20T21:57:49.637+03:00,29,3.385239,0,0,23.86625,0,0,2025-04-20T22:29:16.978+03:00,766870157.0812269,0,0.7299995,99.72822,1,0.95,2025-04-20T22:21:30.043+03:00,95,1.583333333333333,2025-04-19T12:19:17.059+03:00,0.05691595998002078,0
2025-04-20T22:29:17.699+03:00,1745177355.696831,40.98571032071658,29.13751301048976,128.3675,-1,-1,-1,-1,30.05240832,23.80645510177979,-9999,9340.418707541667,0.6181793212890625,-0.610565185546875,-0.4640350341796875,9340.408631541668,1.188700955537725,0.9414483661530352,0.6843828640493519,-0.07714899629354477,0.005976814310997725,-0.1162061244249344,-0.02432924509048462,-0.01383161544799805,0.02703523635864258,XArbitraryZVertical,0.008532871127041361,0.5214344769471142,0.5962191970214444,0.610373623865886,0.6263647675514221,-0.632194995880127,-0.4560665488243103,0,0,0,-1,-1,9334.544369125,unknown,2,2025-04-20T22:29:11.819+03:00,2025-04-20T21:57:49.637+03:00,29,3.385239,0,0,23.86625,0,0,2025-04-20T22:29:16.978+03:00,766870157.0812269,0,0.7299995,99.72822,1,0.95,2025-04-20T22:21:30.043+03:00,95,1.583333333333333,2025-04-19T12:19:17.059+03:00,0.05691595998002078,0
2025-04-20T22:29:17.709+03:00,1745177355.696831,40.98571032071658,29.13751301048976,128.3675,-1,-1,-1,-1,30.05240832,23.80645510177979,-9999,9340.428783541667,0.6209259033203125,-0.615447998046875,-0.4633941650390625,9340.418707541667,1.188798221066731,0.9412024918906554,0.683152432630288,-0.06378951668739319,-0.01323682628571987,-0.09243954718112946,-0.01724648475646973,0.0001224279403686523,0.003217548131942749,XArbitraryZVertical,0.008100377067947103,0.5211480733909812,0.596133079204598,0.6107079735481243,0.6268807649612427,-0.6312411427497864,-0.4566781520843506,0,0,0,-1,-1,9334.544369125,unknown,2,2025-04-20T22:29:11.819+03:00,2025-04-20T21:57:49.637+03:00,29,3.385239,0,0,23.86625,0,0,2025-04-20T22:29:16.978+03:00,766870157.0812269,0,0.7299995,99.72822,1,0.95,2025-04-20T22:21:30.043+03:00,95,1.583333333333333,2025-04-19T12:19:17.059+03:00,0.05691595998002078,0
2025-04-20T22:29:17.719+03:00,1745177355.696831,40.98571032071658,29.13751301048976,128.3675,-1,-1,-1,-1,30.05240832,23.80645510177979,-9999,9340.438859,0.611114501953125,-0.6140899658203125,-0.47698974609375,9340.428783541667,1.188797392806106,0.9409407827952576,0.6820560322914303,-0.05458636954426765,-0.02130667120218277,-0.08267782628536224,-0.009140849113464355,0.019825279712677,-0.006785392761230469,XArbitraryZVertical,0.007750519419940793,0.5208792147496201,0.5960293575869936,0.6110429807491595,0.6273201107978821,-0.6303904056549072,-0.4572495520114899,0,0,0,-1,-1,9334.544369125,unknown,2,2025-04-20T22:29:11.819+03:00,2025-04-20T21:57:49.637+03:00,29,3.385239,0,0,23.86625,0,0,2025-04-20T22:29:16.978+03:00,766870157.0812269,0,0.7299995,99.72822,1,0.95,2025-04-20T22:21:30.043+03:00,95,1.583333333333333,2025-04-19T12:19:17.059+03:00,0.05691595998002078,0
2025-04-20T22:29:17.729+03:00,1745177355.696831,40.98571032071658,29.13751301048976,128.3675,-1,-1,-1,-1,30.05240832,23.80645510177979,-9999,9340.448935,0.613037109375,-0.6167449951171875,-0.4824371337890625,9340.438859,1.188868475166271,0.9406251007439465,0.6810678516121672,-0.06372127681970596,-0.02327368035912514,-0.07391709089279175,-0.006752967834472656,0.01417505741119385,-0.005579620599746704,XArbitraryZVertical,0.007440320014365091,0.5206125199910353,0.5959574335891128,0.6113443373018984,0.6276788115501404,-0.6296229958534241,-0.457814484834671,0,0,0,-1,-1,9334.544369125,unknown,2,2025-04-20T22:29:11.819+03:00,2025-04-20T21:57:49.637+03:00,29,3.385239,0,0,23.86625,0,0,2025-04-20T22:29:16.978+03:00,766870157.0812269,0,0.7299995,99.72822,1,0.95,2025-04-20T22:21:30.043+03:00,95,1.583333333333333,2025-04-19T12:19:17.059+03:00,0.05691595998002078,0
2025-04-20T22:29:17.739+03:00,1745177355.696831,40.98571032071658,29.13751301048976,128.3675,-1,-1,-1,-1,30.05240832,23.80645510177979,-9999,9340.459011000001,0.6202239990234375,-0.6311492919921875,-0.4916839599609375,9340.448935,1.189208316554441,0.9400959057217507,0.6800626262598777,-0.09987654536962509,-0.03338510543107986,-0.06273484975099564,-0.01683282852172852,0.01475179195404053,-0.01847010850906372,XArbitraryZVertical,0.007117092510287896,0.5202783434902508,0.5959653573368624,0.6116248635475546,0.6279472708702087,-0.6288416981697083,-0.4585195779800415,0,0,0,-1,-1,9334.544369125,unknown,2,2025-04-20T22:29:11.819+03:00,2025-04-20T21:57:49.637+03:00,29,3.385239,0,0,23.86625,0,0,2025-04-20T22:29:16.978+03:00,766870157.0812269,0,0.7299995,99.72822,1,0.95,2025-04-20T22:21:30.043+03:00,95,1.583333333333333,2025-04-19T12:19:17.059+03:00,0.05691595998002078,0
2025-04-20T22:29:17.749+03:00,1745177355.696831,40.98571032071658,29.13751301048976,128.3675,-1,-1,-1,-1,30.05240832,23.80645510177979,-9999,9340.469087000001,0.6258087158203125,-0.6269378662109375,-0.5093536376953125,9340.459011000001,1.189917555831476,0.9392618169965807,0.6789208734727962,-0.12940913438797,-0.03618701547384262,-0.06265708059072495,-0.01510661840438843,0.01120859384536743,-0.02297031879425049,XArbitraryZVertical,0.006735472893673107,0.5198280918917293,0.5960726213776127,0.6119074373426423,0.6281436681747437,-0.6279535293579102,-0.4594667851924896,0,0,0,-1,-1,9334.544369125,unknown,2,2025-04-20T22:29:11.819+03:00,2025-04-20T21:57:49.637+03:00,29,3.385239,0,0,23.86625,0,0,2025-04-20T22:29:16.978+03:00,766870157.0812269,0,0.7299995,99.72822,1,0.95,2025-04-20T22:21:30.043+03:00,95,1.583333333333333,2025-04-19T12:19:17.059+03:00,0.05691595998002078,0
2025-04-20T22:29:17.759+03:00,1745177355.696831,40.98571032071658,29.13751301048976,128.3675,-1,-1,-1,-1,30.05240832,23.80645510177979,-9999,9340.479164,0.6233978271484375,-0.6287078857421875,-0.5132293701171875,9340.469087000001,1.191001407197986,0.9382173190964304,0.6775530047689041,-0.1726291924715042,-0.03622683137655258,-0.06494627147912979,-0.008131623268127441,-0.004260778427124023,-0.03105387091636658,XArbitraryZVertical,0.006231223530194214,0.5192746696526136,0.5962731411195911,0.6121871453124312,0.6283555030822754,-0.6268884539604187,-0.4606299698352814,0,0,0,-1,-1,9334.544369125,unknown,2,2025-04-20T22:29:11.819+03:00,2025-04-20T21:57:49.637+03:00,29,3.385239,0,0,23.86625,0,0,2025-04-20T22:29:16.978+03:00,766870157.0812269,0,0.7299995,99.72822,1,0.95,2025-04-20T22:21:30.043+03:00,95,1.583333333333333,2025-04-19T12:19:17.059+03:00,0.05691595998002078,0
2025-04-20T22:29:17.769+03:00,1745177355.696831,40.98571032071658,29.13751301048976,128.3675,-1,-1,-1,-1,30.05240832,23.80645510177979,-9999,9340.489240000001,0.629119873046875,-0.6443939208984375,-0.5013885498046875,9340.479164,1.19261331097549,0.9368816937487252,0.675859925360436,-0.2340848296880722,-0.03356660157442093,-0.06382348388433456,-0.002785384654998779,-0.0013694167137146,-0.0472567081451416,XArbitraryZVertical,0.005550479457727643,0.5185757058905507,0.5966047971782584,0.6124630932675093,0.6285941004753113,-0.6255684494972229,-0.4620968699455261,0,0,0,-1,-1,9334.544369125,unknown,2,2025-04-20T22:29:11.819+03:00,2025-04-20T21:57:49.637+03:00,29,3.385239,0,0,23.86625,0,0,2025-04-20T22:29:16.978+03:00,766870157.0812269,0,0.7299995,99.72822,1,0.95,2025-04-20T22:21:30.043+03:00,95,1.583333333333333,2025-04-19T12:19:17.059+03:00,0.05691595998002078,0
2025-04-20T22:29:17.779+03:00,1745177355.696831,40.98571032071658,29.13751301048976,128.3675,-1,-1,-1,-1,30.05240832,23.80645510177979,-9999,9340.499316000001,0.6324462890625,-0.6430816650390625,-0.4875946044921875,9340.489240000001,1.194928311051409,0.9351076107641871,0.6738092122026245,-0.3020451068878174,-0.03674974292516708,-0.06009911745786667,-0.005406439304351807,-0.004740655422210693,-0.04925727844238281,XArbitraryZVertical,0.00467992949956981,0.517679525179734,0.5971186249786539,0.6127277219488194,0.6288042664527893,-0.6239672303199768,-0.4639720022678375,0,0,0,-1,-1,9334.544369125,unknown,2,2025-04-20T22:29:11.819+03:00,2025-04-20T21:57:49.637+03:00,29,3.385239,0,0,23.86625,0,0,2025-04-20T22:29:16.978+03:00,766870157.0812269,0,0.7299995,99.72822,1,0.95,2025-04-20T22:21:30.043+03:00,95,1.583333333333333,2025-04-19T12:19:17.059+03:00,0.05691595998002078,0
2025-04-20T22:29:17.789+03:00,1745177355.696831,40.98571032071658,29.13751301048976,128.3675,-1,-1,-1,-1,30.05240832,23.80645510177979,-9999,9340.509392,0.628662109375,-0.6239471435546875,-0.4782257080078125,9340.499316000001,1.197794840852185,0.9329141406874369,0.6714645377730278,-0.3306296169757843,-0.0460207387804985,-0.05370726436376572,0.0001611709594726562,-0.02226066589355469,-0.03516840934753418,XArbitraryZVertical,0.003679330226984275,0.5166008142691763,0.5977752516126632,0.6130047252518062,0.6289586424827576,-0.6221332550048828,-0.4662201106548309,0,0,0,-1,-1,9334.544369125,unknown,2,2025-04-20T22:29:11.819+03:00,2025-04-20T21:57:49.637+03:00,29,3.385239,0,0,23.86625,0,0,2025-04-20T22:29:16.978+03:00,766870157.0812269,0,0.7299995,99.72822,1,0.95,2025-04-20T22:21:30.043+03:00,95,1.583333333333333,2025-04-19T12:19:17.059+03:00,0.05691595998002078,0
2025-04-20T22:29:17.799+03:00,1745177355.696831,40.98571032071658,29.13751301048976,128.3675,-1,-1,-1,-1,30.05240832,23.80645510177979,-9999,9340.519468,0.61468505859375,-0.6025543212890625,-0.471038818359375,9340.509392,1.20073015408228,0.9307054603154943,0.6690315643905688,-0.3222851753234863,-0.03448718786239624,-0.06102566421031952,0.003306746482849121,-0.02285498380661011,-0.01908376812934875,XArbitraryZVertical,0.002633654181591142,0.5154975305853656,0.5984473528472986,0.6132828690214224,0.6291394233703613,-0.6202266216278076,-0.4685107171535492,0,0,0,-1,-1,9334.544369125,unknown,2,2025-04-20T22:29:11.819+03:00,2025-04-20T21:57:49.637+03:00,29,3.385239,0,0,23.86625,0,0,2025-04-20T22:29:16.978+03:00,766870157.0812269,0,0.7299995,99.72822,1,0.95,2025-04-20T22:21:30.043+03:00,95,1.583333333333333,2025-04-19T12:19:17.059+03:00,0.05691595998002078,0
2025-04-20T22:29:17.809+03:00,1745177355.696831,40.98571032071658,29.13751301048976,128.3675,-1,-1,-1,-1,30.05240832,23.80645510177979,-9999,9340.529544000001,0.601806640625,-0.5889129638671875,-0.43988037109375,9340.519468,1.203339685848424,0.9288303115699218,0.6667469028833295,-0.2758841216564178,-0.01640911772847176,-0.06445954740047455,-0.000731050968170166,-0.005514264106750488,-0.007688760757446289,XArbitraryZVertical,0.00163253316286824,0.5145181013809097,0.5990358996819407,0.6135342970544998,0.6293931007385254,-0.618432879447937,-0.4705369174480438,0,0,0,-1,-1,9334.544369125,unknown,2,2025-04-20T22:29:11.819+03:00,2025-04-20T21:57:49.637+03:00,29,3.385239,0,0,23.86625,0,0,2025-04-20T22:29:16.978+03:00,766870157.0812269,0,0.7299995,99.72822,1,0.95,2025-04-20T22:21:30.043+03:00,95,1.583333333333333,2025-04-19T12:19:17.059+03:00,0.05691595998002078,0
2025-04-20T22:29:17.819+03:00,1745177355.696831,40.98571032071658,29.13751301048976,128.3675,-1,-1,-1,-1,30.05240832,23.80645510177979,-9999,9340.539620000001,0.594573974609375,-0.6033172607421875,-0.3686676025390625,9340.529544000001,1.205452149575966,0.9274738692458776,0.664673777888503,-0.2289586961269379,0.01832303032279015,-0.07239842414855957,-0.01509374380111694,0.0142480731010437,0.001119494438171387,XArbitraryZVertical,0.0006881217820029591,0.5137318176603499,0.5994934538438325,0.6137480517144571,0.6297787427902222,-0.6168023943901062,-0.472158282995224,0,0,0,-1,-1,9334.544369125,unknown,2,2025-04-20T22:29:11.819+03:00,2025-04-20T21:57:49.637+03:00,29,3.385239,0,0,23.86625,0,0,2025-04-20T22:29:16.978+03:00,766870157.0812269,0,0.7299995,99.72822,1,0.95,2025-04-20T22:21:30.043+03:00,95,1.583333333333333,2025-04-19T12:19:17.059+03:00,0.05691595998002078,0
2025-04-20T22:29:17.830+03:00,1745177355.696831,40.98571032071658,29.13751301048976,128.3675,-1,-1,-1,-1,30.05240832,23.80645510177979,-9999,9340.549697,0.5894622802734375,-0.627288818359375,-0.3009185791015625,9340.539620000001,1.206899101648371,0.9267158763748478,0.6627909336931114,-0.2015276104211807,0.02115290425717831,-0.1087425798177719,-0.02854162454605103,0.02640634775161743,0.03345173597335815,XArbitraryZVertical,-0.0001895503832509089,0.5131607409516508,0.599765318107685,0.6139605221071398,0.630348265171051,-0.6153192520141602,-0.4733320474624634,0,0,0,-1,-1,9334.544369125,unknown,2,2025-04-20T22:29:11.819+03:00,2025-04-20T21:57:49.637+03:00,29,3.385239,0,0,23.86625,0,0,2025-04-20T22:29:16.978+03:00,766870157.0812269,0,0.7299995,99.72822,1,0.95,2025-04-20T22:21:30.043+03:00,95,1.583333333333333,2025-04-19T12:19:17.059+03:00,0.05691595998002078,0
2025-04-20T22:29:17.840+03:00,1745177355.696831,40.98571032071658,29.13751301048976,128.3675,-1,-1,-1,-1,30.05240832,23.80645510177979,-9999,9340.559773000001,0.57684326171875,-0.6047210693359375,-0.3281097412109375,9340.549697,1.207840954320413,0.9264574549831036,0.6606559926996858,-0.1655987650156021,0.03712508082389832,-0.1440565586090088,-0.03670084476470947,0.01031768321990967,0.1056153774261475,XArbitraryZVertical,-0.001185093815795111,0.5126959499507008,0.5998592838542633,0.6142558389310513,0.6312747597694397,-0.6136349439620972,-0.4742829203605652,0,0,0,-1,-1,9334.544369125,unknown,2,2025-04-20T22:29:11.819+03:00,2025-04-20T21:57:49.637+03:00,29,3.385239,0,0,23.86625,0,0,2025-04-20T22:29:16.978+03:00,766870157.0812269,0,0.7299995,99.72822,1,0.95,2025-04-20T22:21:30.043+03:00,95,1.583333333333333,2025-04-19T12:19:17.059+03:00,0.05691595998002078,0
2025-04-20T22:29:17.850+03:00,1745177355.696831,40.98571032071658,29.13751301048976,128.3675,-1,-1,-1,-1,30.05240832,23.80645510177979,-9999,9340.569849000001,0.58514404296875,-0.5435943603515625,-0.5093231201171875,9340.559773000001,1.208144737573431,0.9265954203739369,0.6585381902271114,-0.10342887789011,0.02874970436096191,-0.1461367607116699,-0.04291564226150513,-0.01532745361328125,0.1740567088127136,XArbitraryZVertical,-0.002129016331889132,0.5123552043161456,0.5997582483953691,0.6146361620721272,0.6323778629302979,-0.6119613647460938,-0.4749752283096313,0,0,0,-1,-1,9334.544369125,unknown,2,2025-04-20T22:29:11.819+03:00,2025-04-20T21:57:49.637+03:00,29,3.385239,0,0,23.86625,0,0,2025-04-20T22:29:16.978+03:00,766870157.0812269,0,0.7299995,99.72822,1,0.95,2025-04-20T22:21:30.043+03:00,95,1.583333333333333,2025-04-19T12:19:17.059+03:00,0.05691595998002078,0
2025-04-20T22:29:17.860+03:00,1745177355.696831,40.98571032071658,29.13751301048976,128.3675,-1,-1,-1,-1,30.05240832,23.80645510177979,-9999,9340.579925,0.591949462890625,-0.4875030517578125,-0.6627349853515625,9340.569849000001,1.207695965112927,0.9273338012168209,0.6573839279586681,0.01341585163027048,0.09354162216186523,-0.1012298092246056,-0.05644983053207397,0.006327033042907715,0.146821916103363,XArbitraryZVertical,-0.002684923780031544,0.5123738753440743,0.5995131678731627,0.6148574128776504,0.6332930326461792,-0.6110481023788452,-0.4749315977096558,0,0,0,-1,-1,9334.544369125,unknown,2,2025-04-20T22:29:11.819+03:00,2025-04-20T21:57:49.637+03:00,29,3.385239,0,0,23.86625,0,0,2025-04-20T22:29:16.978+03:00,766870157.0812269,0,0.7299995,99.72822,1,0.95,2025-04-20T22:21:30.043+03:00,95,1.583333333333333,2025-04-19T12:19:17.059+03:00,0.05691595998002078,0
2025-04-20T22:29:17.870+03:00,1745177355.696831,40.98571032071658,29.13751301048976,128.3675,-1,-1,-1,-1,30.05240832,23.80645510177979,-9999,9340.590001,0.582794189453125,-0.4710845947265625,-0.622650146484375,9340.579925,1.20608121532673,0.929768866089711,0.6569568907812818,0.1442715972661972,0.1813657432794571,-0.09353593736886978,-0.04951268434524536,0.0671156644821167,-0.03577893972396851,XArbitraryZVertical,-0.0031669101790464,0.5130477078950854,0.5989736697722732,0.6148189176554896,0.6346566677093506,-0.6107099652290344,-0.4735440313816071,0,0,0,-1,-1,9334.544369125,unknown,2,2025-04-20T22:29:11.819+03:00,2025-04-20T21:57:49.637+03:00,29,3.385239,0,0,23.86625,0,0,2025-04-20T22:29:16.978+03:00,766870157.0812269,0,0.7299995,99.72822,1,0.95,2025-04-20T22:21:30.043+03:00,95,1.583333333333333,2025-04-19T12:19:17.059+03:00,0.05691595998002078,0
2025-04-20T22:29:17.880+03:00,1745177355.696831,40.98571032071658,29.13751301048976,128.3675,-1,-1,-1,-1,30.05240832,23.80645510177979,-9999,9340.600077000001,0.6996307373046875,-0.458221435546875,-0.515716552734375,9340.590001,1.203563380896556,0.9329613898473891,0.6577314368749807,0.2631800174713135,0.124193400144577,-0.03618296235799789,-0.04383569955825806,0.1238201260566711,-0.1915012300014496,XArbitraryZVertical,-0.00317417160425063,0.5141722169501323,0.5982670725498387,0.6145675043349109,0.6357851028442383,-0.6113231182098389,-0.4712337255477905,0,0,0,-1,-1,9334.544369125,unknown,2,2025-04-20T22:29:11.819+03:00,2025-04-20T21:57:49.637+03:00,29,3.385239,0,0,23.86625,0,0,2025-04-20T22:29:16.978+03:00,766870157.0812269,0,0.7299995,99.72822,1,0.95,2025-04-20T22:21:30.043+03:00,95,1.583333333333333,2025-04-19T12:19:17.059+03:00,0.05691595998002078,0
2025-04-20T22:29:17.890+03:00,1745177355.696831,40.98571032071658,29.13751301048976,128.3675,-1,-1,-1,-1,30.05240832,23.80645510177979,-9999,9340.610153000001,0.798126220703125,-0.4721832275390625,-0.43463134765625,9340.600077000001,1.200313271397478,0.9351969067586416,0.6591233467161561,0.3087632060050964,-0.05397926270961761,-0.03541703894734383,-0.05335742235183716,0.1413394808769226,-0.153344452381134,XArbitraryZVertical,-0.002463778381095716,0.5151127217852273,0.5973961303823033,0.6146304091309142,0.6361516118049622,-0.6124240756034851,-0.4693056344985962,0,0,0,-1,-1,9334.544369125,unknown,2,2025-04-20T22:29:11.819+03:00,2025-04-20T21:57:49.637+03:00,29,3.385239,0,0,23.86625,0,0,2025-04-20T22:29:16.978+03:00,766870157.0812269,0,0.7299995,99.72822,1,0.95,2025-04-20T22:21:30.043+03:00,95,1.583333333333333,2025-04-19T12:19:17.059+03:00,0.05691595998002078,0
2025-04-20T22:29:17.900+03:00,1745177355.696831,40.98571032071658,29.13751301048976,128.3675,-1,-1,-1,-1,30.05240832,23.80645510177979,-9999,9340.62023,0.7570953369140625,-0.5410003662109375,-0.428436279296875,9340.610153000001,1.196854810528758,0.93639166473777,0.6609030936992968,0.337354302406311,-0.1085091456770897,-0.01341177150607109,0.0637977123260498,0.155608594417572,-0.04781800508499146,XArbitraryZVertical,-0.001235217686016154,0.5157995850457247,0.5965002658041036,0.6149281698224138,0.6358330249786377,-0.613830029964447,-0.4678985178470612,0,0,0,-1,-1,9334.544369125,unknown,2,2025-04-20T22:29:11.819+03:00,2025-04-20T21:57:49.637+03:00,29,3.385239,0,0,23.86625,0,0,2025-04-20T22:29:16.978+03:00,766870157.0812269,0,0.7299995,99.72822,1,0.95,2025-04-20T22:21:30.043+03:00,95,1.583333333333333,2025-04-19T12:19:17.059+03:00,0.05691595998002078,0
2025-04-20T22:29:17.910+03:00,1745177355.696831,40.98571032071658,29.13751301048976,128.3675,-1,-1,-1,-1,30.05240832,23.80645510177979,-9999,9340.630306000001,0.69622802734375,-0.59332275390625,-0.44232177734375,9340.62023,1.193219612000921,0.937585474341045,0.6627896849192483,0.3302242159843445,-0.08733142912387848,-0.02086249738931656,0.1626697182655334,0.143135130405426,0.03182175755500793,XArbitraryZVertical,8.306644406046267e-05,0.5165012025450963,0.5955611297679325,0.6152506055394076,0.635456383228302,-0.6153182983398438,-0.4664530158042908,0,0,0,-1,-1,9334.544369125,unknown,2,2025-04-20T22:29:11.819+03:00,2025-04-20T21:57:49.637+03:00,29,3.385239,0,0,23.86625,0,0,2025-04-20T22:29:16.978+03:00,766870157.0812269,0,0.7299995,99.72822,1,0.95,2025-04-20T22:21:30.043+03:00,95,1.583333333333333,2025-04-19T12:19:17.059+03:00,0.05691595998002078,0
2025-04-20T22:29:17.920+03:00,1745177355.696831,40.98571032071658,29.13751301048976,128.3675,-1,-1,-1,-1,30.05240832,23.80645510177979,-9999,9340.640382000001,0.6669921875,-0.6295318603515625,-0.456268310546875,9340.630306000001,1.189659742372012,0.9390733945416676,0.6644147240923755,0.3277144432067871,-0.05355588719248772,-0.05077552050352097,0.1217533349990845,0.07559812068939209,0.036479651927948,XArbitraryZVertical,0.001194670581129653,0.5172432941205454,0.5946212811294332,0.6155350456804649,0.635342001914978,-0.6165984869003296,-0.4649159014225006,0,0,0,-1,-1,9334.544369125,unknown,2,2025-04-20T22:29:11.819+03:00,2025-04-20T21:57:49.637+03:00,29,3.385239,0,0,23.86625,0,0,2025-04-20T22:29:16.978+03:00,766870157.0812269,0,0.7299995,99.72822,1,0.95,2025-04-20T22:21:30.043+03:00,95,1.583333333333333,2025-04-19T12:19:17.059+03:00,0.05691595998002078,0
2025-04-20T22:29:17.930+03:00,1745177355.696831,40.98571032071658,29.13751301048976,128.3675,-1,-1,-1,-1,30.05240832,23.80645510177979,-9999,9340.650458,0.6432342529296875,-0.6609039306640625,-0.4630126953125,9340.640382000001,1.186132661788497,0.9408895550093297,0.6656093568859266,0.2221928387880325,-0.01173413917422295,-0.08638837933540344,0.06063836812973022,0.02421575784683228,0.02100527286529541,XArbitraryZVertical,0.002034574286223611,0.5180080777680417,0.5936515972646244,0.6158255781549348,0.635589599609375,-0.6175385117530823,-0.4633269906044006,0,0,0,-1,-1,9334.544369125,unknown,2,2025-04-20T22:29:11.819+03:00,2025-04-20T21:57:49.637+03:00,29,3.385239,0,0,23.86625,0,0,2025-04-20T22:29:16.978+03:00,766870157.0812269,0,0.7299995,99.72822,1,0.95,2025-04-20T22:21:30.043+03:00,95,1.583333333333333,2025-04-19T12:19:17.059+03:00,0.05691595998002078,0
2025-04-20T22:29:17.940+03:00,1745177355.696831,40.98571032071658,29.13751301048976,128.3675,-1,-1,-1,-1,30.05240832,23.80645510177979,-9999,9340.660534000001,0.6236114501953125,-0.687896728515625,-0.4623565673828125,9340.650458,1.183448635905608,0.9425418333573645,0.6657462149610186,0.1353038847446442,0.01237319502979517,-0.134539470076561,0.03070622682571411,-0.01188564300537109,0.005958288908004761,XArbitraryZVertical,0.002293471708075844,0.5185378404364053,0.5928399319150344,0.6161606227371228,0.6362859010696411,-0.6176461577415466,-0.4622265100479126,0,0,0,-1,-1,9334.544369125,unknown,2,2025-04-20T22:29:11.819+03:00,2025-04-20T21:57:49.637+03:00,29,3.385239,0,0,23.86625,0,0,2025-04-20T22:29:16.978+03:00,766870157.0812269,0,0.7299995,99.72822,1,0.95,2025-04-20T22:21:30.043+03:00,95,1.583333333333333,2025-04-19T12:19:17.059+03:00,0.05691595998002078,0
2025-04-20T22:29:17.950+03:00,1745177355.696831,40.98571032071658,29.13751301048976,128.3675,-1,-1,-1,-1,30.05240832,23.80645510177979,-9999,9340.670610000001,0.6155853271484375,-0.6762847900390625,-0.4725799560546875,9340.660534000001,1.181449009566407,0.9439977540378802,0.6650730573710251,0.01812664978206158,0.03039054572582245,-0.1554668545722961,0.00593942403793335,-0.04378724098205566,-0.001469224691390991,XArbitraryZVertical,0.0021176372766376,0.5188678224446271,0.5921598814516489,0.616537290372953,0.6372947692871094,-0.6171166300773621,-0.4615434110164642,0,0,0,-1,-1,9334.544369125,unknown,2,2025-04-20T22:29:11.819+03:00,2025-04-20T21:57:49.637+03:00,29,3.385239,0,0,23.86625,0,0,2025-04-20T22:29:16.978+03:00,766870157.0812269,0,0.7299995,99.72822,1,0.95,2025-04-20T22:21:30.043+03:00,95,1.583333333333333,2025-04-19T12:19:17.059+03:00,0.05691595998002078,0
2025-04-20T22:29:17.961+03:00,1745177355.696831,40.98571032071658,29.13751301048976,128.3675,-1,-1,-1,-1,30.05240832,23.80645510177979,-9999,9340.680687,0.61224365234375,-0.6525421142578125,-0.4994354248046875,9340.670610000001,1.180369142785207,0.9449407781579896,0.6637120071410323,-0.02989939786493778,0.02597855217754841,-0.1593851298093796,-0.01479846239089966,-0.07185167074203491,-0.0009226799011230469,XArbitraryZVertical,0.001586601174354706,0.5189225136546086,0.591694702376796,0.6169393624632934,0.6384098529815674,-0.6160450577735901,-0.4614338278770447,0,0,0,-1,-1,9334.544369125,unknown,2,2025-04-20T22:29:11.819+03:00,2025-04-20T21:57:49.637+03:00,29,3.385239,0,0,23.86625,0,0,2025-04-20T22:29:16.978+03:00,766870157.0812269,0,0.7299995,99.72822,1,0.95,2025-04-20T22:21:30.043+03:00,95,1.583333333333333,2025-04-19T12:19:17.059+03:00,0.05691595998002078,0
2025-04-20T22:29:17.971+03:00,1745177355.696831,40.98571032071658,29.13751301048976,128.3675,-1,-1,-1,-1,30.05240832,23.80645510177979,-9999,9340.690763000001,0.62445068359375,-0.6040496826171875,-0.5464630126953125,9340.680687,1.179600677281817,0.9455327826106785,0.6622249201604317,-0.03492718189954758,-0.009993297979235649,-0.1466528177261353,-0.02383971214294434,-0.06141173839569092,-0.01098838448524475,XArbitraryZVertical,0.001029404658236809,0.5188479674820959,0.5913119005042445,0.6173700303749932,0.6394249796867371,-0.6148729920387268,-0.4615914523601532,0,0,0,-1,-1,9334.544369125,unknown,2,2025-04-20T22:29:11.819+03:00,2025-04-20T21:57:49.637+03:00,29,3.385239,0,0,23.86625,0,0,2025-04-20T22:29:16.978+03:00,766870157.0812269,0,0.7299995,99.72822,1,0.95,2025-04-20T22:21:30.043+03:00,95,1.583333333333333,2025-04-19T12:19:17.059+03:00,0.05691595998002078,0
2025-04-20T22:29:17.981+03:00,1745177355.696831,40.98571032071658,29.13751301048976,128.3675,-1,-1,-1,-1,30.05240832,23.80645510177979,-9999,9340.700839000001,0.6453399658203125,-0.56903076171875,-0.571380615234375,9340.690763000001,1.178840293792403,0.9456572033498678,0.6609688084897105,-0.01310424041002989,-0.05229901149868965,-0.1167756393551826,-0.02786457538604736,-0.03866016864776611,-0.03747183084487915,XArbitraryZVertical,0.0006986430867057963,0.5186692226239046,0.5909533051124654,0.6178638125682167,0.6401081681251526,-0.6138818860054016,-0.4619635045528412,0,0,0,-1,-1,9334.544369125,unknown,2,2025-04-20T22:29:11.819+03:00,2025-04-20T21:57:49.637+03:00,29,3.385239,0,0,23.86625,0,0,2025-04-20T22:29:16.978+03:00,766870157.0812269,0,0.7299995,99.72822,1,0.95,2025-04-20T22:21:30.043+03:00,95,1.583333333333333,2025-04-19T12:19:17.059+03:00,0.05691595998002078,0
2025-04-20T22:29:17.991+03:00,1745177355.696831,40.98571032071658,29.13751301048976,128.3675,-1,-1,-1,-1,30.05240832,23.80645510177979,-9999,9340.710915,0.6505279541015625,-0.5618133544921875,-0.539031982421875,9340.700839000001,1.17813260669196,0.9456465284923909,0.6600825297379681,0.004771429579705,-0.03379456698894501,-0.08400331437587738,-0.01609361171722412,0.00913238525390625,-0.08417433500289917,XArbitraryZVertical,0.0005387212689683086,0.518512677198355,0.5906469644437856,0.6182882966754671,0.6405442357063293,-0.6131820678710938,-0.4622886180877686,0,0,0,-1,-1,9334.544369125,unknown,2,2025-04-20T22:29:11.819+03:00,2025-04-20T21:57:49.637+03:00,29,3.385239,0,0,23.86625,0,0,2025-04-20T22:29:16.978+03:00,766870157.0812269,0,0.7299995,99.72822,1,0.95,2025-04-20T22:21:30.043+03:00,95,1.583333333333333,2025-04-19T12:19:17.059+03:00,0.05691595998002078,0
2025-04-20T22:29:18.001+03:00,1745177355.696831,40.98571032071658,29.13751301048976,128.3675,-1,-1,-1,-1,30.05240832,23.80645510177979,-9999,9340.720991,0.6537933349609375,-0.5513916015625,-0.4888763427734375,9340.710915,1.177461855932613,0.9458865565734714,0.6596005548981596,0.02113975025713444,-0.005300074815750122,-0.04861909151077271,0.004445075988769531,0.04377049207687378,-0.1090728044509888,XArbitraryZVertical,0.0004532332827707686,0.5185035465938371,0.5903918719971392,0.6185396583150763,0.6408948302268982,-0.6128012537956238,-0.4623077213764191,0,0,0,-1,-1,9334.544369125,unknown,2,2025-04-20T22:29:11.819+03:00,2025-04-20T21:57:49.637+03:00,29,3.385239,0,0,23.86625,0,0,2025-04-20T22:29:16.978+03:00,766870157.0812269,0,0.7299995,99.72822,1,0.95,2025-04-20T22:21:30.043+03:00,95,1.583333333333333,2025-04-19T12:19:17.059+03:00,0.05691595998002078,0
2025-04-20T22:29:18.011+03:00,1745177355.696831,40.98571032071658,29.13751301048976,128.3675,-1,-1,-1,-1,30.05240832,23.80645510177979,-9999,9340.731067000001,0.6515655517578125,-0.5414276123046875,-0.4455413818359375,9340.720991,1.176774603169128,0.9462659828286121,0.6595101815476442,0.04009506851434708,-0.004291269928216934,-0.03392483666539192,0.009412825107574463,0.05091649293899536,-0.0769350528717041,XArbitraryZVertical,0.0004840372141914159,0.5186051889359218,0.5901704460175652,0.6186655966981509,0.6411150693893433,-0.6127298474311829,-0.4620968401432037,0,0,0,-1,-1,9334.544369125,unknown,2,2025-04-20T22:29:11.819+03:00,2025-04-20T21:57:49.637+03:00,29,3.385239,0,0,23.86625,0,0,2025-04-20T22:29:16.978+03:00,766870157.0812269,0,0.7299995,99.72822,1,0.95,2025-04-20T22:21:30.043+03:00,95,1.583333333333333,2025-04-19T12:19:17.059+03:00,0.05691595998002078,0
2025-04-20T22:29:18.021+03:00,1745177355.696831,40.98571032071658,29.13751301048976,128.3675,-1,-1,-1,-1,30.05240832,23.80645510177979,-9999,9340.741143000001,0.635345458984375,-0.557220458984375,-0.4285888671875,9340.731067000001,1.176057332929413,0.9465993117886975,0.6594394663771519,0.0511944554746151,-0.01709508150815964,-0.04068733379244804,0.01248902082443237,0.06128239631652832,-0.026967853307724,XArbitraryZVertical,0.0005440314477098144,0.5186959467938913,0.5899416031282673,0.618807696176663,0.6413041949272156,-0.6126739382743835,-0.4619084298610687,0,0,0,-1,-1,9334.544369125,unknown,2,2025-04-20T22:29:11.819+03:00,2025-04-20T21:57:49.637+03:00,29,3.385239,0,0,23.86625,0,0,2025-04-20T22:29:16.978+03:00,766870157.0812269,0,0.7299995,99.72822,1,0.95,2025-04-20T22:21:30.043+03:00,95,1.583333333333333,2025-04-19T12:19:17.059+03:00,0.05691595998002078,0
2025-04-20T22:29:18.031+03:00,1745177355.696831,40.98571032071658,29.13751301048976,128.3675,-1,-1,-1,-1,30.05240832,23.80645510177979,-9999,9340.75122,0.6143798828125,-0.5682373046875,-0.4560089111328125,9340.741143000001,1.175081579968547,0.9469919979651098,0.6595803161625332,0.06281915307044983,-0.02591706998646259,-0.02193814888596535,0.01014995574951172,0.07135766744613647,0.01606494188308716,XArbitraryZVertical,0.0007364873979565211,0.5188413499218484,0.5896537916508724,0.618960029418767,0.6414155960083008,-0.612785279750824,-0.4616062343120575,0,0,0,-1,-1,9334.544369125,unknown,2,2025-04-20T22:29:11.819+03:00,2025-04-20T21:57:49.637+03:00,29,3.385239,0,0,23.86625,0,0,2025-04-20T22:29:16.978+03:00,766870157.0812269,0,0.7299995,99.72822,1,0.95,2025-04-20T22:21:30.043+03:00,95,1.583333333333333,2025-04-19T12:19:17.059+03:00,0.05691595998002078,0
2025-04-20T22:29:18.041+03:00,1745177355.696831,40.98571032071658,29.13751301048976,128.3675,-1,-1,-1,-1,30.05240832,23.80645510177979,-9999,9340.761296000001,0.6018829345703125,-0.5635986328125,-0.493438720703125,9340.75122,1.174009257817384,0.9474343958047302,0.6598950143883558,0.1095323339104652,-0.02115054428577423,-0.02734836004674435,-0.006117701530456543,0.0558134913444519,0.03262099623680115,XArbitraryZVertical,0.001007461582357731,0.5190318806017792,0.5893534898849732,0.6190858343848443,0.641463041305542,-0.6130338907241821,-0.461209774017334,0,0,0,-1,-1,9334.544369125,unknown,2,2025-04-20T22:29:11.819+03:00,2025-04-20T21:57:49.637+03:00,29,3.385239,0,0,23.86625,0,0,2025-04-20T22:29:16.978+03:00,766870157.0812269,0,0.7299995,99.72822,1,0.95,2025-04-20T22:21:30.043+03:00,95,1.583333333333333,2025-04-19T12:19:17.059+03:00,0.05691595998002078,0
2025-04-20T22:29:18.051+03:00,1745177355.696831,40.98571032071658,29.13751301048976,128.3675,-1,-1,-1,-1,30.05240832,23.80645510177979,-9999,9340.771372000001,0.6116790771484375,-0.5649566650390625,-0.5099334716796875,9340.761296000001,1.17257994045021,0.9480960051049742,0.6605707982412136,0.1505087912082672,-0.01493445970118046,-0.001221152255311608,-0.02705150842666626,0.0453304648399353,0.004534691572189331,XArbitraryZVertical,0.001448111293254413,0.5193516583547251,0.5889789753094471,0.6191731007016865,0.6414313316345215,-0.6135676503181458,-0.4605435132980347,0,0,0,-1,-1,9334.544369125,unknown,2,2025-04-20T22:29:11.819+03:00,2025-04-20T21:57:49.637+03:00,29,3.385239,0,0,23.86625,0,0,2025-04-20T22:29:16.978+03:00,766870157.0812269,0,0.7299995,99.72822,1,0.95,2025-04-20T22:21:30.043+03:00,95,1.583333333333333,2025-04-19T12:19:17.059+03:00,0.05691595998002078,0
2025-04-20T22:29:18.061+03:00,1745177355.696831,40.98571032071658,29.13751301048976,128.3675,-1,-1,-1,-1,30.05240832,23.80645510177979,-9999,9340.781448,0.6286468505859375,-0.5765228271484375,-0.510986328125,9340.771372000001,1.170887498482047,0.9491426463556357,0.6616366266837389,0.1791908293962479,0.01479340903460979,0.01586399041116238,-0.03949820995330811,0.05081039667129517,-0.03394785523414612,XArbitraryZVertical,0.001997025172663762,0.5198563289621972,0.5885626724324752,0.6191439535450922,0.6413810849189758,-0.6144089698791504,-0.4594908058643341,0,0,0,-1,-1,9334.544369125,unknown,2,2025-04-20T22:29:11.819+03:00,2025-04-20T21:57:49.637+03:00,29,3.385239,0,0,23.86625,0,0,2025-04-20T22:29:16.978+03:00,766870157.0812269,0,0.7299995,99.72822,1,0.95,2025-04-20T22:21:30.043+03:00,95,1.583333333333333,2025-04-19T12:19:17.059+03:00,0.05691595998002078,0
2025-04-20T22:29:18.071+03:00,1745177355.696831,40.98571032071658,29.13751301048976,128.3675,-1,-1,-1,-1,30.05240832,23.80645510177979,-9999,9340.791524,0.6439361572265625,-0.5757598876953125,-0.483734130859375,9340.781448,1.169188022539698,0.9504914364474881,0.6628858227915808,0.1931950598955154,0.04966217651963234,0.02433018013834953,-0.02969616651535034,0.05043739080429077,-0.05175459384918213,XArbitraryZVertical,0.002531448572811627,0.5204845788527263,0.5881636061961251,0.6189933475320558,0.6413751840591431,-0.6153940558433533,-0.4581787884235382,0,0,0,-1,-1,9334.544369125,unknown,2,2025-04-20T22:29:11.819+03:00,2025-04-20T21:57:49.637+03:00,29,3.385239,0,0,23.86625,0,0,2025-04-20T22:29:16.978+03:00,766870157.0812269,0,0.7299995,99.72822,1,0.95,2025-04-20T22:21:30.043+03:00,95,1.583333333333333,2025-04-19T12:19:17.059+03:00,0.05691595998002078,0
2025-04-20T22:29:18.081+03:00,1745177355.696831,40.98571032071658,29.13751301048976,128.3675,-1,-1,-1,-1,30.05240832,23.80645510177979,-9999,9340.801600000001,0.660614013671875,-0.5819549560546875,-0.47021484375,9340.791524,1.167337338999257,0.9520816056202354,0.6642192356177192,0.1980174630880356,0.04553261399269104,0.02687013708055019,-0.01278722286224365,0.03992176055908203,-0.05430418252944946,XArbitraryZVertical,0.003068287977286877,0.5212001168317218,0.5877274345340207,0.6188032307969564,0.6414340138435364,-0.6164445281028748,-0.4566820561885834,0,0,0,-1,-1,9334.544369125,unknown,2,2025-04-20T22:29:11.819+03:00,2025-04-20T21:57:49.637+03:00,29,3.385239,0,0,23.86625,0,0,2025-04-20T22:29:16.978+03:00,766870157.0812269,0,0.7299995,99.72822,1,0.95,2025-04-20T22:21:30.043+03:00,95,1.583333333333333,2025-04-19T12:19:17.059+03:00,0.05691595998002078,0
2025-04-20T22:29:18.092+03:00,1745177355.696831,40.98571032071658,29.13751301048976,128.3675,-1,-1,-1,-1,30.05240832,23.80645510177979,-9999,9340.811677,0.656646728515625,-0.59423828125,-0.4752197265625,9340.801600000001,1.165556651193067,0.953475645054453,0.6654916367300713,0.1835503727197647,0.02078652009367943,0.02212438359856606,0.00250619649887085,0.04168605804443359,-0.02840101718902588,XArbitraryZVertical,0.00362161789085502,0.5218432429581972,0.5873074581048922,0.6186569603679967,0.6414299011230469,-0.6174459457397461,-0.455333024263382,0,0,0,-1,-1,9334.544369125,unknown,2,2025-04-20T22:29:11.819+03:00,2025-04-20T21:57:49.637+03:00,29,3.385239,0,0,23.86625,0,0,2025-04-20T22:29:16.978+03:00,766870157.0812269,0,0.7299995,99.72822,1,0.95,2025-04-20T22:21:30.043+03:00,95,1.583333333333333,2025-04-19T12:19:17.059+03:00,0.05691595998002078,0
2025-04-20T22:29:18.110+03:00,1745177355.696831,40.98571032071658,29.13751301048976,128.3675,-1,-1,-1,-1,30.05240832,23.80645510177979,-9999,9340.821753,0.6406402587890625,-0.6226043701171875,-0.4803314208984375,9340.811677,1.163883906999882,0.9546647993290518,0.6666580205332258,0.1634669303894043,0.01184309273958206,0.02182571031153202,0.01923125982284546,0.03640812635421753,-0.01606133580207825,XArbitraryZVertical,0.004166246094917614,0.5224039991163508,0.5869105994648894,0.6185567864460753,0.64138263463974,-0.6183630228042603,-0.4541534185409546,0,0,0,-1,-1,9334.544369125,unknown,2,2025-04-20T22:29:11.819+03:00,2025-04-20T21:57:49.637+03:00,29,3.385239,0,0,23.86625,0,0,2025-04-20T22:29:16.978+03:00,766870157.0812269,0,0.7299995,99.72822,1,0.95,2025-04-20T22:21:30.043+03:00,95,1.583333333333333,2025-04-19T12:19:17.059+03:00,0.05691595998002078,0
2025-04-20T22:29:18.113+03:00,1745177355.696831,40.98571032071658,29.13751301048976,128.3675,-1,-1,-1,-1,30.05240832,23.80645510177979,-9999,9340.831829000001,0.649200439453125,-0.626068115234375,-0.4748992919921875,9340.821753,1.162572400530983,0.9554600194562275,0.6675716323863383,0.1197601929306984,-0.01713263243436813,0.01735905557870865,0.01536458730697632,0.02484250068664551,-0.02190268039703369,XArbitraryZVertical,0.004633783008073705,0.5228001726587613,0.5865994918385031,0.6185140254539097,0.6412821412086487,-0.6190807223320007,-0.4533170163631439,0,0,0,-1,-1,9334.544369125,unknown,2,2025-04-20T22:29:11.819+03:00,2025-04-20T21:57:49.637+03:00,29,3.385239,0,0,23.86625,0,0,2025-04-20T22:29:16.978+03:00,766870157.0812269,0,0.7299995,99.72822,1,0.95,2025-04-20T22:21:30.043+03:00,95,1.583333333333333,2025-04-19T12:19:17.059+03:00,0.05691595998002078,0
2025-04-20T22:29:18.123+03:00,1745177355.696831,40.98571032071658,29.13751301048976,128.3675,-1,-1,-1,-1,30.05240832,23.80645510177979,-9999,9340.841905000001,0.66339111328125,-0.6193695068359375,-0.460357666015625,9340.831829000001,1.161567559398386,0.95587536575476,0.66824688774841,0.09217497706413269,-0.02563417516648769,0.01157710142433643,-0.0004884600639343262,-0.002993464469909668,-0.02752202749252319,XArbitraryZVertical,0.005039362550348586,0.5230391570019218,0.5863584312846493,0.6185372497739786,0.6411286592483521,-0.6196109056472778,-0.4528093039989471,0,0,0,-1,-1,9334.544369125,unknown,2,2025-04-20T22:29:11.819+03:00,2025-04-20T21:57:49.637+03:00,29,3.385239,0,0,23.86625,0,0,2025-04-20T22:29:16.978+03:00,766870157.0812269,0,0.7299995,99.72822,1,0.95,2025-04-20T22:21:30.043+03:00,95,1.583333333333333,2025-04-19T12:19:17.059+03:00,0.05691595998002078,0
2025-04-20T22:29:18.132+03:00,1745177355.696831,40.98571032071658,29.13751301048976,128.3675,-1,-1,-1,-1,30.05240832,23.80645510177979,-9999,9340.851981,0.67242431640625,-0.600616455078125,-0.4693450927734375,9340.841905000001,1.160692720814786,0.9560261273200253,0.6688114043409044,0.08815547078847885,-0.04971101507544518,0.006884078960865736,0.00828927755355835,-0.006014227867126465,-0.02238839864730835,XArbitraryZVertical,0.005445321184974433,0.523177730203609,0.5861456976591859,0.6186182601256363,0.6409111022949219,-0.6200538873672485,-0.4525108337402344,0,0,0,-1,-1,9334.544369125,unknown,2,2025-04-20T22:29:11.819+03:00,2025-04-20T21:57:49.637+03:00,29,3.385239,0,0,23.86625,0,0,2025-04-20T22:29:16.978+03:00,766870157.0812269,0,0.7299995,99.72822,1,0.95,2025-04-20T22:21:30.043+03:00,95,1.583333333333333,2025-04-19T12:19:17.059+03:00,0.05691595998002078,0
2025-04-20T22:29:18.142+03:00,1745177355.696831,40.98571032071658,29.13751301048976,128.3675,-1,-1,-1,-1,30.05240832,23.80645510177979,-9999,9340.862057,0.6771697998046875,-0.5965576171875,-0.4803009033203125,9340.851981,1.159833654283736,0.9558880424430867,0.6693777990791919,0.09568342566490173,-0.07040617614984512,0.004330906085669994,0.02282941341400146,0.001128673553466797,-0.007960915565490723,XArbitraryZVertical,0.005932633403316324,0.5232269777038362,0.5859372043832297,0.6187696640695531,0.6405616402626038,-0.6204981803894043,-0.4523966610431671,0,0,0,-1,-1,9334.544369125,unknown,2,2025-04-20T22:29:11.819+03:00,2025-04-20T21:57:49.637+03:00,29,3.385239,0,0,23.86625,0,0,2025-04-20T22:29:16.978+03:00,766870157.0812269,0,0.7299995,99.72822,1,0.95,2025-04-20T22:21:30.043+03:00,95,1.583333333333333,2025-04-19T12:19:17.059+03:00,0.05691595998002078,0
2025-04-20T22:29:18.152+03:00,1745177355.696831,40.98571032071658,29.13751301048976,128.3675,-1,-1,-1,-1,30.05240832,23.80645510177979,-9999,9340.872134000001,0.6638031005859375,-0.6095733642578125,-0.4823150634765625,9340.862057,1.158899892473867,0.9556252971487165,0.6698699386707548,0.08956774324178696,-0.08145137131214142,-0.006966755725443363,0.03223103284835815,0.02026760578155518,-0.0169563889503479,XArbitraryZVertical,0.006446875179015794,0.5232247324069877,0.5856975552533136,0.6189931895301845,0.6401932835578918,-0.6208840608596802,-0.4523886442184448,0,0,0,-1,-1,9334.544369125,unknown,2,2025-04-20T22:29:11.819+03:00,2025-04-20T21:57:49.637+03:00,29,3.385239,0,0,23.86625,0,0,2025-04-20T22:29:16.978+03:00,766870157.0812269,0,0.7299995,99.72822,1,0.95,2025-04-20T22:21:30.043+03:00,95,1.583333333333333,2025-04-19T12:19:17.059+03:00,0.05691595998002078,0
2025-04-20T22:29:18.162+03:00,1745177355.696831,40.98571032071658,29.13751301048976,128.3675,-1,-1,-1,-1,30.05240832,23.80645510177979,-9999,9340.88221,0.6553955078125,-0.6161651611328125,-0.4828948974609375,9340.872134000001,1.157992809760931,0.9552683229084794,0.6701117496165929,0.07300381362438202,-0.08284140378236771,-0.02415326610207558,0.03726059198379517,0.02451598644256592,-0.02777040004730225,XArbitraryZVertical,0.006883556905499818,0.5231514016884844,0.5854401641981832,0.6192939229385491,0.6399091482162476,-0.6210736036300659,-0.4525304436683655,0,0,0,-1,-1,9334.544369125,unknown,2,2025-04-20T22:29:11.819+03:00,2025-04-20T21:57:49.637+03:00,29,3.385239,0,0,23.86625,0,0,2025-04-20T22:29:16.978+03:00,766870157.0812269,0,0.7299995,99.72822,1,0.95,2025-04-20T22:21:30.043+03:00,95,1.583333333333333,2025-04-19T12:19:17.059+03:00,0.05691595998002078,0
2025-04-20T22:29:18.172+03:00,1745177355.696831,40.98571032071658,29.13751301048976,128.3675,-1,-1,-1,-1,30.05240832,23.80645510177979,-9999,9340.892286,0.64483642578125,-0.6124267578125,-0.4831695556640625,9340.88221,1.157124275181179,0.9550099890966004,0.6700986798397308,0.05934153124690056,-0.06811625510454178,-0.03928561508655548,0.02400416135787964,0.01148998737335205,-0.02961450815200806,XArbitraryZVertical,0.007181219421626578,0.5230661501128153,0.5851689053312049,0.6196188928485923,0.6397988796234131,-0.6210633516311646,-0.4527004659175873,0,0,0,-1,-1,9334.544369125,unknown,2,2025-04-20T22:29:11.819+03:00,2025-04-20T21:57:49.637+03:00,29,3.385239,0,0,23.86625,0,0,2025-04-20T22:29:16.978+03:00,766870157.0812269,0,0.7299995,99.72822,1,0.95,2025-04-20T22:21:30.043+03:00,95,1.583333333333333,2025-04-19T12:19:17.059+03:00,0.05691595998002078,0
2025-04-20T22:29:18.182+03:00,1745177355.696831,40.98571032071658,29.13751301048976,128.3675,-1,-1,-1,-1,30.05240832,23.80645510177979,-9999,9340.902362000001,0.637359619140625,-0.600555419921875,-0.484771728515625,9340.892286,1.156268506254645,0.9548899265242206,0.6699236428180733,0.04525487497448921,-0.05990719795227051,-0.0472332164645195,0.01556229591369629,0.004760980606079102,-0.03005480766296387,XArbitraryZVertical,0.007371411666792668,0.5229967913173464,0.5848854520276067,0.6199426804962507,0.6398332118988037,-0.6209261417388916,-0.4528400301933289,0,0,0,-1,-1,9334.544369125,unknown,2,2025-04-20T22:29:11.819+03:00,2025-04-20T21:57:49.637+03:00,29,3.385239,0,0,23.86625,0,0,2025-04-20T22:29:16.978+03:00,766870157.0812269,0,0.7299995,99.72822,1,0.95,2025-04-20T22:21:30.043+03:00,95,1.583333333333333,2025-04-19T12:19:17.059+03:00,0.05691595998002078,0
2025-04-20T22:29:18.192+03:00,1745177355.696831,40.98571032071658,29.13751301048976,128.3675,-1,-1,-1,-1,30.05240832,23.80645510177979,-9999,9340.912438000001,0.6392364501953125,-0.5850372314453125,-0.47491455078125,9340.902362000001,1.155461737706467,0.954748299795412,0.6697344884394286,0.05260919407010078,-0.06522659212350845,-0.04012337699532509,0.004971444606781006,0.00835108757019043,-0.0301709771156311,XArbitraryZVertical,0.007549546894559335,0.5229184759213549,0.5846154772962389,0.6202612416271306,0.639864981174469,-0.6207778453826904,-0.452998548746109,0,0,0,-1,-1,9334.544369125,unknown,2,2025-04-20T22:29:11.819+03:00,2025-04-20T21:57:49.637+03:00,29,3.385239,0,0,23.86625,0,0,2025-04-20T22:29:16.978+03:00,766870157.0812269,0,0.7299995,99.72822,1,0.95,2025-04-20T22:21:30.043+03:00,95,1.583333333333333,2025-04-19T12:19:17.059+03:00,0.05691595998002078,0
2025-04-20T22:29:18.202+03:00,1745177355.696831,40.98571032071658,29.13751301048976,128.3675,-1,-1,-1,-1,30.05240832,23.80645510177979,-9999,9340.922514,0.6401519775390625,-0.5802154541015625,-0.471710205078125,9340.912438000001,1.154597422121314,0.9545921872955589,0.6697584210864104,0.07117482274770737,-0.06142047047615051,-0.03678007796406746,-0.002422451972961426,0.02024120092391968,-0.03168183565139771,XArbitraryZVertical,0.007830523793136977,0.5228707027505883,0.5843492150123188,0.6205488277457091,0.6397820711135864,-0.6207966208457947,-0.4530898332595825,0,0,0,-1,-1,9334.544369125,unknown,2,2025-04-20T22:29:11.819+03:00,2025-04-20T21:57:49.637+03:00,29,3.385239,0,0,23.86625,0,0,2025-04-20T22:29:16.978+03:00,766870157.0812269,0,0.7299995,99.72822,1,0.95,2025-04-20T22:21:30.043+03:00,95,1.583333333333333,2025-04-19T12:19:17.059+03:00,0.05691595998002078,0
2025-04-20T22:29:18.213+03:00,1745177355.696831,40.98571032071658,29.13751301048976,128.3675,-1,-1,-1,-1,30.05240832,23.80645510177979,-9999,9340.93259,0.6406707763671875,-0.5733642578125,-0.471832275390625,9340.922514,1.153546194170887,0.9546092550151787,0.669915876717011,0.08422563970088959,-0.0593290850520134,-0.03160635381937027,-0.0004736185073852539,0.03588283061981201,-0.02189207077026367,XArbitraryZVertical,0.008162200595811513,0.5228978687792611,0.5840391355993141,0.6208134982388001,0.639710009098053,-0.6209200620651245,-0.4530223906040192,0,0,0,-1,-1,9334.544369125,unknown,2,2025-04-20T22:29:11.819+03:00,2025-04-20T21:57:49.637+03:00,29,3.385239,0,0,23.86625,0,0,2025-04-20T22:29:16.978+03:00,766870157.0812269,0,0.7299995,99.72822,1,0.95,2025-04-20T22:21:30.043+03:00,95,1.583333333333333,2025-04-19T12:19:17.059+03:00,0.05691595998002078,0
2025-04-20T22:29:18.223+03:00,1745177355.696831,40.98571032071658,29.13751301048976,128.3675,-1,-1,-1,-1,30.05240832,23.80645510177979,-9999,9340.942667000001,0.6439971923828125,-0.5811004638671875,-0.461517333984375,9340.93259,1.152444853397542,0.9546849405554672,0.6700956791362239,0.07839065790176392,-0.06368309259414673,-0.02608082816004753,0.0004987716674804688,0.04084551334381104,-0.01880067586898804,XArbitraryZVertical,0.008498687781270308,0.5229465041174352,0.5837159073479523,0.6210719557524745,0.639653205871582,-0.6210609674453735,-0.4529094398021698,0,0,0,-1,-1,9334.544369125,unknown,2,2025-04-20T22:29:11.819+03:00,2025-04-20T21:57:49.637+03:00,29,3.385239,0,0,23.86625,0,0,2025-04-20T22:29:16.978+03:00,766870157.0812269,0,0.7299995,99.72822,1,0.95,2025-04-20T22:21:30.043+03:00,95,1.583333333333333,2025-04-19T12:19:17.059+03:00,0.05691595998002078,0
2025-04-20T22:29:18.233+03:00,1745177355.696831,40.98571032071658,29.13751301048976,128.3675,-1,-1,-1,-1,30.05240832,23.80645510177979,-9999,9340.952743,0.64093017578125,-0.6060333251953125,-0.46527099609375,9340.942667000001,1.151411658800641,0.9547383390135317,0.6700523834715637,0.06114349141716957,-0.05481609702110291,-0.04303264617919922,0.0009714365005493164,0.04766285419464111,-0.01894137263298035,XArbitraryZVertical,0.008736225428921137,0.522951507894998,0.5833907956611341,0.621369778442199,0.6396992802619934,-0.6210270524024963,-0.4528907835483551,0,0,0,-1,-1,9334.544369125,unknown,2,2025-04-20T22:29:11.819+03:00,2025-04-20T21:57:49.637+03:00,29,3.385239,0,0,23.86625,0,0,2025-04-20T22:29:16.978+03:00,766870157.0812269,0,0.7299995,99.72822,1,0.95,2025-04-20T22:21:30.043+03:00,95,1.583333333333333,2025-04-19T12:19:17.059+03:00,0.05691595998002078,0
2025-04-20T22:29:18.243+03:00,1745177355.696831,40.98571032071658,29.13751301048976,128.3675,-1,-1,-1,-1,30.05240832,23.80645510177979,-9999,9340.962819,0.6477203369140625,-0.6008148193359375,-0.4690093994140625,9340.952743,1.150408619031316,0.9548023850809108,0.6698353043292929,0.05834770575165749,-0.0621911883354187,-0.05740026757121086,0.004158854484558105,0.03975647687911987,-0.00858953595161438,XArbitraryZVertical,0.008894508104066836,0.522931195772864,0.5830571021908924,0.6216977457136162,0.6398382782936096,-0.6208568811416626,-0.4529277086257935,0,0,0,-1,-1,9334.544369125,unknown,2,2025-04-20T22:29:11.819+03:00,2025-04-20T21:57:49.637+03:00,29,3.385239,0,0,23.86625,0,0,2025-04-20T22:29:16.978+03:00,766870157.0812269,0,0.7299995,99.72822,1,0.95,2025-04-20T22:21:30.043+03:00,95,1.583333333333333,2025-04-19T12:19:17.059+03:00,0.05691595998002078,0
2025-04-20T22:29:18.253+03:00,1745177355.696831,40.98571032071658,29.13751301048976,128.3675,-1,-1,-1,-1,30.05240832,23.80645510177979,-9999,9340.972895000001,0.6511077880859375,-0.58447265625,-0.47808837890625,9340.962819,1.149416529976057,0.9547879762810245,0.6697174872649282,0.07285767793655396,-0.05634395033121109,-0.04197843372821808,0.001038610935211182,0.01473122835159302,-0.01229166984558105,XArbitraryZVertical,0.009111837397033608,0.5229028118442595,0.5827364415391438,0.6220191642780608,0.6398915648460388,-0.6207644939422607,-0.4529792368412018,0,0,0,-1,-1,9334.544369125,unknown,2,2025-04-20T22:29:11.819+03:00,2025-04-20T21:57:49.637+03:00,29,3.385239,0,0,23.86625,0,0,2025-04-20T22:29:16.978+03:00,766870157.0812269,0,0.7299995,99.72822,1,0.95,2025-04-20T22:21:30.043+03:00,95,1.583333333333333,2025-04-19T12:19:17.059+03:00,0.05691595998002078,0
2025-04-20T22:29:18.263+03:00,1745177355.696831,40.98571032071658,29.13751301048976,128.3675,-1,-1,-1,-1,30.05240832,23.80645510177979,-9999,9340.982971000001,0.644622802734375,-0.5698699951171875,-0.484130859375,9340.972895000001,1.148215731755415,0.9548647038392757,0.6697698961462325,0.1033610552549362,-0.07074413448572159,-0.0442466177046299,0.007820665836334229,0.01999086141586304,-0.0160980224609375,XArbitraryZVertical,0.009423982007588781,0.5229297832393801,0.582368668765083,0.622336012385312,0.6398996114730835,-0.6208056211471558,-0.4529112577438354,0,0,0,-1,-1,9334.544369125,unknown,2,2025-04-20T22:29:11.819+03:00,2025-04-20T21:57:49.637+03:00,29,3.385239,0,0,23.86625,0,0,2025-04-20T22:29:16.978+03:00,766870157.0812269,0,0.7299995,99.72822,1,0.95,2025-04-20T22:21:30.043+03:00,95,1.583333333333333,2025-04-19T12:19:17.059+03:00,0.05691595998002078,0
2025-04-20T22:29:18.273+03:00,1745177355.696831,40.98571032071658,29.13751301048976,128.3675,-1,-1,-1,-1,30.05240832,23.80645510177979,-9999,9340.993047,0.6510162353515625,-0.5474395751953125,-0.49041748046875,9340.982971000001,1.14665434889674,0.9549348427758529,0.6701822190222579,0.1567214727401733,-0.09677173942327499,-0.02645030803978443,0.01138532161712646,0.03665614128112793,-0.02536976337432861,XArbitraryZVertical,0.009974035433525579,0.5230117122556119,0.5819254718187964,0.6226731990470986,0.639722466468811,-0.6211287975311279,-0.4527185261249542,0,0,0,-1,-1,9334.544369125,unknown,2,2025-04-20T22:29:11.819+03:00,2025-04-20T21:57:49.637+03:00,29,3.385239,0,0,23.86625,0,0,2025-04-20T22:29:16.978+03:00,766870157.0812269,0,0.7299995,99.72822,1,0.95,2025-04-20T22:21:30.043+03:00,95,1.583333333333333,2025-04-19T12:19:17.059+03:00,0.05691595998002078,0
2025-04-20T22:29:18.283+03:00,1745177355.696831,40.98571032071658,29.13751301048976,128.3675,-1,-1,-1,-1,30.05240832,23.80645510177979,-9999,9341.003124000001,0.640045166015625,-0.5306854248046875,-0.4998931884765625,9340.993047,1.144567801094526,0.9550472377000248,0.6710694260897228,0.2342619448900223,-0.1226892173290253,-0.007957118563354015,0.005299568176269531,0.05195391178131104,-0.03180259466171265,XArbitraryZVertical,0.01083609544473911,0.5231811314954573,0.5813677624265907,0.6230373135790587,0.6393232345581055,-0.6218238472938538,-0.4523281753063202,0,0,0,-1,-1,9334.544369125,unknown,2,2025-04-20T22:29:11.819+03:00,2025-04-20T21:57:49.637+03:00,29,3.385239,0,0,23.86625,0,0,2025-04-20T22:29:16.978+03:00,766870157.0812269,0,0.7299995,99.72822,1,0.95,2025-04-20T22:21:30.043+03:00,95,1.583333333333333,2025-04-19T12:19:17.059+03:00,0.05691595998002078,0
2025-04-20T22:29:18.293+03:00,1745177355.696831,40.98571032071658,29.13751301048976,128.3675,-1,-1,-1,-1,30.05240832,23.80645510177979,-9999,9341.013200000001,0.628509521484375,-0.5274200439453125,-0.5216827392578125,9341.003124000001,1.141769950655197,0.955432488865244,0.67253124339347,0.3015318214893341,-0.1373539119958878,0.01241020392626524,0.01226168870925903,0.07552850246429443,-0.03886079788208008,XArbitraryZVertical,0.0120316421163572,0.523523567233435,0.5806491625082745,0.623397748363412,0.6387544870376587,-0.6229680180549622,-0.4515566229820251,0,0,0,-1,-1,9334.544369125,unknown,2,2025-04-20T22:29:11.819+03:00,2025-04-20T21:57:49.637+03:00,29,3.385239,0,0,23.86625,0,0,2025-04-20T22:29:16.978+03:00,766870157.0812269,0,0.7299995,99.72822,1,0.95,2025-04-20T22:21:30.043+03:00,95,1.583333333333333,2025-04-19T12:19:17.059+03:00,0.05691595998002078,0
2025-04-20T22:29:18.303+03:00,1745177355.696831,40.98571032071658,29.13751301048976,128.3675,-1,-1,-1,-1,30.05240832,23.80645510177979,-9999,9341.023276,0.6265106201171875,-0.5458984375,-0.56402587890625,9341.013200000001,1.138550716984139,0.9559422305784633,0.6745476475816111,0.3620172441005707,-0.1572951227426529,0.04732691124081612,0.002087891101837158,0.09385865926742554,-0.04938763380050659,XArbitraryZVertical,0.01352084611886457,0.5239889837591687,0.5798574593608189,0.6237130527440032,0.6379572153091431,-0.624544084072113,-0.4505054652690887,0,0,0,-1,-1,9334.544369125,unknown,2,2025-04-20T22:29:11.819+03:00,2025-04-20T21:57:49.637+03:00,29,3.385239,0,0,23.86625,0,0,2025-04-20T22:29:16.978+03:00,766870157.0812269,0,0.7299995,99.72822,1,0.95,2025-04-20T22:21:30.043+03:00,95,1.583333333333333,2025-04-19T12:19:17.059+03:00,0.05691595998002078,0
2025-04-20T22:29:18.313+03:00,1745177355.696831,40.98571032071658,29.13751301048976,128.3675,-1,-1,-1,-1,30.05240832,23.80645510177979,-9999,9341.033352,0.62506103515625,-0.5576019287109375,-0.6228485107421875,9341.023276,1.134986894029,0.9564613017933951,0.6773406637298705,0.4069189429283142,-0.1882948577404022,0.09917332977056503,-0.008253574371337891,0.09930294752120972,-0.07251566648483276,XArbitraryZVertical,0.01540521550819172,0.5245752227191862,0.5790391818540761,0.6239367476162641,0.6367630958557129,-0.6267229914665222,-0.4491670429706573,0,0,0,-1,-1,9334.544369125,unknown,2,2025-04-20T22:29:11.819+03:00,2025-04-20T21:57:49.637+03:00,29,3.385239,0,0,23.86625,0,0,2025-04-20T22:29:16.978+03:00,766870157.0812269,0,0.7299995,99.72822,1,0.95,2025-04-20T22:21:30.043+03:00,95,1.583333333333333,2025-04-19T12:19:17.059+03:00,0.05691595998002078,0
2025-04-20T22:29:18.323+03:00,1745177355.696831,40.98571032071658,29.13751301048976,128.3675,-1,-1,-1,-1,30.05240832,23.80645510177979,-9999,9341.043428000001,0.6331787109375,-0.5528717041015625,-0.6695556640625,9341.033352,1.131654502717976,0.9563642502380528,0.6807021020437349,0.4211585223674774,-0.2480794340372086,0.1652636379003525,-0.00848388671875,0.08344036340713501,-0.1160140037536621,XArbitraryZVertical,0.01763311538007484,0.5250553924167064,0.5783471648104445,0.6241157268017528,0.6349945068359375,-0.629338800907135,-0.4480118155479431,0,0,0,-1,-1,9334.544369125,unknown,2,2025-04-20T22:29:11.819+03:00,2025-04-20T21:57:49.637+03:00,29,3.385239,0,0,23.86625,0,0,2025-04-20T22:29:16.978+03:00,766870157.0812269,0,0.7299995,99.72822,1,0.95,2025-04-20T22:21:30.043+03:00,95,1.583333333333333,2025-04-19T12:19:17.059+03:00,0.05691595998002078,0
2025-04-20T22:29:18.334+03:00,1745177355.696831,40.98571032071658,29.13751301048976,128.3675,-1,-1,-1,-1,30.05240832,23.80645510177979,-9999,9341.053504000001,0.63726806640625,-0.5884857177734375,-0.6627655029296875,9341.043428000001,1.128273315115504,0.9556359006385504,0.684814606319136,0.4759381413459778,-0.3174909949302673,0.2025257796049118,-0.007487952709197998,0.07492750883102417,-0.1758716702461243,XArbitraryZVertical,0.02035420427753144,0.5254496287081617,0.5777105110748716,0.6242907069734914,0.632548987865448,-0.6325294375419617,-0.4469767808914185,0,0,0,-1,-1,9334.544369125,unknown,2,2025-04-20T22:29:11.819+03:00,2025-04-20T21:57:49.637+03:00,29,3.385239,0,0,23.86625,0,0,2025-04-20T22:29:16.978+03:00,766870157.0812269,0,0.7299995,99.72822,1,0.95,2025-04-20T22:21:30.043+03:00,95,1.583333333333333,2025-04-19T12:19:17.059+03:00,0.05691595998002078,0
