loggingTime(txt),locationTimestamp_since1970(s),locationLatitude(WGS84),locationLongitude(WGS84),locationAltitude(m),locationSpeed(m/s),locationSpeedAccuracy(m/s),locationCourse(°),locationCourseAccuracy(°),locationVerticalAccuracy(m),locationHorizontalAccuracy(m),locationFloor(Z),accelerometerTimestamp_sinceReboot(s),accelerometerAccelerationX(G),accelerometerAccelerationY(G),accelerometerAccelerationZ(G),motionTimestamp_sinceReboot(s),motionYaw(rad),motionRoll(rad),motionPitch(rad),motionRotationRateX(rad/s),motionRotationRateY(rad/s),motionRotationRateZ(rad/s),motionUserAccelerationX(G),motionUserAccelerationY(G),motionUserAccelerationZ(G),motionAttitudeReferenceFrame(txt),motionQuaternionX(R),motionQuaternionY(R),motionQuaternionZ(R),motionQuaternionW(R),motionGravityX(G),motionGravityY(G),motionGravityZ(G),motionMagneticFieldX(µT),motionMagneticFieldY(µT),motionMagneticFieldZ(µT),motionHeading(°),motionMagneticFieldCalibrationAccuracy(Z),activityTimestamp_sinceReboot(s),activity(txt),activityActivityConfidence(Z),activityActivityStartDate(txt),pedometerStartDate(txt),pedometerNumberofSteps(N),pedometerAverageActivePace(s/m),pedometerCurrentPace(s/m),pedometerCurrentCadence(steps/s),pedometerDistance(m),pedometerFloorAscended(N),pedometerFloorDescended(N),pedometerEndDate(txt),altimeterTimestamp_sinceReboot(s),altimeterReset(bool),altimeterRelativeAltitude(m),altimeterPressure(kPa),batteryState(N),batteryLevel(R),heartRateBPMTimestamp(txt),heartRateBPM(N),heartRateBPS(R),heartRateVariabilityTimestamp(txt),heartRateVariability(ms),label
2025-04-22T17:22:04.431+03:00,1745331723.945964,40.95232391954568,29.14021283107537,77.34093,-1,-1,-1,-1,30,35.71393105997151,-9999,39500.43497225,-0.8110809326171875,0.401947021484375,-0.504852294921875,39500.42489625001,-2.604769013972653,-0.9743629767799321,-0.3997998978441027,0.006225406657904387,0.02738828212022781,-0.003635681001469493,0.04588204622268677,-0.1083351373672485,0.0485880970954895,XArbitraryZVertical,-0.4889206300813415,0.04750781558080987,-0.8103956046039099,0.3193092693889327,-0.7620989084243774,0.3892340362071991,-0.5173992514610291,0,0,0,-1,-1,39498.59238575,unknown,2,2025-04-22T17:22:02.558+03:00,2025-04-21T17:08:51.449+03:00,9047,1.057548,0,0,7544.334,7,22,2025-04-22T17:18:07.832+03:00,767024494.2872827,0,-11.22,100.3375,1,0.4,2025-04-22T17:20:54.408+03:00,76,1.266666666666667,2025-04-22T14:20:19.516+03:00,0.02197104130929222,0
2025-04-22T17:22:04.433+03:00,1745331723.945964,40.95232391954568,29.14021283107537,77.34093,-1,-1,-1,-1,30,35.71393105997151,-9999,39500.44504725,-0.7715606689453125,0.3850555419921875,-0.5212554931640625,39500.43497225,-2.604691539473293,-0.9739911939905591,-0.3997190320245904,0.009885655716061592,0.04134324565529823,0.003848600434139371,-0.01827973127365112,-0.05619761347770691,0.04844659566879272,XArbitraryZVertical,-0.4887661540983257,0.04751347753106386,-0.8104858564766541,0.3193158247755061,-0.7619324922561646,0.3891595304012299,-0.5177002549171448,0,0,0,-1,-1,39498.59238575,unknown,2,2025-04-22T17:22:02.558+03:00,2025-04-21T17:08:51.449+03:00,9047,1.057548,0,0,7544.334,7,22,2025-04-22T17:18:07.832+03:00,767024494.2872827,0,-11.22,100.3375,1,0.4,2025-04-22T17:20:54.408+03:00,76,1.266666666666667,2025-04-22T14:20:19.516+03:00,0.02197104130929222,0
2025-04-22T17:22:04.434+03:00,1745331723.945964,40.95232391954568,29.14021283107537,77.34093,-1,-1,-1,-1,30,35.71393105997151,-9999,39500.45512325,-0.7347259521484375,0.3689727783203125,-0.5228729248046875,39500.44504725,-2.604693397598216,-0.9737988014108757,-0.399687500371426,-0.01313510816544294,-8.022785186767578e-05,0.003078613895922899,-0.04794073104858398,0.01405236124992371,0.008240580558776855,XArbitraryZVertical,-0.488685938509111,0.04753110018653657,-0.8105377218926759,0.3193042485567436,-0.7618430256843567,0.3891305029392242,-0.5178536772727966,0,0,0,-1,-1,39498.59238575,unknown,2,2025-04-22T17:22:02.558+03:00,2025-04-21T17:08:51.449+03:00,9047,1.057548,0,0,7544.334,7,22,2025-04-22T17:18:07.832+03:00,767024494.2872827,0,-11.22,100.3375,1,0.4,2025-04-22T17:20:54.408+03:00,76,1.266666666666667,2025-04-22T14:20:19.516+03:00,0.02197104130929222,0
2025-04-22T17:22:04.435+03:00,1745331723.945964,40.95232391954568,29.14021283107537,77.34093,-1,-1,-1,-1,30,35.71393105997151,-9999,39500.46519925,-0.7462310791015625,0.3725738525390625,-0.531768798828125,39500.45512325,-2.604779388364533,-0.9739007304246994,-0.3998431734440792,-0.01685980521142483,-0.01821981742978096,0.001007473561912775,-0.002955138683319092,-0.006736159324645996,-0.003360986709594727,XArbitraryZVertical,-0.4887360997190466,0.04760275232489679,-0.8105039507806081,0.3193026392174336,-0.7618457078933716,0.3892738819122314,-0.5177419781684875,0,0,0,-1,-1,39498.59238575,unknown,2,2025-04-22T17:22:02.558+03:00,2025-04-21T17:08:51.449+03:00,9047,1.057548,0,0,7544.334,7,22,2025-04-22T17:18:07.832+03:00,767024494.2872827,0,-11.22,100.3375,1,0.4,2025-04-22T17:20:54.408+03:00,76,1.266666666666667,2025-04-22T14:20:19.516+03:00,0.02197104130929222,0
2025-04-22T17:22:04.445+03:00,1745331723.945964,40.95232391954568,29.14021283107537,77.34093,-1,-1,-1,-1,30,35.71393105997151,-9999,39500.47527425001,-0.769256591796875,0.4007720947265625,-0.5339813232421875,39500.46519925,-2.604815313832646,-0.9739317223788883,-0.3999150000957703,0.01135365664958954,0.005140833090990782,-0.004732870031148195,0.02743321657180786,-0.02044367790222168,-0.006680965423583984,XArbitraryZVertical,-0.4887528301284609,0.04763745653798306,-0.8104916868059792,0.3193030367869436,-0.7618386149406433,0.3893400430679321,-0.5177026987075806,0,0,0,-1,-1,39498.59238575,unknown,2,2025-04-22T17:22:02.558+03:00,2025-04-21T17:08:51.449+03:00,9047,1.057548,0,0,7544.334,7,22,2025-04-22T17:18:07.832+03:00,767024494.2872827,0,-11.22,100.3375,1,0.4,2025-04-22T17:20:54.408+03:00,76,1.266666666666667,2025-04-22T14:20:19.516+03:00,0.02197104130929222,0
2025-04-22T17:22:04.456+03:00,1745331723.945964,40.95232391954568,29.14021283107537,77.34093,-1,-1,-1,-1,30,35.71393105997151,-9999,39500.48535025,-0.7638397216796875,0.4094696044921875,-0.527587890625,39500.47527425001,-2.604561288010085,-0.973697637135629,-0.3997093692656248,0.04834283143281937,0.01452661119401455,-0.006922787521034479,0.01294344663619995,-0.01448646187782288,-0.0143311619758606,XArbitraryZVertical,-0.4886495981342417,0.04752435960514212,-0.8105382295358026,0.3193597394086949,-0.7617835998535156,0.3891506493091583,-0.517926037311554,0,0,0,-1,-1,39498.59238575,unknown,2,2025-04-22T17:22:02.558+03:00,2025-04-21T17:08:51.449+03:00,9047,1.057548,0,0,7544.334,7,22,2025-04-22T17:18:07.832+03:00,767024494.2872827,0,-11.22,100.3375,1,0.4,2025-04-22T17:20:54.408+03:00,76,1.266666666666667,2025-04-22T14:20:19.516+03:00,0.02197104130929222,0
2025-04-22T17:22:04.465+03:00,1745331723.945964,40.95232391954568,29.14021283107537,77.34093,-1,-1,-1,-1,30,35.71393105997151,-9999,39500.49542625,-0.74725341796875,0.3961334228515625,-0.517669677734375,39500.48535025,-2.604110782404092,-0.9734479299679695,-0.39936187039597,0.05579289048910141,-0.00213638786226511,-0.008873087354004383,-0.009001076221466064,0.01485592126846313,-0.0153772234916687,XArbitraryZVertical,-0.4885346790147336,0.04730478582278726,-0.810577812973336,0.3194676862371953,-0.7617660164833069,0.3888305127620697,-0.5181922316551208,0,0,0,-1,-1,39498.59238575,unknown,2,2025-04-22T17:22:02.558+03:00,2025-04-21T17:08:51.449+03:00,9047,1.057548,0,0,7544.334,7,22,2025-04-22T17:18:07.832+03:00,767024494.2872827,0,-11.22,100.3375,1,0.4,2025-04-22T17:20:54.408+03:00,76,1.266666666666667,2025-04-22T14:20:19.516+03:00,0.02197104130929222,0
2025-04-22T17:22:04.475+03:00,1745331723.945964,40.95232391954568,29.14021283107537,77.34093,-1,-1,-1,-1,30,35.71393105997151,-9999,39500.50550225,-0.74774169921875,0.3809967041015625,-0.5077056884765625,39500.49542625,-2.603709334117607,-0.973282531185142,-0.3990362731130451,0.0403958261013031,0.002722549485042691,-0.006010189186781645,5.108118057250977e-05,0.02038967609405518,-0.008344054222106934,XArbitraryZVertical,-0.4884542041532149,0.04709316734957707,-0.8106014324635773,0.3195621307807689,-0.7617849707603455,0.3885305225849152,-0.5183894634246826,0,0,0,-1,-1,39498.59238575,unknown,2,2025-04-22T17:22:02.558+03:00,2025-04-21T17:08:51.449+03:00,9047,1.057548,0,0,7544.334,7,22,2025-04-22T17:18:07.832+03:00,767024494.2872827,0,-11.22,100.3375,1,0.4,2025-04-22T17:20:54.408+03:00,76,1.266666666666667,2025-04-22T14:20:19.516+03:00,0.02197104130929222,0
2025-04-22T17:22:04.486+03:00,1745331723.945964,40.95232391954568,29.14021283107537,77.34093,-1,-1,-1,-1,30,35.71393105997151,-9999,39500.51557725,-0.754852294921875,0.37542724609375,-0.50811767578125,39500.50550225,-2.603456947259156,-0.9731066498195244,-0.3987638417582345,0.01955805718898773,0.01703744009137154,-0.00261286087334156,0.01519930362701416,0.005763411521911621,0.002179622650146484,XArbitraryZVertical,-0.4883696467471139,0.04694250455225171,-0.8106436658508112,0.3196064518521376,-0.7617812752723694,0.3882794678211212,-0.5185829997062683,0,0,0,-1,-1,39498.59238575,unknown,2,2025-04-22T17:22:02.558+03:00,2025-04-21T17:08:51.449+03:00,9047,1.057548,0,0,7544.334,7,22,2025-04-22T17:18:07.832+03:00,767024494.2872827,0,-11.22,100.3375,1,0.4,2025-04-22T17:20:54.408+03:00,76,1.266666666666667,2025-04-22T14:20:19.516+03:00,0.02197104130929222,0
2025-04-22T17:22:04.498+03:00,1745331723.945964,40.95232391954568,29.14021283107537,77.34093,-1,-1,-1,-1,30,35.71393105997151,-9999,39500.52565325,-0.754730224609375,0.374847412109375,-0.5159149169921875,39500.51557725,-2.603366428901571,-0.972921976744624,-0.3986501974784609,0.007052384782582521,0.01816395670175552,0.0004327301285229623,0.01327848434448242,-0.008459866046905518,0.01134788990020752,XArbitraryZVertical,-0.4882888852341539,0.04690103874312496,-0.8106908628825339,0.3196163785227253,-0.7617219686508179,0.3881747424602509,-0.5187485218048096,0,0,0,-1,-1,39498.59238575,unknown,2,2025-04-22T17:22:02.558+03:00,2025-04-21T17:08:51.449+03:00,9047,1.057548,0,0,7544.334,7,22,2025-04-22T17:18:07.832+03:00,767024494.2872827,0,-11.22,100.3375,1,0.4,2025-04-22T17:20:54.408+03:00,76,1.266666666666667,2025-04-22T14:20:19.516+03:00,0.02197104130929222,0
2025-04-22T17:22:04.506+03:00,1745331723.945964,40.95232391954568,29.14021283107537,77.34093,-1,-1,-1,-1,30,35.71393105997151,-9999,39500.53572925,-0.7493743896484375,0.3700714111328125,-0.5233154296875,39500.52565325,-2.603386442573879,-0.972822460397754,-0.3986733162041107,-0.009659749455749989,0.00615336699411273,0.003399890847504139,0.00574260950088501,-0.01266211271286011,0.01003003120422363,XArbitraryZVertical,-0.4882497429171808,0.04693180666773893,-0.8107148454212877,0.3196104278776141,-0.7616628408432007,0.3881960511207581,-0.5188192129135132,0,0,0,-1,-1,39498.59238575,unknown,2,2025-04-22T17:22:02.558+03:00,2025-04-21T17:08:51.449+03:00,9047,1.057548,0,0,7544.334,7,22,2025-04-22T17:18:07.832+03:00,767024494.2872827,0,-11.22,100.3375,1,0.4,2025-04-22T17:20:54.408+03:00,76,1.266666666666667,2025-04-22T14:20:19.516+03:00,0.02197104130929222,0
2025-04-22T17:22:04.516+03:00,1745331723.945964,40.95232391954568,29.14021283107537,77.34093,-1,-1,-1,-1,30,35.71393105997151,-9999,39500.54580525,-0.747039794921875,0.3688201904296875,-0.527130126953125,39500.53572925,-2.60349967841612,-0.9728869115273289,-0.39880330139672,-0.02255397848784924,-0.01060217805206776,0.006993027869611979,0.00698554515838623,-0.01413992047309875,0.001544952392578125,XArbitraryZVertical,-0.4882823485461952,0.04700500700261276,-0.8106984552962799,0.3195917885614317,-0.7616546750068665,0.3883158266544342,-0.5187417268753052,0,0,0,-1,-1,39498.59238575,unknown,2,2025-04-22T17:22:02.558+03:00,2025-04-21T17:08:51.449+03:00,9047,1.057548,0,0,7544.334,7,22,2025-04-22T17:18:07.832+03:00,767024494.2872827,0,-11.22,100.3375,1,0.4,2025-04-22T17:20:54.408+03:00,76,1.266666666666667,2025-04-22T14:20:19.516+03:00,0.02197104130929222,0
2025-04-22T17:22:04.526+03:00,1745331723.945964,40.95232391954568,29.14021283107537,77.34093,-1,-1,-1,-1,30,35.71393105997151,-9999,39500.55588025,-0.7451934814453125,0.368988037109375,-0.5298614501953125,39500.54580525,-2.603668252998067,-0.9731630120055574,-0.3989659452162584,-0.02811419032514095,-0.03716301545500755,0.004409861750900745,0.01241707801818848,-0.01795187592506409,-0.005552172660827637,XArbitraryZVertical,-0.4884017836891111,0.04707200445190191,-0.8106342414150574,0.3195620490527191,-0.7617455720901489,0.3884657025337219,-0.5184958577156067,0,0,0,-1,-1,39498.59238575,unknown,2,2025-04-22T17:22:02.558+03:00,2025-04-21T17:08:51.449+03:00,9047,1.057548,0,0,7544.334,7,22,2025-04-22T17:18:07.832+03:00,767024494.2872827,0,-11.22,100.3375,1,0.4,2025-04-22T17:20:54.408+03:00,76,1.266666666666667,2025-04-22T14:20:19.516+03:00,0.02197104130929222,0
2025-04-22T17:22:04.536+03:00,1745331723.945964,40.95232391954568,29.14021283107537,77.34093,-1,-1,-1,-1,30,35.71393105997151,-9999,39500.56595625,-0.7444000244140625,0.378662109375,-0.522491455078125,39500.55588025,-2.603942458141876,-0.9736852568531847,-0.3991780888707518,-0.03863740339875221,-0.05218057706952095,0.002152299974113703,0.01539671421051025,-0.02039039134979248,-0.009460091590881348,XArbitraryZVertical,-0.4886219103677337,0.04714674006810686,-0.8105196848122741,0.319505175836197,-0.7619481086730957,0.3886611759662628,-0.5180516242980957,0,0,0,-1,-1,39498.59238575,unknown,2,2025-04-22T17:22:02.558+03:00,2025-04-21T17:08:51.449+03:00,9047,1.057548,0,0,7544.334,7,22,2025-04-22T17:18:07.832+03:00,767024494.2872827,0,-11.22,100.3375,1,0.4,2025-04-22T17:20:54.408+03:00,76,1.266666666666667,2025-04-22T14:20:19.516+03:00,0.02197104130929222,0
2025-04-22T17:22:04.546+03:00,1745331723.945964,40.95232391954568,29.14021283107537,77.34093,-1,-1,-1,-1,30,35.71393105997151,-9999,39500.57603225,-0.7491302490234375,0.3890228271484375,-0.5108489990234375,39500.56595625,-2.604242153778829,-0.9743430120440441,-0.3993855086781045,-0.02521514147520065,-0.05523742362856865,-0.003803227329626679,0.01776105165481567,-0.01904037594795227,-0.01249390840530396,XArbitraryZVertical,-0.4888959536460923,0.04720407632535074,-0.8103766554048509,0.3194402812264808,-0.7622219920158386,0.3888522982597351,-0.5175050497055054,0,0,0,-1,-1,39498.59238575,unknown,2,2025-04-22T17:22:02.558+03:00,2025-04-21T17:08:51.449+03:00,9047,1.057548,0,0,7544.334,7,22,2025-04-22T17:18:07.832+03:00,767024494.2872827,0,-11.22,100.3375,1,0.4,2025-04-22T17:20:54.408+03:00,76,1.266666666666667,2025-04-22T14:20:19.516+03:00,0.02197104130929222,0
2025-04-22T17:22:04.556+03:00,1745331723.945964,40.95232391954568,29.14021283107537,77.34093,-1,-1,-1,-1,30,35.71393105997151,-9999,39500.58610725,-0.749481201171875,0.3924407958984375,-0.5082550048828125,39500.57603225,-2.604410479460082,-0.9749332370806261,-0.3994957447316073,-0.008560796268284321,-0.05415884032845497,-0.005827762186527252,0.01743578910827637,-0.008582830429077148,-0.004209399223327637,XArbitraryZVertical,-0.4891388382236763,0.04719833951517022,-0.8102432285352882,0.319407853723526,-0.7624918222427368,0.38895383477211,-0.5170310139656067,0,0,0,-1,-1,39498.59238575,unknown,2,2025-04-22T17:22:02.558+03:00,2025-04-21T17:08:51.449+03:00,9047,1.057548,0,0,7544.334,7,22,2025-04-22T17:18:07.832+03:00,767024494.2872827,0,-11.22,100.3375,1,0.4,2025-04-22T17:20:54.408+03:00,76,1.266666666666667,2025-04-22T14:20:19.516+03:00,0.02197104130929222,0
2025-04-22T17:22:04.566+03:00,1745331723.945964,40.95232391954568,29.14021283107537,77.34093,-1,-1,-1,-1,30,35.71393105997151,-9999,39500.59618325,-0.74737548828125,0.388275146484375,-0.51312255859375,39500.58610725,-2.60444775715381,-0.9754125717088009,-0.3994770087823699,0.008178036659955978,-0.05228923633694649,-0.01368938013911247,0.01306617259979248,0.001627266407012939,0.006857991218566895,XArbitraryZVertical,-0.489330825162188,0.04712285899433114,-0.8101346393753607,0.3194003375977869,-0.7627455592155457,0.3889365792274475,-0.5166695713996887,0,0,0,-1,-1,39498.59238575,unknown,2,2025-04-22T17:22:02.558+03:00,2025-04-21T17:08:51.449+03:00,9047,1.057548,0,0,7544.334,7,22,2025-04-22T17:18:07.832+03:00,767024494.2872827,0,-11.22,100.3375,1,0.4,2025-04-22T17:20:54.408+03:00,76,1.266666666666667,2025-04-22T14:20:19.516+03:00,0.02197104130929222,0
2025-04-22T17:22:04.576+03:00,1745331723.945964,40.95232391954568,29.14021283107537,77.34093,-1,-1,-1,-1,30,35.71393105997151,-9999,39500.60625925,-0.74505615234375,0.3795928955078125,-0.521514892578125,39500.59618325,-2.604442397703984,-0.9759777753962589,-0.3992758919612774,0.0135536277666688,-0.05871224775910378,-0.0146055081859231,0.01299554109573364,0.004162430763244629,0.007477760314941406,XArbitraryZVertical,-0.4895458001483025,0.04694487311567803,-0.8100246839584899,0.3193759199772164,-0.7631022334098816,0.3887512981891632,-0.5162822008132935,0,0,0,-1,-1,39498.59238575,unknown,2,2025-04-22T17:22:02.558+03:00,2025-04-21T17:08:51.449+03:00,9047,1.057548,0,0,7544.334,7,22,2025-04-22T17:18:07.832+03:00,767024494.2872827,0,-11.22,100.3375,1,0.4,2025-04-22T17:20:54.408+03:00,76,1.266666666666667,2025-04-22T14:20:19.516+03:00,0.02197104130929222,0
2025-04-22T17:22:04.586+03:00,1745331723.945964,40.95232391954568,29.14021283107537,77.34093,-1,-1,-1,-1,30,35.71393105997151,-9999,39500.61633525,-0.7443084716796875,0.3669586181640625,-0.5265045166015625,39500.60625925,-2.604475816677951,-0.9766667388655761,-0.3990651202461941,-0.00650969659909606,-0.07099194824695587,-0.01182137243449688,0.01584511995315552,-0.0003430545330047607,0.00214540958404541,XArbitraryZVertical,-0.4898092617487234,0.04675247096017615,-0.8098920351248505,0.3193367374883502,-0.763525664806366,0.3885570764541626,-0.5158022046089172,0,0,0,-1,-1,39498.59238575,unknown,2,2025-04-22T17:22:02.558+03:00,2025-04-21T17:08:51.449+03:00,9047,1.057548,0,0,7544.334,7,22,2025-04-22T17:18:07.832+03:00,767024494.2872827,0,-11.22,100.3375,1,0.4,2025-04-22T17:20:54.408+03:00,76,1.266666666666667,2025-04-22T14:20:19.516+03:00,0.02197104130929222,0
2025-04-22T17:22:04.596+03:00,1745331723.945964,40.95232391954568,29.14021283107537,77.34093,-1,-1,-1,-1,30,35.71393105997151,-9999,39500.62641025,-0.74786376953125,0.355926513671875,-0.5253143310546875,39500.61633525,-2.604711836360767,-0.9774552564649214,-0.399084091999853,-0.04370500147342682,-0.07419972121715546,-0.0003604590892791748,0.01932775974273682,-0.009683668613433838,-0.007509410381317139,XArbitraryZVertical,-0.4901243688742944,0.04669257469113984,-0.8097337050927681,0.3192633225555945,-0.7639259696006775,0.3885745704174042,-0.5151957869529724,0,0,0,-1,-1,39498.59238575,unknown,2,2025-04-22T17:22:02.558+03:00,2025-04-21T17:08:51.449+03:00,9047,1.057548,0,0,7544.334,7,22,2025-04-22T17:18:07.832+03:00,767024494.2872827,0,-11.22,100.3375,1,0.4,2025-04-22T17:20:54.408+03:00,76,1.266666666666667,2025-04-22T14:20:19.516+03:00,0.02197104130929222,0
2025-04-22T17:22:04.606+03:00,1745331723.945964,40.95232391954568,29.14021283107537,77.34093,-1,-1,-1,-1,30,35.71393105997151,-9999,39500.63648625,-0.7538299560546875,0.3545989990234375,-0.5170745849609375,39500.62641025,-2.605270113562222,-0.9783413612358796,-0.3994087655298655,-0.08936949819326401,-0.07776869833469391,0.009817177429795265,0.01974034309387207,-0.02356317639350891,-0.01194959878921509,XArbitraryZVertical,-0.490492686209923,0.04682746700805812,-0.8095583748452386,0.3191225719491494,-0.7642775177955627,0.3888737261295319,-0.5144482254981995,0,0,0,-1,-1,39498.59238575,unknown,2,2025-04-22T17:22:02.558+03:00,2025-04-21T17:08:51.449+03:00,9047,1.057548,0,0,7544.334,7,22,2025-04-22T17:18:07.832+03:00,767024494.2872827,0,-11.22,100.3375,1,0.4,2025-04-22T17:20:54.408+03:00,76,1.266666666666667,2025-04-22T14:20:19.516+03:00,0.02197104130929222,0
2025-04-22T17:22:04.616+03:00,1745331723.945964,40.95232391954568,29.14021283107537,77.34093,-1,-1,-1,-1,30,35.71393105997151,-9999,39500.64656225,-0.7584686279296875,0.3606719970703125,-0.5146026611328125,39500.63648625,-2.606098813848649,-0.9793331792042045,-0.400023278515712,-0.1214440762996674,-0.0778384730219841,0.01597387343645096,0.01539772748947144,-0.03413894772529602,-0.01126956939697266,XArbitraryZVertical,-0.4909173480309416,0.04713647228220118,-0.8093578429807931,0.3189327463450418,-0.7645888924598694,0.3894397914409637,-0.5135565996170044,0,0,0,-1,-1,39498.59238575,unknown,2,2025-04-22T17:22:02.558+03:00,2025-04-21T17:08:51.449+03:00,9047,1.057548,0,0,7544.334,7,22,2025-04-22T17:18:07.832+03:00,767024494.2872827,0,-11.22,100.3375,1,0.4,2025-04-22T17:20:54.408+03:00,76,1.266666666666667,2025-04-22T14:20:19.516+03:00,0.02197104130929222,0
2025-04-22T17:22:04.626+03:00,1745331723.945964,40.95232391954568,29.14021283107537,77.34093,-1,-1,-1,-1,30,35.71393105997151,-9999,39500.65663825,-0.7673187255859375,0.3755950927734375,-0.515899658203125,39500.64656225,-2.60707478732685,-0.9803554117237528,-0.4008065060692929,-0.1255990117788315,-0.07271254807710648,0.01762523129582405,0.009900867938995361,-0.03530275821685791,-0.003859639167785645,XArbitraryZVertical,-0.4913620421244657,0.04754948051166872,-0.809148356239637,0.3187180347861831,-0.7648597955703735,0.3901610672473907,-0.5126047730445862,0,0,0,-1,-1,39498.59238575,unknown,2,2025-04-22T17:22:02.558+03:00,2025-04-21T17:08:51.449+03:00,9047,1.057548,0,0,7544.334,7,22,2025-04-22T17:18:07.832+03:00,767024494.2872827,0,-11.22,100.3375,1,0.4,2025-04-22T17:20:54.408+03:00,76,1.266666666666667,2025-04-22T14:20:19.516+03:00,0.02197104130929222,0
2025-04-22T17:22:04.636+03:00,1745331723.945964,40.95232391954568,29.14021283107537,77.34093,-1,-1,-1,-1,30,35.71393105997151,-9999,39500.66671325,-0.77294921875,0.3941192626953125,-0.5146484375,39500.65663825,-2.607994574039838,-0.9813108943017849,-0.4015901803067232,-0.1068175882101059,-0.05963616445660591,0.01819488219916821,0.005726099014282227,-0.02847108244895935,-0.002655029296875,XArbitraryZVertical,-0.4917804900520626,0.0479597390974679,-0.8089459479731764,0.3185250691206481,-0.7650949358940125,0.3908824920654297,-0.5117036104202271,0,0,0,-1,-1,39498.59238575,unknown,2,2025-04-22T17:22:02.558+03:00,2025-04-21T17:08:51.449+03:00,9047,1.057548,0,0,7544.334,7,22,2025-04-22T17:18:07.832+03:00,767024494.2872827,0,-11.22,100.3375,1,0.4,2025-04-22T17:20:54.408+03:00,76,1.266666666666667,2025-04-22T14:20:19.516+03:00,0.02197104130929222,0
2025-04-22T17:22:04.647+03:00,1745331723.945964,40.95232391954568,29.14021283107537,77.34093,-1,-1,-1,-1,30,35.71393105997151,-9999,39500.67678925,-0.7704315185546875,0.40618896484375,-0.5148162841796875,39500.66671325,-2.608737294466895,-0.9821264626095981,-0.4022991186241345,-0.08279614150524139,-0.05116438493132591,0.01758941262960434,-0.002327203750610352,-0.01427671313285828,-0.0045166015625,XArbitraryZVertical,-0.4921409815763295,0.04831686343094824,-0.8087602531689323,0.3183858223930773,-0.7652813196182251,0.3915349543094635,-0.5109254717826843,0,0,0,-1,-1,39498.59238575,unknown,2,2025-04-22T17:22:02.558+03:00,2025-04-21T17:08:51.449+03:00,9047,1.057548,0,0,7544.334,7,22,2025-04-22T17:18:07.832+03:00,767024494.2872827,0,-11.22,100.3375,1,0.4,2025-04-22T17:20:54.408+03:00,76,1.266666666666667,2025-04-22T14:20:19.516+03:00,0.02197104130929222,0
2025-04-22T17:22:04.657+03:00,1745331723.945964,40.95232391954568,29.14021283107537,77.34093,-1,-1,-1,-1,30,35.71393105997151,-9999,39500.68686525001,-0.76812744140625,0.406097412109375,-0.515655517578125,39500.67678925,-2.609277834443266,-0.9828108403860173,-0.4028478927772978,-0.06094597280025482,-0.04898218810558319,0.01198798604309559,-0.007497191429138184,0.003818780183792114,-0.004503548145294189,XArbitraryZVertical,-0.4924420437116049,0.04857651272255971,-0.8085977175591432,0.3182934234627603,-0.7654518485069275,0.3920398354530334,-0.5102823376655579,0,0,0,-1,-1,39498.59238575,unknown,2,2025-04-22T17:22:02.558+03:00,2025-04-21T17:08:51.449+03:00,9047,1.057548,0,0,7544.334,7,22,2025-04-22T17:18:07.832+03:00,767024494.2872827,0,-11.22,100.3375,1,0.4,2025-04-22T17:20:54.408+03:00,76,1.266666666666667,2025-04-22T14:20:19.516+03:00,0.02197104130929222,0
2025-04-22T17:22:04.667+03:00,1745331723.945964,40.95232391954568,29.14021283107537,77.34093,-1,-1,-1,-1,30,35.71393105997151,-9999,39500.69694125,-0.766815185546875,0.4030609130859375,-0.512908935546875,39500.68686525001,-2.60964581767749,-0.9833722763656393,-0.4032122961043343,-0.04421353340148926,-0.04463104903697968,0.007409645710140467,-0.004995226860046387,0.01437839865684509,-0.005119442939758301,XArbitraryZVertical,-0.4926848286901652,0.04873415905909852,-0.8084648568751917,0.318231169881163,-0.7656192779541016,0.3923750519752502,-0.5097732543945312,0,0,0,-1,-1,39498.59238575,unknown,2,2025-04-22T17:22:02.558+03:00,2025-04-21T17:08:51.449+03:00,9047,1.057548,0,0,7544.334,7,22,2025-04-22T17:18:07.832+03:00,767024494.2872827,0,-11.22,100.3375,1,0.4,2025-04-22T17:20:54.408+03:00,76,1.266666666666667,2025-04-22T14:20:19.516+03:00,0.02197104130929222,0
2025-04-22T17:22:04.677+03:00,1745331723.945964,40.95232391954568,29.14021283107537,77.34093,-1,-1,-1,-1,30,35.71393105997151,-9999,39500.70701625,-0.766998291015625,0.3978729248046875,-0.5094146728515625,39500.69694125,-2.609918749647553,-0.9837886526270401,-0.4034829401705348,-0.04090508818626404,-0.04103444889187813,0.01384704001247883,-0.0016365647315979,0.01324445009231567,-0.0060921311378479,XArbitraryZVertical,-0.4928648231654609,0.04885127089012097,-0.8083662321490451,0.3181851532676162,-0.7657430768013,0.3926239609718323,-0.5093956589698792,0,0,0,-1,-1,39498.59238575,unknown,2,2025-04-22T17:22:02.558+03:00,2025-04-21T17:08:51.449+03:00,9047,1.057548,0,0,7544.334,7,22,2025-04-22T17:18:07.832+03:00,767024494.2872827,0,-11.22,100.3375,1,0.4,2025-04-22T17:20:54.408+03:00,76,1.266666666666667,2025-04-22T14:20:19.516+03:00,0.02197104130929222,0
2025-04-22T17:22:04.687+03:00,1745331723.945964,40.95232391954568,29.14021283107537,77.34093,-1,-1,-1,-1,30,35.71393105997151,-9999,39500.71709225,-0.773223876953125,0.3989105224609375,-0.508514404296875,39500.70701625,-2.610047729562656,-0.9840080713760619,-0.4035915699606462,-0.01329603046178818,-0.02458803355693817,0.008503040298819542,-0.0004922151565551758,0.009390890598297119,-0.003827154636383057,XArbitraryZVertical,-0.4929577074438595,0.04889475119434623,-0.8083168429088725,0.3181601301629498,-0.7658193111419678,0.3927238881587982,-0.5092040300369263,0,0,0,-1,-1,39498.59238575,unknown,2,2025-04-22T17:22:02.558+03:00,2025-04-21T17:08:51.449+03:00,9047,1.057548,0,0,7544.334,7,22,2025-04-22T17:18:07.832+03:00,767024494.2872827,0,-11.22,100.3375,1,0.4,2025-04-22T17:20:54.408+03:00,76,1.266666666666667,2025-04-22T14:20:19.516+03:00,0.02197104130929222,0
2025-04-22T17:22:04.697+03:00,1745331723.945964,40.95232391954568,29.14021283107537,77.34093,-1,-1,-1,-1,30,35.71393105997151,-9999,39500.72716825,-0.7745361328125,0.4012603759765625,-0.500518798828125,39500.71709225,-2.610027508127915,-0.9840656837602481,-0.4034980806833144,-0.006411226000636816,-0.01306959614157677,0.007139502093195915,-0.001637816429138184,0.00491449236869812,-0.0001583099365234375,XArbitraryZVertical,-0.492975157151585,0.04884049635526257,-0.8083130612436628,0.318150998123939,-0.765879213809967,0.3926379084587097,-0.5091801881790161,0,0,0,-1,-1,39498.59238575,unknown,2,2025-04-22T17:22:02.558+03:00,2025-04-21T17:08:51.449+03:00,9047,1.057548,0,0,7544.334,7,22,2025-04-22T17:18:07.832+03:00,767024494.2872827,0,-11.22,100.3375,1,0.4,2025-04-22T17:20:54.408+03:00,76,1.266666666666667,2025-04-22T14:20:19.516+03:00,0.02197104130929222,0
2025-04-22T17:22:04.707+03:00,1745331723.945964,40.95232391954568,29.14021283107537,77.34093,-1,-1,-1,-1,30,35.71393105997151,-9999,39500.73724425001,-0.7733612060546875,0.396697998046875,-0.5004119873046875,39500.72716825,-2.609964844362211,-0.9840669876354028,-0.403323050693414,0.00482951058074832,-0.005928263533860445,0.003075817599892616,-0.007546126842498779,0.00686076283454895,0.00141984224319458,XArbitraryZVertical,-0.4929653622864134,0.04874976051833396,-0.8083282864184973,0.318141315977046,-0.7659370899200439,0.3924769163131714,-0.5092172026634216,0,0,0,-1,-1,39498.59238575,unknown,2,2025-04-22T17:22:02.558+03:00,2025-04-21T17:08:51.449+03:00,9047,1.057548,0,0,7544.334,7,22,2025-04-22T17:18:07.832+03:00,767024494.2872827,0,-11.22,100.3375,1,0.4,2025-04-22T17:20:54.408+03:00,76,1.266666666666667,2025-04-22T14:20:19.516+03:00,0.02197104130929222,0
2025-04-22T17:22:04.717+03:00,1745331723.945964,40.95232391954568,29.14021283107537,77.34093,-1,-1,-1,-1,30,35.71393105997151,-9999,39500.74731925,-0.7689361572265625,0.39739990234375,-0.508087158203125,39500.73724425001,-2.609862297041937,-0.9840029050155393,-0.4031705575468205,0.007814115844666958,-0.001018992159515619,0.005470265634357929,-0.008673250675201416,0.009137243032455444,0.009451866149902344,XArbitraryZVertical,-0.4929316124346609,0.04866924554016853,-0.808350066352174,0.3181507062707489,-0.765954315662384,0.3923366665840149,-0.5092994570732117,0,0,0,-1,-1,39498.59238575,unknown,2,2025-04-22T17:22:02.558+03:00,2025-04-21T17:08:51.449+03:00,9047,1.057548,0,0,7544.334,7,22,2025-04-22T17:18:07.832+03:00,767024494.2872827,0,-11.22,100.3375,1,0.4,2025-04-22T17:20:54.408+03:00,76,1.266666666666667,2025-04-22T14:20:19.516+03:00,0.02197104130929222,0
2025-04-22T17:22:04.727+03:00,1745331723.945964,40.95232391954568,29.14021283107537,77.34093,-1,-1,-1,-1,30,35.71393105997151,-9999,39500.75739525,-0.7610626220703125,0.3907470703125,-0.513427734375,39500.74731925,-2.609775419296739,-0.9839765406505772,-0.4031362816851592,-0.003510111477226019,-0.008154332637786865,0.009919376112520695,-0.006676554679870605,0.003935009241104126,0.008274078369140625,XArbitraryZVertical,-0.49292074130882,0.04863731786515496,-0.8083477631827454,0.3181783282749284,-0.7659520506858826,0.3923051357269287,-0.5093271136283875,0,0,0,-1,-1,39498.59238575,unknown,2,2025-04-22T17:22:02.558+03:00,2025-04-21T17:08:51.449+03:00,9047,1.057548,0,0,7544.334,7,22,2025-04-22T17:18:07.832+03:00,767024494.2872827,0,-11.22,100.3375,1,0.4,2025-04-22T17:20:54.408+03:00,76,1.266666666666667,2025-04-22T14:20:19.516+03:00,0.02197104130929222,0
2025-04-22T17:22:04.737+03:00,1745331723.945964,40.95232391954568,29.14021283107537,77.34093,-1,-1,-1,-1,30,35.71393105997151,-9999,39500.76747125,-0.7572479248046875,0.380126953125,-0.5134735107421875,39500.75739525,-2.609830775134944,-0.9841186561685701,-0.4032892295995554,-0.02279858663678169,-0.01436615642160177,0.01181980781257153,-0.002427518367767334,0.005655914545059204,0.0002584457397460938,XArbitraryZVertical,-0.4929872005832572,0.04869396522401991,-0.8082992370324086,0.3181900271640418,-0.7659744620323181,0.3924458026885986,-0.5091850161552429,0,0,0,-1,-1,39498.59238575,unknown,2,2025-04-22T17:22:02.558+03:00,2025-04-21T17:08:51.449+03:00,9047,1.057548,0,0,7544.334,7,22,2025-04-22T17:18:07.832+03:00,767024494.2872827,0,-11.22,100.3375,1,0.4,2025-04-22T17:20:54.408+03:00,76,1.266666666666667,2025-04-22T14:20:19.516+03:00,0.02197104130929222,0
2025-04-22T17:22:04.747+03:00,1745331723.945964,40.95232391954568,29.14021283107537,77.34093,-1,-1,-1,-1,30,35.71393105997151,-9999,39500.77754725,-0.761932373046875,0.3785400390625,-0.507415771484375,39500.76747125,-2.610084010851156,-0.9843777044097151,-0.4036670857459347,-0.04795360937714577,-0.01440037786960602,0.0139718409627676,0.005789995193481445,-0.004136830568313599,-0.005591511726379395,XArbitraryZVertical,-0.4931113375662965,0.04887731568777368,-0.8082203641423592,0.3181695677596992,-0.7659826874732971,0.3927933275699615,-0.5089044570922852,0,0,0,-1,-1,39498.59238575,unknown,2,2025-04-22T17:22:02.558+03:00,2025-04-21T17:08:51.449+03:00,9047,1.057548,0,0,7544.334,7,22,2025-04-22T17:18:07.832+03:00,767024494.2872827,0,-11.22,100.3375,1,0.4,2025-04-22T17:20:54.408+03:00,76,1.266666666666667,2025-04-22T14:20:19.516+03:00,0.02197104130929222,0
2025-04-22T17:22:04.757+03:00,1745331723.945964,40.95232391954568,29.14021283107537,77.34093,-1,-1,-1,-1,30,35.71393105997151,-9999,39500.78762225001,-0.763946533203125,0.383392333984375,-0.5038604736328125,39500.77754725,-2.610508066238904,-0.984615538715314,-0.4041974182131637,-0.06352830678224564,-0.005790644325315952,0.01860121451318264,0.008071959018707275,-0.01435959339141846,-0.004515707492828369,XArbitraryZVertical,-0.493232895934298,0.04917155211503264,-0.8081517107540663,0.3181102004417504,-0.7659300565719604,0.3932809829711914,-0.5086069107055664,0,0,0,-1,-1,39498.59238575,unknown,2,2025-04-22T17:22:02.558+03:00,2025-04-21T17:08:51.449+03:00,9047,1.057548,0,0,7544.334,7,22,2025-04-22T17:18:07.832+03:00,767024494.2872827,0,-11.22,100.3375,1,0.4,2025-04-22T17:20:54.408+03:00,76,1.266666666666667,2025-04-22T14:20:19.516+03:00,0.02197104130929222,0
2025-04-22T17:22:04.768+03:00,1745331723.945964,40.95232391954568,29.14021283107537,77.34093,-1,-1,-1,-1,30,35.71393105997151,-9999,39500.79769825,-0.766326904296875,0.3932952880859375,-0.502044677734375,39500.78762225001,-2.610932568039296,-0.9847599867793537,-0.4047319349136582,-0.05610055103898048,0.00594157911837101,0.02000320143997669,0.003789246082305908,-0.01448473334312439,0.001788020133972168,XArbitraryZVertical,-0.4933168230415128,0.04948256097682713,-0.8081055170452489,0.3180492649458991,-0.7658283114433289,0.3937723636627197,-0.5083799958229065,0,0,0,-1,-1,39498.59238575,unknown,2,2025-04-22T17:22:02.558+03:00,2025-04-21T17:08:51.449+03:00,9047,1.057548,0,0,7544.334,7,22,2025-04-22T17:18:07.832+03:00,767024494.2872827,0,-11.22,100.3375,1,0.4,2025-04-22T17:20:54.408+03:00,76,1.266666666666667,2025-04-22T14:20:19.516+03:00,0.02197104130929222,0
2025-04-22T17:22:04.778+03:00,1745331723.945964,40.95232391954568,29.14021283107537,77.34093,-1,-1,-1,-1,30,35.71393105997151,-9999,39500.80777425,-0.7647857666015625,0.4058380126953125,-0.501800537109375,39500.79769825,-2.611262532293953,-0.9848044848519306,-0.4051351315990968,-0.03400536999106407,0.01144633255898952,0.01045390591025352,0.001253426074981689,-0.01010984182357788,0.004885733127593994,XArbitraryZVertical,-0.4933537376651456,0.04972982864666026,-0.8080880893168332,0.3179977855324016,-0.7657185792922974,0.3941429555416107,-0.508258044719696,0,0,0,-1,-1,39498.59238575,unknown,2,2025-04-22T17:22:02.558+03:00,2025-04-21T17:08:51.449+03:00,9047,1.057548,0,0,7544.334,7,22,2025-04-22T17:18:07.832+03:00,767024494.2872827,0,-11.22,100.3375,1,0.4,2025-04-22T17:20:54.408+03:00,76,1.266666666666667,2025-04-22T14:20:19.516+03:00,0.02197104130929222,0
2025-04-22T17:22:04.788+03:00,1745331723.945964,40.95232391954568,29.14021283107537,77.34093,-1,-1,-1,-1,30,35.71393105997151,-9999,39500.81785025,-0.7620391845703125,0.4067230224609375,-0.50030517578125,39500.80777425,-2.611447869442963,-0.9847815219814046,-0.4053662109855655,-0.01635939814150333,0.01227550767362118,0.006477739661931992,-0.001229822635650635,0.0004199743270874023,0.005921006202697754,XArbitraryZVertical,-0.4933553634383541,0.04987831899339727,-0.8080894508890123,0.3179686041488181,-0.7656310796737671,0.3943553268909454,-0.5082252621650696,0,0,0,-1,-1,39498.59238575,unknown,2,2025-04-22T17:22:02.558+03:00,2025-04-21T17:08:51.449+03:00,9047,1.057548,0,0,7544.334,7,22,2025-04-22T17:18:07.832+03:00,767024494.2872827,0,-11.22,100.3375,1,0.4,2025-04-22T17:20:54.408+03:00,76,1.266666666666667,2025-04-22T14:20:19.516+03:00,0.02197104130929222,0
2025-04-22T17:22:04.798+03:00,1745331723.945964,40.95232391954568,29.14021283107537,77.34093,-1,-1,-1,-1,30,35.71393105997151,-9999,39500.82792525,-0.759674072265625,0.3994903564453125,-0.49920654296875,39500.81785025,-2.611537945344891,-0.9847571555870001,-0.4055001320265911,-0.008564591407775879,0.01262358296662569,0.005301421508193016,0.001765549182891846,0.01235133409500122,0.005773186683654785,XArbitraryZVertical,-0.493352259390225,0.04996186055990647,-0.8080901983629815,0.3179584141204582,-0.7655746340751648,0.3944783806800842,-0.5082147121429443,0,0,0,-1,-1,39498.59238575,unknown,2,2025-04-22T17:22:02.558+03:00,2025-04-21T17:08:51.449+03:00,9047,1.057548,0,0,7544.334,7,22,2025-04-22T17:18:07.832+03:00,767024494.2872827,0,-11.22,100.3375,1,0.4,2025-04-22T17:20:54.408+03:00,76,1.266666666666667,2025-04-22T14:20:19.516+03:00,0.02197104130929222,0
2025-04-22T17:22:04.808+03:00,1745331723.945964,40.95232391954568,29.14021283107537,77.34093,-1,-1,-1,-1,30,35.71393105997151,-9999,39500.83800125001,-0.7591400146484375,0.3929901123046875,-0.50140380859375,39500.82792525,-2.611587339707525,-0.9847035438732491,-0.405554380503119,-0.002106159459799528,0.01254954747855663,0.001771534560248256,0.00355154275894165,0.01170641183853149,0.008457422256469727,XArbitraryZVertical,-0.4933330018490965,0.05000583734630559,-0.8081033484759729,0.3179479802324201,-0.7655295729637146,0.3945282399654388,-0.5082439184188843,0,0,0,-1,-1,39498.59238575,unknown,2,2025-04-22T17:22:02.558+03:00,2025-04-21T17:08:51.449+03:00,9047,1.057548,0,0,7544.334,7,22,2025-04-22T17:18:07.832+03:00,767024494.2872827,0,-11.22,100.3375,1,0.4,2025-04-22T17:20:54.408+03:00,76,1.266666666666667,2025-04-22T14:20:19.516+03:00,0.02197104130929222,0
2025-04-22T17:22:04.818+03:00,1745331723.945964,40.95232391954568,29.14021283107537,77.34093,-1,-1,-1,-1,30,35.71393105997151,-9999,39500.84807725,-0.7600555419921875,0.3872528076171875,-0.5041656494140625,39500.83800125001,-2.611638527034679,-0.9846273829850831,-0.4056248058375949,-0.01070843636989594,0.006290852557867765,0.002934803254902363,0.00652623176574707,0.00372236967086792,0.008958101272583008,XArbitraryZVertical,-0.4933056657423992,0.05006077410134104,-0.8081200031191833,0.3179395047587881,-0.7654677629470825,0.3945929408073425,-0.5082868933677673,0,0,0,-1,-1,39498.59238575,unknown,2,2025-04-22T17:22:02.558+03:00,2025-04-21T17:08:51.449+03:00,9047,1.057548,0,0,7544.334,7,22,2025-04-22T17:18:07.832+03:00,767024494.2872827,0,-11.22,100.3375,1,0.4,2025-04-22T17:20:54.408+03:00,76,1.266666666666667,2025-04-22T14:20:19.516+03:00,0.02197104130929222,0
2025-04-22T17:22:04.828+03:00,1745331723.945964,40.95232391954568,29.14021283107537,77.34093,-1,-1,-1,-1,30,35.71393105997151,-9999,39500.85815325,-0.7576446533203125,0.379638671875,-0.5047454833984375,39500.84807725,-2.611760664700249,-0.9845766839538781,-0.4057359733479239,-0.03082855045795441,0.005570001434534788,0.008992728777229786,0.006341814994812012,-0.002132296562194824,0.006821155548095703,XArbitraryZVertical,-0.4932895718535873,0.05014664429708236,-0.8081356803331663,0.3179111432227666,-0.7654054760932922,0.3946951031684875,-0.5083014369010925,0,0,0,-1,-1,39498.59238575,unknown,2,2025-04-22T17:22:02.558+03:00,2025-04-21T17:08:51.449+03:00,9047,1.057548,0,0,7544.334,7,22,2025-04-22T17:18:07.832+03:00,767024494.2872827,0,-11.22,100.3375,1,0.4,2025-04-22T17:20:54.408+03:00,76,1.266666666666667,2025-04-22T14:20:19.516+03:00,0.02197104130929222,0
2025-04-22T17:22:04.839+03:00,1745331723.945964,40.95232391954568,29.14021283107537,77.34093,-1,-1,-1,-1,30,35.71393105997151,-9999,39500.86822825,-0.75787353515625,0.37872314453125,-0.4971771240234375,39500.85815325,-2.612047762151202,-0.9845870608346784,-0.4059804336505314,-0.04983979091048241,0.008127435110509396,0.01128224842250347,0.00541222095489502,-0.009147107601165771,0.004196345806121826,XArbitraryZVertical,-0.4933029479941177,0.0503206976673022,-0.808142923190466,0.3178442979360263,-0.7653302550315857,0.3949196934700012,-0.5082400441169739,0,0,0,-1,-1,39498.59238575,unknown,2,2025-04-22T17:22:02.558+03:00,2025-04-21T17:08:51.449+03:00,9047,1.057548,0,0,7544.334,7,22,2025-04-22T17:18:07.832+03:00,767024494.2872827,0,-11.22,100.3375,1,0.4,2025-04-22T17:20:54.408+03:00,76,1.266666666666667,2025-04-22T14:20:19.516+03:00,0.02197104130929222,0
2025-04-22T17:22:04.848+03:00,1745331723.945964,40.95232391954568,29.14021283107537,77.34093,-1,-1,-1,-1,30,35.71393105997151,-9999,39500.87830425,-0.7555389404296875,0.3855133056640625,-0.497039794921875,39500.86822825,-2.612483543308012,-0.9846805289254614,-0.4063352865268589,-0.06371952593326569,0.004188486374914646,0.01671503111720085,0.00787585973739624,-0.0167820155620575,0.003803133964538574,XArbitraryZVertical,-0.493353456543371,0.05056556917160791,-0.8081371995315449,0.3177416056417253,-0.7652609944343567,0.3952456712722778,-0.5080909729003906,0,0,0,-1,-1,39498.59238575,unknown,2,2025-04-22T17:22:02.558+03:00,2025-04-21T17:08:51.449+03:00,9047,1.057548,0,0,7544.334,7,22,2025-04-22T17:18:07.832+03:00,767024494.2872827,0,-11.22,100.3375,1,0.4,2025-04-22T17:20:54.408+03:00,76,1.266666666666667,2025-04-22T14:20:19.516+03:00,0.02197104130929222,0
2025-04-22T17:22:04.859+03:00,1745331723.945964,40.95232391954568,29.14021283107537,77.34093,-1,-1,-1,-1,30,35.71393105997151,-9999,39500.88838025001,-0.7569427490234375,0.3902130126953125,-0.4976959228515625,39500.87830425,-2.613027753389754,-0.9848912936836736,-0.4068194243380371,-0.07453275471925735,0.0009359680116176605,0.01762050576508045,0.007808148860931396,-0.01641803979873657,0.0105244517326355,XArbitraryZVertical,-0.4934571337122866,0.05087406404652612,-0.8081007119960237,0.3176239518955865,-0.7652084827423096,0.3956903517246246,-0.5078237652778625,0,0,0,-1,-1,39498.59238575,unknown,2,2025-04-22T17:22:02.558+03:00,2025-04-21T17:08:51.449+03:00,9047,1.057548,0,0,7544.334,7,22,2025-04-22T17:18:07.832+03:00,767024494.2872827,0,-11.22,100.3375,1,0.4,2025-04-22T17:20:54.408+03:00,76,1.266666666666667,2025-04-22T14:20:19.516+03:00,0.02197104130929222,0
2025-04-22T17:22:04.869+03:00,1745331723.945964,40.95232391954568,29.14021283107537,77.34093,-1,-1,-1,-1,30,35.71393105997151,-9999,39500.89845625,-0.759246826171875,0.3926849365234375,-0.50146484375,39500.88838025001,-2.61362987500182,-0.9851424734627585,-0.4073642488115009,-0.07607991993427277,0.001261272933334112,0.01561547815799713,0.009297013282775879,-0.01020440459251404,0.01094543933868408,XArbitraryZVertical,-0.4935794790078578,0.05121647307660453,-0.8080546162474358,0.3174962110603077,-0.7651562690734863,0.3961906433105469,-0.5075123310089111,0,0,0,-1,-1,39498.59238575,unknown,2,2025-04-22T17:22:02.558+03:00,2025-04-21T17:08:51.449+03:00,9047,1.057548,0,0,7544.334,7,22,2025-04-22T17:18:07.832+03:00,767024494.2872827,0,-11.22,100.3375,1,0.4,2025-04-22T17:20:54.408+03:00,76,1.266666666666667,2025-04-22T14:20:19.516+03:00,0.02197104130929222,0
2025-04-22T17:22:04.878+03:00,1745331723.945964,40.95232391954568,29.14021283107537,77.34093,-1,-1,-1,-1,30,35.71393105997151,-9999,39500.90853125,-0.7620697021484375,0.3983306884765625,-0.5089569091796875,39500.89845625,-2.614195802751537,-0.9853667780129551,-0.4079470333789101,-0.06536096334457397,0.0004418184980750084,0.01408735662698746,0.007783949375152588,-0.006528019905090332,0.00892186164855957,XArbitraryZVertical,-0.4936941889934273,0.05157054530077833,-0.8080037534453229,0.3173900863257272,-0.765077531337738,0.3967256844043732,-0.5072130560874939,0,0,0,-1,-1,39498.59238575,unknown,2,2025-04-22T17:22:02.558+03:00,2025-04-21T17:08:51.449+03:00,9047,1.057548,0,0,7544.334,7,22,2025-04-22T17:18:07.832+03:00,767024494.2872827,0,-11.22,100.3375,1,0.4,2025-04-22T17:20:54.408+03:00,76,1.266666666666667,2025-04-22T14:20:19.516+03:00,0.02197104130929222,0
2025-04-22T17:22:04.891+03:00,1745331723.945964,40.95232391954568,29.14021283107537,77.34093,-1,-1,-1,-1,30,35.71393105997151,-9999,39500.91860725,-0.7601776123046875,0.3987579345703125,-0.514739990234375,39500.90853125,-2.614690278776006,-0.9855965786906283,-0.4084512180361348,-0.05802495405077934,-0.006150237750262022,0.01127921976149082,0.004849731922149658,-0.003374457359313965,0.004973411560058594,XArbitraryZVertical,-0.4938075936122963,0.05187246549153215,-0.8079514751249806,0.3172972270123245,-0.7650271654129028,0.3971884250640869,-0.5069265961647034,0,0,0,-1,-1,39498.59238575,unknown,2,2025-04-22T17:22:02.558+03:00,2025-04-21T17:08:51.449+03:00,9047,1.057548,0,0,7544.334,7,22,2025-04-22T17:18:07.832+03:00,767024494.2872827,0,-11.22,100.3375,1,0.4,2025-04-22T17:20:54.408+03:00,76,1.266666666666667,2025-04-22T14:20:19.516+03:00,0.02197104130929222,0
2025-04-22T17:22:04.899+03:00,1745331723.945964,40.95232391954568,29.14021283107537,77.34093,-1,-1,-1,-1,30,35.71393105997151,-9999,39500.92868325,-0.757659912109375,0.39361572265625,-0.51507568359375,39500.91860725,-2.615115432189587,-0.9858653828551386,-0.4088618414568045,-0.05221180617809296,-0.01474985107779503,0.009203018620610237,0.003201961517333984,0.001497745513916016,-0.003653645515441895,XArbitraryZVertical,-0.4939322053911185,0.05211095437179431,-0.8078923196072533,0.3172147494139002,-0.7650273442268372,0.3975652456283569,-0.5066308379173279,0,0,0,-1,-1,39498.59238575,unknown,2,2025-04-22T17:22:02.558+03:00,2025-04-21T17:08:51.449+03:00,9047,1.057548,0,0,7544.334,7,22,2025-04-22T17:18:07.832+03:00,767024494.2872827,0,-11.22,100.3375,1,0.4,2025-04-22T17:20:54.408+03:00,76,1.266666666666667,2025-04-22T14:20:19.516+03:00,0.02197104130929222,0
2025-04-22T17:22:04.918+03:00,1745331723.945964,40.95232391954568,29.14021283107537,77.34093,-1,-1,-1,-1,30,35.71393105997151,-9999,39500.93875925,-0.7589263916015625,0.394927978515625,-0.5112152099609375,39500.92868325,-2.615510600401592,-0.986179920550203,-0.4092029282168054,-0.048725925385952,-0.01411195658147335,0.01045327261090279,0.005460739135742188,0.0006507635116577148,-0.007814407348632812,XArbitraryZVertical,-0.4940713406867673,0.0523049430346554,-0.8078274379088184,0.3171317867075315,-0.7650736570358276,0.3978781998157501,-0.5063154101371765,0,0,0,-1,-1,39498.59238575,unknown,2,2025-04-22T17:22:02.558+03:00,2025-04-21T17:08:51.449+03:00,9047,1.057548,0,0,7544.334,7,22,2025-04-22T17:18:07.832+03:00,767024494.2872827,0,-11.22,100.3375,1,0.4,2025-04-22T17:20:54.408+03:00,76,1.266666666666667,2025-04-22T14:20:19.516+03:00,0.02197104130929222,0
2025-04-22T17:22:04.919+03:00,1745331723.945964,40.95232391954568,29.14021283107537,77.34093,-1,-1,-1,-1,30,35.71393105997151,-9999,39500.94883425,-0.7592010498046875,0.39990234375,-0.4995880126953125,39500.93875925,-2.615917783596396,-0.9864901630396736,-0.4094816586246994,-0.04391812160611153,-0.01804438047111034,0.004341318737715483,0.006654322147369385,-0.004518270492553711,-0.00980675220489502,XArbitraryZVertical,-0.4942043001157021,0.05247593887125206,-0.8077743404367201,0.317031295452055,-0.7651380896568298,0.3981339037418365,-0.5060167908668518,0,0,0,-1,-1,39498.59238575,unknown,2,2025-04-22T17:22:02.558+03:00,2025-04-21T17:08:51.449+03:00,9047,1.057548,0,0,7544.334,7,22,2025-04-22T17:18:07.832+03:00,767024494.2872827,0,-11.22,100.3375,1,0.4,2025-04-22T17:20:54.408+03:00,76,1.266666666666667,2025-04-22T14:20:19.516+03:00,0.02197104130929222,0
2025-04-22T17:22:04.929+03:00,1745331723.945964,40.95232391954568,29.14021283107537,77.34093,-1,-1,-1,-1,30,35.71393105997151,-9999,39500.95891025,-0.7655487060546875,0.39764404296875,-0.4981842041015625,39500.94883425,-2.616273640328568,-0.9867598835465737,-0.4096527238578703,-0.03907569497823715,-0.01015742868185043,0.002895621582865715,0.006764471530914307,-0.002462655305862427,-0.004313349723815918,XArbitraryZVertical,-0.4943150952686927,0.05259450653922253,-0.8077389712628951,0.3169289665237404,-0.765217661857605,0.3982908129692078,-0.5057728290557861,0,0,0,-1,-1,39498.59238575,unknown,2,2025-04-22T17:22:02.558+03:00,2025-04-21T17:08:51.449+03:00,9047,1.057548,0,0,7544.334,7,22,2025-04-22T17:18:07.832+03:00,767024494.2872827,0,-11.22,100.3375,1,0.4,2025-04-22T17:20:54.408+03:00,76,1.266666666666667,2025-04-22T14:20:19.516+03:00,0.02197104130929222,0
2025-04-22T17:22:04.939+03:00,1745331723.945964,40.95232391954568,29.14021283107537,77.34093,-1,-1,-1,-1,30,35.71393105997151,-9999,39500.96898625,-0.7662506103515625,0.3947906494140625,-0.5001220703125,39500.95891025,-2.616640855383842,-0.9869675780719805,-0.4098332538123279,-0.04189544916152954,-0.0001575257629156113,0.002253799699246883,0.004841148853302002,0.001979917287826538,0.00719153881072998,XArbitraryZVertical,-0.4944010924155028,0.05272977329221554,-0.8077194081408935,0.316822392080702,-0.7652627825737,0.3984563946723938,-0.5055742859840393,0,0,0,-1,-1,39498.59238575,unknown,2,2025-04-22T17:22:02.558+03:00,2025-04-21T17:08:51.449+03:00,9047,1.057548,0,0,7544.334,7,22,2025-04-22T17:18:07.832+03:00,767024494.2872827,0,-11.22,100.3375,1,0.4,2025-04-22T17:20:54.408+03:00,76,1.266666666666667,2025-04-22T14:20:19.516+03:00,0.02197104130929222,0
2025-04-22T17:22:04.949+03:00,1745331723.945964,40.95232391954568,29.14021283107537,77.34093,-1,-1,-1,-1,30,35.71393105997151,-9999,39500.97906225,-0.7626800537109375,0.394195556640625,-0.503692626953125,39500.96898625,-2.61707439975897,-0.987148018005922,-0.4100720467307045,-0.05147750303149223,-0.001601225696504116,0.001658449997194111,-0.001052200794219971,-0.001748621463775635,0.006726384162902832,XArbitraryZVertical,-0.494478091872025,0.05291078088236646,-0.8077084529788251,0.3167000092726428,-0.7652745842933655,0.398675411939621,-0.5053837299346924,0,0,0,-1,-1,39498.59238575,unknown,2,2025-04-22T17:22:02.558+03:00,2025-04-21T17:08:51.449+03:00,9047,1.057548,0,0,7544.334,7,22,2025-04-22T17:18:07.832+03:00,767024494.2872827,0,-11.22,100.3375,1,0.4,2025-04-22T17:20:54.408+03:00,76,1.266666666666667,2025-04-22T14:20:19.516+03:00,0.02197104130929222,0
2025-04-22T17:22:04.959+03:00,1745331723.945964,40.95232391954568,29.14021283107537,77.34093,-1,-1,-1,-1,30,35.71393105997151,-9999,39500.98913725001,-0.757080078125,0.3925933837890625,-0.50726318359375,39500.97906225,-2.617579803228869,-0.9874094439489591,-0.4103531633979426,-0.05805151537060738,-0.0108229536563158,0.000226468313485384,-0.0005559325218200684,-0.003837496042251587,0.004374086856842041,XArbitraryZVertical,-0.4945885978662724,0.0531149484349164,-0.8076824692445849,0.3165592297973776,-0.7653130292892456,0.3989332020282745,-0.5051218271255493,0,0,0,-1,-1,39498.59238575,unknown,2,2025-04-22T17:22:02.558+03:00,2025-04-21T17:08:51.449+03:00,9047,1.057548,0,0,7544.334,7,22,2025-04-22T17:18:07.832+03:00,767024494.2872827,0,-11.22,100.3375,1,0.4,2025-04-22T17:20:54.408+03:00,76,1.266666666666667,2025-04-22T14:20:19.516+03:00,0.02197104130929222,0
2025-04-22T17:22:04.969+03:00,1745331723.945964,40.95232391954568,29.14021283107537,77.34093,-1,-1,-1,-1,30,35.71393105997151,-9999,39500.99921325,-0.756011962890625,0.3898468017578125,-0.5087890625,39500.98913725001,-2.61814363937597,-0.9877894829438139,-0.4107030055430554,-0.06628041714429855,-0.02238346822559834,0.003938515670597553,0.004066586494445801,-0.005668878555297852,0.0006951689720153809,XArbitraryZVertical,-0.4947497663070003,0.05334428053546907,-0.8076264030648217,0.316411944936159,-0.7653884291648865,0.3992539644241333,-0.5047541260719299,0,0,0,-1,-1,39498.59238575,unknown,2,2025-04-22T17:22:02.558+03:00,2025-04-21T17:08:51.449+03:00,9047,1.057548,0,0,7544.334,7,22,2025-04-22T17:18:07.832+03:00,767024494.2872827,0,-11.22,100.3375,1,0.4,2025-04-22T17:20:54.408+03:00,76,1.266666666666667,2025-04-22T14:20:19.516+03:00,0.02197104130929222,0
2025-04-22T17:22:04.979+03:00,1745331723.945964,40.95232391954568,29.14021283107537,77.34093,-1,-1,-1,-1,30,35.71393105997151,-9999,39501.00928925,-0.762939453125,0.3898162841796875,-0.514007568359375,39500.99921325,-2.618773816503504,-0.9882107517123749,-0.4111280284831476,-0.07882390916347504,-0.01645553857088089,0.003547297092154622,0.009477913379669189,-0.006607800722122192,-0.002925097942352295,XArbitraryZVertical,-0.4949305270266492,0.05361581878380223,-0.8075594805035113,0.3162541709882358,-0.7654592394828796,0.39964359998703,-0.504338264465332,0,0,0,-1,-1,39498.59238575,unknown,2,2025-04-22T17:22:02.558+03:00,2025-04-21T17:08:51.449+03:00,9047,1.057548,0,0,7544.334,7,22,2025-04-22T17:18:07.832+03:00,767024494.2872827,0,-11.22,100.3375,1,0.4,2025-04-22T17:20:54.408+03:00,76,1.266666666666667,2025-04-22T14:20:19.516+03:00,0.02197104130929222,0
2025-04-22T17:22:05.002+03:00,1745331723.945964,40.95232391954568,29.14021283107537,77.34093,-1,-1,-1,-1,30,35.71393105997151,-9999,39501.01936525,-0.762054443359375,0.392852783203125,-0.511260986328125,39501.00928925,-2.619490089311105,-0.9885450272614625,-0.411605973157147,-0.08505657315254211,-0.006805641576647758,0.001651359489187598,0.008342444896697998,-0.01055541634559631,-0.005208730697631836,XArbitraryZVertical,-0.4950770525651887,0.05394518235267667,-0.8075198497644113,0.3160700662843063,-0.7654681801795959,0.4000816941261292,-0.5039772391319275,0,0,0,-1,-1,39498.59238575,unknown,2,2025-04-22T17:22:02.558+03:00,2025-04-21T17:08:51.449+03:00,9047,1.057548,0,0,7544.334,7,22,2025-04-22T17:18:07.832+03:00,767024494.2872827,0,-11.22,100.3375,1,0.4,2025-04-22T17:20:54.408+03:00,76,1.266666666666667,2025-04-22T14:20:19.516+03:00,0.02197104130929222,0
2025-04-22T17:22:05.005+03:00,1745331723.945964,40.95232391954568,29.14021283107537,77.34093,-1,-1,-1,-1,30,35.71393105997151,-9999,39501.02944025,-0.7589569091796875,0.399078369140625,-0.500946044921875,39501.01936525,-2.620252611949889,-0.9888452018515003,-0.412083955199083,-0.09056265652179718,-0.006492187269032001,0.004757670685648918,0.001680970191955566,-0.01036781072616577,-0.01091474294662476,XArbitraryZVertical,-0.4952083386068329,0.05429149662530131,-0.8074957662474057,0.3158664424936098,-0.7654595375061035,0.4005196988582611,-0.5036422610282898,0,0,0,-1,-1,39498.59238575,unknown,2,2025-04-22T17:22:02.558+03:00,2025-04-21T17:08:51.449+03:00,9047,1.057548,0,0,7544.334,7,22,2025-04-22T17:18:07.832+03:00,767024494.2872827,0,-11.22,100.3375,1,0.4,2025-04-22T17:20:54.408+03:00,76,1.266666666666667,2025-04-22T14:20:19.516+03:00,0.02197104130929222,0
2025-04-22T17:22:05.010+03:00,1745331723.945964,40.95232391954568,29.14021283107537,77.34093,-1,-1,-1,-1,30,35.71393105997151,-9999,39501.03951625,-0.7597503662109375,0.401885986328125,-0.4930572509765625,39501.02944025,-2.621054603418784,-0.9892061770049835,-0.4125919383976054,-0.09083609282970428,-0.00809481181204319,0.0008476506336592138,0.003905236721038818,-0.007079571485519409,-0.0063895583152771,XArbitraryZVertical,-0.4953647232080653,0.05465088967602539,-0.8074584898042756,0.3156547516424488,-0.7654712796211243,0.4009851217269897,-0.5032541155815125,0,0,0,-1,-1,39498.59238575,unknown,2,2025-04-22T17:22:02.558+03:00,2025-04-21T17:08:51.449+03:00,9047,1.057548,0,0,7544.334,7,22,2025-04-22T17:18:07.832+03:00,767024494.2872827,0,-11.22,100.3375,1,0.4,2025-04-22T17:20:54.408+03:00,76,1.266666666666667,2025-04-22T14:20:19.516+03:00,0.02197104130929222,0
2025-04-22T17:22:05.020+03:00,1745331723.945964,40.95232391954568,29.14021283107537,77.34093,-1,-1,-1,-1,30,35.71393105997151,-9999,39501.04959225,-0.7623138427734375,0.403228759765625,-0.4860992431640625,39501.03951625,-2.62182065136932,-0.9895487285994236,-0.4131106273151369,-0.08184898644685745,0.004365053959190845,0.006773716304451227,0.006024539470672607,-0.002214133739471436,0.003075897693634033,XArbitraryZVertical,-0.4955151062787611,0.05500902177929011,-0.8074181770701339,0.3154592502422225,-0.7654696106910706,0.4014602303504944,-0.5028775930404663,0,0,0,-1,-1,39498.59238575,unknown,2,2025-04-22T17:22:02.558+03:00,2025-04-21T17:08:51.449+03:00,9047,1.057548,0,0,7544.334,7,22,2025-04-22T17:18:07.832+03:00,767024494.2872827,0,-11.22,100.3375,1,0.4,2025-04-22T17:20:54.408+03:00,76,1.266666666666667,2025-04-22T14:20:19.516+03:00,0.02197104130929222,0
2025-04-22T17:22:05.030+03:00,1745331723.945964,40.95232391954568,29.14021283107537,77.34093,-1,-1,-1,-1,30,35.71393105997151,-9999,39501.05966825,-0.7636871337890625,0.4016876220703125,-0.486541748046875,39501.04959225,-2.62254456687856,-0.9897775612481262,-0.4136134992858166,-0.08229467272758484,0.01082761399447918,0.008454104885458946,0.005131542682647705,0.0002703368663787842,0.01060223579406738,XArbitraryZVertical,-0.495619428599502,0.05536789288999499,-0.8074017972459364,0.3152746273912033,-0.7654158473014832,0.4019207358360291,-0.5025915503501892,0,0,0,-1,-1,39498.59238575,unknown,2,2025-04-22T17:22:02.558+03:00,2025-04-21T17:08:51.449+03:00,9047,1.057548,0,0,7544.334,7,22,2025-04-22T17:18:07.832+03:00,767024494.2872827,0,-11.22,100.3375,1,0.4,2025-04-22T17:20:54.408+03:00,76,1.266666666666667,2025-04-22T14:20:19.516+03:00,0.02197104130929222,0
2025-04-22T17:22:05.040+03:00,1745331723.945964,40.95232391954568,29.14021283107537,77.34093,-1,-1,-1,-1,30,35.71393105997151,-9999,39501.06974425,-0.76202392578125,0.39801025390625,-0.496856689453125,39501.05966825,-2.623279438906744,-0.9899752712445992,-0.4141159261022829,-0.0896010547876358,0.01028379611670971,0.009540940634906292,0.003047764301300049,0.001748204231262207,0.01680976152420044,XArbitraryZVertical,-0.4957106323234418,0.05573427948186429,-0.8073946962464329,0.3150846469693991,-0.7653462290763855,0.4023807346820831,-0.5023292899131775,0,0,0,-1,-1,39498.59238575,unknown,2,2025-04-22T17:22:02.558+03:00,2025-04-21T17:08:51.449+03:00,9047,1.057548,0,0,7544.334,7,22,2025-04-22T17:18:07.832+03:00,767024494.2872827,0,-11.22,100.3375,1,0.4,2025-04-22T17:20:54.408+03:00,76,1.266666666666667,2025-04-22T14:20:19.516+03:00,0.02197104130929222,0
2025-04-22T17:22:05.050+03:00,1745331723.945964,40.95232391954568,29.14021283107537,77.34093,-1,-1,-1,-1,30,35.71393105997151,-9999,39501.07982087501,-0.760650634765625,0.3963775634765625,-0.5128326416015625,39501.06974425,-2.62407003580089,-0.9902153656570094,-0.4146747311342235,-0.09492851048707962,0.0001948769204318523,0.01095717679709196,0.002110540866851807,-0.001006335020065308,0.01511406898498535,XArbitraryZVertical,-0.4958206508548374,0.05613199965488549,-0.8073775910381886,0.3148848402674982,-0.7652787566184998,0.4028922617435455,-0.5020221471786499,0,0,0,-1,-1,39498.59238575,unknown,2,2025-04-22T17:22:02.558+03:00,2025-04-21T17:08:51.449+03:00,9047,1.057548,0,0,7544.334,7,22,2025-04-22T17:18:07.832+03:00,767024494.2872827,0,-11.22,100.3375,1,0.4,2025-04-22T17:20:54.408+03:00,76,1.266666666666667,2025-04-22T14:20:19.516+03:00,0.02197104130929222,0
2025-04-22T17:22:05.060+03:00,1745331723.945964,40.95232391954568,29.14021283107537,77.34093,-1,-1,-1,-1,30,35.71393105997151,-9999,39501.089896875,-0.7585906982421875,0.396820068359375,-0.53021240234375,39501.07982087501,-2.624813975968279,-0.9905873202477696,-0.4152456016327215,-0.08425695449113846,-0.02364387735724449,0.01202244125306606,0.003493249416351318,-0.006350576877593994,0.002755582332611084,XArbitraryZVertical,-0.4959857011445339,0.05650267423067736,-0.8073184089825243,0.314710054583066,-0.765272855758667,0.4034146666526794,-0.5016112923622131,0,0,0,-1,-1,39498.59238575,unknown,2,2025-04-22T17:22:02.558+03:00,2025-04-21T17:08:51.449+03:00,9047,1.057548,0,0,7544.334,7,22,2025-04-22T17:18:07.832+03:00,767024494.2872827,0,-11.22,100.3375,1,0.4,2025-04-22T17:20:54.408+03:00,76,1.266666666666667,2025-04-22T14:20:19.516+03:00,0.02197104130929222,0
2025-04-22T17:22:05.070+03:00,1745331723.945964,40.95232391954568,29.14021283107537,77.34093,-1,-1,-1,-1,30,35.71393105997151,-9999,39501.099972875,-0.755615234375,0.3990631103515625,-0.5296478271484375,39501.089896875,-2.625524471834155,-0.991128290189486,-0.4157828354556522,-0.09929855912923813,-0.03861064463853836,0.0157305933535099,0.004635930061340332,-0.007879704236984253,-0.01392108201980591,XArbitraryZVertical,-0.4962175046639784,0.05682410877640118,-0.8072169567132762,0.3145469688468612,-0.7653626799583435,0.4039061963558197,-0.5010784268379211,0,0,0,-1,-1,39498.59238575,unknown,2,2025-04-22T17:22:02.558+03:00,2025-04-21T17:08:51.449+03:00,9047,1.057548,0,0,7544.334,7,22,2025-04-22T17:18:07.832+03:00,767024494.2872827,0,-11.22,100.3375,1,0.4,2025-04-22T17:20:54.408+03:00,76,1.266666666666667,2025-04-22T14:20:19.516+03:00,0.02197104130929222,0
2025-04-22T17:22:05.080+03:00,1745331723.945964,40.95232391954568,29.14021283107537,77.34093,-1,-1,-1,-1,30,35.71393105997151,-9999,39501.110048875,-0.759124755859375,0.3926849365234375,-0.5232391357421875,39501.099972875,-2.626498568495777,-0.991922889479245,-0.4165053823062102,-0.1388302445411682,-0.05741575732827187,0.01651862263679504,0.007093369960784912,-0.007792890071868896,-0.03173321485519409,XArbitraryZVertical,-0.4965553397796769,0.05725064648312148,-0.8070665523517896,0.314322376753781,-0.7655161023139954,0.4045670628547668,-0.5003103017807007,0,0,0,-1,-1,39498.59238575,unknown,2,2025-04-22T17:22:02.558+03:00,2025-04-21T17:08:51.449+03:00,9047,1.057548,0,0,7544.334,7,22,2025-04-22T17:18:07.832+03:00,767024494.2872827,0,-11.22,100.3375,1,0.4,2025-04-22T17:20:54.408+03:00,76,1.266666666666667,2025-04-22T14:20:19.516+03:00,0.02197104130929222,0
2025-04-22T17:22:05.090+03:00,1745331723.945964,40.95232391954568,29.14021283107537,77.34093,-1,-1,-1,-1,30,35.71393105997151,-9999,39501.120123875,-0.7589111328125,0.3791656494140625,-0.5352783203125,39501.110048875,-2.627975437696191,-0.9931485507410382,-0.4175467287086283,-0.2191212326288223,-0.08257956802845001,0.02151997201144695,0.009885668754577637,-0.006730824708938599,-0.02823302149772644,XArbitraryZVertical,-0.497071654392749,0.05787124654789826,-0.8068407570653623,0.3139722511328824,-0.7657753825187683,0.4055191874504089,-0.4991413652896881,0,0,0,-1,-1,39498.59238575,unknown,2,2025-04-22T17:22:02.558+03:00,2025-04-21T17:08:51.449+03:00,9047,1.057548,0,0,7544.334,7,22,2025-04-22T17:18:07.832+03:00,767024494.2872827,0,-11.22,100.3375,1,0.4,2025-04-22T17:20:54.408+03:00,76,1.266666666666667,2025-04-22T14:20:19.516+03:00,0.02197104130929222,0
2025-04-22T17:22:05.100+03:00,1745331723.945964,40.95232391954568,29.14021283107537,77.34093,-1,-1,-1,-1,30,35.71393105997151,-9999,39501.13019987501,-0.753326416015625,0.356201171875,-0.5310516357421875,39501.120123875,-2.630384978629257,-0.9950735373312526,-0.4192294964552764,-0.343315064907074,-0.1107883006334305,0.02311520464718342,0.006273806095123291,-0.01580631732940674,-0.02698275446891785,XArbitraryZVertical,-0.4978804711989129,0.05888962746264422,-0.8064917835684972,0.3133973016673605,-0.766161322593689,0.4070568084716797,-0.4972940981388092,0,0,0,-1,-1,39498.59238575,unknown,2,2025-04-22T17:22:02.558+03:00,2025-04-21T17:08:51.449+03:00,9047,1.057548,0,0,7544.334,7,22,2025-04-22T17:18:07.832+03:00,767024494.2872827,0,-11.22,100.3375,1,0.4,2025-04-22T17:20:54.408+03:00,76,1.266666666666667,2025-04-22T14:20:19.516+03:00,0.02197104130929222,0
2025-04-22T17:22:05.110+03:00,1745331723.945964,40.95232391954568,29.14021283107537,77.34093,-1,-1,-1,-1,30,35.71393105997151,-9999,39501.140275875,-0.75543212890625,0.3282623291015625,-0.5265045166015625,39501.13019987501,-2.634340736092556,-0.9979215223701065,-0.4218543382166608,-0.547224223613739,-0.1290133744478226,0.02472402155399323,0.008419156074523926,-0.03196582198143005,-0.04116123914718628,XArbitraryZVertical,-0.4990677261042279,0.06055404822888765,-0.8060135335760401,0.3124206852783454,-0.7666739821434021,0.4094529151916504,-0.4945292174816132,0,0,0,-1,-1,39498.59238575,unknown,2,2025-04-22T17:22:02.558+03:00,2025-04-21T17:08:51.449+03:00,9047,1.057548,0,0,7544.334,7,22,2025-04-22T17:18:07.832+03:00,767024494.2872827,0,-11.22,100.3375,1,0.4,2025-04-22T17:20:54.408+03:00,76,1.266666666666667,2025-04-22T14:20:19.516+03:00,0.02197104130929222,0
2025-04-22T17:22:05.120+03:00,1745331723.945964,40.95232391954568,29.14021283107537,77.34093,-1,-1,-1,-1,30,35.71393105997151,-9999,39501.150351875,-0.7610931396484375,0.3149566650390625,-0.5250244140625,39501.140275875,-2.640146740152879,-1.001554032630728,-0.4256346230536612,-0.7395140528678894,-0.1115206703543663,0.04797501862049103,0.01433330774307251,-0.0610160231590271,-0.03937035799026489,XArbitraryZVertical,-0.5005718902271175,0.06305694672152487,-0.8054517377310785,0.3109645350740556,-0.7671560645103455,0.4128988683223724,-0.4909031987190247,0,0,0,-1,-1,39498.59238575,unknown,2,2025-04-22T17:22:02.558+03:00,2025-04-21T17:08:51.449+03:00,9047,1.057548,0,0,7544.334,7,22,2025-04-22T17:18:07.832+03:00,767024494.2872827,0,-11.22,100.3375,1,0.4,2025-04-22T17:20:54.408+03:00,76,1.266666666666667,2025-04-22T14:20:19.516+03:00,0.02197104130929222,0
2025-04-22T17:22:05.130+03:00,1745331723.945964,40.95232391954568,29.14021283107537,77.34093,-1,-1,-1,-1,30,35.71393105997151,-9999,39501.160427875,-0.7642059326171875,0.3077392578125,-0.50830078125,39501.150351875,-2.647826471862342,-1.005715328342312,-0.4309734990106613,-1.011515855789185,-0.08255140483379364,0.1042470410466194,0.01103299856185913,-0.09185829758644104,-0.04016852378845215,XArbitraryZVertical,-0.502296734540462,0.06662094091328678,-0.8048079999601159,0.3091015013998819,-0.7673196196556091,0.4177554845809937,-0.4865192770957947,0,0,0,-1,-1,39498.59238575,unknown,2,2025-04-22T17:22:02.558+03:00,2025-04-21T17:08:51.449+03:00,9047,1.057548,0,0,7544.334,7,22,2025-04-22T17:18:07.832+03:00,767024494.2872827,0,-11.22,100.3375,1,0.4,2025-04-22T17:20:54.408+03:00,76,1.266666666666667,2025-04-22T14:20:19.516+03:00,0.02197104130929222,0
2025-04-22T17:22:05.141+03:00,1745331723.945964,40.95232391954568,29.14021283107537,77.34093,-1,-1,-1,-1,30,35.71393105997151,-9999,39501.170502875,-0.7730712890625,0.3075103759765625,-0.5146026611328125,39501.160427875,-2.657536697092715,-1.010553372309152,-0.437976783702771,-1.197897672653198,-0.07442662864923477,0.1459164619445801,0.005753695964813232,-0.1101280748844147,-0.04244703054428101,XArbitraryZVertical,-0.504278789063167,0.07131280243560212,-0.8040447490057239,0.3068052080262578,-0.7671671509742737,0.42410808801651,-0.4812347888946533,0,0,0,-1,-1,39498.59238575,unknown,2,2025-04-22T17:22:02.558+03:00,2025-04-21T17:08:51.449+03:00,9047,1.057548,0,0,7544.334,7,22,2025-04-22T17:18:07.832+03:00,767024494.2872827,0,-11.22,100.3375,1,0.4,2025-04-22T17:20:54.408+03:00,76,1.266666666666667,2025-04-22T14:20:19.516+03:00,0.02197104130929222,0
2025-04-22T17:22:05.151+03:00,1745331723.945964,40.95232391954568,29.14021283107537,77.34093,-1,-1,-1,-1,30,35.71393105997151,-9999,39501.180578875,-0.7833099365234375,0.3574371337890625,-0.5359039306640625,39501.170502875,-2.668408535463989,-1.015960136929911,-0.4460592413386608,-1.305889964103699,-0.07271607965230942,0.1839216351509094,0.001697778701782227,-0.1249563097953796,-0.03211164474487305,XArbitraryZVertical,-0.5064485445937275,0.07668518246335798,-0.8031334945388281,0.3043121036821544,-0.7668191194534302,0.4314137101173401,-0.4752584993839264,0,0,0,-1,-1,39498.59238575,unknown,2,2025-04-22T17:22:02.558+03:00,2025-04-21T17:08:51.449+03:00,9047,1.057548,0,0,7544.334,7,22,2025-04-22T17:18:07.832+03:00,767024494.2872827,0,-11.22,100.3375,1,0.4,2025-04-22T17:20:54.408+03:00,76,1.266666666666667,2025-04-22T14:20:19.516+03:00,0.02197104130929222,0
2025-04-22T17:22:05.161+03:00,1745331723.945964,40.95232391954568,29.14021283107537,77.34093,-1,-1,-1,-1,30,35.71393105997151,-9999,39501.190654875,-0.79730224609375,0.408172607421875,-0.562408447265625,39501.180578875,-2.680018121630747,-1.021693017675567,-0.4549258780128682,-1.3737633228302,-0.05566040053963661,0.2287466377019882,-0.007992863655090332,-0.1285131871700287,-0.04921162128448486,XArbitraryZVertical,-0.5086909510064986,0.0825448722803426,-0.8021086118723577,0.3017311643297439,-0.7662380933761597,0.4393957257270813,-0.4688397347927094,0,0,0,-1,-1,39498.59238575,unknown,2,2025-04-22T17:22:02.558+03:00,2025-04-21T17:08:51.449+03:00,9047,1.057548,0,0,7544.334,7,22,2025-04-22T17:18:07.832+03:00,767024494.2872827,0,-11.22,100.3375,1,0.4,2025-04-22T17:20:54.408+03:00,76,1.266666666666667,2025-04-22T14:20:19.516+03:00,0.02197104130929222,0
2025-04-22T17:22:05.171+03:00,1745331723.945964,40.95232391954568,29.14021283107537,77.34093,-1,-1,-1,-1,30,35.71393105997151,-9999,39501.200730875,-0.8121185302734375,0.4215087890625,-0.6266021728515625,39501.190654875,-2.691911296656563,-1.027387505726562,-0.4643495324227859,-1.410802602767944,-0.02900854870676994,0.2705300152301788,-0.01936608552932739,-0.08239340782165527,-0.07504647970199585,XArbitraryZVertical,-0.5108546088670516,0.08873534399906818,-0.8010245100192194,0.2991878006681687,-0.7653170824050903,0.4478413164615631,-0.4623072147369385,0,0,0,-1,-1,39498.59238575,unknown,2,2025-04-22T17:22:02.558+03:00,2025-04-21T17:08:51.449+03:00,9047,1.057548,0,0,7544.334,7,22,2025-04-22T17:18:07.832+03:00,767024494.2872827,0,-11.22,100.3375,1,0.4,2025-04-22T17:20:54.408+03:00,76,1.266666666666667,2025-04-22T14:20:19.516+03:00,0.02197104130929222,0
2025-04-22T17:22:05.181+03:00,1745331723.945964,40.95232391954568,29.14021283107537,77.34093,-1,-1,-1,-1,30,35.71393105997151,-9999,39501.210805875,-0.8163604736328125,0.4326171875,-0.70245361328125,39501.200730875,-2.704079242523877,-1.033197278454041,-0.4741262633224101,-1.418377637863159,-0.03932643309235573,0.2842245399951935,-0.03452867269515991,-0.04593208432197571,-0.1136553883552551,XArbitraryZVertical,-0.5129844937779144,0.0951436855746375,-0.7998699394463483,0.2966523556687943,-0.7641925811767578,0.456561267375946,-0.4555891752243042,0,0,0,-1,-1,39498.59238575,unknown,2,2025-04-22T17:22:02.558+03:00,2025-04-21T17:08:51.449+03:00,9047,1.057548,0,0,7544.334,7,22,2025-04-22T17:18:07.832+03:00,767024494.2872827,0,-11.22,100.3375,1,0.4,2025-04-22T17:20:54.408+03:00,76,1.266666666666667,2025-04-22T14:20:19.516+03:00,0.02197104130929222,0
2025-04-22T17:22:05.191+03:00,1745331723.945964,40.95232391954568,29.14021283107537,77.34093,-1,-1,-1,-1,30,35.71393105997151,-9999,39501.220881875,-0.81085205078125,0.420654296875,-0.7552642822265625,39501.210805875,-2.715999506499475,-1.039437439013107,-0.4837837695782042,-1.357751846313477,-0.1247340068221092,0.2898600399494171,-0.04972827434539795,-0.04141083359718323,-0.1869570016860962,XArbitraryZVertical,-0.515210842927198,0.10138811186807,-0.7985574361964205,0.2942519447426108,-0.76318359375,0.4651320576667786,-0.4485564827919006,0,0,0,-1,-1,39498.59238575,unknown,2,2025-04-22T17:22:02.558+03:00,2025-04-21T17:08:51.449+03:00,9047,1.057548,0,0,7544.334,7,22,2025-04-22T17:18:07.832+03:00,767024494.2872827,0,-11.22,100.3375,1,0.4,2025-04-22T17:20:54.408+03:00,76,1.266666666666667,2025-04-22T14:20:19.516+03:00,0.02197104130929222,0
2025-04-22T17:22:05.201+03:00,1745331723.945964,40.95232391954568,29.14021283107537,77.34093,-1,-1,-1,-1,30,35.71393105997151,-9999,39501.230957875,-0.831817626953125,0.41033935546875,-0.746490478515625,39501.220881875,-2.727338094344297,-1.046928835356042,-0.4928941301128658,-1.26866888999939,-0.307442307472229,0.2697854042053223,-0.05288279056549072,-0.04101809859275818,-0.2712409496307373,XArbitraryZVertical,-0.5178700407697886,0.1070809621959352,-0.7968918717919881,0.2920748248729231,-0.7628215551376343,0.4731774926185608,-0.4406885802745819,0,0,0,-1,-1,39498.59238575,unknown,2,2025-04-22T17:22:02.558+03:00,2025-04-21T17:08:51.449+03:00,9047,1.057548,0,0,7544.334,7,22,2025-04-22T17:18:07.832+03:00,767024494.2872827,0,-11.22,100.3375,1,0.4,2025-04-22T17:20:54.408+03:00,76,1.266666666666667,2025-04-22T14:20:19.516+03:00,0.02197104130929222,0
2025-04-22T17:22:05.211+03:00,1745331723.945964,40.95232391954568,29.14021283107537,77.34093,-1,-1,-1,-1,30,35.71393105997151,-9999,39501.24103387501,-0.8664093017578125,0.4017791748046875,-0.735504150390625,39501.230957875,-2.737978295803661,-1.055441483116896,-0.5013532564926124,-1.170949697494507,-0.3584588766098022,0.2787184417247772,-0.04832041263580322,-0.06182008981704712,-0.3245842754840851,XArbitraryZVertical,-0.520883349823367,0.1121834879576143,-0.7949308391326618,0.2901383440450508,-0.763034999370575,0.4806126952171326,-0.4321908056735992,0,0,0,-1,-1,39498.59238575,unknown,2,2025-04-22T17:22:02.558+03:00,2025-04-21T17:08:51.449+03:00,9047,1.057548,0,0,7544.334,7,22,2025-04-22T17:18:07.832+03:00,767024494.2872827,0,-11.22,100.3375,1,0.4,2025-04-22T17:20:54.408+03:00,76,1.266666666666667,2025-04-22T14:20:19.516+03:00,0.02197104130929222,0
2025-04-22T17:22:05.221+03:00,1745331723.945964,40.95232391954568,29.14021283107537,77.34093,-1,-1,-1,-1,30,35.71393105997151,-9999,39501.251108875,-0.8590545654296875,0.4058380126953125,-0.7249298095703125,39501.24103387501,-2.747281138991658,-1.063768040106357,-0.5094273823983682,-1.030103445053101,-0.4112168848514557,0.3231402337551117,-0.07341885566711426,-0.07758226990699768,-0.3202317953109741,XArbitraryZVertical,-0.523824411938137,0.1168154670247975,-0.7928571530686974,0.2886859163842745,-0.7631899118423462,0.4876774251461029,-0.4239242672920227,0,0,0,-1,-1,39498.59238575,unknown,2,2025-04-22T17:22:02.558+03:00,2025-04-21T17:08:51.449+03:00,9047,1.057548,0,0,7544.334,7,22,2025-04-22T17:18:07.832+03:00,767024494.2872827,0,-11.22,100.3375,1,0.4,2025-04-22T17:20:54.408+03:00,76,1.266666666666667,2025-04-22T14:20:19.516+03:00,0.02197104130929222,0
2025-04-22T17:22:05.231+03:00,1745331723.945964,40.95232391954568,29.14021283107537,77.34093,-1,-1,-1,-1,30,35.71393105997151,-9999,39501.261184875,-0.8217926025390625,0.45556640625,-0.700775146484375,39501.251108875,-2.755255825585298,-1.072257185186772,-0.5170068244202032,-0.8945639729499817,-0.4921444952487946,0.3297392725944519,-0.1051747798919678,-0.09297433495521545,-0.3185411691665649,XArbitraryZVertical,-0.5268427151696838,0.1208772323801493,-0.7906024261932634,0.2877032420084665,-0.7634927034378052,0.4942803680896759,-0.4156509041786194,0,0,0,-1,-1,39498.59238575,unknown,2,2025-04-22T17:22:02.558+03:00,2025-04-21T17:08:51.449+03:00,9047,1.057548,0,0,7544.334,7,22,2025-04-22T17:18:07.832+03:00,767024494.2872827,0,-11.22,100.3375,1,0.4,2025-04-22T17:20:54.408+03:00,76,1.266666666666667,2025-04-22T14:20:19.516+03:00,0.02197104130929222,0
2025-04-22T17:22:05.241+03:00,1745331723.945964,40.95232391954568,29.14021283107537,77.34093,-1,-1,-1,-1,30,35.71393105997151,-9999,39501.271260875,-0.793426513671875,0.5128021240234375,-0.7019500732421875,39501.261184875,-2.761156122678494,-1.080786987806086,-0.523636291177232,-0.5980135202407837,-0.625435471534729,0.3476583659648895,-0.09063398838043213,-0.09056293964385986,-0.3143364787101746,XArbitraryZVertical,-0.5299430464021587,0.1239929442735667,-0.7881655581291668,0.2873691379719386,-0.7641022205352783,0.5000324845314026,-0.4075722396373749,0,0,0,-1,-1,39498.59238575,unknown,2,2025-04-22T17:22:02.558+03:00,2025-04-21T17:08:51.449+03:00,9047,1.057548,0,0,7544.334,7,22,2025-04-22T17:18:07.832+03:00,767024494.2872827,0,-11.22,100.3375,1,0.4,2025-04-22T17:20:54.408+03:00,76,1.266666666666667,2025-04-22T14:20:19.516+03:00,0.02197104130929222,0
2025-04-22T17:22:05.252+03:00,1745331723.945964,40.95232391954568,29.14021283107537,77.34093,-1,-1,-1,-1,30,35.71393105997151,-9999,39501.281336875,-0.7888336181640625,0.5608367919921875,-0.7075347900390625,39501.271260875,-2.763255629039534,-1.088757792332225,-0.5286566581244901,-0.1777245849370956,-0.733335554599762,0.3655430972576141,-0.05229002237319946,-0.04039990901947021,-0.2985069155693054,XArbitraryZVertical,-0.5330086016198969,0.1255062537762461,-0.7855645168270703,0.2881635684715925,-0.7650926113128662,0.5043738484382629,-0.4003000259399414,0,0,0,-1,-1,39498.59238575,unknown,2,2025-04-22T17:22:02.558+03:00,2025-04-21T17:08:51.449+03:00,9047,1.057548,0,0,7544.334,7,22,2025-04-22T17:18:07.832+03:00,767024525.2372123,0,-10.4,100.3298,1,0.4,2025-04-22T17:20:54.408+03:00,76,1.266666666666667,2025-04-22T14:20:19.516+03:00,0.02197104130929222,0
2025-04-22T17:22:05.261+03:00,1745331723.945964,40.95232391954568,29.14021283107537,77.34093,-1,-1,-1,-1,30,35.71393105997151,-9999,39501.29141287501,-0.7949066162109375,0.59918212890625,-0.666534423828125,39501.281336875,-2.761180729227135,-1.095245417104336,-0.5319778698051458,0.1667403876781464,-0.7599522471427917,0.3820600211620331,-0.02474391460418701,0.01155978441238403,-0.3097869455814362,XArbitraryZVertical,-0.53571914871947,0.1254015518169961,-0.7830089998792711,0.2901312980220774,-0.7661799788475037,0.5072388648986816,-0.3945588767528534,0,0,0,-1,-1,39498.59238575,unknown,2,2025-04-22T17:22:02.558+03:00,2025-04-21T17:08:51.449+03:00,9047,1.057548,0,0,7544.334,7,22,2025-04-22T17:18:07.832+03:00,767024525.2372123,0,-10.4,100.3298,1,0.4,2025-04-22T17:20:54.408+03:00,76,1.266666666666667,2025-04-22T14:20:19.516+03:00,0.02197104130929222,0
2025-04-22T17:22:05.272+03:00,1745331723.945964,40.95232391954568,29.14021283107537,77.34093,-1,-1,-1,-1,30,35.71393105997151,-9999,39501.301487875,-0.767059326171875,0.595977783203125,-0.59954833984375,39501.29141287501,-2.756524384807698,-1.10061988247076,-0.5345120707847035,0.28089839220047,-0.7787254452705383,0.4321237206459045,-0.02323353290557861,0.05724430084228516,-0.3148755133152008,XArbitraryZVertical,-0.5381380230424956,0.1244250009867949,-0.7804865568130478,0.292859019301974,-0.7671410441398621,0.5094212293624878,-0.3898517787456512,0,0,0,-1,-1,39498.59238575,unknown,2,2025-04-22T17:22:02.558+03:00,2025-04-21T17:08:51.449+03:00,9047,1.057548,0,0,7544.334,7,22,2025-04-22T17:18:07.832+03:00,767024525.2372123,0,-10.4,100.3298,1,0.4,2025-04-22T17:20:54.408+03:00,76,1.266666666666667,2025-04-22T14:20:19.516+03:00,0.02197104130929222,0
2025-04-22T17:22:05.282+03:00,1745331723.945964,40.95232391954568,29.14021283107537,77.34093,-1,-1,-1,-1,30,35.71393105997151,-9999,39501.311563875,-0.7362823486328125,0.5670013427734375,-0.545654296875,39501.301487875,-2.751210487096591,-1.106085505153162,-0.5374704680105067,0.2692305445671082,-0.8552388548851013,0.4971754252910614,-0.02609646320343018,0.08930766582489014,-0.2735629975795746,XArbitraryZVertical,-0.5406290632481239,0.1234189271988286,-0.7777589650179553,0.2959370991606051,-0.7679097056388855,0.511964738368988,-0.3849759697914124,0,0,0,-1,-1,39498.59238575,unknown,2,2025-04-22T17:22:02.558+03:00,2025-04-21T17:08:51.449+03:00,9047,1.057548,0,0,7544.334,7,22,2025-04-22T17:18:07.832+03:00,767024525.2372123,0,-10.4,100.3298,1,0.4,2025-04-22T17:20:54.408+03:00,76,1.266666666666667,2025-04-22T14:20:19.516+03:00,0.02197104130929222,0
2025-04-22T17:22:05.292+03:00,1745331723.945964,40.95232391954568,29.14021283107537,77.34093,-1,-1,-1,-1,30,35.71393105997151,-9999,39501.321639875,-0.75555419921875,0.5660400390625,-0.504119873046875,39501.311563875,-2.74562556499567,-1.112265284141444,-0.5408539008627333,0.2737429141998291,-0.9277016520500183,0.5196731090545654,0.006494283676147461,0.07669961452484131,-0.212007075548172,XArbitraryZVertical,-0.5434088347474283,0.1223916810308017,-0.7747097862422281,0.2992517929521705,-0.7687163949012756,0.5148681998252869,-0.3794542253017426,0,0,0,-1,-1,39498.59238575,unknown,2,2025-04-22T17:22:02.558+03:00,2025-04-21T17:08:51.449+03:00,9047,1.057548,0,0,7544.334,7,22,2025-04-22T17:18:07.832+03:00,767024525.2372123,0,-10.4,100.3298,1,0.4,2025-04-22T17:20:54.408+03:00,76,1.266666666666667,2025-04-22T14:20:19.516+03:00,0.02197104130929222,0
2025-04-22T17:22:05.302+03:00,1745331723.945964,40.95232391954568,29.14021283107537,77.34093,-1,-1,-1,-1,30,35.71393105997151,-9999,39501.331715875,-0.8119659423828125,0.6032257080078125,-0.4557342529296875,39501.321639875,-2.739847265268355,-1.118624074656993,-0.5442161232576304,0.3243160843849182,-0.9186682105064392,0.5115715265274048,0.03417038917541504,0.04705631732940674,-0.1664833128452301,XArbitraryZVertical,-0.5462574771388108,0.1212549440352495,-0.7715636258781102,0.30263732963867,-0.7695522308349609,0.5177476406097412,-0.3738000094890594,0,0,0,-1,-1,39498.59238575,unknown,2,2025-04-22T17:22:02.558+03:00,2025-04-21T17:08:51.449+03:00,9047,1.057548,0,0,7544.334,7,22,2025-04-22T17:18:07.832+03:00,767024525.2372123,0,-10.4,100.3298,1,0.4,2025-04-22T17:20:54.408+03:00,76,1.266666666666667,2025-04-22T14:20:19.516+03:00,0.02197104130929222,0
2025-04-22T17:22:05.312+03:00,1745331723.945964,40.95232391954568,29.14021283107537,77.34093,-1,-1,-1,-1,30,35.71393105997151,-9999,39501.34179187501,-0.8336029052734375,0.6298980712890625,-0.413909912109375,39501.331715875,-2.733007202208608,-1.123978824238418,-0.547127172788006,0.4740995466709137,-0.852659285068512,0.5160926580429077,0.00769883394241333,0.04905408620834351,-0.1285376250743866,XArbitraryZVertical,-0.5487659656571923,0.119772082552142,-0.7685812378776663,0.3062569381520783,-0.7701804041862488,0.5202358961105347,-0.3690211176872253,0,0,0,-1,-1,39498.59238575,unknown,2,2025-04-22T17:22:02.558+03:00,2025-04-21T17:08:51.449+03:00,9047,1.057548,0,0,7544.334,7,22,2025-04-22T17:18:07.832+03:00,767024525.2372123,0,-10.4,100.3298,1,0.4,2025-04-22T17:20:54.408+03:00,76,1.266666666666667,2025-04-22T14:20:19.516+03:00,0.02197104130929222,0
2025-04-22T17:22:05.322+03:00,1745331723.945964,40.95232391954568,29.14021283107537,77.34093,-1,-1,-1,-1,30,35.71393105997151,-9999,39501.351866875,-0.813323974609375,0.6318206787109375,-0.347381591796875,39501.34179187501,-2.724796823836579,-1.128121664732437,-0.5494616586483757,0.564153790473938,-0.8294432163238525,0.4832020998001099,-0.0472068190574646,0.08673465251922607,-0.08466061949729919,XArbitraryZVertical,-0.5508724693738482,0.117841132206956,-0.7657925303203024,0.3101847572635699,-0.7706030011177063,0.5222281813621521,-0.3653059899806976,0,0,0,-1,-1,39498.59238575,unknown,2,2025-04-22T17:22:02.558+03:00,2025-04-21T17:08:51.449+03:00,9047,1.057548,0,0,7544.334,7,22,2025-04-22T17:18:07.832+03:00,767024525.2372123,0,-10.4,100.3298,1,0.4,2025-04-22T17:20:54.408+03:00,76,1.266666666666667,2025-04-22T14:20:19.516+03:00,0.02197104130929222,0
2025-04-22T17:22:05.332+03:00,1745331723.945964,40.95232391954568,29.14021283107537,77.34093,-1,-1,-1,-1,30,35.71393105997151,-9999,39501.361942875,-0.804595947265625,0.61236572265625,-0.26458740234375,39501.351866875,-2.716660821777587,-1.132259391531868,-0.550980144139908,0.5316944718360901,-0.8342854976654053,0.3734247386455536,-0.06050467491149902,0.1075044870376587,-0.04517486691474915,XArbitraryZVertical,-0.5529497086261195,0.1155769529919042,-0.7631292519912227,0.313882313219106,-0.7713890671730042,0.5235225558280945,-0.3617771863937378,0,0,0,-1,-1,39498.59238575,unknown,2,2025-04-22T17:22:02.558+03:00,2025-04-21T17:08:51.449+03:00,9047,1.057548,0,0,7544.334,7,22,2025-04-22T17:18:07.832+03:00,767024525.2372123,0,-10.4,100.3298,1,0.4,2025-04-22T17:20:54.408+03:00,76,1.266666666666667,2025-04-22T14:20:19.516+03:00,0.02197104130929222,0
2025-04-22T17:22:05.342+03:00,1745331723.945964,40.95232391954568,29.14021283107537,77.34093,-1,-1,-1,-1,30,35.71393105997151,-9999,39501.372018875,-0.7953643798828125,0.5957794189453125,-0.1871185302734375,39501.361942875,-2.710047042545765,-1.137253162582482,-0.5518674641141705,0.3945733308792114,-0.8304013013839722,0.2652961611747742,-0.03854537010192871,0.1069165468215942,0.0204753577709198,XArbitraryZVertical,-0.555243483376109,0.1133226979941643,-0.7605545629840198,0.3168899734792707,-0.772764265537262,0.5242784023284912,-0.3577252924442291,0,0,0,-1,-1,39498.59238575,unknown,2,2025-04-22T17:22:02.558+03:00,2025-04-21T17:08:51.449+03:00,9047,1.057548,0,0,7544.334,7,22,2025-04-22T17:18:07.832+03:00,767024525.2372123,0,-10.4,100.3298,1,0.4,2025-04-22T17:20:54.408+03:00,76,1.266666666666667,2025-04-22T14:20:19.516+03:00,0.02197104130929222,0
2025-04-22T17:22:05.352+03:00,1745331723.945964,40.95232391954568,29.14021283107537,77.34093,-1,-1,-1,-1,30,35.71393105997151,-9999,39501.382094875,-0.7753143310546875,0.6171112060546875,-0.158660888671875,39501.372018875,-2.705583262469514,-1.143068955333267,-0.5526202922447453,0.2336541712284088,-0.7897684574127197,0.183152511715889,-0.02914696931838989,0.08369261026382446,0.09859022498130798,XArbitraryZVertical,-0.5577139090726814,0.1114656824582012,-0.7581002252740382,0.3190838274319764,-0.7744722962379456,0.5249192714691162,-0.3530611991882324,0,0,0,-1,-1,39498.59238575,unknown,2,2025-04-22T17:22:02.558+03:00,2025-04-21T17:08:51.449+03:00,9047,1.057548,0,0,7544.334,7,22,2025-04-22T17:18:07.832+03:00,767024525.2372123,0,-10.4,100.3298,1,0.4,2025-04-22T17:20:54.408+03:00,76,1.266666666666667,2025-04-22T14:20:19.516+03:00,0.02197104130929222,0
2025-04-22T17:22:05.362+03:00,1745331723.945964,40.95232391954568,29.14021283107537,77.34093,-1,-1,-1,-1,30,35.71393105997151,-9999,39501.39216987501,-0.7625732421875,0.6489715576171875,-0.173736572265625,39501.382094875,-2.702956013994916,-1.149364794378365,-0.5532669241482001,0.1192828565835953,-0.7403647303581238,0.115271732211113,-0.01681232452392578,0.07090479135513306,0.167298823595047,XArbitraryZVertical,-0.5602521806062739,0.1099900889846191,-0.7558114684872618,0.3205753040736648,-0.7763698101043701,0.5254695415496826,-0.3480393588542938,0,0,0,-1,-1,39498.59238575,unknown,2,2025-04-22T17:22:02.558+03:00,2025-04-21T17:08:51.449+03:00,9047,1.057548,0,0,7544.334,7,22,2025-04-22T17:18:07.832+03:00,767024525.2372123,0,-10.4,100.3298,1,0.4,2025-04-22T17:20:54.408+03:00,76,1.266666666666667,2025-04-22T14:20:19.516+03:00,0.02197104130929222,0
2025-04-22T17:22:05.372+03:00,1745331723.945964,40.95232391954568,29.14021283107537,77.34093,-1,-1,-1,-1,30,35.71393105997151,-9999,39501.402245875,-0.7547760009765625,0.6682891845703125,-0.199493408203125,39501.39216987501,-2.701680489344815,-1.155973181349003,-0.5536344529960422,0.0540255531668663,-0.7025680541992188,0.03670341894030571,0.005420148372650146,0.09532672166824341,0.1841776072978973,XArbitraryZVertical,-0.5628213367091079,0.1087217693661229,-0.7536893639257666,0.3215028680174898,-0.7784761786460876,0.5257822275161743,-0.3428234457969666,0,0,0,-1,-1,39498.59238575,unknown,2,2025-04-22T17:22:02.558+03:00,2025-04-21T17:08:51.449+03:00,9047,1.057548,0,0,7544.334,7,22,2025-04-22T17:18:07.832+03:00,767024525.2372123,0,-10.4,100.3298,1,0.4,2025-04-22T17:20:54.408+03:00,76,1.266666666666667,2025-04-22T14:20:19.516+03:00,0.02197104130929222,0
2025-04-22T17:22:05.382+03:00,1745331723.945964,40.95232391954568,29.14021283107537,77.34093,-1,-1,-1,-1,30,35.71393105997151,-9999,39501.412321875,-0.7521820068359375,0.6719207763671875,-0.2093505859375,39501.402245875,-2.701269191333681,-1.162674331050083,-0.5534553882959944,0.03366595506668091,-0.6701600551605225,-0.03761901333928108,0.02008497714996338,0.126103401184082,0.1598865985870361,XArbitraryZVertical,-0.5653629951671996,0.1074545245832807,-0.7517633461100725,0.321978236250111,-0.7808423042297363,0.5256298780441284,-0.337636411190033,0,0,0,-1,-1,39498.59238575,unknown,2,2025-04-22T17:22:02.558+03:00,2025-04-21T17:08:51.449+03:00,9047,1.057548,0,0,7544.334,7,22,2025-04-22T17:18:07.832+03:00,767024525.2372123,0,-10.4,100.3298,1,0.4,2025-04-22T17:20:54.408+03:00,76,1.266666666666667,2025-04-22T14:20:19.516+03:00,0.02197104130929222,0
2025-04-22T17:22:05.393+03:00,1745331723.945964,40.95232391954568,29.14021283107537,77.34093,-1,-1,-1,-1,30,35.71393105997151,-9999,39501.422397875,-0.7517547607421875,0.6612548828125,-0.2064208984375,39501.412321875,-2.701246261357023,-1.169208600716919,-0.5526595906945745,0.03227811306715012,-0.6337941288948059,-0.1103102937340736,0.028900146484375,0.1444196701049805,0.1313352882862091,XArbitraryZVertical,-0.5678061014036804,0.1060709072915434,-0.7500430158016012,0.3221498119329386,-0.7834165692329407,0.52495276927948,-0.3326903879642487,0,0,0,-1,-1,39498.59238575,unknown,2,2025-04-22T17:22:02.558+03:00,2025-04-21T17:08:51.449+03:00,9047,1.057548,0,0,7544.334,7,22,2025-04-22T17:18:07.832+03:00,767024525.2372123,0,-10.4,100.3298,1,0.4,2025-04-22T17:20:54.408+03:00,76,1.266666666666667,2025-04-22T14:20:19.516+03:00,0.02197104130929222,0
2025-04-22T17:22:05.403+03:00,1745331723.945964,40.95232391954568,29.14021283107537,77.34093,-1,-1,-1,-1,30,35.71393105997151,-9999,39501.432473875,-0.7628173828125,0.6491241455078125,-0.187896728515625,39501.422397875,-2.701602457820776,-1.175581748783527,-0.5511209252916868,0.02838164195418358,-0.5967682003974915,-0.193693608045578,0.03446507453918457,0.1476830244064331,0.1182692348957062,XArbitraryZVertical,-0.5701535667709198,0.1045188438921269,-0.7485471168688438,0.3219904071015814,-0.78626549243927,0.5236425399780273,-0.3280014395713806,0,0,0,-1,-1,39498.59238575,unknown,2,2025-04-22T17:22:02.558+03:00,2025-04-21T17:08:51.449+03:00,9047,1.057548,0,0,7544.334,7,22,2025-04-22T17:18:07.832+03:00,767024525.2372123,0,-10.4,100.3298,1,0.4,2025-04-22T17:20:54.408+03:00,76,1.266666666666667,2025-04-22T14:20:19.516+03:00,0.02197104130929222,0
2025-04-22T17:22:05.413+03:00,1745331723.945964,40.95232391954568,29.14021283107537,77.34093,-1,-1,-1,-1,30,35.71393105997151,-9999,39501.44254887501,-0.7800750732421875,0.632110595703125,-0.1515960693359375,39501.432473875,-2.702418552431305,-1.181797995165975,-0.5488314021096996,0.01582383923232555,-0.5458477139472961,-0.279287576675415,0.03741300106048584,0.1381603479385376,0.1180253624916077,XArbitraryZVertical,-0.5724048113445368,0.1028204475955618,-0.7472885190938285,0.3214661429961235,-0.7893965244293213,0.5216906070709229,-0.3235613703727722,0,0,0,-1,-1,39498.59238575,unknown,2,2025-04-22T17:22:02.558+03:00,2025-04-21T17:08:51.449+03:00,9047,1.057548,0,0,7544.334,7,22,2025-04-22T17:18:07.832+03:00,767024525.2372123,0,-10.4,100.3298,1,0.4,2025-04-22T17:20:54.408+03:00,76,1.266666666666667,2025-04-22T14:20:19.516+03:00,0.02197104130929222,0
2025-04-22T17:22:05.423+03:00,1745331723.945964,40.95232391954568,29.14021283107537,77.34093,-1,-1,-1,-1,30,35.71393105997151,-9999,39501.452624875,-0.7989654541015625,0.607086181640625,-0.1184234619140625,39501.44254887501,-2.703990698716503,-1.187790778025105,-0.5459336777362328,-0.05824559181928635,-0.4762760698795319,-0.3530845642089844,0.02808713912963867,0.1276037096977234,0.1358098387718201,XArbitraryZVertical,-0.5745241399745006,0.1011323423900706,-0.7463089958099459,0.3204950830832691,-0.7927202582359314,0.5192162990570068,-0.3193885385990143,0,0,0,-1,-1,39498.59238575,unknown,2,2025-04-22T17:22:02.558+03:00,2025-04-21T17:08:51.449+03:00,9047,1.057548,0,0,7544.334,7,22,2025-04-22T17:18:07.832+03:00,767024525.2372123,0,-10.4,100.3298,1,0.4,2025-04-22T17:20:54.408+03:00,76,1.266666666666667,2025-04-22T14:20:19.516+03:00,0.02197104130929222,0
2025-04-22T17:22:05.433+03:00,1745331723.945964,40.95232391954568,29.14021283107537,77.34093,-1,-1,-1,-1,30,35.71393105997151,-9999,39501.462700875,-0.8064727783203125,0.575958251953125,-0.104248046875,39501.452624875,-2.706865143547168,-1.193682612826891,-0.5426942140924306,-0.1581112742424011,-0.4003169238567352,-0.4180730283260345,0.01361620426177979,0.113498866558075,0.1679758727550507,XArbitraryZVertical,-0.5765362839607918,0.09970371094285782,-0.7456143280001063,0.318942582658059,-0.796147882938385,0.516444981098175,-0.3153301775455475,0,0,0,-1,-1,39498.59238575,unknown,2,2025-04-22T17:22:02.558+03:00,2025-04-21T17:08:51.449+03:00,9047,1.057548,0,0,7544.334,7,22,2025-04-22T17:18:07.832+03:00,767024525.2372123,0,-10.4,100.3298,1,0.4,2025-04-22T17:20:54.408+03:00,76,1.266666666666667,2025-04-22T14:20:19.516+03:00,0.02197104130929222,0
2025-04-22T17:22:05.443+03:00,1745331723.945964,40.95232391954568,29.14021283107537,77.34093,-1,-1,-1,-1,30,35.71393105997151,-9999,39501.472776875,-0.7984771728515625,0.54876708984375,-0.1102142333984375,39501.462700875,-2.710964117721898,-1.199564811755597,-0.5392953671896018,-0.2374441772699356,-0.3510535061359406,-0.4647931456565857,-0.0008559226989746094,0.08954155445098877,0.195553719997406,XArbitraryZVertical,-0.5784846749301659,0.09857578778635798,-0.745131803557689,0.3168861693283732,-0.7996200323104858,0.513531506061554,-0.3112765848636627,0,0,0,-1,-1,39498.59238575,unknown,2,2025-04-22T17:22:02.558+03:00,2025-04-21T17:08:51.449+03:00,9047,1.057548,0,0,7544.334,7,22,2025-04-22T17:18:07.832+03:00,767024525.2372123,0,-10.4,100.3298,1,0.4,2025-04-22T17:20:54.408+03:00,76,1.266666666666667,2025-04-22T14:20:19.516+03:00,0.02197104130929222,0
2025-04-22T17:22:05.453+03:00,1745331723.945964,40.95232391954568,29.14021283107537,77.34093,-1,-1,-1,-1,30,35.71393105997151,-9999,39501.482852875,-0.78533935546875,0.5340423583984375,-0.1156463623046875,39501.472776875,-2.715730769657357,-1.205300824483065,-0.5356215171991314,-0.248771533370018,-0.3026626706123352,-0.5053143501281738,-0.003079593181610107,0.0625917911529541,0.2025443017482758,XArbitraryZVertical,-0.580346811201349,0.09756562130082996,-0.7448282019479278,0.3144984628631943,-0.8031488656997681,0.5103756189346313,-0.3073570430278778,0,0,0,-1,-1,39498.59238575,unknown,2,2025-04-22T17:22:02.558+03:00,2025-04-21T17:08:51.449+03:00,9047,1.057548,0,0,7544.334,7,22,2025-04-22T17:18:07.832+03:00,767024525.2372123,0,-10.4,100.3298,1,0.4,2025-04-22T17:20:54.408+03:00,76,1.266666666666667,2025-04-22T14:20:19.516+03:00,0.02197104130929222,0
2025-04-22T17:22:05.463+03:00,1745331723.945964,40.95232391954568,29.14021283107537,77.34093,-1,-1,-1,-1,30,35.71393105997151,-9999,39501.49292787501,-0.7722320556640625,0.532470703125,-0.12908935546875,39501.482852875,-2.720408251593193,-1.210505182607684,-0.5315227960468121,-0.2014865726232529,-0.2583625912666321,-0.5379370450973511,0.01011878252029419,0.03935682773590088,0.192656010389328,XArbitraryZVertical,-0.5820159351449725,0.09645441308068521,-0.7447192543579115,0.3120049595225288,-0.8066884279251099,0.5068466067314148,-0.3039079904556274,0,0,0,-1,-1,39498.59238575,unknown,2,2025-04-22T17:22:02.558+03:00,2025-04-21T17:08:51.449+03:00,9047,1.057548,0,0,7544.334,7,22,2025-04-22T17:18:07.832+03:00,767024525.2372123,0,-10.4,100.3298,1,0.4,2025-04-22T17:20:54.408+03:00,76,1.266666666666667,2025-04-22T14:20:19.516+03:00,0.02197104130929222,0
2025-04-22T17:22:05.473+03:00,1745331723.945964,40.95232391954568,29.14021283107537,77.34093,-1,-1,-1,-1,30,35.71393105997151,-9999,39501.503003875,-0.754180908203125,0.537109375,-0.1559295654296875,39501.49292787501,-2.724363912424161,-1.214851176137292,-0.5268688319797155,-0.1023255065083504,-0.2073639631271362,-0.5680125951766968,0.02623790502548218,0.03060263395309448,0.1853731274604797,XArbitraryZVertical,-0.5834001102129242,0.09505414209154485,-0.7448232430499562,0.30959216364257,-0.8102039098739624,0.5028292536735535,-0.3012180328369141,0,0,0,-1,-1,39498.59238575,unknown,2,2025-04-22T17:22:02.558+03:00,2025-04-21T17:08:51.449+03:00,9047,1.057548,0,0,7544.334,7,22,2025-04-22T17:18:07.832+03:00,767024525.2372123,0,-10.4,100.3298,1,0.4,2025-04-22T17:20:54.408+03:00,76,1.266666666666667,2025-04-22T14:20:19.516+03:00,0.02197104130929222,0
2025-04-22T17:22:05.483+03:00,1745331723.945964,40.95232391954568,29.14021283107537,77.34093,-1,-1,-1,-1,30,35.71393105997151,-9999,39501.513079875,-0.7456512451171875,0.530426025390625,-0.1700897216796875,39501.503003875,-2.727046088350543,-1.218159794827703,-0.5213402198875003,0.05713019892573357,-0.1854517459869385,-0.6238186359405518,0.04351365566253662,0.03512975573539734,0.1678840517997742,XArbitraryZVertical,-0.5844544595046807,0.09309855853803509,-0.7451609357301057,0.3073771924740056,-0.8137925267219543,0.4980427622795105,-0.299491286277771,0,0,0,-1,-1,39498.59238575,unknown,2,2025-04-22T17:22:02.558+03:00,2025-04-21T17:08:51.449+03:00,9047,1.057548,0,0,7544.334,7,22,2025-04-22T17:18:07.832+03:00,767024525.2372123,0,-10.4,100.3298,1,0.4,2025-04-22T17:20:54.408+03:00,76,1.266666666666667,2025-04-22T14:20:19.516+03:00,0.02197104130929222,0
2025-04-22T17:22:05.502+03:00,1745331723.945964,40.95232391954568,29.14021283107537,77.34093,-1,-1,-1,-1,30,35.71393105997151,-9999,39501.523155875,-0.749603271484375,0.531341552734375,-0.1544342041015625,39501.513079875,-2.728021357659426,-1.220326871831189,-0.514715253340811,0.239222913980484,-0.148271232843399,-0.66812664270401,0.06523197889328003,0.04456284642219543,0.1404822170734406,XArbitraryZVertical,-0.5851532235566357,0.09038272673571952,-0.7457342585396706,0.3054618946981076,-0.8175206780433655,0.4922870099544525,-0.29885333776474,0,0,0,-1,-1,39498.59238575,unknown,2,2025-04-22T17:22:02.558+03:00,2025-04-21T17:08:51.449+03:00,9047,1.057548,0,0,7544.334,7,22,2025-04-22T17:18:07.832+03:00,767024525.2372123,0,-10.4,100.3298,1,0.4,2025-04-22T17:20:54.408+03:00,76,1.266666666666667,2025-04-22T14:20:19.516+03:00,0.02197104130929222,0
2025-04-22T17:22:05.505+03:00,1745331723.945964,40.95232391954568,29.14021283107537,77.34093,-1,-1,-1,-1,30,35.71393105997151,-9999,39501.533231875,-0.7630767822265625,0.5293426513671875,-0.1201171875,39501.523155875,-2.727285975666897,-1.221184494644912,-0.5071433558322145,0.3875710964202881,-0.08856262266635895,-0.6996888518333435,0.07514631748199463,0.04395028948783875,0.1301086246967316,XArbitraryZVertical,-0.58542562524958,0.08698662150347665,-0.7465698691755389,0.3038805796032842,-0.8212551474571228,0.4856821298599243,-0.2994203269481659,0,0,0,-1,-1,39498.59238575,unknown,2,2025-04-22T17:22:02.558+03:00,2025-04-21T17:08:51.449+03:00,9047,1.057548,0,0,7544.334,7,22,2025-04-22T17:18:07.832+03:00,767024525.2372123,0,-10.4,100.3298,1,0.4,2025-04-22T17:20:54.408+03:00,76,1.266666666666667,2025-04-22T14:20:19.516+03:00,0.02197104130929222,0
2025-04-22T17:22:05.513+03:00,1745331723.945964,40.95232391954568,29.14021283107537,77.34093,-1,-1,-1,-1,30,35.71393105997151,-9999,39501.543306875,-0.7765350341796875,0.489959716796875,-0.0966033935546875,39501.533231875,-2.725501649097803,-1.220846141237561,-0.4989869180832226,0.4412277340888977,-0.01545692048966885,-0.7110317349433899,0.0737188458442688,0.05452945828437805,0.1504572629928589,XArbitraryZVertical,-0.5852774998304354,0.08322885953304796,-0.7476789976678415,0.3024883830866077,-0.8248478770256042,0.4785362184047699,-0.3010464012622833,0,0,0,-1,-1,39498.59238575,unknown,2,2025-04-22T17:22:02.558+03:00,2025-04-21T17:08:51.449+03:00,9047,1.057548,0,0,7544.334,7,22,2025-04-22T17:18:07.832+03:00,767024525.2372123,0,-10.4,100.3298,1,0.4,2025-04-22T17:20:54.408+03:00,76,1.266666666666667,2025-04-22T14:20:19.516+03:00,0.02197104130929222,0
2025-04-22T17:22:05.524+03:00,1745331723.945964,40.95232391954568,29.14021283107537,77.34093,-1,-1,-1,-1,30,35.71393105997151,-9999,39501.553382875,-0.776702880859375,0.4488983154296875,-0.119354248046875,39501.543306875,-2.723769353322187,-1.219901764427467,-0.4908713562033487,0.3913246393203735,0.03346268460154533,-0.6990440487861633,0.06348884105682373,0.05460631847381592,0.1873968541622162,XArbitraryZVertical,-0.5848845630374815,0.07959231414018174,-0.7489573988744024,0.301061143290372,-0.8281829357147217,0.4713945388793945,-0.3031502366065979,0,0,0,-1,-1,39498.59238575,unknown,2,2025-04-22T17:22:02.558+03:00,2025-04-21T17:08:51.449+03:00,9047,1.057548,0,0,7544.334,7,22,2025-04-22T17:18:07.832+03:00,767024525.2372123,0,-10.4,100.3298,1,0.4,2025-04-22T17:20:54.408+03:00,76,1.266666666666667,2025-04-22T14:20:19.516+03:00,0.02197104130929222,0
2025-04-22T17:22:05.533+03:00,1745331723.945964,40.95232391954568,29.14021283107537,77.34093,-1,-1,-1,-1,30,35.71393105997151,-9999,39501.563458875,-0.7634124755859375,0.4360809326171875,-0.1604156494140625,39501.553382875,-2.722643726201159,-1.218985175651596,-0.4831277757671863,0.3232201337814331,0.04445381835103035,-0.6773134469985962,0.05387145280838013,0.01947274804115295,0.2080355882644653,XArbitraryZVertical,-0.5844680463271354,0.07627650975945205,-0.7502518969407749,0.2995014384262223,-0.8313066959381104,0.4645512402057648,-0.3051579892635345,0,0,0,-1,-1,39498.59238575,unknown,2,2025-04-22T17:22:02.558+03:00,2025-04-21T17:08:51.449+03:00,9047,1.057548,0,0,7544.334,7,22,2025-04-22T17:18:07.832+03:00,767024525.2372123,0,-10.4,100.3298,1,0.4,2025-04-22T17:20:54.408+03:00,76,1.266666666666667,2025-04-22T14:20:19.516+03:00,0.02197104130929222,0
2025-04-22T17:22:05.544+03:00,1745331723.945964,40.95232391954568,29.14021283107537,77.34093,-1,-1,-1,-1,30,35.71393105997151,-9999,39501.573534875,-0.75775146484375,0.43035888671875,-0.1853790283203125,39501.563458875,-2.722210178320818,-1.21826847790994,-0.4757976304585836,0.2462031245231628,0.06401979178190231,-0.6588481068611145,0.05935889482498169,-0.01195704936981201,0.1825466156005859,XArbitraryZVertical,-0.5840949123838549,0.07329759585224542,-0.7515184109214949,0.297792906331088,-0.8342611789703369,0.45804762840271,-0.3069211840629578,0,0,0,-1,-1,39498.59238575,unknown,2,2025-04-22T17:22:02.558+03:00,2025-04-21T17:08:51.449+03:00,9047,1.057548,0,0,7544.334,7,22,2025-04-22T17:18:07.832+03:00,767024525.2372123,0,-10.4,100.3298,1,0.4,2025-04-22T17:20:54.408+03:00,76,1.266666666666667,2025-04-22T14:20:19.516+03:00,0.02197104130929222,0
2025-04-22T17:22:05.554+03:00,1745331723.945964,40.95232391954568,29.14021283107537,77.34093,-1,-1,-1,-1,30,35.71393105997151,-9999,39501.583610875,-0.7617340087890625,0.4157257080078125,-0.2051544189453125,39501.573534875,-2.722781887077577,-1.217651276327869,-0.4690194424414813,0.1215970665216446,0.1148185878992081,-0.6365426778793335,0.07520109415054321,-0.01631247997283936,0.1439822912216187,XArbitraryZVertical,-0.583723751575778,0.07081821067528193,-0.752811779741702,0.2958473647904399,-0.8369654417037964,0.4520118236541748,-0.308502733707428,0,0,0,-1,-1,39498.59238575,unknown,2,2025-04-22T17:22:02.558+03:00,2025-04-21T17:08:51.449+03:00,9047,1.057548,0,0,7544.334,7,22,2025-04-22T17:18:07.832+03:00,767024525.2372123,0,-10.4,100.3298,1,0.4,2025-04-22T17:20:54.408+03:00,76,1.266666666666667,2025-04-22T14:20:19.516+03:00,0.02197104130929222,0
2025-04-22T17:22:05.564+03:00,1745331723.945964,40.95232391954568,29.14021283107537,77.34093,-1,-1,-1,-1,30,35.71393105997151,-9999,39501.593685875,-0.7579498291015625,0.389190673828125,-0.2228546142578125,39501.583610875,-2.724488667433284,-1.217065233806132,-0.4630024841882695,0.004917861428111792,0.1516130864620209,-0.5878081917762756,0.08204245567321777,-0.01656758785247803,0.1223532557487488,XArbitraryZVertical,-0.583333654143681,0.06897091506050658,-0.754139131319354,0.2936648270936115,-0.8393207788467407,0.4466364979743958,-0.3099297285079956,0,0,0,-1,-1,39498.59238575,unknown,2,2025-04-22T17:22:02.558+03:00,2025-04-21T17:08:51.449+03:00,9047,1.057548,0,0,7544.334,7,22,2025-04-22T17:18:07.832+03:00,767024525.2372123,0,-10.4,100.3298,1,0.4,2025-04-22T17:20:54.408+03:00,76,1.266666666666667,2025-04-22T14:20:19.516+03:00,0.02197104130929222,0
2025-04-22T17:22:05.574+03:00,1745331723.945964,40.95232391954568,29.14021283107537,77.34093,-1,-1,-1,-1,30,35.71393105997151,-9999,39501.60376187501,-0.751678466796875,0.3727874755859375,-0.23486328125,39501.593685875,-2.727213860944295,-1.216678931985074,-0.4578261323359837,-0.1005825996398926,0.165012389421463,-0.5466446876525879,0.07922756671905518,-0.02941682934761047,0.1028450727462769,XArbitraryZVertical,-0.5829983112738504,0.06772920310247696,-0.7554216740150869,0.2913138318107941,-0.8413581848144531,0.4419991672039032,-0.3110514581203461,0,0,0,-1,-1,39498.59238575,unknown,2,2025-04-22T17:22:02.558+03:00,2025-04-21T17:08:51.449+03:00,9047,1.057548,0,0,7544.334,7,22,2025-04-22T17:18:07.832+03:00,767024525.2372123,0,-10.4,100.3298,1,0.4,2025-04-22T17:20:54.408+03:00,76,1.266666666666667,2025-04-22T14:20:19.516+03:00,0.02197104130929222,0
2025-04-22T17:22:05.584+03:00,1745331723.945964,40.95232391954568,29.14021283107537,77.34093,-1,-1,-1,-1,30,35.71393105997151,-9999,39501.613837875,-0.75921630859375,0.374298095703125,-0.270263671875,39501.60376187501,-2.730571167317174,-1.216425368122509,-0.4533638367534253,-0.13800348341465,0.174761950969696,-0.4917113780975342,0.08616280555725098,-0.05188369750976562,0.08692455291748047,XArbitraryZVertical,-0.582705804137307,0.06693957772613768,-0.7566417709567386,0.2889051909973011,-0.8431206941604614,0.4379920363426208,-0.3119460642337799,0,0,0,-1,-1,39498.59238575,unknown,2,2025-04-22T17:22:02.558+03:00,2025-04-21T17:08:51.449+03:00,9047,1.057548,0,0,7544.334,7,22,2025-04-22T17:18:07.832+03:00,767024525.2372123,0,-10.4,100.3298,1,0.4,2025-04-22T17:20:54.408+03:00,76,1.266666666666667,2025-04-22T14:20:19.516+03:00,0.02197104130929222,0
2025-04-22T17:22:05.594+03:00,1745331723.945964,40.95232391954568,29.14021283107537,77.34093,-1,-1,-1,-1,30,35.71393105997151,-9999,39501.623913875,-0.7670440673828125,0.390625,-0.316986083984375,39501.613837875,-2.73342114737012,-1.216034945338381,-0.4493458152487743,-0.04118232056498528,0.146013468503952,-0.4341017305850983,0.09191107749938965,-0.06224516034126282,0.07506033778190613,XArbitraryZVertical,-0.5823877888165279,0.06620022387564391,-0.7577543369037493,0.2867929026323408,-0.8446422219276428,0.4343763887882233,-0.3128839731216431,0,0,0,-1,-1,39498.59238575,unknown,2,2025-04-22T17:22:02.558+03:00,2025-04-21T17:08:51.449+03:00,9047,1.057548,0,0,7544.334,7,22,2025-04-22T17:18:07.832+03:00,767024525.2372123,0,-10.4,100.3298,1,0.4,2025-04-22T17:20:54.408+03:00,76,1.266666666666667,2025-04-22T14:20:19.516+03:00,0.02197104130929222,0
2025-04-22T17:22:05.604+03:00,1745331723.945964,40.95232391954568,29.14021283107537,77.34093,-1,-1,-1,-1,30,35.71393105997151,-9999,39501.633989875,-0.7858123779296875,0.4048919677734375,-0.347015380859375,39501.623913875,-2.734592285824885,-1.215207721645759,-0.445261824133112,0.119630791246891,0.124042384326458,-0.4033502042293549,0.0856480598449707,-0.05473300814628601,0.03798285126686096,XArbitraryZVertical,-0.5819582315119756,0.06500639078722792,-0.7587568436174523,0.2852834490877665,-0.8460391163825989,0.430694192647934,-0.3141975700855255,0,0,0,-1,-1,39498.59238575,unknown,2,2025-04-22T17:22:02.558+03:00,2025-04-21T17:08:51.449+03:00,9047,1.057548,0,0,7544.334,7,22,2025-04-22T17:18:07.832+03:00,767024525.2372123,0,-10.4,100.3298,1,0.4,2025-04-22T17:20:54.408+03:00,76,1.266666666666667,2025-04-22T14:20:19.516+03:00,0.02197104130929222,0
2025-04-22T17:22:05.614+03:00,1745331723.945964,40.95232391954568,29.14021283107537,77.34093,-1,-1,-1,-1,30,35.71393105997151,-9999,39501.644065875,-0.8018951416015625,0.410308837890625,-0.3503570556640625,39501.633989875,-2.73409154092499,-1.213780712182042,-0.4409098816864406,0.2689693570137024,0.1184251755475998,-0.3736686110496521,0.07879877090454102,-0.03438284993171692,-0.005339354276657104,XArbitraryZVertical,-0.5813472315218917,0.06330152770035588,-0.7597300613860953,0.2843209192641404,-0.8473380208015442,0.4267624914646149,-0.3160566389560699,0,0,0,-1,-1,39498.59238575,unknown,2,2025-04-22T17:22:02.558+03:00,2025-04-21T17:08:51.449+03:00,9047,1.057548,0,0,7544.334,7,22,2025-04-22T17:18:07.832+03:00,767024525.2372123,0,-10.4,100.3298,1,0.4,2025-04-22T17:20:54.408+03:00,76,1.266666666666667,2025-04-22T14:20:19.516+03:00,0.02197104130929222,0
2025-04-22T17:22:05.624+03:00,1745331723.945964,40.95232391954568,29.14021283107537,77.34093,-1,-1,-1,-1,30,35.71393105997151,-9999,39501.65414087501,-0.8010406494140625,0.3975982666015625,-0.3345947265625,39501.644065875,-2.732207823255849,-1.211852285774808,-0.4364549599492904,0.3432156145572662,0.1054180338978767,-0.3364895582199097,0.06006187200546265,-0.01702883839607239,-0.02991193532943726,XArbitraryZVertical,-0.5805810472692732,0.06122289029630489,-0.7606640252760475,0.2838443621738036,-0.8484987020492554,0.4227294027805328,-0.3183548152446747,0,0,0,-1,-1,39498.59238575,unknown,2,2025-04-22T17:22:02.558+03:00,2025-04-21T17:08:51.449+03:00,9047,1.057548,0,0,7544.334,7,22,2025-04-22T17:18:07.832+03:00,767024525.2372123,0,-10.4,100.3298,1,0.4,2025-04-22T17:20:54.408+03:00,76,1.266666666666667,2025-04-22T14:20:19.516+03:00,0.02197104130929222,0
2025-04-22T17:22:05.634+03:00,1745331723.945964,40.95232391954568,29.14021283107537,77.34093,-1,-1,-1,-1,30,35.71393105997151,-9999,39501.664216875,-0.8031768798828125,0.3745269775390625,-0.314117431640625,39501.65414087501,-2.730017674479551,-1.209891404008551,-0.4322902336424472,0.2979724407196045,0.1013989895582199,-0.2991012036800385,0.04638159275054932,-0.009375125169754028,-0.02886581420898438,XArbitraryZVertical,-0.5798100154462466,0.05917672060140058,-0.761519290449063,0.2835610061430177,-0.8495125770568848,0.4189514517784119,-0.3206369280815125,0,0,0,-1,-1,39498.59238575,unknown,2,2025-04-22T17:22:02.558+03:00,2025-04-21T17:08:51.449+03:00,9047,1.057548,0,0,7544.334,7,22,2025-04-22T17:18:07.832+03:00,767024525.2372123,0,-10.4,100.3298,1,0.4,2025-04-22T17:20:54.408+03:00,76,1.266666666666667,2025-04-22T14:20:19.516+03:00,0.02197104130929222,0
2025-04-22T17:22:05.644+03:00,1745331723.945964,40.95232391954568,29.14021283107537,77.34093,-1,-1,-1,-1,30,35.71393105997151,-9999,39501.674292875,-0.800994873046875,0.3470001220703125,-0.3089752197265625,39501.664216875,-2.728797708913012,-1.208392800154137,-0.4288916489697069,0.1370767652988434,0.09631528705358505,-0.2510649859905243,0.04870671033859253,-0.02009594440460205,-0.008611798286437988,XArbitraryZVertical,-0.5791972548349589,0.05765641610798952,-0.7622660982431495,0.2831194623516982,-0.8503575325012207,0.4158630967140198,-0.3224125504493713,0,0,0,-1,-1,39498.59238575,unknown,2,2025-04-22T17:22:02.558+03:00,2025-04-21T17:08:51.449+03:00,9047,1.057548,0,0,7544.334,7,22,2025-04-22T17:18:07.832+03:00,767024525.2372123,0,-10.4,100.3298,1,0.4,2025-04-22T17:20:54.408+03:00,76,1.266666666666667,2025-04-22T14:20:19.516+03:00,0.02197104130929222,0
2025-04-22T17:22:05.654+03:00,1745331723.945964,40.95232391954568,29.14021283107537,77.34093,-1,-1,-1,-1,30,35.71393105997151,-9999,39501.684368875,-0.7910919189453125,0.3294830322265625,-0.3109130859375,39501.674292875,-2.729271474788937,-1.207689251032451,-0.4266216904224294,-0.05452223122119904,0.08071208745241165,-0.1962503343820572,0.04775768518447876,-0.0431617796421051,0.01124176383018494,XArbitraryZVertical,-0.578862381189019,0.05697150379092579,-0.7628598131636187,0.2823426870131004,-0.8510107398033142,0.4137976765632629,-0.3233451843261719,0,0,0,-1,-1,39498.59238575,unknown,2,2025-04-22T17:22:02.558+03:00,2025-04-21T17:08:51.449+03:00,9047,1.057548,0,0,7544.334,7,22,2025-04-22T17:18:07.832+03:00,767024525.2372123,0,-10.4,100.3298,1,0.4,2025-04-22T17:20:54.408+03:00,76,1.266666666666667,2025-04-22T14:20:19.516+03:00,0.02197104130929222,0
2025-04-22T17:22:05.665+03:00,1745331723.945964,40.95232391954568,29.14021283107537,77.34093,-1,-1,-1,-1,30,35.71393105997151,-9999,39501.694444875,-0.7852325439453125,0.331573486328125,-0.3178253173828125,39501.684368875,-2.731282807369055,-1.20784984133071,-0.4254877009072311,-0.1964522004127502,0.05229802802205086,-0.144704595208168,0.05175727605819702,-0.06854218244552612,0.01464363932609558,XArbitraryZVertical,-0.5788397960920054,0.05707056486137677,-0.7632575531408555,0.2812919653420103,-0.8515006899833679,0.4127650558948517,-0.32337486743927,0,0,0,-1,-1,39498.59238575,unknown,2,2025-04-22T17:22:02.558+03:00,2025-04-21T17:08:51.449+03:00,9047,1.057548,0,0,7544.334,7,22,2025-04-22T17:18:07.832+03:00,767024525.2372123,0,-10.4,100.3298,1,0.4,2025-04-22T17:20:54.408+03:00,76,1.266666666666667,2025-04-22T14:20:19.516+03:00,0.02197104130929222,0
2025-04-22T17:22:05.675+03:00,1745331723.945964,40.95232391954568,29.14021283107537,77.34093,-1,-1,-1,-1,30,35.71393105997151,-9999,39501.70451987501,-0.7870330810546875,0.351715087890625,-0.3148193359375,39501.694444875,-2.734091691906341,-1.208642882902094,-0.4251136257091501,-0.2353759109973907,0.01989800855517387,-0.1045616939663887,0.0610688328742981,-0.08376526832580566,0.01126113533973694,XArbitraryZVertical,-0.5790533348037639,0.05762043875082739,-0.7634752805009276,0.2801475405869153,-0.8519013524055481,0.4124242961406708,-0.3227542340755463,0,0,0,-1,-1,39498.59238575,unknown,2,2025-04-22T17:22:02.558+03:00,2025-04-21T17:08:51.449+03:00,9047,1.057548,0,0,7544.334,7,22,2025-04-22T17:18:07.832+03:00,767024525.2372123,0,-10.4,100.3298,1,0.4,2025-04-22T17:20:54.408+03:00,76,1.266666666666667,2025-04-22T14:20:19.516+03:00,0.02197104130929222,0
2025-04-22T17:22:05.685+03:00,1745331723.945964,40.95232391954568,29.14021283107537,77.34093,-1,-1,-1,-1,30,35.71393105997151,-9999,39501.714595875,-0.799835205078125,0.3708038330078125,-0.3096923828125,39501.70451987501,-2.736509763216656,-1.209568509437308,-0.4250239172367513,-0.1567625850439072,-0.006358630023896694,-0.06865748763084412,0.0682682991027832,-0.0794263482093811,0.00387844443321228,XArbitraryZVertical,-0.5793347000546405,0.05815484262823868,-0.7635580377688456,0.2792283770298027,-0.8522343635559082,0.4123425781726837,-0.3219786286354065,0,0,0,-1,-1,39498.59238575,unknown,2,2025-04-22T17:22:02.558+03:00,2025-04-21T17:08:51.449+03:00,9047,1.057548,0,0,7544.334,7,22,2025-04-22T17:18:07.832+03:00,767024525.2372123,0,-10.4,100.3298,1,0.4,2025-04-22T17:20:54.408+03:00,76,1.266666666666667,2025-04-22T14:20:19.516+03:00,0.02197104130929222,0
2025-04-22T17:22:05.695+03:00,1745331723.945964,40.95232391954568,29.14021283107537,77.34093,-1,-1,-1,-1,30,35.71393105997151,-9999,39501.724671875,-0.82183837890625,0.375091552734375,-0.3175048828125,39501.714595875,-2.737728829245246,-1.210243470115242,-0.4248491075402151,-0.03459685668349266,-0.02496094256639481,-0.04226057231426239,0.06424993276596069,-0.05715715885162354,0.007433235645294189,XArbitraryZVertical,-0.5795530359543763,0.05834293443887108,-0.7635571348038686,0.2787380622811949,-0.8525189161300659,0.4121833145618439,-0.3214287757873535,0,0,0,-1,-1,39498.59238575,unknown,2,2025-04-22T17:22:02.558+03:00,2025-04-21T17:08:51.449+03:00,9047,1.057548,0,0,7544.334,7,22,2025-04-22T17:18:07.832+03:00,767024525.2372123,0,-10.4,100.3298,1,0.4,2025-04-22T17:20:54.408+03:00,76,1.266666666666667,2025-04-22T14:20:19.516+03:00,0.02197104130929222,0
2025-04-22T17:22:05.705+03:00,1745331723.945964,40.95232391954568,29.14021283107537,77.34093,-1,-1,-1,-1,30,35.71393105997151,-9999,39501.734747875,-0.8392791748046875,0.379058837890625,-0.3361053466796875,39501.724671875,-2.737617246902572,-1.210509221377913,-0.4245228762357895,0.07427369803190231,-0.03895079344511032,-0.012281633913517,0.0503009557723999,-0.03938856720924377,0.01193845272064209,XArbitraryZVertical,-0.5796506005158129,0.05814117749328231,-0.7635104356596871,0.2787051930901573,-0.8527300953865051,0.411886066198349,-0.3212495744228363,0,0,0,-1,-1,39498.59238575,unknown,2,2025-04-22T17:22:02.558+03:00,2025-04-21T17:08:51.449+03:00,9047,1.057548,0,0,7544.334,7,22,2025-04-22T17:18:07.832+03:00,767024525.2372123,0,-10.4,100.3298,1,0.4,2025-04-22T17:20:54.408+03:00,76,1.266666666666667,2025-04-22T14:20:19.516+03:00,0.02197104130929222,0
2025-04-22T17:22:05.715+03:00,1745331723.945964,40.95232391954568,29.14021283107537,77.34093,-1,-1,-1,-1,30,35.71393105997151,-9999,39501.744823875,-0.8429107666015625,0.393798828125,-0.3333282470703125,39501.734747875,-2.736377775452889,-1.210466415763051,-0.4240461517377781,0.1723470687866211,-0.05429666116833687,0.001175086363218725,0.02865082025527954,-0.03587189316749573,0.001530855894088745,XArbitraryZVertical,-0.5796596088240811,0.05759447755250478,-0.7634169797347004,0.2790554943478022,-0.8528998494148254,0.4114516079425812,-0.3213552236557007,0,0,0,-1,-1,39498.59238575,unknown,2,2025-04-22T17:22:02.558+03:00,2025-04-21T17:08:51.449+03:00,9047,1.057548,0,0,7544.334,7,22,2025-04-22T17:18:07.832+03:00,767024525.2372123,0,-10.4,100.3298,1,0.4,2025-04-22T17:20:54.408+03:00,76,1.266666666666667,2025-04-22T14:20:19.516+03:00,0.02197104130929222,0
2025-04-22T17:22:05.725+03:00,1745331723.945964,40.95232391954568,29.14021283107537,77.34093,-1,-1,-1,-1,30,35.71393105997151,-9999,39501.75489887501,-0.8411712646484375,0.4114990234375,-0.32464599609375,39501.744823875,-2.734128964537596,-1.210124879430086,-0.4233288514669938,0.2446383088827133,-0.05883948504924774,0.006438291631639004,0.01317667961120605,-0.0308997631072998,-0.0160791277885437,XArbitraryZVertical,-0.5795773211674939,0.05669934466424798,-0.7633029346604243,0.2797212394836711,-0.8530661463737488,0.4107977151870728,-0.3217506408691406,0,0,0,-1,-1,39498.59238575,unknown,2,2025-04-22T17:22:02.558+03:00,2025-04-21T17:08:51.449+03:00,9047,1.057548,0,0,7544.334,7,22,2025-04-22T17:18:07.832+03:00,767024525.2372123,0,-10.4,100.3298,1,0.4,2025-04-22T17:20:54.408+03:00,76,1.266666666666667,2025-04-22T14:20:19.516+03:00,0.02197104130929222,0
2025-04-22T17:22:05.735+03:00,1745331723.945964,40.95232391954568,29.14021283107537,77.34093,-1,-1,-1,-1,30,35.71393105997151,-9999,39501.764974875,-0.8455047607421875,0.408355712890625,-0.3081512451171875,39501.75489887501,-2.731754017520355,-1.209661290475612,-0.4225193628478387,0.2083972841501236,-0.03996932134032249,-0.006799316965043545,0.01016432046890259,-0.01368212699890137,-0.009279698133468628,XArbitraryZVertical,-0.5794484512690985,0.05574760628445347,-0.7632186207388709,0.2804083226435521,-0.8532274961471558,0.4100595712661743,-0.3222633898258209,0,0,0,-1,-1,39498.59238575,unknown,2,2025-04-22T17:22:02.558+03:00,2025-04-21T17:08:51.449+03:00,9047,1.057548,0,0,7544.334,7,22,2025-04-22T17:18:07.832+03:00,767024525.2372123,0,-10.4,100.3298,1,0.4,2025-04-22T17:20:54.408+03:00,76,1.266666666666667,2025-04-22T14:20:19.516+03:00,0.02197104130929222,0
2025-04-22T17:22:05.745+03:00,1745331723.945964,40.95232391954568,29.14021283107537,77.34093,-1,-1,-1,-1,30,35.71393105997151,-9999,39501.775050875,-0.84539794921875,0.3812255859375,-0.2788238525390625,39501.764974875,-2.730028743620954,-1.209246180493219,-0.4219319450510454,0.1188309118151665,-0.0214259959757328,0.01021109148859978,0.01252919435501099,0.002463430166244507,-0.000615924596786499,XArbitraryZVertical,-0.5793239244797979,0.05506763176562673,-0.7631796207897468,0.2809056611047188,-0.8533188104629517,0.4095237255096436,-0.3227027058601379,0,0,0,-1,-1,39498.59238575,unknown,2,2025-04-22T17:22:02.558+03:00,2025-04-21T17:08:51.449+03:00,9047,1.057548,0,0,7544.334,7,22,2025-04-22T17:18:07.832+03:00,767024525.2372123,0,-10.4,100.3298,1,0.4,2025-04-22T17:20:54.408+03:00,76,1.266666666666667,2025-04-22T14:20:19.516+03:00,0.02197104130929222,0
2025-04-22T17:22:05.755+03:00,1745331723.945964,40.95232391954568,29.14021283107537,77.34093,-1,-1,-1,-1,30,35.71393105997151,-9999,39501.785126875,-0.835174560546875,0.362457275390625,-0.238006591796875,39501.775050875,-2.729367318521545,-1.209121825689746,-0.421862934439232,-0.01177982613444328,-0.005386576056480408,0.01798858679831028,0.007480084896087646,-0.004355311393737793,0.01823797821998596,XArbitraryZVertical,-0.5792929917989129,0.0548655034191594,-0.7631324656639277,0.2811370758324692,-0.8533051013946533,0.4094607830047607,-0.3228188157081604,0,0,0,-1,-1,39498.59238575,unknown,2,2025-04-22T17:22:02.558+03:00,2025-04-21T17:08:51.449+03:00,9047,1.057548,0,0,7544.334,7,22,2025-04-22T17:18:07.832+03:00,767024525.2372123,0,-10.4,100.3298,1,0.4,2025-04-22T17:20:54.408+03:00,76,1.266666666666667,2025-04-22T14:20:19.516+03:00,0.02197104130929222,0
2025-04-22T17:22:05.765+03:00,1745331723.945964,40.95232391954568,29.14021283107537,77.34093,-1,-1,-1,-1,30,35.71393105997151,-9999,39501.795202875,-0.8294677734375,0.3623504638671875,-0.1932220458984375,39501.785126875,-2.730209989356772,-1.209323191702129,-0.422354001077866,-0.163259357213974,0.03261460363864899,0.02491174079477787,0.009020090103149414,-0.03214702010154724,0.04845151305198669,XArbitraryZVertical,-0.5793583867974941,0.05528063077434302,-0.7631232041392627,0.2809460231443546,-0.8531818985939026,0.4099087417125702,-0.3225758373737335,0,0,0,-1,-1,39498.59238575,unknown,2,2025-04-22T17:22:02.558+03:00,2025-04-21T17:08:51.449+03:00,9047,1.057548,0,0,7544.334,7,22,2025-04-22T17:18:07.832+03:00,767024525.2372123,0,-10.4,100.3298,1,0.4,2025-04-22T17:20:54.408+03:00,76,1.266666666666667,2025-04-22T14:20:19.516+03:00,0.02197104130929222,0
2025-04-22T17:22:05.775+03:00,1745331723.945964,40.95232391954568,29.14021283107537,77.34093,-1,-1,-1,-1,30,35.71393105997151,-9999,39501.805277875,-0.8165435791015625,0.3825836181640625,-0.135711669921875,39501.795202875,-2.732278735428943,-1.209680023936593,-0.4232717044888198,-0.2477606683969498,0.06703595817089081,0.01843799650669098,0.01842647790908813,-0.04941761493682861,0.0898536741733551,XArbitraryZVertical,-0.5794584720110902,0.05620233845177471,-0.7631807344070879,0.2804001963891443,-0.8529447913169861,0.4107456207275391,-0.3221383392810822,0,0,0,-1,-1,39498.59238575,unknown,2,2025-04-22T17:22:02.558+03:00,2025-04-21T17:08:51.449+03:00,9047,1.057548,0,0,7544.334,7,22,2025-04-22T17:18:07.832+03:00,767024525.2372123,0,-10.4,100.3298,1,0.4,2025-04-22T17:20:54.408+03:00,76,1.266666666666667,2025-04-22T14:20:19.516+03:00,0.02197104130929222,0
