loggingTime(txt),locationTimestamp_since1970(s),locationLatitude(WGS84),locationLongitude(WGS84),locationAltitude(m),locationSpeed(m/s),locationSpeedAccuracy(m/s),locationCourse(°),locationCourseAccuracy(°),locationVerticalAccuracy(m),locationHorizontalAccuracy(m),locationFloor(Z),accelerometerTimestamp_sinceReboot(s),accelerometerAccelerationX(G),accelerometerAccelerationY(G),accelerometerAccelerationZ(G),motionTimestamp_sinceReboot(s),motionYaw(rad),motionRoll(rad),motionPitch(rad),motionRotationRateX(rad/s),motionRotationRateY(rad/s),motionRotationRateZ(rad/s),motionUserAccelerationX(G),motionUserAccelerationY(G),motionUserAccelerationZ(G),motionAttitudeReferenceFrame(txt),motionQuaternionX(R),motionQuaternionY(R),motionQuaternionZ(R),motionQuaternionW(R),motionGravityX(G),motionGravityY(G),motionGravityZ(G),motionMagneticFieldX(µT),motionMagneticFieldY(µT),motionMagneticFieldZ(µT),motionHeading(°),motionMagneticFieldCalibrationAccuracy(Z),activityTimestamp_sinceReboot(s),activity(txt),activityActivityConfidence(Z),activityActivityStartDate(txt),pedometerStartDate(txt),pedometerNumberofSteps(N),pedometerAverageActivePace(s/m),pedometerCurrentPace(s/m),pedometerCurrentCadence(steps/s),pedometerDistance(m),pedometerFloorAscended(N),pedometerFloorDescended(N),pedometerEndDate(txt),altimeterTimestamp_sinceReboot(s),altimeterReset(bool),altimeterRelativeAltitude(m),altimeterPressure(kPa),batteryState(N),batteryLevel(R),heartRateBPMTimestamp(txt),heartRateBPM(N),heartRateBPS(R),heartRateVariabilityTimestamp(txt),heartRateVariability(ms),label
2025-04-22T17:42:50.276+03:00,1745332968.627453,40.95219040362207,29.14025454703285,76.04306,-1,-1,-1,-1,30,13.67661289634224,-9999,40321.21223066667,-0.7826690673828125,0.4457550048828125,-0.4374542236328125,40321.20719366667,-2.856156634148886,-1.036073441608684,-0.4850884610127542,-0.00688578188419342,0.02280324324965477,0.02039452455937862,-0.007880032062530518,-0.01645758748054504,-0.001932084560394287,XArbitraryZVertical,0.5054732584205384,-0.1381700504696154,0.8178734588412756,-0.2376736837132414,-0.7611475586891174,0.4662866294384003,-0.4508116543292999,0,0,0,-1,-1,40316.83576216667,unknown,2,2025-04-22T17:42:45.863+03:00,2025-04-21T17:08:51.449+03:00,9088,1.06215,0,0,7575.567,7,22,2025-04-22T17:37:54.399+03:00,767025768.5449551,0,-12.35,100.3501,1,0.35,2025-04-22T17:38:44.006+03:00,78,1.3,2025-04-22T14:20:19.516+03:00,0.02197104130929222,0
2025-04-22T17:42:50.280+03:00,1745332968.627453,40.95219040362207,29.14025454703285,76.04306,-1,-1,-1,-1,30,13.67661289634224,-9999,40321.22230666667,-0.783660888671875,0.4542388916015625,-0.449951171875,40321.21726866667,-2.856135689089932,-1.035831063757156,-0.4853376759057447,-0.01540150493383408,0.01369123905897141,0.02107975631952286,-0.001589059829711914,-0.0250704288482666,0.02018111944198608,XArbitraryZVertical,0.5053758780386693,-0.1382997076492143,0.8178978850678256,-0.2377210705296569,-0.7609382271766663,0.4665070772171021,-0.4509368240833282,0,0,0,-1,-1,40316.83576216667,unknown,2,2025-04-22T17:42:45.863+03:00,2025-04-21T17:08:51.449+03:00,9088,1.06215,0,0,7575.567,7,22,2025-04-22T17:37:54.399+03:00,767025768.5449551,0,-12.35,100.3501,1,0.35,2025-04-22T17:38:44.006+03:00,78,1.3,2025-04-22T14:20:19.516+03:00,0.02197104130929222,0
2025-04-22T17:42:50.282+03:00,1745332968.627453,40.95219040362207,29.14025454703285,76.04306,-1,-1,-1,-1,30,13.67661289634224,-9999,40321.23238166667,-0.742523193359375,0.458770751953125,-0.4540252685546875,40321.22734466667,-2.856271530669921,-1.035979883767549,-0.485601941551808,-0.03098872117698193,-0.02398103848099709,0.01337736193090677,-0.03370207548141479,-0.01559951901435852,0.003052413463592529,XArbitraryZVertical,0.5054276187420349,-0.1384288829917056,0.8178400938654866,-0.2377347490879179,-0.7608992457389832,0.4667407870292664,-0.4507607221603394,0,0,0,-1,-1,40316.83576216667,unknown,2,2025-04-22T17:42:45.863+03:00,2025-04-21T17:08:51.449+03:00,9088,1.06215,0,0,7575.567,7,22,2025-04-22T17:37:54.399+03:00,767025768.5449551,0,-12.35,100.3501,1,0.35,2025-04-22T17:38:44.006+03:00,78,1.3,2025-04-22T14:20:19.516+03:00,0.02197104130929222,0
2025-04-22T17:42:50.284+03:00,1745332968.627453,40.95219040362207,29.14025454703285,76.04306,-1,-1,-1,-1,30,13.67661289634224,-9999,40321.24245766667,-0.7435455322265625,0.4647216796875,-0.45880126953125,40321.23741966667,-2.856479113880692,-1.036389381972747,-0.4858041820415565,-0.02055605314671993,-0.02266357094049454,0.01321437675505877,0.006714880466461182,-0.00952225923538208,-0.001671254634857178,XArbitraryZVertical,0.5055808887853291,-0.1385187949083302,0.817733436763966,-0.2377233329290788,-0.7610024809837341,0.4669196605682373,-0.4504010081291199,0,0,0,-1,-1,40316.83576216667,unknown,2,2025-04-22T17:42:45.863+03:00,2025-04-21T17:08:51.449+03:00,9088,1.06215,0,0,7575.567,7,22,2025-04-22T17:37:54.399+03:00,767025768.5449551,0,-12.35,100.3501,1,0.35,2025-04-22T17:38:44.006+03:00,78,1.3,2025-04-22T14:20:19.516+03:00,0.02197104130929222,0
2025-04-22T17:42:50.307+03:00,1745332968.627453,40.95219040362207,29.14025454703285,76.04306,-1,-1,-1,-1,30,13.67661289634224,-9999,40321.25253266667,-0.7583770751953125,0.4694976806640625,-0.4618072509765625,40321.24749466667,-2.856475039539685,-1.036496648700079,-0.4860194532194526,-0.01073591411113739,-0.01177710201591253,0.03180603682994843,0.02236276865005493,-0.005150258541107178,-0.007358253002166748,XArbitraryZVertical,0.5056252104346839,-0.13859665761128,0.8176763005571436,-0.2377804668983913,-0.7609643340110779,0.4671100080013275,-0.4502682387828827,0,0,0,-1,-1,40316.83576216667,unknown,2,2025-04-22T17:42:45.863+03:00,2025-04-21T17:08:51.449+03:00,9088,1.06215,0,0,7575.567,7,22,2025-04-22T17:37:54.399+03:00,767025768.5449551,0,-12.35,100.3501,1,0.35,2025-04-22T17:38:44.006+03:00,78,1.3,2025-04-22T14:20:19.516+03:00,0.02197104130929222,0
2025-04-22T17:42:50.309+03:00,1745332968.627453,40.95219040362207,29.14025454703285,76.04306,-1,-1,-1,-1,30,13.67661289634224,-9999,40321.26260866667,-0.759063720703125,0.4725494384765625,-0.4582061767578125,40321.25757066667,-2.856392360063354,-1.036557966232628,-0.4862956715886448,-0.0006236247718334198,-0.01712286472320557,0.0124911954626441,0.005830347537994385,0.0006022155284881592,-0.01160576939582825,XArbitraryZVertical,0.5056562619975108,-0.1386860724849037,0.8176129159312349,-0.2378801429259977,-0.7608808279037476,0.4673542082309723,-0.4501558244228363,0,0,0,-1,-1,40316.83576216667,unknown,2,2025-04-22T17:42:45.863+03:00,2025-04-21T17:08:51.449+03:00,9088,1.06215,0,0,7575.567,7,22,2025-04-22T17:37:54.399+03:00,767025768.5449551,0,-12.35,100.3501,1,0.35,2025-04-22T17:38:44.006+03:00,78,1.3,2025-04-22T14:20:19.516+03:00,0.02197104130929222,0
2025-04-22T17:42:50.310+03:00,1745332968.627453,40.95219040362207,29.14025454703285,76.04306,-1,-1,-1,-1,30,13.67661289634224,-9999,40321.27268366667,-0.759796142578125,0.4707489013671875,-0.4582061767578125,40321.26764566667,-2.856231977060255,-1.036583061860707,-0.4864404967280782,0.0118178641423583,-0.01166311930865049,0.01462918054312468,0.001083672046661377,0.00511285662651062,-0.009736746549606323,XArbitraryZVertical,0.5056777792460418,-0.1387042036448471,0.8175675076899327,-0.237979753508311,-0.7608338594436646,0.4674822390079498,-0.4501022696495056,0,0,0,-1,-1,40316.83576216667,unknown,2,2025-04-22T17:42:45.863+03:00,2025-04-21T17:08:51.449+03:00,9088,1.06215,0,0,7575.567,7,22,2025-04-22T17:37:54.399+03:00,767025768.5449551,0,-12.35,100.3501,1,0.35,2025-04-22T17:38:44.006+03:00,78,1.3,2025-04-22T14:20:19.516+03:00,0.02197104130929222,0
2025-04-22T17:42:50.314+03:00,1745332968.627453,40.95219040362207,29.14025454703285,76.04306,-1,-1,-1,-1,30,13.67661289634224,-9999,40321.28275866667,-0.7630462646484375,0.469818115234375,-0.45892333984375,40321.27772166667,-2.855999608174999,-1.036506781966962,-0.4865385105963167,0.01196034345775843,0.00226041954010725,0.02333585359156132,0.001620233058929443,0.004354864358901978,-0.007993042469024658,XArbitraryZVertical,0.5056627931041617,-0.1386962517601941,0.8175456888101575,-0.2380913198050196,-0.7607601284980774,0.4675688743591309,-0.4501369893550873,0,0,0,-1,-1,40316.83576216667,unknown,2,2025-04-22T17:42:45.863+03:00,2025-04-21T17:08:51.449+03:00,9088,1.06215,0,0,7575.567,7,22,2025-04-22T17:37:54.399+03:00,767025768.5449551,0,-12.35,100.3501,1,0.35,2025-04-22T17:38:44.006+03:00,78,1.3,2025-04-22T14:20:19.516+03:00,0.02197104130929222,0
2025-04-22T17:42:50.325+03:00,1745332968.627453,40.95219040362207,29.14025454703285,76.04306,-1,-1,-1,-1,30,13.67661289634224,-9999,40321.29283466667,-0.762542724609375,0.4675140380859375,-0.4578857421875,40321.28779666667,-2.855741743866576,-1.036348576748056,-0.4866237040274292,0.01848835125565529,0.005430979654192924,0.01833260618150234,-0.0007894039154052734,0.002646863460540771,-0.009312093257904053,XArbitraryZVertical,0.505616100151896,-0.1386861813485792,0.8175431703221782,-0.2382047503081949,-0.7606545686721802,0.4676441848278046,-0.4502370059490204,0,0,0,-1,-1,40316.83576216667,unknown,2,2025-04-22T17:42:45.863+03:00,2025-04-21T17:08:51.449+03:00,9088,1.06215,0,0,7575.567,7,22,2025-04-22T17:37:54.399+03:00,767025768.5449551,0,-12.35,100.3501,1,0.35,2025-04-22T17:38:44.006+03:00,78,1.3,2025-04-22T14:20:19.516+03:00,0.02197104130929222,0
2025-04-22T17:42:50.334+03:00,1745332968.627453,40.95219040362207,29.14025454703285,76.04306,-1,-1,-1,-1,30,13.67661289634224,-9999,40321.30290966667,-0.761077880859375,0.4638824462890625,-0.4568023681640625,40321.29787266667,-2.855481922630009,-1.036167401567339,-0.4866791541358516,0.01647020690143108,0.00645842682570219,0.01895818300545216,-0.002571702003479004,0.001209288835525513,-0.008180409669876099,XArbitraryZVertical,0.5055601082780711,-0.1386656882812678,0.8175504004217051,-0.2383107618617656,-0.7605506777763367,0.4676932096481323,-0.4503616094589233,0,0,0,-1,-1,40316.83576216667,unknown,2,2025-04-22T17:42:45.863+03:00,2025-04-21T17:08:51.449+03:00,9088,1.06215,0,0,7575.567,7,22,2025-04-22T17:37:54.399+03:00,767025768.5449551,0,-12.35,100.3501,1,0.35,2025-04-22T17:38:44.006+03:00,78,1.3,2025-04-22T14:20:19.516+03:00,0.02197104130929222,0
2025-04-22T17:42:50.344+03:00,1745332968.627453,40.95219040362207,29.14025454703285,76.04306,-1,-1,-1,-1,30,13.67661289634224,-9999,40321.31298566667,-0.7572784423828125,0.4606781005859375,-0.4563751220703125,40321.30794766667,-2.855257156290051,-1.036013012984471,-0.4867528731190107,0.007956347428262234,0.003922032658010721,0.01827508211135864,-0.001419723033905029,-0.001861870288848877,-0.006768316030502319,XArbitraryZVertical,0.5055126687090447,-0.138658671319075,0.8175524291950678,-0.2384083655592179,-0.7604514360427856,0.4677583575248718,-0.4504614174365997,0,0,0,-1,-1,40316.83576216667,unknown,2,2025-04-22T17:42:45.863+03:00,2025-04-21T17:08:51.449+03:00,9088,1.06215,0,0,7575.567,7,22,2025-04-22T17:37:54.399+03:00,767025768.5449551,0,-12.35,100.3501,1,0.35,2025-04-22T17:38:44.006+03:00,78,1.3,2025-04-22T14:20:19.516+03:00,0.02197104130929222,0
2025-04-22T17:42:50.357+03:00,1745332968.627453,40.95219040362207,29.14025454703285,76.04306,-1,-1,-1,-1,30,13.67661289634224,-9999,40321.32306066667,-0.7537841796875,0.4591064453125,-0.45440673828125,40321.31802266667,-2.855114156659591,-1.035908989495524,-0.4868761364666731,-0.0022920286282897,-3.8886908441782e-05,0.01587424241006374,0.0008031725883483887,-0.005648195743560791,-0.005833566188812256,XArbitraryZVertical,0.505480202095872,-0.1386874195911957,0.8175446550647116,-0.2384870769271453,-0.7603549361228943,0.4678673148155212,-0.4505111277103424,0,0,0,-1,-1,40316.83576216667,unknown,2,2025-04-22T17:42:45.863+03:00,2025-04-21T17:08:51.449+03:00,9088,1.06215,0,0,7575.567,7,22,2025-04-22T17:37:54.399+03:00,767025768.5449551,0,-12.35,100.3501,1,0.35,2025-04-22T17:38:44.006+03:00,78,1.3,2025-04-22T14:20:19.516+03:00,0.02197104130929222,0
2025-04-22T17:42:50.365+03:00,1745332968.627453,40.95219040362207,29.14025454703285,76.04306,-1,-1,-1,-1,30,13.67661289634224,-9999,40321.33313666667,-0.7509765625,0.4605712890625,-0.4542388916015625,40321.32809866667,-2.855074727012172,-1.035923974888447,-0.4870319507097989,-0.005897482857108116,-0.01177896652370691,0.01285258587449789,0.006499707698822021,-0.008120447397232056,-0.004371523857116699,XArbitraryZVertical,0.5054892279635351,-0.1387420047996722,0.8175147191665223,-0.2385389600164824,-0.760299026966095,0.4680050015449524,-0.4504625797271729,0,0,0,-1,-1,40316.83576216667,unknown,2,2025-04-22T17:42:45.863+03:00,2025-04-21T17:08:51.449+03:00,9088,1.06215,0,0,7575.567,7,22,2025-04-22T17:37:54.399+03:00,767025768.5449551,0,-12.35,100.3501,1,0.35,2025-04-22T17:38:44.006+03:00,78,1.3,2025-04-22T14:20:19.516+03:00,0.02197104130929222,0
2025-04-22T17:42:50.375+03:00,1745332968.627453,40.95219040362207,29.14025454703285,76.04306,-1,-1,-1,-1,30,13.67661289634224,-9999,40321.34321166667,-0.750274658203125,0.4633636474609375,-0.4555206298828125,40321.33817366667,-2.855043371673366,-1.036030718058814,-0.4871708434494473,-0.002721929224207997,-0.01443280559033155,0.01300997845828533,0.008246660232543945,-0.00810590386390686,-0.003326147794723511,XArbitraryZVertical,0.5055351929962683,-0.138780491889094,0.8174648027599302,-0.2385901305439103,-0.7602911591529846,0.4681277573108673,-0.450348287820816,0,0,0,-1,-1,40316.83576216667,unknown,2,2025-04-22T17:42:45.863+03:00,2025-04-21T17:08:51.449+03:00,9088,1.06215,0,0,7575.567,7,22,2025-04-22T17:37:54.399+03:00,767025768.5449551,0,-12.35,100.3501,1,0.35,2025-04-22T17:38:44.006+03:00,78,1.3,2025-04-22T14:20:19.516+03:00,0.02197104130929222,0
2025-04-22T17:42:50.384+03:00,1745332968.627453,40.95219040362207,29.14025454703285,76.04306,-1,-1,-1,-1,30,13.67661289634224,-9999,40321.35328666667,-0.75604248046875,0.4735565185546875,-0.455474853515625,40321.34824966667,-2.854871433421751,-1.036023823493372,-0.4872574305370427,0.01927877776324749,-0.002494854386895895,0.01478540897369385,0.01086372137069702,-0.006473362445831299,-0.005035340785980225,XArbitraryZVertical,0.5055443917303953,-0.1387747114564402,0.8174341340852517,-0.2386792276446832,-0.7602531909942627,0.4682042598724365,-0.4503328800201416,0,0,0,-1,-1,40316.83576216667,unknown,2,2025-04-22T17:42:45.863+03:00,2025-04-21T17:08:51.449+03:00,9088,1.06215,0,0,7575.567,7,22,2025-04-22T17:37:54.399+03:00,767025768.5449551,0,-12.35,100.3501,1,0.35,2025-04-22T17:38:44.006+03:00,78,1.3,2025-04-22T14:20:19.516+03:00,0.02197104130929222,0
2025-04-22T17:42:50.395+03:00,1745332968.627453,40.95219040362207,29.14025454703285,76.04306,-1,-1,-1,-1,30,13.67661289634224,-9999,40321.36336266667,-0.7604217529296875,0.47662353515625,-0.457977294921875,40321.35832466667,-2.854498572619657,-1.035839069985948,-0.4872385708412851,0.03688440099358559,0.001721728825941682,0.01197923626750708,0.006546139717102051,0.001142174005508423,-0.004981875419616699,XArbitraryZVertical,0.5054947190493176,-0.1386944888086728,0.8174389423486231,-0.2388146063920025,-0.7601776123046875,0.4681876003742218,-0.4504778683185577,0,0,0,-1,-1,40316.83576216667,unknown,2,2025-04-22T17:42:45.863+03:00,2025-04-21T17:08:51.449+03:00,9088,1.06215,0,0,7575.567,7,22,2025-04-22T17:37:54.399+03:00,767025768.5449551,0,-12.35,100.3501,1,0.35,2025-04-22T17:38:44.006+03:00,78,1.3,2025-04-22T14:20:19.516+03:00,0.02197104130929222,0
2025-04-22T17:42:50.405+03:00,1745332968.627453,40.95219040362207,29.14025454703285,76.04306,-1,-1,-1,-1,30,13.67661289634224,-9999,40321.37343766667,-0.76141357421875,0.4692840576171875,-0.4562835693359375,40321.36840066667,-2.854057732790945,-1.035535930952028,-0.487163633533906,0.03522844985127449,0.01178155280649662,0.01418965961784124,0.001282215118408203,0.009829610586166382,-0.006412029266357422,XArbitraryZVertical,0.505401277336572,-0.1385873722644318,0.8174732670801416,-0.2389570881379678,-0.7600712180137634,0.4681213796138763,-0.450726181268692,0,0,0,-1,-1,40316.83576216667,unknown,2,2025-04-22T17:42:45.863+03:00,2025-04-21T17:08:51.449+03:00,9088,1.06215,0,0,7575.567,7,22,2025-04-22T17:37:54.399+03:00,767025768.5449551,0,-12.35,100.3501,1,0.35,2025-04-22T17:38:44.006+03:00,78,1.3,2025-04-22T14:20:19.516+03:00,0.02197104130929222,0
2025-04-22T17:42:50.415+03:00,1745332968.627453,40.95219040362207,29.14025454703285,76.04306,-1,-1,-1,-1,30,13.67661289634224,-9999,40321.38351366667,-0.7559661865234375,0.46270751953125,-0.4549102783203125,40321.37847566667,-2.853658691854216,-1.035219421507454,-0.4871598032425132,0.02499951235949993,0.009189498610794544,0.01976871676743031,-0.001849651336669922,0.004202485084533691,-0.006704628467559814,XArbitraryZVertical,0.5052995540820523,-0.1385227494966422,0.817506028583044,-0.2390974094907519,-0.7599300146102905,0.4681179821491241,-0.4509676098823547,0,0,0,-1,-1,40316.83576216667,unknown,2,2025-04-22T17:42:45.863+03:00,2025-04-21T17:08:51.449+03:00,9088,1.06215,0,0,7575.567,7,22,2025-04-22T17:37:54.399+03:00,767025768.5449551,0,-12.35,100.3501,1,0.35,2025-04-22T17:38:44.006+03:00,78,1.3,2025-04-22T14:20:19.516+03:00,0.02197104130929222,0
2025-04-22T17:42:50.425+03:00,1745332968.627453,40.95219040362207,29.14025454703285,76.04306,-1,-1,-1,-1,30,13.67661289634224,-9999,40321.39358866667,-0.7498626708984375,0.4562225341796875,-0.4554595947265625,40321.38855066667,-2.853385759160261,-1.035043515961904,-0.4872163628041971,0.009313361719250679,0.00250456458888948,0.01678763888776302,0.001847624778747559,-0.002485007047653198,-0.003837943077087402,XArbitraryZVertical,0.5052466218799626,-0.1384989031996109,0.81751010524149,-0.2392093851761612,-0.7598279714584351,0.4681679606437683,-0.4510878026485443,0,0,0,-1,-1,40316.83576216667,unknown,2,2025-04-22T17:42:45.863+03:00,2025-04-21T17:08:51.449+03:00,9088,1.06215,0,0,7575.567,7,22,2025-04-22T17:37:54.399+03:00,767025768.5449551,0,-12.35,100.3501,1,0.35,2025-04-22T17:38:44.006+03:00,78,1.3,2025-04-22T14:20:19.516+03:00,0.02197104130929222,0
2025-04-22T17:42:50.435+03:00,1745332968.627453,40.95219040362207,29.14025454703285,76.04306,-1,-1,-1,-1,30,13.67661289634224,-9999,40321.40366466667,-0.74810791015625,0.4549713134765625,-0.4577484130859375,40321.39862666667,-2.853250381045543,-1.034970023456379,-0.4873378337916425,-0.0007738936692476273,-0.001861954107880592,0.0177607573568821,0.008372664451599121,-0.009626686573028564,-0.004513025283813477,XArbitraryZVertical,0.5052261471944711,-0.1385252344575036,0.8174956582393891,-0.2392866565044325,-0.7597458958625793,0.4682753086090088,-0.4511145949363708,0,0,0,-1,-1,40316.83576216667,unknown,2,2025-04-22T17:42:45.863+03:00,2025-04-21T17:08:51.449+03:00,9088,1.06215,0,0,7575.567,7,22,2025-04-22T17:37:54.399+03:00,767025768.5449551,0,-12.35,100.3501,1,0.35,2025-04-22T17:38:44.006+03:00,78,1.3,2025-04-22T14:20:19.516+03:00,0.02197104130929222,0
2025-04-22T17:42:50.445+03:00,1745332968.627453,40.95219040362207,29.14025454703285,76.04306,-1,-1,-1,-1,30,13.67661289634224,-9999,40321.41373966667,-0.7504119873046875,0.45953369140625,-0.4571990966796875,40321.40870166667,-2.853192380544,-1.034975216559741,-0.4875041298885848,-0.005476570222526789,-0.006902319379150867,0.01793995499610901,0.01105469465255737,-0.01403084397315979,-0.006097853183746338,XArbitraryZVertical,0.5052325403246972,-0.1385807844699577,0.8174644203983624,-0.2393477218745,-0.7596812844276428,0.4684222340583801,-0.4510709047317505,0,0,0,-1,-1,40316.83576216667,unknown,2,2025-04-22T17:42:45.863+03:00,2025-04-21T17:08:51.449+03:00,9088,1.06215,0,0,7575.567,7,22,2025-04-22T17:37:54.399+03:00,767025768.5449551,0,-12.35,100.3501,1,0.35,2025-04-22T17:38:44.006+03:00,78,1.3,2025-04-22T14:20:19.516+03:00,0.02197104130929222,0
2025-04-22T17:42:50.455+03:00,1745332968.627453,40.95219040362207,29.14025454703285,76.04306,-1,-1,-1,-1,30,13.67661289634224,-9999,40321.42381466667,-0.7528839111328125,0.464935302734375,-0.459197998046875,40321.41877766667,-2.853143441864748,-1.035018281904182,-0.4876896746942906,-0.003739390056580305,-0.008881313726305962,0.01887685619294643,0.01067894697189331,-0.01063945889472961,-0.006678462028503418,XArbitraryZVertical,0.5052538136653018,-0.1386422868566254,0.8174220265758264,-0.2394119879163554,-0.7596259713172913,0.4685861468315125,-0.4509938061237335,0,0,0,-1,-1,40316.83576216667,unknown,2,2025-04-22T17:42:45.863+03:00,2025-04-21T17:08:51.449+03:00,9088,1.06215,0,0,7575.567,7,22,2025-04-22T17:37:54.399+03:00,767025768.5449551,0,-12.35,100.3501,1,0.35,2025-04-22T17:38:44.006+03:00,78,1.3,2025-04-22T14:20:19.516+03:00,0.02197104130929222,0
2025-04-22T17:42:50.465+03:00,1745332968.627453,40.95219040362207,29.14025454703285,76.04306,-1,-1,-1,-1,30,13.67661289634224,-9999,40321.43389066667,-0.7512664794921875,0.4685821533203125,-0.4613800048828125,40321.42885266667,-2.853025762781992,-1.035089270854811,-0.4878547809909005,0.003530906513333321,-0.01917776092886925,0.01906760409474373,0.006692409515380859,-0.006146639585494995,-0.007489025592803955,XArbitraryZVertical,0.5052912286623789,-0.1386743667080635,0.8173671880267082,-0.2395017382415999,-0.7595914602279663,0.4687319993972778,-0.4509003758430481,0,0,0,-1,-1,40316.83576216667,unknown,2,2025-04-22T17:42:45.863+03:00,2025-04-21T17:08:51.449+03:00,9088,1.06215,0,0,7575.567,7,22,2025-04-22T17:37:54.399+03:00,767025768.5449551,0,-12.35,100.3501,1,0.35,2025-04-22T17:38:44.006+03:00,78,1.3,2025-04-22T14:20:19.516+03:00,0.02197104130929222,0
2025-04-22T17:42:50.475+03:00,1745332968.627453,40.95219040362207,29.14025454703285,76.04306,-1,-1,-1,-1,30,13.67661289634224,-9999,40321.44396566667,-0.7527008056640625,0.4703826904296875,-0.4598541259765625,40321.43892866667,-2.85281198452947,-1.035148227464299,-0.4879598010618881,0.01487810350954533,-0.01455397997051477,0.01726171560585499,0.008034646511077881,-0.001432865858078003,-0.01051920652389526,XArbitraryZVertical,0.5053303105253827,-0.1386580231352993,0.8173121142032946,-0.2396165500720322,-0.7595756649971008,0.4688247740268707,-0.4508304595947266,0,0,0,-1,-1,40316.83576216667,unknown,2,2025-04-22T17:42:45.863+03:00,2025-04-21T17:08:51.449+03:00,9088,1.06215,0,0,7575.567,7,22,2025-04-22T17:37:54.399+03:00,767025768.5449551,0,-12.35,100.3501,1,0.35,2025-04-22T17:38:44.006+03:00,78,1.3,2025-04-22T14:20:19.516+03:00,0.02197104130929222,0
2025-04-22T17:42:50.485+03:00,1745332968.627453,40.95219040362207,29.14025454703285,76.04306,-1,-1,-1,-1,30,13.67661289634224,-9999,40321.45404166667,-0.75628662109375,0.472625732421875,-0.456878662109375,40321.44900366667,-2.852477417656606,-1.035100176181257,-0.4880107896284822,0.02750228531658649,-0.005746374372392893,0.01968186348676682,0.007946670055389404,0.0002463459968566895,-0.009518325328826904,XArbitraryZVertical,0.5053339465173126,-0.1386009636424948,0.8172770904844092,-0.2397612802325665,-0.7595334053039551,0.4688698053359985,-0.4508547484874725,0,0,0,-1,-1,40316.83576216667,unknown,2,2025-04-22T17:42:45.863+03:00,2025-04-21T17:08:51.449+03:00,9088,1.06215,0,0,7575.567,7,22,2025-04-22T17:37:54.399+03:00,767025768.5449551,0,-12.35,100.3501,1,0.35,2025-04-22T17:38:44.006+03:00,78,1.3,2025-04-22T14:20:19.516+03:00,0.02197104130929222,0
2025-04-22T17:42:50.495+03:00,1745332968.627453,40.95219040362207,29.14025454703285,76.04306,-1,-1,-1,-1,30,13.67661289634224,-9999,40321.46411666667,-0.7569122314453125,0.46875,-0.4547119140625,40321.45907866667,-2.852047457385764,-1.034950578935109,-0.4880240394000058,0.03303393721580505,-0.001730061136186123,0.01805547066032887,0.005249321460723877,0.003057509660720825,-0.007225930690765381,XArbitraryZVertical,0.5053026307448319,-0.1385159185704078,0.8172614590198828,-0.2399295564784446,-0.7594606280326843,0.4688815176486969,-0.4509651958942413,0,0,0,-1,-1,40316.83576216667,unknown,2,2025-04-22T17:42:45.863+03:00,2025-04-21T17:08:51.449+03:00,9088,1.06215,0,0,7575.567,7,22,2025-04-22T17:37:54.399+03:00,767025768.5449551,0,-12.35,100.3501,1,0.35,2025-04-22T17:38:44.006+03:00,78,1.3,2025-04-22T14:20:19.516+03:00,0.02197104130929222,0
2025-04-22T17:42:50.505+03:00,1745332968.627453,40.95219040362207,29.14025454703285,76.04306,-1,-1,-1,-1,30,13.67661289634224,-9999,40321.47419266667,-0.7540435791015625,0.46661376953125,-0.4528350830078125,40321.46915466667,-2.851581181588692,-1.034716079453769,-0.4879661001531246,0.0410543829202652,0.00167805259115994,0.01535958517342806,0.002191424369812012,0.002299964427947998,-0.005004525184631348,XArbitraryZVertical,0.5052389815123677,-0.1384015836242118,0.8172727884567828,-0.2400909785654993,-0.75937819480896,0.4688303470611572,-0.4511571526527405,0,0,0,-1,-1,40316.83576216667,unknown,2,2025-04-22T17:42:45.863+03:00,2025-04-21T17:08:51.449+03:00,9088,1.06215,0,0,7575.567,7,22,2025-04-22T17:37:54.399+03:00,767025768.5449551,0,-12.35,100.3501,1,0.35,2025-04-22T17:38:44.006+03:00,78,1.3,2025-04-22T14:20:19.516+03:00,0.02197104130929222,0
2025-04-22T17:42:50.515+03:00,1745332968.627453,40.95219040362207,29.14025454703285,76.04306,-1,-1,-1,-1,30,13.67661289634224,-9999,40321.48426766667,-0.75360107421875,0.4696044921875,-0.455230712890625,40321.47922966667,-2.851076017253561,-1.034479155634076,-0.4878695841736969,0.04216811433434486,-0.005505291745066643,0.01367726735770702,0.003573000431060791,-0.001994073390960693,-0.001825988292694092,XArbitraryZVertical,0.5051769138865937,-0.1382613124798033,0.8172853953000274,-0.2402595765730444,-0.759310245513916,0.468745082616806,-0.4513601958751678,0,0,0,-1,-1,40316.83576216667,unknown,2,2025-04-22T17:42:45.863+03:00,2025-04-21T17:08:51.449+03:00,9088,1.06215,0,0,7575.567,7,22,2025-04-22T17:37:54.399+03:00,767025768.5449551,0,-12.35,100.3501,1,0.35,2025-04-22T17:38:44.006+03:00,78,1.3,2025-04-22T14:20:19.516+03:00,0.02197104130929222,0
2025-04-22T17:42:50.526+03:00,1745332968.627453,40.95219040362207,29.14025454703285,76.04306,-1,-1,-1,-1,30,13.67661289634224,-9999,40321.49434266667,-0.755615234375,0.463226318359375,-0.4604034423828125,40321.48930566667,-2.850579736830239,-1.034266623668415,-0.4877525341272844,0.04099732264876366,0.0001778276637196541,0.01475035399198532,0.005797803401947021,0.001328945159912109,-0.002582669258117676,XArbitraryZVertical,0.5051241109272894,-0.1381116425205372,0.8172956899417898,-0.2404216930880222,-0.759261429309845,0.4686416983604431,-0.451549619436264,0,0,0,-1,-1,40316.83576216667,unknown,2,2025-04-22T17:42:45.863+03:00,2025-04-21T17:08:51.449+03:00,9088,1.06215,0,0,7575.567,7,22,2025-04-22T17:37:54.399+03:00,767025768.5449551,0,-12.35,100.3501,1,0.35,2025-04-22T17:38:44.006+03:00,78,1.3,2025-04-22T14:20:19.516+03:00,0.02197104130929222,0
2025-04-22T17:42:50.535+03:00,1745332968.627453,40.95219040362207,29.14025454703285,76.04306,-1,-1,-1,-1,30,13.67661289634224,-9999,40321.50441866667,-0.7573699951171875,0.4594879150390625,-0.4559173583984375,40321.49938066667,-2.850126153828473,-1.033958198621148,-0.4877157153372243,0.02544845454394817,0.01204194407910109,0.01804335229098797,0.004574716091156006,-0.002911001443862915,-0.006535828113555908,XArbitraryZVertical,0.505029309180411,-0.1380185045802398,0.8173241122749064,-0.2405775811137141,-0.759136974811554,0.4686091542243958,-0.4517925679683685,0,0,0,-1,-1,40316.83576216667,unknown,2,2025-04-22T17:42:45.863+03:00,2025-04-21T17:08:51.449+03:00,9088,1.06215,0,0,7575.567,7,22,2025-04-22T17:37:54.399+03:00,767025768.5449551,0,-12.35,100.3501,1,0.35,2025-04-22T17:38:44.006+03:00,78,1.3,2025-04-22T14:20:19.516+03:00,0.02197104130929222,0
2025-04-22T17:42:50.546+03:00,1745332968.627453,40.95219040362207,29.14025454703285,76.04306,-1,-1,-1,-1,30,13.67661289634224,-9999,40321.51449366667,-0.754241943359375,0.4591827392578125,-0.45550537109375,40321.50945666667,-2.849840004808953,-1.033736769397577,-0.4877533213350077,0.01169263012707233,-0.001565544400364161,0.01486110873520374,0.0014839768409729,-0.008651018142700195,-0.006163179874420166,XArbitraryZVertical,0.5049586569764882,-0.1379889234347649,0.8173403293372234,-0.2406875850771437,-0.7590216994285583,0.468642383813858,-0.4519516229629517,0,0,0,-1,-1,40316.83576216667,unknown,2,2025-04-22T17:42:45.863+03:00,2025-04-21T17:08:51.449+03:00,9088,1.06215,0,0,7575.567,7,22,2025-04-22T17:37:54.399+03:00,767025768.5449551,0,-12.35,100.3501,1,0.35,2025-04-22T17:38:44.006+03:00,78,1.3,2025-04-22T14:20:19.516+03:00,0.02197104130929222,0
2025-04-22T17:42:50.556+03:00,1745332968.627453,40.95219040362207,29.14025454703285,76.04306,-1,-1,-1,-1,30,13.67661289634224,-9999,40321.52456966667,-0.744873046875,0.4588470458984375,-0.4589385986328125,40321.51953166667,-2.849616982481966,-1.0336683137534,-0.4878192878107522,0.01154056377708912,-0.006522485986351967,0.01664489321410656,0.002799808979034424,-0.00919756293296814,-0.0008780360221862793,XArbitraryZVertical,0.5049462211206417,-0.1379689594336474,0.8173216112659485,-0.2407886444294776,-0.7589641809463501,0.468700647354126,-0.4519877731800079,0,0,0,-1,-1,40316.83576216667,unknown,2,2025-04-22T17:42:45.863+03:00,2025-04-21T17:08:51.449+03:00,9088,1.06215,0,0,7575.567,7,22,2025-04-22T17:37:54.399+03:00,767025768.5449551,0,-12.35,100.3501,1,0.35,2025-04-22T17:38:44.006+03:00,78,1.3,2025-04-22T14:20:19.516+03:00,0.02197104130929222,0
2025-04-22T17:42:50.566+03:00,1745332968.627453,40.95219040362207,29.14025454703285,76.04306,-1,-1,-1,-1,30,13.67661289634224,-9999,40321.53464466667,-0.7448272705078125,0.455322265625,-0.4420013427734375,40321.52960766667,-2.849421282976103,-1.033530626610619,-0.4879501961032435,0.002293535275384784,0.01003225520253181,0.02186349220573902,0.0103600025177002,-0.009160637855529785,-0.008296996355056763,XArbitraryZVertical,0.5049037733037337,-0.1379919133289477,0.8173145832681917,-0.2408881632310327,-0.7588492035865784,0.4688162803649902,-0.4520608186721802,0,0,0,-1,-1,40316.83576216667,unknown,2,2025-04-22T17:42:45.863+03:00,2025-04-21T17:08:51.449+03:00,9088,1.06215,0,0,7575.567,7,22,2025-04-22T17:37:54.399+03:00,767025768.5449551,0,-12.35,100.3501,1,0.35,2025-04-22T17:38:44.006+03:00,78,1.3,2025-04-22T14:20:19.516+03:00,0.02197104130929222,0
2025-04-22T17:42:50.576+03:00,1745332968.627453,40.95219040362207,29.14025454703285,76.04306,-1,-1,-1,-1,30,13.67661289634224,-9999,40321.54472066667,-0.746368408203125,0.4592437744140625,-0.44744873046875,40321.53968266667,-2.849294175763163,-1.033366173152675,-0.4881678542920467,-0.00564960902556777,0.005333374254405499,0.02304620109498501,0.01535540819168091,-0.01298445463180542,0.005035459995269775,XArbitraryZVertical,0.5048458459485549,-0.1380723569541157,0.8173106332501945,-0.2409770505064951,-0.7586871981620789,0.4690085351467133,-0.4521333873271942,0,0,0,-1,-1,40316.83576216667,unknown,2,2025-04-22T17:42:45.863+03:00,2025-04-21T17:08:51.449+03:00,9088,1.06215,0,0,7575.567,7,22,2025-04-22T17:37:54.399+03:00,767025768.5449551,0,-12.35,100.3501,1,0.35,2025-04-22T17:38:44.006+03:00,78,1.3,2025-04-22T14:20:19.516+03:00,0.02197104130929222,0
2025-04-22T17:42:50.586+03:00,1745332968.627453,40.95219040362207,29.14025454703285,76.04306,-1,-1,-1,-1,30,13.67661289634224,-9999,40321.55479566667,-0.7438812255859375,0.4612884521484375,-0.46453857421875,40321.54975766667,-2.849268531878315,-1.033373518752678,-0.4883894413309792,-0.01149265095591545,-0.01211838610470295,0.01659279689192772,0.01226347684860229,-0.01177635788917542,0.01042410731315613,XArbitraryZVertical,0.5048511505365714,-0.1381594104006603,0.8172748751369792,-0.2410371844712138,-0.758601188659668,0.4692042171955109,-0.4520745873451233,0,0,0,-1,-1,40316.83576216667,unknown,2,2025-04-22T17:42:45.863+03:00,2025-04-21T17:08:51.449+03:00,9088,1.06215,0,0,7575.567,7,22,2025-04-22T17:37:54.399+03:00,767025768.5449551,0,-12.35,100.3501,1,0.35,2025-04-22T17:38:44.006+03:00,78,1.3,2025-04-22T14:20:19.516+03:00,0.02197104130929222,0
2025-04-22T17:42:50.596+03:00,1745332968.627453,40.95219040362207,29.14025454703285,76.04306,-1,-1,-1,-1,30,13.67661289634224,-9999,40321.56487166667,-0.746978759765625,0.46246337890625,-0.4725189208984375,40321.55983366667,-2.849299782696014,-1.033579182492874,-0.4885810045233103,-0.008426287211477757,-0.02813729830086231,0.01135062985122204,0.01336252689361572,-0.008542776107788086,-0.007218778133392334,XArbitraryZVertical,0.5049334757676012,-0.1382241200479217,0.8172001142165646,-0.2410811193402836,-0.7586169242858887,0.4693733751773834,-0.4518725574016571,0,0,0,-1,-1,40316.83576216667,unknown,2,2025-04-22T17:42:45.863+03:00,2025-04-21T17:08:51.449+03:00,9088,1.06215,0,0,7575.567,7,22,2025-04-22T17:37:54.399+03:00,767025768.5449551,0,-12.35,100.3501,1,0.35,2025-04-22T17:38:44.006+03:00,78,1.3,2025-04-22T14:20:19.516+03:00,0.02197104130929222,0
2025-04-22T17:42:50.606+03:00,1745332968.627453,40.95219040362207,29.14025454703285,76.04306,-1,-1,-1,-1,30,13.67661289634224,-9999,40321.57494666667,-0.75140380859375,0.469268798828125,-0.4679412841796875,40321.56990866667,-2.849277920879103,-1.033938963110502,-0.4886667008339765,0.003059327136725187,-0.04636590555310249,0.001480389037169516,0.01361256837844849,-0.008664220571517944,-0.01929211616516113,XArbitraryZVertical,0.5050821768911316,-0.1382117288155076,0.8170947441051691,-0.2411339315754249,-0.7587448954582214,0.4694490432739258,-0.4515790343284607,0,0,0,-1,-1,40316.83576216667,unknown,2,2025-04-22T17:42:45.863+03:00,2025-04-21T17:08:51.449+03:00,9088,1.06215,0,0,7575.567,7,22,2025-04-22T17:37:54.399+03:00,767025768.5449551,0,-12.35,100.3501,1,0.35,2025-04-22T17:38:44.006+03:00,78,1.3,2025-04-22T14:20:19.516+03:00,0.02197104130929222,0
2025-04-22T17:42:50.616+03:00,1745332968.627453,40.95219040362207,29.14025454703285,76.04306,-1,-1,-1,-1,30,13.67661289634224,-9999,40321.58502166667,-0.7559661865234375,0.4705047607421875,-0.4554901123046875,40321.57998466667,-2.849237486192631,-1.034386077235752,-0.4886206012642874,0.006950738374143839,-0.0478343740105629,-0.002732465509325266,0.009530067443847656,-0.002169042825698853,-0.01969665288925171,XArbitraryZVertical,0.5052675184951974,-0.1381279666794638,0.8169833499315572,-0.2411711075746366,-0.7589653730392456,0.4694083631038666,-0.4512507915496826,0,0,0,-1,-1,40316.83576216667,unknown,2,2025-04-22T17:42:45.863+03:00,2025-04-21T17:08:51.449+03:00,9088,1.06215,0,0,7575.567,7,22,2025-04-22T17:37:54.399+03:00,767025768.5449551,0,-12.35,100.3501,1,0.35,2025-04-22T17:38:44.006+03:00,78,1.3,2025-04-22T14:20:19.516+03:00,0.02197104130929222,0
2025-04-22T17:42:50.626+03:00,1745332968.627453,40.95219040362207,29.14025454703285,76.04306,-1,-1,-1,-1,30,13.67661289634224,-9999,40321.59509766667,-0.7609405517578125,0.4655914306640625,-0.4489898681640625,40321.59005966667,-2.84921136897092,-1.034782820774072,-0.4885579027695535,0.002800468122586608,-0.03503548353910446,-0.002152295783162117,0.00508040189743042,0.001929908990859985,-0.009911954402923584,XArbitraryZVertical,0.505431233160744,-0.1380468166383679,0.8168886883207152,-0.2411952482709053,-0.7591696381568909,0.4693529903888702,-0.4509646892547607,0,0,0,-1,-1,40316.83576216667,unknown,2,2025-04-22T17:42:45.863+03:00,2025-04-21T17:08:51.449+03:00,9088,1.06215,0,0,7575.567,7,22,2025-04-22T17:37:54.399+03:00,767025768.5449551,0,-12.35,100.3501,1,0.35,2025-04-22T17:38:44.006+03:00,78,1.3,2025-04-22T14:20:19.516+03:00,0.02197104130929222,0
2025-04-22T17:42:50.636+03:00,1745332968.627453,40.95219040362207,29.14025454703285,76.04306,-1,-1,-1,-1,30,13.67661289634224,-9999,40321.60517266667,-0.7615203857421875,0.466461181640625,-0.44805908203125,40321.60013566667,-2.849235570167684,-1.035077329509882,-0.4885145155664507,-0.001559659256599844,-0.02400334179401398,-0.005274851806461811,-0.0004455447196960449,-0.001175105571746826,0.0008764266967773438,XArbitraryZVertical,0.5055497549294087,-0.137998942985826,0.8168231800291069,-0.2411960488472553,-0.7593199014663696,0.4693146646022797,-0.4507514834403992,0,0,0,-1,-1,40316.83576216667,unknown,2,2025-04-22T17:42:45.863+03:00,2025-04-21T17:08:51.449+03:00,9088,1.06215,0,0,7575.567,7,22,2025-04-22T17:37:54.399+03:00,767025768.5449551,0,-12.35,100.3501,1,0.35,2025-04-22T17:38:44.006+03:00,78,1.3,2025-04-22T14:20:19.516+03:00,0.02197104130929222,0
2025-04-22T17:42:50.646+03:00,1745332968.627453,40.95219040362207,29.14025454703285,76.04306,-1,-1,-1,-1,30,13.67661289634224,-9999,40321.61524866667,-0.7549896240234375,0.470245361328125,-0.450042724609375,40321.61021066667,-2.849261274968052,-1.035315331980915,-0.4884313567951699,0.002577694598585367,-0.02680245786905289,-0.0091960234567523,-0.002379953861236572,-0.003924548625946045,0.00280606746673584,XArbitraryZVertical,0.505644991531826,-0.1379413223697976,0.8167776965908436,-0.2411834955947441,-0.7594607472419739,0.4692412316799164,-0.4505906701087952,0,0,0,-1,-1,40316.83576216667,unknown,2,2025-04-22T17:42:45.863+03:00,2025-04-21T17:08:51.449+03:00,9088,1.06215,0,0,7575.567,7,22,2025-04-22T17:37:54.399+03:00,767025768.5449551,0,-12.35,100.3501,1,0.35,2025-04-22T17:38:44.006+03:00,78,1.3,2025-04-22T14:20:19.516+03:00,0.02197104130929222,0
2025-04-22T17:42:50.657+03:00,1745332968.627453,40.95219040362207,29.14025454703285,76.04306,-1,-1,-1,-1,30,13.67661289634224,-9999,40321.62532366667,-0.746734619140625,0.4705810546875,-0.4516143798828125,40321.62028666667,-2.849280229769143,-1.035612516227153,-0.4883150243012745,0.006387612782418728,-0.03253011777997017,-0.01015902310609818,0.001539230346679688,8.448958396911621e-05,0.001219630241394043,XArbitraryZVertical,0.5057647778606176,-0.1378607317340717,0.8167210632111958,-0.2411703970379348,-0.7596416473388672,0.469138503074646,-0.4503928124904633,0,0,0,-1,-1,40316.83576216667,unknown,2,2025-04-22T17:42:45.863+03:00,2025-04-21T17:08:51.449+03:00,9088,1.06215,0,0,7575.567,7,22,2025-04-22T17:37:54.399+03:00,767025768.5449551,0,-12.35,100.3501,1,0.35,2025-04-22T17:38:44.006+03:00,78,1.3,2025-04-22T14:20:19.516+03:00,0.02197104130929222,0
2025-04-22T17:42:50.667+03:00,1745332968.627453,40.95219040362207,29.14025454703285,76.04306,-1,-1,-1,-1,30,13.67661289634224,-9999,40321.63539966667,-0.7469329833984375,0.4681396484375,-0.452056884765625,40321.63036166667,-2.849283402975896,-1.035919092481428,-0.4882118703167013,0.001535799354314804,-0.02591489255428314,-0.007154211867600679,0.01050800085067749,0.001243621110916138,-0.0005449950695037842,XArbitraryZVertical,0.5058895525261641,-0.1377806772637271,0.8166580569199052,-0.241167276015685,-0.7598211765289307,0.4690473973751068,-0.4501844942569733,0,0,0,-1,-1,40316.83576216667,unknown,2,2025-04-22T17:42:45.863+03:00,2025-04-21T17:08:51.449+03:00,9088,1.06215,0,0,7575.567,7,22,2025-04-22T17:37:54.399+03:00,767025768.5449551,0,-12.35,100.3501,1,0.35,2025-04-22T17:38:44.006+03:00,78,1.3,2025-04-22T14:20:19.516+03:00,0.02197104130929222,0
2025-04-22T17:42:50.677+03:00,1745332968.627453,40.95219040362207,29.14025454703285,76.04306,-1,-1,-1,-1,30,13.67661289634224,-9999,40321.64547466667,-0.7493438720703125,0.4648284912109375,-0.4523773193359375,40321.64043666667,-2.849308441468151,-1.036138903821422,-0.4881645087075073,-0.001513520022854209,-0.01897309720516205,-0.004288117866963148,0.01401352882385254,0.001285433769226074,-0.00140264630317688,XArbitraryZVertical,0.5059774765234676,-0.1377403414128402,0.816612049947569,-0.2411616605736086,-0.7599392533302307,0.4690055847167969,-0.4500287771224976,0,0,0,-1,-1,40316.83576216667,unknown,2,2025-04-22T17:42:45.863+03:00,2025-04-21T17:08:51.449+03:00,9088,1.06215,0,0,7575.567,7,22,2025-04-22T17:37:54.399+03:00,767025768.5449551,0,-12.35,100.3501,1,0.35,2025-04-22T17:38:44.006+03:00,78,1.3,2025-04-22T14:20:19.516+03:00,0.02197104130929222,0
2025-04-22T17:42:50.688+03:00,1745332968.627453,40.95219040362207,29.14025454703285,76.04306,-1,-1,-1,-1,30,13.67661289634224,-9999,40321.65555066667,-0.75408935546875,0.4648590087890625,-0.4577484130859375,40321.65051266667,-2.84931066921396,-1.036266374569156,-0.4881501671253826,-0.002636109013110399,-0.01525459252297878,-0.001866272417828441,0.01212352514266968,-0.003874629735946655,-0.002396315336227417,XArbitraryZVertical,0.5060293323973099,-0.1377194232315786,0.8165820906891842,-0.2411663423766084,-0.7600023746490479,0.4689929187297821,-0.4499353468418121,0,0,0,-1,-1,40316.83576216667,unknown,2,2025-04-22T17:42:45.863+03:00,2025-04-21T17:08:51.449+03:00,9088,1.06215,0,0,7575.567,7,22,2025-04-22T17:37:54.399+03:00,767025768.5449551,0,-12.35,100.3501,1,0.35,2025-04-22T17:38:44.006+03:00,78,1.3,2025-04-22T14:20:19.516+03:00,0.02197104130929222,0
2025-04-22T17:42:50.697+03:00,1745332968.627453,40.95219040362207,29.14025454703285,76.04306,-1,-1,-1,-1,30,13.67661289634224,-9999,40321.66562566667,-0.754486083984375,0.463714599609375,-0.4586639404296875,40321.66058766667,-2.849323648303626,-1.036347635031668,-0.4881579703256919,-0.004945868626236916,-0.01035837084054947,0.0006437569973058999,0.007136821746826172,-0.003637343645095825,-0.005191266536712646,XArbitraryZVertical,0.5060616267831018,-0.1377162242117148,0.8165620469778931,-0.2411683780601101,-0.7600358128547668,0.4689998030662537,-0.4498717486858368,0,0,0,-1,-1,40316.83576216667,unknown,2,2025-04-22T17:42:45.863+03:00,2025-04-21T17:08:51.449+03:00,9088,1.06215,0,0,7575.567,7,22,2025-04-22T17:37:54.399+03:00,767025768.5449551,0,-12.35,100.3501,1,0.35,2025-04-22T17:38:44.006+03:00,78,1.3,2025-04-22T14:20:19.516+03:00,0.02197104130929222,0
2025-04-22T17:42:50.707+03:00,1745332968.627453,40.95219040362207,29.14025454703285,76.04306,-1,-1,-1,-1,30,13.67661289634224,-9999,40321.67570066667,-0.7553863525390625,0.465667724609375,-0.4558563232421875,40321.67066366667,-2.849360087728884,-1.036438975710429,-0.488214260190011,-0.008567102253437042,-0.007889220491051674,0.004770924337208271,0.006087064743041992,-0.005029827356338501,-0.009073585271835327,XArbitraryZVertical,0.5060965410009478,-0.1377384034273965,0.8165354556617742,-0.2411723079786776,-0.7600541710853577,0.4690495133399963,-0.4497888386249542,0,0,0,-1,-1,40316.83576216667,unknown,2,2025-04-22T17:42:45.863+03:00,2025-04-21T17:08:51.449+03:00,9088,1.06215,0,0,7575.567,7,22,2025-04-22T17:37:54.399+03:00,767025768.5449551,0,-12.35,100.3501,1,0.35,2025-04-22T17:38:44.006+03:00,78,1.3,2025-04-22T14:20:19.516+03:00,0.02197104130929222,0
2025-04-22T17:42:50.717+03:00,1745332968.627453,40.95219040362207,29.14025454703285,76.04306,-1,-1,-1,-1,30,13.67661289634224,-9999,40321.68577666667,-0.755889892578125,0.4683990478515625,-0.455963134765625,40321.68073866667,-2.849432291112062,-1.036524754067725,-0.4883164301627146,-0.01176396012306213,-0.003071295097470284,0.006133663933724165,0.0050162672996521,-0.004082441329956055,-0.006508171558380127,XArbitraryZVertical,0.506126795829195,-0.1377898152841334,0.8165083187463058,-0.2411714752991113,-0.7600515484809875,0.4691397547721863,-0.4496992528438568,0,0,0,-1,-1,40316.83576216667,unknown,2,2025-04-22T17:42:45.863+03:00,2025-04-21T17:08:51.449+03:00,9088,1.06215,0,0,7575.567,7,22,2025-04-22T17:37:54.399+03:00,767025768.5449551,0,-12.35,100.3501,1,0.35,2025-04-22T17:38:44.006+03:00,78,1.3,2025-04-22T14:20:19.516+03:00,0.02197104130929222,0
2025-04-22T17:42:50.727+03:00,1745332968.627453,40.95219040362207,29.14025454703285,76.04306,-1,-1,-1,-1,30,13.67661289634224,-9999,40321.69585166667,-0.75732421875,0.4693756103515625,-0.4561614990234375,40321.69081466667,-2.849515300389233,-1.0365859605282,-0.4884079240248217,-0.006887912284582853,0.002042040461674333,0.0054322206415236,0.004762709140777588,-0.002240657806396484,-0.006195038557052612,XArbitraryZVertical,0.5061462532240782,-0.1378423873077773,0.8164901425784279,-0.2411621629931043,-0.760042130947113,0.4692205488681793,-0.4496308863162994,0,0,0,-1,-1,40316.83576216667,unknown,2,2025-04-22T17:42:45.863+03:00,2025-04-21T17:08:51.449+03:00,9088,1.06215,0,0,7575.567,7,22,2025-04-22T17:37:54.399+03:00,767025768.5449551,0,-12.35,100.3501,1,0.35,2025-04-22T17:38:44.006+03:00,78,1.3,2025-04-22T14:20:19.516+03:00,0.02197104130929222,0
2025-04-22T17:42:50.737+03:00,1745332968.627453,40.95219040362207,29.14025454703285,76.04306,-1,-1,-1,-1,30,13.67661289634224,-9999,40321.70592766667,-0.7586669921875,0.4749908447265625,-0.4570770263671875,40321.70088966667,-2.849498501787035,-1.036559973728267,-0.4884962894727858,0.001316488138400018,0.00111765693873167,0.008572886697947979,0.003433644771575928,-0.0005944967269897461,-0.006669461727142334,XArbitraryZVertical,0.5061370032914287,-0.1378789023811603,0.8164823215087847,-0.2411868814098652,-0.7599946856498718,0.4692985713481903,-0.4496294856071472,0,0,0,-1,-1,40316.83576216667,unknown,2,2025-04-22T17:42:45.863+03:00,2025-04-21T17:08:51.449+03:00,9088,1.06215,0,0,7575.567,7,22,2025-04-22T17:37:54.399+03:00,767025768.5449551,0,-12.35,100.3501,1,0.35,2025-04-22T17:38:44.006+03:00,78,1.3,2025-04-22T14:20:19.516+03:00,0.02197104130929222,0
2025-04-22T17:42:50.747+03:00,1745332968.627453,40.95219040362207,29.14025454703285,76.04306,-1,-1,-1,-1,30,13.67661289634224,-9999,40321.71600266667,-0.7573394775390625,0.47607421875,-0.457916259765625,40321.71096566667,-2.849394844718311,-1.036489057833195,-0.4885488602816924,0.007251075934618711,0.003987213131040335,0.007208016235381365,0.001686811447143555,0.002838134765625,-0.006811201572418213,XArbitraryZVertical,0.5061152835350444,-0.1378835773657698,0.8164806010926267,-0.2412360192709742,-0.7599416375160217,0.4693450033664703,-0.4496708810329437,0,0,0,-1,-1,40316.83576216667,unknown,2,2025-04-22T17:42:45.863+03:00,2025-04-21T17:08:51.449+03:00,9088,1.06215,0,0,7575.567,7,22,2025-04-22T17:37:54.399+03:00,767025768.5449551,0,-12.35,100.3501,1,0.35,2025-04-22T17:38:44.006+03:00,78,1.3,2025-04-22T14:20:19.516+03:00,0.02197104130929222,0
2025-04-22T17:42:50.759+03:00,1745332968.627453,40.95219040362207,29.14025454703285,76.04306,-1,-1,-1,-1,30,13.67661289634224,-9999,40321.72607866667,-0.75872802734375,0.4735565185546875,-0.4567718505859375,40321.72104066667,-2.849250477434517,-1.036343384629518,-0.4885784240231169,0.01033128891140223,0.008813394233584404,0.009853334166109562,0.001838207244873047,0.007832169532775879,-0.008324980735778809,XArbitraryZVertical,0.5060658280485442,-0.1378772033576843,0.8164959424363367,-0.2412914902881094,-0.7598642110824585,0.469371110200882,-0.4497745037078857,0,0,0,-1,-1,40316.83576216667,unknown,2,2025-04-22T17:42:45.863+03:00,2025-04-21T17:08:51.449+03:00,9088,1.06215,0,0,7575.567,7,22,2025-04-22T17:37:54.399+03:00,767025768.5449551,0,-12.35,100.3501,1,0.35,2025-04-22T17:38:44.006+03:00,78,1.3,2025-04-22T14:20:19.516+03:00,0.02197104130929222,0
2025-04-22T17:42:50.767+03:00,1745332968.627453,40.95219040362207,29.14025454703285,76.04306,-1,-1,-1,-1,30,13.67661289634224,-9999,40321.73615366667,-0.760223388671875,0.4698486328125,-0.4554901123046875,40321.73111566667,-2.849106522045745,-1.03614288232109,-0.488628064937669,0.004829663783311844,0.01346080936491489,0.01046556141227484,0.001804232597351074,0.004583984613418579,-0.007635176181793213,XArbitraryZVertical,0.5059939965610942,-0.1378860990568587,0.8165224416452599,-0.2413474817650482,-0.7597540020942688,0.4694149494171143,-0.4499149918556213,0,0,0,-1,-1,40316.83576216667,unknown,2,2025-04-22T17:42:45.863+03:00,2025-04-21T17:08:51.449+03:00,9088,1.06215,0,0,7575.567,7,22,2025-04-22T17:37:54.399+03:00,767025768.5449551,0,-12.35,100.3501,1,0.35,2025-04-22T17:38:44.006+03:00,78,1.3,2025-04-22T14:20:19.516+03:00,0.02197104130929222,0
2025-04-22T17:42:50.778+03:00,1745332968.627453,40.95219040362207,29.14025454703285,76.04306,-1,-1,-1,-1,30,13.67661289634224,-9999,40321.74622966667,-0.759552001953125,0.463134765625,-0.4542694091796875,40321.74119166667,-2.849053154270016,-1.035952231073311,-0.4887285888014538,-0.008270159363746643,0.01617137528955936,0.01083733886480331,-4.637241363525391e-05,0.00214540958404541,-0.005469739437103271,XArbitraryZVertical,0.5059200545724124,-0.1379383982440883,0.8165502814822474,-0.2413784768776912,-0.7596275806427002,0.4695037007331848,-0.4500357806682587,0,0,0,-1,-1,40316.83576216667,unknown,2,2025-04-22T17:42:45.863+03:00,2025-04-21T17:08:51.449+03:00,9088,1.06215,0,0,7575.567,7,22,2025-04-22T17:37:54.399+03:00,767025768.5449551,0,-12.35,100.3501,1,0.35,2025-04-22T17:38:44.006+03:00,78,1.3,2025-04-22T14:20:19.516+03:00,0.02197104130929222,0
2025-04-22T17:42:50.800+03:00,1745332968.627453,40.95219040362207,29.14025454703285,76.04306,-1,-1,-1,-1,30,13.67661289634224,-9999,40321.75630466667,-0.7572174072265625,0.462249755859375,-0.4553375244140625,40321.75126666667,-2.849062765045611,-1.035776271980453,-0.488847752114912,-0.0108826532959938,0.01482894271612167,0.009220567531883717,-0.0002804994583129883,-0.004551619291305542,-0.004174411296844482,XArbitraryZVertical,0.5058478136432228,-0.138012802621555,0.8165793640305298,-0.241388901992377,-0.75950026512146,0.4696089029312134,-0.4501409232616425,0,0,0,-1,-1,40316.83576216667,unknown,2,2025-04-22T17:42:45.863+03:00,2025-04-21T17:08:51.449+03:00,9088,1.06215,0,0,7575.567,7,22,2025-04-22T17:37:54.399+03:00,767025768.5449551,0,-12.35,100.3501,1,0.35,2025-04-22T17:38:44.006+03:00,78,1.3,2025-04-22T14:20:19.516+03:00,0.02197104130929222,0
2025-04-22T17:42:50.801+03:00,1745332968.627453,40.95219040362207,29.14025454703285,76.04306,-1,-1,-1,-1,30,13.67661289634224,-9999,40321.76638066667,-0.7536163330078125,0.463775634765625,-0.457183837890625,40321.76134266667,-2.849030237627374,-1.035570716193795,-0.4889404232994244,0.005230802111327648,0.02149110473692417,0.01079316344112158,0.001634180545806885,-0.007929354906082153,-0.004284679889678955,XArbitraryZVertical,0.5057663393465214,-0.1380688492450074,0.816614501964254,-0.2414085880151864,-0.7593702673912048,0.4696907103061676,-0.450274795293808,0,0,0,-1,-1,40316.83576216667,unknown,2,2025-04-22T17:42:45.863+03:00,2025-04-21T17:08:51.449+03:00,9088,1.06215,0,0,7575.567,7,22,2025-04-22T17:37:54.399+03:00,767025768.5449551,0,-12.35,100.3501,1,0.35,2025-04-22T17:38:44.006+03:00,78,1.3,2025-04-22T14:20:19.516+03:00,0.02197104130929222,0
2025-04-22T17:42:50.808+03:00,1745332968.627453,40.95219040362207,29.14025454703285,76.04306,-1,-1,-1,-1,30,13.67661289634224,-9999,40321.77645566667,-0.751129150390625,0.4632720947265625,-0.450592041015625,40321.77141766667,-2.848938189591963,-1.03524955408327,-0.4890301147983124,-0.001874245121143758,0.02977886237204075,0.01211156137287617,0.004291415214538574,-0.006162196397781372,-0.007465064525604248,XArbitraryZVertical,0.5056417570019414,-0.138122534732542,0.8166721133379382,-0.2414439247835831,-0.7591893672943115,0.4697698950767517,-0.4504971504211426,0,0,0,-1,-1,40316.83576216667,unknown,2,2025-04-22T17:42:45.863+03:00,2025-04-21T17:08:51.449+03:00,9088,1.06215,0,0,7575.567,7,22,2025-04-22T17:37:54.399+03:00,767025768.5449551,0,-12.35,100.3501,1,0.35,2025-04-22T17:38:44.006+03:00,78,1.3,2025-04-22T14:20:19.516+03:00,0.02197104130929222,0
2025-04-22T17:42:50.818+03:00,1745332968.627453,40.95219040362207,29.14025454703285,76.04306,-1,-1,-1,-1,30,13.67661289634224,-9999,40321.78653066667,-0.7508697509765625,0.4636688232421875,-0.4530792236328125,40321.78149366667,-2.84888080252285,-1.034922297519178,-0.489158376617433,-0.006034369114786386,0.02798096276819706,0.01510575413703918,0.007220208644866943,-0.006336480379104614,-0.002990186214447021,XArbitraryZVertical,0.5055123697150232,-0.1382021521755094,0.8167300810923878,-0.2414732401556847,-0.7589900493621826,0.469883143901825,-0.4507148265838623,0,0,0,-1,-1,40316.83576216667,unknown,2,2025-04-22T17:42:45.863+03:00,2025-04-21T17:08:51.449+03:00,9088,1.06215,0,0,7575.567,7,22,2025-04-22T17:37:54.399+03:00,767025768.5449551,0,-12.35,100.3501,1,0.35,2025-04-22T17:38:44.006+03:00,78,1.3,2025-04-22T14:20:19.516+03:00,0.02197104130929222,0
2025-04-22T17:42:50.828+03:00,1745332968.627453,40.95219040362207,29.14025454703285,76.04306,-1,-1,-1,-1,30,13.67661289634224,-9999,40321.79660666667,-0.7475128173828125,0.459625244140625,-0.4557952880859375,40321.79156866667,-2.848915450994518,-1.034690531964716,-0.4893587710214553,-0.01751026324927807,0.01940871402621269,0.01597963832318783,0.007950246334075928,-0.006635367870330811,-0.000146329402923584,XArbitraryZVertical,0.5054157573588651,-0.1383242132797002,0.8167650498014933,-0.2414875719713146,-0.7588046789169312,0.4700600206851959,-0.4508426487445831,0,0,0,-1,-1,40316.83576216667,unknown,2,2025-04-22T17:42:45.863+03:00,2025-04-21T17:08:51.449+03:00,9088,1.06215,0,0,7575.567,7,22,2025-04-22T17:37:54.399+03:00,767025768.5449551,0,-12.35,100.3501,1,0.35,2025-04-22T17:38:44.006+03:00,78,1.3,2025-04-22T14:20:19.516+03:00,0.02197104130929222,0
2025-04-22T17:42:50.838+03:00,1745332968.627453,40.95219040362207,29.14025454703285,76.04306,-1,-1,-1,-1,30,13.67661289634224,-9999,40321.80668166667,-0.7486419677734375,0.4590606689453125,-0.4595184326171875,40321.80164466667,-2.849001526913461,-1.034558257090192,-0.489597272840392,-0.01885409466922283,0.01651865243911743,0.01660840958356857,0.009884655475616455,-0.009150028228759766,-0.004833489656448364,XArbitraryZVertical,0.5053563381251505,-0.1384635350664872,0.8167755007534357,-0.2414961936908452,-0.7586485147476196,0.4702705144882202,-0.4508856534957886,0,0,0,-1,-1,40316.83576216667,unknown,2,2025-04-22T17:42:45.863+03:00,2025-04-21T17:08:51.449+03:00,9088,1.06215,0,0,7575.567,7,22,2025-04-22T17:37:54.399+03:00,767025768.5449551,0,-12.35,100.3501,1,0.35,2025-04-22T17:38:44.006+03:00,78,1.3,2025-04-22T14:20:19.516+03:00,0.02197104130929222,0
2025-04-22T17:42:50.848+03:00,1745332968.627453,40.95219040362207,29.14025454703285,76.04306,-1,-1,-1,-1,30,13.67661289634224,-9999,40321.81675766667,-0.7511749267578125,0.4647979736328125,-0.4601898193359375,40321.81171966667,-2.849083992937412,-1.034398753865569,-0.489829939664219,-0.01715599745512009,0.02027537301182747,0.0157873909920454,0.01101565361022949,-0.0113542377948761,-0.006919890642166138,XArbitraryZVertical,0.5052859876036527,-0.1386027146115749,0.8167933782724743,-0.2415031076669137,-0.7584825158119202,0.470475822687149,-0.4509507119655609,0,0,0,-1,-1,40316.83576216667,unknown,2,2025-04-22T17:42:45.863+03:00,2025-04-21T17:08:51.449+03:00,9088,1.06215,0,0,7575.567,7,22,2025-04-22T17:37:54.399+03:00,767025768.5449551,0,-12.35,100.3501,1,0.35,2025-04-22T17:38:44.006+03:00,78,1.3,2025-04-22T14:20:19.516+03:00,0.02197104130929222,0
2025-04-22T17:42:50.858+03:00,1745332968.627453,40.95219040362207,29.14025454703285,76.04306,-1,-1,-1,-1,30,13.67661289634224,-9999,40321.82683266667,-0.7498321533203125,0.4713592529296875,-0.45355224609375,40321.82179566667,-2.84911279828367,-1.034189941675923,-0.4900173912203981,-0.008656783029437065,0.02237208001315594,0.01384914107620716,0.007549703121185303,-0.008483052253723145,-0.009812593460083008,XArbitraryZVertical,0.5051990876019791,-0.1387150151462931,0.8168236372949729,-0.241518475087794,-0.7583126425743103,0.4706412255764008,-0.4510640501976013,0,0,0,-1,-1,40316.83576216667,unknown,2,2025-04-22T17:42:45.863+03:00,2025-04-21T17:08:51.449+03:00,9088,1.06215,0,0,7575.567,7,22,2025-04-22T17:37:54.399+03:00,767025768.5449551,0,-12.35,100.3501,1,0.35,2025-04-22T17:38:44.006+03:00,78,1.3,2025-04-22T14:20:19.516+03:00,0.02197104130929222,0
2025-04-22T17:42:50.868+03:00,1745332968.627453,40.95219040362207,29.14025454703285,76.04306,-1,-1,-1,-1,30,13.67661289634224,-9999,40321.83690866667,-0.74560546875,0.4732818603515625,-0.449981689453125,40321.83187066667,-2.849149184361804,-1.033977692481687,-0.4901561538953895,-0.01028104592114687,0.02044022269546986,0.0111248604953289,0.007260620594024658,-0.001632273197174072,-0.004603862762451172,XArbitraryZVertical,0.505110174123186,-0.1388089387747247,0.816862295242434,-0.2415196703509087,-0.7581607103347778,0.4707636535167694,-0.4511915743350983,0,0,0,-1,-1,40316.83576216667,unknown,2,2025-04-22T17:42:45.863+03:00,2025-04-21T17:08:51.449+03:00,9088,1.06215,0,0,7575.567,7,22,2025-04-22T17:37:54.399+03:00,767025768.5449551,0,-12.35,100.3501,1,0.35,2025-04-22T17:38:44.006+03:00,78,1.3,2025-04-22T14:20:19.516+03:00,0.02197104130929222,0
2025-04-22T17:42:50.878+03:00,1745332968.627453,40.95219040362207,29.14025454703285,76.04306,-1,-1,-1,-1,30,13.67661289634224,-9999,40321.84698366667,-0.7410736083984375,0.4724884033203125,-0.4507598876953125,40321.84194566667,-2.849202420757882,-1.033830878690365,-0.4902428135859449,-0.009077297523617744,0.01345741376280785,0.005163907073438168,0.009676933288574219,0.001648187637329102,1.84476375579834e-05,XArbitraryZVertical,0.5050467146118757,-0.1388770389143222,0.8168936307737616,-0.2415069463312672,-0.7580593228340149,0.4708401262760162,-0.4512819647789001,0,0,0,-1,-1,40316.83576216667,unknown,2,2025-04-22T17:42:45.863+03:00,2025-04-21T17:08:51.449+03:00,9088,1.06215,0,0,7575.567,7,22,2025-04-22T17:37:54.399+03:00,767025768.5449551,0,-12.35,100.3501,1,0.35,2025-04-22T17:38:44.006+03:00,78,1.3,2025-04-22T14:20:19.516+03:00,0.02197104130929222,0
2025-04-22T17:42:50.888+03:00,1745332968.627453,40.95219040362207,29.14025454703285,76.04306,-1,-1,-1,-1,30,13.67661289634224,-9999,40321.85705966667,-0.7425537109375,0.4705657958984375,-0.4539947509765625,40321.85202166667,-2.849272956388453,-1.03372416618139,-0.4902996503376791,-0.008789342828094959,0.0123338932171464,0.002574814949184656,0.0151294469833374,0.002422034740447998,0.001672506332397461,XArbitraryZVertical,0.5049983467848155,-0.1389319423385649,0.8169211829429589,-0.2414833301560924,-0.7579882144927979,0.4708902537822723,-0.4513491690158844,0,0,0,-1,-1,40316.83576216667,unknown,2,2025-04-22T17:42:45.863+03:00,2025-04-21T17:08:51.449+03:00,9088,1.06215,0,0,7575.567,7,22,2025-04-22T17:37:54.399+03:00,767025768.5449551,0,-12.35,100.3501,1,0.35,2025-04-22T17:38:44.006+03:00,78,1.3,2025-04-22T14:20:19.516+03:00,0.02197104130929222,0
2025-04-22T17:42:50.899+03:00,1745332968.627453,40.95219040362207,29.14025454703285,76.04306,-1,-1,-1,-1,30,13.67661289634224,-9999,40321.86713466667,-0.7440643310546875,0.46881103515625,-0.4579315185546875,40321.86209666667,-2.849297847131114,-1.033591372453684,-0.4903221636505246,-0.001583627657964826,0.01260473672300577,0.003669108264148235,0.0169219970703125,0.0001438558101654053,-0.001055151224136353,XArbitraryZVertical,0.5049424270116997,-0.138963853879175,0.8169545554284536,-0.2414689272875589,-0.7579191327095032,0.4709101319313049,-0.4514443874359131,0,0,0,-1,-1,40316.83576216667,unknown,2,2025-04-22T17:42:45.863+03:00,2025-04-21T17:08:51.449+03:00,9088,1.06215,0,0,7575.567,7,22,2025-04-22T17:37:54.399+03:00,767025768.5449551,0,-12.35,100.3501,1,0.35,2025-04-22T17:38:44.006+03:00,78,1.3,2025-04-22T14:20:19.516+03:00,0.02197104130929222,0
2025-04-22T17:42:50.909+03:00,1745332968.627453,40.95219040362207,29.14025454703285,76.04306,-1,-1,-1,-1,30,13.67661289634224,-9999,40321.87721066667,-0.7423095703125,0.4665985107421875,-0.46051025390625,40321.87217266667,-2.849318562453425,-1.033490899127659,-0.4903794451443276,-0.006726724561303854,0.005994770210236311,0.005229320842772722,0.0134507417678833,-0.001752972602844238,-0.004624426364898682,XArbitraryZVertical,0.5049000643851838,-0.139005612001784,0.8169744491556051,-0.2414661849068057,-0.7578505873680115,0.4709606468677521,-0.4515067338943481,0,0,0,-1,-1,40316.83576216667,unknown,2,2025-04-22T17:42:45.863+03:00,2025-04-21T17:08:51.449+03:00,9088,1.06215,0,0,7575.567,7,22,2025-04-22T17:37:54.399+03:00,767025768.5449551,0,-12.35,100.3501,1,0.35,2025-04-22T17:38:44.006+03:00,78,1.3,2025-04-22T14:20:19.516+03:00,0.02197104130929222,0
2025-04-22T17:42:50.919+03:00,1745332968.627453,40.95219040362207,29.14025454703285,76.04306,-1,-1,-1,-1,30,13.67661289634224,-9999,40321.88728566667,-0.738433837890625,0.46148681640625,-0.46319580078125,40321.88224766667,-2.84938783826465,-1.033477096100074,-0.4904679603327139,-0.01408024504780769,-0.0002599298022687435,0.005380854941904545,0.01414114236831665,-0.003601133823394775,-0.008068442344665527,XArbitraryZVertical,0.5048897957061818,-0.1390624720783258,0.8169739556290424,-0.2414565512023594,-0.7578085660934448,0.4710387289524078,-0.4514958560466766,0,0,0,-1,-1,40316.83576216667,unknown,2,2025-04-22T17:42:45.863+03:00,2025-04-21T17:08:51.449+03:00,9088,1.06215,0,0,7575.567,7,22,2025-04-22T17:37:54.399+03:00,767025768.5449551,0,-12.35,100.3501,1,0.35,2025-04-22T17:38:44.006+03:00,78,1.3,2025-04-22T14:20:19.516+03:00,0.02197104130929222,0
2025-04-22T17:42:50.929+03:00,1745332968.627453,40.95219040362207,29.14025454703285,76.04306,-1,-1,-1,-1,30,13.67661289634224,-9999,40321.89736066667,-0.73968505859375,0.460662841796875,-0.46307373046875,40321.89232366667,-2.849491110221553,-1.033499217811456,-0.4905903617611056,-0.01673361845314503,-4.454609006643295e-05,0.00651492876932025,0.01802307367324829,-0.00776788592338562,-0.01136493682861328,XArbitraryZVertical,0.5048918948722074,-0.1391380040239557,0.8169638110593404,-0.2414430456531537,-0.757768988609314,0.4711467027664185,-0.4514495730400085,0,0,0,-1,-1,40316.83576216667,unknown,2,2025-04-22T17:42:45.863+03:00,2025-04-21T17:08:51.449+03:00,9088,1.06215,0,0,7575.567,7,22,2025-04-22T17:37:54.399+03:00,767025768.5449551,0,-12.35,100.3501,1,0.35,2025-04-22T17:38:44.006+03:00,78,1.3,2025-04-22T14:20:19.516+03:00,0.02197104130929222,0
2025-04-22T17:42:50.939+03:00,1745332968.627453,40.95219040362207,29.14025454703285,76.04306,-1,-1,-1,-1,30,13.67661289634224,-9999,40321.90743666667,-0.7402496337890625,0.46405029296875,-0.4598388671875,40321.90239866667,-2.849593315006905,-1.033522786023935,-0.4907327929565455,-0.01768889464437962,4.280544817447662e-05,0.007420935668051243,0.01876950263977051,-0.01178452372550964,-0.01205798983573914,XArbitraryZVertical,0.5048946992515718,-0.1392216318980346,0.8169503281631214,-0.2414345146484566,-0.7577219605445862,0.4712723195552826,-0.4513973593711853,0,0,0,-1,-1,40316.83576216667,unknown,2,2025-04-22T17:42:45.863+03:00,2025-04-21T17:08:51.449+03:00,9088,1.06215,0,0,7575.567,7,22,2025-04-22T17:37:54.399+03:00,767025768.5449551,0,-12.35,100.3501,1,0.35,2025-04-22T17:38:44.006+03:00,78,1.3,2025-04-22T14:20:19.516+03:00,0.02197104130929222,0
2025-04-22T17:42:50.949+03:00,1745332968.627453,40.95219040362207,29.14025454703285,76.04306,-1,-1,-1,-1,30,13.67661289634224,-9999,40321.91751166667,-0.7420501708984375,0.4659423828125,-0.4639434814453125,40321.91247466667,-2.849720951152765,-1.033570778305223,-0.4909220139505013,-0.02565827034413815,0.002037113765254617,0.01305665075778961,0.0179821252822876,-0.009021729230880737,-0.009286552667617798,XArbitraryZVertical,0.504905776161012,-0.1393286474614853,0.816927294963838,-0.2414276807338424,-0.757667064666748,0.4714392125606537,-0.4513153731822968,0,0,0,-1,-1,40316.83576216667,unknown,2,2025-04-22T17:42:45.863+03:00,2025-04-21T17:08:51.449+03:00,9088,1.06215,0,0,7575.567,7,22,2025-04-22T17:37:54.399+03:00,767025768.5449551,0,-12.35,100.3501,1,0.35,2025-04-22T17:38:44.006+03:00,78,1.3,2025-04-22T14:20:19.516+03:00,0.02197104130929222,0
2025-04-22T17:42:50.959+03:00,1745332968.627453,40.95219040362207,29.14025454703285,76.04306,-1,-1,-1,-1,30,13.67661289634224,-9999,40321.92758766667,-0.74273681640625,0.46600341796875,-0.4722442626953125,40321.92254966667,-2.849969086218856,-1.033664966218345,-0.4911800928523776,-0.04156320169568062,-0.001947507727891207,0.009875771589577198,0.01622641086578369,-0.006823182106018066,-0.01050359010696411,XArbitraryZVertical,0.504927439336163,-0.1394898444123659,0.8168974828855317,-0.2413901190153689,-0.7576049566268921,0.4716667830944061,-0.4511817395687103,0,0,0,-1,-1,40316.83576216667,unknown,2,2025-04-22T17:42:45.863+03:00,2025-04-21T17:08:51.449+03:00,9088,1.06215,0,0,7575.567,7,22,2025-04-22T17:37:54.399+03:00,767025768.5449551,0,-12.35,100.3501,1,0.35,2025-04-22T17:38:44.006+03:00,78,1.3,2025-04-22T14:20:19.516+03:00,0.02197104130929222,0
2025-04-22T17:42:50.969+03:00,1745332968.627453,40.95219040362207,29.14025454703285,76.04306,-1,-1,-1,-1,30,13.67661289634224,-9999,40321.93766266667,-0.7375640869140625,0.4635467529296875,-0.4768218994140625,40321.93262566667,-2.850429111644524,-1.033966779903474,-0.4915221051896654,-0.06259771436452866,-0.0176202766597271,0.006403641775250435,0.01410287618637085,-0.006300687789916992,-0.01827633380889893,XArbitraryZVertical,0.5050191820644743,-0.1397152146663592,0.8168292077778143,-0.2412991608403833,-0.7576025128364563,0.4719683527946472,-0.4508705735206604,0,0,0,-1,-1,40316.83576216667,unknown,2,2025-04-22T17:42:45.863+03:00,2025-04-21T17:08:51.449+03:00,9088,1.06215,0,0,7575.567,7,22,2025-04-22T17:37:54.399+03:00,767025768.5449551,0,-12.35,100.3501,1,0.35,2025-04-22T17:38:44.006+03:00,78,1.3,2025-04-22T14:20:19.516+03:00,0.02197104130929222,0
2025-04-22T17:42:50.979+03:00,1745332968.627453,40.95219040362207,29.14025454703285,76.04306,-1,-1,-1,-1,30,13.67661289634224,-9999,40321.94773866667,-0.7342681884765625,0.457427978515625,-0.47271728515625,40321.94270066667,-2.851132841142067,-1.034574387798703,-0.4919905886825127,-0.09228796511888504,-0.04042040184140205,0.004008128307759762,0.01891666650772095,-0.007995367050170898,-0.02519738674163818,XArbitraryZVertical,0.5052188099485027,-0.1400191333637448,0.8166954140349538,-0.2411582302667147,-0.7576862573623657,0.4723813235759735,-0.4502972066402435,0,0,0,-1,-1,40316.83576216667,unknown,2,2025-04-22T17:42:45.863+03:00,2025-04-21T17:08:51.449+03:00,9088,1.06215,0,0,7575.567,7,22,2025-04-22T17:37:54.399+03:00,767025768.5449551,0,-12.35,100.3501,1,0.35,2025-04-22T17:38:44.006+03:00,78,1.3,2025-04-22T14:20:19.516+03:00,0.02197104130929222,0
2025-04-22T17:42:50.989+03:00,1745332968.627453,40.95219040362207,29.14025454703285,76.04306,-1,-1,-1,-1,30,13.67661289634224,-9999,40321.95781366667,-0.7374267578125,0.455657958984375,-0.4718170166015625,40321.95277666667,-2.852054607284461,-1.035386374516999,-0.4924940806189331,-0.09444306045770645,-0.03764065727591515,7.860094774514437e-05,0.02284640073776245,-0.01283368468284607,-0.02544590830802917,XArbitraryZVertical,0.5054864133520411,-0.1403685645259773,0.8165309104068842,-0.2409505789065578,-0.7578467726707458,0.4728250205516815,-0.4495603144168854,0,0,0,-1,-1,40316.83576216667,unknown,2,2025-04-22T17:42:45.863+03:00,2025-04-21T17:08:51.449+03:00,9088,1.06215,0,0,7575.567,7,22,2025-04-22T17:37:54.399+03:00,767025768.5449551,0,-12.35,100.3501,1,0.35,2025-04-22T17:38:44.006+03:00,78,1.3,2025-04-22T14:20:19.516+03:00,0.02197104130929222,0
2025-04-22T17:42:50.999+03:00,1745332968.627453,40.95219040362207,29.14025454703285,76.04306,-1,-1,-1,-1,30,13.67661289634224,-9999,40321.96788966667,-0.74456787109375,0.46319580078125,-0.4894866943359375,40321.96285166667,-2.853072291991711,-1.036211344469008,-0.4930376312109316,-0.1219207569956779,-0.03871284797787666,-0.001647393684834242,0.02249222993850708,-0.01807329058647156,-0.02131944894790649,XArbitraryZVertical,0.505752141321183,-0.140757820689984,0.8163692655495167,-0.2407139558225775,-0.7579962611198425,0.4733039140701294,-0.4488040208816528,0,0,0,-1,-1,40316.83576216667,unknown,2,2025-04-22T17:42:45.863+03:00,2025-04-21T17:08:51.449+03:00,9088,1.06215,0,0,7575.567,7,22,2025-04-22T17:37:54.399+03:00,767025768.5449551,0,-12.35,100.3501,1,0.35,2025-04-22T17:38:44.006+03:00,78,1.3,2025-04-22T14:20:19.516+03:00,0.02197104130929222,0
2025-04-22T17:42:51.010+03:00,1745332968.627453,40.95219040362207,29.14025454703285,76.04306,-1,-1,-1,-1,30,13.67661289634224,-9999,40321.97796466667,-0.7467041015625,0.4650421142578125,-0.5034332275390625,40321.97292666667,-2.854598582271884,-1.037293562707903,-0.4938176084479514,-0.1968726366758347,-0.03841124475002289,-0.003703686874359846,0.01506048440933228,-0.01404529809951782,-0.03323793411254883,XArbitraryZVertical,0.5060866146400617,-0.1413456538505875,0.816170173835259,-0.2403409130971902,-0.7581633329391479,0.4739908576011658,-0.4477954804897308,0,0,0,-1,-1,40316.83576216667,unknown,2,2025-04-22T17:42:45.863+03:00,2025-04-21T17:08:51.449+03:00,9088,1.06215,0,0,7575.567,7,22,2025-04-22T17:37:54.399+03:00,767025768.5449551,0,-12.35,100.3501,1,0.35,2025-04-22T17:38:44.006+03:00,78,1.3,2025-04-22T14:20:19.516+03:00,0.02197104130929222,0
2025-04-22T17:42:51.019+03:00,1745332968.627453,40.95219040362207,29.14025454703285,76.04306,-1,-1,-1,-1,30,13.67661289634224,-9999,40321.98804066667,-0.7553863525390625,0.4391021728515625,-0.5177154541015625,40321.98300266667,-2.857118407718178,-1.038683788292923,-0.4950004409706841,-0.3140959441661835,-0.000407136045396328,-0.0213354118168354,0.01268094778060913,-0.007563859224319458,-0.0533759593963623,XArbitraryZVertical,0.5064749878438434,-0.1423197323180049,0.8159559461946153,-0.2396749903222844,-0.7583016157150269,0.4750320315361023,-0.4464563727378845,0,0,0,-1,-1,40316.83576216667,unknown,2,2025-04-22T17:42:45.863+03:00,2025-04-21T17:08:51.449+03:00,9088,1.06215,0,0,7575.567,7,22,2025-04-22T17:37:54.399+03:00,767025768.5449551,0,-12.35,100.3501,1,0.35,2025-04-22T17:38:44.006+03:00,78,1.3,2025-04-22T14:20:19.516+03:00,0.02197104130929222,0
2025-04-22T17:42:51.029+03:00,1745332968.627453,40.95219040362207,29.14025454703285,76.04306,-1,-1,-1,-1,30,13.67661289634224,-9999,40321.99811566667,-0.7671661376953125,0.3841400146484375,-0.5378875732421875,40321.99307766667,-2.861251181022416,-1.040290723333065,-0.4969108909868343,-0.5113468766212463,0.0600898303091526,-0.005638440139591694,0.006402969360351562,-0.02454867959022522,-0.06495803594589233,XArbitraryZVertical,0.5068325261095655,-0.1439866742195916,0.8157767613562242,-0.2385308057707612,-0.758233904838562,0.4767123162746429,-0.444777250289917,0,0,0,-1,-1,40316.83576216667,unknown,2,2025-04-22T17:42:45.863+03:00,2025-04-21T17:08:51.449+03:00,9088,1.06215,0,0,7575.567,7,22,2025-04-22T17:37:54.399+03:00,767025768.5449551,0,-12.35,100.3501,1,0.35,2025-04-22T17:38:44.006+03:00,78,1.3,2025-04-22T14:20:19.516+03:00,0.02197104130929222,0
2025-04-22T17:42:51.040+03:00,1745332968.627453,40.95219040362207,29.14025454703285,76.04306,-1,-1,-1,-1,30,13.67661289634224,-9999,40322.00819166667,-0.758697509765625,0.3243255615234375,-0.5208587646484375,40322.00315366667,-2.867480517168792,-1.0427858441431,-0.5001890665263119,-0.737165629863739,0.03105897828936577,0.01998063549399376,-0.005028426647186279,-0.07134261727333069,-0.09142947196960449,XArbitraryZVertical,0.5073885362439315,-0.1466620474546692,0.815427840226675,-0.2369060405879867,-0.7579872012138367,0.4795914590358734,-0.4420942366123199,0,0,0,-1,-1,40316.83576216667,unknown,2,2025-04-22T17:42:45.863+03:00,2025-04-21T17:08:51.449+03:00,9088,1.06215,0,0,7575.567,7,22,2025-04-22T17:37:54.399+03:00,767025768.5449551,0,-12.35,100.3501,1,0.35,2025-04-22T17:38:44.006+03:00,78,1.3,2025-04-22T14:20:19.516+03:00,0.02197104130929222,0
2025-04-22T17:42:51.050+03:00,1745332968.627453,40.95219040362207,29.14025454703285,76.04306,-1,-1,-1,-1,30,13.67661289634224,-9999,40322.01826666667,-0.732666015625,0.33807373046875,-0.5114593505859375,40322.01322866667,-2.875256502492209,-1.046898794568087,-0.5043384506422948,-0.822728157043457,-0.1106603369116783,0.006161760073155165,-0.00699084997177124,-0.1401803493499756,-0.0922999382019043,XArbitraryZVertical,0.5084678640899634,-0.14991200890815,0.8147228278638368,-0.2349754120224158,-0.7580694556236267,0.4832283556461334,-0.4379736483097076,0,0,0,-1,-1,40316.83576216667,unknown,2,2025-04-22T17:42:45.863+03:00,2025-04-21T17:08:51.449+03:00,9088,1.06215,0,0,7575.567,7,22,2025-04-22T17:37:54.399+03:00,767025768.5449551,0,-12.35,100.3501,1,0.35,2025-04-22T17:38:44.006+03:00,78,1.3,2025-04-22T14:20:19.516+03:00,0.02197104130929222,0
2025-04-22T17:42:51.060+03:00,1745332968.627453,40.95219040362207,29.14025454703285,76.04306,-1,-1,-1,-1,30,13.67661289634224,-9999,40322.02834266667,-0.7198944091796875,0.4361572265625,-0.5521392822265625,40322.02330466667,-2.882620238462931,-1.051546080094639,-0.5081520744888494,-0.647514283657074,-0.09874455630779266,0.01388892158865929,0.01572400331497192,-0.1659155786037445,-0.07754969596862793,XArbitraryZVertical,0.5097747491790794,-0.1528579741272499,0.8138707660030836,-0.2331915957365638,-0.7584911584854126,0.48656365275383,-0.4335283041000366,0,0,0,-1,-1,40316.83576216667,unknown,2,2025-04-22T17:42:45.863+03:00,2025-04-21T17:08:51.449+03:00,9088,1.06215,0,0,7575.567,7,22,2025-04-22T17:37:54.399+03:00,767025768.5449551,0,-12.35,100.3501,1,0.35,2025-04-22T17:38:44.006+03:00,78,1.3,2025-04-22T14:20:19.516+03:00,0.02197104130929222,0
2025-04-22T17:42:51.070+03:00,1745332968.627453,40.95219040362207,29.14025454703285,76.04306,-1,-1,-1,-1,30,13.67661289634224,-9999,40322.03841766667,-0.7254486083984375,0.579010009765625,-0.6492767333984375,40322.03337966667,-2.88714815686471,-1.054260684723757,-0.5108041979309854,-0.255396842956543,-0.02853883802890778,0.06932076066732407,0.03565549850463867,-0.09581258893013,-0.0962861180305481,XArbitraryZVertical,0.5105062576890024,-0.1548189637624297,0.8133361099583356,-0.2321609551648979,-0.7585405111312866,0.4888789355754852,-0.4308288991451263,0,0,0,-1,-1,40316.83576216667,unknown,2,2025-04-22T17:42:45.863+03:00,2025-04-21T17:08:51.449+03:00,9088,1.06215,0,0,7575.567,7,22,2025-04-22T17:37:54.399+03:00,767025768.5449551,0,-12.35,100.3501,1,0.35,2025-04-22T17:38:44.006+03:00,78,1.3,2025-04-22T14:20:19.516+03:00,0.02197104130929222,0
2025-04-22T17:42:51.080+03:00,1745332968.627453,40.95219040362207,29.14025454703285,76.04306,-1,-1,-1,-1,30,13.67661289634224,-9999,40322.04849266667,-0.7180328369140625,0.6992034912109375,-0.733642578125,40322.04345566667,-2.886893230679337,-1.05486668492419,-0.5116544108014861,0.1866884082555771,-0.1556326150894165,0.08015183359384537,0.03558510541915894,0.03194022178649902,-0.1833616495132446,XArbitraryZVertical,0.5107638635935154,-0.155042891865857,0.813033423342742,-0.2325050446282092,-0.7584396600723267,0.4896204471588135,-0.4301639497280121,0,0,0,-1,-1,40316.83576216667,unknown,2,2025-04-22T17:42:45.863+03:00,2025-04-21T17:08:51.449+03:00,9088,1.06215,0,0,7575.567,7,22,2025-04-22T17:37:54.399+03:00,767025768.5449551,0,-12.35,100.3501,1,0.35,2025-04-22T17:38:44.006+03:00,78,1.3,2025-04-22T14:20:19.516+03:00,0.02197104130929222,0
2025-04-22T17:42:51.090+03:00,1745332968.627453,40.95219040362207,29.14025454703285,76.04306,-1,-1,-1,-1,30,13.67661289634224,-9999,40322.05856866667,-0.717742919921875,0.697174072265625,-0.814666748046875,40322.05353066667,-2.882516844570764,-1.054878587195407,-0.5106322428599941,0.551181972026825,-0.2713839709758759,0.1254260987043381,0.03518599271774292,0.1758980751037598,-0.2707399129867554,XArbitraryZVertical,0.5111160334406779,-0.1534913777324604,0.8126625077458542,-0.2340520979731933,-0.7588797211647034,0.488728940486908,-0.4304015934467316,0,0,0,-1,-1,40316.83576216667,unknown,2,2025-04-22T17:42:45.863+03:00,2025-04-21T17:08:51.449+03:00,9088,1.06215,0,0,7575.567,7,22,2025-04-22T17:37:54.399+03:00,767025768.5449551,0,-12.35,100.3501,1,0.35,2025-04-22T17:38:44.006+03:00,78,1.3,2025-04-22T14:20:19.516+03:00,0.02197104130929222,0
2025-04-22T17:42:51.100+03:00,1745332968.627453,40.95219040362207,29.14025454703285,76.04306,-1,-1,-1,-1,30,13.67661289634224,-9999,40322.06864366667,-0.7346649169921875,0.615936279296875,-0.8915557861328125,40322.06360666667,-2.87540429995413,-1.055529009291649,-0.5084281839942455,0.69972163438797,-0.5403784513473511,0.09824348241090775,0.04567861557006836,0.2256431877613068,-0.3544135689735413,XArbitraryZVertical,0.5119390122670299,-0.1506639191938351,0.8119676516043484,-0.2364894914378784,-0.760094940662384,0.4868048429489136,-0.4304376542568207,0,0,0,-1,-1,40316.83576216667,unknown,2,2025-04-22T17:42:45.863+03:00,2025-04-21T17:08:51.449+03:00,9088,1.06215,0,0,7575.567,7,22,2025-04-22T17:37:54.399+03:00,767025768.5449551,0,-12.35,100.3501,1,0.35,2025-04-22T17:38:44.006+03:00,78,1.3,2025-04-22T14:20:19.516+03:00,0.02197104130929222,0
2025-04-22T17:42:51.110+03:00,1745332968.627453,40.95219040362207,29.14025454703285,76.04306,-1,-1,-1,-1,30,13.67661289634224,-9999,40322.07871966667,-0.768951416015625,0.4993896484375,-0.906219482421875,40322.07368166667,-2.867812218194834,-1.058118598216193,-0.505975804914977,0.6889718174934387,-0.6961328983306885,0.1316797286272049,0.03432470560073853,0.1672857105731964,-0.4368842840194702,XArbitraryZVertical,0.5135709773896852,-0.1473728945360814,0.810744603534024,-0.2392051559714839,-0.7622450590133667,0.4846612215042114,-0.4290521740913391,0,0,0,-1,-1,40316.83576216667,unknown,2,2025-04-22T17:42:45.863+03:00,2025-04-21T17:08:51.449+03:00,9088,1.06215,0,0,7575.567,7,22,2025-04-22T17:37:54.399+03:00,767025768.5449551,0,-12.35,100.3501,1,0.35,2025-04-22T17:38:44.006+03:00,78,1.3,2025-04-22T14:20:19.516+03:00,0.02197104130929222,0
2025-04-22T17:42:51.120+03:00,1745332968.627453,40.95219040362207,29.14025454703285,76.04306,-1,-1,-1,-1,30,13.67661289634224,-9999,40322.08879466667,-0.792144775390625,0.43603515625,-0.8937530517578125,40322.08375766667,-2.860570322062526,-1.062617300611951,-0.5041039632651124,0.5764247179031372,-0.8820065855979919,0.1596306711435318,0.00916057825088501,0.05959466099739075,-0.4825406074523926,XArbitraryZVertical,0.5159295111722678,-0.1441770928253469,0.8089786212444736,-0.2420395429843152,-0.7649587988853455,0.4830230474472046,-0.4260594248771667,0,0,0,-1,-1,40316.83576216667,unknown,2,2025-04-22T17:42:45.863+03:00,2025-04-21T17:08:51.449+03:00,9088,1.06215,0,0,7575.567,7,22,2025-04-22T17:37:54.399+03:00,767025768.5449551,0,-12.35,100.3501,1,0.35,2025-04-22T17:38:44.006+03:00,78,1.3,2025-04-22T14:20:19.516+03:00,0.02197104130929222,0
2025-04-22T17:42:51.130+03:00,1745332968.627453,40.95219040362207,29.14025454703285,76.04306,-1,-1,-1,-1,30,13.67661289634224,-9999,40322.09887066667,-0.7929229736328125,0.42919921875,-0.875274658203125,40322.09383266667,-2.854263888522963,-1.069498126789502,-0.5030923094752345,0.5032851099967957,-1.097614407539368,0.197438046336174,-0.01810687780380249,-0.03323879837989807,-0.4766847491264343,XArbitraryZVertical,0.519162313288937,-0.141280878125685,0.8065730673142837,-0.2448466404200615,-0.7683003544807434,0.482136994600296,-0.4210204184055328,0,0,0,-1,-1,40316.83576216667,unknown,2,2025-04-22T17:42:45.863+03:00,2025-04-21T17:08:51.449+03:00,9088,1.06215,0,0,7575.567,7,22,2025-04-22T17:37:54.399+03:00,767025768.5449551,0,-12.35,100.3501,1,0.35,2025-04-22T17:38:44.006+03:00,78,1.3,2025-04-22T14:20:19.516+03:00,0.02197104130929222,0
2025-04-22T17:42:51.140+03:00,1745332968.627453,40.95219040362207,29.14025454703285,76.04306,-1,-1,-1,-1,30,13.67661289634224,-9999,40322.10894566667,-0.7727813720703125,0.4271087646484375,-0.863525390625,40322.10390866667,-2.847862373157877,-1.078333179335924,-0.5027021510206593,0.4983329772949219,-1.253711819648743,0.2575725018978119,-0.02394086122512817,-0.05164989829063416,-0.4690111875534058,XArbitraryZVertical,0.5231672499822976,-0.1383599979839119,0.8035375637998139,-0.2479515247153885,-0.7721559405326843,0.4817951321601868,-0.4143050909042358,0,0,0,-1,-1,40316.83576216667,unknown,2,2025-04-22T17:42:45.863+03:00,2025-04-21T17:08:51.449+03:00,9088,1.06215,0,0,7575.567,7,22,2025-04-22T17:37:54.399+03:00,767025771.1229323,0,-12.43,100.3543,1,0.35,2025-04-22T17:38:44.006+03:00,78,1.3,2025-04-22T14:20:19.516+03:00,0.02197104130929222,0
2025-04-22T17:42:51.150+03:00,1745332968.627453,40.95219040362207,29.14025454703285,76.04306,-1,-1,-1,-1,30,13.67661289634224,-9999,40322.11902166667,-0.768402099609375,0.4222259521484375,-0.834503173828125,40322.11398366667,-2.841490790669033,-1.088457079680852,-0.5028653212649702,0.4709384441375732,-1.379715800285339,0.2859034836292267,-0.003467798233032227,-0.05464634299278259,-0.4605895578861237,XArbitraryZVertical,0.5276618411289629,-0.1354912200674061,0.8000594127476933,-0.2512367301347867,-0.7762408852577209,0.4819381237030029,-0.4064302146434784,0,0,0,-1,-1,40316.83576216667,unknown,2,2025-04-22T17:42:45.863+03:00,2025-04-21T17:08:51.449+03:00,9088,1.06215,0,0,7575.567,7,22,2025-04-22T17:37:54.399+03:00,767025771.1229323,0,-12.43,100.3543,1,0.35,2025-04-22T17:38:44.006+03:00,78,1.3,2025-04-22T14:20:19.516+03:00,0.02197104130929222,0
2025-04-22T17:42:51.160+03:00,1745332968.627453,40.95219040362207,29.14025454703285,76.04306,-1,-1,-1,-1,30,13.67661289634224,-9999,40322.12909666667,-0.74847412109375,0.4034576416015625,-0.7635955810546875,40322.12405866667,-2.835582580972122,-1.100230806808382,-0.5036044341980074,0.3688120543956757,-1.523065447807312,0.3167474269866943,0.0115354061126709,-0.05652979016304016,-0.4521419107913971,XArbitraryZVertical,0.5327550316716411,-0.1327455288197111,0.7960852524914305,-0.2545561038761341,-0.7806544899940491,0.482585608959198,-0.3971014022827148,0,0,0,-1,-1,40316.83576216667,unknown,2,2025-04-22T17:42:45.863+03:00,2025-04-21T17:08:51.449+03:00,9088,1.06215,0,0,7575.567,7,22,2025-04-22T17:37:54.399+03:00,767025771.1229323,0,-12.43,100.3543,1,0.35,2025-04-22T17:38:44.006+03:00,78,1.3,2025-04-22T14:20:19.516+03:00,0.02197104130929222,0
2025-04-22T17:42:51.171+03:00,1745332968.627453,40.95219040362207,29.14025454703285,76.04306,-1,-1,-1,-1,30,13.67661289634224,-9999,40322.13917266667,-0.73583984375,0.4199066162109375,-0.653289794921875,40322.13413466667,-2.830445409174601,-1.113822350526574,-0.5051089878462006,0.2981159389019012,-1.664028644561768,0.3454333245754242,0.02679747343063354,-0.07505893707275391,-0.4099019467830658,XArbitraryZVertical,0.538485248357875,-0.1302561582206379,0.7915705685489758,-0.2578426607216817,-0.7853269577026367,0.4839028120040894,-0.3861339390277863,0,0,0,-1,-1,40316.83576216667,unknown,2,2025-04-22T17:42:45.863+03:00,2025-04-21T17:08:51.449+03:00,9088,1.06215,0,0,7575.567,7,22,2025-04-22T17:37:54.399+03:00,767025771.1229323,0,-12.43,100.3543,1,0.35,2025-04-22T17:38:44.006+03:00,78,1.3,2025-04-22T14:20:19.516+03:00,0.02197104130929222,0
2025-04-22T17:42:51.181+03:00,1745332968.627453,40.95219040362207,29.14025454703285,76.04306,-1,-1,-1,-1,30,13.67661289634224,-9999,40322.14924766667,-0.7576446533203125,0.4448089599609375,-0.5701446533203125,40322.14420966667,-2.82570783630316,-1.128782700136829,-0.5070954449406629,0.2815854251384735,-1.751856803894043,0.3668195903301239,0.05384767055511475,-0.07597237825393677,-0.3206802606582642,XArbitraryZVertical,0.5446900876346367,-0.1278571864430009,0.7866168782413142,-0.2611494329269162,-0.7901451587677002,0.4856402575969696,-0.3739304840564728,0,0,0,-1,-1,40316.83576216667,unknown,2,2025-04-22T17:42:45.863+03:00,2025-04-21T17:08:51.449+03:00,9088,1.06215,0,0,7575.567,7,22,2025-04-22T17:37:54.399+03:00,767025771.1229323,0,-12.43,100.3543,1,0.35,2025-04-22T17:38:44.006+03:00,78,1.3,2025-04-22T14:20:19.516+03:00,0.02197104130929222,0
2025-04-22T17:42:51.191+03:00,1745332968.627453,40.95219040362207,29.14025454703285,76.04306,-1,-1,-1,-1,30,13.67661289634224,-9999,40322.15932366667,-0.8052978515625,0.4705047607421875,-0.5224761962890625,40322.15428566667,-2.820743760061393,-1.144122868951169,-0.5092383042955326,0.327678769826889,-1.76019287109375,0.3813945949077606,0.04966086149215698,-0.05072960257530212,-0.2341703772544861,XArbitraryZVertical,0.5510134358315023,-0.1253671455169894,0.7814498219296189,-0.2645816358988137,-0.7948390245437622,0.4875123500823975,-0.3613345324993134,0,0,0,-1,-1,40316.83576216667,unknown,2,2025-04-22T17:42:45.863+03:00,2025-04-21T17:08:51.449+03:00,9088,1.06215,0,0,7575.567,7,22,2025-04-22T17:37:54.399+03:00,767025771.1229323,0,-12.43,100.3543,1,0.35,2025-04-22T17:38:44.006+03:00,78,1.3,2025-04-22T14:20:19.516+03:00,0.02197104130929222,0
2025-04-22T17:42:51.201+03:00,1745332968.627453,40.95219040362207,29.14025454703285,76.04306,-1,-1,-1,-1,30,13.67661289634224,-9999,40322.16939866667,-0.8448944091796875,0.4940643310546875,-0.463348388671875,40322.16436066667,-2.815162090192379,-1.158952796590561,-0.5114093553915927,0.3691606819629669,-1.72084653377533,0.4002583026885986,0.01320374011993408,-0.02979680895805359,-0.1905591785907745,XArbitraryZVertical,0.5571296537594662,-0.1227390551906038,0.7762789865450809,-0.2682026239869102,-0.7991381883621216,0.4894067645072937,-0.3490833342075348,0,0,0,-1,-1,40316.83576216667,unknown,2,2025-04-22T17:42:45.863+03:00,2025-04-21T17:08:51.449+03:00,9088,1.06215,0,0,7575.567,7,22,2025-04-22T17:37:54.399+03:00,767025771.1229323,0,-12.43,100.3543,1,0.35,2025-04-22T17:38:44.006+03:00,78,1.3,2025-04-22T14:20:19.516+03:00,0.02197104130929222,0
2025-04-22T17:42:51.211+03:00,1745332968.627453,40.95219040362207,29.14025454703285,76.04306,-1,-1,-1,-1,30,13.67661289634224,-9999,40322.17947466667,-0.86016845703125,0.489837646484375,-0.3741455078125,40322.17443666667,-2.80957667274767,-1.173223863690726,-0.5136999209884011,0.3302017748355865,-1.656203389167786,0.3944656252861023,-0.03003555536270142,-0.003472805023193359,-0.1519425213336945,XArbitraryZVertical,0.5629838166559973,-0.1201869426916746,0.7711894394794028,-0.271792165975238,-0.8030025959014893,0.4914029836654663,-0.33720862865448,0,0,0,-1,-1,40316.83576216667,unknown,2,2025-04-22T17:42:45.863+03:00,2025-04-21T17:08:51.449+03:00,9088,1.06215,0,0,7575.567,7,22,2025-04-22T17:37:54.399+03:00,767025771.1229323,0,-12.43,100.3543,1,0.35,2025-04-22T17:38:44.006+03:00,78,1.3,2025-04-22T14:20:19.516+03:00,0.02197104130929222,0
2025-04-22T17:42:51.221+03:00,1745332968.627453,40.95219040362207,29.14025454703285,76.04306,-1,-1,-1,-1,30,13.67661289634224,-9999,40322.18954966667,-0.8601837158203125,0.4596099853515625,-0.29046630859375,40322.18451166667,-2.804629616830673,-1.187109363719435,-0.5162471879475236,0.2618182003498077,-1.580556869506836,0.4026825428009033,-0.05051994323730469,0.0006884634494781494,-0.08435550332069397,XArbitraryZVertical,0.5686076239238725,-0.1179278945806368,0.766204979837092,-0.275151080412217,-0.806443989276886,0.4936198890209198,-0.325556755065918,0,0,0,-1,-1,40316.83576216667,unknown,2,2025-04-22T17:42:45.863+03:00,2025-04-21T17:08:51.449+03:00,9088,1.06215,0,0,7575.567,7,22,2025-04-22T17:37:54.399+03:00,767025771.1229323,0,-12.43,100.3543,1,0.35,2025-04-22T17:38:44.006+03:00,78,1.3,2025-04-22T14:20:19.516+03:00,0.02197104130929222,0
2025-04-22T17:42:51.231+03:00,1745332968.627453,40.95219040362207,29.14025454703285,76.04306,-1,-1,-1,-1,30,13.67661289634224,-9999,40322.19962529167,-0.841949462890625,0.434326171875,-0.2154388427734375,40322.19458729167,-2.80071836068993,-1.20068536470357,-0.519262968735953,0.1406290382146835,-1.500557661056519,0.3961620032787323,-0.05310511589050293,-0.02288234233856201,-0.004717320203781128,XArbitraryZVertical,0.5740104446921533,-0.1161574343478411,0.7613329963215194,-0.2781930372150745,-0.80939781665802,0.4962404072284698,-0.3140389323234558,0,0,0,-1,-1,40316.83576216667,unknown,2,2025-04-22T17:42:45.863+03:00,2025-04-21T17:08:51.449+03:00,9088,1.06215,0,0,7575.567,7,22,2025-04-22T17:37:54.399+03:00,767025771.1229323,0,-12.43,100.3543,1,0.35,2025-04-22T17:38:44.006+03:00,78,1.3,2025-04-22T14:20:19.516+03:00,0.02197104130929222,0
2025-04-22T17:42:51.241+03:00,1745332968.627453,40.95219040362207,29.14025454703285,76.04306,-1,-1,-1,-1,30,13.67661289634224,-9999,40322.20970029167,-0.8218536376953125,0.4403839111328125,-0.12396240234375,40322.20466229167,-2.798669756976262,-1.214365832484914,-0.5226635947721205,-0.06420692801475525,-1.418866753578186,0.3556515872478485,-0.03745514154434204,-0.05938589572906494,0.05733585357666016,XArbitraryZVertical,0.5793054175642526,-0.1150306071025096,0.7565884652747483,-0.2806190139884092,-0.8120320439338684,0.4991898834705353,-0.3023463785648346,0,0,0,-1,-1,40316.83576216667,unknown,2,2025-04-22T17:42:45.863+03:00,2025-04-21T17:08:51.449+03:00,9088,1.06215,0,0,7575.567,7,22,2025-04-22T17:37:54.399+03:00,767025771.1229323,0,-12.43,100.3543,1,0.35,2025-04-22T17:38:44.006+03:00,78,1.3,2025-04-22T14:20:19.516+03:00,0.02197104130929222,0
2025-04-22T17:42:51.251+03:00,1745332968.627453,40.95219040362207,29.14025454703285,76.04306,-1,-1,-1,-1,30,13.67661289634224,-9999,40322.21977629167,-0.801849365234375,0.48724365234375,-0.0041656494140625,40322.21473829167,-2.799239350737397,-1.228560546473482,-0.5262563646925029,-0.2683024704456329,-1.344813227653503,0.28260338306427,-0.01350152492523193,-0.06824833154678345,0.128015398979187,XArbitraryZVertical,0.5846053683088672,-0.1146453753611285,0.7519927142453853,-0.2821345946861075,-0.8145471215248108,0.5022997856140137,-0.2901859879493713,0,0,0,-1,-1,40316.83576216667,unknown,2,2025-04-22T17:42:45.863+03:00,2025-04-21T17:08:51.449+03:00,9088,1.06215,0,0,7575.567,7,22,2025-04-22T17:37:54.399+03:00,767025771.1229323,0,-12.43,100.3543,1,0.35,2025-04-22T17:38:44.006+03:00,78,1.3,2025-04-22T14:20:19.516+03:00,0.02197104130929222,0
2025-04-22T17:42:51.261+03:00,1745332968.627453,40.95219040362207,29.14025454703285,76.04306,-1,-1,-1,-1,30,13.67661289634224,-9999,40322.22985129167,-0.786590576171875,0.54486083984375,0.10162353515625,40322.22481329167,-2.802200287525036,-1.243088208294265,-0.5296890743492505,-0.4237530529499054,-1.237586975097656,0.1931496560573578,0.00711822509765625,-0.03921592235565186,0.2273504734039307,XArbitraryZVertical,0.5898553660673431,-0.114838139434084,0.7476227184172964,-0.2827420611459446,-0.8170393705368042,0.5052650570869446,-0.277765691280365,0,0,0,-1,-1,40316.83576216667,unknown,2,2025-04-22T17:42:45.863+03:00,2025-04-21T17:08:51.449+03:00,9088,1.06215,0,0,7575.567,7,22,2025-04-22T17:37:54.399+03:00,767025771.1229323,0,-12.43,100.3543,1,0.35,2025-04-22T17:38:44.006+03:00,78,1.3,2025-04-22T14:20:19.516+03:00,0.02197104130929222,0
2025-04-22T17:42:51.271+03:00,1745332968.627453,40.95219040362207,29.14025454703285,76.04306,-1,-1,-1,-1,30,13.67661289634224,-9999,40322.23992629167,-0.79547119140625,0.5857696533203125,0.193084716796875,40322.23488929167,-2.806810661563135,-1.25712953731317,-0.5324362793224774,-0.493365079164505,-1.078783988952637,0.0755934938788414,0.02899301052093506,0.01720732450485229,0.329145610332489,XArbitraryZVertical,0.5947975188862852,-0.1153142413750478,0.7436974234172614,-0.2825466304122543,-0.8195354342460632,0.5076338648796082,-0.2658370733261108,0,0,0,-1,-1,40316.83576216667,unknown,2,2025-04-22T17:42:45.863+03:00,2025-04-21T17:08:51.449+03:00,9088,1.06215,0,0,7575.567,7,22,2025-04-22T17:37:54.399+03:00,767025771.1229323,0,-12.43,100.3543,1,0.35,2025-04-22T17:38:44.006+03:00,78,1.3,2025-04-22T14:20:19.516+03:00,0.02197104130929222,0
2025-04-22T17:42:51.281+03:00,1745332968.627453,40.95219040362207,29.14025454703285,76.04306,-1,-1,-1,-1,30,13.67661289634224,-9999,40322.25000229167,-0.8077392578125,0.6157684326171875,0.2492218017578125,40322.24496429167,-2.812273948702227,-1.269941906436198,-0.5340343188205749,-0.4944575130939484,-0.9185625910758972,-0.0559549406170845,0.03176939487457275,0.06331652402877808,0.4168938994407654,XArbitraryZVertical,0.599215800911564,-0.1157718017144451,0.7404007167080493,-0.2816806617651098,-0.8220982551574707,0.5090100765228271,-0.2550746202468872,0,0,0,-1,-1,40316.83576216667,unknown,2,2025-04-22T17:42:45.863+03:00,2025-04-21T17:08:51.449+03:00,9088,1.06215,0,0,7575.567,7,22,2025-04-22T17:37:54.399+03:00,767025771.1229323,0,-12.43,100.3543,1,0.35,2025-04-22T17:38:44.006+03:00,78,1.3,2025-04-22T14:20:19.516+03:00,0.02197104130929222,0
2025-04-22T17:42:51.303+03:00,1745332968.627453,40.95219040362207,29.14025454703285,76.04306,-1,-1,-1,-1,30,13.67661289634224,-9999,40322.26007729167,-0.80133056640625,0.6302947998046875,0.25262451171875,40322.25504029167,-2.818195029489247,-1.281551028379687,-0.5343394854922671,-0.4982049167156219,-0.790788471698761,-0.1786811649799347,0.02027446031570435,0.09691309928894043,0.4783641695976257,XArbitraryZVertical,0.60315807277969,-0.1160413386749042,0.7376967124289047,-0.2802466679195792,-0.8248550295829773,0.5092726945877075,-0.2454694956541061,0,0,0,-1,-1,40316.83576216667,unknown,2,2025-04-22T17:42:45.863+03:00,2025-04-21T17:08:51.449+03:00,9088,1.06215,0,0,7575.567,7,22,2025-04-22T17:37:54.399+03:00,767025771.1229323,0,-12.43,100.3543,1,0.35,2025-04-22T17:38:44.006+03:00,78,1.3,2025-04-22T14:20:19.516+03:00,0.02197104130929222,0
2025-04-22T17:42:51.307+03:00,1745332968.627453,40.95219040362207,29.14025454703285,76.04306,-1,-1,-1,-1,30,13.67661289634224,-9999,40322.27015329167,-0.7834625244140625,0.6394805908203125,0.1875762939453125,40322.26511529167,-2.824639287490887,-1.292169610341761,-0.5334613665384039,-0.5059168934822083,-0.6675829291343689,-0.2979694604873657,0.02268427610397339,0.117063045501709,0.4960360825061798,XArbitraryZVertical,0.6067094294094195,-0.1161623103511452,0.7355168105351009,-0.2782535740840669,-0.8278447985649109,0.508516788482666,-0.2368199676275253,0,0,0,-1,-1,40316.83576216667,unknown,2,2025-04-22T17:42:45.863+03:00,2025-04-21T17:08:51.449+03:00,9088,1.06215,0,0,7575.567,7,22,2025-04-22T17:37:54.399+03:00,767025771.1229323,0,-12.43,100.3543,1,0.35,2025-04-22T17:38:44.006+03:00,78,1.3,2025-04-22T14:20:19.516+03:00,0.02197104130929222,0
2025-04-22T17:42:51.312+03:00,1745332968.627453,40.95219040362207,29.14025454703285,76.04306,-1,-1,-1,-1,30,13.67661289634224,-9999,40322.28022829167,-0.7622528076171875,0.639801025390625,0.1203460693359375,40322.27519129167,-2.831319606598973,-1.301631313732008,-0.5313837611884785,-0.478905975818634,-0.5385534763336182,-0.4074937999248505,0.04038512706756592,0.1303122639656067,0.4470150470733643,XArbitraryZVertical,0.6098356391236671,-0.1160687761503328,0.733873935063316,-0.2757850273111034,-0.8310648798942566,0.5067268013954163,-0.2292570620775223,0,0,0,-1,-1,40316.83576216667,unknown,2,2025-04-22T17:42:45.863+03:00,2025-04-21T17:08:51.449+03:00,9088,1.06215,0,0,7575.567,7,22,2025-04-22T17:37:54.399+03:00,767025771.1229323,0,-12.43,100.3543,1,0.35,2025-04-22T17:38:44.006+03:00,78,1.3,2025-04-22T14:20:19.516+03:00,0.02197104130929222,0
2025-04-22T17:42:51.322+03:00,1745332968.627453,40.95219040362207,29.14025454703285,76.04306,-1,-1,-1,-1,30,13.67661289634224,-9999,40322.29030429167,-0.7473907470703125,0.6456451416015625,0.0992431640625,40322.28526629167,-2.837890731727982,-1.309710397789115,-0.5281258590154191,-0.4348727464675903,-0.4033831357955933,-0.5089344382286072,0.0648120641708374,0.135793924331665,0.363539457321167,XArbitraryZVertical,0.6124822833407548,-0.1156946647505337,0.7327874487786624,-0.2729517611324844,-0.8344805240631104,0.5039154291152954,-0.2229603976011276,0,0,0,-1,-1,40316.83576216667,unknown,2,2025-04-22T17:42:45.863+03:00,2025-04-21T17:08:51.449+03:00,9088,1.06215,0,0,7575.567,7,22,2025-04-22T17:37:54.399+03:00,767025771.1229323,0,-12.43,100.3543,1,0.35,2025-04-22T17:38:44.006+03:00,78,1.3,2025-04-22T14:20:19.516+03:00,0.02197104130929222,0
2025-04-22T17:42:51.332+03:00,1745332968.627453,40.95219040362207,29.14025454703285,76.04306,-1,-1,-1,-1,30,13.67661289634224,-9999,40322.30037929167,-0.746734619140625,0.635498046875,0.1041107177734375,40322.29534229167,-2.844148404249074,-1.316234964176228,-0.523912308256329,-0.3917704224586487,-0.2685881853103638,-0.5692132711410522,0.08694267272949219,0.143054187297821,0.3198960721492767,XArbitraryZVertical,0.6146002107281602,-0.1150855573545526,0.7322499214483926,-0.2698735830306551,-0.8379648327827454,0.5002714991569519,-0.21804378926754,0,0,0,-1,-1,40316.83576216667,unknown,2,2025-04-22T17:42:45.863+03:00,2025-04-21T17:08:51.449+03:00,9088,1.06215,0,0,7575.567,7,22,2025-04-22T17:37:54.399+03:00,767025771.1229323,0,-12.43,100.3543,1,0.35,2025-04-22T17:38:44.006+03:00,78,1.3,2025-04-22T14:20:19.516+03:00,0.02197104130929222,0
2025-04-22T17:42:51.342+03:00,1745332968.627453,40.95219040362207,29.14025454703285,76.04306,-1,-1,-1,-1,30,13.67661289634224,-9999,40322.31045529167,-0.7529296875,0.593353271484375,0.1131134033203125,40322.30541729167,-2.850192856414337,-1.321326546535561,-0.5190919722798784,-0.3779784440994263,-0.1435935199260712,-0.6152209639549255,0.09615212678909302,0.1466234624385834,0.315014123916626,XArbitraryZVertical,0.6162241084412813,-0.1143861096436934,0.7321890596094617,-0.2666135652861644,-0.8413913249969482,0.4960919320583344,-0.2143673300743103,0,0,0,-1,-1,40316.83576216667,unknown,2,2025-04-22T17:42:45.863+03:00,2025-04-21T17:08:51.449+03:00,9088,1.06215,0,0,7575.567,7,22,2025-04-22T17:37:54.399+03:00,767025771.1229323,0,-12.43,100.3543,1,0.35,2025-04-22T17:38:44.006+03:00,78,1.3,2025-04-22T14:20:19.516+03:00,0.02197104130929222,0
2025-04-22T17:42:51.352+03:00,1745332968.627453,40.95219040362207,29.14025454703285,76.04306,-1,-1,-1,-1,30,13.67661289634224,-9999,40322.32053029167,-0.75762939453125,0.54644775390625,0.132232666015625,40322.31549329167,-2.856118908785139,-1.324987701734358,-0.5139312887182658,-0.352575957775116,-0.01344623882323503,-0.6311758756637573,0.0948714017868042,0.1200593113899231,0.321188896894455,XArbitraryZVertical,0.6173446151098616,-0.1137225246745682,0.7325798176046607,-0.2632102196797604,-0.8446425199508667,0.4916044771671295,-0.2119056284427643,0,0,0,-1,-1,40316.83576216667,unknown,2,2025-04-22T17:42:45.863+03:00,2025-04-21T17:08:51.449+03:00,9088,1.06215,0,0,7575.567,7,22,2025-04-22T17:37:54.399+03:00,767025771.1229323,0,-12.43,100.3543,1,0.35,2025-04-22T17:38:44.006+03:00,78,1.3,2025-04-22T14:20:19.516+03:00,0.02197104130929222,0
2025-04-22T17:42:51.362+03:00,1745332968.627453,40.95219040362207,29.14025454703285,76.04306,-1,-1,-1,-1,30,13.67661289634224,-9999,40322.33060629167,-0.7517852783203125,0.51904296875,0.1383056640625,40322.32556829167,-2.861443972064513,-1.327236139818085,-0.5084996478282308,-0.2799470126628876,0.0828041285276413,-0.6384305953979492,0.09031057357788086,0.07587674260139465,0.3354176878929138,XArbitraryZVertical,0.6179934414217008,-0.1129633482238302,0.73334534312322,-0.2598611583429738,-0.8476956486701965,0.4868672788143158,-0.210646778345108,0,0,0,-1,-1,40316.83576216667,unknown,2,2025-04-22T17:42:45.863+03:00,2025-04-21T17:08:51.449+03:00,9088,1.06215,0,0,7575.567,7,22,2025-04-22T17:37:54.399+03:00,767025771.1229323,0,-12.43,100.3543,1,0.35,2025-04-22T17:38:44.006+03:00,78,1.3,2025-04-22T14:20:19.516+03:00,0.02197104130929222,0
2025-04-22T17:42:51.372+03:00,1745332968.627453,40.95219040362207,29.14025454703285,76.04306,-1,-1,-1,-1,30,13.67661289634224,-9999,40322.34068129167,-0.7497100830078125,0.4951934814453125,0.119140625,40322.33564429167,-2.865982315412919,-1.328040692498909,-0.5029304266891,-0.2220843136310577,0.1974222511053085,-0.6214073300361633,0.09558576345443726,0.04568418860435486,0.3509480953216553,XArbitraryZVertical,0.618164297099822,-0.1120994503195311,0.7344562816782206,-0.2566719546451837,-0.8504837155342102,0.481995165348053,-0.2106132358312607,0,0,0,-1,-1,40316.83576216667,unknown,2,2025-04-22T17:42:45.863+03:00,2025-04-21T17:08:51.449+03:00,9088,1.06215,0,0,7575.567,7,22,2025-04-22T17:37:54.399+03:00,767025771.1229323,0,-12.43,100.3543,1,0.35,2025-04-22T17:38:44.006+03:00,78,1.3,2025-04-22T14:20:19.516+03:00,0.02197104130929222,0
2025-04-22T17:42:51.382+03:00,1745332968.627453,40.95219040362207,29.14025454703285,76.04306,-1,-1,-1,-1,30,13.67661289634224,-9999,40322.35075729167,-0.746795654296875,0.4692230224609375,0.1035919189453125,40322.34571929167,-2.869888023216763,-1.327384119987566,-0.4974791401447936,-0.1845110952854156,0.3028045892715454,-0.5941677093505859,0.1038440465927124,0.02851021289825439,0.3389377593994141,XArbitraryZVertical,0.6178329025626578,-0.1112728343257067,0.7359058049282104,-0.253660095039363,-0.8528826832771301,0.4772117435932159,-0.2118017226457596,0,0,0,-1,-1,40316.83576216667,unknown,2,2025-04-22T17:42:45.863+03:00,2025-04-21T17:08:51.449+03:00,9088,1.06215,0,0,7575.567,7,22,2025-04-22T17:37:54.399+03:00,767025771.1229323,0,-12.43,100.3543,1,0.35,2025-04-22T17:38:44.006+03:00,78,1.3,2025-04-22T14:20:19.516+03:00,0.02197104130929222,0
2025-04-22T17:42:51.392+03:00,1745332968.627453,40.95219040362207,29.14025454703285,76.04306,-1,-1,-1,-1,30,13.67661289634224,-9999,40322.36083229167,-0.7370147705078125,0.44818115234375,0.1014556884765625,40322.35579429167,-2.873552880864419,-1.325566862273485,-0.4922505018358199,-0.1904504746198654,0.4070143699645996,-0.5663383603096008,0.1051494479179382,0.006301850080490112,0.3216199278831482,XArbitraryZVertical,0.6170820996236409,-0.110601223489992,0.7376387669336357,-0.2507307264025868,-0.8549051284790039,0.4726103842258453,-0.2139541059732437,0,0,0,-1,-1,40316.83576216667,unknown,2,2025-04-22T17:42:45.863+03:00,2025-04-21T17:08:51.449+03:00,9088,1.06215,0,0,7575.567,7,22,2025-04-22T17:37:54.399+03:00,767025771.1229323,0,-12.43,100.3543,1,0.35,2025-04-22T17:38:44.006+03:00,78,1.3,2025-04-22T14:20:19.516+03:00,0.02197104130929222,0
2025-04-22T17:42:51.402+03:00,1745332968.627453,40.95219040362207,29.14025454703285,76.04306,-1,-1,-1,-1,30,13.67661289634224,-9999,40322.37090829167,-0.7328948974609375,0.4290008544921875,0.097381591796875,40322.36587029167,-2.877361928388126,-1.322667193508522,-0.4874046902552394,-0.2295355647802353,0.5230051875114441,-0.5285432934761047,0.1154634952545166,-0.01261547207832336,0.3186001181602478,XArbitraryZVertical,0.6159128494216791,-0.1102512287310185,0.7396583378878341,-0.2477930910153592,-0.8564911484718323,0.4683343768119812,-0.216992050409317,0,0,0,-1,-1,40316.83576216667,unknown,2,2025-04-22T17:42:45.863+03:00,2025-04-21T17:08:51.449+03:00,9088,1.06215,0,0,7575.567,7,22,2025-04-22T17:37:54.399+03:00,767025771.1229323,0,-12.43,100.3543,1,0.35,2025-04-22T17:38:44.006+03:00,78,1.3,2025-04-22T14:20:19.516+03:00,0.02197104130929222,0
2025-04-22T17:42:51.412+03:00,1745332968.627453,40.95219040362207,29.14025454703285,76.04306,-1,-1,-1,-1,30,13.67661289634224,-9999,40322.38098329167,-0.7275238037109375,0.408294677734375,0.110443115234375,40322.37594529167,-2.882011855355392,-1.318929368325254,-0.4832010110005218,-0.3662696480751038,0.6523389220237732,-0.483936607837677,0.1236408352851868,-0.02896249294281006,0.3202288150787354,XArbitraryZVertical,0.6143684729952782,-0.1105036414110446,0.741939380256149,-0.2446757053479142,-0.8575732111930847,0.4646160900592804,-0.2206806540489197,0,0,0,-1,-1,40316.83576216667,unknown,2,2025-04-22T17:42:45.863+03:00,2025-04-21T17:08:51.449+03:00,9088,1.06215,0,0,7575.567,7,22,2025-04-22T17:37:54.399+03:00,767025771.1229323,0,-12.43,100.3543,1,0.35,2025-04-22T17:38:44.006+03:00,78,1.3,2025-04-22T14:20:19.516+03:00,0.02197104130929222,0
2025-04-22T17:42:51.422+03:00,1745332968.627453,40.95219040362207,29.14025454703285,76.04306,-1,-1,-1,-1,30,13.67661289634224,-9999,40322.39105929167,-0.7287445068359375,0.383270263671875,0.1809234619140625,40322.38602129167,-2.88830807086937,-1.314384054557308,-0.4798621686068196,-0.5253581404685974,0.8349870443344116,-0.4296603202819824,0.1287023425102234,-0.04594653844833374,0.3237842321395874,XArbitraryZVertical,0.6124071610506785,-0.1116836402004447,0.7445372292124474,-0.2411399458952088,-0.8580570816993713,0.461656928062439,-0.2249684631824493,0,0,0,-1,-1,40316.83576216667,unknown,2,2025-04-22T17:42:45.863+03:00,2025-04-21T17:08:51.449+03:00,9088,1.06215,0,0,7575.567,7,22,2025-04-22T17:37:54.399+03:00,767025771.1229323,0,-12.43,100.3543,1,0.35,2025-04-22T17:38:44.006+03:00,78,1.3,2025-04-22T14:20:19.516+03:00,0.02197104130929222,0
2025-04-22T17:42:51.433+03:00,1745332968.627453,40.95219040362207,29.14025454703285,76.04306,-1,-1,-1,-1,30,13.67661289634224,-9999,40322.40113429167,-0.73016357421875,0.3701324462890625,0.254180908203125,40322.39609629167,-2.89559475484419,-1.308278713499431,-0.4775815512722208,-0.586860179901123,1.054688692092896,-0.33104208111763,0.130860447883606,-0.06754288077354431,0.3810033798217773,XArbitraryZVertical,0.6097732445878449,-0.1137487368585766,0.7475712881321992,-0.2374342417763098,-0.8576822280883789,0.4596326649188995,-0.2304756343364716,0,0,0,-1,-1,40316.83576216667,unknown,2,2025-04-22T17:42:45.863+03:00,2025-04-21T17:08:51.449+03:00,9088,1.06215,0,0,7575.567,7,22,2025-04-22T17:37:54.399+03:00,767025771.1229323,0,-12.43,100.3543,1,0.35,2025-04-22T17:38:44.006+03:00,78,1.3,2025-04-22T14:20:19.516+03:00,0.02197104130929222,0
2025-04-22T17:42:51.443+03:00,1745332968.627453,40.95219040362207,29.14025454703285,76.04306,-1,-1,-1,-1,30,13.67661289634224,-9999,40322.41121029167,-0.7256011962890625,0.3686370849609375,0.2813568115234375,40322.40617229167,-2.902674774745319,-1.299665970136856,-0.4764122182452373,-0.5528923869132996,1.301935195922852,-0.220106765627861,0.1255460977554321,-0.0856843888759613,0.4690155982971191,XArbitraryZVertical,0.6061672708419056,-0.1164575688985526,0.7511744232411656,-0.2339568510740983,-0.8561826348304749,0.458593875169754,-0.237997755408287,0,0,0,-1,-1,40316.83576216667,unknown,2,2025-04-22T17:42:45.863+03:00,2025-04-21T17:08:51.449+03:00,9088,1.06215,0,0,7575.567,7,22,2025-04-22T17:37:54.399+03:00,767025771.1229323,0,-12.43,100.3543,1,0.35,2025-04-22T17:38:44.006+03:00,78,1.3,2025-04-22T14:20:19.516+03:00,0.02197104130929222,0
2025-04-22T17:42:51.453+03:00,1745332968.627453,40.95219040362207,29.14025454703285,76.04306,-1,-1,-1,-1,30,13.67661289634224,-9999,40322.42128529167,-0.734619140625,0.352020263671875,0.279022216796875,40322.41624729167,-2.909258402261046,-1.288133616247297,-0.4764086399826331,-0.5710004568099976,1.602157473564148,-0.08896278589963913,0.1264997720718384,-0.08890083432197571,0.5247875452041626,XArbitraryZVertical,0.6014348515361427,-0.1197837068763425,0.7554214794995292,-0.2307950025360134,-0.8533826470375061,0.4585906863212585,-0.2478559613227844,0,0,0,-1,-1,40316.83576216667,unknown,2,2025-04-22T17:42:45.863+03:00,2025-04-21T17:08:51.449+03:00,9088,1.06215,0,0,7575.567,7,22,2025-04-22T17:37:54.399+03:00,767025771.1229323,0,-12.43,100.3543,1,0.35,2025-04-22T17:38:44.006+03:00,78,1.3,2025-04-22T14:20:19.516+03:00,0.02197104130929222,0
2025-04-22T17:42:51.463+03:00,1745332968.627453,40.95219040362207,29.14025454703285,76.04306,-1,-1,-1,-1,30,13.67661289634224,-9999,40322.43136129167,-0.7472991943359375,0.323577880859375,0.3156585693359375,40322.42632329167,-2.914900675497716,-1.272483576742447,-0.4780689594215985,-0.4308694005012512,2.019196510314941,0.130909651517868,0.1198344826698303,-0.0995156466960907,0.5396427512168884,XArbitraryZVertical,0.5951174747327486,-0.1239233438403667,0.7605389220846005,-0.2281637250529904,-0.8486703634262085,0.460065484046936,-0.2609564065933228,0,0,0,-1,-1,40316.83576216667,unknown,2,2025-04-22T17:42:45.863+03:00,2025-04-21T17:08:51.449+03:00,9088,1.06215,0,0,7575.567,7,22,2025-04-22T17:37:54.399+03:00,767025771.1229323,0,-12.43,100.3543,1,0.35,2025-04-22T17:38:44.006+03:00,78,1.3,2025-04-22T14:20:19.516+03:00,0.02197104130929222,0
2025-04-22T17:42:51.473+03:00,1745332968.627453,40.95219040362207,29.14025454703285,76.04306,-1,-1,-1,-1,30,13.67661289634224,-9999,40322.44143629167,-0.728790283203125,0.3209228515625,0.326171875,40322.43639829167,-2.91683744318861,-1.250899592559109,-0.4810665065000132,-0.08952959626913071,2.452426910400391,0.3235523700714111,0.09700578451156616,-0.1298086941242218,0.5763994455337524,XArbitraryZVertical,0.5866778689222203,-0.128142896711897,0.7667539748286725,-0.2268849413732716,-0.8415277600288391,0.462724894285202,-0.2787769436836243,0,0,0,-1,-1,40316.83576216667,unknown,2,2025-04-22T17:42:45.863+03:00,2025-04-21T17:08:51.449+03:00,9088,1.06215,0,0,7575.567,7,22,2025-04-22T17:37:54.399+03:00,767025771.1229323,0,-12.43,100.3543,1,0.35,2025-04-22T17:38:44.006+03:00,78,1.3,2025-04-22T14:20:19.516+03:00,0.02197104130929222,0
2025-04-22T17:42:51.483+03:00,1745332968.627453,40.95219040362207,29.14025454703285,76.04306,-1,-1,-1,-1,30,13.67661289634224,-9999,40322.45151229167,-0.6982269287109375,0.4147186279296875,0.38055419921875,40322.44647429167,-2.915298646632529,-1.222723467715051,-0.4851509653562359,0.08821403235197067,2.996210336685181,0.5308831930160522,0.09297001361846924,-0.150942862033844,0.6312098503112793,XArbitraryZVertical,0.5758235366598166,-0.1325284279345133,0.7742432672328556,-0.2267391020768601,-0.8315562605857849,0.4663419127464294,-0.3017269372940063,0,0,0,-1,-1,40316.83576216667,unknown,2,2025-04-22T17:42:45.863+03:00,2025-04-21T17:08:51.449+03:00,9088,1.06215,0,0,7575.567,7,22,2025-04-22T17:37:54.399+03:00,767025771.1229323,0,-12.43,100.3543,1,0.35,2025-04-22T17:38:44.006+03:00,78,1.3,2025-04-22T14:20:19.516+03:00,0.02197104130929222,0
2025-04-22T17:42:51.493+03:00,1745332968.627453,40.95219040362207,29.14025454703285,76.04306,-1,-1,-1,-1,30,13.67661289634224,-9999,40322.46158729167,-0.6431884765625,0.5581207275390625,0.429351806640625,40322.45654929167,-2.910548158181214,-1.188206048831862,-0.4896767249100166,0.3239723145961761,3.416296720504761,0.5895990133285522,0.1089346408843994,-0.1047706305980682,0.6745002269744873,XArbitraryZVertical,0.5626045841110406,-0.1369283832740198,0.782939057460268,-0.2274487943199144,-0.8186818361282349,0.4703406393527985,-0.3294534087181091,0,0,0,-1,-1,40316.83576216667,unknown,2,2025-04-22T17:42:45.863+03:00,2025-04-21T17:08:51.449+03:00,9088,1.06215,0,0,7575.567,7,22,2025-04-22T17:37:54.399+03:00,767025771.1229323,0,-12.43,100.3543,1,0.35,2025-04-22T17:38:44.006+03:00,78,1.3,2025-04-22T14:20:19.516+03:00,0.02197104130929222,0
2025-04-22T17:42:51.503+03:00,1745332968.627453,40.95219040362207,29.14025454703285,76.04306,-1,-1,-1,-1,30,13.67661289634224,-9999,40322.47166329167,-0.6066131591796875,0.6471710205078125,0.3602752685546875,40322.46662529167,-2.904509627513002,-1.148866192026879,-0.4935336509102511,0.326304703950882,3.816906213760376,0.5089137554168701,0.1363160610198975,0.03530758619308472,0.7916510701179504,XArbitraryZVertical,0.547453255272019,-0.141312449318805,0.7926598649413377,-0.2280700528557967,-0.8034301996231079,0.4737407863140106,-0.3606514632701874,0,0,0,-1,-1,40316.83576216667,unknown,2,2025-04-22T17:42:45.863+03:00,2025-04-21T17:08:51.449+03:00,9088,1.06215,0,0,7575.567,7,22,2025-04-22T17:37:54.399+03:00,767025771.1229323,0,-12.43,100.3543,1,0.35,2025-04-22T17:38:44.006+03:00,78,1.3,2025-04-22T14:20:19.516+03:00,0.02197104130929222,0
2025-04-22T17:42:51.513+03:00,1745332968.627453,40.95219040362207,29.14025454703285,76.04306,-1,-1,-1,-1,30,13.67661289634224,-9999,40322.48173829167,-0.631500244140625,0.6708526611328125,0.27197265625,40322.47670029167,-2.900835977918948,-1.106995237188018,-0.496574947691751,-0.05331539735198021,4.127878665924072,0.3049877285957336,0.1723695993423462,0.1415944397449493,0.7828152179718018,XArbitraryZVertical,0.5309633487931296,-0.1463493835997668,0.8031240589184307,-0.2272694949969661,-0.7863373756408691,0.4764169752597809,-0.3933195471763611,0,0,0,-1,-1,40316.83576216667,unknown,2,2025-04-22T17:42:45.863+03:00,2025-04-21T17:08:51.449+03:00,9088,1.06215,0,0,7575.567,7,22,2025-04-22T17:37:54.399+03:00,767025771.1229323,0,-12.43,100.3543,1,0.35,2025-04-22T17:38:44.006+03:00,78,1.3,2025-04-22T14:20:19.516+03:00,0.02197104130929222,0
2025-04-22T17:42:51.523+03:00,1745332968.627453,40.95219040362207,29.14025454703285,76.04306,-1,-1,-1,-1,30,13.67661289634224,-9999,40322.49181429167,-0.690948486328125,0.488616943359375,0.1767120361328125,40322.48677629167,-2.903712323392166,-1.0658115119039,-0.5006944541493283,-0.8183305263519287,4.303561210632324,0.1980972439050674,0.1526710391044617,0.1997593939304352,0.7326201796531677,XArbitraryZVertical,0.5140440721077173,-0.1534752185927004,0.8136531539924678,-0.2239921486904409,-0.7677526473999023,0.4800348579883575,-0.4244081079959869,0,0,0,-1,-1,40316.83576216667,unknown,2,2025-04-22T17:42:45.863+03:00,2025-04-21T17:08:51.449+03:00,9088,1.06215,0,0,7575.567,7,22,2025-04-22T17:37:54.399+03:00,767025771.1229323,0,-12.43,100.3543,1,0.35,2025-04-22T17:38:44.006+03:00,78,1.3,2025-04-22T14:20:19.516+03:00,0.02197104130929222,0
2025-04-22T17:42:51.533+03:00,1745332968.627453,40.95219040362207,29.14025454703285,76.04306,-1,-1,-1,-1,30,13.67661289634224,-9999,40322.50188929167,-0.71502685546875,0.216644287109375,0.134033203125,40322.49685129167,-2.915191830302475,-1.027410017704661,-0.508588821133366,-1.583300232887268,4.437911510467529,0.1753132045269012,0.07802438735961914,0.09435358643531799,0.6597118377685547,XArbitraryZVertical,0.497308777581972,-0.1639674047699654,0.8235626170903392,-0.218043922004519,-0.7476256489753723,0.4869451522827148,-0.4515973329544067,0,0,0,-1,-1,40316.83576216667,unknown,2,2025-04-22T17:42:45.863+03:00,2025-04-21T17:08:51.449+03:00,9088,1.06215,0,0,7575.567,7,22,2025-04-22T17:37:54.399+03:00,767025771.1229323,0,-12.43,100.3543,1,0.35,2025-04-22T17:38:44.006+03:00,78,1.3,2025-04-22T14:20:19.516+03:00,0.02197104130929222,0
2025-04-22T17:42:51.543+03:00,1745332968.627453,40.95219040362207,29.14025454703285,76.04306,-1,-1,-1,-1,30,13.67661289634224,-9999,40322.51196529167,-0.7272796630859375,0.0334930419921875,0.05706787109375,40322.50692729167,-2.931194586193191,-0.9863189865706713,-0.5201232406731406,-2.761921405792236,6.020362377166748,0.5766734480857849,0.01304787397384644,-0.1831138432025909,0.6245489716529846,XArbitraryZVertical,0.4787468747085397,-0.1772084947018547,0.8337339398492777,-0.2104427437647061,-0.7237105369567871,0.4969870746135712,-0.4787971675395966,0,0,0,-1,-1,40316.83576216667,unknown,2,2025-04-22T17:42:45.863+03:00,2025-04-21T17:08:51.449+03:00,9088,1.06215,0,0,7575.567,7,22,2025-04-22T17:37:54.399+03:00,767025771.1229323,0,-12.43,100.3543,1,0.35,2025-04-22T17:38:44.006+03:00,78,1.3,2025-04-22T14:20:19.516+03:00,0.02197104130929222,0
2025-04-22T17:42:51.553+03:00,1745332968.627453,40.95219040362207,29.14025454703285,76.04306,-1,-1,-1,-1,30,13.67661289634224,-9999,40322.52204029167,-0.444305419921875,0.516326904296875,-1.60491943359375,40322.51700229167,-2.945283097815229,-0.9610530677649506,-0.5286921030963605,1.443398594856262,0.2433631122112274,-1.370202779769897,-0.01332491636276245,-0.4203590750694275,0.5856418609619141,XArbitraryZVertical,0.4667465797668772,-0.1868482651919538,0.8399935019260181,-0.2040741137619118,-0.707866370677948,0.5044044256210327,-0.4944707155227661,0,0,0,-1,-1,40316.83576216667,unknown,2,2025-04-22T17:42:45.863+03:00,2025-04-21T17:08:51.449+03:00,9088,1.06215,0,0,7575.567,7,22,2025-04-22T17:37:54.399+03:00,767025771.1229323,0,-12.43,100.3543,1,0.35,2025-04-22T17:38:44.006+03:00,78,1.3,2025-04-22T14:20:19.516+03:00,0.02197104130929222,0
2025-04-22T17:42:51.563+03:00,1745332968.627453,40.95219040362207,29.14025454703285,76.04306,-1,-1,-1,-1,30,13.67661289634224,-9999,40322.53211629167,0.5992584228515625,2.904159545898438,-6.293258666992188,40322.52707829167,-2.938025268527229,-0.9670449257446684,-0.5070527688698468,2.784805774688721,-2.755476474761963,-0.6716631054878235,0.07931500673294067,-0.3264843821525574,0.09803217649459839,XArbitraryZVertical,0.4702741831840625,-0.1751890179203114,0.8407774784352998,-0.2030868331581493,-0.7196347117424011,0.4856029450893402,-0.4963020086288452,0,0,0,-1,-1,40316.83576216667,unknown,2,2025-04-22T17:42:45.863+03:00,2025-04-21T17:08:51.449+03:00,9088,1.06215,0,0,7575.567,7,22,2025-04-22T17:37:54.399+03:00,767025771.1229323,0,-12.43,100.3543,1,0.35,2025-04-22T17:38:44.006+03:00,78,1.3,2025-04-22T14:20:19.516+03:00,0.02197104130929222,0
2025-04-22T17:42:51.574+03:00,1745332968.627453,40.95219040362207,29.14025454703285,76.04306,-1,-1,-1,-1,30,13.67661289634224,-9999,40322.54219129167,1.288970947265625,2.445541381835938,-3.391510009765625,40322.53715329167,-2.9154211429182,-0.9898419538204759,-0.483503194285586,2.734000444412231,-3.636425733566284,-1.295375943183899,0.8741350769996643,1.383565902709961,-4.575016975402832,XArbitraryZVertical,0.4819785307655697,-0.1572926018814952,0.8361268987810105,-0.2093978128296143,-0.7401169538497925,0.4648836553096771,-0.4859114587306976,0,0,0,-1,-1,40316.83576216667,unknown,2,2025-04-22T17:42:45.863+03:00,2025-04-21T17:08:51.449+03:00,9088,1.06215,0,0,7575.567,7,22,2025-04-22T17:37:54.399+03:00,767025771.1229323,0,-12.43,100.3543,1,0.35,2025-04-22T17:38:44.006+03:00,78,1.3,2025-04-22T14:20:19.516+03:00,0.02197104130929222,0
2025-04-22T17:42:51.584+03:00,1745332968.627453,40.95219040362207,29.14025454703285,76.04306,-1,-1,-1,-1,30,13.67661289634224,-9999,40322.55226729167,-0.3023223876953125,-0.9285125732421875,-0.5881805419921875,40322.54722929167,-2.902641422450584,-1.017748282242312,-0.4620702620753201,1.608071208000183,-2.947300672531128,-0.879864513874054,2.038043975830078,2.979994297027588,-4.595582962036133,XArbitraryZVertical,0.4947036708931086,-0.1420192938960588,0.8307328372557504,-0.2120886180820914,-0.7616918087005615,0.4458022117614746,-0.4701975882053375,0,0,0,-1,-1,40316.83576216667,unknown,2,2025-04-22T17:42:45.863+03:00,2025-04-21T17:08:51.449+03:00,9088,1.06215,0,0,7575.567,7,22,2025-04-22T17:37:54.399+03:00,767025771.1229323,0,-12.43,100.3543,1,0.35,2025-04-22T17:38:44.006+03:00,78,1.3,2025-04-22T14:20:19.516+03:00,0.02197104130929222,0
2025-04-22T17:42:51.594+03:00,1745332968.627453,40.95219040362207,29.14025454703285,76.04306,-1,-1,-1,-1,30,13.67661289634224,-9999,40322.56234229167,-1.361236572265625,-1.013031005859375,0.19940185546875,40322.55730429167,-2.892856311920107,-1.034415831121134,-0.4520409315352822,0.8357722759246826,-1.12868070602417,0.008991301991045475,1.187121868133545,-0.4376874566078186,-0.8208795785903931,XArbitraryZVertical,0.5023204465800275,-0.1335087291964747,0.8268074554546238,-0.215032410042917,-0.7732271552085876,0.4368023872375488,-0.4596991837024689,0,0,0,-1,-1,40316.83576216667,unknown,2,2025-04-22T17:42:45.863+03:00,2025-04-21T17:08:51.449+03:00,9088,1.06215,0,0,7575.567,7,22,2025-04-22T17:37:54.399+03:00,767025771.1229323,0,-12.43,100.3543,1,0.35,2025-04-22T17:38:44.006+03:00,78,1.3,2025-04-22T14:20:19.516+03:00,0.02197104130929222,0
2025-04-22T17:42:51.604+03:00,1745332968.627453,40.95219040362207,29.14025454703285,76.04306,-1,-1,-1,-1,30,13.67661289634224,-9999,40322.57241829167,-1.8013916015625,-0.476776123046875,0.081756591796875,40322.56738029167,-2.887243284699581,-1.035663757752329,-0.4515362383131456,0.1255868375301361,0.1794315278530121,0.3568600714206696,-0.3317534923553467,-1.633797168731689,0.4917593002319336,XArbitraryZVertical,0.5032092340993747,-0.1317472785614102,0.825951023813528,-0.2173198617926098,-0.773989737033844,0.4363483190536499,-0.458846241235733,0,0,0,-1,-1,40316.83576216667,unknown,2,2025-04-22T17:42:45.863+03:00,2025-04-21T17:08:51.449+03:00,9088,1.06215,0,0,7575.567,7,22,2025-04-22T17:37:54.399+03:00,767025771.1229323,0,-12.43,100.3543,1,0.35,2025-04-22T17:38:44.006+03:00,78,1.3,2025-04-22T14:20:19.516+03:00,0.02197104130929222,0
2025-04-22T17:42:51.614+03:00,1745332968.627453,40.95219040362207,29.14025454703285,76.04306,-1,-1,-1,-1,30,13.67661289634224,-9999,40322.58249329167,-1.44097900390625,-0.069793701171875,-0.4358978271484375,40322.57745529167,-2.886595082919552,-1.031712576542605,-0.4567120651842589,-0.5322456955909729,0.4879927635192871,0.5344071388244629,-0.9150955677032471,-1.114720940589905,0.6693685054779053,XArbitraryZVertical,0.5016131751416749,-0.1342258913852011,0.8262123492328963,-0.2184964263132353,-0.7702222466468811,0.4409995377063751,-0.4607352614402771,0,0,0,-1,-1,40316.83576216667,unknown,2,2025-04-22T17:42:45.863+03:00,2025-04-21T17:08:51.449+03:00,9088,1.06215,0,0,7575.567,7,22,2025-04-22T17:37:54.399+03:00,767025771.1229323,0,-12.43,100.3543,1,0.35,2025-04-22T17:38:44.006+03:00,78,1.3,2025-04-22T14:20:19.516+03:00,0.02197104130929222,0
2025-04-22T17:42:51.624+03:00,1745332968.627453,40.95219040362207,29.14025454703285,76.04306,-1,-1,-1,-1,30,13.67661289634224,-9999,40322.59256929167,-0.8401947021484375,0.2110137939453125,-0.5807037353515625,40322.58753129167,-2.889752102408017,-1.028149888435467,-0.4636327914219623,-0.5408602356910706,0.4741730988025665,0.3241582810878754,-0.9149031043052673,-0.6325489282608032,0.2108362317085266,XArbitraryZVertical,0.4999109395340827,-0.1383634045381464,0.8265583128013969,-0.2185084187115803,-0.7659439444541931,0.4472003281116486,-0.461889237165451,0,0,0,-1,-1,40316.83576216667,unknown,2,2025-04-22T17:42:45.863+03:00,2025-04-21T17:08:51.449+03:00,9088,1.06215,0,0,7575.567,7,22,2025-04-22T17:37:54.399+03:00,767025771.1229323,0,-12.43,100.3543,1,0.35,2025-04-22T17:38:44.006+03:00,78,1.3,2025-04-22T14:20:19.516+03:00,0.02197104130929222,0
