loggingTime(txt),locationTimestamp_since1970(s),locationLatitude(WGS84),locationLongitude(WGS84),locationAltitude(m),locationSpeed(m/s),locationSpeedAccuracy(m/s),locationCourse(°),locationCourseAccuracy(°),locationVerticalAccuracy(m),locationHorizontalAccuracy(m),locationFloor(Z),accelerometerTimestamp_sinceReboot(s),accelerometerAccelerationX(G),accelerometerAccelerationY(G),accelerometerAccelerationZ(G),motionTimestamp_sinceReboot(s),motionYaw(rad),motionRoll(rad),motionPitch(rad),motionRotationRateX(rad/s),motionRotationRateY(rad/s),motionRotationRateZ(rad/s),motionUserAccelerationX(G),motionUserAccelerationY(G),motionUserAccelerationZ(G),motionAttitudeReferenceFrame(txt),motionQuaternionX(R),motionQuaternionY(R),motionQuaternionZ(R),motionQuaternionW(R),motionGravityX(G),motionGravityY(G),motionGravityZ(G),motionMagneticFieldX(µT),motionMagneticFieldY(µT),motionMagneticFieldZ(µT),motionHeading(°),motionMagneticFieldCalibrationAccuracy(Z),activityTimestamp_sinceReboot(s),activity(txt),activityActivityConfidence(Z),activityActivityStartDate(txt),pedometerStartDate(txt),pedometerNumberofSteps(N),pedometerAverageActivePace(s/m),pedometerCurrentPace(s/m),pedometerCurrentCadence(steps/s),pedometerDistance(m),pedometerFloorAscended(N),pedometerFloorDescended(N),pedometerEndDate(txt),altimeterTimestamp_sinceReboot(s),altimeterReset(bool),altimeterRelativeAltitude(m),altimeterPressure(kPa),batteryState(N),batteryLevel(R),heartRateBPMTimestamp(txt),heartRateBPM(N),heartRateBPS(R),heartRateVariabilityTimestamp(txt),heartRateVariability(ms),label
2025-04-30T12:11:54.431+03:00,1746004311.644837,40.95225006229428,29.14029629289345,76.41664,-1,-1,-1,-1,30,20.44752438444682,-9999,11935.66724475,-0.677581787109375,0.6034088134765625,-0.4366455078125,11935.65463275,2.848574592430857,-0.9912304586661183,-0.6783727970728574,0.03499412909150124,0.03345735743641853,0.0181187316775322,0.01666980981826782,0.03916007280349731,-0.001465827226638794,XArbitraryZVertical,0.400944960684596,-0.3550214283610386,0.8437697262149487,-0.03543411126987448,-0.6514506936073303,0.6275269389152527,-0.4264058470726013,0,0,0,-1,-1,11912.735939625,unknown,2,2025-04-30T12:11:31.479+03:00,2025-04-30T12:00:08.093+03:00,94,1.480054,0,0,78.64606,0,0,2025-04-30T12:11:34.059+03:00,767697112.2173975,0,2.07,100.9399,1,0.8,2025-04-30T12:11:47.395+03:00,111,1.85,2025-04-22T14:20:19.516+03:00,0.02197104130929222,0
2025-04-30T12:11:54.433+03:00,1746004311.644837,40.95225006229428,29.14029629289345,76.41664,-1,-1,-1,-1,30,20.44752438444682,-9999,11935.67732141667,-0.675079345703125,0.60845947265625,-0.433624267578125,11935.66470875,2.849001304733235,-0.9904285763216472,-0.6782631328616646,0.02862571179866791,0.06128925457596779,0.004123021848499775,0.02758520841598511,0.03692615032196045,-0.001119494438171387,XArbitraryZVertical,0.4006975617517413,-0.3549063766367754,0.843935209502134,-0.0354451384570313,-0.6511661410331726,0.6274415254592896,-0.4269658625125885,0,0,0,-1,-1,11912.735939625,unknown,2,2025-04-30T12:11:31.479+03:00,2025-04-30T12:00:08.093+03:00,94,1.480054,0,0,78.64606,0,0,2025-04-30T12:11:34.059+03:00,767697112.2173975,0,2.07,100.9399,1,0.8,2025-04-30T12:11:47.395+03:00,111,1.85,2025-04-22T14:20:19.516+03:00,0.02197104130929222,0
2025-04-30T12:11:54.434+03:00,1746004311.644837,40.95225006229428,29.14029629289345,76.41664,-1,-1,-1,-1,30,20.44752438444682,-9999,11935.68739741667,-0.632232666015625,0.6439208984375,-0.4281768798828125,11935.67478541667,2.849333213424154,-0.989751916264316,-0.6781090676909869,0.0332891084253788,0.03272651880979538,0.003140681423246861,-0.03799164295196533,-0.03271704912185669,-0.009735345840454102,XArbitraryZVertical,0.4004922317136214,-0.3547904108906937,0.8440822174141138,-0.03542766578683695,-0.6509579420089722,0.6273215413093567,-0.4274594783782959,0,0,0,-1,-1,11912.735939625,unknown,2,2025-04-30T12:11:31.479+03:00,2025-04-30T12:00:08.093+03:00,94,1.480054,0,0,78.64606,0,0,2025-04-30T12:11:34.059+03:00,767697112.2173975,0,2.07,100.9399,1,0.8,2025-04-30T12:11:47.395+03:00,111,1.85,2025-04-22T14:20:19.516+03:00,0.02197104130929222,0
2025-04-30T12:11:54.443+03:00,1746004311.644837,40.95225006229428,29.14029629289345,76.41664,-1,-1,-1,-1,30,20.44752438444682,-9999,11935.69747441667,-0.6516571044921875,0.6322479248046875,-0.426910400390625,11935.68486141667,2.849732559595752,-0.9892068518807479,-0.6779664506302939,0.04010360315442085,0.0311917420476675,-0.002137969946488738,-0.008883655071258545,-0.007108569145202637,-0.003670454025268555,XArbitraryZVertical,0.4003527540344009,-0.354663199023894,0.8442002829711684,-0.03546490717055967,-0.6507996320724487,0.6272104978561401,-0.4278633892536163,0,0,0,-1,-1,11912.735939625,unknown,2,2025-04-30T12:11:31.479+03:00,2025-04-30T12:00:08.093+03:00,94,1.480054,0,0,78.64606,0,0,2025-04-30T12:11:34.059+03:00,767697112.2173975,0,2.07,100.9399,1,0.8,2025-04-30T12:11:47.395+03:00,111,1.85,2025-04-22T14:20:19.516+03:00,0.02197104130929222,0
2025-04-30T12:11:54.453+03:00,1746004311.644837,40.95225006229428,29.14029629289345,76.41664,-1,-1,-1,-1,30,20.44752438444682,-9999,11935.70755041667,-0.6527862548828125,0.60968017578125,-0.4205780029296875,11935.69493841667,2.850067032239779,-0.9886428308254669,-0.6778272327266637,0.02745871618390083,0.03758658841252327,-0.005381267517805099,0.0175897479057312,0.01828372478485107,0.0006355643272399902,XArbitraryZVertical,0.4001932224779607,-0.3545506834335216,0.8443228928744883,-0.03547228881359167,-0.6506311297416687,0.6271020770072937,-0.428278386592865,0,0,0,-1,-1,11912.735939625,unknown,2,2025-04-30T12:11:31.479+03:00,2025-04-30T12:00:08.093+03:00,94,1.480054,0,0,78.64606,0,0,2025-04-30T12:11:34.059+03:00,767697112.2173975,0,2.07,100.9399,1,0.8,2025-04-30T12:11:47.395+03:00,111,1.85,2025-04-22T14:20:19.516+03:00,0.02197104130929222,0
2025-04-30T12:11:54.465+03:00,1746004311.644837,40.95225006229428,29.14029629289345,76.41664,-1,-1,-1,-1,30,20.44752438444682,-9999,11935.71762741667,-0.635406494140625,0.6166229248046875,-0.4123382568359375,11935.70501441667,2.850211833695989,-0.9882296148185836,-0.6775812169766983,0.0158233642578125,0.02740585803985596,-0.01052835863083601,-0.005606174468994141,-0.001452624797821045,0.002698183059692383,XArbitraryZVertical,0.4000785007894801,-0.354430814438626,0.8444304522591216,-0.03540062870609847,-0.6505827903747559,0.626910388469696,-0.428631991147995,0,0,0,-1,-1,11912.735939625,unknown,2,2025-04-30T12:11:31.479+03:00,2025-04-30T12:00:08.093+03:00,94,1.480054,0,0,78.64606,0,0,2025-04-30T12:11:34.059+03:00,767697112.2173975,0,2.07,100.9399,1,0.8,2025-04-30T12:11:47.395+03:00,111,1.85,2025-04-22T14:20:19.516+03:00,0.02197104130929222,0
2025-04-30T12:11:54.473+03:00,1746004311.644837,40.95225006229428,29.14029629289345,76.41664,-1,-1,-1,-1,30,20.44752438444682,-9999,11935.72770341667,-0.63787841796875,0.628204345703125,-0.413421630859375,11935.71509141667,2.850351834667652,-0.9878748452307429,-0.6772893284267394,0.0225256085395813,0.02723315171897411,-0.01133203413337469,0.003259837627410889,-0.01822352409362793,0.01012501120567322,XArbitraryZVertical,0.3999938436478228,-0.354292510951764,0.8445317276035065,-0.03532609311231685,-0.6505834460258484,0.6266829967498779,-0.4289634823799133,0,0,0,-1,-1,11912.735939625,unknown,2,2025-04-30T12:11:31.479+03:00,2025-04-30T12:00:08.093+03:00,94,1.480054,0,0,78.64606,0,0,2025-04-30T12:11:34.059+03:00,767697112.2173975,0,2.07,100.9399,1,0.8,2025-04-30T12:11:47.395+03:00,111,1.85,2025-04-22T14:20:19.516+03:00,0.02197104130929222,0
2025-04-30T12:11:54.483+03:00,1746004311.644837,40.95225006229428,29.14029629289345,76.41664,-1,-1,-1,-1,30,20.44752438444682,-9999,11935.73777941667,-0.6455535888671875,0.62152099609375,-0.4247283935546875,11935.72516741667,2.850457987706212,-0.9875416621156042,-0.6770202328221588,0.01105484087020159,0.03143402189016342,-0.01129102148115635,0.01677685976028442,-0.005364298820495605,0.0180029571056366,XArbitraryZVertical,0.3999091289824828,-0.3541696747642074,0.844626646106635,-0.03524670870507463,-0.6505811810493469,0.6264732480049133,-0.4292730689048767,0,0,0,-1,-1,11912.735939625,unknown,2,2025-04-30T12:11:31.479+03:00,2025-04-30T12:00:08.093+03:00,94,1.480054,0,0,78.64606,0,0,2025-04-30T12:11:34.059+03:00,767697112.2173975,0,2.07,100.9399,1,0.8,2025-04-30T12:11:47.395+03:00,111,1.85,2025-04-22T14:20:19.516+03:00,0.02197104130929222,0
2025-04-30T12:11:54.493+03:00,1746004311.644837,40.95225006229428,29.14029629289345,76.41664,-1,-1,-1,-1,30,20.44752438444682,-9999,11935.74785641667,-0.642059326171875,0.6123199462890625,-0.4323883056640625,11935.73524341667,2.850431487171824,-0.9872635941589543,-0.6769989441093635,-0.005646840669214725,0.02596528828144073,-0.009430371224880219,0.01056510210037231,0.001457750797271729,0.01343044638633728,XArbitraryZVertical,0.3997899284377472,-0.3541713610399998,0.8446851364630911,-0.03518108625413922,-0.6504729390144348,0.6264566779136658,-0.4294613301753998,0,0,0,-1,-1,11912.735939625,unknown,2,2025-04-30T12:11:31.479+03:00,2025-04-30T12:00:08.093+03:00,94,1.480054,0,0,78.64606,0,0,2025-04-30T12:11:34.059+03:00,767697112.2173975,0,2.07,100.9399,1,0.8,2025-04-30T12:11:47.395+03:00,111,1.85,2025-04-22T14:20:19.516+03:00,0.02197104130929222,0
2025-04-30T12:11:54.503+03:00,1746004311.644837,40.95225006229428,29.14029629289345,76.41664,-1,-1,-1,-1,30,20.44752438444682,-9999,11935.75793241667,-0.63787841796875,0.6133880615234375,-0.430877685546875,11935.74532041667,2.850279217246139,-0.9871204352607341,-0.6770735164357748,-0.0159588661044836,0.01788232661783695,-0.004272360354661942,0.004330635070800781,-0.008594870567321777,0.001504451036453247,XArbitraryZVertical,0.3996921851893724,-0.3542341003373167,0.8447081053537158,-0.03510945478029609,-0.6503725051879883,0.6265147924423218,-0.4295287132263184,0,0,0,-1,-1,11912.735939625,unknown,2,2025-04-30T12:11:31.479+03:00,2025-04-30T12:00:08.093+03:00,94,1.480054,0,0,78.64606,0,0,2025-04-30T12:11:34.059+03:00,767697112.2173975,0,2.07,100.9399,1,0.8,2025-04-30T12:11:47.395+03:00,111,1.85,2025-04-22T14:20:19.516+03:00,0.02197104130929222,0
2025-04-30T12:11:54.513+03:00,1746004311.644837,40.95225006229428,29.14029629289345,76.41664,-1,-1,-1,-1,30,20.44752438444682,-9999,11935.76800941667,-0.6397857666015625,0.6134796142578125,-0.427337646484375,11935.75539641667,2.850097718334066,-0.9871325681939124,-0.6770621189653506,-0.0130640110000968,0.007660582661628723,-0.001794422278180718,0.009865462779998779,-0.01543718576431274,-0.003092437982559204,XArbitraryZVertical,0.3996667491227572,-0.3542656081367809,0.844710096192463,-0.03503221842811975,-0.6503836512565613,0.6265059113502502,-0.4295247495174408,0,0,0,-1,-1,11912.735939625,unknown,2,2025-04-30T12:11:31.479+03:00,2025-04-30T12:00:08.093+03:00,94,1.480054,0,0,78.64606,0,0,2025-04-30T12:11:34.059+03:00,767697112.2173975,0,2.07,100.9399,1,0.8,2025-04-30T12:11:47.395+03:00,111,1.85,2025-04-22T14:20:19.516+03:00,0.02197104130929222,0
2025-04-30T12:11:54.523+03:00,1746004311.644837,40.95225006229428,29.14029629289345,76.41664,-1,-1,-1,-1,30,20.44752438444682,-9999,11935.77808541667,-0.6421966552734375,0.612518310546875,-0.4244384765625,11935.76547341667,2.849988769777284,-0.9871543025635572,-0.6771165908957707,-0.010012561455369,0.002677009208127856,0.004462408367544413,0.01305067539215088,-0.01312977075576782,0.0001704990863800049,XArbitraryZVertical,0.3996491186560109,-0.354308763989338,0.8447014909354829,-0.03500329322678161,-0.6503644585609436,0.6265483498573303,-0.4294917583465576,0,0,0,-1,-1,11912.735939625,unknown,2,2025-04-30T12:11:31.479+03:00,2025-04-30T12:00:08.093+03:00,94,1.480054,0,0,78.64606,0,0,2025-04-30T12:11:34.059+03:00,767697112.2173975,0,2.07,100.9399,1,0.8,2025-04-30T12:11:47.395+03:00,111,1.85,2025-04-22T14:20:19.516+03:00,0.02197104130929222,0
2025-04-30T12:11:54.533+03:00,1746004311.644837,40.95225006229428,29.14029629289345,76.41664,-1,-1,-1,-1,30,20.44752438444682,-9999,11935.78816241667,-0.641082763671875,0.6135711669921875,-0.4227294921875,11935.77554941667,2.849877236344316,-0.9871891782307046,-0.6772859852287982,-0.0208034235984087,0.002475940622389317,0.00263894209638238,0.009635388851165771,-0.01361274719238281,0.002256095409393311,XArbitraryZVertical,0.3996206683013433,-0.3543981069433195,0.844677489083846,-0.0350033956720846,-0.6502909064292908,0.6266803741455078,-0.4294106066226959,0,0,0,-1,-1,11912.735939625,unknown,2,2025-04-30T12:11:31.479+03:00,2025-04-30T12:00:08.093+03:00,94,1.480054,0,0,78.64606,0,0,2025-04-30T12:11:34.059+03:00,767697112.2173975,0,2.07,100.9399,1,0.8,2025-04-30T12:11:47.395+03:00,111,1.85,2025-04-22T14:20:19.516+03:00,0.02197104130929222,0
2025-04-30T12:11:54.544+03:00,1746004311.644837,40.95225006229428,29.14029629289345,76.41664,-1,-1,-1,-1,30,20.44752438444682,-9999,11935.79823841667,-0.6441650390625,0.6160888671875,-0.4225921630859375,11935.78562641667,2.84958305317722,-0.9873756106644218,-0.6774468405661962,-0.03139028698205948,0.000267914030700922,0.001537192380055785,0.00780022144317627,-0.01450103521347046,0.004566490650177002,XArbitraryZVertical,0.3996250295077525,-0.3545178798939354,0.8446273111004204,-0.03495119211185813,-0.6502867937088013,0.6268057227134705,-0.4292338192462921,0,0,0,-1,-1,11912.735939625,unknown,2,2025-04-30T12:11:31.479+03:00,2025-04-30T12:00:08.093+03:00,94,1.480054,0,0,78.64606,0,0,2025-04-30T12:11:34.059+03:00,767697112.2173975,0,2.07,100.9399,1,0.8,2025-04-30T12:11:47.395+03:00,111,1.85,2025-04-22T14:20:19.516+03:00,0.02197104130929222,0
2025-04-30T12:11:54.553+03:00,1746004311.644837,40.95225006229428,29.14029629289345,76.41664,-1,-1,-1,-1,30,20.44752438444682,-9999,11935.80831441667,-0.6500396728515625,0.6207122802734375,-0.42694091796875,11935.79570241667,2.84917148306923,-0.9876711384846886,-0.677610631253698,-0.03998643904924393,-0.001528921071439981,-0.001429968629963696,0.009168863296508789,-0.01284331083297729,0.006606578826904297,XArbitraryZVertical,0.399654185308066,-0.3546603706908164,0.8445571052166118,-0.03486945956332964,-0.6503279209136963,0.6269333362579346,-0.4289851188659668,0,0,0,-1,-1,11912.735939625,unknown,2,2025-04-30T12:11:31.479+03:00,2025-04-30T12:00:08.093+03:00,94,1.480054,0,0,78.64606,0,0,2025-04-30T12:11:34.059+03:00,767697112.2173975,0,2.07,100.9399,1,0.8,2025-04-30T12:11:47.395+03:00,111,1.85,2025-04-22T14:20:19.516+03:00,0.02197104130929222,0
2025-04-30T12:11:54.564+03:00,1746004311.644837,40.95225006229428,29.14029629289345,76.41664,-1,-1,-1,-1,30,20.44752438444682,-9999,11935.81839141667,-0.65093994140625,0.623779296875,-0.431610107421875,11935.80577841667,2.848689418565709,-0.988003980653716,-0.6778835482354822,-0.04145490750670433,0.0004615252837538719,-9.439326822757721e-05,0.004911541938781738,-0.01038569211959839,0.004785269498825073,XArbitraryZVertical,0.3996714261490298,-0.3548598761001613,0.8444683607133493,-0.03479113625752005,-0.6503278017044067,0.6271459460258484,-0.4286744296550751,0,0,0,-1,-1,11912.735939625,unknown,2,2025-04-30T12:11:31.479+03:00,2025-04-30T12:00:08.093+03:00,94,1.480054,0,0,78.64606,0,0,2025-04-30T12:11:34.059+03:00,767697112.2173975,0,2.07,100.9399,1,0.8,2025-04-30T12:11:47.395+03:00,111,1.85,2025-04-22T14:20:19.516+03:00,0.02197104130929222,0
2025-04-30T12:11:54.574+03:00,1746004311.644837,40.95225006229428,29.14029629289345,76.41664,-1,-1,-1,-1,30,20.44752438444682,-9999,11935.82846741667,-0.64862060546875,0.624603271484375,-0.4311065673828125,11935.81585541667,2.848199046157119,-0.9883543608033288,-0.6781126936306187,-0.03852662816643715,-0.002195643726736307,-0.008238006383180618,-0.0006888508796691895,-0.005254030227661133,-0.0006638765335083008,XArbitraryZVertical,0.399700567689861,-0.3550432576381978,0.8443811442334161,-0.03470188067892062,-0.6503579020500183,0.6273244023323059,-0.4283674955368042,0,0,0,-1,-1,11912.735939625,unknown,2,2025-04-30T12:11:31.479+03:00,2025-04-30T12:00:08.093+03:00,94,1.480054,0,0,78.64606,0,0,2025-04-30T12:11:34.059+03:00,767697112.2173975,0,2.07,100.9399,1,0.8,2025-04-30T12:11:47.395+03:00,111,1.85,2025-04-22T14:20:19.516+03:00,0.02197104130929222,0
2025-04-30T12:11:54.584+03:00,1746004311.644837,40.95225006229428,29.14029629289345,76.41664,-1,-1,-1,-1,30,20.44752438444682,-9999,11935.83854441667,-0.6496734619140625,0.6329803466796875,-0.427886962890625,11935.82593141667,2.847786785086481,-0.9886371352107747,-0.6782023136176095,-0.02517566829919815,-0.002715492155402899,-0.01268069259822369,8.720159530639648e-05,-0.003111302852630615,-0.004357695579528809,XArbitraryZVertical,0.3997343005196944,-0.3551565157387308,0.8443217771136942,-0.03459975260569443,-0.6504321098327637,0.6273941993713379,-0.4281526803970337,0,0,0,-1,-1,11912.735939625,unknown,2,2025-04-30T12:11:31.479+03:00,2025-04-30T12:00:08.093+03:00,94,1.480054,0,0,78.64606,0,0,2025-04-30T12:11:34.059+03:00,767697112.2173975,0,2.07,100.9399,1,0.8,2025-04-30T12:11:47.395+03:00,111,1.85,2025-04-22T14:20:19.516+03:00,0.02197104130929222,0
2025-04-30T12:11:54.594+03:00,1746004311.644837,40.95225006229428,29.14029629289345,76.41664,-1,-1,-1,-1,30,20.44752438444682,-9999,11935.84862041667,-0.650604248046875,0.6366729736328125,-0.4297027587890625,11935.83600841667,2.847526393259073,-0.9887435950894164,-0.6781340373214911,-0.01231879182159901,0.005944241769611835,-0.01795032247900963,0.00212174654006958,-0.001150786876678467,-0.001534759998321533,XArbitraryZVertical,0.3997424718162631,-0.3551794732341843,0.8443126824565603,-0.03449213288707428,-0.6505134701728821,0.6273410320281982,-0.4281069934368134,0,0,0,-1,-1,11912.735939625,unknown,2,2025-04-30T12:11:31.479+03:00,2025-04-30T12:00:08.093+03:00,94,1.480054,0,0,78.64606,0,0,2025-04-30T12:11:34.059+03:00,767697112.2173975,0,2.07,100.9399,1,0.8,2025-04-30T12:11:47.395+03:00,111,1.85,2025-04-22T14:20:19.516+03:00,0.02197104130929222,0
2025-04-30T12:11:54.604+03:00,1746004311.644837,40.95225006229428,29.14029629289345,76.41664,-1,-1,-1,-1,30,20.44752438444682,-9999,11935.85869741667,-0.649200439453125,0.6345977783203125,-0.429290771484375,11935.84608441667,2.847362115664017,-0.9887326795469005,-0.6779679678205401,0.0004334887198638171,0.01290707662701607,-0.02154345996677876,-0.0004051923751831055,0.007676005363464355,0.0004979968070983887,XArbitraryZVertical,0.3997317556039475,-0.3551462275065004,0.8443362872067358,-0.03438053075105449,-0.6505958437919617,0.6272116899490356,-0.4281713664531708,0,0,0,-1,-1,11912.735939625,unknown,2,2025-04-30T12:11:31.479+03:00,2025-04-30T12:00:08.093+03:00,94,1.480054,0,0,78.64606,0,0,2025-04-30T12:11:34.059+03:00,767697112.2173975,0,2.07,100.9399,1,0.8,2025-04-30T12:11:47.395+03:00,111,1.85,2025-04-22T14:20:19.516+03:00,0.02197104130929222,0
2025-04-30T12:11:54.614+03:00,1746004311.644837,40.95225006229428,29.14029629289345,76.41664,-1,-1,-1,-1,30,20.44752438444682,-9999,11935.86877341667,-0.652557373046875,0.626983642578125,-0.427825927734375,11935.85616141667,2.847310291927563,-0.9885818052453629,-0.6777486860969495,0.007182071916759014,0.02122452855110168,-0.01632546074688435,0.0004995465278625488,0.0089455246925354,-0.001418650150299072,XArbitraryZVertical,0.399689305196097,-0.3550716673579489,0.8443918962889779,-0.03427861884194239,-0.6506460905075073,0.6270408630371094,-0.4283451437950134,0,0,0,-1,-1,11912.735939625,unknown,2,2025-04-30T12:11:31.479+03:00,2025-04-30T12:00:08.093+03:00,94,1.480054,0,0,78.64606,0,0,2025-04-30T12:11:34.059+03:00,767697112.2173975,0,2.07,100.9399,1,0.8,2025-04-30T12:11:47.395+03:00,111,1.85,2025-04-22T14:20:19.516+03:00,0.02197104130929222,0
2025-04-30T12:11:54.624+03:00,1746004311.644837,40.95225006229428,29.14029629289345,76.41664,-1,-1,-1,-1,30,20.44752438444682,-9999,11935.87884941667,-0.653228759765625,0.6177215576171875,-0.426544189453125,11935.86623741667,2.847249234032696,-0.9883850277321958,-0.6775821999088026,-5.213872282183729e-05,0.02335345931351185,-0.01053361874073744,0.001128077507019043,0.006389617919921875,-0.0005617737770080566,XArbitraryZVertical,0.3996184848040885,-0.3550207885976341,0.8444509562801094,-0.0341774526862182,-0.6506490111351013,0.6269111633300781,-0.4285306036472321,0,0,0,-1,-1,11912.735939625,unknown,2,2025-04-30T12:11:31.479+03:00,2025-04-30T12:00:08.093+03:00,94,1.480054,0,0,78.64606,0,0,2025-04-30T12:11:34.059+03:00,767697112.2173975,0,2.07,100.9399,1,0.8,2025-04-30T12:11:47.395+03:00,111,1.85,2025-04-22T14:20:19.516+03:00,0.02197104130929222,0
2025-04-30T12:11:54.634+03:00,1746004311.644837,40.95225006229428,29.14029629289345,76.41664,-1,-1,-1,-1,30,20.44752438444682,-9999,11935.88892641667,-0.650909423828125,0.6114654541015625,-0.4319000244140625,11935.87631341667,2.84707103980876,-0.9882714146443078,-0.6775647997487849,-0.01888954266905785,0.02073337510228157,-0.00569495465606451,-0.002527832984924316,-0.002233266830444336,0.001013457775115967,XArbitraryZVertical,0.3995412982263986,-0.3550513843666561,0.8444786390672249,-0.03407782444479825,-0.6506094336509705,0.6268976330757141,-0.4286105334758759,0,0,0,-1,-1,11912.735939625,unknown,2,2025-04-30T12:11:31.479+03:00,2025-04-30T12:00:08.093+03:00,94,1.480054,0,0,78.64606,0,0,2025-04-30T12:11:34.059+03:00,767697112.2173975,0,2.07,100.9399,1,0.8,2025-04-30T12:11:47.395+03:00,111,1.85,2025-04-22T14:20:19.516+03:00,0.02197104130929222,0
2025-04-30T12:11:54.644+03:00,1746004311.644837,40.95225006229428,29.14029629289345,76.41664,-1,-1,-1,-1,30,20.44752438444682,-9999,11935.89900241667,-0.6464996337890625,0.612701416015625,-0.4362945556640625,11935.88639041667,2.846785803631437,-0.9882815480978469,-0.677662423163191,-0.03144288435578346,0.01392766647040844,-4.425935912877321e-05,-0.001750707626342773,-0.01176983118057251,0.001247823238372803,XArbitraryZVertical,0.3994814229209533,-0.3551471630456467,0.8444703682694702,-0.03398300779513776,-0.6505625247955322,0.6269736886024475,-0.4285701811313629,0,0,0,-1,-1,11912.735939625,unknown,2,2025-04-30T12:11:31.479+03:00,2025-04-30T12:00:08.093+03:00,94,1.480054,0,0,78.64606,0,0,2025-04-30T12:11:34.059+03:00,767697112.2173975,0,2.07,100.9399,1,0.8,2025-04-30T12:11:47.395+03:00,111,1.85,2025-04-22T14:20:19.516+03:00,0.02197104130929222,0
2025-04-30T12:11:54.655+03:00,1746004311.644837,40.95225006229428,29.14029629289345,76.41664,-1,-1,-1,-1,30,20.44752438444682,-9999,11935.90907941667,-0.6480865478515625,0.6207122802734375,-0.4337310791015625,11935.89646641667,2.846352688524631,-0.9884704239993662,-0.6778637230265435,-0.04484624043107033,0.005286840721964836,0.0002029151655733585,0.000834047794342041,-0.01575660705566406,-0.005322664976119995,XArbitraryZVertical,0.3994562624211758,-0.3553107945831561,0.8444174729584338,-0.03388254957597864,-0.6505380272865295,0.6271305084228516,-0.4283778667449951,0,0,0,-1,-1,11912.735939625,unknown,2,2025-04-30T12:11:31.479+03:00,2025-04-30T12:00:08.093+03:00,94,1.480054,0,0,78.64606,0,0,2025-04-30T12:11:34.059+03:00,767697112.2173975,0,2.07,100.9399,1,0.8,2025-04-30T12:11:47.395+03:00,111,1.85,2025-04-22T14:20:19.516+03:00,0.02197104130929222,0
2025-04-30T12:11:54.666+03:00,1746004311.644837,40.95225006229428,29.14029629289345,76.41664,-1,-1,-1,-1,30,20.44752438444682,-9999,11935.91915541667,-0.648406982421875,0.6319580078125,-0.4319305419921875,11935.90654341667,2.845893921506506,-0.9887049916849416,-0.678054043595409,-0.03596699610352516,0.0005807685665786266,-0.006091466173529625,0.004573225975036621,-0.01302093267440796,-0.0073414146900177,XArbitraryZVertical,0.3994472876042997,-0.3554743850222177,0.8443571312009852,-0.03377673194144827,-0.6505388021469116,0.6272786855697632,-0.4281596541404724,0,0,0,-1,-1,11912.735939625,unknown,2,2025-04-30T12:11:31.479+03:00,2025-04-30T12:00:08.093+03:00,94,1.480054,0,0,78.64606,0,0,2025-04-30T12:11:34.059+03:00,767697112.2173975,0,2.07,100.9399,1,0.8,2025-04-30T12:11:47.395+03:00,111,1.85,2025-04-22T14:20:19.516+03:00,0.02197104130929222,0
2025-04-30T12:11:54.675+03:00,1746004311.644837,40.95225006229428,29.14029629289345,76.41664,-1,-1,-1,-1,30,20.44752438444682,-9999,11935.92923241667,-0.65032958984375,0.638153076171875,-0.4285888671875,11935.91661941667,2.845529096225934,-0.9888965038657345,-0.6781432898099837,-0.02409009635448456,0.004020507447421551,-0.009407501667737961,0.002334892749786377,-0.003767251968383789,-0.004551827907562256,XArbitraryZVertical,0.3994508393083038,-0.3555796158074893,0.8443151280284057,-0.03367838226720546,-0.6505740880966187,0.6273481845855713,-0.4280043244361877,0,0,0,-1,-1,11912.735939625,unknown,2,2025-04-30T12:11:31.479+03:00,2025-04-30T12:00:08.093+03:00,94,1.480054,0,0,78.64606,0,0,2025-04-30T12:11:34.059+03:00,767697112.2173975,0,2.07,100.9399,1,0.8,2025-04-30T12:11:47.395+03:00,111,1.85,2025-04-22T14:20:19.516+03:00,0.02197104130929222,0
2025-04-30T12:11:54.685+03:00,1746004311.644837,40.95225006229428,29.14029629289345,76.41664,-1,-1,-1,-1,30,20.44752438444682,-9999,11935.93930841667,-0.6598358154296875,0.6353302001953125,-0.4273223876953125,11935.92669641667,2.845263707551606,-0.9890018270483987,-0.6781614298944596,-0.009608360007405281,0.01175006665289402,-0.01420145761221647,0.001897454261779785,0.007189691066741943,-0.003039658069610596,XArbitraryZVertical,0.3994455876426881,-0.3556380845186406,0.8442965275910899,-0.03358948159047109,-0.6506096720695496,0.6273623108863831,-0.427929550409317,0,0,0,-1,-1,11912.735939625,unknown,2,2025-04-30T12:11:31.479+03:00,2025-04-30T12:00:08.093+03:00,94,1.480054,0,0,78.64606,0,0,2025-04-30T12:11:34.059+03:00,767697112.2173975,0,2.07,100.9399,1,0.8,2025-04-30T12:11:47.395+03:00,111,1.85,2025-04-22T14:20:19.516+03:00,0.02197104130929222,0
2025-04-30T12:11:54.699+03:00,1746004311.644837,40.95225006229428,29.14029629289345,76.41664,-1,-1,-1,-1,30,20.44752438444682,-9999,11935.94938441667,-0.6667633056640625,0.6296844482421875,-0.432373046875,11935.93677241667,2.845165850620903,-0.9888448759288698,-0.6780717178441641,0.007018420845270157,0.02859442681074142,-0.01302720233798027,-0.001800119876861572,0.0113641619682312,0.0005265474319458008,XArbitraryZVertical,0.3993744394753236,-0.3556244799244609,0.8443394996891571,-0.03349849512113415,-0.6505894660949707,0.6272924542427063,-0.4280625581741333,0,0,0,-1,-1,11912.735939625,unknown,2,2025-04-30T12:11:31.479+03:00,2025-04-30T12:00:08.093+03:00,94,1.480054,0,0,78.64606,0,0,2025-04-30T12:11:34.059+03:00,767697112.2173975,0,2.07,100.9399,1,0.8,2025-04-30T12:11:47.395+03:00,111,1.85,2025-04-22T14:20:19.516+03:00,0.02197104130929222,0
2025-04-30T12:11:54.707+03:00,1746004311.644837,40.95225006229428,29.14029629289345,76.41664,-1,-1,-1,-1,30,20.44752438444682,-9999,11935.95946141667,-0.6599578857421875,0.6226043701171875,-0.4375762939453125,11935.94684841667,2.84522218129725,-0.988471896880629,-0.6779224280705899,0.01812087185680866,0.03486989811062813,-0.009981878101825714,-0.01149457693099976,0.006628155708312988,0.0004239678382873535,XArbitraryZVertical,0.3992477712756876,-0.3555599187563135,0.8444297493777345,-0.03341967150208386,-0.6505079865455627,0.6271762251853943,-0.4283567368984222,0,0,0,-1,-1,11912.735939625,unknown,2,2025-04-30T12:11:31.479+03:00,2025-04-30T12:00:08.093+03:00,94,1.480054,0,0,78.64606,0,0,2025-04-30T12:11:34.059+03:00,767697112.2173975,0,2.07,100.9399,1,0.8,2025-04-30T12:11:47.395+03:00,111,1.85,2025-04-22T14:20:19.516+03:00,0.02197104130929222,0
2025-04-30T12:11:54.715+03:00,1746004311.644837,40.95225006229428,29.14029629289345,76.41664,-1,-1,-1,-1,30,20.44752438444682,-9999,11935.96953741667,-0.65020751953125,0.618927001953125,-0.4399261474609375,11935.95692541667,2.845384506246691,-0.9879921677054653,-0.6777332063181238,0.01933187805116177,0.03789957612752914,-0.006050353404134512,-0.01611769199371338,0.0009619593620300293,-0.004905462265014648,XArbitraryZVertical,0.3991004086767708,-0.3554600347393012,0.844543942115068,-0.03335698803745055,-0.6504015326499939,0.6270288228988647,-0.4287340641021729,0,0,0,-1,-1,11912.735939625,unknown,2,2025-04-30T12:11:31.479+03:00,2025-04-30T12:00:08.093+03:00,94,1.480054,0,0,78.64606,0,0,2025-04-30T12:11:34.059+03:00,767697112.2173975,0,2.07,100.9399,1,0.8,2025-04-30T12:11:47.395+03:00,111,1.85,2025-04-22T14:20:19.516+03:00,0.02197104130929222,0
2025-04-30T12:11:54.725+03:00,1746004311.644837,40.95225006229428,29.14029629289345,76.41664,-1,-1,-1,-1,30,20.44752438444682,-9999,11935.97961441667,-0.6421966552734375,0.6177520751953125,-0.4333953857421875,11935.96700141667,2.845512918613332,-0.9875576942707537,-0.6775570126395148,0.01135624386370182,0.0326014868915081,-0.005402672570198774,-0.007483839988708496,-0.004943311214447021,-0.009689062833786011,XArbitraryZVertical,0.3989643013090751,-0.3553713499250298,0.8446480780486791,-0.03329131667327992,-0.650307297706604,0.626891553401947,-0.4290773868560791,0,0,0,-1,-1,11912.735939625,unknown,2,2025-04-30T12:11:31.479+03:00,2025-04-30T12:00:08.093+03:00,94,1.480054,0,0,78.64606,0,0,2025-04-30T12:11:34.059+03:00,767697112.2173975,0,2.07,100.9399,1,0.8,2025-04-30T12:11:47.395+03:00,111,1.85,2025-04-22T14:20:19.516+03:00,0.02197104130929222,0
2025-04-30T12:11:54.735+03:00,1746004311.644837,40.95225006229428,29.14029629289345,76.41664,-1,-1,-1,-1,30,20.44752438444682,-9999,11935.98969041667,-0.63568115234375,0.6179962158203125,-0.42877197265625,11935.97707841667,2.845578020653485,-0.987186287788936,-0.6774103054948204,0.003318024799227715,0.02624824829399586,-0.005264987237751484,0.002367019653320312,-0.008231699466705322,-0.01034292578697205,XArbitraryZVertical,0.3988394120168373,-0.3553059857085449,0.8447374805390113,-0.03321722326517437,-0.6502246260643005,0.6267772316932678,-0.4293695688247681,0,0,0,-1,-1,11912.735939625,unknown,2,2025-04-30T12:11:31.479+03:00,2025-04-30T12:00:08.093+03:00,94,1.480054,0,0,78.64606,0,0,2025-04-30T12:11:34.059+03:00,767697112.2173975,0,2.07,100.9399,1,0.8,2025-04-30T12:11:47.395+03:00,111,1.85,2025-04-22T14:20:19.516+03:00,0.02197104130929222,0
2025-04-30T12:11:54.745+03:00,1746004311.644837,40.95225006229428,29.14029629289345,76.41664,-1,-1,-1,-1,30,20.44752438444682,-9999,11935.99976641667,-0.634552001953125,0.622100830078125,-0.4273223876953125,11935.98715441667,2.845578345544383,-0.9869329233547827,-0.6773194212582931,-0.002539065200835466,0.01805210299789906,-0.006704692263156176,0.009324729442596436,-0.009488403797149658,-0.002883613109588623,XArbitraryZVertical,0.3987450816512385,-0.3552738433417239,0.8447981923824148,-0.03315027874191354,-0.6501634120941162,0.6267064213752747,-0.4295656979084015,0,0,0,-1,-1,11912.735939625,unknown,2,2025-04-30T12:11:31.479+03:00,2025-04-30T12:00:08.093+03:00,94,1.480054,0,0,78.64606,0,0,2025-04-30T12:11:34.059+03:00,767697112.2173975,0,2.07,100.9399,1,0.8,2025-04-30T12:11:47.395+03:00,111,1.85,2025-04-22T14:20:19.516+03:00,0.02197104130929222,0
2025-04-30T12:11:54.755+03:00,1746004311.644837,40.95225006229428,29.14029629289345,76.41664,-1,-1,-1,-1,30,20.44752438444682,-9999,11936.00984341667,-0.6365203857421875,0.6254730224609375,-0.423919677734375,11935.99723041667,2.845538832267154,-0.9867821437566408,-0.6772507299758341,0.0001339496520813555,0.01304802484810352,-0.007294049486517906,0.01570463180541992,-0.007741093635559082,0.0010986328125,XArbitraryZVertical,0.3986839099951237,-0.3552567920550069,0.8448366347166253,-0.03309010848289472,-0.6501345634460449,0.6266528964042664,-0.4296875,0,0,0,-1,-1,11912.735939625,unknown,2,2025-04-30T12:11:31.479+03:00,2025-04-30T12:00:08.093+03:00,94,1.480054,0,0,78.64606,0,0,2025-04-30T12:11:34.059+03:00,767697112.2173975,0,2.07,100.9399,1,0.8,2025-04-30T12:11:47.395+03:00,111,1.85,2025-04-22T14:20:19.516+03:00,0.02197104130929222,0
2025-04-30T12:11:54.765+03:00,1746004311.644837,40.95225006229428,29.14029629289345,76.41664,-1,-1,-1,-1,30,20.44752438444682,-9999,11936.01991941667,-0.6440887451171875,0.6237030029296875,-0.42413330078125,11936.00730741667,2.845463783912451,-0.9866956257189861,-0.677215925661095,-0.004351346287876368,0.0121390875428915,-0.009788366034626961,0.0151667594909668,-0.003533065319061279,0.004020273685455322,XArbitraryZVertical,0.3986388682333322,-0.3552592862706703,0.8448590237204544,-0.03303458872261039,-0.6501156091690063,0.6266257762908936,-0.4297557771205902,0,0,0,-1,-1,11912.735939625,unknown,2,2025-04-30T12:11:31.479+03:00,2025-04-30T12:00:08.093+03:00,94,1.480054,0,0,78.64606,0,0,2025-04-30T12:11:34.059+03:00,767697112.2173975,0,2.07,100.9399,1,0.8,2025-04-30T12:11:47.395+03:00,111,1.85,2025-04-22T14:20:19.516+03:00,0.02197104130929222,0
2025-04-30T12:11:54.775+03:00,1746004311.644837,40.95225006229428,29.14029629289345,76.41664,-1,-1,-1,-1,30,20.44752438444682,-9999,11936.02999641667,-0.6470794677734375,0.617919921875,-0.42938232421875,11936.01738341667,2.845291388006778,-0.9866818054213347,-0.677234631469421,-0.011684893630445,0.01298277638852596,-0.005161390174180269,0.01183998584747314,-0.00109100341796875,0.006189584732055664,XArbitraryZVertical,0.3985997964449635,-0.3553013403107079,0.8448625590782086,-0.03296382531781468,-0.6500999331474304,0.6266403198242188,-0.4297583103179932,0,0,0,-1,-1,11912.735939625,unknown,2,2025-04-30T12:11:31.479+03:00,2025-04-30T12:00:08.093+03:00,94,1.480054,0,0,78.64606,0,0,2025-04-30T12:11:34.059+03:00,767697112.2173975,0,2.07,100.9399,1,0.8,2025-04-30T12:11:47.395+03:00,111,1.85,2025-04-22T14:20:19.516+03:00,0.02197104130929222,0
2025-04-30T12:11:54.785+03:00,1746004311.644837,40.95225006229428,29.14029629289345,76.41664,-1,-1,-1,-1,30,20.44752438444682,-9999,11936.04007241667,-0.6480712890625,0.614501953125,-0.4330902099609375,11936.02746041667,2.845054316299031,-0.9867106460222396,-0.6772673423961478,-0.01856277324259281,0.01407413929700851,-0.005411727353930473,0.004831433296203613,-0.004244625568389893,0.004023224115371704,XArbitraryZVertical,0.3985653523201423,-0.3553611807603776,0.8448569066286478,-0.03287684560783494,-0.6500950455665588,0.6266658306121826,-0.4297281801700592,0,0,0,-1,-1,11912.735939625,unknown,2,2025-04-30T12:11:31.479+03:00,2025-04-30T12:00:08.093+03:00,94,1.480054,0,0,78.64606,0,0,2025-04-30T12:11:34.059+03:00,767697112.2173975,0,2.07,100.9399,1,0.8,2025-04-30T12:11:47.395+03:00,111,1.85,2025-04-22T14:20:19.516+03:00,0.02197104130929222,0
2025-04-30T12:11:54.796+03:00,1746004311.644837,40.95225006229428,29.14029629289345,76.41664,-1,-1,-1,-1,30,20.44752438444682,-9999,11936.05014941667,-0.6441650390625,0.6166534423828125,-0.4358673095703125,11936.03753641667,2.844833288250784,-0.9867330398665173,-0.6772808473015557,-0.01747913286089897,0.01115451660007238,-0.003753643250092864,0.00222468376159668,-0.01020604372024536,-0.0006957054138183594,XArbitraryZVertical,0.3985336423845098,-0.3554102456190472,0.8448546171907437,-0.03279069354605359,-0.650097668170929,0.6266763806343079,-0.4297089874744415,0,0,0,-1,-1,11912.735939625,unknown,2,2025-04-30T12:11:31.479+03:00,2025-04-30T12:00:08.093+03:00,94,1.480054,0,0,78.64606,0,0,2025-04-30T12:11:34.059+03:00,767697112.2173975,0,2.07,100.9399,1,0.8,2025-04-30T12:11:47.395+03:00,111,1.85,2025-04-22T14:20:19.516+03:00,0.02197104130929222,0
2025-04-30T12:11:54.806+03:00,1746004311.644837,40.95225006229428,29.14029629289345,76.41664,-1,-1,-1,-1,30,20.44752438444682,-9999,11936.06022541667,-0.6439208984375,0.61932373046875,-0.4369964599609375,11936.04761341667,2.84463517330193,-0.9867450860166074,-0.6772938679287985,-0.01571105979382992,0.00899282842874527,-0.004537944216281176,0.003504812717437744,-0.01197093725204468,-0.003988653421401978,XArbitraryZVertical,0.3985017233131154,-0.3554547251059277,0.8448539602243008,-0.03271233704339577,-0.6500959992408752,0.6266865134239197,-0.4296966195106506,0,0,0,-1,-1,11912.735939625,unknown,2,2025-04-30T12:11:31.479+03:00,2025-04-30T12:00:08.093+03:00,94,1.480054,0,0,78.64606,0,0,2025-04-30T12:11:34.059+03:00,767697114.7967689,0,2.14,100.9397,1,0.8,2025-04-30T12:11:47.395+03:00,111,1.85,2025-04-22T14:20:19.516+03:00,0.02197104130929222,0
2025-04-30T12:11:54.816+03:00,1746004311.644837,40.95225006229428,29.14029629289345,76.41664,-1,-1,-1,-1,30,20.44752438444682,-9999,11936.07030141667,-0.6421661376953125,0.6200408935546875,-0.434600830078125,11936.05768941667,2.844514342155191,-0.9867086112720489,-0.6772717707921138,-0.01038174144923687,0.007408580742776394,-0.006641541607677937,0.005820035934448242,-0.00906980037689209,-0.007085353136062622,XArbitraryZVertical,0.3984679215203282,-0.3554705768254627,0.8448656529195114,-0.03264946379639201,-0.6500918865203857,0.6266692876815796,-0.4297279715538025,0,0,0,-1,-1,11912.735939625,unknown,2,2025-04-30T12:11:31.479+03:00,2025-04-30T12:00:08.093+03:00,94,1.480054,0,0,78.64606,0,0,2025-04-30T12:11:34.059+03:00,767697114.7967689,0,2.14,100.9397,1,0.8,2025-04-30T12:11:47.395+03:00,111,1.85,2025-04-22T14:20:19.516+03:00,0.02197104130929222,0
2025-04-30T12:11:54.826+03:00,1746004311.644837,40.95225006229428,29.14029629289345,76.41664,-1,-1,-1,-1,30,20.44752438444682,-9999,11936.08037841667,-0.64227294921875,0.621337890625,-0.435150146484375,11936.06776541667,2.844388782669464,-0.9866870426532182,-0.6772533814636881,-0.009515082463622093,0.00697641633450985,-0.008062970824539661,0.00553053617477417,-0.006369888782501221,-0.006027340888977051,XArbitraryZVertical,0.3984390060170065,-0.3554885914659436,0.844874221097492,-0.0325880062477201,-0.6500923633575439,0.6266549825668335,-0.4297484457492828,0,0,0,-1,-1,11912.735939625,unknown,2,2025-04-30T12:11:31.479+03:00,2025-04-30T12:00:08.093+03:00,94,1.480054,0,0,78.64606,0,0,2025-04-30T12:11:34.059+03:00,767697114.7967689,0,2.14,100.9397,1,0.8,2025-04-30T12:11:47.395+03:00,111,1.85,2025-04-22T14:20:19.516+03:00,0.02197104130929222,0
2025-04-30T12:11:54.836+03:00,1746004311.644837,40.95225006229428,29.14029629289345,76.41664,-1,-1,-1,-1,30,20.44752438444682,-9999,11936.09045441667,-0.644683837890625,0.6195526123046875,-0.4331207275390625,11936.07784241667,2.844271394245088,-0.986669186482015,-0.6772471042399439,-0.008344090543687344,0.006921289023011923,-0.005115251056849957,0.008074343204498291,-0.005876719951629639,-0.005555808544158936,XArbitraryZVertical,0.3984114784562331,-0.3555097636178308,0.8448803656591829,-0.032533737968976,-0.6500879526138306,0.6266500949859619,-0.429762214422226,0,0,0,-1,-1,11912.735939625,unknown,2,2025-04-30T12:11:31.479+03:00,2025-04-30T12:00:08.093+03:00,94,1.480054,0,0,78.64606,0,0,2025-04-30T12:11:34.059+03:00,767697114.7967689,0,2.14,100.9397,1,0.8,2025-04-30T12:11:47.395+03:00,111,1.85,2025-04-22T14:20:19.516+03:00,0.02197104130929222,0
2025-04-30T12:11:54.846+03:00,1746004311.644837,40.95225006229428,29.14029629289345,76.41664,-1,-1,-1,-1,30,20.44752438444682,-9999,11936.10053141667,-0.64697265625,0.6205596923828125,-0.4319610595703125,11936.08791841667,2.844120288785642,-0.9866512929820729,-0.6772826654580995,-0.01282326132059097,0.01001268625259399,-0.00596453296020627,0.007590353488922119,-0.005461931228637695,-0.004412055015563965,XArbitraryZVertical,0.3983721011305068,-0.3555543471523279,0.8448824255374506,-0.03247534327798626,-0.6500616669654846,0.6266777515411377,-0.4297615587711334,0,0,0,-1,-1,11912.735939625,unknown,2,2025-04-30T12:11:31.479+03:00,2025-04-30T12:00:08.093+03:00,94,1.480054,0,0,78.64606,0,0,2025-04-30T12:11:34.059+03:00,767697114.7967689,0,2.14,100.9397,1,0.8,2025-04-30T12:11:47.395+03:00,111,1.85,2025-04-22T14:20:19.516+03:00,0.02197104130929222,0
2025-04-30T12:11:54.856+03:00,1746004311.644837,40.95225006229428,29.14029629289345,76.41664,-1,-1,-1,-1,30,20.44752438444682,-9999,11936.11060741667,-0.6468963623046875,0.6252593994140625,-0.4324493408203125,11936.09799541667,2.843937450924947,-0.9866204505389414,-0.6773471353772632,-0.01226206682622433,0.01624162122607231,-0.005838665645569563,0.004827260971069336,-0.007495760917663574,-0.003025710582733154,XArbitraryZVertical,0.3983175884211189,-0.3556169970921694,0.8448843105380659,-0.03240827997502594,-0.6500146985054016,0.6267279982566833,-0.429759293794632,0,0,0,-1,-1,11912.735939625,unknown,2,2025-04-30T12:11:31.479+03:00,2025-04-30T12:00:08.093+03:00,94,1.480054,0,0,78.64606,0,0,2025-04-30T12:11:34.059+03:00,767697114.7967689,0,2.14,100.9397,1,0.8,2025-04-30T12:11:47.395+03:00,111,1.85,2025-04-22T14:20:19.516+03:00,0.02197104130929222,0
2025-04-30T12:11:54.866+03:00,1746004311.644837,40.95225006229428,29.14029629289345,76.41664,-1,-1,-1,-1,30,20.44752438444682,-9999,11936.12068441667,-0.6447906494140625,0.6253814697265625,-0.434234619140625,11936.10807141667,2.843757829357539,-0.9865706982288409,-0.6773910069245171,-0.01439073123037815,0.01524506509304047,-0.00117094290908426,0.002722978591918945,-0.004600286483764648,-0.002352476119995117,XArbitraryZVertical,0.3982585071276319,-0.3556710806773383,0.8448922559589351,-0.03233417555104174,-0.6499704122543335,0.6267622113227844,-0.4297764897346497,0,0,0,-1,-1,11912.735939625,unknown,2,2025-04-30T12:11:31.479+03:00,2025-04-30T12:00:08.093+03:00,94,1.480054,0,0,78.64606,0,0,2025-04-30T12:11:34.059+03:00,767697114.7967689,0,2.14,100.9397,1,0.8,2025-04-30T12:11:47.395+03:00,111,1.85,2025-04-22T14:20:19.516+03:00,0.02197104130929222,0
2025-04-30T12:11:54.897+03:00,1746004311.644837,40.95225006229428,29.14029629289345,76.41664,-1,-1,-1,-1,30,20.44752438444682,-9999,11936.13076041667,-0.6441650390625,0.624114990234375,-0.4358978271484375,11936.11814841667,2.843586883893227,-0.9865238443553682,-0.6774222757426768,-0.01717253588140011,0.01458819676190615,-0.0003275864874012768,0.003342688083648682,-0.0007794499397277832,-0.003187298774719238,XArbitraryZVertical,0.398203955816783,-0.3557183556413034,0.8449008420227184,-0.03226122234330644,-0.6499338746070862,0.6267865896224976,-0.4297961294651031,0,0,0,-1,-1,11912.735939625,unknown,2,2025-04-30T12:11:31.479+03:00,2025-04-30T12:00:08.093+03:00,94,1.480054,0,0,78.64606,0,0,2025-04-30T12:11:34.059+03:00,767697114.7967689,0,2.14,100.9397,1,0.8,2025-04-30T12:11:47.395+03:00,111,1.85,2025-04-22T14:20:19.516+03:00,0.02197104130929222,0
2025-04-30T12:11:54.900+03:00,1746004311.644837,40.95225006229428,29.14029629289345,76.41664,-1,-1,-1,-1,30,20.44752438444682,-9999,11936.14083641667,-0.641845703125,0.6271820068359375,-0.4344635009765625,11936.12822441667,2.843431418976928,-0.9864903886775028,-0.6774523459250961,-0.01217458117753267,0.00937372725456953,-0.001791792456060648,0.005799770355224609,-0.002282977104187012,-0.005113780498504639,XArbitraryZVertical,0.3981579645062657,-0.3557618442710421,0.8449066933961319,-0.03219685976418665,-0.6499038338661194,0.6268100142478943,-0.4298074841499329,0,0,0,-1,-1,11912.735939625,unknown,2,2025-04-30T12:11:31.479+03:00,2025-04-30T12:00:08.093+03:00,94,1.480054,0,0,78.64606,0,0,2025-04-30T12:11:34.059+03:00,767697114.7967689,0,2.14,100.9397,1,0.8,2025-04-30T12:11:47.395+03:00,111,1.85,2025-04-22T14:20:19.516+03:00,0.02197104130929222,0
2025-04-30T12:11:54.902+03:00,1746004311.644837,40.95225006229428,29.14029629289345,76.41664,-1,-1,-1,-1,30,20.44752438444682,-9999,11936.15091341667,-0.6416015625,0.6315155029296875,-0.43463134765625,11936.13830041667,2.843318049552262,-0.9864608030202062,-0.6774763278680825,-0.01112775970250368,0.005730723030865192,-0.005784969311207533,0.006140708923339844,-0.002103328704833984,-0.005514800548553467,XArbitraryZVertical,0.398121948734706,-0.3557944583118815,0.8449117473808346,-0.03214950878123873,-0.6498785614967346,0.626828670501709,-0.4298184216022491,0,0,0,-1,-1,11912.735939625,unknown,2,2025-04-30T12:11:31.479+03:00,2025-04-30T12:00:08.093+03:00,94,1.480054,0,0,78.64606,0,0,2025-04-30T12:11:34.059+03:00,767697114.7967689,0,2.14,100.9397,1,0.8,2025-04-30T12:11:47.395+03:00,111,1.85,2025-04-22T14:20:19.516+03:00,0.02197104130929222,0
2025-04-30T12:11:54.907+03:00,1746004311.644837,40.95225006229428,29.14029629289345,76.41664,-1,-1,-1,-1,30,20.44752438444682,-9999,11936.16098941667,-0.6478118896484375,0.6309814453125,-0.432464599609375,11936.14837741667,2.843280933899214,-0.9864267822530502,-0.6774240305673347,0.004719380289316177,0.003736547892913222,-0.005684035364538431,0.008854210376739502,0.001797854900360107,-0.004482895135879517,XArbitraryZVertical,0.3981083152019194,-0.3557815332601367,0.8449247894293972,-0.0321152075233277,-0.649891197681427,0.6267879605293274,-0.429858535528183,0,0,0,-1,-1,11912.735939625,unknown,2,2025-04-30T12:11:31.479+03:00,2025-04-30T12:00:08.093+03:00,94,1.480054,0,0,78.64606,0,0,2025-04-30T12:11:34.059+03:00,767697114.7967689,0,2.14,100.9397,1,0.8,2025-04-30T12:11:47.395+03:00,111,1.85,2025-04-22T14:20:19.516+03:00,0.02197104130929222,0
2025-04-30T12:11:54.917+03:00,1746004311.644837,40.95225006229428,29.14029629289345,76.41664,-1,-1,-1,-1,30,20.44752438444682,-9999,11936.17106641667,-0.6557159423828125,0.6268310546875,-0.4321136474609375,11936.15845341667,2.843399361474588,-0.9862476365921705,-0.6772688594039221,0.01944579556584358,0.01174886710941792,-0.01150294207036495,0.007454454898834229,0.0058402419090271,-0.004892617464065552,XArbitraryZVertical,0.3980753406462674,-0.3556989068865196,0.8449758499148893,-0.03209574443291608,-0.6498952507972717,0.6266670227050781,-0.4300286173820496,0,0,0,-1,-1,11912.735939625,unknown,2,2025-04-30T12:11:31.479+03:00,2025-04-30T12:00:08.093+03:00,94,1.480054,0,0,78.64606,0,0,2025-04-30T12:11:34.059+03:00,767697114.7967689,0,2.14,100.9397,1,0.8,2025-04-30T12:11:47.395+03:00,111,1.85,2025-04-22T14:20:19.516+03:00,0.02197104130929222,0
2025-04-30T12:11:54.927+03:00,1746004311.644837,40.95225006229428,29.14029629289345,76.41664,-1,-1,-1,-1,30,20.44752438444682,-9999,11936.18114241667,-0.6510772705078125,0.6255035400390625,-0.434051513671875,11936.16853041667,2.843643398420556,-0.9859096600299485,-0.6770424048700208,0.03170885518193245,0.01791541650891304,-0.009441123344004154,-0.0005682110786437988,0.003712773323059082,-0.001420795917510986,XArbitraryZVertical,0.3980074887290081,-0.3555653633280801,0.8450645219305655,-0.03208379881810866,-0.6498682498931885,0.6264905333518982,-0.4303266108036041,0,0,0,-1,-1,11912.735939625,unknown,2,2025-04-30T12:11:31.479+03:00,2025-04-30T12:00:08.093+03:00,94,1.480054,0,0,78.64606,0,0,2025-04-30T12:11:34.059+03:00,767697114.7967689,0,2.14,100.9397,1,0.8,2025-04-30T12:11:47.395+03:00,111,1.85,2025-04-22T14:20:19.516+03:00,0.02197104130929222,0
2025-04-30T12:11:54.937+03:00,1746004311.644837,40.95225006229428,29.14029629289345,76.41664,-1,-1,-1,-1,30,20.44752438444682,-9999,11936.19121941667,-0.646209716796875,0.6184844970703125,-0.428802490234375,11936.17860641667,2.843905797788568,-0.9855564249413145,-0.6767681721383897,0.02617873251438141,0.01458693109452724,-0.009834905155003071,-0.006390690803527832,0.0003711581230163574,-0.002210289239883423,XArbitraryZVertical,0.3979430974308503,-0.3554093325911356,0.8451611059916889,-0.0320654816957061,-0.6498593091964722,0.6262767910957336,-0.4306510090827942,0,0,0,-1,-1,11912.735939625,unknown,2,2025-04-30T12:11:31.479+03:00,2025-04-30T12:00:08.093+03:00,94,1.480054,0,0,78.64606,0,0,2025-04-30T12:11:34.059+03:00,767697114.7967689,0,2.14,100.9397,1,0.8,2025-04-30T12:11:47.395+03:00,111,1.85,2025-04-22T14:20:19.516+03:00,0.02197104130929222,0
2025-04-30T12:11:54.947+03:00,1746004311.644837,40.95225006229428,29.14029629289345,76.41664,-1,-1,-1,-1,30,20.44752438444682,-9999,11936.20129541667,-0.6449737548828125,0.613677978515625,-0.4291839599609375,11936.18868341667,2.844100311807425,-0.9852847204835756,-0.6765835705759466,0.01463579293340445,0.01104199886322021,-0.002915213583037257,0.0006229281425476074,-0.001422762870788574,-0.002839654684066772,XArbitraryZVertical,0.397888540861453,-0.3553012724404902,0.8452326311594602,-0.03205467851327929,-0.6498386263847351,0.6261328458786011,-0.4308914244174957,0,0,0,-1,-1,11912.735939625,unknown,2,2025-04-30T12:11:31.479+03:00,2025-04-30T12:00:08.093+03:00,94,1.480054,0,0,78.64606,0,0,2025-04-30T12:11:34.059+03:00,767697114.7967689,0,2.14,100.9397,1,0.8,2025-04-30T12:11:47.395+03:00,111,1.85,2025-04-22T14:20:19.516+03:00,0.02197104130929222,0
2025-04-30T12:11:54.957+03:00,1746004311.644837,40.95225006229428,29.14029629289345,76.41664,-1,-1,-1,-1,30,20.44752438444682,-9999,11936.21137141667,-0.6434173583984375,0.6170196533203125,-0.4331817626953125,11936.19875941667,2.844264415914866,-0.9850662289844161,-0.6765112958189015,0.01355268619954586,0.009704824537038803,0.002730687614530325,0.004121780395507812,-0.00988084077835083,0.002912074327468872,XArbitraryZVertical,0.3978354159176083,-0.3552432662256165,0.8452815055359572,-0.03206772820870666,-0.649782121181488,0.6260764598846436,-0.431058406829834,0,0,0,-1,-1,11912.735939625,unknown,2,2025-04-30T12:11:31.479+03:00,2025-04-30T12:00:08.093+03:00,94,1.480054,0,0,78.64606,0,0,2025-04-30T12:11:34.059+03:00,767697114.7967689,0,2.14,100.9397,1,0.8,2025-04-30T12:11:47.395+03:00,111,1.85,2025-04-22T14:20:19.516+03:00,0.02197104130929222,0
2025-04-30T12:11:54.967+03:00,1746004311.644837,40.95225006229428,29.14029629289345,76.41664,-1,-1,-1,-1,30,20.44752438444682,-9999,11936.22144841667,-0.6390838623046875,0.6241455078125,-0.435089111328125,11936.20883541667,2.84446041856573,-0.9848199560256865,-0.6764587959839048,0.01452021207660437,0.01080977078527212,0.002740807831287384,0.004378736019134521,-0.01238805055618286,0.0006183981895446777,XArbitraryZVertical,0.3977733901937621,-0.3551872484841452,0.8453333892810706,-0.03209397991377242,-0.6497035026550293,0.6260355710983276,-0.4312366843223572,0,0,0,-1,-1,11912.735939625,unknown,2,2025-04-30T12:11:31.479+03:00,2025-04-30T12:00:08.093+03:00,94,1.480054,0,0,78.64606,0,0,2025-04-30T12:11:34.059+03:00,767697114.7967689,0,2.14,100.9397,1,0.8,2025-04-30T12:11:47.395+03:00,111,1.85,2025-04-22T14:20:19.516+03:00,0.02197104130929222,0
2025-04-30T12:11:54.977+03:00,1746004311.644837,40.95225006229428,29.14029629289345,76.41664,-1,-1,-1,-1,30,20.44752438444682,-9999,11936.23152441667,-0.636474609375,0.6271514892578125,-0.43328857421875,11936.21891241667,2.844732187268164,-0.9845087899021818,-0.6763860845472138,0.02715031988918781,0.01241385936737061,0.002487574471160769,0.00684589147567749,-0.006960213184356689,-0.001931369304656982,XArbitraryZVertical,0.3977002532171644,-0.355109156563409,0.8453989582800319,-0.03213603670191515,-0.6496071815490723,0.6259788274765015,-0.4314639866352081,0,0,0,-1,-1,11912.735939625,unknown,2,2025-04-30T12:11:31.479+03:00,2025-04-30T12:00:08.093+03:00,94,1.480054,0,0,78.64606,0,0,2025-04-30T12:11:34.059+03:00,767697114.7967689,0,2.14,100.9397,1,0.8,2025-04-30T12:11:47.395+03:00,111,1.85,2025-04-22T14:20:19.516+03:00,0.02197104130929222,0
2025-04-30T12:11:54.987+03:00,1746004311.644837,40.95225006229428,29.14029629289345,76.41664,-1,-1,-1,-1,30,20.44752438444682,-9999,11936.24160141667,-0.6348876953125,0.6285247802734375,-0.42803955078125,11936.22898841667,2.845126512503013,-0.9841185226671085,-0.6762367581374331,0.03495364636182785,0.01005110237747431,0.0008436052594333887,0.0117449164390564,-0.0005877017974853516,-0.003625065088272095,XArbitraryZVertical,0.3976260502732418,-0.3549773701278265,0.8454868129914991,-0.03219735417173292,-0.6495165228843689,0.6258623600006104,-0.4317691922187805,0,0,0,-1,-1,11912.735939625,unknown,2,2025-04-30T12:11:31.479+03:00,2025-04-30T12:00:08.093+03:00,94,1.480054,0,0,78.64606,0,0,2025-04-30T12:11:34.059+03:00,767697114.7967689,0,2.14,100.9397,1,0.8,2025-04-30T12:11:47.395+03:00,111,1.85,2025-04-22T14:20:19.516+03:00,0.02197104130929222,0
2025-04-30T12:11:54.997+03:00,1746004311.644837,40.95225006229428,29.14029629289345,76.41664,-1,-1,-1,-1,30,20.44752438444682,-9999,11936.25167741667,-0.63836669921875,0.621551513671875,-0.432708740234375,11936.23906541667,2.845492720544828,-0.9838264591527256,-0.6760929673981954,0.02693380415439606,-0.000577839557081461,-0.0002569460193626583,0.01361632347106934,0.002423584461212158,0.0001849830150604248,XArbitraryZVertical,0.3975875226151424,-0.3548518083180104,0.8455550535469758,-0.03226553844404109,-0.6494653224945068,0.6257502436637878,-0.4320087134838104,0,0,0,-1,-1,11912.735939625,unknown,2,2025-04-30T12:11:31.479+03:00,2025-04-30T12:00:08.093+03:00,94,1.480054,0,0,78.64606,0,0,2025-04-30T12:11:34.059+03:00,767697114.7967689,0,2.14,100.9397,1,0.8,2025-04-30T12:11:47.395+03:00,111,1.85,2025-04-22T14:20:19.516+03:00,0.02197104130929222,0
2025-04-30T12:11:55.007+03:00,1746004311.644837,40.95225006229428,29.14029629289345,76.41664,-1,-1,-1,-1,30,20.44752438444682,-9999,11936.26175341667,-0.6483612060546875,0.6121826171875,-0.4378509521484375,11936.24914141667,2.845674124444744,-0.9837285332277038,-0.6759862277644344,0.01296019926667213,-0.003887349739670753,-0.003272443311288953,0.01468247175216675,0.002033829689025879,0.004283398389816284,XArbitraryZVertical,0.3975931133371467,-0.3547746636405718,0.8455835225672147,-0.03229903526139306,-0.6494786143302917,0.6256669759750366,-0.4321092963218689,0,0,0,-1,-1,11912.735939625,unknown,2,2025-04-30T12:11:31.479+03:00,2025-04-30T12:00:08.093+03:00,94,1.480054,0,0,78.64606,0,0,2025-04-30T12:11:34.059+03:00,767697114.7967689,0,2.14,100.9397,1,0.8,2025-04-30T12:11:47.395+03:00,111,1.85,2025-04-22T14:20:19.516+03:00,0.02197104130929222,0
2025-04-30T12:11:55.017+03:00,1746004311.644837,40.95225006229428,29.14029629289345,76.41664,-1,-1,-1,-1,30,20.44752438444682,-9999,11936.27183041667,-0.653228759765625,0.611328125,-0.439971923828125,11936.25921741667,2.845746927776841,-0.9837096642840251,-0.6759204920000552,0.003822094760835171,0.001921537099406123,-0.0003774541546590626,0.008528769016265869,-0.00664287805557251,-0.002120792865753174,XArbitraryZVertical,0.3976071543266348,-0.3547342161161809,0.8455934918059386,-0.0323105321076677,-0.6495047211647034,0.6256157159805298,-0.4321443736553192,0,0,0,-1,-1,11912.735939625,unknown,2,2025-04-30T12:11:31.479+03:00,2025-04-30T12:00:08.093+03:00,94,1.480054,0,0,78.64606,0,0,2025-04-30T12:11:34.059+03:00,767697114.7967689,0,2.14,100.9397,1,0.8,2025-04-30T12:11:47.395+03:00,111,1.85,2025-04-22T14:20:19.516+03:00,0.02197104130929222,0
2025-04-30T12:11:55.027+03:00,1746004311.644837,40.95225006229428,29.14029629289345,76.41664,-1,-1,-1,-1,30,20.44752438444682,-9999,11936.28190641667,-0.6481781005859375,0.61358642578125,-0.437042236328125,11936.26929441667,2.845806258187197,-0.9836650652427997,-0.67588494360963,0.006523072719573975,-0.001372526865452528,-0.0004653384676203132,-0.001054525375366211,-0.01473277807235718,-0.006092548370361328,XArbitraryZVertical,0.3976037525044642,-0.3547089322970106,0.8456053675452793,-0.03231911077728211,-0.6495040059089661,0.6255879402160645,-0.4321856498718262,0,0,0,-1,-1,11912.735939625,unknown,2,2025-04-30T12:11:31.479+03:00,2025-04-30T12:00:08.093+03:00,94,1.480054,0,0,78.64606,0,0,2025-04-30T12:11:34.059+03:00,767697114.7967689,0,2.14,100.9397,1,0.8,2025-04-30T12:11:47.395+03:00,111,1.85,2025-04-22T14:20:19.516+03:00,0.02197104130929222,0
2025-04-30T12:11:55.037+03:00,1746004311.644837,40.95225006229428,29.14029629289345,76.41664,-1,-1,-1,-1,30,20.44752438444682,-9999,11936.29198341667,-0.6421966552734375,0.61566162109375,-0.4341583251953125,11936.27937041667,2.845906361360321,-0.9836312322299199,-0.6758163572029015,0.01201251428574324,-0.004077366553246975,0.000779489753767848,-0.002803504467010498,-0.01329076290130615,-0.007603228092193604,XArbitraryZVertical,0.3976167332474753,-0.3546621666551245,0.8456180632866412,-0.03233889955522653,-0.649524986743927,0.6255344152450562,-0.4322313666343689,0,0,0,-1,-1,11912.735939625,unknown,2,2025-04-30T12:11:31.479+03:00,2025-04-30T12:00:08.093+03:00,94,1.480054,0,0,78.64606,0,0,2025-04-30T12:11:34.059+03:00,767697114.7967689,0,2.14,100.9397,1,0.8,2025-04-30T12:11:47.395+03:00,111,1.85,2025-04-22T14:20:19.516+03:00,0.02197104130929222,0
2025-04-30T12:11:55.048+03:00,1746004311.644837,40.95225006229428,29.14029629289345,76.41664,-1,-1,-1,-1,30,20.44752438444682,-9999,11936.30205941667,-0.6407318115234375,0.61920166015625,-0.4378509521484375,11936.28944741667,2.846037418470387,-0.9836102131495854,-0.675744461629386,0.00899355486035347,-0.008779976516962051,0.003502305364236236,0.003786206245422363,-0.01134258508682251,-0.00349050760269165,XArbitraryZVertical,0.3976410205571584,-0.3546077016402424,0.8456282692974156,-0.03237311357546323,-0.6495534777641296,0.6254783272743225,-0.4322699904441833,0,0,0,-1,-1,11912.735939625,unknown,2,2025-04-30T12:11:31.479+03:00,2025-04-30T12:00:08.093+03:00,94,1.480054,0,0,78.64606,0,0,2025-04-30T12:11:34.059+03:00,767697114.7967689,0,2.14,100.9397,1,0.8,2025-04-30T12:11:47.395+03:00,111,1.85,2025-04-22T14:20:19.516+03:00,0.02197104130929222,0
2025-04-30T12:11:55.058+03:00,1746004311.644837,40.95225006229428,29.14029629289345,76.41664,-1,-1,-1,-1,30,20.44752438444682,-9999,11936.31213641667,-0.6363372802734375,0.622833251953125,-0.44140625,11936.29952341667,2.846148485064163,-0.9836247915854169,-0.6757142075731475,0.006566349416971207,-0.01197683438658714,-0.0001751204254105687,0.007836580276489258,-0.00962519645690918,-0.002543449401855469,XArbitraryZVertical,0.3976710775139165,-0.354573289517585,0.8456269252653341,-0.03241536081620564,-0.6495754718780518,0.6254547238349915,-0.4322710037231445,0,0,0,-1,-1,11912.735939625,unknown,2,2025-04-30T12:11:31.479+03:00,2025-04-30T12:00:08.093+03:00,94,1.480054,0,0,78.64606,0,0,2025-04-30T12:11:34.059+03:00,767697114.7967689,0,2.14,100.9397,1,0.8,2025-04-30T12:11:47.395+03:00,111,1.85,2025-04-22T14:20:19.516+03:00,0.02197104130929222,0
2025-04-30T12:11:55.068+03:00,1746004311.644837,40.95225006229428,29.14029629289345,76.41664,-1,-1,-1,-1,30,20.44752438444682,-9999,11936.32221241667,-0.63446044921875,0.6223602294921875,-0.4402618408203125,11936.30960041667,2.846207986495239,-0.9837257723771314,-0.6757254933722282,-0.001643377472646534,-0.01967550069093704,-0.001101634232327342,0.009842753410339355,-0.004613935947418213,-0.007282137870788574,XArbitraryZVertical,0.3977227537941542,-0.3545643307768532,0.8456046319987828,-0.03246114133910964,-0.6496132612228394,0.6254635453224182,-0.4322015047073364,0,0,0,-1,-1,11912.735939625,unknown,2,2025-04-30T12:11:31.479+03:00,2025-04-30T12:00:08.093+03:00,94,1.480054,0,0,78.64606,0,0,2025-04-30T12:11:34.059+03:00,767697114.7967689,0,2.14,100.9397,1,0.8,2025-04-30T12:11:47.395+03:00,111,1.85,2025-04-22T14:20:19.516+03:00,0.02197104130929222,0
2025-04-30T12:11:55.078+03:00,1746004311.644837,40.95225006229428,29.14029629289345,76.41664,-1,-1,-1,-1,30,20.44752438444682,-9999,11936.33228841667,-0.6360015869140625,0.62158203125,-0.4328155517578125,11936.31967641667,2.846167573760457,-0.9839602477730521,-0.6757779992896602,-0.01071710046380758,-0.02774308063089848,-0.001815261435694993,0.01344150304794312,-0.003281533718109131,-0.009756743907928467,XArbitraryZVertical,0.3978074394227231,-0.354589548239169,0.8455528070354991,-0.03249831290156927,-0.6496872901916504,0.6255044937133789,-0.432030975818634,0,0,0,-1,-1,11912.735939625,unknown,2,2025-04-30T12:11:31.479+03:00,2025-04-30T12:00:08.093+03:00,94,1.480054,0,0,78.64606,0,0,2025-04-30T12:11:34.059+03:00,767697114.7967689,0,2.14,100.9397,1,0.8,2025-04-30T12:11:47.395+03:00,111,1.85,2025-04-22T14:20:19.516+03:00,0.02197104130929222,0
2025-04-30T12:11:55.088+03:00,1746004311.644837,40.95225006229428,29.14029629289345,76.41664,-1,-1,-1,-1,30,20.44752438444682,-9999,11936.34236541667,-0.6420745849609375,0.6241607666015625,-0.4284515380859375,11936.32975241667,2.846062076594526,-0.984339383812594,-0.6758669350799047,-0.007170568220317364,-0.03639569133520126,-0.002215800806879997,0.01505428552627563,-0.003061056137084961,-0.006798982620239258,XArbitraryZVertical,0.3979366844835474,-0.3546399183443306,0.8454691630509598,-0.0325424560900656,-0.6498047113418579,0.6255739331245422,-0.4317538440227509,0,0,0,-1,-1,11912.735939625,unknown,2,2025-04-30T12:11:31.479+03:00,2025-04-30T12:00:08.093+03:00,94,1.480054,0,0,78.64606,0,0,2025-04-30T12:11:34.059+03:00,767697114.7967689,0,2.14,100.9397,1,0.8,2025-04-30T12:11:47.395+03:00,111,1.85,2025-04-22T14:20:19.516+03:00,0.02197104130929222,0
2025-04-30T12:11:55.098+03:00,1746004311.644837,40.95225006229428,29.14029629289345,76.41664,-1,-1,-1,-1,30,20.44752438444682,-9999,11936.35244141667,-0.6489105224609375,0.6297454833984375,-0.4306488037109375,11936.33982941667,2.846110274367494,-0.9846475726083085,-0.6758135118088323,0.01719515770673752,-0.03320502489805222,-0.006040798965841532,0.01231592893600464,-0.004453718662261963,0.0009537041187286377,XArbitraryZVertical,0.3980829603220722,-0.3546039671729964,0.8454128612150523,-0.03260465508219388,-0.6499654054641724,0.6255322098731995,-0.4315719604492188,0,0,0,-1,-1,11912.735939625,unknown,2,2025-04-30T12:11:31.479+03:00,2025-04-30T12:00:08.093+03:00,94,1.480054,0,0,78.64606,0,0,2025-04-30T12:11:34.059+03:00,767697114.7967689,0,2.14,100.9397,1,0.8,2025-04-30T12:11:47.395+03:00,111,1.85,2025-04-22T14:20:19.516+03:00,0.02197104130929222,0
2025-04-30T12:11:55.108+03:00,1746004311.644837,40.95225006229428,29.14029629289345,76.41664,-1,-1,-1,-1,30,20.44752438444682,-9999,11936.36251841667,-0.65252685546875,0.6337890625,-0.431793212890625,11936.34990541667,2.846361952811214,-0.9847333230965607,-0.6755259875836203,0.03591238707304001,-0.02090122178196907,-0.01068535167723894,0.006551802158355713,0.0006534457206726074,0.002691149711608887,XArbitraryZVertical,0.3982036648276287,-0.3544375499907995,0.8454238583950408,-0.03265659332039204,-0.650152325630188,0.6253078579902649,-0.4316157400608063,0,0,0,-1,-1,11912.735939625,unknown,2,2025-04-30T12:11:31.479+03:00,2025-04-30T12:00:08.093+03:00,94,1.480054,0,0,78.64606,0,0,2025-04-30T12:11:34.059+03:00,767697114.7967689,0,2.14,100.9397,1,0.8,2025-04-30T12:11:47.395+03:00,111,1.85,2025-04-22T14:20:19.516+03:00,0.02197104130929222,0
2025-04-30T12:11:55.118+03:00,1746004311.644837,40.95225006229428,29.14029629289345,76.41664,-1,-1,-1,-1,30,20.44752438444682,-9999,11936.37259441667,-0.651153564453125,0.6303558349609375,-0.43157958984375,11936.35998241667,2.846811076557837,-0.9846157171010518,-0.6750919407500934,0.05734151229262352,-0.0146228177472949,-0.01287180744111538,-0.0001851320266723633,0.006103932857513428,0.0002169609069824219,XArbitraryZVertical,0.3982936344957054,-0.354176542588061,0.8454884265713686,-0.03272052974132551,-0.6503276228904724,0.6249690651893616,-0.4318423271179199,0,0,0,-1,-1,11912.735939625,unknown,2,2025-04-30T12:11:31.479+03:00,2025-04-30T12:00:08.093+03:00,94,1.480054,0,0,78.64606,0,0,2025-04-30T12:11:34.059+03:00,767697114.7967689,0,2.14,100.9397,1,0.8,2025-04-30T12:11:47.395+03:00,111,1.85,2025-04-22T14:20:19.516+03:00,0.02197104130929222,0
2025-04-30T12:11:55.128+03:00,1746004311.644837,40.95225006229428,29.14029629289345,76.41664,-1,-1,-1,-1,30,20.44752438444682,-9999,11936.38267141667,-0.64923095703125,0.621185302734375,-0.4326629638671875,11936.37005841667,2.847357932689599,-0.984394291828163,-0.6746232904803078,0.05761608481407166,-0.01307365763932467,-0.01265902072191238,-0.001822173595428467,0.009735167026519775,-7.215142250061035e-05,XArbitraryZVertical,0.3983617137950834,-0.3538838927216663,0.8455757501379232,-0.03279920691400311,-0.650475800037384,0.6246031522750854,-0.432148277759552,0,0,0,-1,-1,11912.735939625,unknown,2,2025-04-30T12:11:31.479+03:00,2025-04-30T12:00:08.093+03:00,94,1.480054,0,0,78.64606,0,0,2025-04-30T12:11:34.059+03:00,767697114.7967689,0,2.14,100.9397,1,0.8,2025-04-30T12:11:47.395+03:00,111,1.85,2025-04-22T14:20:19.516+03:00,0.02197104130929222,0
2025-04-30T12:11:55.138+03:00,1746004311.644837,40.95225006229428,29.14029629289345,76.41664,-1,-1,-1,-1,30,20.44752438444682,-9999,11936.39274741667,-0.6462554931640625,0.6164398193359375,-0.432098388671875,11936.38013541667,2.847906453861553,-0.9841674390425498,-0.6742406555622927,0.04904856160283089,-0.01571564748883247,-0.006175887770950794,-4.273653030395508e-05,0.003121852874755859,0.0007264614105224609,XArbitraryZVertical,0.398415710619312,-0.353625336256378,0.8456546183744856,-0.03289844361947644,-0.6505767107009888,0.6243042945861816,-0.4324280917644501,0,0,0,-1,-1,11912.735939625,unknown,2,2025-04-30T12:11:31.479+03:00,2025-04-30T12:00:08.093+03:00,94,1.480054,0,0,78.64606,0,0,2025-04-30T12:11:34.059+03:00,767697114.7967689,0,2.14,100.9397,1,0.8,2025-04-30T12:11:47.395+03:00,111,1.85,2025-04-22T14:20:19.516+03:00,0.02197104130929222,0
2025-04-30T12:11:55.148+03:00,1746004311.644837,40.95225006229428,29.14029629289345,76.41664,-1,-1,-1,-1,30,20.44752438444682,-9999,11936.40282341667,-0.6463623046875,0.6158447265625,-0.4276123046875,11936.39021141667,2.848373934081823,-0.9840136512836142,-0.6739869244996229,0.0336909107863903,-0.02122226543724537,0.001238086028024554,0.002006292343139648,-0.004538238048553467,-0.0008100569248199463,XArbitraryZVertical,0.39846834774355,-0.3534332450569397,0.8457058831271647,-0.03300755502805879,-0.6506420969963074,0.6241061091423035,-0.4326158463954926,0,0,0,-1,-1,11912.735939625,unknown,2,2025-04-30T12:11:31.479+03:00,2025-04-30T12:00:08.093+03:00,94,1.480054,0,0,78.64606,0,0,2025-04-30T12:11:34.059+03:00,767697114.7967689,0,2.14,100.9397,1,0.8,2025-04-30T12:11:47.395+03:00,111,1.85,2025-04-22T14:20:19.516+03:00,0.02197104130929222,0
2025-04-30T12:11:55.158+03:00,1746004311.644837,40.95225006229428,29.14029629289345,76.41664,-1,-1,-1,-1,30,20.44752438444682,-9999,11936.41290041667,-0.6511993408203125,0.6175689697265625,-0.424041748046875,11936.40028741667,2.848790282026173,-0.9839180927608155,-0.6738660717695125,0.02747569233179092,-0.02411359176039696,0.009281398728489876,0.004926919937133789,-0.007968604564666748,0.001811593770980835,XArbitraryZVertical,0.3985181620100605,-0.3533035174702092,0.8457315747559641,-0.03313747232301533,-0.6506636142730713,0.6240116357803345,-0.4327197968959808,0,0,0,-1,-1,11912.735939625,unknown,2,2025-04-30T12:11:31.479+03:00,2025-04-30T12:00:08.093+03:00,94,1.480054,0,0,78.64606,0,0,2025-04-30T12:11:34.059+03:00,767697114.7967689,0,2.14,100.9397,1,0.8,2025-04-30T12:11:47.395+03:00,111,1.85,2025-04-22T14:20:19.516+03:00,0.02197104130929222,0
2025-04-30T12:11:55.168+03:00,1746004311.644837,40.95225006229428,29.14029629289345,76.41664,-1,-1,-1,-1,30,20.44752438444682,-9999,11936.42297641667,-0.656341552734375,0.622955322265625,-0.4200286865234375,11936.41036441667,2.849173998109579,-0.9838686672539325,-0.6738322236439453,0.02010592818260193,-0.02248267270624638,0.01010697800666094,0.002741098403930664,-0.007316470146179199,0.00650942325592041,XArbitraryZVertical,0.3985696941112296,-0.3532143290910251,0.8457388660963342,-0.03328279567266076,-0.6506598591804504,0.6239851713180542,-0.4327636659145355,0,0,0,-1,-1,11912.735939625,unknown,2,2025-04-30T12:11:31.479+03:00,2025-04-30T12:00:08.093+03:00,94,1.480054,0,0,78.64606,0,0,2025-04-30T12:11:34.059+03:00,767697114.7967689,0,2.14,100.9397,1,0.8,2025-04-30T12:11:47.395+03:00,111,1.85,2025-04-22T14:20:19.516+03:00,0.02197104130929222,0
2025-04-30T12:11:55.179+03:00,1746004311.644837,40.95225006229428,29.14029629289345,76.41664,-1,-1,-1,-1,30,20.44752438444682,-9999,11936.43305341667,-0.6546173095703125,0.62872314453125,-0.4163360595703125,11936.42044041667,2.849493372774249,-0.983874871611943,-0.6738422397980568,0.02252933755517006,-0.02162333764135838,0.01212122663855553,-0.002159476280212402,-0.005081236362457275,0.009568929672241211,XArbitraryZVertical,0.3986273249574281,-0.3531545793521866,0.8457312261241861,-0.03342133642297293,-0.6506573557853699,0.6239930391311646,-0.4327561855316162,0,0,0,-1,-1,11912.735939625,unknown,2,2025-04-30T12:11:31.479+03:00,2025-04-30T12:00:08.093+03:00,94,1.480054,0,0,78.64606,0,0,2025-04-30T12:11:34.059+03:00,767697114.7967689,0,2.14,100.9397,1,0.8,2025-04-30T12:11:47.395+03:00,111,1.85,2025-04-22T14:20:19.516+03:00,0.02197104130929222,0
2025-04-30T12:11:55.189+03:00,1746004311.644837,40.95225006229428,29.14029629289345,76.41664,-1,-1,-1,-1,30,20.44752438444682,-9999,11936.44312941667,-0.6536865234375,0.63677978515625,-0.4184112548828125,11936.43051741667,2.849843801620267,-0.9838789065505962,-0.6738355607079798,0.02660051174461842,-0.0221764761954546,0.01181762665510178,-0.005694270133972168,0.0009816884994506836,0.01461929082870483,XArbitraryZVertical,0.3986918226561073,-0.3530819882105194,0.8457252989725909,-0.033568618448237,-0.6506626009941101,0.6239877939224243,-0.4327558875083923,0,0,0,-1,-1,11912.735939625,unknown,2,2025-04-30T12:11:31.479+03:00,2025-04-30T12:00:08.093+03:00,94,1.480054,0,0,78.64606,0,0,2025-04-30T12:11:34.059+03:00,767697114.7967689,0,2.14,100.9397,1,0.8,2025-04-30T12:11:47.395+03:00,111,1.85,2025-04-22T14:20:19.516+03:00,0.02197104130929222,0
2025-04-30T12:11:55.199+03:00,1746004311.644837,40.95225006229428,29.14029629289345,76.41664,-1,-1,-1,-1,30,20.44752438444682,-9999,11936.45320541667,-0.64739990234375,0.6353912353515625,-0.4256134033203125,11936.44059341667,2.850280185589789,-0.9838177985629598,-0.6737625709881379,0.04019508138298988,-0.01950592361390591,0.01013114675879478,-0.003363490104675293,0.006592929363250732,0.01677471399307251,XArbitraryZVertical,0.3987530602346819,-0.3529668095318867,0.8457382846577099,-0.03372473308072529,-0.650674045085907,0.6239307522773743,-0.4328208565711975,0,0,0,-1,-1,11912.735939625,unknown,2,2025-04-30T12:11:31.479+03:00,2025-04-30T12:00:08.093+03:00,94,1.480054,0,0,78.64606,0,0,2025-04-30T12:11:34.059+03:00,767697114.7967689,0,2.14,100.9397,1,0.8,2025-04-30T12:11:47.395+03:00,111,1.85,2025-04-22T14:20:19.516+03:00,0.02197104130929222,0
2025-04-30T12:11:55.209+03:00,1746004311.644837,40.95225006229428,29.14029629289345,76.41664,-1,-1,-1,-1,30,20.44752438444682,-9999,11936.46328241667,-0.6472320556640625,0.6253204345703125,-0.42730712890625,11936.45066941667,2.850833780123847,-0.9836662854650086,-0.6735933366663942,0.04910255596041679,-0.01817088201642036,0.006173688918352127,-0.001326978206634521,0.0138511061668396,0.01342225074768066,XArbitraryZVertical,0.3988099355294892,-0.3527912526193596,0.8457780753000191,-0.03389119897772416,-0.650696337223053,0.6237984895706177,-0.4329779446125031,0,0,0,-1,-1,11912.735939625,unknown,2,2025-04-30T12:11:31.479+03:00,2025-04-30T12:00:08.093+03:00,94,1.480054,0,0,78.64606,0,0,2025-04-30T12:11:34.059+03:00,767697114.7967689,0,2.14,100.9397,1,0.8,2025-04-30T12:11:47.395+03:00,111,1.85,2025-04-22T14:20:19.516+03:00,0.02197104130929222,0
2025-04-30T12:11:55.219+03:00,1746004311.644837,40.95225006229428,29.14029629289345,76.41664,-1,-1,-1,-1,30,20.44752438444682,-9999,11936.47335841667,-0.642364501953125,0.6184844970703125,-0.4244384765625,11936.46074641667,2.851408819026333,-0.9834962913960126,-0.673369919158152,0.05120811611413956,-0.02112133055925369,0.007300105877220631,0.003552377223968506,0.009234428405761719,0.00659102201461792,XArbitraryZVertical,0.3988701564761257,-0.3525900295661885,0.8458271609626367,-0.03405045952387883,-0.6507387161254883,0.6236238479614258,-0.4331657290458679,0,0,0,-1,-1,11912.735939625,unknown,2,2025-04-30T12:11:31.479+03:00,2025-04-30T12:00:08.093+03:00,94,1.480054,0,0,78.64606,0,0,2025-04-30T12:11:34.059+03:00,767697114.7967689,0,2.14,100.9397,1,0.8,2025-04-30T12:11:47.395+03:00,111,1.85,2025-04-22T14:20:19.516+03:00,0.02197104130929222,0
2025-04-30T12:11:55.229+03:00,1746004311.644837,40.95225006229428,29.14029629289345,76.41664,-1,-1,-1,-1,30,20.44752438444682,-9999,11936.48343541667,-0.6368560791015625,0.6114654541015625,-0.4273529052734375,11936.47082241667,2.851962026520385,-0.9833889702568388,-0.6731761672874046,0.036879513412714,-0.02948925085365772,0.009520916268229485,0.004399955272674561,0.0001238584518432617,0.006224334239959717,XArbitraryZVertical,0.3989488491819517,-0.352403940647869,0.8458608505040722,-0.03421867924125012,-0.6507928371429443,0.6234723925590515,-0.4333025515079498,0,0,0,-1,-1,11912.735939625,unknown,2,2025-04-30T12:11:31.479+03:00,2025-04-30T12:00:08.093+03:00,94,1.480054,0,0,78.64606,0,0,2025-04-30T12:11:34.059+03:00,767697114.7967689,0,2.14,100.9397,1,0.8,2025-04-30T12:11:47.395+03:00,111,1.85,2025-04-22T14:20:19.516+03:00,0.02197104130929222,0
2025-04-30T12:11:55.239+03:00,1746004311.644837,40.95225006229428,29.14029629289345,76.41664,-1,-1,-1,-1,30,20.44752438444682,-9999,11936.49351141667,-0.636260986328125,0.6039581298828125,-0.4378204345703125,11936.48089941667,2.852292390169551,-0.9835112645513827,-0.6731457677573067,0.01064604613929987,-0.03534714132547379,0.01565337739884853,0.01005333662033081,-0.006612062454223633,0.008840739727020264,XArbitraryZVertical,0.3990629874849203,-0.3523237730614515,0.8458340343205215,-0.0343727123937255,-0.6508614420890808,0.6234486103057861,-0.433233380317688,0,0,0,-1,-1,11912.735939625,unknown,2,2025-04-30T12:11:31.479+03:00,2025-04-30T12:00:08.093+03:00,94,1.480054,0,0,78.64606,0,0,2025-04-30T12:11:34.059+03:00,767697114.7967689,0,2.14,100.9397,1,0.8,2025-04-30T12:11:47.395+03:00,111,1.85,2025-04-22T14:20:19.516+03:00,0.02197104130929222,0
2025-04-30T12:11:55.249+03:00,1746004311.644837,40.95225006229428,29.14029629289345,76.41664,-1,-1,-1,-1,30,20.44752438444682,-9999,11936.50358841667,-0.6361083984375,0.60467529296875,-0.4447784423828125,11936.49097541667,2.852377125090225,-0.9838801531694943,-0.673304417042329,-0.01209308858960867,-0.04428151249885559,0.02054267562925816,0.01397597789764404,-0.01409077644348145,0.002900063991546631,XArbitraryZVertical,0.3992121186642115,-0.3523640246570946,0.845741346664164,-0.03451174817007702,-0.6509389877319336,0.6235726475715637,-0.4329385459423065,0,0,0,-1,-1,11912.735939625,unknown,2,2025-04-30T12:11:31.479+03:00,2025-04-30T12:00:08.093+03:00,94,1.480054,0,0,78.64606,0,0,2025-04-30T12:11:34.059+03:00,767697114.7967689,0,2.14,100.9397,1,0.8,2025-04-30T12:11:47.395+03:00,111,1.85,2025-04-22T14:20:19.516+03:00,0.02197104130929222,0
2025-04-30T12:11:55.259+03:00,1746004311.644837,40.95225006229428,29.14029629289345,76.41664,-1,-1,-1,-1,30,20.44752438444682,-9999,11936.51366441667,-0.6340789794921875,0.6088409423828125,-0.4462890625,11936.50105241667,2.852314574333755,-0.984449063221054,-0.6735651960076795,-0.01885099336504936,-0.05530979484319687,0.01995112001895905,0.01495653390884399,-0.02039819955825806,-0.007631063461303711,XArbitraryZVertical,0.3994058740335332,-0.3524710753300322,0.8455996680678102,-0.03464854378683297,-0.6510497331619263,0.6237764954566956,-0.4324781894683838,0,0,0,-1,-1,11912.735939625,unknown,2,2025-04-30T12:11:31.479+03:00,2025-04-30T12:00:08.093+03:00,94,1.480054,0,0,78.64606,0,0,2025-04-30T12:11:34.059+03:00,767697114.7967689,0,2.14,100.9397,1,0.8,2025-04-30T12:11:47.395+03:00,111,1.85,2025-04-22T14:20:19.516+03:00,0.02197104130929222,0
2025-04-30T12:11:55.269+03:00,1746004311.644837,40.95225006229428,29.14029629289345,76.41664,-1,-1,-1,-1,30,20.44752438444682,-9999,11936.52374041667,-0.63250732421875,0.6121063232421875,-0.446624755859375,11936.51112841667,2.85219440288039,-0.9851916346096291,-0.6738839215275197,-0.02163666114211082,-0.06468784809112549,0.02389233186841011,0.01556950807571411,-0.01831269264221191,-0.01399236917495728,XArbitraryZVertical,0.3996548795405516,-0.3526097533397018,0.8454176933372619,-0.03480571648470075,-0.6512049436569214,0.6240255832672119,-0.4318846762180328,0,0,0,-1,-1,11912.735939625,unknown,2,2025-04-30T12:11:31.479+03:00,2025-04-30T12:00:08.093+03:00,94,1.480054,0,0,78.64606,0,0,2025-04-30T12:11:34.059+03:00,767697114.7967689,0,2.14,100.9397,1,0.8,2025-04-30T12:11:47.395+03:00,111,1.85,2025-04-22T14:20:19.516+03:00,0.02197104130929222,0
2025-04-30T12:11:55.279+03:00,1746004311.644837,40.95225006229428,29.14029629289345,76.41664,-1,-1,-1,-1,30,20.44752438444682,-9999,11936.53381741667,-0.637939453125,0.61236572265625,-0.4463653564453125,11936.52120441667,2.852089453729465,-0.9859832991774993,-0.6742513495841098,-0.01946292072534561,-0.06620258837938309,0.02501288987696171,0.01730692386627197,-0.0147240161895752,-0.01516872644424438,XArbitraryZVertical,0.3999205020322158,-0.3527639239682946,0.8452201575120215,-0.03498983694750696,-0.6513554453849792,0.6243126392364502,-0.4312424063682556,0,0,0,-1,-1,11912.735939625,unknown,2,2025-04-30T12:11:31.479+03:00,2025-04-30T12:00:08.093+03:00,94,1.480054,0,0,78.64606,0,0,2025-04-30T12:11:34.059+03:00,767697114.7967689,0,2.14,100.9397,1,0.8,2025-04-30T12:11:47.395+03:00,111,1.85,2025-04-22T14:20:19.516+03:00,0.02197104130929222,0
2025-04-30T12:11:55.289+03:00,1746004311.644837,40.95225006229428,29.14029629289345,76.41664,-1,-1,-1,-1,30,20.44752438444682,-9999,11936.54389341667,-0.64910888671875,0.614532470703125,-0.4385833740234375,11936.53128141667,2.852025253959062,-0.9867023961948379,-0.6746459646673048,-0.01833001337945461,-0.06013191491365433,0.02702117897570133,0.01832675933837891,-0.01112604141235352,-0.01641401648521423,XArbitraryZVertical,0.4001588417428926,-0.3529219933877822,0.8450331044057768,-0.03518520824368973,-0.6514596939086914,0.6246208548545837,-0.430637925863266,0,0,0,-1,-1,11912.735939625,unknown,2,2025-04-30T12:11:31.479+03:00,2025-04-30T12:00:08.093+03:00,94,1.480054,0,0,78.64606,0,0,2025-04-30T12:11:34.059+03:00,767697114.7967689,0,2.14,100.9397,1,0.8,2025-04-30T12:11:47.395+03:00,111,1.85,2025-04-22T14:20:19.516+03:00,0.02197104130929222,0
2025-04-30T12:11:55.300+03:00,1746004311.644837,40.95225006229428,29.14029629289345,76.41664,-1,-1,-1,-1,30,20.44752438444682,-9999,11936.55397041667,-0.659271240234375,0.6195068359375,-0.4266357421875,11936.54135741667,2.851986553668706,-0.9872959022606697,-0.6750468832502551,-0.0241090040653944,-0.05202731490135193,0.03175471723079681,0.01078957319259644,-0.01238507032394409,-0.01478725671768188,XArbitraryZVertical,0.4003475904926022,-0.3530795713922317,0.8448701710191379,-0.03537066671788024,-0.6515061259269714,0.6249338984489441,-0.4301132559776306,0,0,0,-1,-1,11912.735939625,unknown,2,2025-04-30T12:11:31.479+03:00,2025-04-30T12:00:08.093+03:00,94,1.480054,0,0,78.64606,0,0,2025-04-30T12:11:34.059+03:00,767697114.7967689,0,2.14,100.9397,1,0.8,2025-04-30T12:11:47.395+03:00,111,1.85,2025-04-22T14:20:19.516+03:00,0.02197104130929222,0
2025-04-30T12:11:55.310+03:00,1746004311.644837,40.95225006229428,29.14029629289345,76.41664,-1,-1,-1,-1,30,20.44752438444682,-9999,11936.56404641667,-0.6687164306640625,0.6266326904296875,-0.42132568359375,11936.55143441667,2.851960030114779,-0.9877876516008848,-0.6754714825514335,-0.02278434857726097,-0.04187002032995224,0.03416886925697327,-0.0005883574485778809,-0.008657634258270264,-0.005182981491088867,XArbitraryZVertical,0.4004921800332111,-0.3532458921602282,0.8447246346721744,-0.03554916172387018,-0.6514960527420044,0.62526535987854,-0.4296467006206512,0,0,0,-1,-1,11912.735939625,unknown,2,2025-04-30T12:11:31.479+03:00,2025-04-30T12:00:08.093+03:00,94,1.480054,0,0,78.64606,0,0,2025-04-30T12:11:34.059+03:00,767697114.7967689,0,2.14,100.9397,1,0.8,2025-04-30T12:11:47.395+03:00,111,1.85,2025-04-22T14:20:19.516+03:00,0.02197104130929222,0
2025-04-30T12:11:55.320+03:00,1746004311.644837,40.95225006229428,29.14029629289345,76.41664,-1,-1,-1,-1,30,20.44752438444682,-9999,11936.57412341667,-0.676544189453125,0.642547607421875,-0.4222412109375,11936.56151041667,2.852051828690686,-0.9880626758519466,-0.6758542259133247,-0.007471905089914799,-0.02452771365642548,0.03523430228233337,-0.009688019752502441,-0.004912734031677246,0.00457686185836792,XArbitraryZVertical,0.4005718455355736,-0.3533755736242689,0.8446250411847489,-0.0357292608397855,-0.6514143347740173,0.6255639791488647,-0.4293358027935028,0,0,0,-1,-1,11912.735939625,unknown,2,2025-04-30T12:11:31.479+03:00,2025-04-30T12:00:08.093+03:00,94,1.480054,0,0,78.64606,0,0,2025-04-30T12:11:34.059+03:00,767697114.7967689,0,2.14,100.9397,1,0.8,2025-04-30T12:11:47.395+03:00,111,1.85,2025-04-22T14:20:19.516+03:00,0.02197104130929222,0
2025-04-30T12:11:55.330+03:00,1746004311.644837,40.95225006229428,29.14029629289345,76.41664,-1,-1,-1,-1,30,20.44752438444682,-9999,11936.58419941667,-0.6744842529296875,0.655242919921875,-0.42169189453125,11936.57158741667,2.852385256613639,-0.9879922771619734,-0.6760483780483693,0.02158770896494389,-0.008861668407917023,0.02773963287472725,-0.01990574598312378,0.004121661186218262,0.007409274578094482,XArbitraryZVertical,0.4005742885675171,-0.3533876413613942,0.8446114286036837,-0.03590466085197216,-0.6512827277183533,0.625715434551239,-0.4293148219585419,0,0,0,-1,-1,11912.735939625,unknown,2,2025-04-30T12:11:31.479+03:00,2025-04-30T12:00:08.093+03:00,94,1.480054,0,0,78.64606,0,0,2025-04-30T12:11:34.059+03:00,767697114.7967689,0,2.14,100.9397,1,0.8,2025-04-30T12:11:47.395+03:00,111,1.85,2025-04-22T14:20:19.516+03:00,0.02197104130929222,0
2025-04-30T12:11:55.340+03:00,1746004311.644837,40.95225006229428,29.14029629289345,76.41664,-1,-1,-1,-1,30,20.44752438444682,-9999,11936.59427541667,-0.6666107177734375,0.65948486328125,-0.41973876953125,11936.58166341667,2.85299072079681,-0.9875627678499254,-0.6759827505787038,0.04865541309118271,0.006020741071552038,0.01857669651508331,-0.02544224262237549,0.02063709497451782,0.008032023906707764,XArbitraryZVertical,0.4005088715497574,-0.3532478784706192,0.8446939671742123,-0.03606855350731927,-0.6511325836181641,0.625664234161377,-0.429617166519165,0,0,0,-1,-1,11912.735939625,unknown,2,2025-04-30T12:11:31.479+03:00,2025-04-30T12:00:08.093+03:00,94,1.480054,0,0,78.64606,0,0,2025-04-30T12:11:34.059+03:00,767697114.7967689,0,2.14,100.9397,1,0.8,2025-04-30T12:11:47.395+03:00,111,1.85,2025-04-22T14:20:19.516+03:00,0.02197104130929222,0
2025-04-30T12:11:55.350+03:00,1746004311.644837,40.95225006229428,29.14029629289345,76.41664,-1,-1,-1,-1,30,20.44752438444682,-9999,11936.60435241667,-0.663482666015625,0.65325927734375,-0.4194488525390625,11936.59173941667,2.85382236527929,-0.9868479393355941,-0.6757145407776679,0.07149095833301544,0.01599694229662418,0.0111845601350069,-0.02156597375869751,0.03142058849334717,0.009291797876358032,XArbitraryZVertical,0.4003906590119353,-0.3529870544661287,0.8448520537416373,-0.03622877761126145,-0.65096515417099,0.6254550218582153,-0.4301749169826508,0,0,0,-1,-1,11912.735939625,unknown,2,2025-04-30T12:11:31.479+03:00,2025-04-30T12:00:08.093+03:00,94,1.480054,0,0,78.64606,0,0,2025-04-30T12:11:34.059+03:00,767697114.7967689,0,2.14,100.9397,1,0.8,2025-04-30T12:11:47.395+03:00,111,1.85,2025-04-22T14:20:19.516+03:00,0.02197104130929222,0
2025-04-30T12:11:55.360+03:00,1746004311.644837,40.95225006229428,29.14029629289345,76.41664,-1,-1,-1,-1,30,20.44752438444682,-9999,11936.61442841667,-0.656494140625,0.640289306640625,-0.4235687255859375,11936.60181641667,2.854791229594791,-0.98594477655394,-0.675313307259534,0.08337470889091492,0.02615497261285782,0.005321044940501451,-0.01516902446746826,0.03333598375320435,0.01189488172531128,XArbitraryZVertical,0.4002350077582477,-0.3526490189533252,0.8450604272433138,-0.03638165752228846,-0.6507856249809265,0.6251418590545654,-0.4309012293815613,0,0,0,-1,-1,11912.735939625,unknown,2,2025-04-30T12:11:31.479+03:00,2025-04-30T12:00:08.093+03:00,94,1.480054,0,0,78.64606,0,0,2025-04-30T12:11:34.059+03:00,767697114.7967689,0,2.14,100.9397,1,0.8,2025-04-30T12:11:47.395+03:00,111,1.85,2025-04-22T14:20:19.516+03:00,0.02197104130929222,0
2025-04-30T12:11:55.370+03:00,1746004311.644837,40.95225006229428,29.14029629289345,76.41664,-1,-1,-1,-1,30,20.44752438444682,-9999,11936.62450541667,-0.6483154296875,0.6218109130859375,-0.4301605224609375,11936.61189241667,2.855841415655964,-0.9849406468645067,-0.674856754543361,0.08474144339561462,0.02722129970788956,0.005921587813645601,-0.01223623752593994,0.02571195363998413,0.01200398802757263,XArbitraryZVertical,0.4000582334000156,-0.3522744830896193,0.8452935053155213,-0.03653819602288207,-0.6505903005599976,0.6247854828834534,-0.4317122101783752,0,0,0,-1,-1,11912.735939625,unknown,2,2025-04-30T12:11:31.479+03:00,2025-04-30T12:00:08.093+03:00,94,1.480054,0,0,78.64606,0,0,2025-04-30T12:11:34.059+03:00,767697114.7967689,0,2.14,100.9397,1,0.8,2025-04-30T12:11:47.395+03:00,111,1.85,2025-04-22T14:20:19.516+03:00,0.02197104130929222,0
2025-04-30T12:11:55.387+03:00,1746004311.644837,40.95225006229428,29.14029629289345,76.41664,-1,-1,-1,-1,30,20.44752438444682,-9999,11936.63458141667,-0.639129638671875,0.6101531982421875,-0.4375,11936.62196941667,2.85679366511912,-0.9840550585868734,-0.6744326819286081,0.07219795882701874,0.016993697732687,0.006670201662927866,-0.004143178462982178,0.0115014910697937,0.00705033540725708,XArbitraryZVertical,0.3999094152138429,-0.3519304206642401,0.8455010336181248,-0.03668235486009289,-0.6504283547401428,0.6244543194770813,-0.4324348866939545,0,0,0,-1,-1,11912.735939625,unknown,2,2025-04-30T12:11:31.479+03:00,2025-04-30T12:00:08.093+03:00,94,1.480054,0,0,78.64606,0,0,2025-04-30T12:11:34.059+03:00,767697114.7967689,0,2.14,100.9397,1,0.8,2025-04-30T12:11:47.395+03:00,111,1.85,2025-04-22T14:20:19.516+03:00,0.02197104130929222,0
2025-04-30T12:11:55.390+03:00,1746004311.644837,40.95225006229428,29.14029629289345,76.41664,-1,-1,-1,-1,30,20.44752438444682,-9999,11936.64465741667,-0.6348419189453125,0.604095458984375,-0.4410552978515625,11936.63204541667,2.857574842431478,-0.983433756632325,-0.6740989836823202,0.0594097264111042,0.008216717280447483,0.01079144421964884,0.004977703094482422,-0.00615161657333374,0.0009627342224121094,XArbitraryZVertical,0.3998296310050399,-0.3516519624544964,0.8456484575382935,-0.03682287642281918,-0.6503329277038574,0.6241936087608337,-0.432954341173172,0,0,0,-1,-1,11912.735939625,unknown,2,2025-04-30T12:11:31.479+03:00,2025-04-30T12:00:08.093+03:00,94,1.480054,0,0,78.64606,0,0,2025-04-30T12:11:34.059+03:00,767697114.7967689,0,2.14,100.9397,1,0.8,2025-04-30T12:11:47.395+03:00,111,1.85,2025-04-22T14:20:19.516+03:00,0.02197104130929222,0
2025-04-30T12:11:55.400+03:00,1746004311.644837,40.95225006229428,29.14029629289345,76.41664,-1,-1,-1,-1,30,20.44752438444682,-9999,11936.65473441667,-0.6312255859375,0.5994415283203125,-0.441558837890625,11936.64212141667,2.858171711550634,-0.9830910439637636,-0.6739083900705531,0.04029401764273643,-0.004908206406980753,0.01429706253111362,0.01213037967681885,-0.01598197221755981,-0.004729866981506348,XArbitraryZVertical,0.3998155699890844,-0.351462578990491,0.8457274528365418,-0.036969062668481,-0.6502835154533386,0.6240447163581848,-0.4332431256771088,0,0,0,-1,-1,11912.735939625,unknown,2,2025-04-30T12:11:31.479+03:00,2025-04-30T12:00:08.093+03:00,94,1.480054,0,0,78.64606,0,0,2025-04-30T12:11:34.059+03:00,767697114.7967689,0,2.14,100.9397,1,0.8,2025-04-30T12:11:47.395+03:00,111,1.85,2025-04-22T14:20:19.516+03:00,0.02197104130929222,0
2025-04-30T12:11:55.410+03:00,1746004311.644837,40.95225006229428,29.14029629289345,76.41664,-1,-1,-1,-1,30,20.44752438444682,-9999,11936.66481041667,-0.6282196044921875,0.5982208251953125,-0.439178466796875,11936.65219841667,2.858526184204458,-0.9830418525732009,-0.6738650487567065,0.01870004460215569,-0.0150777529925108,0.01596580073237419,0.01599210500717163,-0.02192950248718262,-0.00797879695892334,XArbitraryZVertical,0.3998629359190677,-0.3513752483700442,0.845735647902113,-0.03709984195126166,-0.6502847671508789,0.6240108609199524,-0.4332901239395142,0,0,0,-1,-1,11912.735939625,unknown,2,2025-04-30T12:11:31.479+03:00,2025-04-30T12:00:08.093+03:00,94,1.480054,0,0,78.64606,0,0,2025-04-30T12:11:34.059+03:00,767697114.7967689,0,2.14,100.9397,1,0.8,2025-04-30T12:11:47.395+03:00,111,1.85,2025-04-22T14:20:19.516+03:00,0.02197104130929222,0
2025-04-30T12:11:55.421+03:00,1746004311.644837,40.95225006229428,29.14029629289345,76.41664,-1,-1,-1,-1,30,20.44752438444682,-9999,11936.6748885,-0.63189697265625,0.60516357421875,-0.4367218017578125,11936.66227441667,2.858719098932867,-0.983218757381772,-0.6739672186369732,0.01059324853122234,-0.02383835427463055,0.01901478692889214,0.02039498090744019,-0.02510690689086914,-0.008098632097244263,XArbitraryZVertical,0.3999577538866306,-0.3513743427488155,0.8456851359057885,-0.03723714082351598,-0.6503083109855652,0.6240906715393066,-0.4331397414207458,0,0,0,-1,-1,11912.735939625,unknown,2,2025-04-30T12:11:31.479+03:00,2025-04-30T12:00:08.093+03:00,94,1.480054,0,0,78.64606,0,0,2025-04-30T12:11:34.059+03:00,767697114.7967689,0,2.14,100.9397,1,0.8,2025-04-30T12:11:47.395+03:00,111,1.85,2025-04-22T14:20:19.516+03:00,0.02197104130929222,0
2025-04-30T12:11:55.430+03:00,1746004311.644837,40.95225006229428,29.14029629289345,76.41664,-1,-1,-1,-1,30,20.44752438444682,-9999,11936.6849645,-0.636749267578125,0.611785888671875,-0.4344940185546875,11936.6723525,2.858826402003666,-0.9834753130779341,-0.6741726490451144,0.001463932334445417,-0.02316217869520187,0.01728746108710766,0.02116221189498901,-0.02470284700393677,-0.00537639856338501,XArbitraryZVertical,0.400057162559453,-0.3514304359491868,0.8456086377609547,-0.03737710840245796,-0.6503126621246338,0.6242511868476868,-0.4329018294811249,0,0,0,-1,-1,11912.735939625,unknown,2,2025-04-30T12:11:31.479+03:00,2025-04-30T12:00:08.093+03:00,94,1.480054,0,0,78.64606,0,0,2025-04-30T12:11:34.059+03:00,767697114.7967689,0,2.14,100.9397,1,0.8,2025-04-30T12:11:47.395+03:00,111,1.85,2025-04-22T14:20:19.516+03:00,0.02197104130929222,0
2025-04-30T12:11:55.441+03:00,1746004311.644837,40.95225006229428,29.14029629289345,76.41664,-1,-1,-1,-1,30,20.44752438444682,-9999,11936.6950415,-0.635772705078125,0.6120452880859375,-0.4309844970703125,11936.6824285,2.858835939008852,-0.9837714754710691,-0.6744391775305284,-0.00940642599016428,-0.02336018346250057,0.01797222532331944,0.01674211025238037,-0.01723581552505493,-0.003952145576477051,XArbitraryZVertical,0.4001478085796265,-0.3515297979146833,0.8455191498252358,-0.03749742981582158,-0.6503023505210876,0.6244593858718872,-0.4326170682907104,0,0,0,-1,-1,11912.735939625,unknown,2,2025-04-30T12:11:31.479+03:00,2025-04-30T12:00:08.093+03:00,94,1.480054,0,0,78.64606,0,0,2025-04-30T12:11:34.059+03:00,767697114.7967689,0,2.14,100.9397,1,0.8,2025-04-30T12:11:47.395+03:00,111,1.85,2025-04-22T14:20:19.516+03:00,0.02197104130929222,0
2025-04-30T12:11:55.450+03:00,1746004311.644837,40.95225006229428,29.14029629289345,76.41664,-1,-1,-1,-1,30,20.44752438444682,-9999,11936.7051175,-0.63641357421875,0.6120758056640625,-0.4327239990234375,11936.6925055,2.858777231808299,-0.9841265807916459,-0.6747207271958262,-0.01754477806389332,-0.02755972370505333,0.01540866587311029,0.01354491710662842,-0.01194733381271362,-0.001076102256774902,XArbitraryZVertical,0.4002493073500475,-0.3516476940045197,0.8454174197577955,-0.03760292564062623,-0.6503095030784607,0.6246792674064636,-0.43228879570961,0,0,0,-1,-1,11912.735939625,unknown,2,2025-04-30T12:11:31.479+03:00,2025-04-30T12:00:08.093+03:00,94,1.480054,0,0,78.64606,0,0,2025-04-30T12:11:34.059+03:00,767697114.7967689,0,2.14,100.9397,1,0.8,2025-04-30T12:11:47.395+03:00,111,1.85,2025-04-22T14:20:19.516+03:00,0.02197104130929222,0
2025-04-30T12:11:55.460+03:00,1746004311.644837,40.95225006229428,29.14029629289345,76.41664,-1,-1,-1,-1,30,20.44752438444682,-9999,11936.7151935,-0.640045166015625,0.612396240234375,-0.4379425048828125,11936.7025815,2.858564210988579,-0.9845865705716123,-0.675070282085228,-0.04381300136446953,-0.02989331819117069,0.01864820159971714,0.01459932327270508,-0.01273900270462036,0.00126570463180542,XArbitraryZVertical,0.4003587136752247,-0.3518217132057219,0.8452898401010382,-0.03767814270900031,-0.6503263115882874,0.6249521970748901,-0.4318687617778778,0,0,0,-1,-1,11912.735939625,unknown,2,2025-04-30T12:11:31.479+03:00,2025-04-30T12:00:08.093+03:00,94,1.480054,0,0,78.64606,0,0,2025-04-30T12:11:34.059+03:00,767697114.7967689,0,2.14,100.9397,1,0.8,2025-04-30T12:11:47.395+03:00,111,1.85,2025-04-22T14:20:19.516+03:00,0.02197104130929222,0
2025-04-30T12:11:55.471+03:00,1746004311.644837,40.95225006229428,29.14029629289345,76.41664,-1,-1,-1,-1,30,20.44752438444682,-9999,11936.7252705,-0.6417388916015625,0.609405517578125,-0.441253662109375,11936.7126575,2.857938250819968,-0.9852766056259668,-0.6755486332472473,-0.08085250854492188,-0.03057189099490643,0.007388622965663671,0.0127406120300293,-0.01308184862136841,-0.00270533561706543,XArbitraryZVertical,0.4004750014606615,-0.3521256139993522,0.8451094118361069,-0.03765054405465262,-0.6503749489784241,0.6253255605697632,-0.431254655122757,0,0,0,-1,-1,11912.735939625,unknown,2,2025-04-30T12:11:31.479+03:00,2025-04-30T12:00:08.093+03:00,94,1.480054,0,0,78.64606,0,0,2025-04-30T12:11:34.059+03:00,767697114.7967689,0,2.14,100.9397,1,0.8,2025-04-30T12:11:47.395+03:00,111,1.85,2025-04-22T14:20:19.516+03:00,0.02197104130929222,0
2025-04-30T12:11:55.481+03:00,1746004311.644837,40.95225006229428,29.14029629289345,76.41664,-1,-1,-1,-1,30,20.44752438444682,-9999,11936.7353465,-0.640411376953125,0.6024017333984375,-0.4389495849609375,11936.7227345,2.8568014744302,-0.9862518050212794,-0.6762320988574344,-0.1731235235929489,-0.0296317283064127,0.003344246884807944,0.009554147720336914,-0.01416438817977905,-0.008199155330657959,XArbitraryZVertical,0.400593446812825,-0.35260852491209,0.8448582293430167,-0.03750725646014185,-0.6504386067390442,0.6258587241172791,-0.4303842484951019,0,0,0,-1,-1,11912.735939625,unknown,2,2025-04-30T12:11:31.479+03:00,2025-04-30T12:00:08.093+03:00,94,1.480054,0,0,78.64606,0,0,2025-04-30T12:11:34.059+03:00,767697114.7967689,0,2.14,100.9397,1,0.8,2025-04-30T12:11:47.395+03:00,111,1.85,2025-04-22T14:20:19.516+03:00,0.02197104130929222,0
2025-04-30T12:11:55.491+03:00,1746004311.644837,40.95225006229428,29.14029629289345,76.41664,-1,-1,-1,-1,30,20.44752438444682,-9999,11936.7454235,-0.6362457275390625,0.597625732421875,-0.44769287109375,11936.7328105,2.854943656940671,-0.9876348862938007,-0.6772223060297884,-0.1918817609548569,-0.03261873126029968,0.01716072671115398,0.009509086608886719,-0.01919358968734741,-0.01240086555480957,XArbitraryZVertical,0.4007140762812377,-0.3533508994379181,0.844504094142121,-0.03720630403232338,-0.650515615940094,0.6266307234764099,-0.4291427433490753,0,0,0,-1,-1,11912.735939625,unknown,2,2025-04-30T12:11:31.479+03:00,2025-04-30T12:00:08.093+03:00,94,1.480054,0,0,78.64606,0,0,2025-04-30T12:11:34.059+03:00,767697114.7967689,0,2.14,100.9397,1,0.8,2025-04-30T12:11:47.395+03:00,111,1.85,2025-04-22T14:20:19.516+03:00,0.02197104130929222,0
2025-04-30T12:11:55.501+03:00,1746004311.644837,40.95225006229428,29.14029629289345,76.41664,-1,-1,-1,-1,30,20.44752438444682,-9999,11936.7554995,-0.6331787109375,0.6064910888671875,-0.450347900390625,11936.7428875,2.853048100824116,-0.9891209326498939,-0.6784733232258016,-0.2018961757421494,-0.03893215209245682,0.02880067005753517,0.01042139530181885,-0.027507483959198,-0.01257830858230591,XArbitraryZVertical,0.4008340469151598,-0.3542030292348142,0.8441004268762162,-0.03697207530751152,-0.6504971385002136,0.6276051998138428,-0.4277445673942566,0,0,0,-1,-1,11912.735939625,unknown,2,2025-04-30T12:11:31.479+03:00,2025-04-30T12:00:08.093+03:00,94,1.480054,0,0,78.64606,0,0,2025-04-30T12:11:34.059+03:00,767697114.7967689,0,2.14,100.9397,1,0.8,2025-04-30T12:11:47.395+03:00,111,1.85,2025-04-22T14:20:19.516+03:00,0.02197104130929222,0
2025-04-30T12:11:55.511+03:00,1746004311.644837,40.95225006229428,29.14029629289345,76.41664,-1,-1,-1,-1,30,20.44752438444682,-9999,11936.7655765,-0.6435699462890625,0.6172027587890625,-0.46771240234375,11936.7529635,2.851234039280504,-0.9905571154711822,-0.6798101617566473,-0.1978071630001068,-0.03008459880948067,0.04477484524250031,0.01666516065597534,-0.02970731258392334,-0.02239620685577393,XArbitraryZVertical,0.4009337346004367,-0.355073734296152,0.843695345607001,-0.03678573684180894,-0.6504085659980774,0.6286454200744629,-0.4263495802879333,0,0,0,-1,-1,11912.735939625,unknown,2,2025-04-30T12:11:31.479+03:00,2025-04-30T12:00:08.093+03:00,94,1.480054,0,0,78.64606,0,0,2025-04-30T12:11:34.059+03:00,767697114.7967689,0,2.14,100.9397,1,0.8,2025-04-30T12:11:47.395+03:00,111,1.85,2025-04-22T14:20:19.516+03:00,0.02197104130929222,0
2025-04-30T12:11:55.521+03:00,1746004311.644837,40.95225006229428,29.14029629289345,76.41664,-1,-1,-1,-1,30,20.44752438444682,-9999,11936.7756525,-0.648101806640625,0.6159820556640625,-0.4785003662109375,11936.7630405,2.849364007276333,-0.9919080824184954,-0.6813526412516066,-0.2242538183927536,-0.01470710709691048,0.05464857816696167,0.01436811685562134,-0.02030140161514282,-0.0284755527973175,XArbitraryZVertical,0.4009571729070288,-0.3560388508225292,0.8432847378765992,-0.03661234840746985,-0.6501712799072266,0.6298442482948303,-0.42493936419487,0,0,0,-1,-1,11912.735939625,unknown,2,2025-04-30T12:11:31.479+03:00,2025-04-30T12:00:08.093+03:00,94,1.480054,0,0,78.64606,0,0,2025-04-30T12:11:34.059+03:00,767697114.7967689,0,2.14,100.9397,1,0.8,2025-04-30T12:11:47.395+03:00,111,1.85,2025-04-22T14:20:19.516+03:00,0.02197104130929222,0
2025-04-30T12:11:55.531+03:00,1746004311.644837,40.95225006229428,29.14029629289345,76.41664,-1,-1,-1,-1,30,20.44752438444682,-9999,11936.7857285,-0.6467132568359375,0.6087646484375,-0.486541748046875,11936.7731165,2.847144429753047,-0.9933914125155153,-0.6831451100007523,-0.2730783522129059,-0.01357979141175747,0.05798126012086868,0.004117310047149658,-0.01354438066482544,-0.04873400926589966,XArbitraryZVertical,0.4009368397512857,-0.3571705791754122,0.8428260272572097,-0.03637747683770552,-0.6498540639877319,0.6312354803085327,-0.4233576655387878,0,0,0,-1,-1,11912.735939625,unknown,2,2025-04-30T12:11:31.479+03:00,2025-04-30T12:00:08.093+03:00,94,1.480054,0,0,78.64606,0,0,2025-04-30T12:11:34.059+03:00,767697114.7967689,0,2.14,100.9397,1,0.8,2025-04-30T12:11:47.395+03:00,111,1.85,2025-04-22T14:20:19.516+03:00,0.02197104130929222,0
2025-04-30T12:11:55.541+03:00,1746004311.644837,40.95225006229428,29.14029629289345,76.41664,-1,-1,-1,-1,30,20.44752438444682,-9999,11936.7958055,-0.6384429931640625,0.6100311279296875,-0.5168304443359375,11936.7831925,2.844171621103641,-0.9953902154772052,-0.6854015030984036,-0.3738194704055786,-0.02268367633223534,0.06961827725172043,0.0009579658508300781,-0.01813101768493652,-0.05814948678016663,XArbitraryZVertical,0.4009306337117243,-0.3586276564093487,0.8422247132924153,-0.03603334284571751,-0.6495022773742676,0.6329838633537292,-0.4212816655635834,0,0,0,-1,-1,11912.735939625,unknown,2,2025-04-30T12:11:31.479+03:00,2025-04-30T12:00:08.093+03:00,94,1.480054,0,0,78.64606,0,0,2025-04-30T12:11:34.059+03:00,767697114.7967689,0,2.14,100.9397,1,0.8,2025-04-30T12:11:47.395+03:00,111,1.85,2025-04-22T14:20:19.516+03:00,0.02197104130929222,0
2025-04-30T12:11:55.551+03:00,1746004311.644837,40.95225006229428,29.14029629289345,76.41664,-1,-1,-1,-1,30,20.44752438444682,-9999,11936.8058815,-0.626251220703125,0.61383056640625,-0.566986083984375,11936.7932695,2.840212500939002,-0.998295288168383,-0.6883001534049945,-0.4663286507129669,-0.07216521352529526,0.091243676841259,0.003746867179870605,-0.02687257528305054,-0.07382071018218994,XArbitraryZVertical,0.4010321295643818,-0.3605198630134775,0.8413866617460131,-0.0355982141302949,-0.6491784453392029,0.635225236415863,-0.4183973073959351,0,0,0,-1,-1,11912.735939625,unknown,2,2025-04-30T12:11:31.479+03:00,2025-04-30T12:00:08.093+03:00,94,1.480054,0,0,78.64606,0,0,2025-04-30T12:11:34.059+03:00,767697114.7967689,0,2.14,100.9397,1,0.8,2025-04-30T12:11:47.395+03:00,111,1.85,2025-04-22T14:20:19.516+03:00,0.02197104130929222,0
2025-04-30T12:11:55.562+03:00,1746004311.644837,40.95225006229428,29.14029629289345,76.41664,-1,-1,-1,-1,30,20.44752438444682,-9999,11936.8159585,-0.62579345703125,0.6236572265625,-0.6013031005859375,11936.8033455,2.835285707839253,-1.002403987617179,-0.6919987843784821,-0.5748030543327332,-0.1349791884422302,0.1238813176751137,0.01322633028030396,-0.02749699354171753,-0.1142122149467468,XArbitraryZVertical,0.4013407639527148,-0.3628995693885056,0.8402333141176068,-0.03517814651944472,-0.648907482624054,0.638077437877655,-0.4144589900970459,0,0,0,-1,-1,11912.735939625,unknown,2,2025-04-30T12:11:31.479+03:00,2025-04-30T12:00:08.093+03:00,94,1.480054,0,0,78.64606,0,0,2025-04-30T12:11:34.059+03:00,767697114.7967689,0,2.14,100.9397,1,0.8,2025-04-30T12:11:47.395+03:00,111,1.85,2025-04-22T14:20:19.516+03:00,0.02197104130929222,0
2025-04-30T12:11:55.571+03:00,1746004311.644837,40.95225006229428,29.14029629289345,76.41664,-1,-1,-1,-1,30,20.44752438444682,-9999,11936.8260345,-0.6396331787109375,0.6187896728515625,-0.6322784423828125,11936.8134225,2.829397112280099,-1.007756015687892,-0.696569520506039,-0.6850632429122925,-0.1828090399503708,0.1682431846857071,0.02457410097122192,-0.02496719360351562,-0.1682939231395721,XArbitraryZVertical,0.401854443998965,-0.3657915526024008,0.8387477930607558,-0.03480913524384304,-0.6486432552337646,0.6415901184082031,-0.4094190895557404,0,0,0,-1,-1,11912.735939625,unknown,2,2025-04-30T12:11:31.479+03:00,2025-04-30T12:00:08.093+03:00,94,1.480054,0,0,78.64606,0,0,2025-04-30T12:11:34.059+03:00,767697114.7967689,0,2.14,100.9397,1,0.8,2025-04-30T12:11:47.395+03:00,111,1.85,2025-04-22T14:20:19.516+03:00,0.02197104130929222,0
2025-04-30T12:11:55.581+03:00,1746004311.644837,40.95225006229428,29.14029629289345,76.41664,-1,-1,-1,-1,30,20.44752438444682,-9999,11936.8361115,-0.6501617431640625,0.6160430908203125,-0.644317626953125,11936.8234985,2.822046183577675,-1.014429974035175,-0.7022685452536955,-0.8734787106513977,-0.2012767195701599,0.1920162886381149,0.01897335052490234,-0.0220649242401123,-0.2049497365951538,XArbitraryZVertical,0.4024638176781821,-0.3693929056151947,0.8368933995483742,-0.03437096315506166,-0.6482458710670471,0.6459510922431946,-0.4031435251235962,0,0,0,-1,-1,11912.735939625,unknown,2,2025-04-30T12:11:31.479+03:00,2025-04-30T12:00:08.093+03:00,94,1.480054,0,0,78.64606,0,0,2025-04-30T12:11:34.059+03:00,767697114.7967689,0,2.14,100.9397,1,0.8,2025-04-30T12:11:52.395+03:00,113,1.883333333333333,2025-04-22T14:20:19.516+03:00,0.02197104130929222,0
2025-04-30T12:11:55.591+03:00,1746004311.644837,40.95225006229428,29.14029629289345,76.41664,-1,-1,-1,-1,30,20.44752438444682,-9999,11936.8461875,-0.6476287841796875,0.6244049072265625,-0.657745361328125,11936.8335755,2.812384711910352,-1.022838734296763,-0.709145931170951,-1.088759541511536,-0.2274156510829926,0.2023578733205795,0.005349218845367432,-0.03332692384719849,-0.2427831888198853,XArbitraryZVertical,0.4031556214168135,-0.3738826290876739,0.8345940609426039,-0.03361654313356638,-0.6478052735328674,0.6511858105659485,-0.3953546583652496,0,0,0,-1,-1,11912.735939625,unknown,2,2025-04-30T12:11:31.479+03:00,2025-04-30T12:00:08.093+03:00,94,1.480054,0,0,78.64606,0,0,2025-04-30T12:11:34.059+03:00,767697114.7967689,0,2.14,100.9397,1,0.8,2025-04-30T12:11:52.395+03:00,113,1.883333333333333,2025-04-22T14:20:19.516+03:00,0.02197104130929222,0
2025-04-30T12:11:55.602+03:00,1746004311.644837,40.95225006229428,29.14029629289345,76.41664,-1,-1,-1,-1,30,20.44752438444682,-9999,11936.8562635,-0.6211395263671875,0.64788818359375,-0.6978759765625,11936.8436515,2.80014087796493,-1.033238397386051,-0.71723955280439,-1.310085892677307,-0.2505742311477661,0.2390120327472687,-0.005010426044464111,-0.04158413410186768,-0.2600499987602234,XArbitraryZVertical,0.4039466392700811,-0.3793212010275868,0.8317963611739713,-0.03251772672194621,-0.6473333835601807,0.6573068499565125,-0.385885089635849,0,0,0,-1,-1,11912.735939625,unknown,2,2025-04-30T12:11:31.479+03:00,2025-04-30T12:00:08.093+03:00,94,1.480054,0,0,78.64606,0,0,2025-04-30T12:11:34.059+03:00,767697114.7967689,0,2.14,100.9397,1,0.8,2025-04-30T12:11:52.395+03:00,113,1.883333333333333,2025-04-22T14:20:19.516+03:00,0.02197104130929222,0
2025-04-30T12:11:55.612+03:00,1746004311.644837,40.95225006229428,29.14029629289345,76.41664,-1,-1,-1,-1,30,20.44752438444682,-9999,11936.8663405,-0.5861968994140625,0.6618804931640625,-0.7201690673828125,11936.8537275,2.78586733153872,-1.0452542024106,-0.7268134613454091,-1.485026478767395,-0.2615025043487549,0.3232235908508301,0.003871560096740723,-0.03534132242202759,-0.2903936207294464,XArbitraryZVertical,0.4047033307872895,-0.3856978208612358,0.8285351627124604,-0.03133568570013504,-0.6464496850967407,0.6644917130470276,-0.3749048113822937,0,0,0,-1,-1,11912.735939625,unknown,2,2025-04-30T12:11:31.479+03:00,2025-04-30T12:00:08.093+03:00,94,1.480054,0,0,78.64606,0,0,2025-04-30T12:11:34.059+03:00,767697114.7967689,0,2.14,100.9397,1,0.8,2025-04-30T12:11:52.395+03:00,113,1.883333333333333,2025-04-22T14:20:19.516+03:00,0.02197104130929222,0
2025-04-30T12:11:55.622+03:00,1746004311.644837,40.95225006229428,29.14029629289345,76.41664,-1,-1,-1,-1,30,20.44752438444682,-9999,11936.8764165,-0.5602264404296875,0.6789093017578125,-0.7027587890625,11936.8638045,2.76974217960217,-1.059863897233545,-0.7376428014368394,-1.631981253623962,-0.515558660030365,0.3583183884620667,0.03273439407348633,-0.02043044567108154,-0.3462950885295868,XArbitraryZVertical,0.4058543754502709,-0.392863784404362,0.8246339858649193,-0.03031588117760007,-0.6455426216125488,0.672545313835144,-0.3618805408477783,0,0,0,-1,-1,11912.735939625,unknown,2,2025-04-30T12:11:31.479+03:00,2025-04-30T12:00:08.093+03:00,94,1.480054,0,0,78.64606,0,0,2025-04-30T12:11:34.059+03:00,767697114.7967689,0,2.14,100.9397,1,0.8,2025-04-30T12:11:52.395+03:00,113,1.883333333333333,2025-04-22T14:20:19.516+03:00,0.02197104130929222,0
2025-04-30T12:11:55.633+03:00,1746004311.644837,40.95225006229428,29.14029629289345,76.41664,-1,-1,-1,-1,30,20.44752438444682,-9999,11936.8864935,-0.591217041015625,0.6865234375,-0.674896240234375,11936.8738805,2.752073769617981,-1.077656748844301,-0.7491888718633362,-1.732923269271851,-0.6331251859664917,0.4129137098789215,0.06908327341079712,-0.01452583074569702,-0.3706312775611877,XArbitraryZVertical,0.4077412040281259,-0.4005343882644978,0.8200260241847909,-0.02961167312806305,-0.6449958086013794,0.6810450553894043,-0.3466386198997498,0,0,0,-1,-1,11912.735939625,unknown,2,2025-04-30T12:11:31.479+03:00,2025-04-30T12:00:08.093+03:00,94,1.480054,0,0,78.64606,0,0,2025-04-30T12:11:34.059+03:00,767697114.7967689,0,2.14,100.9397,1,0.8,2025-04-30T12:11:52.395+03:00,113,1.883333333333333,2025-04-22T14:20:19.516+03:00,0.02197104130929222,0
2025-04-30T12:11:55.642+03:00,1746004311.644837,40.95225006229428,29.14029629289345,76.41664,-1,-1,-1,-1,30,20.44752438444682,-9999,11936.8965695,-0.60626220703125,0.6916656494140625,-0.6293182373046875,11936.8839575,2.733528695831902,-1.097425502144015,-0.7613679125067944,-1.760549426078796,-0.7672661542892456,0.4801079630851746,0.08034169673919678,-0.009065151214599609,-0.3674949109554291,XArbitraryZVertical,0.4099723448612649,-0.4085526307537377,0.8149539968814141,-0.02928138209672219,-0.6442912220954895,0.6899123191833496,-0.3300148546695709,0,0,0,-1,-1,11912.735939625,unknown,2,2025-04-30T12:11:31.479+03:00,2025-04-30T12:00:08.093+03:00,94,1.480054,0,0,78.64606,0,0,2025-04-30T12:11:34.059+03:00,767697114.7967689,0,2.14,100.9397,1,0.8,2025-04-30T12:11:52.395+03:00,113,1.883333333333333,2025-04-22T14:20:19.516+03:00,0.02197104130929222,0
2025-04-30T12:11:55.652+03:00,1746004311.644837,40.95225006229428,29.14029629289345,76.41664,-1,-1,-1,-1,30,20.44752438444682,-9999,11936.9066455,-0.6221923828125,0.673736572265625,-0.579925537109375,11936.8940335,2.714269139898559,-1.119087418101806,-0.7738336747556591,-1.802204966545105,-0.8802275657653809,0.5070211291313171,0.04552358388900757,-0.008971452713012695,-0.3531865179538727,XArbitraryZVertical,0.4125752592560387,-0.4167492333038534,0.8094704446068484,-0.02931583686213756,-0.6435002684593201,0.6988823413848877,-0.3122034668922424,0,0,0,-1,-1,11912.735939625,unknown,2,2025-04-30T12:11:31.479+03:00,2025-04-30T12:00:08.093+03:00,94,1.480054,0,0,78.64606,0,0,2025-04-30T12:11:34.059+03:00,767697114.7967689,0,2.14,100.9397,1,0.8,2025-04-30T12:11:52.395+03:00,113,1.883333333333333,2025-04-22T14:20:19.516+03:00,0.02197104130929222,0
2025-04-30T12:11:55.662+03:00,1746004311.644837,40.95225006229428,29.14029629289345,76.41664,-1,-1,-1,-1,30,20.44752438444682,-9999,11936.9167225,-0.6483917236328125,0.66644287109375,-0.5481414794921875,11936.9041095,2.694255458657146,-1.142770954982226,-0.7862958560459105,-1.807310342788696,-1.020616412162781,0.530142068862915,0.0345388650894165,-0.01839494705200195,-0.322560042142868,XArbitraryZVertical,0.4156194603123176,-0.4250188649365894,0.803578695341532,-0.02967744913534349,-0.642738938331604,0.7077412605285645,-0.2932388484477997,0,0,0,-1,-1,11912.735939625,unknown,2,2025-04-30T12:11:31.479+03:00,2025-04-30T12:00:08.093+03:00,94,1.480054,0,0,78.64606,0,0,2025-04-30T12:11:34.059+03:00,767697114.7967689,0,2.14,100.9397,1,0.8,2025-04-30T12:11:52.395+03:00,113,1.883333333333333,2025-04-22T14:20:19.516+03:00,0.02197104130929222,0
2025-04-30T12:11:55.672+03:00,1746004311.644837,40.95225006229428,29.14029629289345,76.41664,-1,-1,-1,-1,30,20.44752438444682,-9999,11936.9267985,-0.640869140625,0.700897216796875,-0.5288238525390625,11936.9141865,2.673767725376064,-1.168097793181576,-0.7985203785942157,-1.771806716918945,-1.104287624359131,0.5355648398399353,0.01267832517623901,-0.04702812433242798,-0.2962758541107178,XArbitraryZVertical,0.4190344061967094,-0.4332225454448302,0.7973749883005402,-0.03035884318943302,-0.6419508457183838,0.7163244485855103,-0.2734567821025848,0,0,0,-1,-1,11912.735939625,unknown,2,2025-04-30T12:11:31.479+03:00,2025-04-30T12:00:08.093+03:00,94,1.480054,0,0,78.64606,0,0,2025-04-30T12:11:34.059+03:00,767697114.7967689,0,2.14,100.9397,1,0.8,2025-04-30T12:11:52.395+03:00,113,1.883333333333333,2025-04-22T14:20:19.516+03:00,0.02197104130929222,0
2025-04-30T12:11:55.682+03:00,1746004311.644837,40.95225006229428,29.14029629289345,76.41664,-1,-1,-1,-1,30,20.44752438444682,-9999,11936.9368755,-0.6120758056640625,0.7585601806640625,-0.499359130859375,11936.9242625,2.653025446188694,-1.194784389170528,-0.810089363874674,-1.752183079719543,-1.238131284713745,0.5028607249259949,-0.009458839893341064,-0.05363345146179199,-0.2896464169025421,XArbitraryZVertical,0.4228248489804803,-0.4411737782779732,0.7909527875709671,-0.03128189879213,-0.6412674784660339,0.724348783493042,-0.2531696856021881,0,0,0,-1,-1,11912.735939625,unknown,2,2025-04-30T12:11:31.479+03:00,2025-04-30T12:00:08.093+03:00,94,1.480054,0,0,78.64606,0,0,2025-04-30T12:11:34.059+03:00,767697114.7967689,0,2.14,100.9397,1,0.8,2025-04-30T12:11:52.395+03:00,113,1.883333333333333,2025-04-22T14:20:19.516+03:00,0.02197104130929222,0
2025-04-30T12:11:55.693+03:00,1746004311.644837,40.95225006229428,29.14029629289345,76.41664,-1,-1,-1,-1,30,20.44752438444682,-9999,11936.9469515,-0.60479736328125,0.7809600830078125,-0.4714508056640625,11936.9343395,2.631522029496475,-1.223768744154242,-0.8212547637096802,-1.77868127822876,-1.354848861694336,0.5407388806343079,0.006427288055419922,-0.01682174205780029,-0.2909452021121979,XArbitraryZVertical,0.4271905656802017,-0.4490558619030972,0.7840908977327932,-0.03253823327971942,-0.640689492225647,0.7320013046264648,-0.2317140996456146,0,0,0,-1,-1,11912.735939625,unknown,2,2025-04-30T12:11:31.479+03:00,2025-04-30T12:00:08.093+03:00,94,1.480054,0,0,78.64606,0,0,2025-04-30T12:11:34.059+03:00,767697114.7967689,0,2.14,100.9397,1,0.8,2025-04-30T12:11:52.395+03:00,113,1.883333333333333,2025-04-22T14:20:19.516+03:00,0.02197104130929222,0
2025-04-30T12:11:55.703+03:00,1746004311.644837,40.95225006229428,29.14029629289345,76.41664,-1,-1,-1,-1,30,20.44752438444682,-9999,11936.9570285,-0.612579345703125,0.7686309814453125,-0.3950653076171875,11936.9444155,2.608151438364233,-1.255048800484678,-0.8325494368022242,-1.950179100036621,-1.458303451538086,0.538281261920929,0.03272807598114014,0.02847796678543091,-0.2826557755470276,XArbitraryZVertical,0.4317419383794019,-0.4572829396330563,0.7767517144075794,-0.03388472018561115,-0.6397227644920349,0.7396495342254639,-0.2089824229478836,0,0,0,-1,-1,11912.735939625,unknown,2,2025-04-30T12:11:31.479+03:00,2025-04-30T12:00:08.093+03:00,94,1.480054,0,0,78.64606,0,0,2025-04-30T12:11:34.059+03:00,767697114.7967689,0,2.14,100.9397,1,0.8,2025-04-30T12:11:52.395+03:00,113,1.883333333333333,2025-04-22T14:20:19.516+03:00,0.02197104130929222,0
2025-04-30T12:11:55.713+03:00,1746004311.644837,40.95225006229428,29.14029629289345,76.41664,-1,-1,-1,-1,30,20.44752438444682,-9999,11936.9671045,-0.647003173828125,0.72259521484375,-0.288360595703125,11936.9544925,2.581434513251735,-1.290440389630648,-0.8434266975686764,-2.075316905975342,-1.59192943572998,0.4825626015663147,0.03279197216033936,0.03438514471054077,-0.2769134044647217,XArbitraryZVertical,0.4369036427813454,-0.4659678518130322,0.7686093836403901,-0.03505510951435158,-0.6389473676681519,0.746925950050354,-0.183978334069252,0,0,0,-1,-1,11912.735939625,unknown,2,2025-04-30T12:11:31.479+03:00,2025-04-30T12:00:08.093+03:00,94,1.480054,0,0,78.64606,0,0,2025-04-30T12:11:34.059+03:00,767697114.7967689,0,2.14,100.9397,1,0.8,2025-04-30T12:11:52.395+03:00,113,1.883333333333333,2025-04-22T14:20:19.516+03:00,0.02197104130929222,0
2025-04-30T12:11:55.723+03:00,1746004311.644837,40.95225006229428,29.14029629289345,76.41664,-1,-1,-1,-1,30,20.44752438444682,-9999,11936.9771805,-0.6663360595703125,0.732269287109375,-0.224090576171875,11936.9645685,2.552096919430841,-1.328840938548487,-0.8534655576529195,-2.16854453086853,-1.664578437805176,0.4435384571552277,0.02053612470626831,0.003745853900909424,-0.2067801207304001,XArbitraryZVertical,0.4424421337596731,-0.4748587780996923,0.7599060719876486,-0.03601257506378062,-0.6382271647453308,0.7535631060600281,-0.1575081944465637,0,0,0,-1,-1,11912.735939625,unknown,2,2025-04-30T12:11:31.479+03:00,2025-04-30T12:00:08.093+03:00,94,1.480054,0,0,78.64606,0,0,2025-04-30T12:11:34.059+03:00,767697114.7967689,0,2.14,100.9397,1,0.8,2025-04-30T12:11:52.395+03:00,113,1.883333333333333,2025-04-22T14:20:19.516+03:00,0.02197104130929222,0
2025-04-30T12:11:55.733+03:00,1746004311.644837,40.95225006229428,29.14029629289345,76.41664,-1,-1,-1,-1,30,20.44752438444682,-9999,11936.9872575,-0.6443939208984375,0.7702178955078125,-0.1680755615234375,11936.9746445,2.520282712727029,-1.370087481330753,-0.8623061943470889,-2.252309799194336,-1.748874664306641,0.3590461909770966,-0.01917344331741333,-0.04054933786392212,-0.1402041912078857,XArbitraryZVertical,0.4483617321230141,-0.4838490063629002,0.7506760226304156,-0.03670863969812924,-0.6376259326934814,0.7593451738357544,-0.1297237873077393,0,0,0,-1,-1,11912.735939625,unknown,2,2025-04-30T12:11:31.479+03:00,2025-04-30T12:00:08.093+03:00,94,1.480054,0,0,78.64606,0,0,2025-04-30T12:11:34.059+03:00,767697114.7967689,0,2.14,100.9397,1,0.8,2025-04-30T12:11:52.395+03:00,113,1.883333333333333,2025-04-22T14:20:19.516+03:00,0.02197104130929222,0
2025-04-30T12:11:55.743+03:00,1746004311.644837,40.95225006229428,29.14029629289345,76.41664,-1,-1,-1,-1,30,20.44752438444682,-9999,11936.9973335,-0.62158203125,0.80517578125,-0.145904541015625,11936.9847215,2.486572397227581,-1.413742123831082,-0.8695580134542112,-2.246752500534058,-1.817293286323547,0.2890714406967163,-0.02432078123092651,-0.02194774150848389,-0.108334019780159,XArbitraryZVertical,0.4546927229837324,-0.4927470313688589,0.7409951956185635,-0.03716519993860237,-0.6372241377830505,0.7640438675880432,-0.1009097844362259,0,0,0,-1,-1,11912.735939625,unknown,2,2025-04-30T12:11:31.479+03:00,2025-04-30T12:00:08.093+03:00,94,1.480054,0,0,78.64606,0,0,2025-04-30T12:11:34.059+03:00,767697114.7967689,0,2.14,100.9397,1,0.8,2025-04-30T12:11:52.395+03:00,113,1.883333333333333,2025-04-22T14:20:19.516+03:00,0.02197104130929222,0
2025-04-30T12:11:55.753+03:00,1746004311.644837,40.95225006229428,29.14029629289345,76.41664,-1,-1,-1,-1,30,20.44752438444682,-9999,11937.0074105,-0.61279296875,0.838043212890625,-0.1232452392578125,11936.9947975,2.452864926022029,-1.458124900196107,-0.875094619283205,-2.154455900192261,-1.87689220905304,0.2195410877466202,-0.001552104949951172,0.01163172721862793,-0.08753049373626709,XArbitraryZVertical,0.4613028776485041,-0.5011677064607832,0.7311731676792517,-0.03763621711770791,-0.6368604302406311,0.7676041722297668,-0.07206117361783981,0,0,0,-1,-1,11912.735939625,unknown,2,2025-04-30T12:11:31.479+03:00,2025-04-30T12:00:08.093+03:00,94,1.480054,0,0,78.64606,0,0,2025-04-30T12:11:34.059+03:00,767697114.7967689,0,2.14,100.9397,1,0.8,2025-04-30T12:11:52.395+03:00,113,1.883333333333333,2025-04-22T14:20:19.516+03:00,0.02197104130929222,0
2025-04-30T12:11:55.763+03:00,1746004311.644837,40.95225006229428,29.14029629289345,76.41664,-1,-1,-1,-1,30,20.44752438444682,-9999,11937.0174865,-0.607330322265625,0.8434600830078125,-0.079193115234375,11937.0048745,2.420577657905174,-1.501956438445281,-0.8787584309855947,-1.982540845870972,-1.893561840057373,0.1278841197490692,0.0188746452331543,0.04429221153259277,-0.09754115343093872,XArbitraryZVertical,0.4681535458008503,-0.5088083860088894,0.7214465087060157,-0.03822586722640695,-0.6365962028503418,0.7699472308158875,-0.04389256611466408,0,0,0,-1,-1,11912.735939625,unknown,2,2025-04-30T12:11:31.479+03:00,2025-04-30T12:00:08.093+03:00,94,1.480054,0,0,78.64606,0,0,2025-04-30T12:11:34.059+03:00,767697114.7967689,0,2.14,100.9397,1,0.8,2025-04-30T12:11:52.395+03:00,113,1.883333333333333,2025-04-22T14:20:19.516+03:00,0.02197104130929222,0
2025-04-30T12:11:55.773+03:00,1746004311.644837,40.95225006229428,29.14029629289345,76.41664,-1,-1,-1,-1,30,20.44752438444682,-9999,11937.0275625,-0.6062469482421875,0.8176727294921875,0.0171966552734375,11937.0149505,2.390518454544656,-1.54422496776159,-0.880266719010927,-1.841872572898865,-1.895790100097656,-0.008170396089553833,0.02433979511260986,0.07264286279678345,-0.09768623113632202,XArbitraryZVertical,0.4752197685868274,-0.5154657232457952,0.7120083368156863,-0.03879995073367098,-0.6367207765579224,0.7709087729454041,-0.01692251861095428,0,0,0,-1,-1,11912.735939625,unknown,2,2025-04-30T12:11:31.479+03:00,2025-04-30T12:00:08.093+03:00,94,1.480054,0,0,78.64606,0,0,2025-04-30T12:11:34.059+03:00,767697114.7967689,0,2.14,100.9397,1,0.8,2025-04-30T12:11:52.395+03:00,113,1.883333333333333,2025-04-22T14:20:19.516+03:00,0.02197104130929222,0
2025-04-30T12:11:55.783+03:00,1746004311.644837,40.95225006229428,29.14029629289345,76.41664,-1,-1,-1,-1,30,20.44752438444682,-9999,11937.0376395,-0.6151275634765625,0.791351318359375,0.11944580078125,11937.0250265,2.362372482449765,-1.584826301200699,-0.879737119745911,-1.714454889297485,-1.846817255020142,-0.1135922223329544,0.03090685606002808,0.06905883550643921,-0.06939709186553955,XArbitraryZVertical,0.4824234607091333,-0.5212854184793875,0.7028471439683031,-0.0391807465356061,-0.6372911930084229,0.7705713510513306,0.008941765874624252,0,0,0,-1,-1,11912.735939625,unknown,2,2025-04-30T12:11:31.479+03:00,2025-04-30T12:00:08.093+03:00,94,1.480054,0,0,78.64606,0,0,2025-04-30T12:11:34.059+03:00,767697114.7967689,0,2.14,100.9397,1,0.8,2025-04-30T12:11:52.395+03:00,113,1.883333333333333,2025-04-22T14:20:19.516+03:00,0.02197104130929222,0
2025-04-30T12:11:55.793+03:00,1746004311.644837,40.95225006229428,29.14029629289345,76.41664,-1,-1,-1,-1,30,20.44752438444682,-9999,11937.0477155,-0.6270904541015625,0.794769287109375,0.2139129638671875,11937.0351035,2.336148644641966,-1.623198860375904,-0.877568335238628,-1.628591060638428,-1.754973173141479,-0.2115472853183746,0.03028184175491333,0.03986424207687378,0.01109981164336205,XArbitraryZVertical,0.4895250984368874,-0.5264035902002117,0.6940605575233304,-0.0392986235889896,-0.6381462812423706,0.7691872715950012,0.03347112238407135,0,0,0,-1,-1,11912.735939625,unknown,2,2025-04-30T12:11:31.479+03:00,2025-04-30T12:00:08.093+03:00,94,1.480054,0,0,78.64606,0,0,2025-04-30T12:11:34.059+03:00,767697114.7967689,0,2.14,100.9397,1,0.8,2025-04-30T12:11:52.395+03:00,113,1.883333333333333,2025-04-22T14:20:19.516+03:00,0.02197104130929222,0
2025-04-30T12:11:55.803+03:00,1746004311.644837,40.95225006229428,29.14029629289345,76.41664,-1,-1,-1,-1,30,20.44752438444682,-9999,11937.0577925,-0.64215087890625,0.7989044189453125,0.3019561767578125,11937.0451795,2.311767489354248,-1.658977686015511,-0.8738127570327071,-1.517181277275085,-1.622920274734497,-0.3084562420845032,0.02185982465744019,0.02289086580276489,0.08555887639522552,XArbitraryZVertical,0.4964180910173334,-0.5308809233981893,0.685721810921692,-0.03898798896206279,-0.6394134759902954,0.7667819261550903,0.05653095245361328,0,0,0,-1,-1,11912.735939625,unknown,2,2025-04-30T12:11:31.479+03:00,2025-04-30T12:00:08.093+03:00,94,1.480054,0,0,78.64606,0,0,2025-04-30T12:11:34.059+03:00,767697114.7967689,0,2.14,100.9397,1,0.8,2025-04-30T12:11:52.395+03:00,113,1.883333333333333,2025-04-22T14:20:19.516+03:00,0.02197104130929222,0
