loggingTime(txt),locationTimestamp_since1970(s),locationLatitude(WGS84),locationLongitude(WGS84),locationAltitude(m),locationSpeed(m/s),locationSpeedAccuracy(m/s),locationCourse(°),locationCourseAccuracy(°),locationVerticalAccuracy(m),locationHorizontalAccuracy(m),locationFloor(Z),accelerometerTimestamp_sinceReboot(s),accelerometerAccelerationX(G),accelerometerAccelerationY(G),accelerometerAccelerationZ(G),motionTimestamp_sinceReboot(s),motionYaw(rad),motionRoll(rad),motionPitch(rad),motionRotationRateX(rad/s),motionRotationRateY(rad/s),motionRotationRateZ(rad/s),motionUserAccelerationX(G),motionUserAccelerationY(G),motionUserAccelerationZ(G),motionAttitudeReferenceFrame(txt),motionQuaternionX(R),motionQuaternionY(R),motionQuaternionZ(R),motionQuaternionW(R),motionGravityX(G),motionGravityY(G),motionGravityZ(G),motionMagneticFieldX(µT),motionMagneticFieldY(µT),motionMagneticFieldZ(µT),motionHeading(°),motionMagneticFieldCalibrationAccuracy(Z),activityTimestamp_sinceReboot(s),activity(txt),activityActivityConfidence(Z),activityActivityStartDate(txt),pedometerStartDate(txt),pedometerNumberofSteps(N),pedometerAverageActivePace(s/m),pedometerCurrentPace(s/m),pedometerCurrentCadence(steps/s),pedometerDistance(m),pedometerFloorAscended(N),pedometerFloorDescended(N),pedometerEndDate(txt),altimeterTimestamp_sinceReboot(s),altimeterReset(bool),altimeterRelativeAltitude(m),altimeterPressure(kPa),batteryState(N),batteryLevel(R),heartRateBPMTimestamp(txt),heartRateBPM(N),heartRateBPS(R),heartRateVariabilityTimestamp(txt),heartRateVariability(ms),label
2025-04-22T16:47:32.175+03:00,1745329650.22196,40.95223626562538,29.14017881431385,76.20023,-1,-1,-1,-1,30,18.19813875302852,-9999,38411.40336704167,-0.760467529296875,0.5316619873046875,-0.2932891845703125,38411.39582704167,-2.857107347009482,-1.180610385248282,-0.5833945888187316,-0.00135101331397891,-0.01807647570967674,-0.01157625950872898,-0.04012864828109741,-0.02887243032455444,0.01744455099105835,XArbitraryZVertical,-0.5615865307056135,0.160924418114099,-0.7649486274521952,0.2712515155000789,-0.7718676924705505,0.5508602261543274,-0.3174478113651276,0,0,0,-1,-1,38400.244848625,unknown,2,2025-04-22T16:47:20.987+03:00,2025-04-21T17:08:51.449+03:00,8628,1.066148,0,0,7163.833,7,22,2025-04-22T16:43:03.021+03:00,767022451.4019172,0,-12.79,100.3566,1,0.45,2025-04-22T16:45:05.666+03:00,83,1.383333333333333,2025-04-22T14:20:19.516+03:00,0.02197104130929222,0
2025-04-22T16:47:32.177+03:00,1745329650.22196,40.95223626562538,29.14017881431385,76.20023,-1,-1,-1,-1,30,18.19813875302852,-9999,38411.41344404167,-0.7546844482421875,0.5623779296875,-0.3122406005859375,38411.40590304167,-2.857062546274777,-1.180668977188978,-0.5833071055869314,0.01251320354640484,0.005132242105901241,-0.0005800342769362032,-0.0137593150138855,-0.04471433162689209,0.02936530113220215,XArbitraryZVertical,-0.5616145354191225,0.1608684391589141,-0.7649397899054425,0.2712517624457967,-0.7719309329986572,0.5507872104644775,-0.3174209296703339,0,0,0,-1,-1,38400.244848625,unknown,2,2025-04-22T16:47:20.987+03:00,2025-04-21T17:08:51.449+03:00,8628,1.066148,0,0,7163.833,7,22,2025-04-22T16:43:03.021+03:00,767022451.4019172,0,-12.79,100.3566,1,0.45,2025-04-22T16:45:05.666+03:00,83,1.383333333333333,2025-04-22T14:20:19.516+03:00,0.02197104130929222,0
2025-04-22T16:47:32.178+03:00,1745329650.22196,40.95223626562538,29.14017881431385,76.20023,-1,-1,-1,-1,30,18.19813875302852,-9999,38411.42352104167,-0.7900848388671875,0.5368194580078125,-0.31744384765625,38411.41598004167,-2.856960035712671,-1.180526939769358,-0.5832636594308187,0.009678801521658897,0.008903544396162033,-0.004521778784692287,0.02972054481506348,0.01344269514083862,0.01152443885803223,XArbitraryZVertical,-0.5615694404907488,0.1608413112310795,-0.7649725756410186,0.2712688194205872,-0.7719079852104187,0.5507509708404541,-0.3175396621227264,0,0,0,-1,-1,38400.244848625,unknown,2,2025-04-22T16:47:20.987+03:00,2025-04-21T17:08:51.449+03:00,8628,1.066148,0,0,7163.833,7,22,2025-04-22T16:43:03.021+03:00,767022451.4019172,0,-12.79,100.3566,1,0.45,2025-04-22T16:45:05.666+03:00,83,1.383333333333333,2025-04-22T14:20:19.516+03:00,0.02197104130929222,0
2025-04-22T16:47:32.180+03:00,1745329650.22196,40.95223626562538,29.14017881431385,76.20023,-1,-1,-1,-1,30,18.19813875302852,-9999,38411.43359704167,-0.7646331787109375,0.5391845703125,-0.3135223388671875,38411.42605704167,-2.856984993895444,-1.18051928211893,-0.5831533798518491,-0.002609090646728873,0.005603555124253035,-0.007037966512143612,-0.0143083930015564,-0.006988286972045898,0.001085966825485229,XArbitraryZVertical,-0.5615670143089484,0.1608046725000545,-0.7649953243718896,0.2712314284910439,-0.7719616889953613,0.5506588816642761,-0.3175686895847321,0,0,0,-1,-1,38400.244848625,unknown,2,2025-04-22T16:47:20.987+03:00,2025-04-21T17:08:51.449+03:00,8628,1.066148,0,0,7163.833,7,22,2025-04-22T16:43:03.021+03:00,767022451.4019172,0,-12.79,100.3566,1,0.45,2025-04-22T16:45:05.666+03:00,83,1.383333333333333,2025-04-22T14:20:19.516+03:00,0.02197104130929222,0
2025-04-22T16:47:32.190+03:00,1745329650.22196,40.95223626562538,29.14017881431385,76.20023,-1,-1,-1,-1,30,18.19813875302852,-9999,38411.44367404167,-0.7715911865234375,0.544891357421875,-0.3175201416015625,38411.43613304167,-2.857055780862606,-1.180492564414805,-0.5830849983796579,-0.00340803898870945,0.01137462537735701,-0.00166583841200918,-0.001846075057983398,-0.01387399435043335,0.002906203269958496,XArbitraryZVertical,-0.561552658099478,0.1608004611687858,-0.7650231057787104,0.2711853198170117,-0.7719880938529968,0.5506018400192261,-0.3176036477088928,0,0,0,-1,-1,38400.244848625,unknown,2,2025-04-22T16:47:20.987+03:00,2025-04-21T17:08:51.449+03:00,8628,1.066148,0,0,7163.833,7,22,2025-04-22T16:43:03.021+03:00,767022451.4019172,0,-12.79,100.3566,1,0.45,2025-04-22T16:45:05.666+03:00,83,1.383333333333333,2025-04-22T14:20:19.516+03:00,0.02197104130929222,0
2025-04-22T16:47:32.202+03:00,1745329650.22196,40.95223626562538,29.14017881431385,76.20023,-1,-1,-1,-1,30,18.19813875302852,-9999,38411.45375104167,-0.772491455078125,0.5470123291015625,-0.3162384033203125,38411.44621004167,-2.857050784889016,-1.180361370031408,-0.5831301728104219,0.001082849455997348,0.008259791880846024,0.0002116902032867074,0.005840718746185303,-0.008098065853118896,0.002280831336975098,XArbitraryZVertical,-0.5615018482552763,0.160835153634938,-0.765052208519979,0.2711878352244304,-0.7719233632087708,0.5506395101547241,-0.3176954686641693,0,0,0,-1,-1,38400.244848625,unknown,2,2025-04-22T16:47:20.987+03:00,2025-04-21T17:08:51.449+03:00,8628,1.066148,0,0,7163.833,7,22,2025-04-22T16:43:03.021+03:00,767022451.4019172,0,-12.79,100.3566,1,0.45,2025-04-22T16:45:05.666+03:00,83,1.383333333333333,2025-04-22T14:20:19.516+03:00,0.02197104130929222,0
2025-04-22T16:47:32.211+03:00,1745329650.22196,40.95223626562538,29.14017881431385,76.20023,-1,-1,-1,-1,30,18.19813875302852,-9999,38411.46382704167,-0.7695465087890625,0.5431060791015625,-0.3131866455078125,38411.45628704167,-2.857025605071014,-1.180241011547631,-0.5831774195676303,0.000176043133251369,0.0107842031866312,0.0005597652634605765,-0.00272071361541748,-0.003666698932647705,-0.0002759099006652832,XArbitraryZVertical,-0.5614567565711641,0.1608635491267192,-0.7650752179430543,0.2711994515261753,-0.7718610763549805,0.5506789684295654,-0.317778468132019,0,0,0,-1,-1,38400.244848625,unknown,2,2025-04-22T16:47:20.987+03:00,2025-04-21T17:08:51.449+03:00,8628,1.066148,0,0,7163.833,7,22,2025-04-22T16:43:03.021+03:00,767022451.4019172,0,-12.79,100.3566,1,0.45,2025-04-22T16:45:05.666+03:00,83,1.383333333333333,2025-04-22T14:20:19.516+03:00,0.02197104130929222,0
2025-04-22T16:47:32.221+03:00,1745329650.22196,40.95223626562538,29.14017881431385,76.20023,-1,-1,-1,-1,30,18.19813875302852,-9999,38411.47390404167,-0.774139404296875,0.5413970947265625,-0.3151702880859375,38411.46636304167,-2.857025071925543,-1.180131804783641,-0.5832135055620083,0.001234583090990782,0.009196891449391842,0.00305924192070961,0.002826213836669922,-0.006336569786071777,0.003798604011535645,XArbitraryZVertical,-0.5614141982023019,0.1608928258442893,-0.7651002011255034,0.2711997791272945,-0.7718080282211304,0.550709068775177,-0.317855179309845,0,0,0,-1,-1,38400.244848625,unknown,2,2025-04-22T16:47:20.987+03:00,2025-04-21T17:08:51.449+03:00,8628,1.066148,0,0,7163.833,7,22,2025-04-22T16:43:03.021+03:00,767022451.4019172,0,-12.79,100.3566,1,0.45,2025-04-22T16:45:05.666+03:00,83,1.383333333333333,2025-04-22T14:20:19.516+03:00,0.02197104130929222,0
2025-04-22T16:47:32.231+03:00,1745329650.22196,40.95223626562538,29.14017881431385,76.20023,-1,-1,-1,-1,30,18.19813875302852,-9999,38411.48398104167,-0.774932861328125,0.5468902587890625,-0.317840576171875,38411.47644004167,-2.857029629390707,-1.180099298542589,-0.5831762541347925,0.0007363056647591293,0.003547261701896787,0.000845622387714684,-0.0004153847694396973,-0.008579075336456299,0.003785669803619385,XArbitraryZVertical,-0.5614022562610183,0.1608834338355119,-0.7651156604287224,0.2711862243381102,-0.7718165516853333,0.550678014755249,-0.3178880512714386,0,0,0,-1,-1,38400.244848625,unknown,2,2025-04-22T16:47:20.987+03:00,2025-04-21T17:08:51.449+03:00,8628,1.066148,0,0,7163.833,7,22,2025-04-22T16:43:03.021+03:00,767022451.4019172,0,-12.79,100.3566,1,0.45,2025-04-22T16:45:05.666+03:00,83,1.383333333333333,2025-04-22T14:20:19.516+03:00,0.02197104130929222,0
2025-04-22T16:47:32.241+03:00,1745329650.22196,40.95223626562538,29.14017881431385,76.20023,-1,-1,-1,-1,30,18.19813875302852,-9999,38411.49405704167,-0.77313232421875,0.5494842529296875,-0.3184967041015625,38411.48651704167,-2.857037898233576,-1.180106135829543,-0.5831367259425507,-0.002476531779393554,0.0050029456615448,0.00126786669716239,-0.004436671733856201,-0.006547152996063232,0.0006759464740753174,XArbitraryZVertical,-0.5614050951936568,0.1608687958668798,-0.7651211068374145,0.2711738554533269,-0.7718389630317688,0.5506449937820435,-0.3178910911083221,0,0,0,-1,-1,38400.244848625,unknown,2,2025-04-22T16:47:20.987+03:00,2025-04-21T17:08:51.449+03:00,8628,1.066148,0,0,7163.833,7,22,2025-04-22T16:43:03.021+03:00,767022451.4019172,0,-12.79,100.3566,1,0.45,2025-04-22T16:45:05.666+03:00,83,1.383333333333333,2025-04-22T14:20:19.516+03:00,0.02197104130929222,0
2025-04-22T16:47:32.251+03:00,1745329650.22196,40.95223626562538,29.14017881431385,76.20023,-1,-1,-1,-1,30,18.19813875302852,-9999,38411.50413404167,-0.7748870849609375,0.54583740234375,-0.3197174072265625,38411.49659304167,-2.85703700306683,-1.180052446854749,-0.5831874311731776,-0.000246400770265609,0.008158791810274124,0.003121160436421633,-0.001641392707824707,-0.001386344432830811,-0.0005902945995330811,XArbitraryZVertical,-0.5613834918545184,0.1608963942585851,-0.7651280187350452,0.2711823924442521,-0.771795928478241,0.550687313079834,-0.3179218471050262,0,0,0,-1,-1,38400.244848625,unknown,2,2025-04-22T16:47:20.987+03:00,2025-04-21T17:08:51.449+03:00,8628,1.066148,0,0,7163.833,7,22,2025-04-22T16:43:03.021+03:00,767022451.4019172,0,-12.79,100.3566,1,0.45,2025-04-22T16:45:05.666+03:00,83,1.383333333333333,2025-04-22T14:20:19.516+03:00,0.02197104130929222,0
2025-04-22T16:47:32.261+03:00,1745329650.22196,40.95223626562538,29.14017881431385,76.20023,-1,-1,-1,-1,30,18.19813875302852,-9999,38411.51421104167,-0.774566650390625,0.54644775390625,-0.3156585693359375,38411.50667004167,-2.857023132639399,-1.179979213476157,-0.5831837944526365,0.001084314193576574,0.006206628400832415,0.001052250503562391,-0.002685189247131348,-0.00426715612411499,-0.000517725944519043,XArbitraryZVertical,-0.5613566652828659,0.1609009462437675,-0.7651473227138477,0.2711809106871297,-0.7717745900154114,0.5506842732429504,-0.3179791569709778,0,0,0,-1,-1,38400.244848625,unknown,2,2025-04-22T16:47:20.987+03:00,2025-04-21T17:08:51.449+03:00,8628,1.066148,0,0,7163.833,7,22,2025-04-22T16:43:03.021+03:00,767022451.4019172,0,-12.79,100.3566,1,0.45,2025-04-22T16:45:05.666+03:00,83,1.383333333333333,2025-04-22T14:20:19.516+03:00,0.02197104130929222,0
2025-04-22T16:47:32.271+03:00,1745329650.22196,40.95223626562538,29.14017881431385,76.20023,-1,-1,-1,-1,30,18.19813875302852,-9999,38411.52428704167,-0.7702789306640625,0.5455169677734375,-0.3122711181640625,38411.51674704167,-2.856966424326148,-1.179898055461779,-0.5831846388574604,0.004604214336723089,0.003552255686372519,0.006007594056427479,-0.00330650806427002,-0.004420340061187744,0.0003992021083831787,XArbitraryZVertical,-0.5613301461255059,0.1608963598625376,-0.7651623761914155,0.2711962868697254,-0.771748423576355,0.5506849884986877,-0.3180416524410248,0,0,0,-1,-1,38400.244848625,unknown,2,2025-04-22T16:47:20.987+03:00,2025-04-21T17:08:51.449+03:00,8628,1.066148,0,0,7163.833,7,22,2025-04-22T16:43:03.021+03:00,767022451.4019172,0,-12.79,100.3566,1,0.45,2025-04-22T16:45:05.666+03:00,83,1.383333333333333,2025-04-22T14:20:19.516+03:00,0.02197104130929222,0
2025-04-22T16:47:32.281+03:00,1745329650.22196,40.95223626562538,29.14017881431385,76.20023,-1,-1,-1,-1,30,18.19813875302852,-9999,38411.53436404167,-0.7660064697265625,0.5455322265625,-0.315582275390625,38411.52682304167,-2.856936482210311,-1.179879893385749,-0.5832201568668904,-0.002556293737143278,-0.001216733828186989,0.0060658841393888,8.755922317504883e-05,-0.004343211650848389,0.005563229322433472,XArbitraryZVertical,-0.5613248050970554,0.1609048200949296,-0.7651578323236525,0.2712150454330938,-0.7717245221138,0.5507146120071411,-0.3180482089519501,0,0,0,-1,-1,38400.244848625,unknown,2,2025-04-22T16:47:20.987+03:00,2025-04-21T17:08:51.449+03:00,8628,1.066148,0,0,7163.833,7,22,2025-04-22T16:43:03.021+03:00,767022451.4019172,0,-12.79,100.3566,1,0.45,2025-04-22T16:45:05.666+03:00,83,1.383333333333333,2025-04-22T14:20:19.516+03:00,0.02197104130929222,0
2025-04-22T16:47:32.291+03:00,1745329650.22196,40.95223626562538,29.14017881431385,76.20023,-1,-1,-1,-1,30,18.19813875302852,-9999,38411.54444104167,-0.7667083740234375,0.543792724609375,-0.3164215087890625,38411.53690004167,-2.856985717213427,-1.179927427800446,-0.5832927593837018,-0.007904186844825745,-0.002670553512871265,0.004819524474442005,0.004277169704437256,-0.005716085433959961,0.004107534885406494,XArbitraryZVertical,-0.5613373893465132,0.1609416287088472,-0.7651397638717103,0.271217949624326,-0.7717025876045227,0.5507752299308777,-0.3179962635040283,0,0,0,-1,-1,38400.244848625,unknown,2,2025-04-22T16:47:20.987+03:00,2025-04-21T17:08:51.449+03:00,8628,1.066148,0,0,7163.833,7,22,2025-04-22T16:43:03.021+03:00,767022451.4019172,0,-12.79,100.3566,1,0.45,2025-04-22T16:45:05.666+03:00,83,1.383333333333333,2025-04-22T14:20:19.516+03:00,0.02197104130929222,0
2025-04-22T16:47:32.301+03:00,1745329650.22196,40.95223626562538,29.14017881431385,76.20023,-1,-1,-1,-1,30,18.19813875302852,-9999,38411.55451704167,-0.7726593017578125,0.5432586669921875,-0.3142547607421875,38411.54697704167,-2.857067706424781,-1.180006847765121,-0.5833731509994552,-0.01361520309001207,-0.004516523331403732,0.004327040165662766,0.007191181182861328,-0.006378352642059326,0.001755803823471069,XArbitraryZVertical,-0.5613593509035847,0.160986457593967,-0.7651160011271066,0.2712128146517948,-0.771686851978302,0.5508423447608948,-0.3179180920124054,0,0,0,-1,-1,38400.244848625,unknown,2,2025-04-22T16:47:20.987+03:00,2025-04-21T17:08:51.449+03:00,8628,1.066148,0,0,7163.833,7,22,2025-04-22T16:43:03.021+03:00,767022451.4019172,0,-12.79,100.3566,1,0.45,2025-04-22T16:45:05.666+03:00,83,1.383333333333333,2025-04-22T14:20:19.516+03:00,0.02197104130929222,0
2025-04-22T16:47:32.312+03:00,1745329650.22196,40.95223626562538,29.14017881431385,76.20023,-1,-1,-1,-1,30,18.19813875302852,-9999,38411.56459404167,-0.77294921875,0.543792724609375,-0.310638427734375,38411.55705304167,-2.857208658348377,-1.180122176587367,-0.5834628176634534,-0.014798978343606,-0.001568936742842197,0.005601095966994762,0.001048147678375244,-0.006971955299377441,0.002471953630447388,XArbitraryZVertical,-0.5613900842715448,0.1610467258658129,-0.7650887070728511,0.2711903085996589,-0.7716777920722961,0.5509171485900879,-0.3178102374076843,0,0,0,-1,-1,38400.244848625,unknown,2,2025-04-22T16:47:20.987+03:00,2025-04-21T17:08:51.449+03:00,8628,1.066148,0,0,7163.833,7,22,2025-04-22T16:43:03.021+03:00,767022451.4019172,0,-12.79,100.3566,1,0.45,2025-04-22T16:45:05.666+03:00,83,1.383333333333333,2025-04-22T14:20:19.516+03:00,0.02197104130929222,0
2025-04-22T16:47:32.321+03:00,1745329650.22196,40.95223626562538,29.14017881431385,76.20023,-1,-1,-1,-1,30,18.19813875302852,-9999,38411.57467104167,-0.7740325927734375,0.5475311279296875,-0.3103485107421875,38411.56713004167,-2.857299794426302,-1.180170132627536,-0.5835513241392829,-0.005977923050522804,0.003089331090450287,0.007768043782562017,-0.001468896865844727,-0.007396817207336426,0.005361348390579224,XArbitraryZVertical,-0.5613990677845981,0.1611016686812753,-0.7650737964051201,0.2711811540857137,-0.7716479301452637,0.5509909987449646,-0.3177546858787537,0,0,0,-1,-1,38400.244848625,unknown,2,2025-04-22T16:47:20.987+03:00,2025-04-21T17:08:51.449+03:00,8628,1.066148,0,0,7163.833,7,22,2025-04-22T16:43:03.021+03:00,767022451.4019172,0,-12.79,100.3566,1,0.45,2025-04-22T16:45:05.666+03:00,83,1.383333333333333,2025-04-22T14:20:19.516+03:00,0.02197104130929222,0
2025-04-22T16:47:32.331+03:00,1745329650.22196,40.95223626562538,29.14017881431385,76.20023,-1,-1,-1,-1,30,18.19813875302852,-9999,38411.58474704167,-0.774566650390625,0.5516357421875,-0.310150146484375,38411.57720704167,-2.857307407898522,-1.18012480569151,-0.5836313783126776,0.0001468149421270937,0.005223588552325964,0.006796522531658411,-0.001157939434051514,-0.005327284336090088,0.007561534643173218,XArbitraryZVertical,-0.5613792638851585,0.161142363127955,-0.7650752175644997,0.2711943525578885,-0.771592915058136,0.5510578155517578,-0.3177729249000549,0,0,0,-1,-1,38400.244848625,unknown,2,2025-04-22T16:47:20.987+03:00,2025-04-21T17:08:51.449+03:00,8628,1.066148,0,0,7163.833,7,22,2025-04-22T16:43:03.021+03:00,767022451.4019172,0,-12.79,100.3566,1,0.45,2025-04-22T16:45:05.666+03:00,83,1.383333333333333,2025-04-22T14:20:19.516+03:00,0.02197104130929222,0
2025-04-22T16:47:32.341+03:00,1745329650.22196,40.95223626562538,29.14017881431385,76.20023,-1,-1,-1,-1,30,18.19813875302852,-9999,38411.59482404167,-0.7725830078125,0.5514068603515625,-0.312774658203125,38411.58728304167,-2.857227558487505,-1.179992698117049,-0.5836547906647011,0.008732646703720093,0.01048153452575207,0.005585083737969398,-0.003744721412658691,0.0001463890075683594,0.007597535848617554,XArbitraryZVertical,-0.5613346182701897,0.1611473430021594,-0.7650978704126097,0.2712200334196793,-0.7715390920639038,0.5510773658752441,-0.3178699612617493,0,0,0,-1,-1,38400.244848625,unknown,2,2025-04-22T16:47:20.987+03:00,2025-04-21T17:08:51.449+03:00,8628,1.066148,0,0,7163.833,7,22,2025-04-22T16:43:03.021+03:00,767022451.4019172,0,-12.79,100.3566,1,0.45,2025-04-22T16:45:05.666+03:00,83,1.383333333333333,2025-04-22T14:20:19.516+03:00,0.02197104130929222,0
2025-04-22T16:47:32.351+03:00,1745329650.22196,40.95223626562538,29.14017881431385,76.20023,-1,-1,-1,-1,30,18.19813875302852,-9999,38411.60490104167,-0.775604248046875,0.5469818115234375,-0.31561279296875,38411.59736004167,-2.857068091051373,-1.179780518332846,-0.5836478635644823,0.01401768997311592,0.01544513367116451,0.003350159153342247,-0.001092612743377686,0.001204907894134521,0.006114691495895386,XArbitraryZVertical,-0.5612664829735152,0.1611285957981515,-0.7651366519060951,0.2712622310495806,-0.7714748978614807,0.5510715842247009,-0.3180350065231323,0,0,0,-1,-1,38400.244848625,unknown,2,2025-04-22T16:47:20.987+03:00,2025-04-21T17:08:51.449+03:00,8628,1.066148,0,0,7163.833,7,22,2025-04-22T16:43:03.021+03:00,767022451.4019172,0,-12.79,100.3566,1,0.45,2025-04-22T16:45:05.666+03:00,83,1.383333333333333,2025-04-22T14:20:19.516+03:00,0.02197104130929222,0
2025-04-22T16:47:32.362+03:00,1745329650.22196,40.95223626562538,29.14017881431385,76.20023,-1,-1,-1,-1,30,18.19813875302852,-9999,38411.61497704167,-0.78021240234375,0.54010009765625,-0.3183135986328125,38411.60743704167,-2.856898729085707,-1.179538136378455,-0.5836470561626004,0.01464020367711782,0.01536963321268559,0.006331501062959433,-0.003168225288391113,-0.0008085966110229492,0.003616303205490112,XArbitraryZVertical,-0.5611874126185042,0.1611136177275709,-0.7651818374311878,0.2713073001230175,-0.7713982462882996,0.5510709285736084,-0.3182221949100494,0,0,0,-1,-1,38400.244848625,unknown,2,2025-04-22T16:47:20.987+03:00,2025-04-21T17:08:51.449+03:00,8628,1.066148,0,0,7163.833,7,22,2025-04-22T16:43:03.021+03:00,767022451.4019172,0,-12.79,100.3566,1,0.45,2025-04-22T16:45:05.666+03:00,83,1.383333333333333,2025-04-22T14:20:19.516+03:00,0.02197104130929222,0
2025-04-22T16:47:32.372+03:00,1745329650.22196,40.95223626562538,29.14017881431385,76.20023,-1,-1,-1,-1,30,18.19813875302852,-9999,38411.62505404167,-0.775604248046875,0.539306640625,-0.31500244140625,38411.61751304167,-2.856763301010814,-1.179311130507335,-0.5836690173091914,0.006274415645748377,0.01375469285994768,0.007220996543765068,-0.00766146183013916,-0.00851738452911377,-0.0002262890338897705,XArbitraryZVertical,-0.5611109716169286,0.161115318631901,-0.7652237210483795,0.2713462446006711,-0.771314799785614,0.5510892271995544,-0.3183926641941071,0,0,0,-1,-1,38400.244848625,unknown,2,2025-04-22T16:47:20.987+03:00,2025-04-21T17:08:51.449+03:00,8628,1.066148,0,0,7163.833,7,22,2025-04-22T16:43:03.021+03:00,767022451.4019172,0,-12.79,100.3566,1,0.45,2025-04-22T16:45:05.666+03:00,83,1.383333333333333,2025-04-22T14:20:19.516+03:00,0.02197104130929222,0
2025-04-22T16:47:32.382+03:00,1745329650.22196,40.95223626562538,29.14017881431385,76.20023,-1,-1,-1,-1,30,18.19813875302852,-9999,38411.63513104167,-0.7730865478515625,0.5402069091796875,-0.3111114501953125,38411.62759004167,-2.85669415100383,-1.179149902899052,-0.5837215925115343,-0.000597272242885083,0.010815161280334,0.005605024285614491,-0.006381511688232422,-0.01217746734619141,0.00177919864654541,XArbitraryZVertical,-0.561053640479832,0.1611390779270903,-0.76525151334724,0.2713726809288369,-0.7712368369102478,0.5511330962181091,-0.3185060322284698,0,0,0,-1,-1,38400.244848625,unknown,2,2025-04-22T16:47:20.987+03:00,2025-04-21T17:08:51.449+03:00,8628,1.066148,0,0,7163.833,7,22,2025-04-22T16:43:03.021+03:00,767022451.4019172,0,-12.79,100.3566,1,0.45,2025-04-22T16:45:05.666+03:00,83,1.383333333333333,2025-04-22T14:20:19.516+03:00,0.02197104130929222,0
2025-04-22T16:47:32.392+03:00,1745329650.22196,40.95223626562538,29.14017881431385,76.20023,-1,-1,-1,-1,30,18.19813875302852,-9999,38411.64520704167,-0.773223876953125,0.54205322265625,-0.311126708984375,38411.63766704167,-2.856699457948719,-1.17905716419453,-0.5837844771451929,-0.006544643547385931,0.008694486692547798,0.005069462582468987,-0.0021248459815979,-0.01042944192886353,0.006476104259490967,XArbitraryZVertical,-0.5610163017503222,0.1611786393933165,-0.7652684305938621,0.2713786825546863,-0.7711752653121948,0.5511856079101562,-0.3185643255710602,0,0,0,-1,-1,38400.244848625,unknown,2,2025-04-22T16:47:20.987+03:00,2025-04-21T17:08:51.449+03:00,8628,1.066148,0,0,7163.833,7,22,2025-04-22T16:43:03.021+03:00,767022451.4019172,0,-12.79,100.3566,1,0.45,2025-04-22T16:45:05.666+03:00,83,1.383333333333333,2025-04-22T14:20:19.516+03:00,0.02197104130929222,0
2025-04-22T16:47:32.402+03:00,1745329650.22196,40.95223626562538,29.14017881431385,76.20023,-1,-1,-1,-1,30,18.19813875302852,-9999,38411.65528404167,-0.7752227783203125,0.5441741943359375,-0.31146240234375,38411.64774304167,-2.856745308188208,-1.178986707378435,-0.5838451389882181,-0.004004853311926126,0.01038020104169846,0.004707372281700373,-0.00216299295425415,-0.01054114103317261,0.007341653108596802,XArbitraryZVertical,-0.5609842852884416,0.161225668834175,-0.7652848316787945,0.2713704136091095,-0.7711217999458313,0.5512362122535706,-0.3186058402061462,0,0,0,-1,-1,38400.244848625,unknown,2,2025-04-22T16:47:20.987+03:00,2025-04-21T17:08:51.449+03:00,8628,1.066148,0,0,7163.833,7,22,2025-04-22T16:43:03.021+03:00,767022451.4019172,0,-12.79,100.3566,1,0.45,2025-04-22T16:45:05.666+03:00,83,1.383333333333333,2025-04-22T14:20:19.516+03:00,0.02197104130929222,0
2025-04-22T16:47:32.412+03:00,1745329650.22196,40.95223626562538,29.14017881431385,76.20023,-1,-1,-1,-1,30,18.19813875302852,-9999,38411.66536104167,-0.7734222412109375,0.5427093505859375,-0.31109619140625,38411.65782004167,-2.856832119658189,-1.178953154825904,-0.5838951996173258,-0.01202736049890518,0.008089084178209305,-0.000329730479279533,-0.003374159336090088,-0.006951332092285156,0.006594032049179077,XArbitraryZVertical,-0.5609633151031624,0.1612748684146333,-0.7652981712140895,0.2713468315715687,-0.7710855603218079,0.5512779355049133,-0.3186211585998535,0,0,0,-1,-1,38400.244848625,unknown,2,2025-04-22T16:47:20.987+03:00,2025-04-21T17:08:51.449+03:00,8628,1.066148,0,0,7163.833,7,22,2025-04-22T16:43:03.021+03:00,767022451.4019172,0,-12.79,100.3566,1,0.45,2025-04-22T16:45:05.666+03:00,83,1.383333333333333,2025-04-22T14:20:19.516+03:00,0.02197104130929222,0
2025-04-22T16:47:32.422+03:00,1745329650.22196,40.95223626562538,29.14017881431385,76.20023,-1,-1,-1,-1,30,18.19813875302852,-9999,38411.67543704167,-0.7724456787109375,0.5401763916015625,-0.3124542236328125,38411.66789704167,-2.85695188817659,-1.178954376737174,-0.5839540945102087,-0.009721328504383564,0.008191348984837532,0.003827330889180303,-0.003907263278961182,-0.008389055728912354,0.00738939642906189,XArbitraryZVertical,-0.5609527769244556,0.1613321585411022,-0.7653049346637459,0.271315621233899,-0.7710559964179993,0.551327109336853,-0.3186078369617462,0,0,0,-1,-1,38400.244848625,unknown,2,2025-04-22T16:47:20.987+03:00,2025-04-21T17:08:51.449+03:00,8628,1.066148,0,0,7163.833,7,22,2025-04-22T16:43:03.021+03:00,767022451.4019172,0,-12.79,100.3566,1,0.45,2025-04-22T16:45:05.666+03:00,83,1.383333333333333,2025-04-22T14:20:19.516+03:00,0.02197104130929222,0
2025-04-22T16:47:32.432+03:00,1745329650.22196,40.95223626562538,29.14017881431385,76.20023,-1,-1,-1,-1,30,18.19813875302852,-9999,38411.68551404167,-0.771881103515625,0.5434112548828125,-0.318359375,38411.67797304167,-2.857018359860827,-1.178891306396865,-0.5840213463074786,-0.004695411305874586,0.0124761089682579,0.003966880030930042,-0.001031935214996338,-0.01071864366531372,0.007256001234054565,XArbitraryZVertical,-0.5609217569649988,0.1613866279430512,-0.7653210816286184,0.2713016757830137,-0.7710015773773193,0.5513831973075867,-0.3186422884464264,0,0,0,-1,-1,38400.244848625,unknown,2,2025-04-22T16:47:20.987+03:00,2025-04-21T17:08:51.449+03:00,8628,1.066148,0,0,7163.833,7,22,2025-04-22T16:43:03.021+03:00,767022451.4019172,0,-12.79,100.3566,1,0.45,2025-04-22T16:45:05.666+03:00,83,1.383333333333333,2025-04-22T14:20:19.516+03:00,0.02197104130929222,0
2025-04-22T16:47:32.442+03:00,1745329650.22196,40.95223626562538,29.14017881431385,76.20023,-1,-1,-1,-1,30,18.19813875302852,-9999,38411.69559104167,-0.769287109375,0.5487518310546875,-0.3160400390625,38411.68805004167,-2.857053842429606,-1.178808274727407,-0.5840818467064367,-0.004501000512391329,0.008581768721342087,0.003532119328156114,-0.001699507236480713,-0.009853541851043701,0.002195656299591064,XArbitraryZVertical,-0.5608857236662674,0.1614323421492611,-0.7653398715132977,0.2712963134452783,-0.7709444165229797,0.5514336824417114,-0.318693608045578,0,0,0,-1,-1,38400.244848625,unknown,2,2025-04-22T16:47:20.987+03:00,2025-04-21T17:08:51.449+03:00,8628,1.066148,0,0,7163.833,7,22,2025-04-22T16:43:03.021+03:00,767022451.4019172,0,-12.79,100.3566,1,0.45,2025-04-22T16:45:05.666+03:00,83,1.383333333333333,2025-04-22T14:20:19.516+03:00,0.02197104130929222,0
2025-04-22T16:47:32.452+03:00,1745329650.22196,40.95223626562538,29.14017881431385,76.20023,-1,-1,-1,-1,30,18.19813875302852,-9999,38411.70566704167,-0.76806640625,0.544342041015625,-0.314849853515625,38411.69812704167,-2.857106848231215,-1.178751149166098,-0.5841231520448437,-0.009774858132004738,0.01180952042341232,0.005783023312687874,0.0006110668182373047,-0.004135429859161377,0.0007813572883605957,XArbitraryZVertical,-0.5608586421448214,0.1614716977828514,-0.7653566387901245,0.2712816000215574,-0.7709051966667175,0.5514681339263916,-0.3187289535999298,0,0,0,-1,-1,38400.244848625,unknown,2,2025-04-22T16:47:20.987+03:00,2025-04-21T17:08:51.449+03:00,8628,1.066148,0,0,7163.833,7,22,2025-04-22T16:43:03.021+03:00,767022451.4019172,0,-12.79,100.3566,1,0.45,2025-04-22T16:45:05.666+03:00,83,1.383333333333333,2025-04-22T14:20:19.516+03:00,0.02197104130929222,0
2025-04-22T16:47:32.462+03:00,1745329650.22196,40.95223626562538,29.14017881431385,76.20023,-1,-1,-1,-1,30,18.19813875302852,-9999,38411.71574404167,-0.771942138671875,0.54010009765625,-0.3151092529296875,38411.70820304167,-2.857201838086184,-1.178671497099894,-0.584185614912228,-0.01096216216683388,0.01190639194101095,0.006415357813239098,0.00250697135925293,-0.003546714782714844,0.004064500331878662,XArbitraryZVertical,-0.5608190693286584,0.1615344630990905,-0.7653820777914091,0.2712542130211146,-0.7708479166030884,0.5515202283859253,-0.3187771737575531,0,0,0,-1,-1,38400.244848625,unknown,2,2025-04-22T16:47:20.987+03:00,2025-04-21T17:08:51.449+03:00,8628,1.066148,0,0,7163.833,7,22,2025-04-22T16:43:03.021+03:00,767022451.4019172,0,-12.79,100.3566,1,0.45,2025-04-22T16:45:05.666+03:00,83,1.383333333333333,2025-04-22T14:20:19.516+03:00,0.02197104130929222,0
2025-04-22T16:47:32.472+03:00,1745329650.22196,40.95223626562538,29.14017881431385,76.20023,-1,-1,-1,-1,30,18.19813875302852,-9999,38411.72582104167,-0.7718353271484375,0.5362548828125,-0.3125,38411.71828004167,-2.857373496090845,-1.178663136396658,-0.5842956354480672,-0.02187712863087654,0.01225846167653799,0.005402024835348129,-0.0002831220626831055,-0.01091688871383667,0.002735495567321777,XArbitraryZVertical,-0.5607994877985356,0.161628327539694,-0.7653905291790389,0.2712149640685971,-0.7707892060279846,0.5516120195388794,-0.3187604248523712,0,0,0,-1,-1,38400.244848625,unknown,2,2025-04-22T16:47:20.987+03:00,2025-04-21T17:08:51.449+03:00,8628,1.066148,0,0,7163.833,7,22,2025-04-22T16:43:03.021+03:00,767022451.4019172,0,-12.79,100.3566,1,0.45,2025-04-22T16:45:05.666+03:00,83,1.383333333333333,2025-04-22T14:20:19.516+03:00,0.02197104130929222,0
2025-04-22T16:47:32.483+03:00,1745329650.22196,40.95223626562538,29.14017881431385,76.20023,-1,-1,-1,-1,30,18.19813875302852,-9999,38411.73589704167,-0.7732086181640625,0.5323638916015625,-0.3164825439453125,38411.72835704167,-2.857588521103369,-1.178659148274024,-0.5844128777811908,-0.02210669219493866,0.01386408135294914,0.005925069563090801,-0.001335978507995605,-0.01218962669372559,0.005872368812561035,XArbitraryZVertical,-0.5607778985672858,0.1617366899648835,-0.7654024675627346,0.2711612510777577,-0.7707281112670898,0.551709771156311,-0.3187387883663177,0,0,0,-1,-1,38400.244848625,unknown,2,2025-04-22T16:47:20.987+03:00,2025-04-21T17:08:51.449+03:00,8628,1.066148,0,0,7163.833,7,22,2025-04-22T16:43:03.021+03:00,767022451.4019172,0,-12.79,100.3566,1,0.45,2025-04-22T16:45:05.666+03:00,83,1.383333333333333,2025-04-22T14:20:19.516+03:00,0.02197104130929222,0
2025-04-22T16:47:32.493+03:00,1745329650.22196,40.95223626562538,29.14017881431385,76.20023,-1,-1,-1,-1,30,18.19813875302852,-9999,38411.74597404167,-0.775421142578125,0.5402984619140625,-0.32000732421875,38411.73843304167,-2.857843295617646,-1.178683590143711,-0.584554796774101,-0.02787536568939686,0.01058306731283665,0.008831909857690334,-0.0004240274429321289,-0.01987630128860474,0.003855228424072266,XArbitraryZVertical,-0.560763388781595,0.1618623453532356,-0.7654079504132523,0.2711007087647141,-0.7706634998321533,0.551828145980835,-0.3186900019645691,0,0,0,-1,-1,38400.244848625,unknown,2,2025-04-22T16:47:20.987+03:00,2025-04-21T17:08:51.449+03:00,8628,1.066148,0,0,7163.833,7,22,2025-04-22T16:43:03.021+03:00,767022451.4019172,0,-12.79,100.3566,1,0.45,2025-04-22T16:45:05.666+03:00,83,1.383333333333333,2025-04-22T14:20:19.516+03:00,0.02197104130929222,0
2025-04-22T16:47:32.503+03:00,1745329650.22196,40.95223626562538,29.14017881431385,76.20023,-1,-1,-1,-1,30,18.19813875302852,-9999,38411.75605104167,-0.7732391357421875,0.5413055419921875,-0.319061279296875,38411.74851004167,-2.858141791429556,-1.178782627453989,-0.5847019347322069,-0.02863503247499466,0.006897651590406895,0.002778877504169941,-0.004495859146118164,-0.01366657018661499,0.0002078711986541748,XArbitraryZVertical,-0.5607737249352615,0.1619922448959068,-0.7653977247576806,0.2710307672492384,-0.7706201076507568,0.5519508719444275,-0.318582683801651,0,0,0,-1,-1,38400.244848625,unknown,2,2025-04-22T16:47:20.987+03:00,2025-04-21T17:08:51.449+03:00,8628,1.066148,0,0,7163.833,7,22,2025-04-22T16:43:03.021+03:00,767022451.4019172,0,-12.79,100.3566,1,0.45,2025-04-22T16:45:05.666+03:00,83,1.383333333333333,2025-04-22T14:20:19.516+03:00,0.02197104130929222,0
2025-04-22T16:47:32.513+03:00,1745329650.22196,40.95223626562538,29.14017881431385,76.20023,-1,-1,-1,-1,30,18.19813875302852,-9999,38411.76612804167,-0.771820068359375,0.54229736328125,-0.3174591064453125,38411.75858704167,-2.858492332669365,-1.178933992224832,-0.5848228661822572,-0.03509106859564781,0.004168444313108921,-0.0002914807409979403,-0.003090262413024902,-0.0111430287361145,-0.001658529043197632,XArbitraryZVertical,-0.5608004725447662,0.1621190686249802,-0.7653837332927363,0.2709386974302182,-0.7706064581871033,0.5520517230033875,-0.3184404671192169,0,0,0,-1,-1,38400.244848625,unknown,2,2025-04-22T16:47:20.987+03:00,2025-04-21T17:08:51.449+03:00,8628,1.066148,0,0,7163.833,7,22,2025-04-22T16:43:03.021+03:00,767022451.4019172,0,-12.79,100.3566,1,0.45,2025-04-22T16:45:05.666+03:00,83,1.383333333333333,2025-04-22T14:20:19.516+03:00,0.02197104130929222,0
2025-04-22T16:47:32.523+03:00,1745329650.22196,40.95223626562538,29.14017881431385,76.20023,-1,-1,-1,-1,30,18.19813875302852,-9999,38411.77620404167,-0.7682647705078125,0.542449951171875,-0.3152008056640625,38411.76866404167,-2.858923136807453,-1.179168017308617,-0.5849347150313214,-0.0396416112780571,-0.003236741758882999,-0.002840259112417698,-0.001546859741210938,-0.009786665439605713,0.0004416108131408691,XArbitraryZVertical,-0.5608524750141889,0.1622534783225729,-0.7653591501456812,0.2708204004307056,-0.770624041557312,0.5521449446678162,-0.3182366192340851,0,0,0,-1,-1,38400.244848625,unknown,2,2025-04-22T16:47:20.987+03:00,2025-04-21T17:08:51.449+03:00,8628,1.066148,0,0,7163.833,7,22,2025-04-22T16:43:03.021+03:00,767022451.4019172,0,-12.79,100.3566,1,0.45,2025-04-22T16:45:05.666+03:00,83,1.383333333333333,2025-04-22T14:20:19.516+03:00,0.02197104130929222,0
2025-04-22T16:47:32.533+03:00,1745329650.22196,40.95223626562538,29.14017881431385,76.20023,-1,-1,-1,-1,30,18.19813875302852,-9999,38411.78628104167,-0.76861572265625,0.5365142822265625,-0.3145294189453125,38411.77874004167,-2.859397700306894,-1.17944593769309,-0.5850640711622086,-0.04291010648012161,-0.00111899571493268,-0.0008322356734424829,0.0008710622787475586,-0.009467184543609619,0.002443224191665649,XArbitraryZVertical,-0.5609172806561362,0.1624013534632745,-0.7653253096903754,0.2706932700281616,-0.7706464529037476,0.5522527694702148,-0.3179952204227448,0,0,0,-1,-1,38400.244848625,unknown,2,2025-04-22T16:47:20.987+03:00,2025-04-21T17:08:51.449+03:00,8628,1.066148,0,0,7163.833,7,22,2025-04-22T16:43:03.021+03:00,767022451.4019172,0,-12.79,100.3566,1,0.45,2025-04-22T16:45:05.666+03:00,83,1.383333333333333,2025-04-22T14:20:19.516+03:00,0.02197104130929222,0
2025-04-22T16:47:32.543+03:00,1745329650.22196,40.95223626562538,29.14017881431385,76.20023,-1,-1,-1,-1,30,18.19813875302852,-9999,38411.79635804167,-0.7686004638671875,0.53607177734375,-0.3142242431640625,38411.78881704167,-2.859862736643119,-1.179713853720726,-0.5851969450574513,-0.03919193521142006,-0.0002075289376080036,-0.002247905591502786,0.002566874027252197,-0.01391154527664185,0.003582090139389038,XArbitraryZVertical,-0.5609789172964282,0.1625493947202027,-0.765292216511238,0.270569877564815,-0.7706636786460876,0.5523635745048523,-0.317760705947876,0,0,0,-1,-1,38400.244848625,unknown,2,2025-04-22T16:47:20.987+03:00,2025-04-21T17:08:51.449+03:00,8628,1.066148,0,0,7163.833,7,22,2025-04-22T16:43:03.021+03:00,767022451.4019172,0,-12.79,100.3566,1,0.45,2025-04-22T16:45:05.666+03:00,83,1.383333333333333,2025-04-22T14:20:19.516+03:00,0.02197104130929222,0
2025-04-22T16:47:32.553+03:00,1745329650.22196,40.95223626562538,29.14017881431385,76.20023,-1,-1,-1,-1,30,18.19813875302852,-9999,38411.80643404167,-0.76739501953125,0.5389556884765625,-0.317718505859375,38411.79889404167,-2.860273618713772,-1.179911847862397,-0.5853197295600704,-0.03485524281859398,0.005638908594846725,0.003437144681811333,0.001453161239624023,-0.01729452610015869,0.003098458051681519,XArbitraryZVertical,-0.5610183724266835,0.1626876185472138,-0.7652730659868077,0.2704590670526681,-0.7706637978553772,0.5524659156799316,-0.3175822496414185,0,0,0,-1,-1,38400.244848625,unknown,2,2025-04-22T16:47:20.987+03:00,2025-04-21T17:08:51.449+03:00,8628,1.066148,0,0,7163.833,7,22,2025-04-22T16:43:03.021+03:00,767022451.4019172,0,-12.79,100.3566,1,0.45,2025-04-22T16:45:05.666+03:00,83,1.383333333333333,2025-04-22T14:20:19.516+03:00,0.02197104130929222,0
2025-04-22T16:47:32.579+03:00,1745329650.22196,40.95223626562538,29.14017881431385,76.20023,-1,-1,-1,-1,30,18.19813875302852,-9999,38411.81651104167,-0.7697601318359375,0.540924072265625,-0.3202056884765625,38411.80897004167,-2.860663961274461,-1.180044055744558,-0.5854883206101165,-0.03749377280473709,0.009332313202321529,0.006228736601769924,0.003484189510345459,-0.01439851522445679,0.001374185085296631,XArbitraryZVertical,-0.5610331814250538,0.1628475293224699,-0.7652625139689589,0.2703620979548182,-0.7706197500228882,0.552606463432312,-0.3174448907375336,0,0,0,-1,-1,38400.244848625,unknown,2,2025-04-22T16:47:20.987+03:00,2025-04-21T17:08:51.449+03:00,8628,1.066148,0,0,7163.833,7,22,2025-04-22T16:43:03.021+03:00,767022451.4019172,0,-12.79,100.3566,1,0.45,2025-04-22T16:45:05.666+03:00,83,1.383333333333333,2025-04-22T14:20:19.516+03:00,0.02197104130929222,0
2025-04-22T16:47:32.581+03:00,1745329650.22196,40.95223626562538,29.14017881431385,76.20023,-1,-1,-1,-1,30,18.19813875302852,-9999,38411.82658804167,-0.770263671875,0.543060302734375,-0.323272705078125,38411.81904704167,-2.861083213907872,-1.180179531698975,-0.5856726062838112,-0.04308880865573883,0.01004204526543617,0.004979980178177357,0.001571536064147949,-0.01346868276596069,-0.001973330974578857,XArbitraryZVertical,-0.5610464600297611,0.1630214730368014,-0.7652524730331318,0.2702582300890074,-0.7705686092376709,0.5527600049972534,-0.3173017501831055,0,0,0,-1,-1,38400.244848625,unknown,2,2025-04-22T16:47:20.987+03:00,2025-04-21T17:08:51.449+03:00,8628,1.066148,0,0,7163.833,7,22,2025-04-22T16:43:03.021+03:00,767022451.4019172,0,-12.79,100.3566,1,0.45,2025-04-22T16:45:05.666+03:00,83,1.383333333333333,2025-04-22T14:20:19.516+03:00,0.02197104130929222,0
2025-04-22T16:47:32.583+03:00,1745329650.22196,40.95223626562538,29.14017881431385,76.20023,-1,-1,-1,-1,30,18.19813875302852,-9999,38411.83666404167,-0.77020263671875,0.5411529541015625,-0.3213958740234375,38411.82912404167,-2.861585339024371,-1.180370628481439,-0.5858836725608974,-0.0543053075671196,0.006563891656696796,0.007791046518832445,-4.750490188598633e-05,-0.01027244329452515,-0.004560679197311401,XArbitraryZVertical,-0.5610735770825794,0.1632220342824393,-0.7652336528590327,0.2701338295616371,-0.7705211639404297,0.5529358983039856,-0.3171100318431854,0,0,0,-1,-1,38400.244848625,unknown,2,2025-04-22T16:47:20.987+03:00,2025-04-21T17:08:51.449+03:00,8628,1.066148,0,0,7163.833,7,22,2025-04-22T16:43:03.021+03:00,767022451.4019172,0,-12.79,100.3566,1,0.45,2025-04-22T16:45:05.666+03:00,83,1.383333333333333,2025-04-22T14:20:19.516+03:00,0.02197104130929222,0
2025-04-22T16:47:32.593+03:00,1745329650.22196,40.95223626562538,29.14017881431385,76.20023,-1,-1,-1,-1,30,18.19813875302852,-9999,38411.84674104167,-0.7674713134765625,0.5420989990234375,-0.315765380859375,38411.83920004167,-2.862185455915779,-1.180669692327421,-0.5861456758154354,-0.05795170739293098,-0.001162204891443253,0.007485582027584314,-7.146596908569336e-05,-0.0107501745223999,-0.006387323141098022,XArbitraryZVertical,-0.5611326613163562,0.1634561313661269,-0.7651899189387384,0.2699933870924054,-0.7704819440841675,0.5531541705131531,-0.3168244659900665,0,0,0,-1,-1,38400.244848625,unknown,2,2025-04-22T16:47:20.987+03:00,2025-04-21T17:08:51.449+03:00,8628,1.066148,0,0,7163.833,7,22,2025-04-22T16:43:03.021+03:00,767022451.4019172,0,-12.79,100.3566,1,0.45,2025-04-22T16:45:05.666+03:00,83,1.383333333333333,2025-04-22T14:20:19.516+03:00,0.02197104130929222,0
2025-04-22T16:47:32.604+03:00,1745329650.22196,40.95223626562538,29.14017881431385,76.20023,-1,-1,-1,-1,30,18.19813875302852,-9999,38411.85681804167,-0.7669677734375,0.54559326171875,-0.3094024658203125,38411.84927704167,-2.862808236954912,-1.181022718826574,-0.5864469064367461,-0.05929400771856308,-0.002532468177378178,0.01044285669922829,0.001778304576873779,-0.01299995183944702,-0.001199036836624146,XArbitraryZVertical,-0.5612094396177563,0.1637051995773763,-0.7651280339323896,0.2698584618245485,-0.7704396843910217,0.5534051060676575,-0.3164891302585602,0,0,0,-1,-1,38400.244848625,unknown,2,2025-04-22T16:47:20.987+03:00,2025-04-21T17:08:51.449+03:00,8628,1.066148,0,0,7163.833,7,22,2025-04-22T16:43:03.021+03:00,767022451.4019172,0,-12.79,100.3566,1,0.45,2025-04-22T16:45:05.666+03:00,83,1.383333333333333,2025-04-22T14:20:19.516+03:00,0.02197104130929222,0
2025-04-22T16:47:32.614+03:00,1745329650.22196,40.95223626562538,29.14017881431385,76.20023,-1,-1,-1,-1,30,18.19813875302852,-9999,38411.86689404167,-0.767913818359375,0.5370941162109375,-0.3066864013671875,38411.85935404167,-2.863424045165122,-1.181363261326144,-0.5867371108683826,-0.05787427723407745,0.004223438445478678,0.009641245007514954,0.004041492938995361,-0.00750434398651123,0.00403180718421936,XArbitraryZVertical,-0.5612821600466361,0.1639495872526888,-0.7650702188698457,0.2697225452084282,-0.770398736000061,0.5536468029022217,-0.3161657452583313,0,0,0,-1,-1,38400.244848625,unknown,2,2025-04-22T16:47:20.987+03:00,2025-04-21T17:08:51.449+03:00,8628,1.066148,0,0,7163.833,7,22,2025-04-22T16:43:03.021+03:00,767022451.4019172,0,-12.79,100.3566,1,0.45,2025-04-22T16:45:05.666+03:00,83,1.383333333333333,2025-04-22T14:20:19.516+03:00,0.02197104130929222,0
2025-04-22T16:47:32.627+03:00,1745329650.22196,40.95223626562538,29.14017881431385,76.20023,-1,-1,-1,-1,30,18.19813875302852,-9999,38411.87697104167,-0.7749786376953125,0.539764404296875,-0.3109283447265625,38411.86943004167,-2.863982702881599,-1.181577750566894,-0.5870362099705786,-0.05047068744897842,0.0136994980275631,0.01561391539871693,0.003940761089324951,-0.01355171203613281,0.009373128414154053,XArbitraryZVertical,-0.561310975535793,0.1641985308853529,-0.7650387828697186,0.2696004300863971,-0.7703133225440979,0.5538958311080933,-0.3159376680850983,0,0,0,-1,-1,38400.244848625,unknown,2,2025-04-22T16:47:20.987+03:00,2025-04-21T17:08:51.449+03:00,8628,1.066148,0,0,7163.833,7,22,2025-04-22T16:43:03.021+03:00,767022451.4019172,0,-12.79,100.3566,1,0.45,2025-04-22T16:45:05.666+03:00,83,1.383333333333333,2025-04-22T14:20:19.516+03:00,0.02197104130929222,0
2025-04-22T16:47:32.634+03:00,1745329650.22196,40.95223626562538,29.14017881431385,76.20023,-1,-1,-1,-1,30,18.19813875302852,-9999,38411.88704804167,-0.7740936279296875,0.5529937744140625,-0.31219482421875,38411.87950704167,-2.864486311843087,-1.181718845347096,-0.5873391520808955,-0.0534941740334034,0.01200359687209129,0.01360402815043926,-0.001953005790710449,-0.01838153600692749,0.006820440292358398,XArbitraryZVertical,-0.5613160257254332,0.1644434800529562,-0.7650198775970187,0.2694943430864375,-0.77020263671875,0.5541480779647827,-0.3157653212547302,0,0,0,-1,-1,38400.244848625,unknown,2,2025-04-22T16:47:20.987+03:00,2025-04-21T17:08:51.449+03:00,8628,1.066148,0,0,7163.833,7,22,2025-04-22T16:43:03.021+03:00,767022451.4019172,0,-12.79,100.3566,1,0.45,2025-04-22T16:45:05.666+03:00,83,1.383333333333333,2025-04-22T14:20:19.516+03:00,0.02197104130929222,0
2025-04-22T16:47:32.645+03:00,1745329650.22196,40.95223626562538,29.14017881431385,76.20023,-1,-1,-1,-1,30,18.19813875302852,-9999,38411.89712504167,-0.7713623046875,0.5510406494140625,-0.3174591064453125,38411.88958404167,-2.865076689313735,-1.18194721998244,-0.5876564936622146,-0.05973409488797188,0.007511510513722897,0.01383392512798309,-0.005476891994476318,-0.005599379539489746,0.003816008567810059,XArbitraryZVertical,-0.5613468494063286,0.1647068608245233,-0.764985844519624,0.2693658550345849,-0.7701119780540466,0.5544121861457825,-0.3155227303504944,0,0,0,-1,-1,38400.244848625,unknown,2,2025-04-22T16:47:20.987+03:00,2025-04-21T17:08:51.449+03:00,8628,1.066148,0,0,7163.833,7,22,2025-04-22T16:43:03.021+03:00,767022451.4019172,0,-12.79,100.3566,1,0.45,2025-04-22T16:45:05.666+03:00,83,1.383333333333333,2025-04-22T14:20:19.516+03:00,0.02197104130929222,0
2025-04-22T16:47:32.656+03:00,1745329650.22196,40.95223626562538,29.14017881431385,76.20023,-1,-1,-1,-1,30,18.19813875302852,-9999,38411.90720104167,-0.7690277099609375,0.5425262451171875,-0.319732666015625,38411.89966104167,-2.865685884917326,-1.182236189095719,-0.5879832132884915,-0.06256210803985596,-0.0009813103824853897,0.01626219600439072,-0.001311540603637695,-0.0003324151039123535,0.0008392632007598877,XArbitraryZVertical,-0.5613989332746976,0.1649711874246508,-0.7649357363649453,0.2692375520055653,-0.7700353264808655,0.554684042930603,-0.3152315020561218,0,0,0,-1,-1,38400.244848625,unknown,2,2025-04-22T16:47:20.987+03:00,2025-04-21T17:08:51.449+03:00,8628,1.066148,0,0,7163.833,7,22,2025-04-22T16:43:03.021+03:00,767022451.4019172,0,-12.79,100.3566,1,0.45,2025-04-22T16:45:05.666+03:00,83,1.383333333333333,2025-04-22T14:20:19.516+03:00,0.02197104130929222,0
2025-04-22T16:47:32.664+03:00,1745329650.22196,40.95223626562538,29.14017881431385,76.20023,-1,-1,-1,-1,30,18.19813875302852,-9999,38411.91727804167,-0.759735107421875,0.5424346923828125,-0.310882568359375,38411.90973704167,-2.866370047483379,-1.182657104451934,-0.5884101549114661,-0.07947736978530884,-0.01048420090228319,0.0205196924507618,-0.001001417636871338,-0.01075839996337891,-0.004548937082290649,XArbitraryZVertical,-0.5614925581223139,0.165279353567838,-0.7648431231175706,0.2691163890507106,-0.7699486613273621,0.5550392270088196,-0.3148176968097687,0,0,0,-1,-1,38400.244848625,unknown,2,2025-04-22T16:47:20.987+03:00,2025-04-21T17:08:51.449+03:00,8628,1.066148,0,0,7163.833,7,22,2025-04-22T16:43:03.021+03:00,767022451.4019172,0,-12.79,100.3566,1,0.45,2025-04-22T16:45:05.666+03:00,83,1.383333333333333,2025-04-22T14:20:19.516+03:00,0.02197104130929222,0
2025-04-22T16:47:32.674+03:00,1745329650.22196,40.95223626562538,29.14017881431385,76.20023,-1,-1,-1,-1,30,18.19813875302852,-9999,38411.92735504167,-0.760650634765625,0.5367889404296875,-0.30157470703125,38411.91981404167,-2.867230728565213,-1.183254461647506,-0.5889327246017557,-0.0920107439160347,-0.01273830141872168,0.02301933616399765,0.007127106189727783,-0.012276291847229,-0.00221937894821167,XArbitraryZVertical,-0.5616363238004062,0.1656520461957011,-0.7647098461148715,0.2689661880429986,-0.7698680758476257,0.5554738640785217,-0.3142480850219727,0,0,0,-1,-1,38400.244848625,unknown,2,2025-04-22T16:47:20.987+03:00,2025-04-21T17:08:51.449+03:00,8628,1.066148,0,0,7163.833,7,22,2025-04-22T16:43:03.021+03:00,767022451.4019172,0,-12.79,100.3566,1,0.45,2025-04-22T16:45:05.666+03:00,83,1.383333333333333,2025-04-22T14:20:19.516+03:00,0.02197104130929222,0
2025-04-22T16:47:32.684+03:00,1745329650.22196,40.95223626562538,29.14017881431385,76.20023,-1,-1,-1,-1,30,18.19813875302852,-9999,38411.93743104167,-0.7678375244140625,0.5425567626953125,-0.304412841796875,38411.92989104167,-2.868190944461529,-1.183890743185865,-0.5894944754227244,-0.09998124837875366,-0.01168761681765318,0.02592181414365768,0.01173752546310425,-0.01773303747177124,0.01024970412254333,XArbitraryZVertical,-0.5617853453587996,0.1660633842292061,-0.7645726712425387,0.2687911342368684,-0.7697787284851074,0.5559408664703369,-0.3136403560638428,0,0,0,-1,-1,38400.244848625,unknown,2,2025-04-22T16:47:20.987+03:00,2025-04-21T17:08:51.449+03:00,8628,1.066148,0,0,7163.833,7,22,2025-04-22T16:43:03.021+03:00,767022451.4019172,0,-12.79,100.3566,1,0.45,2025-04-22T16:45:05.666+03:00,83,1.383333333333333,2025-04-22T14:20:19.516+03:00,0.02197104130929222,0
2025-04-22T16:47:32.694+03:00,1745329650.22196,40.95223626562538,29.14017881431385,76.20023,-1,-1,-1,-1,30,18.19813875302852,-9999,38411.947506,-0.7669677734375,0.5420379638671875,-0.30303955078125,38411.93996704167,-2.869242938335343,-1.184609413309369,-0.5900961036322963,-0.1091640964150429,-0.01386608276516199,0.0208777878433466,0.003672361373901367,-0.01701235771179199,0.009982317686080933,XArbitraryZVertical,-0.5619567358741185,0.1665056261236761,-0.7644183495324399,0.2685980482756118,-0.769693911075592,0.5564408898353577,-0.3129610121250153,0,0,0,-1,-1,38400.244848625,unknown,2,2025-04-22T16:47:20.987+03:00,2025-04-21T17:08:51.449+03:00,8628,1.066148,0,0,7163.833,7,22,2025-04-22T16:43:03.021+03:00,767022451.4019172,0,-12.79,100.3566,1,0.45,2025-04-22T16:45:05.666+03:00,83,1.383333333333333,2025-04-22T14:20:19.516+03:00,0.02197104130929222,0
2025-04-22T16:47:32.704+03:00,1745329650.22196,40.95223626562538,29.14017881431385,76.20023,-1,-1,-1,-1,30,18.19813875302852,-9999,38411.957583,-0.7772369384765625,0.5472869873046875,-0.30255126953125,38411.950042,-2.870363381284837,-1.185344870949241,-0.5906834620413931,-0.1065113916993141,-0.006051902659237385,0.02151451632380486,0.002165079116821289,-0.01334977149963379,0.007797896862030029,XArbitraryZVertical,-0.5621286866197371,0.1669591383271262,-0.764270751840754,0.2683770141673992,-0.7696210145950317,0.556928813457489,-0.3122719824314117,0,0,0,-1,-1,38400.244848625,unknown,2,2025-04-22T16:47:20.987+03:00,2025-04-21T17:08:51.449+03:00,8628,1.066148,0,0,7163.833,7,22,2025-04-22T16:43:03.021+03:00,767022451.4019172,0,-12.79,100.3566,1,0.45,2025-04-22T16:45:05.666+03:00,83,1.383333333333333,2025-04-22T14:20:19.516+03:00,0.02197104130929222,0
2025-04-22T16:47:32.714+03:00,1745329650.22196,40.95223626562538,29.14017881431385,76.20023,-1,-1,-1,-1,30,18.19813875302852,-9999,38411.967659,-0.7830657958984375,0.562164306640625,-0.31146240234375,38411.960119,-2.871442836697213,-1.185946220672049,-0.5912011840428962,-0.1026047989726067,0.005704355426132679,0.01351864077150822,-0.002950012683868408,-0.01454263925552368,0.009973347187042236,XArbitraryZVertical,-0.5622542256936811,0.167391103991344,-0.7641658709205472,0.2681434684483704,-0.769541323184967,0.5573587417602539,-0.3117008209228516,0,0,0,-1,-1,38400.244848625,unknown,2,2025-04-22T16:47:20.987+03:00,2025-04-21T17:08:51.449+03:00,8628,1.066148,0,0,7163.833,7,22,2025-04-22T16:43:03.021+03:00,767022451.4019172,0,-12.79,100.3566,1,0.45,2025-04-22T16:45:05.666+03:00,83,1.383333333333333,2025-04-22T14:20:19.516+03:00,0.02197104130929222,0
2025-04-22T16:47:32.724+03:00,1745329650.22196,40.95223626562538,29.14017881431385,76.20023,-1,-1,-1,-1,30,18.19813875302852,-9999,38411.977736,-0.782012939453125,0.559417724609375,-0.3138885498046875,38411.970195,-2.872633397447845,-1.186483547374254,-0.5917319761681679,-0.09752215445041656,0.02051872201263905,0.01402251049876213,-0.01346361637115479,0.0001381635665893555,0.003360509872436523,XArbitraryZVertical,-0.5623451898029264,0.1678682561835125,-0.7640916331751035,0.2678656300339011,-0.7694342136383057,0.5577993392944336,-0.3111762702465057,0,0,0,-1,-1,38400.244848625,unknown,2,2025-04-22T16:47:20.987+03:00,2025-04-21T17:08:51.449+03:00,8628,1.066148,0,0,7163.833,7,22,2025-04-22T16:43:03.021+03:00,767022451.4019172,0,-12.79,100.3566,1,0.45,2025-04-22T16:45:05.666+03:00,83,1.383333333333333,2025-04-22T14:20:19.516+03:00,0.02197104130929222,0
2025-04-22T16:47:32.735+03:00,1745329650.22196,40.95223626562538,29.14017881431385,76.20023,-1,-1,-1,-1,30,18.19813875302852,-9999,38411.987813,-0.77972412109375,0.563812255859375,-0.3121490478515625,38411.980272,-2.873597745615357,-1.186782657794356,-0.5921809422771152,-0.08270325511693954,0.02760699018836021,0.009242668747901917,-0.0122295618057251,0.003870248794555664,-0.003463715314865112,XArbitraryZVertical,-0.5623659590872757,0.1682806774910079,-0.7640668295580818,0.2676340554120548,-0.7692950963973999,0.5581719279289246,-0.3108522891998291,0,0,0,-1,-1,38400.244848625,unknown,2,2025-04-22T16:47:20.987+03:00,2025-04-21T17:08:51.449+03:00,8628,1.066148,0,0,7163.833,7,22,2025-04-22T16:43:03.021+03:00,767022451.4019172,0,-12.79,100.3566,1,0.45,2025-04-22T16:45:05.666+03:00,83,1.383333333333333,2025-04-22T14:20:19.516+03:00,0.02197104130929222,0
2025-04-22T16:47:32.745+03:00,1745329650.22196,40.95223626562538,29.14017881431385,76.20023,-1,-1,-1,-1,30,18.19813875302852,-9999,38411.99788900001,-0.7772979736328125,0.5777435302734375,-0.303192138671875,38411.990349,-2.874360834898407,-1.186908239227875,-0.5924846673764796,-0.06362038105726242,0.0318419486284256,0.00565539114177227,-0.01185941696166992,0.0004138350486755371,-0.003517001867294312,XArbitraryZVertical,-0.5623411861834985,0.1686011108051602,-0.7640862163036096,0.2674287001997442,-0.769176721572876,0.5584239363670349,-0.3106921017169952,0,0,0,-1,-1,38400.244848625,unknown,2,2025-04-22T16:47:20.987+03:00,2025-04-21T17:08:51.449+03:00,8628,1.066148,0,0,7163.833,7,22,2025-04-22T16:43:03.021+03:00,767022451.4019172,0,-12.79,100.3566,1,0.45,2025-04-22T16:45:05.666+03:00,83,1.383333333333333,2025-04-22T14:20:19.516+03:00,0.02197104130929222,0
2025-04-22T16:47:32.755+03:00,1745329650.22196,40.95223626562538,29.14017881431385,76.20023,-1,-1,-1,-1,30,18.19813875302852,-9999,38412.007966,-0.7833251953125,0.5681610107421875,-0.29925537109375,38412.00042500001,-2.874998407531007,-1.186868713749043,-0.5927216305030274,-0.05750922113656998,0.04317796230316162,0.003737116232514381,-0.008576452732086182,0.01582711935043335,0.0039101243019104,XArbitraryZVertical,-0.5622656075361412,0.1688813163655968,-0.7641457804488181,0.2672407652530479,-0.7690418362617493,0.5586204528808594,-0.3106729686260223,0,0,0,-1,-1,38400.244848625,unknown,2,2025-04-22T16:47:20.987+03:00,2025-04-21T17:08:51.449+03:00,8628,1.066148,0,0,7163.833,7,22,2025-04-22T16:43:03.021+03:00,767022451.4019172,0,-12.79,100.3566,1,0.45,2025-04-22T16:45:05.666+03:00,83,1.383333333333333,2025-04-22T14:20:19.516+03:00,0.02197104130929222,0
2025-04-22T16:47:32.765+03:00,1745329650.22196,40.95223626562538,29.14017881431385,76.20023,-1,-1,-1,-1,30,18.19813875302852,-9999,38412.018043,-0.790679931640625,0.5541229248046875,-0.2997283935546875,38412.010502,-2.875634994438555,-1.1867415586671,-0.5929231930869678,-0.0534171462059021,0.05111484974622726,-0.0007505098474211991,-0.01163476705551147,0.01514112949371338,0.01080167293548584,XArbitraryZVertical,-0.5621575121636306,0.1691586294265675,-0.7642352425466808,0.2670369634504495,-0.7688979506492615,0.5587876439094543,-0.3107285797595978,0,0,0,-1,-1,38400.244848625,unknown,2,2025-04-22T16:47:20.987+03:00,2025-04-21T17:08:51.449+03:00,8628,1.066148,0,0,7163.833,7,22,2025-04-22T16:43:03.021+03:00,767022451.4019172,0,-12.79,100.3566,1,0.45,2025-04-22T16:45:05.666+03:00,83,1.383333333333333,2025-04-22T14:20:19.516+03:00,0.02197104130929222,0
2025-04-22T16:47:32.775+03:00,1745329650.22196,40.95223626562538,29.14017881431385,76.20023,-1,-1,-1,-1,30,18.19813875302852,-9999,38412.02812,-0.7905731201171875,0.5552520751953125,-0.3025665283203125,38412.020579,-2.876208582747204,-1.186530702128313,-0.5930808269816792,-0.04497572407126427,0.05664889514446259,-0.0007209487957879901,-0.01962506771087646,-0.0009350180625915527,0.01109859347343445,XArbitraryZVertical,-0.5620238896844174,0.169411613965978,-0.7643466260752644,0.266839165896788,-0.7687508463859558,0.5589183568954468,-0.3108577132225037,0,0,0,-1,-1,38400.244848625,unknown,2,2025-04-22T16:47:20.987+03:00,2025-04-21T17:08:51.449+03:00,8628,1.066148,0,0,7163.833,7,22,2025-04-22T16:43:03.021+03:00,767022451.4019172,0,-12.79,100.3566,1,0.45,2025-04-22T16:45:05.666+03:00,83,1.383333333333333,2025-04-22T14:20:19.516+03:00,0.02197104130929222,0
2025-04-22T16:47:32.785+03:00,1745329650.22196,40.95223626562538,29.14017881431385,76.20023,-1,-1,-1,-1,30,18.19813875302852,-9999,38412.038196,-0.786865234375,0.5576934814453125,-0.3096771240234375,38412.030656,-2.876676202650463,-1.186176702006071,-0.5932134286764142,-0.04107991605997086,0.06727637350559235,-0.00299695273861289,-0.02316075563430786,-0.005134403705596924,0.009847491979598999,XArbitraryZVertical,-0.5618451843553449,0.1696437855642778,-0.7644876937800459,0.2666634421398085,-0.7685718536376953,0.5590283274650574,-0.3111019432544708,0,0,0,-1,-1,38400.244848625,unknown,2,2025-04-22T16:47:20.987+03:00,2025-04-21T17:08:51.449+03:00,8628,1.066148,0,0,7163.833,7,22,2025-04-22T16:43:03.021+03:00,767022451.4019172,0,-12.79,100.3566,1,0.45,2025-04-22T16:45:05.666+03:00,83,1.383333333333333,2025-04-22T14:20:19.516+03:00,0.02197104130929222,0
2025-04-22T16:47:32.795+03:00,1745329650.22196,40.95223626562538,29.14017881431385,76.20023,-1,-1,-1,-1,30,18.19813875302852,-9999,38412.048273,-0.7830810546875,0.5572967529296875,-0.31231689453125,38412.040732,-2.877138879188607,-1.185709124176842,-0.5933144926651552,-0.03465264290571213,0.07985101640224457,-0.002055525314062834,-0.01978814601898193,-0.001235544681549072,0.00367012619972229,XArbitraryZVertical,-0.5616242523008455,0.1698768497375882,-0.7646651091264393,0.2664720297376192,-0.7683740854263306,0.5591121315956116,-0.311440110206604,0,0,0,-1,-1,38400.244848625,unknown,2,2025-04-22T16:47:20.987+03:00,2025-04-21T17:08:51.449+03:00,8628,1.066148,0,0,7163.833,7,22,2025-04-22T16:43:03.021+03:00,767022451.4019172,0,-12.79,100.3566,1,0.45,2025-04-22T16:45:05.666+03:00,83,1.383333333333333,2025-04-22T14:20:19.516+03:00,0.02197104130929222,0
2025-04-22T16:47:32.805+03:00,1745329650.22196,40.95223626562538,29.14017881431385,76.20023,-1,-1,-1,-1,30,18.19813875302852,-9999,38412.05835,-0.77996826171875,0.5608978271484375,-0.320159912109375,38412.050809,-2.87760043594597,-1.185137593899454,-0.593425974607995,-0.0520254410803318,0.08672922849655151,-0.004144608974456787,-0.01724690198898315,-0.002121508121490479,0.0003321170806884766,XArbitraryZVertical,-0.5613632879211483,0.1701275929015476,-0.7648696259242387,0.2662746956154037,-0.7681381106376648,0.5592045187950134,-0.3118557333946228,0,0,0,-1,-1,38400.244848625,unknown,2,2025-04-22T16:47:20.987+03:00,2025-04-21T17:08:51.449+03:00,8628,1.066148,0,0,7163.833,7,22,2025-04-22T16:43:03.021+03:00,767022451.4019172,0,-12.79,100.3566,1,0.45,2025-04-22T16:45:05.666+03:00,83,1.383333333333333,2025-04-22T14:20:19.516+03:00,0.02197104130929222,0
2025-04-22T16:47:32.815+03:00,1745329650.22196,40.95223626562538,29.14017881431385,76.20023,-1,-1,-1,-1,30,18.19813875302852,-9999,38412.06842600001,-0.7806549072265625,0.5597076416015625,-0.3195648193359375,38412.060886,-2.878240236675662,-1.184546800428876,-0.5935961602234097,-0.05351174995303154,0.1047537699341774,-0.002865492599084973,-0.01310962438583374,7.200241088867188e-05,-0.004941493272781372,XArbitraryZVertical,-0.5610779393979035,0.1704544941906448,-0.7650941134577346,0.2660220029736509,-0.7678655385971069,0.5593456029891968,-0.3122736215591431,0,0,0,-1,-1,38400.244848625,unknown,2,2025-04-22T16:47:20.987+03:00,2025-04-21T17:08:51.449+03:00,8628,1.066148,0,0,7163.833,7,22,2025-04-22T16:43:03.021+03:00,767022451.4019172,0,-12.79,100.3566,1,0.45,2025-04-22T16:45:05.666+03:00,83,1.383333333333333,2025-04-22T14:20:19.516+03:00,0.02197104130929222,0
2025-04-22T16:47:32.825+03:00,1745329650.22196,40.95223626562538,29.14017881431385,76.20023,-1,-1,-1,-1,30,18.19813875302852,-9999,38412.078503,-0.7874755859375,0.5569610595703125,-0.320098876953125,38412.07096200001,-2.878755738137997,-1.183713612527975,-0.593723226189444,-0.03521809726953506,0.1191333830356598,-0.002210821025073528,-0.01227623224258423,0.001629889011383057,-0.007609277963638306,XArbitraryZVertical,-0.5607115057302932,0.1707611791028157,-0.765376571209865,0.2657852791083013,-0.7675392627716064,0.5594509243965149,-0.3128864467144012,0,0,0,-1,-1,38400.244848625,unknown,2,2025-04-22T16:47:20.987+03:00,2025-04-21T17:08:51.449+03:00,8628,1.066148,0,0,7163.833,7,22,2025-04-22T16:43:03.021+03:00,767022451.4019172,0,-12.79,100.3566,1,0.45,2025-04-22T16:45:05.666+03:00,83,1.383333333333333,2025-04-22T14:20:19.516+03:00,0.02197104130929222,0
2025-04-22T16:47:32.835+03:00,1745329650.22196,40.95223626562538,29.14017881431385,76.20023,-1,-1,-1,-1,30,18.19813875302852,-9999,38412.08858,-0.7906494140625,0.559967041015625,-0.3185272216796875,38412.081039,-2.879055450544387,-1.18263966618014,-0.5937754274146729,-0.01374982576817274,0.1287505775690079,-0.007274022791534662,-0.01770567893981934,-0.001816093921661377,-0.005178838968276978,XArbitraryZVertical,-0.5602733218413757,0.1710089470398939,-0.7657091862227722,0.2655917670799731,-0.7671757340431213,0.5594941973686218,-0.31369948387146,0,0,0,-1,-1,38400.244848625,unknown,2,2025-04-22T16:47:20.987+03:00,2025-04-21T17:08:51.449+03:00,8628,1.066148,0,0,7163.833,7,22,2025-04-22T16:43:03.021+03:00,767022451.4019172,0,-12.79,100.3566,1,0.45,2025-04-22T16:45:05.666+03:00,83,1.383333333333333,2025-04-22T14:20:19.516+03:00,0.02197104130929222,0
2025-04-22T16:47:32.845+03:00,1745329650.22196,40.95223626562538,29.14017881431385,76.20023,-1,-1,-1,-1,30,18.19813875302852,-9999,38412.098656,-0.7925567626953125,0.5631866455078125,-0.308746337890625,38412.091116,-2.879192321943097,-1.181368927228843,-0.5937202186391348,0.00403902493417263,0.1437428593635559,-0.01301699690520763,-0.02346271276473999,-0.001022636890411377,-0.006145626306533813,XArbitraryZVertical,-0.5597765802840213,0.1711936529649243,-0.7660917117472074,0.2654169359249286,-0.7668049931526184,0.5594484210014343,-0.3146858215332031,0,0,0,-1,-1,38400.244848625,unknown,2,2025-04-22T16:47:20.987+03:00,2025-04-21T17:08:51.449+03:00,8628,1.066148,0,0,7163.833,7,22,2025-04-22T16:43:03.021+03:00,767022451.4019172,0,-12.79,100.3566,1,0.45,2025-04-22T16:45:05.666+03:00,83,1.383333333333333,2025-04-22T14:20:19.516+03:00,0.02197104130929222,0
2025-04-22T16:47:32.856+03:00,1745329650.22196,40.95223626562538,29.14017881431385,76.20023,-1,-1,-1,-1,30,18.19813875302852,-9999,38412.108733,-0.795562744140625,0.56097412109375,-0.301910400390625,38412.101192,-2.879256922127165,-1.17990732663638,-0.5935457404918159,0.000372384674847126,0.1559686362743378,-0.01844158954918385,-0.02436733245849609,0.003196001052856445,0.004228353500366211,XArbitraryZVertical,-0.5592160381389796,0.1713350496829926,-0.7665362697222072,0.265223759199383,-0.7664344906806946,0.5593038201332092,-0.3158434331417084,0,0,0,-1,-1,38400.244848625,unknown,2,2025-04-22T16:47:20.987+03:00,2025-04-21T17:08:51.449+03:00,8628,1.066148,0,0,7163.833,7,22,2025-04-22T16:43:03.021+03:00,767022451.4019172,0,-12.79,100.3566,1,0.45,2025-04-22T16:45:05.666+03:00,83,1.383333333333333,2025-04-22T14:20:19.516+03:00,0.02197104130929222,0
2025-04-22T16:47:32.866+03:00,1745329650.22196,40.95223626562538,29.14017881431385,76.20023,-1,-1,-1,-1,30,18.19813875302852,-9999,38412.11881,-0.7911376953125,0.5558319091796875,-0.3016204833984375,38412.111269,-2.879263050004981,-1.178242290953547,-0.5933284756105136,0.01218343805521727,0.182783916592598,-0.01743894256651402,-0.02859663963317871,0.003650844097137451,0.01232543587684631,XArbitraryZVertical,-0.5585833516032653,0.1714695509576404,-0.7670361923593558,0.2650249044359932,-0.766019880771637,0.559123694896698,-0.3171656727790833,0,0,0,-1,-1,38400.244848625,unknown,2,2025-04-22T16:47:20.987+03:00,2025-04-21T17:08:51.449+03:00,8628,1.066148,0,0,7163.833,7,22,2025-04-22T16:43:03.021+03:00,767022451.4019172,0,-12.79,100.3566,1,0.45,2025-04-22T16:45:05.666+03:00,83,1.383333333333333,2025-04-22T14:20:19.516+03:00,0.02197104130929222,0
2025-04-22T16:47:32.876+03:00,1745329650.22196,40.95223626562538,29.14017881431385,76.20023,-1,-1,-1,-1,30,18.19813875302852,-9999,38412.128887,-0.7881927490234375,0.5646209716796875,-0.3165130615234375,38412.121346,-2.879047092400136,-1.176102525751668,-0.593031018792846,0.05308905988931656,0.2241223007440567,-0.01956707425415516,-0.02849799394607544,-0.002419650554656982,0.01904785633087158,XArbitraryZVertical,-0.5577893527119745,0.1715722923271198,-0.7676509397085238,0.264850696687698,-0.7654929757118225,0.5588770508766174,-0.3188679814338684,0,0,0,-1,-1,38400.244848625,unknown,2,2025-04-22T16:47:20.987+03:00,2025-04-21T17:08:51.449+03:00,8628,1.066148,0,0,7163.833,7,22,2025-04-22T16:43:03.021+03:00,767022451.4019172,0,-12.79,100.3566,1,0.45,2025-04-22T16:45:05.666+03:00,83,1.383333333333333,2025-04-22T14:20:19.516+03:00,0.02197104130929222,0
2025-04-22T16:47:32.886+03:00,1745329650.22196,40.95223626562538,29.14017881431385,76.20023,-1,-1,-1,-1,30,18.19813875302852,-9999,38412.138963,-0.784027099609375,0.581939697265625,-0.349884033203125,38412.131423,-2.878223393385893,-1.173165973074494,-0.5924784194893158,0.1133777648210526,0.2711359560489655,-0.02384474501013756,-0.02359879016876221,0.001456677913665771,0.01277750730514526,XArbitraryZVertical,-0.5567477755704522,0.1715076548137227,-0.7684459611500429,0.2647787878807075,-0.7648379802703857,0.5584187507629395,-0.3212340772151947,0,0,0,-1,-1,38400.244848625,unknown,2,2025-04-22T16:47:20.987+03:00,2025-04-21T17:08:51.449+03:00,8628,1.066148,0,0,7163.833,7,22,2025-04-22T16:43:03.021+03:00,767022451.4019172,0,-12.79,100.3566,1,0.45,2025-04-22T16:45:05.666+03:00,83,1.383333333333333,2025-04-22T14:20:19.516+03:00,0.02197104130929222,0
2025-04-22T16:47:32.896+03:00,1745329650.22196,40.95223626562538,29.14017881431385,76.20023,-1,-1,-1,-1,30,18.19813875302852,-9999,38412.14904,-0.778564453125,0.5872344970703125,-0.3740997314453125,38412.141499,-2.876994965289021,-1.169480826599548,-0.5917723976057255,0.1241726204752922,0.3197706043720245,-0.0239627230912447,-0.02247196435928345,0.01623314619064331,-0.01150450110435486,XArbitraryZVertical,-0.5554556806470937,0.1713675422076124,-0.769417515038565,0.2647614731635577,-0.7640116214752197,0.5578328967094421,-0.324204295873642,0,0,0,-1,-1,38400.244848625,unknown,2,2025-04-22T16:47:20.987+03:00,2025-04-21T17:08:51.449+03:00,8628,1.066148,0,0,7163.833,7,22,2025-04-22T16:43:03.021+03:00,767022451.4019172,0,-12.79,100.3566,1,0.45,2025-04-22T16:45:05.666+03:00,83,1.383333333333333,2025-04-22T14:20:19.516+03:00,0.02197104130929222,0
2025-04-22T16:47:32.906+03:00,1745329650.22196,40.95223626562538,29.14017881431385,76.20023,-1,-1,-1,-1,30,18.19813875302852,-9999,38412.159117,-0.7816314697265625,0.55712890625,-0.3771514892578125,38412.151576,-2.876011175533526,-1.165276618870955,-0.5910949480844033,0.07186847180128098,0.4119000732898712,-0.04037202149629593,-0.0166282057762146,0.03225260972976685,-0.0409068763256073,XArbitraryZVertical,-0.5539395697919732,0.171375891473431,-0.7705586273350654,0.2646138664981101,-0.7629889249801636,0.5572705268859863,-0.3275625109672546,0,0,0,-1,-1,38400.244848625,unknown,2,2025-04-22T16:47:20.987+03:00,2025-04-21T17:08:51.449+03:00,8628,1.066148,0,0,7163.833,7,22,2025-04-22T16:43:03.021+03:00,767022451.4019172,0,-12.79,100.3566,1,0.45,2025-04-22T16:45:05.666+03:00,83,1.383333333333333,2025-04-22T14:20:19.516+03:00,0.02197104130929222,0
2025-04-22T16:47:32.916+03:00,1745329650.22196,40.95223626562538,29.14017881431385,76.20023,-1,-1,-1,-1,30,18.19813875302852,-9999,38412.169193,-0.7787628173828125,0.5216522216796875,-0.394775390625,38412.161653,-2.875707998913615,-1.160881444086651,-0.5904766127304912,0.02850928157567978,0.4052919745445251,-0.04918282479047775,-0.01789671182632446,0.01415044069290161,-0.04518607258796692,XArbitraryZVertical,-0.5522870709864248,0.1716215907249856,-0.7718300604291832,0.2642028090669082,-0.7618576884269714,0.5567569732666016,-0.3310500383377075,0,0,0,-1,-1,38400.244848625,unknown,2,2025-04-22T16:47:20.987+03:00,2025-04-21T17:08:51.449+03:00,8628,1.066148,0,0,7163.833,7,22,2025-04-22T16:43:03.021+03:00,767022451.4019172,0,-12.79,100.3566,1,0.45,2025-04-22T16:45:05.666+03:00,83,1.383333333333333,2025-04-22T14:20:19.516+03:00,0.02197104130929222,0
2025-04-22T16:47:32.926+03:00,1745329650.22196,40.95223626562538,29.14017881431385,76.20023,-1,-1,-1,-1,30,18.19813875302852,-9999,38412.17927,-0.7755584716796875,0.5204010009765625,-0.4152374267578125,38412.171729,-2.876601969491769,-1.157290495483804,-0.5904778017308188,-0.1008995771408081,0.4255940616130829,-0.01579357497394085,-0.02064734697341919,-0.02202904224395752,-0.05055505037307739,XArbitraryZVertical,-0.5508233488833258,0.1723423690215252,-0.77293827939876,0.2635490638839751,-0.7606635689735413,0.5567579865455627,-0.3337834775447845,0,0,0,-1,-1,38400.244848625,unknown,2,2025-04-22T16:47:20.987+03:00,2025-04-21T17:08:51.449+03:00,8628,1.066148,0,0,7163.833,7,22,2025-04-22T16:43:03.021+03:00,767022451.4019172,0,-12.79,100.3566,1,0.45,2025-04-22T16:45:05.666+03:00,83,1.383333333333333,2025-04-22T14:20:19.516+03:00,0.02197104130929222,0
2025-04-22T16:47:32.936+03:00,1745329650.22196,40.95223626562538,29.14017881431385,76.20023,-1,-1,-1,-1,30,18.19813875302852,-9999,38412.189347,-0.80364990234375,0.53778076171875,-0.429779052734375,38412.181806,-2.878328805357068,-1.154212333460614,-0.5909112306376447,-0.2097823768854141,0.4043161869049072,-0.01193066034466028,-0.01344579458236694,-0.04544514417648315,-0.07347467541694641,XArbitraryZVertical,-0.5494724286584343,0.1733990749256197,-0.7739447813167298,0.2627205089119432,-0.759411633014679,0.5571179986000061,-0.3360256254673004,0,0,0,-1,-1,38400.244848625,unknown,2,2025-04-22T16:47:20.987+03:00,2025-04-21T17:08:51.449+03:00,8628,1.066148,0,0,7163.833,7,22,2025-04-22T16:43:03.021+03:00,767022451.4019172,0,-12.79,100.3566,1,0.45,2025-04-22T16:45:05.666+03:00,83,1.383333333333333,2025-04-22T14:20:19.516+03:00,0.02197104130929222,0
2025-04-22T16:47:32.946+03:00,1745329650.22196,40.95223626562538,29.14017881431385,76.20023,-1,-1,-1,-1,30,18.19813875302852,-9999,38412.19942300001,-0.800079345703125,0.533843994140625,-0.428680419921875,38412.191883,-2.88087711854405,-1.151423388032606,-0.5919996086468138,-0.2689452469348907,0.3902752697467804,0.02642928063869476,-0.03457826375961304,-0.01975250244140625,-0.08947312831878662,XArbitraryZVertical,-0.5481419293879404,0.174908009302451,-0.7748754525436261,0.2617548526921822,-0.7579174041748047,0.5580214858055115,-0.3378952145576477,0,0,0,-1,-1,38400.244848625,unknown,2,2025-04-22T16:47:20.987+03:00,2025-04-21T17:08:51.449+03:00,8628,1.066148,0,0,7163.833,7,22,2025-04-22T16:43:03.021+03:00,767022451.4019172,0,-12.79,100.3566,1,0.45,2025-04-22T16:45:05.666+03:00,83,1.383333333333333,2025-04-22T14:20:19.516+03:00,0.02197104130929222,0
2025-04-22T16:47:32.957+03:00,1745329650.22196,40.95223626562538,29.14017881431385,76.20023,-1,-1,-1,-1,30,18.19813875302852,-9999,38412.2095,-0.7654266357421875,0.5501861572265625,-0.4504852294921875,38412.20195900001,-2.88457987489974,-1.149523123939744,-0.593561290918375,-0.4373190701007843,0.3922726511955261,-0.002834067214280367,-0.05297034978866577,-0.02963840961456299,-0.08669650554656982,XArbitraryZVertical,-0.5470375958910788,0.1768073061677,-0.7756370173623552,0.260530655464163,-0.7564777731895447,0.5593166947364807,-0.3389780819416046,0,0,0,-1,-1,38400.244848625,unknown,2,2025-04-22T16:47:20.987+03:00,2025-04-21T17:08:51.449+03:00,8628,1.066148,0,0,7163.833,7,22,2025-04-22T16:43:03.021+03:00,767022451.4019172,0,-12.79,100.3566,1,0.45,2025-04-22T16:45:05.666+03:00,83,1.383333333333333,2025-04-22T14:20:19.516+03:00,0.02197104130929222,0
2025-04-22T16:47:32.966+03:00,1745329650.22196,40.95223626562538,29.14017881431385,76.20023,-1,-1,-1,-1,30,18.19813875302852,-9999,38412.219577,-0.7653656005859375,0.5107879638671875,-0.4631805419921875,38412.212036,-2.890219703639548,-1.14922725760836,-0.5957814785966279,-0.5913206934928894,0.291548103094101,0.02324410527944565,-0.01918673515319824,-0.01261764764785767,-0.1052617430686951,XArbitraryZVertical,-0.5463583046457182,0.1792934846363563,-0.7761062281100888,0.2588541082188549,-0.7552424669265747,0.5611557364463806,-0.3386929035186768,0,0,0,-1,-1,38400.244848625,unknown,2,2025-04-22T16:47:20.987+03:00,2025-04-21T17:08:51.449+03:00,8628,1.066148,0,0,7163.833,7,22,2025-04-22T16:43:03.021+03:00,767022451.4019172,0,-12.79,100.3566,1,0.45,2025-04-22T16:45:05.666+03:00,83,1.383333333333333,2025-04-22T14:20:19.516+03:00,0.02197104130929222,0
2025-04-22T16:47:32.977+03:00,1745329650.22196,40.95223626562538,29.14017881431385,76.20023,-1,-1,-1,-1,30,18.19813875302852,-9999,38412.229654,-0.7517242431640625,0.503875732421875,-0.5068359375,38412.222113,-2.897625253819861,-1.150947826512495,-0.5988063715424601,-0.8036537170410156,0.2205034792423248,0.04119088128209114,-0.01133900880813599,-0.03602337837219238,-0.1180583834648132,XArbitraryZVertical,-0.5462661395797743,0.1823281446313026,-0.7761233879557371,0.2568698957519063,-0.754270613193512,0.5636569261550903,-0.336699515581131,0,0,0,-1,-1,38400.244848625,unknown,2,2025-04-22T16:47:20.987+03:00,2025-04-21T17:08:51.449+03:00,8628,1.066148,0,0,7163.833,7,22,2025-04-22T16:43:03.021+03:00,767022451.4019172,0,-12.79,100.3566,1,0.45,2025-04-22T16:45:05.666+03:00,83,1.383333333333333,2025-04-22T14:20:19.516+03:00,0.02197104130929222,0
2025-04-22T16:47:32.987+03:00,1745329650.22196,40.95223626562538,29.14017881431385,76.20023,-1,-1,-1,-1,30,18.19813875302852,-9999,38412.23973,-0.78173828125,0.518707275390625,-0.5343170166015625,38412.23219,-2.907677220274706,-1.154460873198287,-0.6034424317620397,-1.068438410758972,0.2125425636768341,0.1343954205513,-0.001862466335296631,-0.06687003374099731,-0.1568963527679443,XArbitraryZVertical,-0.5465521183693981,0.1865131316539716,-0.7757333463572733,0.2544234692887711,-0.7530507445335388,0.5674802660942078,-0.3329872786998749,0,0,0,-1,-1,38400.244848625,unknown,2,2025-04-22T16:47:20.987+03:00,2025-04-21T17:08:51.449+03:00,8628,1.066148,0,0,7163.833,7,22,2025-04-22T16:43:03.021+03:00,767022451.4019172,0,-12.79,100.3566,1,0.45,2025-04-22T16:45:05.666+03:00,83,1.383333333333333,2025-04-22T14:20:19.516+03:00,0.02197104130929222,0
2025-04-22T16:47:32.996+03:00,1745329650.22196,40.95223626562538,29.14017881431385,76.20023,-1,-1,-1,-1,30,18.19813875302852,-9999,38412.249807,-0.7725830078125,0.556976318359375,-0.5645599365234375,38412.242266,-2.919952233168313,-1.159787104661444,-0.6095829615381499,-1.251590967178345,0.1192879751324654,0.159801721572876,-0.01646125316619873,-0.05964726209640503,-0.1967952251434326,XArbitraryZVertical,-0.5472369337071429,0.1916901938762203,-0.7748852010450713,0.2516732513270273,-0.7516050338745117,0.5725255608558655,-0.3275732100009918,0,0,0,-1,-1,38400.244848625,unknown,2,2025-04-22T16:47:20.987+03:00,2025-04-21T17:08:51.449+03:00,8628,1.066148,0,0,7163.833,7,22,2025-04-22T16:43:03.021+03:00,767022451.4019172,0,-12.79,100.3566,1,0.45,2025-04-22T16:45:05.666+03:00,83,1.383333333333333,2025-04-22T14:20:19.516+03:00,0.02197104130929222,0
2025-04-22T16:47:33.007+03:00,1745329650.22196,40.95223626562538,29.14017881431385,76.20023,-1,-1,-1,-1,30,18.19813875302852,-9999,38412.259884,-0.7555694580078125,0.6089630126953125,-0.57537841796875,38412.252343,-2.93400927161253,-1.166965112944119,-0.6164172240457026,-1.379813194274902,0.05727327242493629,0.1818207055330276,-0.03356832265853882,-0.03975498676300049,-0.2335441112518311,XArbitraryZVertical,-0.548376670635234,0.1974098231535118,-0.7736290197278058,0.2486170292325513,-0.7503213286399841,0.5781155228614807,-0.3206247687339783,0,0,0,-1,-1,38400.244848625,unknown,2,2025-04-22T16:47:20.987+03:00,2025-04-21T17:08:51.449+03:00,8628,1.066148,0,0,7163.833,7,22,2025-04-22T16:43:03.021+03:00,767022451.4019172,0,-12.79,100.3566,1,0.45,2025-04-22T16:45:05.666+03:00,83,1.383333333333333,2025-04-22T14:20:19.516+03:00,0.02197104130929222,0
2025-04-22T16:47:33.017+03:00,1745329650.22196,40.95223626562538,29.14017881431385,76.20023,-1,-1,-1,-1,30,18.19813875302852,-9999,38412.26996000001,-0.7558746337890625,0.643829345703125,-0.5795440673828125,38412.26242,-2.949286355837199,-1.175617577982469,-0.6237669645279408,-1.447811961174011,-0.01626725494861603,0.2033630162477493,-0.00729823112487793,0.007379412651062012,-0.2606438100337982,XArbitraryZVertical,-0.5498633665866826,0.2034994638901261,-0.7720173740779662,0.2454124561114496,-0.7491255402565002,0.5840969085693359,-0.3124764859676361,0,0,0,-1,-1,38400.244848625,unknown,2,2025-04-22T16:47:20.987+03:00,2025-04-21T17:08:51.449+03:00,8628,1.066148,0,0,7163.833,7,22,2025-04-22T16:43:03.021+03:00,767022451.4019172,0,-12.79,100.3566,1,0.45,2025-04-22T16:45:05.666+03:00,83,1.383333333333333,2025-04-22T14:20:19.516+03:00,0.02197104130929222,0
2025-04-22T16:47:33.027+03:00,1745329650.22196,40.95223626562538,29.14017881431385,76.20023,-1,-1,-1,-1,30,18.19813875302852,-9999,38412.280037,-0.7421875,0.6800384521484375,-0.5841827392578125,38412.27249600001,-2.964825368689738,-1.185267127561678,-0.631214147908061,-1.420969247817993,-0.09233944863080978,0.2071810215711594,-0.0102919340133667,0.04122215509414673,-0.2743681669235229,XArbitraryZVertical,-0.5516131404480076,0.2095909727402031,-0.7701224637919015,0.2422929550927821,-0.7480545043945312,0.5901253819465637,-0.3035891354084015,0,0,0,-1,-1,38400.244848625,unknown,2,2025-04-22T16:47:20.987+03:00,2025-04-21T17:08:51.449+03:00,8628,1.066148,0,0,7163.833,7,22,2025-04-22T16:43:03.021+03:00,767022451.4019172,0,-12.79,100.3566,1,0.45,2025-04-22T16:45:05.666+03:00,83,1.383333333333333,2025-04-22T14:20:19.516+03:00,0.02197104130929222,0
2025-04-22T16:47:33.037+03:00,1745329650.22196,40.95223626562538,29.14017881431385,76.20023,-1,-1,-1,-1,30,18.19813875302852,-9999,38412.290114,-0.75341796875,0.70184326171875,-0.57073974609375,38412.282573,-2.979978358921798,-1.195591948183968,-0.6383113797544319,-1.340684175491333,-0.1707804650068283,0.2004709243774414,0.0003157258033752441,0.0708162784576416,-0.2886854410171509,XArbitraryZVertical,-0.5535907410490006,0.2153686396102295,-0.7680208483144324,0.2393690186615991,-0.7472332715988159,0.5958401560783386,-0.2943072915077209,0,0,0,-1,-1,38400.244848625,unknown,2,2025-04-22T16:47:20.987+03:00,2025-04-21T17:08:51.449+03:00,8628,1.066148,0,0,7163.833,7,22,2025-04-22T16:43:03.021+03:00,767022451.4019172,0,-12.79,100.3566,1,0.45,2025-04-22T16:45:05.666+03:00,83,1.383333333333333,2025-04-22T14:20:19.516+03:00,0.02197104130929222,0
2025-04-22T16:47:33.047+03:00,1745329650.22196,40.95223626562538,29.14017881431385,76.20023,-1,-1,-1,-1,30,18.19813875302852,-9999,38412.300191,-0.7740020751953125,0.7168731689453125,-0.549072265625,38412.29265,-2.993561438818605,-1.205845220909583,-0.6447570417123955,-1.116407036781311,-0.2558688819408417,0.210220143198967,0.001491308212280273,0.09517782926559448,-0.292047530412674,XArbitraryZVertical,-0.5556653052149354,0.2204750199465044,-0.7658252121211814,0.2369354470702476,-0.7466083168983459,0.6010043025016785,-0.2852536737918854,0,0,0,-1,-1,38400.244848625,unknown,2,2025-04-22T16:47:20.987+03:00,2025-04-21T17:08:51.449+03:00,8628,1.066148,0,0,7163.833,7,22,2025-04-22T16:43:03.021+03:00,767022451.4019172,0,-12.79,100.3566,1,0.45,2025-04-22T16:45:05.666+03:00,83,1.383333333333333,2025-04-22T14:20:19.516+03:00,0.02197104130929222,0
2025-04-22T16:47:33.057+03:00,1745329650.22196,40.95223626562538,29.14017881431385,76.20023,-1,-1,-1,-1,30,18.19813875302852,-9999,38412.310267,-0.777923583984375,0.73876953125,-0.5229034423828125,38412.302727,-3.003547538106026,-1.215011453162327,-0.649985223190936,-0.7142494320869446,-0.37468022108078,0.1975040882825851,-0.02178442478179932,0.1048015356063843,-0.2808820009231567,XArbitraryZVertical,-0.5577338052747056,0.2242387979152516,-0.7636704966203435,0.2354936452447207,-0.7462360858917236,0.6051746606826782,-0.2772999405860901,0,0,0,-1,-1,38400.244848625,unknown,2,2025-04-22T16:47:20.987+03:00,2025-04-21T17:08:51.449+03:00,8628,1.066148,0,0,7163.833,7,22,2025-04-22T16:43:03.021+03:00,767022451.4019172,0,-12.79,100.3566,1,0.45,2025-04-22T16:45:05.666+03:00,83,1.383333333333333,2025-04-22T14:20:19.516+03:00,0.02197104130929222,0
2025-04-22T16:47:33.075+03:00,1745329650.22196,40.95223626562538,29.14017881431385,76.20023,-1,-1,-1,-1,30,18.19813875302852,-9999,38412.320344,-0.7802276611328125,0.736602783203125,-0.5067596435546875,38412.312803,-3.008762329368186,-1.222647770635689,-0.6532988100745799,-0.2938636541366577,-0.5188102126121521,0.1357840001583099,-0.03122133016586304,0.1234376430511475,-0.262158215045929,XArbitraryZVertical,-0.5598429108793932,0.2261017937468076,-0.7616559780394936,0.2352317646103392,-0.7464427351951599,0.6078092455863953,-0.2709077894687653,0,0,0,-1,-1,38400.244848625,unknown,2,2025-04-22T16:47:20.987+03:00,2025-04-21T17:08:51.449+03:00,8628,1.066148,0,0,7163.833,7,22,2025-04-22T16:43:03.021+03:00,767022451.4019172,0,-12.79,100.3566,1,0.45,2025-04-22T16:45:05.666+03:00,83,1.383333333333333,2025-04-22T14:20:19.516+03:00,0.02197104130929222,0
2025-04-22T16:47:33.079+03:00,1745329650.22196,40.95223626562538,29.14017881431385,76.20023,-1,-1,-1,-1,30,18.19813875302852,-9999,38412.330421,-0.779388427734375,0.703857421875,-0.5044097900390625,38412.32288,-3.009921764846033,-1.229473370211267,-0.6547421835275616,0.01701913960278034,-0.6878911256790161,0.08437913656234741,-0.03065955638885498,0.1331411600112915,-0.2462215721607208,XArbitraryZVertical,-0.5622116392369805,0.2261896007101412,-0.7596627419902924,0.2359424095674403,-0.7474470138549805,0.6089547872543335,-0.2655126750469208,0,0,0,-1,-1,38400.244848625,unknown,2,2025-04-22T16:47:20.987+03:00,2025-04-21T17:08:51.449+03:00,8628,1.066148,0,0,7163.833,7,22,2025-04-22T16:43:03.021+03:00,767022451.4019172,0,-12.79,100.3566,1,0.45,2025-04-22T16:45:05.666+03:00,83,1.383333333333333,2025-04-22T14:20:19.516+03:00,0.02197104130929222,0
2025-04-22T16:47:33.087+03:00,1745329650.22196,40.95223626562538,29.14017881431385,76.20023,-1,-1,-1,-1,30,18.19813875302852,-9999,38412.340497,-0.767303466796875,0.6917266845703125,-0.5003662109375,38412.332957,-3.00818814439309,-1.23608259962822,-0.6551373524804032,0.2089040279388428,-0.8301839828491211,0.07897204905748367,-0.0323527455329895,0.1079100966453552,-0.2435254454612732,XArbitraryZVertical,-0.5648875500005263,0.2250736700216709,-0.7575363642075738,0.2374500777620018,-0.7489582300186157,0.6092681884765625,-0.2604877948760986,0,0,0,-1,-1,38400.244848625,unknown,2,2025-04-22T16:47:20.987+03:00,2025-04-21T17:08:51.449+03:00,8628,1.066148,0,0,7163.833,7,22,2025-04-22T16:43:03.021+03:00,767022451.4019172,0,-12.79,100.3566,1,0.45,2025-04-22T16:45:05.666+03:00,83,1.383333333333333,2025-04-22T14:20:19.516+03:00,0.02197104130929222,0
2025-04-22T16:47:33.097+03:00,1745329650.22196,40.95223626562538,29.14017881431385,76.20023,-1,-1,-1,-1,30,18.19813875302852,-9999,38412.350574,-0.7579803466796875,0.6843414306640625,-0.47674560546875,38412.343033,-3.004557197245573,-1.242923222819079,-0.6550355555182592,0.3245041072368622,-0.9715645313262939,0.0900084525346756,-0.02177107334136963,0.0817304253578186,-0.2483602166175842,XArbitraryZVertical,-0.5678882800720598,0.2231898507735911,-0.7551813508143986,0.2395628011106287,-0.7507812976837158,0.6091874241828918,-0.255378395318985,0,0,0,-1,-1,38400.244848625,unknown,2,2025-04-22T16:47:20.987+03:00,2025-04-21T17:08:51.449+03:00,8628,1.066148,0,0,7163.833,7,22,2025-04-22T16:43:03.021+03:00,767022451.4019172,0,-12.79,100.3566,1,0.45,2025-04-22T16:45:05.666+03:00,83,1.383333333333333,2025-04-22T14:20:19.516+03:00,0.02197104130929222,0
2025-04-22T16:47:33.107+03:00,1745329650.22196,40.95223626562538,29.14017881431385,76.20023,-1,-1,-1,-1,30,18.19813875302852,-9999,38412.360651,-0.7403106689453125,0.6305999755859375,-0.4355621337890625,38412.35311,-3.00031587561796,-1.250848209006715,-0.654878124366859,0.3044880032539368,-1.109570622444153,0.09077741205692291,-0.009532809257507324,0.08371680974960327,-0.237350732088089,XArbitraryZVertical,-0.571356768369186,0.2209664047711165,-0.7524369343111569,0.2419994235764618,-0.7528724074363708,0.6090626120567322,-0.2494505792856216,0,0,0,-1,-1,38400.244848625,unknown,2,2025-04-22T16:47:20.987+03:00,2025-04-21T17:08:51.449+03:00,8628,1.066148,0,0,7163.833,7,22,2025-04-22T16:43:03.021+03:00,767022451.4019172,0,-12.79,100.3566,1,0.45,2025-04-22T16:45:05.666+03:00,83,1.383333333333333,2025-04-22T14:20:19.516+03:00,0.02197104130929222,0
2025-04-22T16:47:33.117+03:00,1745329650.22196,40.95223626562538,29.14017881431385,76.20023,-1,-1,-1,-1,30,18.19813875302852,-9999,38412.370728,-0.721221923828125,0.6014404296875,-0.3607940673828125,38412.363187,-2.997031147404403,-1.260673628339526,-0.6549731349560196,0.1621449589729309,-1.236372232437134,0.08822956681251526,0.007169961929321289,0.04343456029891968,-0.2123374044895172,XArbitraryZVertical,-0.5754001767948143,0.2188670285634573,-0.7492065131116289,0.2443384122665409,-0.7552318572998047,0.6091379523277283,-0.2420237213373184,0,0,0,-1,-1,38400.244848625,unknown,2,2025-04-22T16:47:20.987+03:00,2025-04-21T17:08:51.449+03:00,8628,1.066148,0,0,7163.833,7,22,2025-04-22T16:43:03.021+03:00,767022451.4019172,0,-12.79,100.3566,1,0.45,2025-04-22T16:45:05.666+03:00,83,1.383333333333333,2025-04-22T14:20:19.516+03:00,0.02197104130929222,0
2025-04-22T16:47:33.128+03:00,1745329650.22196,40.95223626562538,29.14017881431385,76.20023,-1,-1,-1,-1,30,18.19813875302852,-9999,38412.380804,-0.70855712890625,0.632781982421875,-0.280120849609375,38412.373264,-2.995624370636669,-1.272857347606686,-0.6555158680227646,0.03587917611002922,-1.350303888320923,0.08570635318756104,0.03095608949661255,-0.005060970783233643,-0.1611679643392563,XArbitraryZVertical,-0.580069598864995,0.2171763847028287,-0.7454331797421766,0.2463388055972399,-0.7578083276748657,0.6095682978630066,-0.2327073514461517,0,0,0,-1,-1,38400.244848625,unknown,2,2025-04-22T16:47:20.987+03:00,2025-04-21T17:08:51.449+03:00,8628,1.066148,0,0,7163.833,7,22,2025-04-22T16:43:03.021+03:00,767022451.4019172,0,-12.79,100.3566,1,0.45,2025-04-22T16:45:05.666+03:00,83,1.383333333333333,2025-04-22T14:20:19.516+03:00,0.02197104130929222,0
2025-04-22T16:47:33.138+03:00,1745329650.22196,40.95223626562538,29.14017881431385,76.20023,-1,-1,-1,-1,30,18.19813875302852,-9999,38412.390881,-0.702484130859375,0.655792236328125,-0.264892578125,38412.38334,-2.995110738954004,-1.28664250464268,-0.6563071336357233,-0.01377785578370094,-1.44336199760437,0.08278912305831909,0.04737687110900879,0.006412208080291748,-0.08275173604488373,XArbitraryZVertical,-0.5851947376499649,0.2156274961883607,-0.7412355948639086,0.2482368455720925,-0.7604809403419495,0.6101953387260437,-0.2221038043498993,0,0,0,-1,-1,38400.244848625,unknown,2,2025-04-22T16:47:20.987+03:00,2025-04-21T17:08:51.449+03:00,8628,1.066148,0,0,7163.833,7,22,2025-04-22T16:43:03.021+03:00,767022451.4019172,0,-12.79,100.3566,1,0.45,2025-04-22T16:45:05.666+03:00,83,1.383333333333333,2025-04-22T14:20:19.516+03:00,0.02197104130929222,0
2025-04-22T16:47:33.148+03:00,1745329650.22196,40.95223626562538,29.14017881431385,76.20023,-1,-1,-1,-1,30,18.19813875302852,-9999,38412.40095800001,-0.7276763916015625,0.6563262939453125,-0.23431396484375,38412.393417,-2.995560567674532,-1.301693097842384,-0.657081254779105,-0.09402668476104736,-1.487509489059448,0.04229599237442017,0.06209486722946167,0.0411384105682373,-0.05494962632656097,XArbitraryZVertical,-0.5906538898672391,0.2141824455470371,-0.7367517788866113,0.2499008870874714,-0.7632818222045898,0.6108084321022034,-0.210507720708847,0,0,0,-1,-1,38400.244848625,unknown,2,2025-04-22T16:47:20.987+03:00,2025-04-21T17:08:51.449+03:00,8628,1.066148,0,0,7163.833,7,22,2025-04-22T16:43:03.021+03:00,767022451.4019172,0,-12.79,100.3566,1,0.45,2025-04-22T16:45:05.666+03:00,83,1.383333333333333,2025-04-22T14:20:19.516+03:00,0.02197104130929222,0
2025-04-22T16:47:33.158+03:00,1745329650.22196,40.95223626562538,29.14017881431385,76.20023,-1,-1,-1,-1,30,18.19813875302852,-9999,38412.411034,-0.744537353515625,0.634674072265625,-0.207733154296875,38412.40349400001,-2.996671652125607,-1.317576173799945,-0.6575561650612185,-0.1093941926956177,-1.52886176109314,0.004114252980798483,0.05015325546264648,0.04521805047988892,-0.0514397919178009,XArbitraryZVertical,-0.596334243485296,0.2127031006012028,-0.7321071389107073,0.2513200431208641,-0.7662479877471924,0.6111844182014465,-0.1982857286930084,0,0,0,-1,-1,38400.244848625,unknown,2,2025-04-22T16:47:20.987+03:00,2025-04-21T17:08:51.449+03:00,8628,1.066148,0,0,7163.833,7,22,2025-04-22T16:43:03.021+03:00,767022451.4019172,0,-12.79,100.3566,1,0.45,2025-04-22T16:45:05.666+03:00,83,1.383333333333333,2025-04-22T14:20:19.516+03:00,0.02197104130929222,0
2025-04-22T16:47:33.168+03:00,1745329650.22196,40.95223626562538,29.14017881431385,76.20023,-1,-1,-1,-1,30,18.19813875302852,-9999,38412.421111,-0.7639007568359375,0.5987701416015625,-0.1902008056640625,38412.41357,-2.998047204019437,-1.333714858539459,-0.657757197774853,-0.108415812253952,-1.506083965301514,-0.01506440155208111,0.02965068817138672,0.0348966121673584,-0.02688813209533691,XArbitraryZVertical,-0.6020626775968122,0.2111583394947654,-0.7274156482799476,0.2525847935581685,-0.7692288756370544,0.6113435029983521,-0.1858653724193573,0,0,0,-1,-1,38400.244848625,unknown,2,2025-04-22T16:47:20.987+03:00,2025-04-21T17:08:51.449+03:00,8628,1.066148,0,0,7163.833,7,22,2025-04-22T16:43:03.021+03:00,767022451.4019172,0,-12.79,100.3566,1,0.45,2025-04-22T16:45:05.666+03:00,83,1.383333333333333,2025-04-22T14:20:19.516+03:00,0.02197104130929222,0
2025-04-22T16:47:33.178+03:00,1745329650.22196,40.95223626562538,29.14017881431385,76.20023,-1,-1,-1,-1,30,18.19813875302852,-9999,38412.431188,-0.7732086181640625,0.554595947265625,-0.1502227783203125,38412.423647,-2.999242484508668,-1.349442647362916,-0.6578936931003327,-0.06255271285772324,-1.472310066223145,0.002249075099825859,0.01610082387924194,0.0009139776229858398,-0.02610298991203308,XArbitraryZVertical,-0.607629068771949,0.2095800182056262,-0.722790298326381,0.2538446028597944,-0.7719752788543701,0.6114515066146851,-0.1737262606620789,0,0,0,-1,-1,38400.244848625,unknown,2,2025-04-22T16:47:20.987+03:00,2025-04-21T17:08:51.449+03:00,8628,1.066148,0,0,7163.833,7,22,2025-04-22T16:43:03.021+03:00,767022451.4019172,0,-12.79,100.3566,1,0.45,2025-04-22T16:45:05.666+03:00,83,1.383333333333333,2025-04-22T14:20:19.516+03:00,0.02197104130929222,0
2025-04-22T16:47:33.188+03:00,1745329650.22196,40.95223626562538,29.14017881431385,76.20023,-1,-1,-1,-1,30,18.19813875302852,-9999,38412.441265,-0.75567626953125,0.513702392578125,-0.1135406494140625,38412.433724,-2.999643556774391,-1.364392234196134,-0.6579992430558356,0.008782381191849709,-1.447757959365845,0.002024404238909483,0.001504480838775635,-0.03817087411880493,-0.004762709140777588,XArbitraryZVertical,-0.6129651053399051,0.207839085056245,-0.7182642059553824,0.2552904642597109,-0.7744231224060059,0.6115350723266602,-0.1621533930301666,0,0,0,-1,-1,38400.244848625,unknown,2,2025-04-22T16:47:20.987+03:00,2025-04-21T17:08:51.449+03:00,8628,1.066148,0,0,7163.833,7,22,2025-04-22T16:43:03.021+03:00,767022451.4019172,0,-12.79,100.3566,1,0.45,2025-04-22T16:45:05.666+03:00,83,1.383333333333333,2025-04-22T14:20:19.516+03:00,0.02197104130929222,0
2025-04-22T16:47:33.198+03:00,1745329650.22196,40.95223626562538,29.14017881431385,76.20023,-1,-1,-1,-1,30,18.19813875302852,-9999,38412.451341,-0.7403106689453125,0.50579833984375,-0.09808349609375,38412.443801,-2.998619244068365,-1.378196276889741,-0.6579305144192484,0.1565201878547668,-1.416968584060669,0.01882495544850826,0.01333850622177124,-0.08679205179214478,0.02532678842544556,XArbitraryZVertical,-0.6180186534759031,0.2057301009402771,-0.7138948226804535,0.2570645344123765,-0.7766287922859192,0.6114806532859802,-0.1514561325311661,0,0,0,-1,-1,38400.244848625,unknown,2,2025-04-22T16:47:20.987+03:00,2025-04-21T17:08:51.449+03:00,8628,1.066148,0,0,7163.833,7,22,2025-04-22T16:43:03.021+03:00,767022451.4019172,0,-12.79,100.3566,1,0.45,2025-04-22T16:45:05.666+03:00,83,1.383333333333333,2025-04-22T14:20:19.516+03:00,0.02197104130929222,0
2025-04-22T16:47:33.208+03:00,1745329650.22196,40.95223626562538,29.14017881431385,76.20023,-1,-1,-1,-1,30,18.19813875302852,-9999,38412.461418,-0.727752685546875,0.5088653564453125,-0.0916290283203125,38412.453877,-2.995677617499052,-1.390619323624937,-0.657758406469036,0.3005294799804688,-1.407361030578613,0.02887915447354317,0.03265863656997681,-0.1051494479179382,0.04147343337535858,XArbitraryZVertical,-0.6227538346733952,0.2031499877116963,-0.7096867075281235,0.2593310243902353,-0.7785540223121643,0.6113444566726685,-0.1418154835700989,0,0,0,-1,-1,38400.244848625,unknown,2,2025-04-22T16:47:20.987+03:00,2025-04-21T17:08:51.449+03:00,8628,1.066148,0,0,7163.833,7,22,2025-04-22T16:43:03.021+03:00,767022451.4019172,0,-12.79,100.3566,1,0.45,2025-04-22T16:45:05.666+03:00,83,1.383333333333333,2025-04-22T14:20:19.516+03:00,0.02197104130929222,0
2025-04-22T16:47:33.218+03:00,1745329650.22196,40.95223626562538,29.14017881431385,76.20023,-1,-1,-1,-1,30,18.19813875302852,-9999,38412.47149500001,-0.71099853515625,0.5225372314453125,-0.071380615234375,38412.463954,-2.991050816022501,-1.401891206283206,-0.6573565408310553,0.4345621168613434,-1.395424008369446,0.02582797221839428,0.04758757352828979,-0.1041752099990845,0.03677372634410858,XArbitraryZVertical,-0.6272393736731705,0.2000866801084695,-0.705619823273133,0.2619862193656326,-0.7803451418876648,0.611026406288147,-0.1330721825361252,0,0,0,-1,-1,38400.244848625,unknown,2,2025-04-22T16:47:20.987+03:00,2025-04-21T17:08:51.449+03:00,8628,1.066148,0,0,7163.833,7,22,2025-04-22T16:43:03.021+03:00,767022451.4019172,0,-12.79,100.3566,1,0.45,2025-04-22T16:45:05.666+03:00,83,1.383333333333333,2025-04-22T14:20:19.516+03:00,0.02197104130929222,0
2025-04-22T16:47:33.228+03:00,1745329650.22196,40.95223626562538,29.14017881431385,76.20023,-1,-1,-1,-1,30,18.19813875302852,-9999,38412.481571,-0.6863555908203125,0.5311737060546875,-0.048736572265625,38412.47403100001,-2.985241495635808,-1.412414792233756,-0.6569566770154047,0.43555748462677,-1.395710945129395,0.03577041625976562,0.06346815824508667,-0.09401679039001465,0.04644584655761719,XArbitraryZVertical,-0.6315485103399965,0.1967250906342128,-0.7016011061182315,0.2649556819658951,-0.7819433808326721,0.6107097864151001,-0.1248914375901222,0,0,0,-1,-1,38400.244848625,unknown,2,2025-04-22T16:47:20.987+03:00,2025-04-21T17:08:51.449+03:00,8628,1.066148,0,0,7163.833,7,22,2025-04-22T16:43:03.021+03:00,767022451.4019172,0,-12.79,100.3566,1,0.45,2025-04-22T16:45:05.666+03:00,83,1.383333333333333,2025-04-22T14:20:19.516+03:00,0.02197104130929222,0
2025-04-22T16:47:33.238+03:00,1745329650.22196,40.95223626562538,29.14017881431385,76.20023,-1,-1,-1,-1,30,18.19813875302852,-9999,38412.491648,-0.6667022705078125,0.5386199951171875,0.020477294921875,38412.484107,-2.980047528524077,-1.423145072299255,-0.656623269284243,0.35445836186409,-1.367136001586914,0.03046220168471336,0.08777648210525513,-0.08143889904022217,0.05467981100082397,XArbitraryZVertical,-0.6358339949215157,0.1935282649399127,-0.6975584075027197,0.2677202199483791,-0.7834398150444031,0.6104457974433899,-0.1165238842368126,0,0,0,-1,-1,38400.244848625,unknown,2,2025-04-22T16:47:20.987+03:00,2025-04-21T17:08:51.449+03:00,8628,1.066148,0,0,7163.833,7,22,2025-04-22T16:43:03.021+03:00,767022451.4019172,0,-12.79,100.3566,1,0.45,2025-04-22T16:45:05.666+03:00,83,1.383333333333333,2025-04-22T14:20:19.516+03:00,0.02197104130929222,0
2025-04-22T16:47:33.249+03:00,1745329650.22196,40.95223626562538,29.14017881431385,76.20023,-1,-1,-1,-1,30,18.19813875302852,-9999,38412.501725,-0.6431884765625,0.55535888671875,0.0888519287109375,38412.494184,-2.976613808168942,-1.434460501669959,-0.6565896186810999,0.2031296938657761,-1.291384935379028,0.03795773908495903,0.1111140847206116,-0.07494252920150757,0.09961289167404175,XArbitraryZVertical,-0.6401016627209813,0.1908995609729722,-0.6934922547297464,0.2699917865861397,-0.784728467464447,0.6104190945625305,-0.1076544374227524,0,0,0,-1,-1,38400.244848625,unknown,2,2025-04-22T16:47:20.987+03:00,2025-04-21T17:08:51.449+03:00,8628,1.066148,0,0,7163.833,7,22,2025-04-22T16:43:03.021+03:00,767022451.4019172,0,-12.79,100.3566,1,0.45,2025-04-22T16:45:05.666+03:00,83,1.383333333333333,2025-04-22T14:20:19.516+03:00,0.02197104130929222,0
2025-04-22T16:47:33.259+03:00,1745329650.22196,40.95223626562538,29.14017881431385,76.20023,-1,-1,-1,-1,30,18.19813875302852,-9999,38412.511802,-0.6307830810546875,0.5813751220703125,0.118621826171875,38412.504261,-2.974538299686893,-1.44568942546772,-0.6568269107276389,0.107993058860302,-1.185109615325928,0.05256490781903267,0.1324697136878967,-0.06400686502456665,0.1636372208595276,XArbitraryZVertical,-0.6441631254872774,0.1887983367711975,-0.6895711116620151,0.271846743420702,-0.7857441306114197,0.6106070280075073,-0.0988181084394455,0,0,0,-1,-1,38400.244848625,unknown,2,2025-04-22T16:47:20.987+03:00,2025-04-21T17:08:51.449+03:00,8628,1.066148,0,0,7163.833,7,22,2025-04-22T16:43:03.021+03:00,767022451.4019172,0,-12.79,100.3566,1,0.45,2025-04-22T16:45:05.666+03:00,83,1.383333333333333,2025-04-22T14:20:19.516+03:00,0.02197104130929222,0
2025-04-22T16:47:33.269+03:00,1745329650.22196,40.95223626562538,29.14017881431385,76.20023,-1,-1,-1,-1,30,18.19813875302852,-9999,38412.521878,-0.644256591796875,0.57513427734375,0.1306610107421875,38412.514338,-2.973671990262142,-1.456424459819135,-0.657331834519264,0.01955633237957954,-1.047901749610901,0.06465163081884384,0.1542358994483948,-0.03634566068649292,0.2036997079849243,XArbitraryZVertical,-0.6478971321888876,0.1872381136127875,-0.6859114458595479,0.2733067442346366,-0.7864532470703125,0.6110068559646606,-0.09034238755702972,0,0,0,-1,-1,38400.244848625,unknown,2,2025-04-22T16:47:20.987+03:00,2025-04-21T17:08:51.449+03:00,8628,1.066148,0,0,7163.833,7,22,2025-04-22T16:43:03.021+03:00,767022451.4019172,0,-12.79,100.3566,1,0.45,2025-04-22T16:45:05.666+03:00,83,1.383333333333333,2025-04-22T14:20:19.516+03:00,0.02197104130929222,0
2025-04-22T16:47:33.279+03:00,1745329650.22196,40.95223626562538,29.14017881431385,76.20023,-1,-1,-1,-1,30,18.19813875302852,-9999,38412.53195500001,-0.6607818603515625,0.5581817626953125,0.1612396240234375,38412.524414,-2.974012850920433,-1.466507011579237,-0.6580130240021586,-0.09240349382162094,-0.9139136075973511,0.0597412995994091,0.1495046615600586,-0.03068965673446655,0.2078226804733276,XArbitraryZVertical,-0.6512617514402809,0.1862137464154619,-0.6825838473617875,0.2743389699908863,-0.7869101166725159,0.6115459203720093,-0.08236514031887054,0,0,0,-1,-1,38400.244848625,unknown,2,2025-04-22T16:47:20.987+03:00,2025-04-21T17:08:51.449+03:00,8628,1.066148,0,0,7163.833,7,22,2025-04-22T16:43:03.021+03:00,767022451.4019172,0,-12.79,100.3566,1,0.45,2025-04-22T16:45:05.666+03:00,83,1.383333333333333,2025-04-22T14:20:19.516+03:00,0.02197104130929222,0
2025-04-22T16:47:33.289+03:00,1745329650.22196,40.95223626562538,29.14017881431385,76.20023,-1,-1,-1,-1,30,18.19813875302852,-9999,38412.542032,-0.6736297607421875,0.5513153076171875,0.2554168701171875,38412.53449100001,-2.975680980540153,-1.47600751810238,-0.6586212793863377,-0.1658053994178772,-0.7700963616371155,0.03787294775247574,0.132470965385437,-0.04813867807388306,0.2192439436912537,XArbitraryZVertical,-0.6542941137735997,0.1856719763114098,-0.6796231844073874,0.2748405677611029,-0.7872865200042725,0.612027108669281,-0.07485026121139526,0,0,0,-1,-1,38400.244848625,unknown,2,2025-04-22T16:47:20.987+03:00,2025-04-21T17:08:51.449+03:00,8628,1.066148,0,0,7163.833,7,22,2025-04-22T16:43:03.021+03:00,767022451.4019172,0,-12.79,100.3566,1,0.45,2025-04-22T16:45:05.666+03:00,83,1.383333333333333,2025-04-22T14:20:19.516+03:00,0.02197104130929222,0
2025-04-22T16:47:33.299+03:00,1745329650.22196,40.95223626562538,29.14017881431385,76.20023,-1,-1,-1,-1,30,18.19813875302852,-9999,38412.552108,-0.6737518310546875,0.547027587890625,0.333892822265625,38412.544568,-2.977446851682798,-1.484164469024705,-0.6589031046312184,-0.1110105961561203,-0.641473114490509,-0.01290714088827372,0.1175636053085327,-0.05852389335632324,0.2832545638084412,XArbitraryZVertical,-0.6568746467741847,0.1852300484206833,-0.677151204771581,0.2750847862382525,-0.7876989841461182,0.6122499704360962,-0.06841105222702026,0,0,0,-1,-1,38400.244848625,unknown,2,2025-04-22T16:47:20.987+03:00,2025-04-21T17:08:51.449+03:00,8628,1.066148,0,0,7163.833,7,22,2025-04-22T16:43:03.021+03:00,767022451.4019172,0,-12.79,100.3566,1,0.45,2025-04-22T16:45:05.666+03:00,83,1.383333333333333,2025-04-22T14:20:19.516+03:00,0.02197104130929222,0
2025-04-22T16:47:33.309+03:00,1745329650.22196,40.95223626562538,29.14017881431385,76.20023,-1,-1,-1,-1,30,18.19813875302852,-9999,38412.562185,-0.6915130615234375,0.585723876953125,0.35577392578125,38412.554644,-2.978459448192988,-1.490670586348463,-0.6584382239256583,-0.02802896313369274,-0.5204250812530518,-0.09184127300977707,0.1154832243919373,-0.06509906053543091,0.3746934533119202,XArbitraryZVertical,-0.6590182138840558,0.1845026216441402,-0.6752174528995105,0.275199930477886,-0.7884109616279602,0.6118823289871216,-0.06330755352973938,0,0,0,-1,-1,38400.244848625,unknown,2,2025-04-22T16:47:20.987+03:00,2025-04-21T17:08:51.449+03:00,8628,1.066148,0,0,7163.833,7,22,2025-04-22T16:43:03.021+03:00,767022451.4019172,0,-12.79,100.3566,1,0.45,2025-04-22T16:45:05.666+03:00,83,1.383333333333333,2025-04-22T14:20:19.516+03:00,0.02197104130929222,0
2025-04-22T16:47:33.319+03:00,1745329650.22196,40.95223626562538,29.14017881431385,76.20023,-1,-1,-1,-1,30,18.19813875302852,-9999,38412.572262,-0.7147979736328125,0.6568145751953125,0.3366851806640625,38412.564721,-2.977999611279343,-1.494944060434888,-0.6571510278721868,0.1198648884892464,-0.3836496472358704,-0.1535139679908752,0.1070708632469177,-0.04721933603286743,0.4124599695205688,XArbitraryZVertical,-0.6606060799003983,0.1833055298384326,-0.6739302924061354,0.2753482092940145,-0.7894591689109802,0.6108636856079102,-0.05999737977981567,0,0,0,-1,-1,38400.244848625,unknown,2,2025-04-22T16:47:20.987+03:00,2025-04-21T17:08:51.449+03:00,8628,1.066148,0,0,7163.833,7,22,2025-04-22T16:43:03.021+03:00,767022451.4019172,0,-12.79,100.3566,1,0.45,2025-04-22T16:45:05.666+03:00,83,1.383333333333333,2025-04-22T14:20:19.516+03:00,0.02197104130929222,0
2025-04-22T16:47:33.329+03:00,1745329650.22196,40.95223626562538,29.14017881431385,76.20023,-1,-1,-1,-1,30,18.19813875302852,-9999,38412.582339,-0.7177886962890625,0.7097015380859375,0.3023681640625,38412.574798,-2.975764946394462,-1.496870547362706,-0.6551233530243863,0.2618944942951202,-0.2708828747272491,-0.2187852263450623,0.08211249113082886,0.02146482467651367,0.4063458442687988,XArbitraryZVertical,-0.6616223293138012,0.1815820057582734,-0.6732779001352743,0.275645745553086,-0.790806770324707,0.6092570424079895,-0.05856773629784584,0,0,0,-1,-1,38400.244848625,unknown,2,2025-04-22T16:47:20.987+03:00,2025-04-21T17:08:51.449+03:00,8628,1.066148,0,0,7163.833,7,22,2025-04-22T16:43:03.021+03:00,767022451.4019172,0,-12.79,100.3566,1,0.45,2025-04-22T16:45:05.666+03:00,83,1.383333333333333,2025-04-22T14:20:19.516+03:00,0.02197104130929222,0
2025-04-22T16:47:33.339+03:00,1745329650.22196,40.95223626562538,29.14017881431385,76.20023,-1,-1,-1,-1,30,18.19813875302852,-9999,38412.592415,-0.722991943359375,0.7045440673828125,0.2652587890625,38412.584875,-2.971696831830911,-1.496513545471563,-0.6524048315815055,0.4183954000473022,-0.1433345228433609,-0.2700774371623993,0.07417309284210205,0.08729773759841919,0.3748447299003601,XArbitraryZVertical,-0.6620860434799712,0.179320082739962,-0.6732270284718935,0.2761369553810086,-0.7924346327781677,0.6070991158485413,-0.05897275730967522,0,0,0,-1,-1,38400.244848625,unknown,2,2025-04-22T16:47:20.987+03:00,2025-04-21T17:08:51.449+03:00,8628,1.066148,0,0,7163.833,7,22,2025-04-22T16:43:03.021+03:00,767022451.4019172,0,-12.79,100.3566,1,0.45,2025-04-22T16:45:05.666+03:00,83,1.383333333333333,2025-04-22T14:20:19.516+03:00,0.02197104130929222,0
2025-04-22T16:47:33.349+03:00,1745329650.22196,40.95223626562538,29.14017881431385,76.20023,-1,-1,-1,-1,30,18.19813875302852,-9999,38412.60249200001,-0.73846435546875,0.66351318359375,0.241241455078125,38412.594951,-2.965704161333847,-1.493740949876232,-0.6490792122459987,0.5606017708778381,-0.02886580675840378,-0.3215277493000031,0.07535892724990845,0.1091697812080383,0.3401941061019897,XArbitraryZVertical,-0.6619457477093322,0.1765374605307146,-0.6737970504067715,0.2768748692455278,-0.7942765951156616,0.6044531464576721,-0.06132470443844795,0,0,0,-1,-1,38400.244848625,unknown,2,2025-04-22T16:47:20.987+03:00,2025-04-21T17:08:51.449+03:00,8628,1.066148,0,0,7163.833,7,22,2025-04-22T16:43:03.021+03:00,767022451.4019172,0,-12.79,100.3566,1,0.45,2025-04-22T16:45:05.666+03:00,83,1.383333333333333,2025-04-22T14:20:19.516+03:00,0.02197104130929222,0
2025-04-22T16:47:33.359+03:00,1745329650.22196,40.95223626562538,29.14017881431385,76.20023,-1,-1,-1,-1,30,18.19813875302852,-9999,38412.612569,-0.74505615234375,0.64373779296875,0.2381591796875,38412.60502800001,-2.958364595408263,-1.489069271927096,-0.6450389022423454,0.662167489528656,0.0836426317691803,-0.3848305642604828,0.06301075220108032,0.07687091827392578,0.3139210343360901,XArbitraryZVertical,-0.6613203501364625,0.1733166481891662,-0.6749113996946658,0.2776889910590519,-0.796409010887146,0.6012295484542847,-0.06523346900939941,0,0,0,-1,-1,38400.244848625,unknown,2,2025-04-22T16:47:20.987+03:00,2025-04-21T17:08:51.449+03:00,8628,1.066148,0,0,7163.833,7,22,2025-04-22T16:43:03.021+03:00,767022451.4019172,0,-12.79,100.3566,1,0.45,2025-04-22T16:45:05.666+03:00,83,1.383333333333333,2025-04-22T14:20:19.516+03:00,0.02197104130929222,0
2025-04-22T16:47:33.370+03:00,1745329650.22196,40.95223626562538,29.14017881431385,76.20023,-1,-1,-1,-1,30,18.19813875302852,-9999,38412.622645,-0.7459716796875,0.6229400634765625,0.260772705078125,38412.615105,-2.949960018934474,-1.482565028208024,-0.6403316423941938,0.7352164387702942,0.2046465575695038,-0.4326124787330627,0.05520230531692505,0.05141842365264893,0.3048676252365112,XArbitraryZVertical,-0.6601903214009778,0.1697598143660564,-0.6765780308095051,0.2785180907106605,-0.7987781763076782,0.5974614024162292,-0.07066068798303604,0,0,0,-1,-1,38400.244848625,unknown,2,2025-04-22T16:47:20.987+03:00,2025-04-21T17:08:51.449+03:00,8628,1.066148,0,0,7163.833,7,22,2025-04-22T16:43:03.021+03:00,767022451.4019172,0,-12.79,100.3566,1,0.45,2025-04-22T16:45:05.666+03:00,83,1.383333333333333,2025-04-22T14:20:19.516+03:00,0.02197104130929222,0
2025-04-22T16:47:33.380+03:00,1745329650.22196,40.95223626562538,29.14017881431385,76.20023,-1,-1,-1,-1,30,18.19813875302852,-9999,38412.632722,-0.740325927734375,0.594573974609375,0.290008544921875,38412.625181,-2.941384501460786,-1.474829293226638,-0.6351048288252579,0.6958386301994324,0.3169176876544952,-0.4726536273956299,0.05455547571182251,0.03950470685958862,0.3287988305091858,XArbitraryZVertical,-0.6586594430696399,0.166131939523872,-0.6786990480961508,0.2791690996459976,-0.8013052940368652,0.5932618975639343,-0.07713583111763,0,0,0,-1,-1,38400.244848625,unknown,2,2025-04-22T16:47:20.987+03:00,2025-04-21T17:08:51.449+03:00,8628,1.066148,0,0,7163.833,7,22,2025-04-22T16:43:03.021+03:00,767022451.4019172,0,-12.79,100.3566,1,0.45,2025-04-22T16:45:05.666+03:00,83,1.383333333333333,2025-04-22T14:20:19.516+03:00,0.02197104130929222,0
2025-04-22T16:47:33.390+03:00,1745329650.22196,40.95223626562538,29.14017881431385,76.20023,-1,-1,-1,-1,30,18.19813875302852,-9999,38412.642799,-0.7333221435546875,0.5830230712890625,0.35333251953125,38412.635258,-2.934567401814187,-1.466985371344047,-0.6295435539073778,0.5049751400947571,0.4503041803836823,-0.5081016421318054,0.06117749214172363,0.01559412479400635,0.3610724210739136,XArbitraryZVertical,-0.6569315824483725,0.1629761128194821,-0.6811453566031859,0.2791424863824705,-0.8039447069168091,0.5887758731842041,-0.0837593674659729,0,0,0,-1,-1,38400.244848625,unknown,2,2025-04-22T16:47:20.987+03:00,2025-04-21T17:08:51.449+03:00,8628,1.066148,0,0,7163.833,7,22,2025-04-22T16:43:03.021+03:00,767022451.4019172,0,-12.79,100.3566,1,0.45,2025-04-22T16:45:05.666+03:00,83,1.383333333333333,2025-04-22T14:20:19.516+03:00,0.02197104130929222,0
2025-04-22T16:47:33.400+03:00,1745329650.22196,40.95223626562538,29.14017881431385,76.20023,-1,-1,-1,-1,30,18.19813875302852,-9999,38412.652876,-0.7152557373046875,0.581512451171875,0.38916015625,38412.645335,-2.930136634042756,-1.458996210773851,-0.6240327236819211,0.3248072564601898,0.614502489566803,-0.5023908019065857,0.07019507884979248,0.001075446605682373,0.4164828658103943,XArbitraryZVertical,-0.6549241557368216,0.1606371803734541,-0.6839595597767623,0.2783329186972194,-0.8064620494842529,0.5843125581741333,-0.09054009616374969,0,0,0,-1,-1,38400.244848625,unknown,2,2025-04-22T16:47:20.987+03:00,2025-04-21T17:08:51.449+03:00,8628,1.066148,0,0,7163.833,7,22,2025-04-22T16:43:03.021+03:00,767022451.4019172,0,-12.79,100.3566,1,0.45,2025-04-22T16:45:05.666+03:00,83,1.383333333333333,2025-04-22T14:20:19.516+03:00,0.02197104130929222,0
2025-04-22T16:47:33.410+03:00,1745329650.22196,40.95223626562538,29.14017881431385,76.20023,-1,-1,-1,-1,30,18.19813875302852,-9999,38412.662952,-0.716705322265625,0.5844268798828125,0.367156982421875,38412.655412,-2.927979533067224,-1.450804992140905,-0.6186410262370881,0.1522167772054672,0.7622255086898804,-0.5241155624389648,0.08633643388748169,0.00164484977722168,0.483764111995697,XArbitraryZVertical,-0.6526304313821885,0.1591044324804523,-0.687130926466856,0.2767856165721924,-0.8088094592094421,0.5799285769462585,-0.09751860052347183,0,0,0,-1,-1,38400.244848625,unknown,2,2025-04-22T16:47:20.987+03:00,2025-04-21T17:08:51.449+03:00,8628,1.066148,0,0,7163.833,7,22,2025-04-22T16:43:03.021+03:00,767022451.4019172,0,-12.79,100.3566,1,0.45,2025-04-22T16:45:05.666+03:00,83,1.383333333333333,2025-04-22T14:20:19.516+03:00,0.02197104130929222,0
2025-04-22T16:47:33.420+03:00,1745329650.22196,40.95223626562538,29.14017881431385,76.20023,-1,-1,-1,-1,30,18.19813875302852,-9999,38412.67302900001,-0.7338104248046875,0.5673828125,0.3511962890625,38412.665488,-2.92783238155655,-1.442233566740254,-0.6131710880285806,-0.02238326147198677,0.9102091193199158,-0.5569560527801514,0.09866029024124146,0.00787961483001709,0.4819582104682922,XArbitraryZVertical,-0.6500267706775387,0.1582366654382233,-0.6907038713657193,0.2745074608630056,-0.8110777139663696,0.5754637718200684,-0.1048527136445045,0,0,0,-1,-1,38400.244848625,unknown,2,2025-04-22T16:47:20.987+03:00,2025-04-21T17:08:51.449+03:00,8628,1.066148,0,0,7163.833,7,22,2025-04-22T16:43:03.021+03:00,767022451.4019172,0,-12.79,100.3566,1,0.45,2025-04-22T16:45:05.666+03:00,83,1.383333333333333,2025-04-22T14:20:19.516+03:00,0.02197104130929222,0
2025-04-22T16:47:33.430+03:00,1745329650.22196,40.95223626562538,29.14017881431385,76.20023,-1,-1,-1,-1,30,18.19813875302852,-9999,38412.683106,-0.757843017578125,0.5352325439453125,0.3801727294921875,38412.67556500001,-2.930880460458652,-1.434033101831306,-0.6076116454069355,-0.3247310817241669,1.072722196578979,-0.5940151214599609,0.08611369132995605,0.006636857986450195,0.4665183424949646,XArbitraryZVertical,-0.6472813168190319,0.1583019498192735,-0.6945892021582351,0.2711329361729361,-0.8133474588394165,0.5709081888198853,-0.1119347810745239,0,0,0,-1,-1,38400.244848625,unknown,2,2025-04-22T16:47:20.987+03:00,2025-04-21T17:08:51.449+03:00,8628,1.066148,0,0,7163.833,7,22,2025-04-22T16:43:03.021+03:00,767022451.4019172,0,-12.79,100.3566,1,0.45,2025-04-22T16:45:05.666+03:00,83,1.383333333333333,2025-04-22T14:20:19.516+03:00,0.02197104130929222,0
2025-04-22T16:47:33.440+03:00,1745329650.22196,40.95223626562538,29.14017881431385,76.20023,-1,-1,-1,-1,30,18.19813875302852,-9999,38412.693182,-0.7582550048828125,0.500640869140625,0.4318695068359375,38412.685642,-2.937401810798129,-1.426062795748963,-0.6023831654003772,-0.582025945186615,1.240798354148865,-0.5805358290672302,0.06697452068328857,-0.01919877529144287,0.480704665184021,XArbitraryZVertical,-0.6442994247805366,0.1595521939198321,-0.6987939450711849,0.2666613938287208,-0.8153722286224365,0.5666077733039856,-0.1188426986336708,0,0,0,-1,-1,38400.244848625,unknown,2,2025-04-22T16:47:20.987+03:00,2025-04-21T17:08:51.449+03:00,8628,1.066148,0,0,7163.833,7,22,2025-04-22T16:43:03.021+03:00,767022451.4019172,0,-12.79,100.3566,1,0.45,2025-04-22T16:45:05.666+03:00,83,1.383333333333333,2025-04-22T14:20:19.516+03:00,0.02197104130929222,0
2025-04-22T16:47:33.450+03:00,1745329650.22196,40.95223626562538,29.14017881431385,76.20023,-1,-1,-1,-1,30,18.19813875302852,-9999,38412.703259,-0.7490386962890625,0.4429473876953125,0.4822998046875,38412.695718,-2.947442071981766,-1.418440349594554,-0.5976835177005003,-0.910455584526062,1.415477991104126,-0.5863276720046997,0.0544772744178772,-0.04815691709518433,0.5418081879615784,XArbitraryZVertical,-0.6411023549804998,0.1620469960862661,-0.7032374975478929,0.2611236990275462,-0.8170658349990845,0.5627290606498718,-0.1254570782184601,0,0,0,-1,-1,38400.244848625,unknown,2,2025-04-22T16:47:20.987+03:00,2025-04-21T17:08:51.449+03:00,8628,1.066148,0,0,7163.833,7,22,2025-04-22T16:43:03.021+03:00,767022451.4019172,0,-12.79,100.3566,1,0.45,2025-04-22T16:45:05.666+03:00,83,1.383333333333333,2025-04-22T14:20:19.516+03:00,0.02197104130929222,0
2025-04-22T16:47:33.460+03:00,1745329650.22196,40.95223626562538,29.14017881431385,76.20023,-1,-1,-1,-1,30,18.19813875302852,-9999,38412.713336,-0.7314605712890625,0.373046875,0.5908050537109375,38412.705795,-2.960103991907405,-1.409872458157381,-0.593731966394924,-1.008228778839111,1.683934926986694,-0.5185033679008484,0.06784433126449585,-0.09131854772567749,0.5891068577766418,XArbitraryZVertical,-0.6372818918404995,0.165733805760243,-0.7081628327354021,0.2547735511187165,-0.8181495070457458,0.5594581961631775,-0.132808193564415,0,0,0,-1,-1,38400.244848625,unknown,2,2025-04-22T16:47:20.987+03:00,2025-04-21T17:08:51.449+03:00,8628,1.066148,0,0,7163.833,7,22,2025-04-22T16:43:03.021+03:00,767022451.4019172,0,-12.79,100.3566,1,0.45,2025-04-22T16:45:05.666+03:00,83,1.383333333333333,2025-04-22T14:20:19.516+03:00,0.02197104130929222,0
2025-04-22T16:47:33.470+03:00,1745329650.22196,40.95223626562538,29.14017881431385,76.20023,-1,-1,-1,-1,30,18.19813875302852,-9999,38412.723413,-0.6557464599609375,0.4368438720703125,0.6988677978515625,38412.715872,-2.972478231351813,-1.3984177130774,-0.5902859693238182,-0.7990440130233765,1.975273728370667,-0.4907420873641968,0.07362645864486694,-0.1627541184425354,0.6910387873649597,XArbitraryZVertical,-0.6323848131506438,0.1698206704682445,-0.7138306651282327,0.2483869100473905,-0.8184688687324524,0.5565986037254333,-0.1425007730722427,0,0,0,-1,-1,38400.244848625,unknown,2,2025-04-22T16:47:20.987+03:00,2025-04-21T17:08:51.449+03:00,8628,1.066148,0,0,7163.833,7,22,2025-04-22T16:43:03.021+03:00,767022451.4019172,0,-12.79,100.3566,1,0.45,2025-04-22T16:45:05.666+03:00,83,1.383333333333333,2025-04-22T14:20:19.516+03:00,0.02197104130929222,0
2025-04-22T16:47:33.480+03:00,1745329650.22196,40.95223626562538,29.14017881431385,76.20023,-1,-1,-1,-1,30,18.19813875302852,-9999,38412.73348900001,-0.59332275390625,0.531768798828125,0.7224884033203125,38412.725949,-2.979172732761663,-1.380466441860562,-0.5865660471389224,-0.1161168143153191,2.332783937454224,-0.4466649293899536,0.1298184394836426,-0.1611704230308533,0.8208595514297485,XArbitraryZVertical,-0.6256039052403567,0.1727415552836085,-0.7208066831693533,0.2433471079052901,-0.8178066611289978,0.5535043478012085,-0.1575602144002914,0,0,0,-1,-1,38400.244848625,unknown,2,2025-04-22T16:47:20.987+03:00,2025-04-21T17:08:51.449+03:00,8628,1.066148,0,0,7163.833,7,22,2025-04-22T16:43:03.021+03:00,767022451.4019172,0,-12.79,100.3566,1,0.45,2025-04-22T16:45:05.666+03:00,83,1.383333333333333,2025-04-22T14:20:19.516+03:00,0.02197104130929222,0
2025-04-22T16:47:33.490+03:00,1745329650.22196,40.95223626562538,29.14017881431385,76.20023,-1,-1,-1,-1,30,18.19813875302852,-9999,38412.743566,-0.593780517578125,0.4910736083984375,0.7356109619140625,38412.73602500001,-2.97665867350597,-1.353612479214666,-0.5817129986329288,0.7213746309280396,2.716295957565308,-0.4134747385978699,0.2075420022010803,-0.03752362728118896,0.9032594561576843,XArbitraryZVertical,-0.6163771648223689,0.1733775580384329,-0.7295006191742949,0.2405166320703102,-0.8158946633338928,0.549456000328064,-0.1800388246774673,0,0,0,-1,-1,38400.244848625,unknown,2,2025-04-22T16:47:20.987+03:00,2025-04-21T17:08:51.449+03:00,8628,1.066148,0,0,7163.833,7,22,2025-04-22T16:43:03.021+03:00,767022451.4019172,0,-12.79,100.3566,1,0.45,2025-04-22T16:45:05.666+03:00,83,1.383333333333333,2025-04-22T14:20:19.516+03:00,0.02197104130929222,0
2025-04-22T16:47:33.500+03:00,1745329650.22196,40.95223626562538,29.14017881431385,76.20023,-1,-1,-1,-1,30,18.19813875302852,-9999,38412.753643,-0.5615386962890625,0.4108428955078125,0.7458038330078125,38412.746102,-2.96419898077601,-1.317525351850145,-0.5751245794223879,1.59779679775238,3.102302074432373,-0.3658505082130432,0.2218091487884521,-0.02762776613235474,0.9361061453819275,XArbitraryZVertical,-0.6045616991742264,0.1713903048946681,-0.7399210378899606,0.2400985278989457,-0.8123547434806824,0.5439393520355225,-0.2102610319852829,0,0,0,-1,-1,38400.244848625,unknown,2,2025-04-22T16:47:20.987+03:00,2025-04-21T17:08:51.449+03:00,8628,1.066148,0,0,7163.833,7,22,2025-04-22T16:43:03.021+03:00,767022451.4019172,0,-12.79,100.3566,1,0.45,2025-04-22T16:45:05.666+03:00,83,1.383333333333333,2025-04-22T14:20:19.516+03:00,0.02197104130929222,0
2025-04-22T16:47:33.511+03:00,1745329650.22196,40.95223626562538,29.14017881431385,76.20023,-1,-1,-1,-1,30,18.19813875302852,-9999,38412.76372,-0.4824676513671875,0.3329010009765625,0.7210540771484375,38412.756179,-2.942352310234014,-1.272317896453269,-0.5665411845237043,2.361733436584473,3.527379512786865,-0.264849066734314,0.2241191267967224,-0.09541749954223633,0.9967790842056274,XArbitraryZVertical,-0.589964457127545,0.1669758145151834,-0.7519820993409843,0.2420410212647816,-0.8064554333686829,0.5367168188095093,-0.2481220364570618,0,0,0,-1,-1,38400.244848625,unknown,2,2025-04-22T16:47:20.987+03:00,2025-04-21T17:08:51.449+03:00,8628,1.066148,0,0,7163.833,7,22,2025-04-22T16:43:03.021+03:00,767022451.4019172,0,-12.79,100.3566,1,0.45,2025-04-22T16:45:05.666+03:00,83,1.383333333333333,2025-04-22T14:20:19.516+03:00,0.02197104130929222,0
2025-04-22T16:47:33.521+03:00,1745329650.22196,40.95223626562538,29.14017881431385,76.20023,-1,-1,-1,-1,30,18.19813875302852,-9999,38412.773796,-0.4203643798828125,0.336822509765625,0.6624603271484375,38412.766256,-2.913294023104555,-1.218803953128249,-0.5561126356539952,2.924626111984253,4.023633480072021,-0.1285687237977982,0.2843008637428284,-0.1691545844078064,1.023300647735596,XArbitraryZVertical,-0.5724472943197585,0.1609214545712419,-0.7654686710552021,0.2458985676211972,-0.7972402572631836,0.5278885960578918,-0.2928167581558228,0,0,0,-1,-1,38400.244848625,unknown,2,2025-04-22T16:47:20.987+03:00,2025-04-21T17:08:51.449+03:00,8628,1.066148,0,0,7163.833,7,22,2025-04-22T16:43:03.021+03:00,767022451.4019172,0,-12.79,100.3566,1,0.45,2025-04-22T16:45:05.666+03:00,83,1.383333333333333,2025-04-22T14:20:19.516+03:00,0.02197104130929222,0
