loggingTime(txt),locationTimestamp_since1970(s),locationLatitude(WGS84),locationLongitude(WGS84),locationAltitude(m),locationSpeed(m/s),locationSpeedAccuracy(m/s),locationCourse(°),locationCourseAccuracy(°),locationVerticalAccuracy(m),locationHorizontalAccuracy(m),locationFloor(Z),accelerometerTimestamp_sinceReboot(s),accelerometerAccelerationX(G),accelerometerAccelerationY(G),accelerometerAccelerationZ(G),motionTimestamp_sinceReboot(s),motionYaw(rad),motionRoll(rad),motionPitch(rad),motionRotationRateX(rad/s),motionRotationRateY(rad/s),motionRotationRateZ(rad/s),motionUserAccelerationX(G),motionUserAccelerationY(G),motionUserAccelerationZ(G),motionAttitudeReferenceFrame(txt),motionQuaternionX(R),motionQuaternionY(R),motionQuaternionZ(R),motionQuaternionW(R),motionGravityX(G),motionGravityY(G),motionGravityZ(G),motionMagneticFieldX(µT),motionMagneticFieldY(µT),motionMagneticFieldZ(µT),motionHeading(°),motionMagneticFieldCalibrationAccuracy(Z),activityTimestamp_sinceReboot(s),activity(txt),activityActivityConfidence(Z),activityActivityStartDate(txt),pedometerStartDate(txt),pedometerNumberofSteps(N),pedometerAverageActivePace(s/m),pedometerCurrentPace(s/m),pedometerCurrentCadence(steps/s),pedometerDistance(m),pedometerFloorAscended(N),pedometerFloorDescended(N),pedometerEndDate(txt),altimeterTimestamp_sinceReboot(s),altimeterReset(bool),altimeterRelativeAltitude(m),altimeterPressure(kPa),batteryState(N),batteryLevel(R),heartRateBPMTimestamp(txt),heartRateBPM(N),heartRateBPS(R),heartRateVariabilityTimestamp(txt),heartRateVariability(ms),label
2025-04-22T16:28:34.892+03:00,1745328514.31086,40.95223118027651,29.14031871188165,76.03748,-1,-1,-1,-1,30.0056606849946,39.38603433184983,-9999,37445.698874125,-0.807525634765625,0.716583251953125,-0.1952362060546875,37445.688798125,-3.054355900775723,-1.33900795666432,-0.7304081806677154,-0.01356106530874968,0.06027542427182198,0.02733688242733479,0.03888505697250366,-0.05296182632446289,0.007741644978523254,XArbitraryZVertical,-0.5913291576737917,0.2545014301260642,-0.7220556258258886,0.2533659659186697,-0.7249810695648193,0.6671737432479858,-0.1711176931858063,0,0,0,-1,-1,37443.66748329167,unknown,2,2025-04-22T16:28:23.387+03:00,2025-04-21T17:08:51.449+03:00,8584,1.057491,0,0,7132.477,7,22,2025-04-22T16:28:23.387+03:00,767021264.8016557,0,-12.9,100.3591,1,0.5,2025-04-22T16:27:26.940+03:00,96,1.6,2025-04-22T14:20:19.516+03:00,0.02197104130929222,0
2025-04-22T16:28:34.894+03:00,1745328514.31086,40.95223118027651,29.14031871188165,76.03748,-1,-1,-1,-1,30.0056606849946,39.38603433184983,-9999,37445.708949125,-0.7363128662109375,0.674560546875,-0.178619384765625,37445.698874125,-3.054493806766482,-1.338690958788401,-0.7306904271899806,-0.01945623941719532,0.009486015886068344,0.01494439505040646,0.03352057933807373,-0.07732677459716797,0.003213182091712952,XArbitraryZVertical,-0.5911703993423717,0.254686980729225,-0.7221238079871054,0.2533558008671575,-0.7247436046600342,0.6673839688301086,-0.1713041961193085,0,0,0,-1,-1,37443.66748329167,unknown,2,2025-04-22T16:28:23.387+03:00,2025-04-21T17:08:51.449+03:00,8584,1.057491,0,0,7132.477,7,22,2025-04-22T16:28:23.387+03:00,767021264.8016557,0,-12.9,100.3591,1,0.5,2025-04-22T16:27:26.940+03:00,96,1.6,2025-04-22T14:20:19.516+03:00,0.02197104130929222,0
2025-04-22T16:28:34.895+03:00,1745328514.31086,40.95223118027651,29.14031871188165,76.03748,-1,-1,-1,-1,30.0056606849946,39.38603433184983,-9999,37445.719025125,-0.6847686767578125,0.6481781005859375,-0.16766357421875,37445.708949125,-3.054900073794822,-1.339070612173864,-0.7307286695142876,-0.03548647463321686,-0.01023642346262932,0.008155264891684055,-0.08924198150634766,0.05736470222473145,-0.02486932277679443,XArbitraryZVertical,-0.5912520964464814,0.2547731620573954,-0.7220572449581457,0.2532683018092267,-0.7247837781906128,0.6674124598503113,-0.1710231900215149,0,0,0,-1,-1,37443.66748329167,unknown,2,2025-04-22T16:28:23.387+03:00,2025-04-21T17:08:51.449+03:00,8584,1.057491,0,0,7132.477,7,22,2025-04-22T16:28:23.387+03:00,767021264.8016557,0,-12.9,100.3591,1,0.5,2025-04-22T16:27:26.940+03:00,96,1.6,2025-04-22T14:20:19.516+03:00,0.02197104130929222,0
2025-04-22T16:28:34.897+03:00,1745328514.31086,40.95223118027651,29.14031871188165,76.03748,-1,-1,-1,-1,30.0056606849946,39.38603433184983,-9999,37445.72910112501,-0.7510528564453125,0.6788787841796875,-0.1738433837890625,37445.719025125,-3.055133846792339,-1.339029140310228,-0.7309706840600751,-0.01707257702946663,0.03734494373202324,0.01795702800154686,0.005243957042694092,-0.003942251205444336,-0.004566952586174011,XArbitraryZVertical,-0.5911843628328745,0.2549372202704059,-0.7220621482187529,0.2532472394393406,-0.7246193885803223,0.6675926446914673,-0.171016126871109,0,0,0,-1,-1,37443.66748329167,unknown,2,2025-04-22T16:28:23.387+03:00,2025-04-21T17:08:51.449+03:00,8584,1.057491,0,0,7132.477,7,22,2025-04-22T16:28:23.387+03:00,767021264.8016557,0,-12.9,100.3591,1,0.5,2025-04-22T16:27:26.940+03:00,96,1.6,2025-04-22T14:20:19.516+03:00,0.02197104130929222,0
2025-04-22T16:28:34.908+03:00,1745328514.31086,40.95223118027651,29.14031871188165,76.03748,-1,-1,-1,-1,30.0056606849946,39.38603433184983,-9999,37445.739177125,-0.7263336181640625,0.6702117919921875,-0.170684814453125,37445.72910112501,-3.055230773028965,-1.338678157397911,-0.7312916763214217,-0.01318542659282684,0.03294327110052109,0.0166772473603487,0.03230375051498413,-0.01510655879974365,0.002870708703994751,XArbitraryZVertical,-0.5910147939603888,0.2551292843358451,-0.7221291316251597,0.2532584873636432,-0.7243506908416748,0.6678315997123718,-0.1712211221456528,0,0,0,-1,-1,37443.66748329167,unknown,2,2025-04-22T16:28:23.387+03:00,2025-04-21T17:08:51.449+03:00,8584,1.057491,0,0,7132.477,7,22,2025-04-22T16:28:23.387+03:00,767021264.8016557,0,-12.9,100.3591,1,0.5,2025-04-22T16:27:26.940+03:00,96,1.6,2025-04-22T14:20:19.516+03:00,0.02197104130929222,0
2025-04-22T16:28:34.919+03:00,1745328514.31086,40.95223118027651,29.14031871188165,76.03748,-1,-1,-1,-1,30.0056606849946,39.38603433184983,-9999,37445.749253125,-0.7049102783203125,0.6632232666015625,-0.1610565185546875,37445.739177125,-3.055398392727412,-1.338549889690929,-0.731436857343721,-0.01831148006021976,0.02086876519024372,0.01698910258710384,-0.02919858694076538,0.01193094253540039,-0.003223195672035217,XArbitraryZVertical,-0.5909332754647439,0.2552488462655742,-0.7221663289983886,0.2532226762312189,-0.7242346405982971,0.6679396629333496,-0.171291783452034,0,0,0,-1,-1,37443.66748329167,unknown,2,2025-04-22T16:28:23.387+03:00,2025-04-21T17:08:51.449+03:00,8584,1.057491,0,0,7132.477,7,22,2025-04-22T16:28:23.387+03:00,767021264.8016557,0,-12.9,100.3591,1,0.5,2025-04-22T16:27:26.940+03:00,96,1.6,2025-04-22T14:20:19.516+03:00,0.02197104130929222,0
2025-04-22T16:28:34.927+03:00,1745328514.31086,40.95223118027651,29.14031871188165,76.03748,-1,-1,-1,-1,30.0056606849946,39.38603433184983,-9999,37445.759329125,-0.725067138671875,0.665618896484375,-0.162139892578125,37445.749253125,-3.055542737359278,-1.338394131114219,-0.731662782157015,-0.01034276839345694,0.03133285790681839,0.02124962769448757,0.003830909729003906,0.0002880692481994629,0.001234069466590881,XArbitraryZVertical,-0.590837141752922,0.2553949665035026,-0.7221959473492453,0.2532147477944764,-0.7240608334541321,0.6681077480316162,-0.1713697612285614,0,0,0,-1,-1,37443.66748329167,unknown,2,2025-04-22T16:28:23.387+03:00,2025-04-21T17:08:51.449+03:00,8584,1.057491,0,0,7132.477,7,22,2025-04-22T16:28:23.387+03:00,767021264.8016557,0,-12.9,100.3591,1,0.5,2025-04-22T16:27:26.940+03:00,96,1.6,2025-04-22T14:20:19.516+03:00,0.02197104130929222,0
2025-04-22T16:28:34.937+03:00,1745328514.31086,40.95223118027651,29.14031871188165,76.03748,-1,-1,-1,-1,30.0056606849946,39.38603433184983,-9999,37445.769405125,-0.7220458984375,0.6553497314453125,-0.1704254150390625,37445.759329125,-3.055630875546818,-1.338132274754085,-0.7319333571560683,-0.01531622186303139,0.02925159782171249,0.01750522293150425,0.01722103357315063,-0.00424659252166748,0.01155965030193329,XArbitraryZVertical,-0.5907055656958689,0.2555544239263922,-0.722243389822572,0.2532260626662347,-0.7238402962684631,0.6683090925216675,-0.1715177446603775,0,0,0,-1,-1,37443.66748329167,unknown,2,2025-04-22T16:28:23.387+03:00,2025-04-21T17:08:51.449+03:00,8584,1.057491,0,0,7132.477,7,22,2025-04-22T16:28:23.387+03:00,767021264.8016557,0,-12.9,100.3591,1,0.5,2025-04-22T16:27:26.940+03:00,96,1.6,2025-04-22T14:20:19.516+03:00,0.02197104130929222,0
2025-04-22T16:28:34.948+03:00,1745328514.31086,40.95223118027651,29.14031871188165,76.03748,-1,-1,-1,-1,30.0056606849946,39.38603433184983,-9999,37445.779481125,-0.714080810546875,0.66180419921875,-0.1683349609375,37445.769405125,-3.055757497303031,-1.337957685791937,-0.732138144522287,-0.01140210777521133,0.02353465743362904,0.02000729739665985,-0.002641379833221436,-0.00365138053894043,0.008984103798866272,XArbitraryZVertical,-0.5906068661181576,0.2556898509666928,-0.7222794744662627,0.2532161026219094,-0.723676860332489,0.6684613823890686,-0.1716124564409256,0,0,0,-1,-1,37443.66748329167,unknown,2,2025-04-22T16:28:23.387+03:00,2025-04-21T17:08:51.449+03:00,8584,1.057491,0,0,7132.477,7,22,2025-04-22T16:28:23.387+03:00,767021264.8016557,0,-12.9,100.3591,1,0.5,2025-04-22T16:27:26.940+03:00,96,1.6,2025-04-22T14:20:19.516+03:00,0.02197104130929222,0
2025-04-22T16:28:34.958+03:00,1745328514.31086,40.95223118027651,29.14031871188165,76.03748,-1,-1,-1,-1,30.0056606849946,39.38603433184983,-9999,37445.789557125,-0.7204742431640625,0.6768646240234375,-0.170928955078125,37445.779481125,-3.055795856834736,-1.337778258002951,-0.7322881846504191,-0.007214819546788931,0.01564664021134377,0.01476779393851757,0.003410041332244873,-0.01349800825119019,0.001186743378639221,XArbitraryZVertical,-0.5905228808848816,0.2557795125932373,-0.7223143786603585,0.2532218095238852,-0.723548412322998,0.6685729622840881,-0.1717191338539124,0,0,0,-1,-1,37443.66748329167,unknown,2,2025-04-22T16:28:23.387+03:00,2025-04-21T17:08:51.449+03:00,8584,1.057491,0,0,7132.477,7,22,2025-04-22T16:28:23.387+03:00,767021264.8016557,0,-12.9,100.3591,1,0.5,2025-04-22T16:27:26.940+03:00,96,1.6,2025-04-22T14:20:19.516+03:00,0.02197104130929222,0
2025-04-22T16:28:34.968+03:00,1745328514.31086,40.95223118027651,29.14031871188165,76.03748,-1,-1,-1,-1,30.0056606849946,39.38603433184983,-9999,37445.799633125,-0.7198333740234375,0.662689208984375,-0.1767120361328125,37445.789557125,-3.055894497416887,-1.337715275568817,-0.7323982381983883,-0.0168400164693594,0.01042897440493107,0.008540524169802666,0.008668363094329834,-0.003768444061279297,0.003473639488220215,XArbitraryZVertical,-0.5904770228060756,0.2558573894146423,-0.7223288341056998,0.2532092444803135,-0.7234662175178528,0.6686547994613647,-0.1717477589845657,0,0,0,-1,-1,37443.66748329167,unknown,2,2025-04-22T16:28:23.387+03:00,2025-04-21T17:08:51.449+03:00,8584,1.057491,0,0,7132.477,7,22,2025-04-22T16:28:23.387+03:00,767021264.8016557,0,-12.9,100.3591,1,0.5,2025-04-22T16:27:26.940+03:00,96,1.6,2025-04-22T14:20:19.516+03:00,0.02197104130929222,0
2025-04-22T16:28:34.978+03:00,1745328514.31086,40.95223118027651,29.14031871188165,76.03748,-1,-1,-1,-1,30.0056606849946,39.38603433184983,-9999,37445.809709125,-0.7185516357421875,0.6579742431640625,-0.1726837158203125,37445.799633125,-3.056133895393607,-1.337792508004364,-0.7325385340786474,-0.02518103644251823,0.004528208635747433,0.008340520784258842,0.002700507640838623,0.007464587688446045,2.390146255493164e-05,XArbitraryZVertical,-0.5904609164852568,0.2559702906908927,-0.7223149367428702,0.2531723928529447,-0.7233882546424866,0.6687591075897217,-0.1716702282428741,0,0,0,-1,-1,37443.66748329167,unknown,2,2025-04-22T16:28:23.387+03:00,2025-04-21T17:08:51.449+03:00,8584,1.057491,0,0,7132.477,7,22,2025-04-22T16:28:23.387+03:00,767021264.8016557,0,-12.9,100.3591,1,0.5,2025-04-22T16:27:26.940+03:00,96,1.6,2025-04-22T14:20:19.516+03:00,0.02197104130929222,0
2025-04-22T16:28:34.988+03:00,1745328514.31086,40.95223118027651,29.14031871188165,76.03748,-1,-1,-1,-1,30.0056606849946,39.38603433184983,-9999,37445.819785125,-0.7196197509765625,0.667083740234375,-0.1686553955078125,37445.809709125,-3.056487091299045,-1.338004781479122,-0.7327197402848311,-0.03328510373830795,0.0005959849804639816,0.008619054220616817,0.003427624702453613,-0.008340895175933838,-0.005452468991279602,XArbitraryZVertical,-0.5904750862984661,0.2561148584770971,-0.7222692665512612,0.2531233509261895,-0.7233067154884338,0.6688938736915588,-0.1714887022972107,0,0,0,-1,-1,37443.66748329167,unknown,2,2025-04-22T16:28:23.387+03:00,2025-04-21T17:08:51.449+03:00,8584,1.057491,0,0,7132.477,7,22,2025-04-22T16:28:23.387+03:00,767021264.8016557,0,-12.9,100.3591,1,0.5,2025-04-22T16:27:26.940+03:00,96,1.6,2025-04-22T14:20:19.516+03:00,0.02197104130929222,0
2025-04-22T16:28:34.998+03:00,1745328514.31086,40.95223118027651,29.14031871188165,76.03748,-1,-1,-1,-1,30.0056606849946,39.38603433184983,-9999,37445.829861125,-0.719573974609375,0.6653594970703125,-0.1683502197265625,37445.819785125,-3.056896845179962,-1.338295020359213,-0.7328303984809081,-0.03067999891936779,-0.003247488755732775,0.006189718842506409,0.005297422409057617,-0.009216666221618652,-0.0006745457649230957,XArbitraryZVertical,-0.5905168496664905,0.2562401150985027,-0.7222185271104498,0.2530439094415928,-0.7232844233512878,0.6689761281013489,-0.1712617129087448,0,0,0,-1,-1,37443.66748329167,unknown,2,2025-04-22T16:28:23.387+03:00,2025-04-21T17:08:51.449+03:00,8584,1.057491,0,0,7132.477,7,22,2025-04-22T16:28:23.387+03:00,767021264.8016557,0,-12.9,100.3591,1,0.5,2025-04-22T16:27:26.940+03:00,96,1.6,2025-04-22T14:20:19.516+03:00,0.02197104130929222,0
2025-04-22T16:28:35.008+03:00,1745328514.31086,40.95223118027651,29.14031871188165,76.03748,-1,-1,-1,-1,30.0056606849946,39.38603433184983,-9999,37445.839936125,-0.7198028564453125,0.6610870361328125,-0.174224853515625,37445.829861125,-3.057286082364637,-1.338587230568377,-0.7329773209575076,-0.03056468442082405,-0.00315747456625104,0.007828894071280956,0.003878414630889893,-0.001864373683929443,0.002707809209823608,XArbitraryZVertical,-0.5905584540000852,0.2563725233148895,-0.7221589121890617,0.252982488229419,-0.7232385873794556,0.6690853238105774,-0.1710276901721954,0,0,0,-1,-1,37443.66748329167,unknown,2,2025-04-22T16:28:23.387+03:00,2025-04-21T17:08:51.449+03:00,8584,1.057491,0,0,7132.477,7,22,2025-04-22T16:28:23.387+03:00,767021264.8016557,0,-12.9,100.3591,1,0.5,2025-04-22T16:27:26.940+03:00,96,1.6,2025-04-22T14:20:19.516+03:00,0.02197104130929222,0
2025-04-22T16:28:35.018+03:00,1745328514.31086,40.95223118027651,29.14031871188165,76.03748,-1,-1,-1,-1,30.0056606849946,39.38603433184983,-9999,37445.850012125,-0.7225189208984375,0.663543701171875,-0.1739654541015625,37445.839936125,-3.057647079204469,-1.338853269474332,-0.7331536255686161,-0.02400957979261875,0.00388765218667686,0.006153766065835953,0.003687024116516113,-0.004284203052520752,0.002030506730079651,XArbitraryZVertical,-0.5905913488888331,0.2565107748753147,-0.7220991563288358,0.2529362209087479,-0.7231693267822266,0.6692163348197937,-0.1708081662654877,0,0,0,-1,-1,37443.66748329167,unknown,2,2025-04-22T16:28:23.387+03:00,2025-04-21T17:08:51.449+03:00,8584,1.057491,0,0,7132.477,7,22,2025-04-22T16:28:23.387+03:00,767021264.8016557,0,-12.9,100.3591,1,0.5,2025-04-22T16:27:26.940+03:00,96,1.6,2025-04-22T14:20:19.516+03:00,0.02197104130929222,0
2025-04-22T16:28:35.028+03:00,1745328514.31086,40.95223118027651,29.14031871188165,76.03748,-1,-1,-1,-1,30.0056606849946,39.38603433184983,-9999,37445.860088125,-0.720489501953125,0.6698455810546875,-0.1689300537109375,37445.850012125,-3.05797274015074,-1.339061420153214,-0.7332923534513885,-0.02225874923169613,0.005155649501830339,0.01147439610213041,0.003571212291717529,-0.009025931358337402,-0.0035124272108078,XArbitraryZVertical,-0.5906114304145935,0.2566319981658141,-0.7220577254985107,0.2528846756418458,-0.7231144905090332,0.6693193912506104,-0.170636311173439,0,0,0,-1,-1,37443.66748329167,unknown,2,2025-04-22T16:28:23.387+03:00,2025-04-21T17:08:51.449+03:00,8584,1.057491,0,0,7132.477,7,22,2025-04-22T16:28:23.387+03:00,767021264.8016557,0,-12.9,100.3591,1,0.5,2025-04-22T16:27:26.940+03:00,96,1.6,2025-04-22T14:20:19.516+03:00,0.02197104130929222,0
2025-04-22T16:28:35.038+03:00,1745328514.31086,40.95223118027651,29.14031871188165,76.03748,-1,-1,-1,-1,30.0056606849946,39.38603433184983,-9999,37445.870164125,-0.7189483642578125,0.663970947265625,-0.1666259765625,37445.860088125,-3.058241102060297,-1.339167281778129,-0.7334104900902256,-0.02073462307453156,0.009095796383917332,0.01151620782911777,-0.000363469123840332,-0.004627585411071777,-0.00305783748626709,XArbitraryZVertical,-0.5906038778022795,0.2567416082786968,-0.7220423907507885,0.252834872575924,-0.7230556011199951,0.6694071888923645,-0.1705416142940521,0,0,0,-1,-1,37443.66748329167,unknown,2,2025-04-22T16:28:23.387+03:00,2025-04-21T17:08:51.449+03:00,8584,1.057491,0,0,7132.477,7,22,2025-04-22T16:28:23.387+03:00,767021264.8016557,0,-12.9,100.3591,1,0.5,2025-04-22T16:27:26.940+03:00,96,1.6,2025-04-22T14:20:19.516+03:00,0.02197104130929222,0
2025-04-22T16:28:35.048+03:00,1745328514.31086,40.95223118027651,29.14031871188165,76.03748,-1,-1,-1,-1,30.0056606849946,39.38603433184983,-9999,37445.880240125,-0.7190399169921875,0.6650848388671875,-0.1656036376953125,37445.870164125,-3.058435247126717,-1.339188248218869,-0.7336119686364543,-0.01426999922841787,0.01514230482280254,0.01712698675692081,0.002469003200531006,0.0001360177993774414,0.001717820763587952,XArbitraryZVertical,-0.5905671905734214,0.2568708959328823,-0.722029954156902,0.2528246302594148,-0.7229278087615967,0.6695567965507507,-0.1704954653978348,0,0,0,-1,-1,37443.66748329167,unknown,2,2025-04-22T16:28:23.387+03:00,2025-04-21T17:08:51.449+03:00,8584,1.057491,0,0,7132.477,7,22,2025-04-22T16:28:23.387+03:00,767021264.8016557,0,-12.9,100.3591,1,0.5,2025-04-22T16:27:26.940+03:00,96,1.6,2025-04-22T14:20:19.516+03:00,0.02197104130929222,0
2025-04-22T16:28:35.059+03:00,1745328514.31086,40.95223118027651,29.14031871188165,76.03748,-1,-1,-1,-1,30.0056606849946,39.38603433184983,-9999,37445.89031612501,-0.7160797119140625,0.672454833984375,-0.166595458984375,37445.880240125,-3.058527715840953,-1.339084961978001,-0.733841473800693,-0.009097076021134853,0.01385626383125782,0.01413732394576073,0.004300594329833984,-0.006031155586242676,0.004381671547889709,XArbitraryZVertical,-0.5904959927753107,0.2569962378023821,-0.7220370839463935,0.2528430767007622,-0.7227605581283569,0.6697272658348083,-0.1705348342657089,0,0,0,-1,-1,37443.66748329167,unknown,2,2025-04-22T16:28:23.387+03:00,2025-04-21T17:08:51.449+03:00,8584,1.057491,0,0,7132.477,7,22,2025-04-22T16:28:23.387+03:00,767021264.8016557,0,-12.9,100.3591,1,0.5,2025-04-22T16:27:26.940+03:00,96,1.6,2025-04-22T14:20:19.516+03:00,0.02197104130929222,0
2025-04-22T16:28:35.069+03:00,1745328514.31086,40.95223118027651,29.14031871188165,76.03748,-1,-1,-1,-1,30.0056606849946,39.38603433184983,-9999,37445.900392125,-0.71588134765625,0.670440673828125,-0.169281005859375,37445.89031612501,-3.058519356929981,-1.33892663311817,-0.7339294260636965,-0.005507733207195997,0.008494720794260502,0.01158065628260374,0.003773808479309082,-0.003090441226959229,0.004818260669708252,XArbitraryZVertical,-0.5904314572347791,0.2570463502368379,-0.7220693820031824,0.2528506777953231,-0.7226762771606445,0.6697925925254822,-0.1706357300281525,0,0,0,-1,-1,37443.66748329167,unknown,2,2025-04-22T16:28:23.387+03:00,2025-04-21T17:08:51.449+03:00,8584,1.057491,0,0,7132.477,7,22,2025-04-22T16:28:23.387+03:00,767021264.8016557,0,-12.9,100.3591,1,0.5,2025-04-22T16:27:26.940+03:00,96,1.6,2025-04-22T14:20:19.516+03:00,0.02197104130929222,0
2025-04-22T16:28:35.078+03:00,1745328514.31086,40.95223118027651,29.14031871188165,76.03748,-1,-1,-1,-1,30.0056606849946,39.38603433184983,-9999,37445.910468125,-0.719390869140625,0.6695709228515625,-0.172027587890625,37445.900392125,-3.058554170360185,-1.338859776701801,-0.7340098250909644,-0.003835534676909447,0.004454705864191055,0.009831225499510765,0.006731212139129639,0.00283128023147583,0.003465667366981506,XArbitraryZVertical,-0.5903951237816085,0.2570948503721924,-0.7220812482818699,0.2528523118062547,-0.7226124405860901,0.6698522567749023,-0.170671671628952,0,0,0,-1,-1,37443.66748329167,unknown,2,2025-04-22T16:28:23.387+03:00,2025-04-21T17:08:51.449+03:00,8584,1.057491,0,0,7132.477,7,22,2025-04-22T16:28:23.387+03:00,767021264.8016557,0,-12.9,100.3591,1,0.5,2025-04-22T16:27:26.940+03:00,96,1.6,2025-04-22T14:20:19.516+03:00,0.02197104130929222,0
2025-04-22T16:28:35.089+03:00,1745328514.31086,40.95223118027651,29.14031871188165,76.03748,-1,-1,-1,-1,30.0056606849946,39.38603433184983,-9999,37445.920544125,-0.718017578125,0.669464111328125,-0.1737060546875,37445.910468125,-3.058570653274416,-1.338859729021822,-0.7341215193824396,0.0005952997598797083,-0.0004842597991228104,0.009797337464988232,0.006048202514648438,-0.0005168914794921875,0.0007172077894210815,XArbitraryZVertical,-0.5903822415071963,0.257141063753423,-0.7220664977615894,0.2528779639402245,-0.7225398421287537,0.6699352264404297,-0.1706545650959015,0,0,0,-1,-1,37443.66748329167,unknown,2,2025-04-22T16:28:23.387+03:00,2025-04-21T17:08:51.449+03:00,8584,1.057491,0,0,7132.477,7,22,2025-04-22T16:28:23.387+03:00,767021264.8016557,0,-12.9,100.3591,1,0.5,2025-04-22T16:27:26.940+03:00,96,1.6,2025-04-22T14:20:19.516+03:00,0.02197104130929222,0
2025-04-22T16:28:35.099+03:00,1745328514.31086,40.95223118027651,29.14031871188165,76.03748,-1,-1,-1,-1,30.0056606849946,39.38603433184983,-9999,37445.930620125,-0.7176513671875,0.664581298828125,-0.17474365234375,37445.920544125,-3.058610491735285,-1.338948900970295,-0.7342026346578576,-0.008297261781990528,-0.006887298543006182,0.009332881309092045,0.003111422061920166,-0.000882267951965332,-0.001114442944526672,XArbitraryZVertical,-0.5904015146628466,0.2571715785990631,-0.7220328832205536,0.2528980297461622,-0.7225022315979004,0.6699954271316528,-0.17057766020298,0,0,0,-1,-1,37443.66748329167,unknown,2,2025-04-22T16:28:23.387+03:00,2025-04-21T17:08:51.449+03:00,8584,1.057491,0,0,7132.477,7,22,2025-04-22T16:28:23.387+03:00,767021264.8016557,0,-12.9,100.3591,1,0.5,2025-04-22T16:27:26.940+03:00,96,1.6,2025-04-22T14:20:19.516+03:00,0.02197104130929222,0
2025-04-22T16:28:35.109+03:00,1745328514.31086,40.95223118027651,29.14031871188165,76.03748,-1,-1,-1,-1,30.0056606849946,39.38603433184983,-9999,37445.940696125,-0.722198486328125,0.6659393310546875,-0.1756744384765625,37445.930620125,-3.058684777842011,-1.339071398898336,-0.7342918385144105,-0.0127599872648716,-0.01120328344404697,0.0131242573261261,0.004432082176208496,-0.001146972179412842,-0.003597021102905273,XArbitraryZVertical,-0.5904276175682447,0.2572110513533203,-0.7219924275264011,0.2529122791459133,-0.7224648594856262,0.6700616478919983,-0.1704754084348679,0,0,0,-1,-1,37443.66748329167,unknown,2,2025-04-22T16:28:23.387+03:00,2025-04-21T17:08:51.449+03:00,8584,1.057491,0,0,7132.477,7,22,2025-04-22T16:28:23.387+03:00,767021264.8016557,0,-12.9,100.3591,1,0.5,2025-04-22T16:27:26.940+03:00,96,1.6,2025-04-22T14:20:19.516+03:00,0.02197104130929222,0
2025-04-22T16:28:35.119+03:00,1745328514.31086,40.95223118027651,29.14031871188165,76.03748,-1,-1,-1,-1,30.0056606849946,39.38603433184983,-9999,37445.950772125,-0.7229766845703125,0.671875,-0.172821044921875,37445.940696125,-3.058779204487207,-1.339228666409689,-0.7344015247189241,-0.01145876664668322,-0.009846935048699379,0.01171624381095171,0.003654956817626953,-0.006813108921051025,-0.005055069923400879,XArbitraryZVertical,-0.5904616979315399,0.2572596477519681,-0.7219411937347037,0.2529295251948284,-0.7224200963973999,0.6701430678367615,-0.1703449189662933,0,0,0,-1,-1,37443.66748329167,unknown,2,2025-04-22T16:28:23.387+03:00,2025-04-21T17:08:51.449+03:00,8584,1.057491,0,0,7132.477,7,22,2025-04-22T16:28:23.387+03:00,767021264.8016557,0,-12.9,100.3591,1,0.5,2025-04-22T16:27:26.940+03:00,96,1.6,2025-04-22T14:20:19.516+03:00,0.02197104130929222,0
2025-04-22T16:28:35.129+03:00,1745328514.31086,40.95223118027651,29.14031871188165,76.03748,-1,-1,-1,-1,30.0056606849946,39.38603433184983,-9999,37445.96084854167,-0.724395751953125,0.6783905029296875,-0.168914794921875,37445.950772125,-3.058837538665971,-1.339385588294161,-0.7345363857666016,-0.00193809880875051,-0.01441865041851997,0.008712531998753548,0.0004808306694030762,-0.003846168518066406,-0.005784273147583008,XArbitraryZVertical,-0.5904978686376225,0.2573069518330265,-0.7218815940294712,0.2529669208526403,-0.722358763217926,0.6702431440353394,-0.1702107936143875,0,0,0,-1,-1,37443.66748329167,unknown,2,2025-04-22T16:28:23.387+03:00,2025-04-21T17:08:51.449+03:00,8584,1.057491,0,0,7132.477,7,22,2025-04-22T16:28:23.387+03:00,767021264.8016557,0,-12.9,100.3591,1,0.5,2025-04-22T16:27:26.940+03:00,96,1.6,2025-04-22T14:20:19.516+03:00,0.02197104130929222,0
2025-04-22T16:28:35.139+03:00,1745328514.31086,40.95223118027651,29.14031871188165,76.03748,-1,-1,-1,-1,30.0056606849946,39.38603433184983,-9999,37445.97092454167,-0.721343994140625,0.6742095947265625,-0.169891357421875,37445.96084854167,-3.05867461448512,-1.339435410862142,-0.734602755510281,0.02606717124581337,-0.01351157762110233,0.01037780661135912,-0.0007898807525634766,0.002055525779724121,-0.002153083682060242,XArbitraryZVertical,-0.5905304248662551,0.2572771114036045,-0.72183614863321,0.2530509551389716,-0.7223239541053772,0.6702924370765686,-0.1701646149158478,0,0,0,-1,-1,37443.66748329167,unknown,2,2025-04-22T16:28:23.387+03:00,2025-04-21T17:08:51.449+03:00,8584,1.057491,0,0,7132.477,7,22,2025-04-22T16:28:23.387+03:00,767021264.8016557,0,-12.9,100.3591,1,0.5,2025-04-22T16:27:26.940+03:00,96,1.6,2025-04-22T14:20:19.516+03:00,0.02197104130929222,0
2025-04-22T16:28:35.149+03:00,1745328514.31086,40.95223118027651,29.14031871188165,76.03748,-1,-1,-1,-1,30.0056606849946,39.38603433184983,-9999,37445.98100054167,-0.7159271240234375,0.664520263671875,-0.1705322265625,37445.97092454167,-3.058322103281055,-1.339340148508221,-0.7346324681573352,0.01981493271887302,-0.01332828588783741,0.00796514842659235,-0.002458155155181885,0.008518517017364502,0.001802146434783936,XArbitraryZVertical,-0.5905385198944548,0.257196075880721,-0.7218151915419385,0.2531743352076724,-0.7222884297370911,0.6703144907951355,-0.1702288687229156,0,0,0,-1,-1,37443.66748329167,unknown,2,2025-04-22T16:28:23.387+03:00,2025-04-21T17:08:51.449+03:00,8584,1.057491,0,0,7132.477,7,22,2025-04-22T16:28:23.387+03:00,767021264.8016557,0,-12.9,100.3591,1,0.5,2025-04-22T16:27:26.940+03:00,96,1.6,2025-04-22T14:20:19.516+03:00,0.02197104130929222,0
2025-04-22T16:28:35.159+03:00,1745328514.31086,40.95223118027651,29.14031871188165,76.03748,-1,-1,-1,-1,30.0056606849946,39.38603433184983,-9999,37445.99107654167,-0.7151031494140625,0.659393310546875,-0.1648712158203125,37445.98100054167,-3.058037844236123,-1.339298611553907,-0.7347413609705277,0.02040455676615238,-0.01425240188837051,0.01403795462101698,0.001476764678955078,0.002990245819091797,-0.0004276484251022339,XArbitraryZVertical,-0.5905496222726839,0.2571577187294204,-0.7217747599204526,0.2533024780188512,-0.7222102284431458,0.6703952550888062,-0.1702421009540558,0,0,0,-1,-1,37443.66748329167,unknown,2,2025-04-22T16:28:23.387+03:00,2025-04-21T17:08:51.449+03:00,8584,1.057491,0,0,7132.477,7,22,2025-04-22T16:28:23.387+03:00,767021264.8016557,0,-12.9,100.3591,1,0.5,2025-04-22T16:27:26.940+03:00,96,1.6,2025-04-22T14:20:19.516+03:00,0.02197104130929222,0
2025-04-22T16:28:35.169+03:00,1745328514.31086,40.95223118027651,29.14031871188165,76.03748,-1,-1,-1,-1,30.0056606849946,39.38603433184983,-9999,37446.00115154167,-0.7160491943359375,0.6588897705078125,-0.171539306640625,37445.99107654167,-3.057795904315674,-1.339306100530599,-0.7348571447219387,0.007049670442938805,-0.01845160871744156,0.01178721711039543,0.007017731666564941,-0.006433963775634766,0.0007850974798202515,XArbitraryZVertical,-0.590572297008272,0.2571281832718029,-0.7217243238993413,0.2534235413842625,-0.7221361398696899,0.6704811453819275,-0.1702189147472382,0,0,0,-1,-1,37443.66748329167,unknown,2,2025-04-22T16:28:23.387+03:00,2025-04-21T17:08:51.449+03:00,8584,1.057491,0,0,7132.477,7,22,2025-04-22T16:28:23.387+03:00,767021264.8016557,0,-12.9,100.3591,1,0.5,2025-04-22T16:27:26.940+03:00,96,1.6,2025-04-22T14:20:19.516+03:00,0.02197104130929222,0
2025-04-22T16:28:35.179+03:00,1745328514.31086,40.95223118027651,29.14031871188165,76.03748,-1,-1,-1,-1,30.0056606849946,39.38603433184983,-9999,37446.01122754167,-0.7162017822265625,0.6600494384765625,-0.17938232421875,37446.00115154167,-3.057726050203398,-1.339442151199613,-0.7349723471494132,-0.00472815940156579,-0.0217059925198555,0.01263303682208061,0.006721556186676025,-0.01186001300811768,0.004407569766044617,XArbitraryZVertical,-0.5906193038898715,0.2571329608402733,-0.7216576839770882,0.2534988999564079,-0.7220840454101562,0.6705666184425354,-0.1701029539108276,0,0,0,-1,-1,37443.66748329167,unknown,2,2025-04-22T16:28:23.387+03:00,2025-04-21T17:08:51.449+03:00,8584,1.057491,0,0,7132.477,7,22,2025-04-22T16:28:23.387+03:00,767021264.8016557,0,-12.9,100.3591,1,0.5,2025-04-22T16:27:26.940+03:00,96,1.6,2025-04-22T14:20:19.516+03:00,0.02197104130929222,0
2025-04-22T16:28:35.189+03:00,1745328514.31086,40.95223118027651,29.14031871188165,76.03748,-1,-1,-1,-1,30.0056606849946,39.38603433184983,-9999,37446.02130354167,-0.7138214111328125,0.66131591796875,-0.183013916015625,37446.01122754167,-3.05781431101069,-1.339723671169475,-0.7351320661540323,-0.01465882081538439,-0.02842141687870026,0.01579966954886913,0.005810678005218506,-0.01214635372161865,-0.002839326858520508,XArbitraryZVertical,-0.590694183208003,0.2571824651322656,-0.7215612672483794,0.2535485519660805,-0.722027599811554,0.6706851124763489,-0.1698751300573349,0,0,0,-1,-1,37443.66748329167,unknown,2,2025-04-22T16:28:23.387+03:00,2025-04-21T17:08:51.449+03:00,8584,1.057491,0,0,7132.477,7,22,2025-04-22T16:28:23.387+03:00,767021264.8016557,0,-12.9,100.3591,1,0.5,2025-04-22T16:27:26.940+03:00,96,1.6,2025-04-22T14:20:19.516+03:00,0.02197104130929222,0
2025-04-22T16:28:35.200+03:00,1745328514.31086,40.95223118027651,29.14031871188165,76.03748,-1,-1,-1,-1,30.0056606849946,39.38603433184983,-9999,37446.03137954167,-0.719573974609375,0.6603240966796875,-0.1795806884765625,37446.02130354167,-3.057976857046471,-1.34010910070206,-0.7352888135924589,-0.02178890258073807,-0.03355279564857483,0.01544999610632658,0.006399333477020264,-0.01038575172424316,-0.01147294044494629,XArbitraryZVertical,-0.5907972477346134,0.2572396217981628,-0.7214440633132222,0.2535839356313492,-0.7219906449317932,0.6708014011383057,-0.1695727854967117,0,0,0,-1,-1,37443.66748329167,unknown,2,2025-04-22T16:28:23.387+03:00,2025-04-21T17:08:51.449+03:00,8584,1.057491,0,0,7132.477,7,22,2025-04-22T16:28:23.387+03:00,767021264.8016557,0,-12.9,100.3591,1,0.5,2025-04-22T16:27:26.940+03:00,96,1.6,2025-04-22T14:20:19.516+03:00,0.02197104130929222,0
2025-04-22T16:28:35.210+03:00,1745328514.31086,40.95223118027651,29.14031871188165,76.03748,-1,-1,-1,-1,30.0056606849946,39.38603433184983,-9999,37446.04145554167,-0.7208251953125,0.6628265380859375,-0.173675537109375,37446.03137954167,-3.058210142833907,-1.340577566706611,-0.7354615577500603,-0.02600967884063721,-0.03776958212256432,0.01467824541032314,0.007678031921386719,-0.009842514991760254,-0.0132719874382019,XArbitraryZVertical,-0.590919582105082,0.2573130613384343,-0.7213087935763868,0.2536090724655614,-0.7219571471214294,0.670929491519928,-0.1692080646753311,0,0,0,-1,-1,37443.66748329167,unknown,2,2025-04-22T16:28:23.387+03:00,2025-04-21T17:08:51.449+03:00,8584,1.057491,0,0,7132.477,7,22,2025-04-22T16:28:23.387+03:00,767021264.8016557,0,-12.9,100.3591,1,0.5,2025-04-22T16:27:26.940+03:00,96,1.6,2025-04-22T14:20:19.516+03:00,0.02197104130929222,0
2025-04-22T16:28:35.220+03:00,1745328514.31086,40.95223118027651,29.14031871188165,76.03748,-1,-1,-1,-1,30.0056606849946,39.38603433184983,-9999,37446.05153154167,-0.7160491943359375,0.66619873046875,-0.1712188720703125,37446.04145554167,-3.058517744558971,-1.341159038332308,-0.735680716281287,-0.03113706223666668,-0.0413544625043869,0.01440953277051449,0.00145334005355835,-0.009974539279937744,-0.009620651602745056,XArbitraryZVertical,-0.5910685592188455,0.2574112868975116,-0.7211425022425776,0.2536351602112912,-0.7219122052192688,0.6710919737815857,-0.1687547713518143,0,0,0,-1,-1,37443.66748329167,unknown,2,2025-04-22T16:28:23.387+03:00,2025-04-21T17:08:51.449+03:00,8584,1.057491,0,0,7132.477,7,22,2025-04-22T16:28:23.387+03:00,767021264.8016557,0,-12.9,100.3591,1,0.5,2025-04-22T16:27:26.940+03:00,96,1.6,2025-04-22T14:20:19.516+03:00,0.02197104130929222,0
2025-04-22T16:28:35.230+03:00,1745328514.31086,40.95223118027651,29.14031871188165,76.03748,-1,-1,-1,-1,30.0056606849946,39.38603433184983,-9999,37446.06160754167,-0.716094970703125,0.6734619140625,-0.16790771484375,37446.05153154167,-3.058855426027755,-1.34181748869525,-0.735919599052886,-0.0246203076094389,-0.04246766120195389,0.01521407347172499,0.002140581607818604,-0.008381545543670654,-0.004944443702697754,XArbitraryZVertical,-0.5912394134393703,0.2575159234564555,-0.720954239664764,0.2536659925255042,-0.7218670845031738,0.6712690591812134,-0.1682430058717728,0,0,0,-1,-1,37443.66748329167,unknown,2,2025-04-22T16:28:23.387+03:00,2025-04-21T17:08:51.449+03:00,8584,1.057491,0,0,7132.477,7,22,2025-04-22T16:28:23.387+03:00,767021264.8016557,0,-12.9,100.3591,1,0.5,2025-04-22T16:27:26.940+03:00,96,1.6,2025-04-22T14:20:19.516+03:00,0.02197104130929222,0
2025-04-22T16:28:35.240+03:00,1745328514.31086,40.95223118027651,29.14031871188165,76.03748,-1,-1,-1,-1,30.0056606849946,39.38603433184983,-9999,37446.07168354167,-0.7194671630859375,0.6742095947265625,-0.1690521240234375,37446.06160754167,-3.05909862416254,-1.342389545579853,-0.7361477394174185,-0.01843458414077759,-0.04194754734635353,0.01803995296359062,0.006176948547363281,-0.003744125366210938,-0.003652632236480713,XArbitraryZVertical,-0.591392227399006,0.257599599430872,-0.7207811292307233,0.2537167956612218,-0.7218140363693237,0.6714381575584412,-0.1677953600883484,0,0,0,-1,-1,37443.66748329167,unknown,2,2025-04-22T16:28:23.387+03:00,2025-04-21T17:08:51.449+03:00,8584,1.057491,0,0,7132.477,7,22,2025-04-22T16:28:23.387+03:00,767021264.8016557,0,-12.9,100.3591,1,0.5,2025-04-22T16:27:26.940+03:00,96,1.6,2025-04-22T14:20:19.516+03:00,0.02197104130929222,0
2025-04-22T16:28:35.250+03:00,1745328514.31086,40.95223118027651,29.14031871188165,76.03748,-1,-1,-1,-1,30.0056606849946,39.38603433184983,-9999,37446.08175954167,-0.725433349609375,0.6695709228515625,-0.169830322265625,37446.07168354167,-3.059237341111884,-1.342854798365641,-0.736356252462703,-0.01299387868493795,-0.03637395054101944,0.02182916551828384,0.005355596542358398,0.002204954624176025,-0.0003274232149124146,XArbitraryZVertical,-0.5915218273070243,0.2576586471021286,-0.7206293782038756,0.2537859578543071,-0.7217557430267334,0.671592652797699,-0.1674278974533081,0,0,0,-1,-1,37443.66748329167,unknown,2,2025-04-22T16:28:23.387+03:00,2025-04-21T17:08:51.449+03:00,8584,1.057491,0,0,7132.477,7,22,2025-04-22T16:28:23.387+03:00,767021264.8016557,0,-12.9,100.3591,1,0.5,2025-04-22T16:27:26.940+03:00,96,1.6,2025-04-22T14:20:19.516+03:00,0.02197104130929222,0
2025-04-22T16:28:35.260+03:00,1745328514.31086,40.95223118027651,29.14031871188165,76.03748,-1,-1,-1,-1,30.0056606849946,39.38603433184983,-9999,37446.09183554167,-0.727569580078125,0.6652679443359375,-0.1700439453125,37446.08175954167,-3.059313238551584,-1.34325430635473,-0.7365785529396368,-0.008176486939191818,-0.03162287175655365,0.02707292884588242,0.001202821731567383,0.001719772815704346,-0.001656606793403625,XArbitraryZVertical,-0.5916344537379286,0.2577125351449557,-0.7204868520295379,0.2538732747270315,-0.7216770648956299,0.6717573404312134,-0.1671058386564255,0,0,0,-1,-1,37443.66748329167,unknown,2,2025-04-22T16:28:23.387+03:00,2025-04-21T17:08:51.449+03:00,8584,1.057491,0,0,7132.477,7,22,2025-04-22T16:28:23.387+03:00,767021264.8016557,0,-12.9,100.3591,1,0.5,2025-04-22T16:27:26.940+03:00,96,1.6,2025-04-22T14:20:19.516+03:00,0.02197104130929222,0
2025-04-22T16:28:35.270+03:00,1745328514.31086,40.95223118027651,29.14031871188165,76.03748,-1,-1,-1,-1,30.0056606849946,39.38603433184983,-9999,37446.10191154167,-0.72637939453125,0.6657562255859375,-0.16778564453125,37446.09183554167,-3.059300342351974,-1.343520998940799,-0.736828171840314,-0.009880910627543926,-0.03022018261253834,0.03129390627145767,-0.004363536834716797,-0.003012299537658691,-0.003214403986930847,XArbitraryZVertical,-0.5917080043344398,0.2577670928577104,-0.7203679891638851,0.2539833004144742,-0.7215579152107239,0.6719422340393066,-0.1668755263090134,0,0,0,-1,-1,37443.66748329167,unknown,2,2025-04-22T16:28:23.387+03:00,2025-04-21T17:08:51.449+03:00,8584,1.057491,0,0,7132.477,7,22,2025-04-22T16:28:23.387+03:00,767021264.8016557,0,-12.9,100.3591,1,0.5,2025-04-22T16:27:26.940+03:00,96,1.6,2025-04-22T14:20:19.516+03:00,0.02197104130929222,0
2025-04-22T16:28:35.281+03:00,1745328514.31086,40.95223118027651,29.14031871188165,76.03748,-1,-1,-1,-1,30.0056606849946,39.38603433184983,-9999,37446.11198754167,-0.723663330078125,0.6644134521484375,-0.1658172607421875,37446.10191154167,-3.059236506491213,-1.343684494062978,-0.7371169400309996,-0.0150658180937171,-0.02881057374179363,0.03410327434539795,-0.005761325359344482,-0.007010340690612793,-0.003116652369499207,XArbitraryZVertical,-0.5917471137047838,0.2578341053962045,-0.7202673811316002,0.2541094535164738,-0.7213961482048035,0.672156035900116,-0.1667138487100601,0,0,0,-1,-1,37443.66748329167,unknown,2,2025-04-22T16:28:23.387+03:00,2025-04-21T17:08:51.449+03:00,8584,1.057491,0,0,7132.477,7,22,2025-04-22T16:28:23.387+03:00,767021264.8016557,0,-12.9,100.3591,1,0.5,2025-04-22T16:27:26.940+03:00,96,1.6,2025-04-22T14:20:19.516+03:00,0.02197104130929222,0
2025-04-22T16:28:35.291+03:00,1745328514.31086,40.95223118027651,29.14031871188165,76.03748,-1,-1,-1,-1,30.0056606849946,39.38603433184983,-9999,37446.12206354167,-0.71966552734375,0.669189453125,-0.1633148193359375,37446.11198754167,-3.059276393749116,-1.343896273636161,-0.7374723011663293,-0.02305663377046585,-0.02869525738060474,0.03733448684215546,-0.004661798477172852,-0.006601989269256592,-0.0006833672523498535,XArbitraryZVertical,-0.5917837460136998,0.2579502376995234,-0.7201555250612482,0.2542234031333469,-0.7211986780166626,0.6724191308021545,-0.1665073484182358,0,0,0,-1,-1,37443.66748329167,unknown,2,2025-04-22T16:28:23.387+03:00,2025-04-21T17:08:51.449+03:00,8584,1.057491,0,0,7132.477,7,22,2025-04-22T16:28:23.387+03:00,767021264.8016557,0,-12.9,100.3591,1,0.5,2025-04-22T16:27:26.940+03:00,96,1.6,2025-04-22T14:20:19.516+03:00,0.02197104130929222,0
2025-04-22T16:28:35.300+03:00,1745328514.31086,40.95223118027651,29.14031871188165,76.03748,-1,-1,-1,-1,30.0056606849946,39.38603433184983,-9999,37446.13213954167,-0.713775634765625,0.6791534423828125,-0.1642608642578125,37446.12206354167,-3.059352152441063,-1.344211080151568,-0.7377889802410129,-0.01640485599637032,-0.03752150759100914,0.03648387268185616,-0.002024531364440918,-0.008316516876220703,0.001162663102149963,XArbitraryZVertical,-0.5918565631337076,0.258049574034743,-0.7200235824625028,0.2543267722899175,-0.7210435271263123,0.6726534962654114,-0.1662324517965317,0,0,0,-1,-1,37443.66748329167,unknown,2,2025-04-22T16:28:23.387+03:00,2025-04-21T17:08:51.449+03:00,8584,1.057491,0,0,7132.477,7,22,2025-04-22T16:28:23.387+03:00,767021264.8016557,0,-12.9,100.3591,1,0.5,2025-04-22T16:27:26.940+03:00,96,1.6,2025-04-22T14:20:19.516+03:00,0.02197104130929222,0
2025-04-22T16:28:35.310+03:00,1745328514.31086,40.95223118027651,29.14031871188165,76.03748,-1,-1,-1,-1,30.0056606849946,39.38603433184983,-9999,37446.14221554167,-0.7182159423828125,0.6719207763671875,-0.1640777587890625,37446.13213954167,-3.059369114215138,-1.344561797476295,-0.738114167032532,-0.01010168623179197,-0.03477925062179565,0.03510169312357903,0.002367615699768066,-0.002560317516326904,0.002951145172119141,XArbitraryZVertical,-0.5919490132433717,0.2581300422729206,-0.7198722470085027,0.2544583834507494,-0.720888614654541,0.6728940606117249,-0.1659304946660995,0,0,0,-1,-1,37443.66748329167,unknown,2,2025-04-22T16:28:23.387+03:00,2025-04-21T17:08:51.449+03:00,8584,1.057491,0,0,7132.477,7,22,2025-04-22T16:28:23.387+03:00,767021264.8016557,0,-12.9,100.3591,1,0.5,2025-04-22T16:27:26.940+03:00,96,1.6,2025-04-22T14:20:19.516+03:00,0.02197104130929222,0
2025-04-22T16:28:35.324+03:00,1745328514.31086,40.95223118027651,29.14031871188165,76.03748,-1,-1,-1,-1,30.0056606849946,39.38603433184983,-9999,37446.15229154167,-0.7264556884765625,0.6693267822265625,-0.161834716796875,37446.14221554167,-3.059362130217826,-1.34485342880508,-0.7384695452333231,-0.01010035444051027,-0.0300124567002058,0.03576082736253738,0.007630288600921631,0.005859017372131348,0.001451388001441956,XArbitraryZVertical,-0.5920203046727424,0.2582220448605999,-0.7197306697517323,0.2545996114411254,-0.7207038998603821,0.6731569170951843,-0.1656666696071625,0,0,0,-1,-1,37443.66748329167,unknown,2,2025-04-22T16:28:23.387+03:00,2025-04-21T17:08:51.449+03:00,8584,1.057491,0,0,7132.477,7,22,2025-04-22T16:28:23.387+03:00,767021264.8016557,0,-12.9,100.3591,1,0.5,2025-04-22T16:27:26.940+03:00,96,1.6,2025-04-22T14:20:19.516+03:00,0.02197104130929222,0
2025-04-22T16:28:35.331+03:00,1745328514.31086,40.95223118027651,29.14031871188165,76.03748,-1,-1,-1,-1,30.0056606849946,39.38603433184983,-9999,37446.16236754167,-0.721588134765625,0.6720733642578125,-0.1616058349609375,37446.15229154167,-3.059328335094492,-1.345093215342023,-0.7388673664372865,-0.005306331440806389,-0.02701659873127937,0.03864559531211853,0.0005729794502258301,-0.00217127799987793,0.002179920673370361,XArbitraryZVertical,-0.5920722207242924,0.2583283288618689,-0.71959455963685,0.2547558679219212,-0.7204825878143311,0.6734510660171509,-0.1654339134693146,0,0,0,-1,-1,37443.66748329167,unknown,2,2025-04-22T16:28:23.387+03:00,2025-04-21T17:08:51.449+03:00,8584,1.057491,0,0,7132.477,7,22,2025-04-22T16:28:23.387+03:00,767021264.8016557,0,-12.9,100.3591,1,0.5,2025-04-22T16:27:26.940+03:00,96,1.6,2025-04-22T14:20:19.516+03:00,0.02197104130929222,0
2025-04-22T16:28:35.341+03:00,1745328514.31086,40.95223118027651,29.14031871188165,76.03748,-1,-1,-1,-1,30.0056606849946,39.38603433184983,-9999,37446.17244354167,-0.7214813232421875,0.6746826171875,-0.161590576171875,37446.16236754167,-3.059248596055654,-1.345308219159338,-0.739224820010714,-0.002352619776502252,-0.0275614820420742,0.03348492458462715,-0.005638062953948975,-0.004724264144897461,0.002703607082366943,XArbitraryZVertical,-0.5921250513781785,0.258409233493095,-0.7194660492764926,0.2549139930041496,-0.7202835083007812,0.6737152338027954,-0.1652251780033112,0,0,0,-1,-1,37443.66748329167,unknown,2,2025-04-22T16:28:23.387+03:00,2025-04-21T17:08:51.449+03:00,8584,1.057491,0,0,7132.477,7,22,2025-04-22T16:28:23.387+03:00,767021264.8016557,0,-12.9,100.3591,1,0.5,2025-04-22T16:27:26.940+03:00,96,1.6,2025-04-22T14:20:19.516+03:00,0.02197104130929222,0
2025-04-22T16:28:35.367+03:00,1745328514.31086,40.95223118027651,29.14031871188165,76.03748,-1,-1,-1,-1,30.0056606849946,39.38603433184983,-9999,37446.18251954167,-0.723297119140625,0.67156982421875,-0.1621551513671875,37446.17244354167,-3.059141053704161,-1.345456354730854,-0.7395244667094537,-0.0004950649454258382,-0.02031049504876137,0.03704157471656799,-0.0009275078773498535,-0.002061724662780762,0.003589391708374023,XArbitraryZVertical,-0.592163028883524,0.2584690682117897,-0.7193626185151542,0.2550570390726664,-0.7201111912727356,0.673936665058136,-0.1650733798742294,0,0,0,-1,-1,37443.66748329167,unknown,2,2025-04-22T16:28:23.387+03:00,2025-04-21T17:08:51.449+03:00,8584,1.057491,0,0,7132.477,7,22,2025-04-22T16:28:23.387+03:00,767021264.8016557,0,-12.9,100.3591,1,0.5,2025-04-22T16:27:26.940+03:00,96,1.6,2025-04-22T14:20:19.516+03:00,0.02197104130929222,0
2025-04-22T16:28:35.369+03:00,1745328514.31086,40.95223118027651,29.14031871188165,76.03748,-1,-1,-1,-1,30.0056606849946,39.38603433184983,-9999,37446.19259554167,-0.720550537109375,0.6704559326171875,-0.1631011962890625,37446.18251954167,-3.058994647972773,-1.345551233981641,-0.7397747525732286,0.003625910496339202,-0.02219521254301071,0.03243483603000641,-0.002342939376831055,0.0003778338432312012,0.003361299633979797,XArbitraryZVertical,-0.5921916911395853,0.2585059729291505,-0.7192773386526052,0.255193195408806,-0.7199621796607971,0.6741215586662292,-0.1649673283100128,0,0,0,-1,-1,37443.66748329167,unknown,2,2025-04-22T16:28:23.387+03:00,2025-04-21T17:08:51.449+03:00,8584,1.057491,0,0,7132.477,7,22,2025-04-22T16:28:23.387+03:00,767021264.8016557,0,-12.9,100.3591,1,0.5,2025-04-22T16:27:26.940+03:00,96,1.6,2025-04-22T14:20:19.516+03:00,0.02197104130929222,0
2025-04-22T16:28:35.371+03:00,1745328514.31086,40.95223118027651,29.14031871188165,76.03748,-1,-1,-1,-1,30.0056606849946,39.38603433184983,-9999,37446.20267154167,-0.719329833984375,0.67120361328125,-0.160797119140625,37446.19259554167,-3.058826329466014,-1.345649050497714,-0.739994158064057,0.006379552651196718,-0.01914303191006184,0.03171521797776222,-0.003966271877288818,-0.002805352210998535,0.003593608736991882,XArbitraryZVertical,-0.5922272173686332,0.258524578555488,-0.7191934501519559,0.2553287162936773,-0.7198343873023987,0.6742836236953735,-0.1648639291524887,0,0,0,-1,-1,37443.66748329167,unknown,2,2025-04-22T16:28:23.387+03:00,2025-04-21T17:08:51.449+03:00,8584,1.057491,0,0,7132.477,7,22,2025-04-22T16:28:23.387+03:00,767021264.8016557,0,-12.9,100.3591,1,0.5,2025-04-22T16:27:26.940+03:00,96,1.6,2025-04-22T14:20:19.516+03:00,0.02197104130929222,0
2025-04-22T16:28:35.384+03:00,1745328514.31086,40.95223118027651,29.14031871188165,76.03748,-1,-1,-1,-1,30.0056606849946,39.38603433184983,-9999,37446.21274654167,-0.720489501953125,0.671478271484375,-0.1570281982421875,37446.20267154167,-3.058710146707627,-1.345758425819892,-0.740190661664863,0.0012489726068452,-0.01792383566498756,0.02638437040150166,-0.001101911067962646,-0.003591358661651611,0.001028597354888916,XArbitraryZVertical,-0.5922624078820102,0.2585487029346084,-0.719116058709948,0.2554405315209574,-0.7197231650352478,0.6744287014007568,-0.1647556126117706,0,0,0,-1,-1,37443.66748329167,unknown,2,2025-04-22T16:28:23.387+03:00,2025-04-21T17:08:51.449+03:00,8584,1.057491,0,0,7132.477,7,22,2025-04-22T16:28:23.387+03:00,767021264.8016557,0,-12.9,100.3591,1,0.5,2025-04-22T16:27:26.940+03:00,96,1.6,2025-04-22T14:20:19.516+03:00,0.02197104130929222,0
2025-04-22T16:28:35.391+03:00,1745328514.31086,40.95223118027651,29.14031871188165,76.03748,-1,-1,-1,-1,30.0056606849946,39.38603433184983,-9999,37446.22282254167,-0.72216796875,0.6660308837890625,-0.156341552734375,37446.21274654167,-3.058659095465142,-1.345897983147316,-0.7404438889167551,-0.003359361086040735,-0.01188937947154045,0.02641366422176361,-0.0004367828369140625,-0.003061115741729736,0.004735276103019714,XArbitraryZVertical,-0.5922944864874778,0.2586091677807015,-0.7190293641110103,0.2555489534150377,-0.7195796370506287,0.6746156215667725,-0.1646170765161514,0,0,0,-1,-1,37443.66748329167,unknown,2,2025-04-22T16:28:23.387+03:00,2025-04-21T17:08:51.449+03:00,8584,1.057491,0,0,7132.477,7,22,2025-04-22T16:28:23.387+03:00,767021264.8016557,0,-12.9,100.3591,1,0.5,2025-04-22T16:27:26.940+03:00,96,1.6,2025-04-22T14:20:19.516+03:00,0.02197104130929222,0
2025-04-22T16:28:35.401+03:00,1745328514.31086,40.95223118027651,29.14031871188165,76.03748,-1,-1,-1,-1,30.0056606849946,39.38603433184983,-9999,37446.23289854167,-0.7202301025390625,0.6703643798828125,-0.1589202880859375,37446.22282254167,-3.058615447070189,-1.346038402429335,-0.7407511247199099,-0.003733801655471325,-0.02070071361958981,0.02271906100213528,-0.00111919641494751,-0.004386544227600098,0.0077313631772995,XArbitraryZVertical,-0.592320624043192,0.2586916100978669,-0.7189351503050719,0.2556701623087636,-0.7194007635116577,0.6748424172401428,-0.1644698530435562,0,0,0,-1,-1,37443.66748329167,unknown,2,2025-04-22T16:28:23.387+03:00,2025-04-21T17:08:51.449+03:00,8584,1.057491,0,0,7132.477,7,22,2025-04-22T16:28:23.387+03:00,767021264.8016557,0,-12.9,100.3591,1,0.5,2025-04-22T16:27:26.940+03:00,96,1.6,2025-04-22T14:20:19.516+03:00,0.02197104130929222,0
2025-04-22T16:28:35.411+03:00,1745328514.31086,40.95223118027651,29.14031871188165,76.03748,-1,-1,-1,-1,30.0056606849946,39.38603433184983,-9999,37446.24297454167,-0.71905517578125,0.6694183349609375,-0.161041259765625,37446.23289854167,-3.058598052263938,-1.346256745717568,-0.7409303869259055,-4.24435711465776e-06,-0.02505039051175117,0.01894832402467728,-0.003505527973175049,-0.009325385093688965,0.008172884583473206,XArbitraryZVertical,-0.5923838793068379,0.25872467652548,-0.7188404803469631,0.2557557272110161,-0.7193183898925781,0.6749746799468994,-0.1642857640981674,0,0,0,-1,-1,37443.66748329167,unknown,2,2025-04-22T16:28:23.387+03:00,2025-04-21T17:08:51.449+03:00,8584,1.057491,0,0,7132.477,7,22,2025-04-22T16:28:23.387+03:00,767021264.8016557,0,-12.9,100.3591,1,0.5,2025-04-22T16:27:26.940+03:00,96,1.6,2025-04-22T14:20:19.516+03:00,0.02197104130929222,0
2025-04-22T16:28:35.421+03:00,1745328514.31086,40.95223118027651,29.14031871188165,76.03748,-1,-1,-1,-1,30.0056606849946,39.38603433184983,-9999,37446.25305054167,-0.7229766845703125,0.674224853515625,-0.1595306396484375,37446.24297454167,-3.058519011358722,-1.346415891748442,-0.7410465633552464,0.004797435365617275,-0.01438149902969599,0.01704416424036026,-0.0001683831214904785,-0.004207849502563477,0.004577234387397766,XArbitraryZVertical,-0.5924399520109646,0.2587237473376073,-0.7187654581070999,0.2558377517941348,-0.7192681431770325,0.6750603914260864,-0.1641538590192795,0,0,0,-1,-1,37443.66748329167,unknown,2,2025-04-22T16:28:23.387+03:00,2025-04-21T17:08:51.449+03:00,8584,1.057491,0,0,7132.477,7,22,2025-04-22T16:28:23.387+03:00,767021264.8016557,0,-12.9,100.3591,1,0.5,2025-04-22T16:27:26.940+03:00,96,1.6,2025-04-22T14:20:19.516+03:00,0.02197104130929222,0
2025-04-22T16:28:35.431+03:00,1745328514.31086,40.95223118027651,29.14031871188165,76.03748,-1,-1,-1,-1,30.0056606849946,39.38603433184983,-9999,37446.26312654167,-0.7182159423828125,0.678466796875,-0.158966064453125,37446.25305054167,-3.058411671141236,-1.34653187243742,-0.7411764273607976,0.00482360040768981,-0.01811518520116806,0.01734313741326332,-0.001165509223937988,-0.005615949630737305,0.002734854817390442,XArbitraryZVertical,-0.5924828295193024,0.2587249933033375,-0.7186974919009782,0.2559282537622914,-0.7192018032073975,0.6751561760902405,-0.1640509516000748,0,0,0,-1,-1,37443.66748329167,unknown,2,2025-04-22T16:28:23.387+03:00,2025-04-21T17:08:51.449+03:00,8584,1.057491,0,0,7132.477,7,22,2025-04-22T16:28:23.387+03:00,767021264.8016557,0,-12.9,100.3591,1,0.5,2025-04-22T16:27:26.940+03:00,96,1.6,2025-04-22T14:20:19.516+03:00,0.02197104130929222,0
2025-04-22T16:28:35.441+03:00,1745328514.31086,40.95223118027651,29.14031871188165,76.03748,-1,-1,-1,-1,30.0056606849946,39.38603433184983,-9999,37446.27320254167,-0.718414306640625,0.6721038818359375,-0.158660888671875,37446.26312654167,-3.058293090288621,-1.346652730735863,-0.7412837568300014,0.007206596899777651,-0.01514709182083607,0.0124157564714551,-0.004176557064056396,0.0001032352447509766,0.004188194870948792,XArbitraryZVertical,-0.5925311164427587,0.2587139721773964,-0.7186300116822217,0.2560170358014129,-0.7191509008407593,0.675235390663147,-0.1639479100704193,0,0,0,-1,-1,37443.66748329167,unknown,2,2025-04-22T16:28:23.387+03:00,2025-04-21T17:08:51.449+03:00,8584,1.057491,0,0,7132.477,7,22,2025-04-22T16:28:23.387+03:00,767021264.8016557,0,-12.9,100.3591,1,0.5,2025-04-22T16:27:26.940+03:00,96,1.6,2025-04-22T14:20:19.516+03:00,0.02197104130929222,0
2025-04-22T16:28:35.451+03:00,1745328514.31086,40.95223118027651,29.14031871188165,76.03748,-1,-1,-1,-1,30.0056606849946,39.38603433184983,-9999,37446.28327854167,-0.7192230224609375,0.6676788330078125,-0.158294677734375,37446.27320254167,-3.0582124700279,-1.346775800222921,-0.7413779308625952,0.003859136952087283,-0.01604098081588745,0.01397403888404369,0.001381576061248779,0.001986920833587646,0.00434499979019165,XArbitraryZVertical,-0.592576562446363,0.2587090498379902,-0.7185688038246076,0.2560887014979156,-0.7191091179847717,0.6753048300743103,-0.1638452857732773,0,0,0,-1,-1,37443.66748329167,unknown,2,2025-04-22T16:28:23.387+03:00,2025-04-21T17:08:51.449+03:00,8584,1.057491,0,0,7132.477,7,22,2025-04-22T16:28:23.387+03:00,767021264.8016557,0,-12.9,100.3591,1,0.5,2025-04-22T16:27:26.940+03:00,96,1.6,2025-04-22T14:20:19.516+03:00,0.02197104130929222,0
2025-04-22T16:28:35.462+03:00,1745328514.31086,40.95223118027651,29.14031871188165,76.03748,-1,-1,-1,-1,30.0056606849946,39.38603433184983,-9999,37446.29335454167,-0.7167816162109375,0.66314697265625,-0.15814208984375,37446.28327854167,-3.05814159812412,-1.346881482874464,-0.7414934414852395,0.001518218195997179,-0.01399860344827175,0.01476206816732883,-0.0001267194747924805,-0.003331959247589111,0.005518138408660889,XArbitraryZVertical,-0.5926124144812941,0.2587171035740941,-0.7185106828068847,0.2561606928405488,-0.719050407409668,0.6753900051116943,-0.1637519747018814,0,0,0,-1,-1,37443.66748329167,unknown,2,2025-04-22T16:28:23.387+03:00,2025-04-21T17:08:51.449+03:00,8584,1.057491,0,0,7132.477,7,22,2025-04-22T16:28:23.387+03:00,767021264.8016557,0,-12.9,100.3591,1,0.5,2025-04-22T16:27:26.940+03:00,96,1.6,2025-04-22T14:20:19.516+03:00,0.02197104130929222,0
2025-04-22T16:28:35.472+03:00,1745328514.31086,40.95223118027651,29.14031871188165,76.03748,-1,-1,-1,-1,30.0056606849946,39.38603433184983,-9999,37446.30343054167,-0.72125244140625,0.666778564453125,-0.158477783203125,37446.29335454167,-3.058100775772758,-1.347010310346098,-0.7416249204344025,-0.0005318831535987556,-0.01245796587318182,0.01776131987571716,-0.0004516839981079102,-0.008861064910888672,0.005588889122009277,XArbitraryZVertical,-0.5926511287662879,0.2587369759539755,-0.7184470946385683,0.2562294253119657,-0.7189849019050598,0.6754869818687439,-0.163639634847641,0,0,0,-1,-1,37443.66748329167,unknown,2,2025-04-22T16:28:23.387+03:00,2025-04-21T17:08:51.449+03:00,8584,1.057491,0,0,7132.477,7,22,2025-04-22T16:28:23.387+03:00,767021264.8016557,0,-12.9,100.3591,1,0.5,2025-04-22T16:27:26.940+03:00,96,1.6,2025-04-22T14:20:19.516+03:00,0.02197104130929222,0
2025-04-22T16:28:35.482+03:00,1745328514.31086,40.95223118027651,29.14031871188165,76.03748,-1,-1,-1,-1,30.0056606849946,39.38603433184983,-9999,37446.31350654167,-0.7220611572265625,0.67279052734375,-0.157745361328125,37446.30343054167,-3.058093116221305,-1.347160146615266,-0.7417692052235358,-0.0002764860109891742,-0.00839691050350666,0.01660657301545143,0.001064777374267578,-0.01275163888931274,0.00498652458190918,XArbitraryZVertical,-0.5926918378465963,0.2587686933906173,-0.7183795857599988,0.2562926002667732,-0.7189144492149353,0.675593376159668,-0.1635102927684784,0,0,0,-1,-1,37443.66748329167,unknown,2,2025-04-22T16:28:23.387+03:00,2025-04-21T17:08:51.449+03:00,8584,1.057491,0,0,7132.477,7,22,2025-04-22T16:28:23.387+03:00,767021264.8016557,0,-12.9,100.3591,1,0.5,2025-04-22T16:27:26.940+03:00,96,1.6,2025-04-22T14:20:19.516+03:00,0.02197104130929222,0
2025-04-22T16:28:35.492+03:00,1745328514.31086,40.95223118027651,29.14031871188165,76.03748,-1,-1,-1,-1,30.0056606849946,39.38603433184983,-9999,37446.32358254167,-0.718109130859375,0.6755523681640625,-0.1611175537109375,37446.31350654167,-3.058063545254095,-1.347260129088196,-0.7418602426427489,0.003386625554412603,-0.008963165804743767,0.01399091631174088,-0.002961516380310059,-0.007981777191162109,0.004977300763130188,XArbitraryZVertical,-0.5927226904165828,0.258780687748883,-0.7183320134432954,0.2563421097448849,-0.7188705801963806,0.6756604909896851,-0.1634247303009033,0,0,0,-1,-1,37443.66748329167,unknown,2,2025-04-22T16:28:23.387+03:00,2025-04-21T17:08:51.449+03:00,8584,1.057491,0,0,7132.477,7,22,2025-04-22T16:28:23.387+03:00,767021264.8016557,0,-12.9,100.3591,1,0.5,2025-04-22T16:27:26.940+03:00,96,1.6,2025-04-22T14:20:19.516+03:00,0.02197104130929222,0
2025-04-22T16:28:35.502+03:00,1745328514.31086,40.95223118027651,29.14031871188165,76.03748,-1,-1,-1,-1,30.0056606849946,39.38603433184983,-9999,37446.33365854167,-0.71917724609375,0.6691741943359375,-0.163299560546875,37446.32358254167,-3.058013105825429,-1.347332129645728,-0.7419863083769254,0.001704573049210012,-0.005893073510378599,0.0166586060076952,-0.002697110176086426,-0.001986443996429443,0.00608159601688385,XArbitraryZVertical,-0.5927427492385561,0.2588029752611841,-0.7182848620154172,0.2564054038743351,-0.718799352645874,0.6757534146308899,-0.1633541136980057,0,0,0,-1,-1,37443.66748329167,unknown,2,2025-04-22T16:28:23.387+03:00,2025-04-21T17:08:51.449+03:00,8584,1.057491,0,0,7132.477,7,22,2025-04-22T16:28:23.387+03:00,767021264.8016557,0,-12.9,100.3591,1,0.5,2025-04-22T16:27:26.940+03:00,96,1.6,2025-04-22T14:20:19.516+03:00,0.02197104130929222,0
2025-04-22T16:28:35.512+03:00,1745328514.31086,40.95223118027651,29.14031871188165,76.03748,-1,-1,-1,-1,30.0056606849946,39.38603433184983,-9999,37446.34373454167,-0.7173919677734375,0.67352294921875,-0.1635284423828125,37446.33365854167,-3.057955387528798,-1.347387348272875,-0.7421089576755736,0.0009578891331329942,-0.01106353383511305,0.0176587887108326,0.0008016228675842285,-0.0006577372550964355,0.001491665840148926,XArbitraryZVertical,-0.5927580554529805,0.2588239945156446,-0.7182422578385937,0.2564681717007884,-0.7187275290489197,0.6758438348770142,-0.1632960587739944,0,0,0,-1,-1,37443.66748329167,unknown,2,2025-04-22T16:28:23.387+03:00,2025-04-21T17:08:51.449+03:00,8584,1.057491,0,0,7132.477,7,22,2025-04-22T16:28:23.387+03:00,767021264.8016557,0,-12.9,100.3591,1,0.5,2025-04-22T16:27:26.940+03:00,96,1.6,2025-04-22T14:20:19.516+03:00,0.02197104130929222,0
2025-04-22T16:28:35.522+03:00,1745328514.31086,40.95223118027651,29.14031871188165,76.03748,-1,-1,-1,-1,30.0056606849946,39.38603433184983,-9999,37446.35381054167,-0.7107696533203125,0.66827392578125,-0.1604156494140625,37446.34373454167,-3.057962623739911,-1.347569675497374,-0.7422550590984566,-0.003562560304999352,-0.01860906928777695,0.01742842420935631,-0.0008518695831298828,-0.006426453590393066,-0.0003092139959335327,XArbitraryZVertical,-0.5928083099316479,0.2588566090202057,-0.7181666139793222,0.2565307638881508,-0.7186608910560608,0.6759514808654785,-0.163143128156662,0,0,0,-1,-1,37443.66748329167,unknown,2,2025-04-22T16:28:23.387+03:00,2025-04-21T17:08:51.449+03:00,8584,1.057491,0,0,7132.477,7,22,2025-04-22T16:28:23.387+03:00,767021264.8016557,0,-12.9,100.3591,1,0.5,2025-04-22T16:27:26.940+03:00,96,1.6,2025-04-22T14:20:19.516+03:00,0.02197104130929222,0
2025-04-22T16:28:35.532+03:00,1745328514.31086,40.95223118027651,29.14031871188165,76.03748,-1,-1,-1,-1,30.0056606849946,39.38603433184983,-9999,37446.36388654167,-0.71337890625,0.6626129150390625,-0.160736083984375,37446.35381054167,-3.058002984268459,-1.347815256433388,-0.7424844730026274,-0.007871821522712708,-0.02078993245959282,0.02055604197084904,0.002119362354278564,-0.002170383930206299,0.0001361817121505737,XArbitraryZVertical,-0.5928687936254672,0.2589215905373587,-0.718063972420216,0.2566132721613042,-0.7185500264167786,0.6761205196380615,-0.1629324108362198,0,0,0,-1,-1,37443.66748329167,unknown,2,2025-04-22T16:28:23.387+03:00,2025-04-21T17:08:51.449+03:00,8584,1.057491,0,0,7132.477,7,22,2025-04-22T16:28:23.387+03:00,767021264.8016557,0,-12.9,100.3591,1,0.5,2025-04-22T16:27:26.940+03:00,96,1.6,2025-04-22T14:20:19.516+03:00,0.02197104130929222,0
2025-04-22T16:28:35.542+03:00,1745328514.31086,40.95223118027651,29.14031871188165,76.03748,-1,-1,-1,-1,30.0056606849946,39.38603433184983,-9999,37446.37396254167,-0.7128143310546875,0.665863037109375,-0.162750244140625,37446.36388654167,-3.05808635075082,-1.348101022775339,-0.7427078630497012,-0.01183140929788351,-0.02063733339309692,0.0249454639852047,0.007282853126525879,-0.008560538291931152,0.002094730734825134,XArbitraryZVertical,-0.5929387173543234,0.2589919446836795,-0.7179556028009765,0.2566839239475956,-0.7184492349624634,0.6762850880622864,-0.1626936942338943,0,0,0,-1,-1,37443.66748329167,unknown,2,2025-04-22T16:28:23.387+03:00,2025-04-21T17:08:51.449+03:00,8584,1.057491,0,0,7132.477,7,22,2025-04-22T16:28:23.387+03:00,767021264.8016557,0,-12.9,100.3591,1,0.5,2025-04-22T16:27:26.940+03:00,96,1.6,2025-04-22T14:20:19.516+03:00,0.02197104130929222,0
2025-04-22T16:28:35.553+03:00,1745328514.31086,40.95223118027651,29.14031871188165,76.03748,-1,-1,-1,-1,30.0056606849946,39.38603433184983,-9999,37446.38403854167,-0.7103424072265625,0.6705474853515625,-0.164825439453125,37446.37396254167,-3.058183122313518,-1.348380831806148,-0.7429641928092733,-0.01421666983515024,-0.01677987538278103,0.03129969909787178,0.004412710666656494,-0.01381528377532959,0.002038538455963135,XArbitraryZVertical,-0.5930015037421765,0.2590791523204401,-0.7178456393864838,0.2567583959750684,-0.7183256149291992,0.6764739155769348,-0.1624544113874435,0,0,0,-1,-1,37443.66748329167,unknown,2,2025-04-22T16:28:23.387+03:00,2025-04-21T17:08:51.449+03:00,8584,1.057491,0,0,7132.477,7,22,2025-04-22T16:28:23.387+03:00,767021264.8016557,0,-12.9,100.3591,1,0.5,2025-04-22T16:27:26.940+03:00,96,1.6,2025-04-22T14:20:19.516+03:00,0.02197104130929222,0
2025-04-22T16:28:35.562+03:00,1745328514.31086,40.95223118027651,29.14031871188165,76.03748,-1,-1,-1,-1,30.0056606849946,39.38603433184983,-9999,37446.39411454167,-0.7160491943359375,0.6763763427734375,-0.16064453125,37446.38403854167,-3.05828427365762,-1.348632155895477,-0.7432530876911788,-0.0120832109823823,-0.01695031858980656,0.03334980085492134,0.006307542324066162,-0.009877622127532959,-0.001328364014625549,XArbitraryZVertical,-0.5930502621083846,0.2591832840106716,-0.717739710443997,0.2568368918695798,-0.7181757688522339,0.6766866445541382,-0.1622308194637299,0,0,0,-1,-1,37443.66748329167,unknown,2,2025-04-22T16:28:23.387+03:00,2025-04-21T17:08:51.449+03:00,8584,1.057491,0,0,7132.477,7,22,2025-04-22T16:28:23.387+03:00,767021264.8016557,0,-12.9,100.3591,1,0.5,2025-04-22T16:27:26.940+03:00,96,1.6,2025-04-22T14:20:19.516+03:00,0.02197104130929222,0
2025-04-22T16:28:35.572+03:00,1745328514.31086,40.95223118027651,29.14031871188165,76.03748,-1,-1,-1,-1,30.0056606849946,39.38603433184983,-9999,37446.40419054167,-0.71929931640625,0.676605224609375,-0.1570892333984375,37446.39411454167,-3.058388379493476,-1.348875110072293,-0.7435418575185186,-0.01604992151260376,-0.01391478069126606,0.03288803994655609,0.00702589750289917,-0.005634665489196777,-0.002964973449707031,XArbitraryZVertical,-0.5930956215928147,0.25928931304812,-0.7176364504633832,0.2569132965915265,-0.7180243134498596,0.676899254322052,-0.1620132774114609,0,0,0,-1,-1,37443.66748329167,unknown,2,2025-04-22T16:28:23.387+03:00,2025-04-21T17:08:51.449+03:00,8584,1.057491,0,0,7132.477,7,22,2025-04-22T16:28:23.387+03:00,767021264.8016557,0,-12.9,100.3591,1,0.5,2025-04-22T16:27:26.940+03:00,96,1.6,2025-04-22T14:20:19.516+03:00,0.02197104130929222,0
2025-04-22T16:28:35.583+03:00,1745328514.31086,40.95223118027651,29.14031871188165,76.03748,-1,-1,-1,-1,30.0056606849946,39.38603433184983,-9999,37446.41426654167,-0.715240478515625,0.6678009033203125,-0.15753173828125,37446.40419054167,-3.058524333654917,-1.34910982708407,-0.7438668740823943,-0.01464084442704916,-0.006956473458558321,0.03324650228023529,0.001691818237304688,-0.0001823306083679199,0.002448618412017822,XArbitraryZVertical,-0.5931302753475571,0.2594191520067713,-0.7175343305507014,0.2569874998522388,-0.7178477048873901,0.6771384477615356,-0.161796361207962,0,0,0,-1,-1,37443.66748329167,unknown,2,2025-04-22T16:28:23.387+03:00,2025-04-21T17:08:51.449+03:00,8584,1.057491,0,0,7132.477,7,22,2025-04-22T16:28:23.387+03:00,767021264.8016557,0,-12.9,100.3591,1,0.5,2025-04-22T16:27:26.940+03:00,96,1.6,2025-04-22T14:20:19.516+03:00,0.02197104130929222,0
2025-04-22T16:28:35.593+03:00,1745328514.31086,40.95223118027651,29.14031871188165,76.03748,-1,-1,-1,-1,30.0056606849946,39.38603433184983,-9999,37446.42434254167,-0.7103729248046875,0.6774444580078125,-0.1432342529296875,37446.41426654167,-3.058641664970685,-1.349263591192148,-0.7442497181138178,-0.02412422746419907,-0.01147679053246975,0.03921098634600639,-0.001221835613250732,-0.001913607120513916,0.004127562046051025,XArbitraryZVertical,-0.5931325717198683,0.2595751393298859,-0.7174448670141106,0.2570743948768157,-0.7176195979118347,0.6774200797080994,-0.1616289913654327,0,0,0,-1,-1,37443.66748329167,unknown,2,2025-04-22T16:28:23.387+03:00,2025-04-21T17:08:51.449+03:00,8584,1.057491,0,0,7132.477,7,22,2025-04-22T16:28:23.387+03:00,767021264.8016557,0,-12.9,100.3591,1,0.5,2025-04-22T16:27:26.940+03:00,96,1.6,2025-04-22T14:20:19.516+03:00,0.02197104130929222,0
2025-04-22T16:28:35.603+03:00,1745328514.31086,40.95223118027651,29.14031871188165,76.03748,-1,-1,-1,-1,30.0056606849946,39.38603433184983,-9999,37446.43441854167,-0.7148284912109375,0.6781005859375,-0.14593505859375,37446.42434254167,-3.058870693495783,-1.349508939042406,-0.7446331924074582,-0.02387335710227489,-0.008291115984320641,0.03607670962810516,0.003111422061920166,-0.01016074419021606,0.005237236618995667,XArbitraryZVertical,-0.5931530985217327,0.2597526834950489,-0.7173424882703039,0.2571333245682615,-0.7174056768417358,0.6777021288871765,-0.1613958925008774,0,0,0,-1,-1,37443.66748329167,unknown,2,2025-04-22T16:28:23.387+03:00,2025-04-21T17:08:51.449+03:00,8584,1.057491,0,0,7132.477,7,22,2025-04-22T16:28:23.387+03:00,767021264.8016557,0,-12.9,100.3591,1,0.5,2025-04-22T16:27:26.940+03:00,96,1.6,2025-04-22T14:20:19.516+03:00,0.02197104130929222,0
2025-04-22T16:28:35.613+03:00,1745328514.31086,40.95223118027651,29.14031871188165,76.03748,-1,-1,-1,-1,30.0056606849946,39.38603433184983,-9999,37446.44449454167,-0.7176055908203125,0.673095703125,-0.1577911376953125,37446.43441854167,-3.058998257567084,-1.349627139802087,-0.7449973364278282,-0.01249586790800095,-0.003098818473517895,0.03253587335348129,0.007238507270812988,0.001229286193847656,0.01918220520019531,XArbitraryZVertical,-0.593143029985633,0.2599093299077547,-0.7172678725926976,0.2572066203333471,-0.7171840667724609,0.6779698729515076,-0.1612569689750671,0,0,0,-1,-1,37443.66748329167,unknown,2,2025-04-22T16:28:23.387+03:00,2025-04-21T17:08:51.449+03:00,8584,1.057491,0,0,7132.477,7,22,2025-04-22T16:28:23.387+03:00,767021264.8016557,0,-12.9,100.3591,1,0.5,2025-04-22T16:27:26.940+03:00,96,1.6,2025-04-22T14:20:19.516+03:00,0.02197104130929222,0
2025-04-22T16:28:35.623+03:00,1745328514.31086,40.95223118027651,29.14031871188165,76.03748,-1,-1,-1,-1,30.0056606849946,39.38603433184983,-9999,37446.45457054167,-0.709014892578125,0.6777801513671875,-0.154876708984375,37446.44449454167,-3.059068793730547,-1.349736852843183,-0.7453191907350213,-0.01280958857387304,-0.01045180577784777,0.02887855283915997,0.001611113548278809,-0.001189291477203369,0.01386767625808716,XArbitraryZVertical,-0.593141466182345,0.2600345788132217,-0.717194856362866,0.2572872592474469,-0.7169888615608215,0.6782063841819763,-0.1611304432153702,0,0,0,-1,-1,37443.66748329167,unknown,2,2025-04-22T16:28:23.387+03:00,2025-04-21T17:08:51.449+03:00,8584,1.057491,0,0,7132.477,7,22,2025-04-22T16:28:23.387+03:00,767021264.8016557,0,-12.9,100.3591,1,0.5,2025-04-22T16:27:26.940+03:00,96,1.6,2025-04-22T14:20:19.516+03:00,0.02197104130929222,0
2025-04-22T16:28:35.641+03:00,1745328514.31086,40.95223118027651,29.14031871188165,76.03748,-1,-1,-1,-1,30.0056606849946,39.38603433184983,-9999,37446.46464654167,-0.7098541259765625,0.6799163818359375,-0.1579437255859375,37446.45457054167,-3.059203256990943,-1.349989265821985,-0.7455492573853209,-0.01720240525901318,-0.02008386142551899,0.02363069355487823,0.0005382299423217773,-0.005722343921661377,0.002696692943572998,XArbitraryZVertical,-0.5931917859771501,0.2601266383950822,-0.717101846816254,0.2573374094575471,-0.7168772220611572,0.6783754825592041,-0.160915270447731,0,0,0,-1,-1,37443.66748329167,unknown,2,2025-04-22T16:28:23.387+03:00,2025-04-21T17:08:51.449+03:00,8584,1.057491,0,0,7132.477,7,22,2025-04-22T16:28:23.387+03:00,767021264.8016557,0,-12.9,100.3591,1,0.5,2025-04-22T16:27:26.940+03:00,96,1.6,2025-04-22T14:20:19.516+03:00,0.02197104130929222,0
2025-04-22T16:28:35.643+03:00,1745328514.31086,40.95223118027651,29.14031871188165,76.03748,-1,-1,-1,-1,30.0056606849946,39.38603433184983,-9999,37446.47472254167,-0.7125091552734375,0.6772918701171875,-0.1612396240234375,37446.46464654167,-3.059384103164836,-1.350299719147018,-0.7457968445258868,-0.02345976978540421,-0.02053313516080379,0.02511513978242874,0.00799262523651123,-0.0008535385131835938,0.006831943988800049,XArbitraryZVertical,-0.5932551072250022,0.2602314119903306,-0.7169949329066075,0.2573834886900334,-0.7167632579803467,0.6785573363304138,-0.1606559753417969,0,0,0,-1,-1,37443.66748329167,unknown,2,2025-04-22T16:28:23.387+03:00,2025-04-21T17:08:51.449+03:00,8584,1.057491,0,0,7132.477,7,22,2025-04-22T16:28:23.387+03:00,767021264.8016557,0,-12.9,100.3591,1,0.5,2025-04-22T16:27:26.940+03:00,96,1.6,2025-04-22T14:20:19.516+03:00,0.02197104130929222,0
2025-04-22T16:28:35.653+03:00,1745328514.31086,40.95223118027651,29.14031871188165,76.03748,-1,-1,-1,-1,30.0056606849946,39.38603433184983,-9999,37446.48479854167,-0.709564208984375,0.6768798828125,-0.1582183837890625,37446.47472254167,-3.0596722557782,-1.350714744217402,-0.7460817441070836,-0.03248555585741997,-0.0269000232219696,0.02257338538765907,0.00642096996307373,0.001790642738342285,0.001792535185813904,XArbitraryZVertical,-0.5933381996890117,0.2603682620588411,-0.7168650774913653,0.2574153847518312,-0.7166412472724915,0.6787666082382202,-0.1603163033723831,0,0,0,-1,-1,37443.66748329167,unknown,2,2025-04-22T16:28:23.387+03:00,2025-04-21T17:08:51.449+03:00,8584,1.057491,0,0,7132.477,7,22,2025-04-22T16:28:23.387+03:00,767021264.8016557,0,-12.9,100.3591,1,0.5,2025-04-22T16:27:26.940+03:00,96,1.6,2025-04-22T14:20:19.516+03:00,0.02197104130929222,0
2025-04-22T16:28:35.663+03:00,1745328514.31086,40.95223118027651,29.14031871188165,76.03748,-1,-1,-1,-1,30.0056606849946,39.38603433184983,-9999,37446.49487454167,-0.7102203369140625,0.676300048828125,-0.1558074951171875,37446.48479854167,-3.060092124637082,-1.351306271977382,-0.7463485360766463,-0.03236038610339165,-0.03279093280434608,0.01841485872864723,0.004736602306365967,-0.002189576625823975,-0.001188561320304871,XArbitraryZVertical,-0.5934691208350676,0.2605148203077525,-0.7167023122109963,0.2574180588023165,-0.7165589332580566,0.6789624691009521,-0.1598528623580933,0,0,0,-1,-1,37443.66748329167,unknown,2,2025-04-22T16:28:23.387+03:00,2025-04-21T17:08:51.449+03:00,8584,1.057491,0,0,7132.477,7,22,2025-04-22T16:28:23.387+03:00,767021264.8016557,0,-12.9,100.3591,1,0.5,2025-04-22T16:27:26.940+03:00,96,1.6,2025-04-22T14:20:19.516+03:00,0.02197104130929222,0
2025-04-22T16:28:35.673+03:00,1745328514.31086,40.95223118027651,29.14031871188165,76.03748,-1,-1,-1,-1,30.0056606849946,39.38603433184983,-9999,37446.50495054167,-0.71441650390625,0.67193603515625,-0.156768798828125,37446.49487454167,-3.060448734513945,-1.351908207711979,-0.7465392552005039,-0.02397176250815392,-0.03572101145982742,0.01569400914013386,0.007162928581237793,-0.002237975597381592,0.002059817314147949,XArbitraryZVertical,-0.5936194238451005,0.2606132798988426,-0.7165402338381105,0.2574230907947712,-0.7165286540985107,0.6791024804115295,-0.1593933999538422,0,0,0,-1,-1,37443.66748329167,unknown,2,2025-04-22T16:28:23.387+03:00,2025-04-21T17:08:51.449+03:00,8584,1.057491,0,0,7132.477,7,22,2025-04-22T16:28:23.387+03:00,767021264.8016557,0,-12.9,100.3591,1,0.5,2025-04-22T16:27:26.940+03:00,96,1.6,2025-04-22T14:20:19.516+03:00,0.02197104130929222,0
2025-04-22T16:28:35.683+03:00,1745328514.31086,40.95223118027651,29.14031871188165,76.03748,-1,-1,-1,-1,30.0056606849946,39.38603433184983,-9999,37446.51502654167,-0.71630859375,0.678558349609375,-0.15765380859375,37446.50495054167,-3.060739010232922,-1.3524303316905,-0.7466880447768054,-0.01965637691318989,-0.02974887005984783,0.0151216946542263,0.005804538726806641,-0.003735780715942383,0.002625122666358948,XArbitraryZVertical,-0.5937538668305682,0.260686924127402,-0.7163996360030856,0.2574296246208803,-0.7165130376815796,0.6792116761207581,-0.1589973419904709,0,0,0,-1,-1,37443.66748329167,unknown,2,2025-04-22T16:28:23.387+03:00,2025-04-21T17:08:51.449+03:00,8584,1.057491,0,0,7132.477,7,22,2025-04-22T16:28:23.387+03:00,767021264.8016557,0,-12.9,100.3591,1,0.5,2025-04-22T16:27:26.940+03:00,96,1.6,2025-04-22T14:20:19.516+03:00,0.02197104130929222,0
2025-04-22T16:28:35.693+03:00,1745328514.31086,40.95223118027651,29.14031871188165,76.03748,-1,-1,-1,-1,30.0056606849946,39.38603433184983,-9999,37446.52510254167,-0.72113037109375,0.676025390625,-0.157806396484375,37446.51502654167,-3.061041457941704,-1.352982027375105,-0.7468995803991095,-0.01557068713009357,-0.02263463661074638,0.01272251922637224,0.001265764236450195,-0.0072174072265625,0.002198711037635803,XArbitraryZVertical,-0.5938910002055446,0.2607834215767646,-0.7162422133469662,0.2574536023732614,-0.7164603471755981,0.6793669462203979,-0.1585709750652313,0,0,0,-1,-1,37443.66748329167,unknown,2,2025-04-22T16:28:23.387+03:00,2025-04-21T17:08:51.449+03:00,8584,1.057491,0,0,7132.477,7,22,2025-04-22T16:28:23.387+03:00,767021264.8016557,0,-12.9,100.3591,1,0.5,2025-04-22T16:27:26.940+03:00,96,1.6,2025-04-22T14:20:19.516+03:00,0.02197104130929222,0
2025-04-22T16:28:35.703+03:00,1745328514.31086,40.95223118027651,29.14031871188165,76.03748,-1,-1,-1,-1,30.0056606849946,39.38603433184983,-9999,37446.53517854167,-0.7235565185546875,0.6744537353515625,-0.1593475341796875,37446.52510254167,-3.061311771644469,-1.353411600567125,-0.7470450384866844,-0.01666151732206345,-0.01593758538365364,0.00792456790804863,-0.0002273321151733398,-0.0006406903266906738,0.0004658102989196777,XArbitraryZVertical,-0.5939950797320928,0.2608618073955111,-0.7161272501391305,0.2574543018975479,-0.7164321541786194,0.6794736981391907,-0.1582419276237488,0,0,0,-1,-1,37443.66748329167,unknown,2,2025-04-22T16:28:23.387+03:00,2025-04-21T17:08:51.449+03:00,8584,1.057491,0,0,7132.477,7,22,2025-04-22T16:28:23.387+03:00,767021264.8016557,0,-12.9,100.3591,1,0.5,2025-04-22T16:27:26.940+03:00,96,1.6,2025-04-22T14:20:19.516+03:00,0.02197104130929222,0
2025-04-22T16:28:35.713+03:00,1745328514.31086,40.95223118027651,29.14031871188165,76.03748,-1,-1,-1,-1,30.0056606849946,39.38603433184983,-9999,37446.54525454167,-0.7205352783203125,0.6833648681640625,-0.15582275390625,37446.53517854167,-3.06146090651509,-1.353634225728607,-0.747117757163012,-0.01076314877718687,-0.006764592602849007,0.006054896395653486,-0.00516897439956665,-0.004218816757202148,0.000371977686882019,XArbitraryZVertical,-0.5940480917522927,0.2609041468085952,-0.7160691487926201,0.2574507100101811,-0.7164191007614136,0.6795270442962646,-0.1580717861652374,0,0,0,-1,-1,37443.66748329167,unknown,2,2025-04-22T16:28:23.387+03:00,2025-04-21T17:08:51.449+03:00,8584,1.057491,0,0,7132.477,7,22,2025-04-22T16:28:23.387+03:00,767021264.8016557,0,-12.9,100.3591,1,0.5,2025-04-22T16:27:26.940+03:00,96,1.6,2025-04-22T14:20:19.516+03:00,0.02197104130929222,0
2025-04-22T16:28:35.724+03:00,1745328514.31086,40.95223118027651,29.14031871188165,76.03748,-1,-1,-1,-1,30.0056606849946,39.38603433184983,-9999,37446.55533054167,-0.7196502685546875,0.686492919921875,-0.1553802490234375,37446.54525454167,-3.06158495582807,-1.353771372843727,-0.747223492048288,-0.006572931539267302,-0.002458794042468071,0.005319597665220499,-0.006895959377288818,-0.004326999187469482,-0.001893222332000732,XArbitraryZVertical,-0.5940704754438471,0.2609621669278783,-0.7160280527960926,0.2574544127875159,-0.7163705229759216,0.6796045899391174,-0.1579580307006836,0,0,0,-1,-1,37443.66748329167,unknown,2,2025-04-22T16:28:23.387+03:00,2025-04-21T17:08:51.449+03:00,8584,1.057491,0,0,7132.477,7,22,2025-04-22T16:28:23.387+03:00,767021264.8016557,0,-12.9,100.3591,1,0.5,2025-04-22T16:27:26.940+03:00,96,1.6,2025-04-22T14:20:19.516+03:00,0.02197104130929222,0
2025-04-22T16:28:35.734+03:00,1745328514.31086,40.95223118027651,29.14031871188165,76.03748,-1,-1,-1,-1,30.0056606849946,39.38603433184983,-9999,37446.56540554167,-0.72369384765625,0.6811370849609375,-0.1569671630859375,37446.55533054167,-3.061583471595994,-1.353726006192784,-0.7472983782483393,0.003196608973667026,0.009810389950871468,0.002136853523552418,-0.004236817359924316,0.004361391067504883,0.002782225608825684,XArbitraryZVertical,-0.5940469652363481,0.2609950656986276,-0.7160297627905289,0.2574704326802802,-0.7163136005401611,0.6796595454216003,-0.1579795628786087,0,0,0,-1,-1,37443.66748329167,unknown,2,2025-04-22T16:28:23.387+03:00,2025-04-21T17:08:51.449+03:00,8584,1.057491,0,0,7132.477,7,22,2025-04-22T16:28:23.387+03:00,767021264.8016557,0,-12.9,100.3591,1,0.5,2025-04-22T16:27:26.940+03:00,96,1.6,2025-04-22T14:20:19.516+03:00,0.02197104130929222,0
2025-04-22T16:28:35.745+03:00,1745328514.31086,40.95223118027651,29.14031871188165,76.03748,-1,-1,-1,-1,30.0056606849946,39.38603433184983,-9999,37446.57548154167,-0.7224884033203125,0.68438720703125,-0.1563720703125,37446.56540554167,-3.061461390261251,-1.353500653919196,-0.7473028423478428,0.01030911318957806,0.010926254093647,0.001614607637748122,-0.00297844409942627,0.006631672382354736,0.002469956874847412,XArbitraryZVertical,-0.5939817692568538,0.2609894576592919,-0.7160802879551407,0.2574860094071887,-0.7162749767303467,0.679662823677063,-0.1581403166055679,0,0,0,-1,-1,37443.66748329167,unknown,2,2025-04-22T16:28:23.387+03:00,2025-04-21T17:08:51.449+03:00,8584,1.057491,0,0,7132.477,7,22,2025-04-22T16:28:23.387+03:00,767021264.8016557,0,-12.9,100.3591,1,0.5,2025-04-22T16:27:26.940+03:00,96,1.6,2025-04-22T14:20:19.516+03:00,0.02197104130929222,0
2025-04-22T16:28:35.754+03:00,1745328514.31086,40.95223118027651,29.14031871188165,76.03748,-1,-1,-1,-1,30.0056606849946,39.38603433184983,-9999,37446.58555754167,-0.71441650390625,0.68145751953125,-0.1595306396484375,37446.57548154167,-3.061323738231539,-1.353319583861097,-0.7472895411993935,0.01154062617570162,0.006309996824711561,-0.001530685229226947,-0.007743716239929199,0.000690460205078125,0.001701310276985168,XArbitraryZVertical,-0.5939362270204486,0.2609670081948815,-0.7161183584070507,0.2575078780601689,-0.7162551283836365,0.6796530485153198,-0.1582719534635544,0,0,0,-1,-1,37443.66748329167,unknown,2,2025-04-22T16:28:23.387+03:00,2025-04-21T17:08:51.449+03:00,8584,1.057491,0,0,7132.477,7,22,2025-04-22T16:28:23.387+03:00,767021264.8016557,0,-12.9,100.3591,1,0.5,2025-04-22T16:27:26.940+03:00,96,1.6,2025-04-22T14:20:19.516+03:00,0.02197104130929222,0
2025-04-22T16:28:35.764+03:00,1745328514.31086,40.95223118027651,29.14031871188165,76.03748,-1,-1,-1,-1,30.0056606849946,39.38603433184983,-9999,37446.59563354167,-0.7140350341796875,0.67626953125,-0.1613006591796875,37446.58555754167,-3.061221631591176,-1.353235272663669,-0.7472386436449258,0.005838797427713871,0.0002752738073468208,-0.006068711634725332,-0.005510807037353516,0.004939258098602295,0.001830235123634338,XArbitraryZVertical,-0.5939244331574296,0.2609288526477762,-0.71613804912973,0.2575189148952201,-0.7162755131721497,0.6796157360076904,-0.15833979845047,0,0,0,-1,-1,37443.66748329167,unknown,2,2025-04-22T16:28:23.387+03:00,2025-04-21T17:08:51.449+03:00,8584,1.057491,0,0,7132.477,7,22,2025-04-22T16:28:23.387+03:00,767021264.8016557,0,-12.9,100.3591,1,0.5,2025-04-22T16:27:26.940+03:00,96,1.6,2025-04-22T14:20:19.516+03:00,0.02197104130929222,0
2025-04-22T16:28:35.774+03:00,1745328514.31086,40.95223118027651,29.14031871188165,76.03748,-1,-1,-1,-1,30.0056606849946,39.38603433184983,-9999,37446.60570954167,-0.714447021484375,0.6789093017578125,-0.1611785888671875,37446.59563354167,-3.061223167746142,-1.353231850543791,-0.7471452966724453,0.0008323877118527889,0.004047441761940718,-0.006786933168768883,0.002363085746765137,0.001498162746429443,-0.001571640372276306,XArbitraryZVertical,-0.5939323039934487,0.2608954676190823,-0.71615362428008,0.2574912656877502,-0.7163369655609131,0.6795472502708435,-0.1583559513092041,0,0,0,-1,-1,37443.66748329167,unknown,2,2025-04-22T16:28:23.387+03:00,2025-04-21T17:08:51.449+03:00,8584,1.057491,0,0,7132.477,7,22,2025-04-22T16:28:23.387+03:00,767021264.8016557,0,-12.9,100.3591,1,0.5,2025-04-22T16:27:26.940+03:00,96,1.6,2025-04-22T14:20:19.516+03:00,0.02197104130929222,0
2025-04-22T16:28:35.784+03:00,1745328514.31086,40.95223118027651,29.14031871188165,76.03748,-1,-1,-1,-1,30.0056606849946,39.38603433184983,-9999,37446.61578554167,-0.7162628173828125,0.68792724609375,-0.1533660888671875,37446.60570954167,-3.061277489755154,-1.353218960024729,-0.7470821419548453,-0.002752227010205388,0.008930614218115807,-0.006873219273984432,0.002570807933807373,-0.003063678741455078,-0.00350622832775116,XArbitraryZVertical,-0.593926888905718,0.2608900625408923,-0.7161741890938647,0.2574520911987779,-0.7163768410682678,0.6795008778572083,-0.1583744585514069,0,0,0,-1,-1,37443.66748329167,unknown,2,2025-04-22T16:28:23.387+03:00,2025-04-21T17:08:51.449+03:00,8584,1.057491,0,0,7132.477,7,22,2025-04-22T16:28:23.387+03:00,767021264.8016557,0,-12.9,100.3591,1,0.5,2025-04-22T16:27:26.940+03:00,96,1.6,2025-04-22T14:20:19.516+03:00,0.02197104130929222,0
2025-04-22T16:28:35.794+03:00,1745328514.31086,40.95223118027651,29.14031871188165,76.03748,-1,-1,-1,-1,30.0056606849946,39.38603433184983,-9999,37446.62586154167,-0.7200775146484375,0.69293212890625,-0.1540374755859375,37446.61578554167,-3.061323229417857,-1.353202326961447,-0.7469700634059205,0.004514607600867748,0.003963951487094164,-0.008065849542617798,0.001589715480804443,0.0005128383636474609,-0.002043530344963074,XArbitraryZVertical,-0.5939261266101554,0.2608646236530709,-0.7162022619827604,0.2574015377323024,-0.7164485454559326,0.679418683052063,-0.1584028154611588,0,0,0,-1,-1,37443.66748329167,unknown,2,2025-04-22T16:28:23.387+03:00,2025-04-21T17:08:51.449+03:00,8584,1.057491,0,0,7132.477,7,22,2025-04-22T16:28:23.387+03:00,767021264.8016557,0,-12.9,100.3591,1,0.5,2025-04-22T16:27:26.940+03:00,96,1.6,2025-04-22T14:20:19.516+03:00,0.02197104130929222,0
2025-04-22T16:28:35.804+03:00,1745328514.31086,40.95223118027651,29.14031871188165,76.03748,-1,-1,-1,-1,30.0056606849946,39.38603433184983,-9999,37446.63593754167,-0.72607421875,0.681915283203125,-0.15484619140625,37446.62586154167,-3.061167821363721,-1.353021927144324,-0.7467837366675985,0.02117560803890228,0.01138857752084732,-0.0118320919573307,0.000235140323638916,0.01032364368438721,0.004796400666236877,XArbitraryZVertical,-0.5939003314667468,0.2607732507726178,-0.7162645438447313,0.2573804485601889,-0.7165436148643494,0.6792819499969482,-0.1585594117641449,0,0,0,-1,-1,37443.66748329167,unknown,2,2025-04-22T16:28:23.387+03:00,2025-04-21T17:08:51.449+03:00,8584,1.057491,0,0,7132.477,7,22,2025-04-22T16:28:23.387+03:00,767021264.8016557,0,-12.9,100.3591,1,0.5,2025-04-22T16:27:26.940+03:00,96,1.6,2025-04-22T14:20:19.516+03:00,0.02197104130929222,0
2025-04-22T16:28:35.815+03:00,1745328514.31086,40.95223118027651,29.14031871188165,76.03748,-1,-1,-1,-1,30.0056606849946,39.38603433184983,-9999,37446.64601354167,-0.7202301025390625,0.669891357421875,-0.1507415771484375,37446.63593754167,-3.060964276295911,-1.352736654014646,-0.7466685059987042,0.01480546128004789,0.01939737051725388,-0.007666308898478746,-0.004296064376831055,0.01315480470657349,0.003705456852912903,XArbitraryZVertical,-0.5938361576955191,0.2607071938958505,-0.7163407872189302,0.2573832594859333,-0.7165747880935669,0.679197371006012,-0.1587807536125183,0,0,0,-1,-1,37443.66748329167,unknown,2,2025-04-22T16:28:23.387+03:00,2025-04-21T17:08:51.449+03:00,8584,1.057491,0,0,7132.477,7,22,2025-04-22T16:28:23.387+03:00,767021264.8016557,0,-12.9,100.3591,1,0.5,2025-04-22T16:27:26.940+03:00,96,1.6,2025-04-22T14:20:19.516+03:00,0.02197104130929222,0
2025-04-22T16:28:35.824+03:00,1745328514.31086,40.95223118027651,29.14031871188165,76.03748,-1,-1,-1,-1,30.0056606849946,39.38603433184983,-9999,37446.65608954167,-0.7175750732421875,0.6698150634765625,-0.15283203125,37446.64601354167,-3.060858650620421,-1.352493101086618,-0.7466042897270249,0.009347313083708286,0.01943998038768768,-0.006112087983638048,-0.008915543556213379,0.0006592869758605957,0.00491178035736084,XArbitraryZVertical,-0.5937690659618761,0.2606835780625392,-0.7164094504677097,0.2573709975529205,-0.7165787816047668,0.6791502237319946,-0.1589647382497787,0,0,0,-1,-1,37443.66748329167,unknown,2,2025-04-22T16:28:23.387+03:00,2025-04-21T17:08:51.449+03:00,8584,1.057491,0,0,7132.477,7,22,2025-04-22T16:28:23.387+03:00,767021264.8016557,0,-12.9,100.3591,1,0.5,2025-04-22T16:27:26.940+03:00,96,1.6,2025-04-22T14:20:19.516+03:00,0.02197104130929222,0
2025-04-22T16:28:35.834+03:00,1745328514.31086,40.95223118027651,29.14031871188165,76.03748,-1,-1,-1,-1,30.0056606849946,39.38603433184983,-9999,37446.66616554167,-0.720367431640625,0.6767425537109375,-0.1558685302734375,37446.65608954167,-3.060785397297912,-1.352241300455149,-0.7465040300151572,0.005697383545339108,0.01894190162420273,-0.006445548962801695,-0.002617716789245605,-0.009597301483154297,0.008814871311187744,XArbitraryZVertical,-0.5936983696101863,0.2606573893940705,-0.7164902480978733,0.2573357936753869,-0.7166052460670471,0.679076611995697,-0.1591599434614182,0,0,0,-1,-1,37443.66748329167,unknown,2,2025-04-22T16:28:23.387+03:00,2025-04-21T17:08:51.449+03:00,8584,1.057491,0,0,7132.477,7,22,2025-04-22T16:28:23.387+03:00,767021264.8016557,0,-12.9,100.3591,1,0.5,2025-04-22T16:27:26.940+03:00,96,1.6,2025-04-22T14:20:19.516+03:00,0.02197104130929222,0
2025-04-22T16:28:35.845+03:00,1745328514.31086,40.95223118027651,29.14031871188165,76.03748,-1,-1,-1,-1,30.0056606849946,39.38603433184983,-9999,37446.67624154167,-0.7149658203125,0.6734466552734375,-0.162994384765625,37446.66616554167,-3.060796217500837,-1.352066198831463,-0.746430358319964,-0.001016178983263671,0.01772084459662437,-0.008482866920530796,-0.001879632472991943,-0.007879972457885742,0.006006285548210144,XArbitraryZVertical,-0.5936415440609174,0.2606560561801508,-0.716554954999954,0.2572880734994987,-0.7166261672973633,0.6790225505828857,-0.1592962741851807,0,0,0,-1,-1,37443.66748329167,unknown,2,2025-04-22T16:28:23.387+03:00,2025-04-21T17:08:51.449+03:00,8584,1.057491,0,0,7132.477,7,22,2025-04-22T16:28:23.387+03:00,767021264.8016557,0,-12.9,100.3591,1,0.5,2025-04-22T16:27:26.940+03:00,96,1.6,2025-04-22T14:20:19.516+03:00,0.02197104130929222,0
2025-04-22T16:28:35.863+03:00,1745328514.31086,40.95223118027651,29.14031871188165,76.03748,-1,-1,-1,-1,30.0056606849946,39.38603433184983,-9999,37446.68631754167,-0.7110443115234375,0.669647216796875,-0.1650390625,37446.67624154167,-3.060877454292011,-1.351913355740622,-0.7463919209395361,-0.005818923469632864,0.02222850918769836,-0.008550778031349182,-0.003389298915863037,-0.001260101795196533,0.002474620938301086,XArbitraryZVertical,-0.5935800267683221,0.2606857176840089,-0.716616488097253,0.2572281384347453,-0.7166270613670349,0.678994357585907,-0.1594114154577255,0,0,0,-1,-1,37443.66748329167,unknown,2,2025-04-22T16:28:23.387+03:00,2025-04-21T17:08:51.449+03:00,8584,1.057491,0,0,7132.477,7,22,2025-04-22T16:28:23.387+03:00,767021264.8016557,0,-12.9,100.3591,1,0.5,2025-04-22T16:27:26.940+03:00,96,1.6,2025-04-22T14:20:19.516+03:00,0.02197104130929222,0
2025-04-22T16:28:35.866+03:00,1745328514.31086,40.95223118027651,29.14031871188165,76.03748,-1,-1,-1,-1,30.0056606849946,39.38603433184983,-9999,37446.69639354167,-0.7109222412109375,0.6763153076171875,-0.1634368896484375,37446.68631754167,-3.060980425186639,-1.351764834346304,-0.7463428404810802,-0.01098678726702929,0.01892512477934361,-0.00768258748576045,0.002768933773040771,-0.006976604461669922,-0.004293486475944519,XArbitraryZVertical,-0.5935182578055398,0.260717336338443,-0.7166813787678447,0.2571578721625828,-0.7166359424591064,0.6789582967758179,-0.1595250964164734,0,0,0,-1,-1,37443.66748329167,unknown,2,2025-04-22T16:28:23.387+03:00,2025-04-21T17:08:51.449+03:00,8584,1.057491,0,0,7132.477,7,22,2025-04-22T16:28:23.387+03:00,767021264.8016557,0,-12.9,100.3591,1,0.5,2025-04-22T16:27:26.940+03:00,96,1.6,2025-04-22T14:20:19.516+03:00,0.02197104130929222,0
2025-04-22T16:28:35.875+03:00,1745328514.31086,40.95223118027651,29.14031871188165,76.03748,-1,-1,-1,-1,30.0056606849946,39.38603433184983,-9999,37446.70646954167,-0.711029052734375,0.6765899658203125,-0.1611785888671875,37446.69639354167,-3.061102110485406,-1.351660146342283,-0.7463125331990288,-0.01090895663946867,0.01857471838593483,-0.004018443636596203,0.005396783351898193,-0.008403956890106201,-0.005358383059501648,XArbitraryZVertical,-0.5934678894248635,0.2607557669002999,-0.7167327388034979,0.2570919749561617,-0.7166392803192139,0.6789360642433167,-0.1596045941114426,0,0,0,-1,-1,37443.66748329167,unknown,2,2025-04-22T16:28:23.387+03:00,2025-04-21T17:08:51.449+03:00,8584,1.057491,0,0,7132.477,7,22,2025-04-22T16:28:23.387+03:00,767021264.8016557,0,-12.9,100.3591,1,0.5,2025-04-22T16:27:26.940+03:00,96,1.6,2025-04-22T14:20:19.516+03:00,0.02197104130929222,0
2025-04-22T16:28:35.885+03:00,1745328514.31086,40.95223118027651,29.14031871188165,76.03748,-1,-1,-1,-1,30.0056606849946,39.38603433184983,-9999,37446.71654554167,-0.7108917236328125,0.678955078125,-0.160400390625,37446.70646954167,-3.061286891312841,-1.351618182009022,-0.7463346114883906,-0.009337425231933594,0.0190998949110508,-0.006821420975029469,0.005940079689025879,-0.002820134162902832,-0.004126131534576416,XArbitraryZVertical,-0.5934265570825615,0.2608240984188677,-0.7167656142065548,0.2570265597987966,-0.7166180610656738,0.6789522767066956,-0.1596314162015915,0,0,0,-1,-1,37443.66748329167,unknown,2,2025-04-22T16:28:23.387+03:00,2025-04-21T17:08:51.449+03:00,8584,1.057491,0,0,7132.477,7,22,2025-04-22T16:28:23.387+03:00,767021264.8016557,0,-12.9,100.3591,1,0.5,2025-04-22T16:27:26.940+03:00,96,1.6,2025-04-22T14:20:19.516+03:00,0.02197104130929222,0
2025-04-22T16:28:35.895+03:00,1745328514.31086,40.95223118027651,29.14031871188165,76.03748,-1,-1,-1,-1,30.0056606849946,39.38603433184983,-9999,37446.72662154167,-0.70916748046875,0.6771240234375,-0.1607818603515625,37446.71654554167,-3.061480820908549,-1.351581814492482,-0.7463499809584397,-0.009661132469773293,0.01956581324338913,-0.00616741506382823,0.005863010883331299,-0.002251625061035156,-0.00172191858291626,XArbitraryZVertical,-0.5933867011862667,0.26089195904354,-0.7167989701274233,0.2569566956231831,-0.716602087020874,0.6789635419845581,-0.1596552133560181,0,0,0,-1,-1,37443.66748329167,unknown,2,2025-04-22T16:28:23.387+03:00,2025-04-21T17:08:51.449+03:00,8584,1.057491,0,0,7132.477,7,22,2025-04-22T16:28:23.387+03:00,767021264.8016557,0,-12.9,100.3591,1,0.5,2025-04-22T16:27:26.940+03:00,96,1.6,2025-04-22T14:20:19.516+03:00,0.02197104130929222,0
2025-04-22T16:28:35.905+03:00,1745328514.31086,40.95223118027651,29.14031871188165,76.03748,-1,-1,-1,-1,30.0056606849946,39.38603433184983,-9999,37446.73669754167,-0.712158203125,0.6768951416015625,-0.1586456298828125,37446.72662154167,-3.061685409975195,-1.351576066680438,-0.7462979233506232,-0.009750082157552242,0.01681476831436157,-0.003681620582938194,0.006049215793609619,0.0002127885818481445,-0.0008861422538757324,XArbitraryZVertical,-0.5933631251409203,0.2609342632327066,-0.7168349661576299,0.2568677648310704,-0.7166356444358826,0.6789253354072571,-0.1596670299768448,0,0,0,-1,-1,37443.66748329167,unknown,2,2025-04-22T16:28:23.387+03:00,2025-04-21T17:08:51.449+03:00,8584,1.057491,0,0,7132.477,7,22,2025-04-22T16:28:23.387+03:00,767021264.8016557,0,-12.9,100.3591,1,0.5,2025-04-22T16:27:26.940+03:00,96,1.6,2025-04-22T14:20:19.516+03:00,0.02197104130929222,0
2025-04-22T16:28:35.915+03:00,1745328514.31086,40.95223118027651,29.14031871188165,76.03748,-1,-1,-1,-1,30.0056606849946,39.38603433184983,-9999,37446.74677354167,-0.71435546875,0.6748809814453125,-0.1593017578125,37446.73669754167,-3.061884578917008,-1.351587674311434,-0.7462239900486775,-0.007541988976299763,0.01759647391736507,-0.00429651141166687,0.007778584957122803,-0.002006471157073975,-0.0003037452697753906,XArbitraryZVertical,-0.593348648117707,0.2609646876449879,-0.7168684862273056,0.2567767891957104,-0.7166865468025208,0.6788710355758667,-0.1596696227788925,0,0,0,-1,-1,37443.66748329167,unknown,2,2025-04-22T16:28:23.387+03:00,2025-04-21T17:08:51.449+03:00,8584,1.057491,0,0,7132.477,7,22,2025-04-22T16:28:23.387+03:00,767021264.8016557,0,-12.9,100.3591,1,0.5,2025-04-22T16:27:26.940+03:00,96,1.6,2025-04-22T14:20:19.516+03:00,0.02197104130929222,0
2025-04-22T16:28:35.925+03:00,1745328514.31086,40.95223118027651,29.14031871188165,76.03748,-1,-1,-1,-1,30.0056606849946,39.38603433184983,-9999,37446.75684954167,-0.71392822265625,0.66949462890625,-0.15997314453125,37446.74677354167,-3.062049142639017,-1.351559721337604,-0.7461855733528792,-0.008904728107154369,0.01759008131921291,0.0007272757356986403,0.003969550132751465,-0.001993536949157715,0.001553058624267578,XArbitraryZVertical,-0.5933209772233674,0.261002979999567,-0.7169037806238908,0.2567032010240316,-0.7167075276374817,0.6788428425788879,-0.1596953272819519,0,0,0,-1,-1,37443.66748329167,unknown,2,2025-04-22T16:28:23.387+03:00,2025-04-21T17:08:51.449+03:00,8584,1.057491,0,0,7132.477,7,22,2025-04-22T16:28:23.387+03:00,767021264.8016557,0,-12.9,100.3591,1,0.5,2025-04-22T16:27:26.940+03:00,96,1.6,2025-04-22T14:20:19.516+03:00,0.02197104130929222,0
2025-04-22T16:28:35.935+03:00,1745328514.31086,40.95223118027651,29.14031871188165,76.03748,-1,-1,-1,-1,30.0056606849946,39.38603433184983,-9999,37446.76692554167,-0.7151031494140625,0.673187255859375,-0.15997314453125,37446.75684954167,-3.062222990384873,-1.351509351616034,-0.7462086147482269,-0.01583667099475861,0.01938212290406227,0.0007302052108570933,0.002191603183746338,-0.004604458808898926,0.0001056194305419922,XArbitraryZVertical,-0.5932779344961451,0.2610694796389352,-0.7169375502690951,0.2566408668475916,-0.7166842818260193,0.6788597702980042,-0.1597280353307724,0,0,0,-1,-1,37443.66748329167,unknown,2,2025-04-22T16:28:23.387+03:00,2025-04-21T17:08:51.449+03:00,8584,1.057491,0,0,7132.477,7,22,2025-04-22T16:28:23.387+03:00,767021264.8016557,0,-12.9,100.3591,1,0.5,2025-04-22T16:27:26.940+03:00,96,1.6,2025-04-22T14:20:19.516+03:00,0.02197104130929222,0
2025-04-22T16:28:35.945+03:00,1745328514.31086,40.95223118027651,29.14031871188165,76.03748,-1,-1,-1,-1,30.0056606849946,39.38603433184983,-9999,37446.77700154167,-0.7129364013671875,0.677490234375,-0.1612548828125,37446.76692554167,-3.062403202496347,-1.351431111360124,-0.7462360177721414,-0.01763563603162766,0.01873311027884483,0.003270861227065325,0.002618670463562012,-0.009415805339813232,-0.0002542734146118164,XArbitraryZVertical,-0.5932236310869804,0.2611430429667574,-0.7169796910995803,0.2565738631631701,-0.7166536450386047,0.6788798570632935,-0.1597800701856613,0,0,0,-1,-1,37443.66748329167,unknown,2,2025-04-22T16:28:23.387+03:00,2025-04-21T17:08:51.449+03:00,8584,1.057491,0,0,7132.477,7,22,2025-04-22T16:28:23.387+03:00,767021264.8016557,0,-12.9,100.3591,1,0.5,2025-04-22T16:27:26.940+03:00,96,1.6,2025-04-22T14:20:19.516+03:00,0.02197104130929222,0
2025-04-22T16:28:35.956+03:00,1745328514.31086,40.95223118027651,29.14031871188165,76.03748,-1,-1,-1,-1,30.0056606849946,39.38603433184983,-9999,37446.78707754167,-0.7122039794921875,0.6789703369140625,-0.1584930419921875,37446.77700154167,-3.062583460642767,-1.351362833548456,-0.746277639576461,-0.01819190382957458,0.0122142918407917,0.004320445936173201,0.00145113468170166,-0.004594027996063232,-0.0003793388605117798,XArbitraryZVertical,-0.593171462924729,0.2612205549284351,-0.7170167585053997,0.2565121741094324,-0.7166152596473694,0.6789104342460632,-0.1598228812217712,0,0,0,-1,-1,37443.66748329167,unknown,2,2025-04-22T16:28:23.387+03:00,2025-04-21T17:08:51.449+03:00,8584,1.057491,0,0,7132.477,7,22,2025-04-22T16:28:23.387+03:00,767021264.8016557,0,-12.9,100.3591,1,0.5,2025-04-22T16:27:26.940+03:00,96,1.6,2025-04-22T14:20:19.516+03:00,0.02197104130929222,0
2025-04-22T16:28:35.965+03:00,1745328514.31086,40.95223118027651,29.14031871188165,76.03748,-1,-1,-1,-1,30.0056606849946,39.38603433184983,-9999,37446.79715354167,-0.7100830078125,0.680023193359375,-0.1583709716796875,37446.78707754167,-3.062779019356433,-1.351347331555122,-0.7463466685145803,-0.01929019019007683,0.01267368718981743,0.003461043816059828,0.003920435905456543,-0.001562535762786865,-0.00121772289276123,XArbitraryZVertical,-0.5931334998578242,0.2613059237783186,-0.7170356552019225,0.2564597908208346,-0.716566801071167,0.6789610981941223,-0.1598237305879593,0,0,0,-1,-1,37443.66748329167,unknown,2,2025-04-22T16:28:23.387+03:00,2025-04-21T17:08:51.449+03:00,8584,1.057491,0,0,7132.477,7,22,2025-04-22T16:28:23.387+03:00,767021264.8016557,0,-12.9,100.3591,1,0.5,2025-04-22T16:27:26.940+03:00,96,1.6,2025-04-22T14:20:19.516+03:00,0.02197104130929222,0
2025-04-22T16:28:35.975+03:00,1745328514.31086,40.95223118027651,29.14031871188165,76.03748,-1,-1,-1,-1,30.0056606849946,39.38603433184983,-9999,37446.80722954167,-0.7148284912109375,0.681427001953125,-0.160797119140625,37446.79715354167,-3.062924569709342,-1.351297850620254,-0.7464346630475353,-0.00874660350382328,0.01514416839927435,0.006917893420904875,0.004601955413818359,-0.0002080202102661133,0.002054855227470398,XArbitraryZVertical,-0.593087967218304,0.2613877633857464,-0.7170555566841578,0.2564262270236557,-0.7165006995201111,0.6790257096290588,-0.1598462015390396,0,0,0,-1,-1,37443.66748329167,unknown,2,2025-04-22T16:28:23.387+03:00,2025-04-21T17:08:51.449+03:00,8584,1.057491,0,0,7132.477,7,22,2025-04-22T16:28:23.387+03:00,767021264.8016557,0,-12.9,100.3591,1,0.5,2025-04-22T16:27:26.940+03:00,96,1.6,2025-04-22T14:20:19.516+03:00,0.02197104130929222,0
2025-04-22T16:28:35.986+03:00,1745328514.31086,40.95223118027651,29.14031871188165,76.03748,-1,-1,-1,-1,30.0056606849946,39.38603433184983,-9999,37446.81730554167,-0.71820068359375,0.678680419921875,-0.1605682373046875,37446.80722954167,-3.062962660258495,-1.351141732943872,-0.7465365439579453,-0.0002441951655782759,0.0177181139588356,0.008356267586350441,0.005959093570709229,0.0008463263511657715,0.001403987407684326,XArbitraryZVertical,-0.5930168648428726,0.2614565180827612,-0.7170910551622928,0.2564212434078623,-0.7164081931114197,0.679100513458252,-0.1599429696798325,0,0,0,-1,-1,37443.66748329167,unknown,2,2025-04-22T16:28:23.387+03:00,2025-04-21T17:08:51.449+03:00,8584,1.057491,0,0,7132.477,7,22,2025-04-22T16:28:23.387+03:00,767021264.8016557,0,-12.9,100.3591,1,0.5,2025-04-22T16:27:26.940+03:00,96,1.6,2025-04-22T14:20:19.516+03:00,0.02197104130929222,0
2025-04-22T16:28:35.996+03:00,1745328514.31086,40.95223118027651,29.14031871188165,76.03748,-1,-1,-1,-1,30.0056606849946,39.38603433184983,-9999,37446.82738154167,-0.717254638671875,0.676361083984375,-0.1592864990234375,37446.81730554167,-3.062945721395583,-1.350927944743813,-0.7466640444634852,-0.001967460149899125,0.01991981454193592,0.009364440105855465,0.0007439255714416504,0.001973450183868408,-0.0006437897682189941,XArbitraryZVertical,-0.5929297145559037,0.2615257614163253,-0.71713273296781,0.256435724725376,-0.7162895202636719,0.6791940927505493,-0.1600772589445114,0,0,0,-1,-1,37443.66748329167,unknown,2,2025-04-22T16:28:23.387+03:00,2025-04-21T17:08:51.449+03:00,8584,1.057491,0,0,7132.477,7,22,2025-04-22T16:28:23.387+03:00,767021264.8016557,0,-12.9,100.3591,1,0.5,2025-04-22T16:27:26.940+03:00,96,1.6,2025-04-22T14:20:19.516+03:00,0.02197104130929222,0
2025-04-22T16:28:36.006+03:00,1745328514.31086,40.95223118027651,29.14031871188165,76.03748,-1,-1,-1,-1,30.0056606849946,39.38603433184983,-9999,37446.83745754167,-0.7126007080078125,0.6756439208984375,-0.16241455078125,37446.82738154167,-3.062956010468735,-1.350742311860681,-0.7467653739078761,-0.006102283950895071,0.02197231352329254,0.01049335394054651,-0.00214540958404541,-0.0007101893424987793,-3.755092620849609e-05,XArbitraryZVertical,-0.5928517169689345,0.2615898646323666,-0.7171734014564005,0.2564366970755141,-0.7161924839019775,0.679268479347229,-0.1601951718330383,0,0,0,-1,-1,37443.66748329167,unknown,2,2025-04-22T16:28:23.387+03:00,2025-04-21T17:08:51.449+03:00,8584,1.057491,0,0,7132.477,7,22,2025-04-22T16:28:23.387+03:00,767021264.8016557,0,-12.9,100.3591,1,0.5,2025-04-22T16:27:26.940+03:00,96,1.6,2025-04-22T14:20:19.516+03:00,0.02197104130929222,0
2025-04-22T16:28:36.016+03:00,1745328514.31086,40.95223118027651,29.14031871188165,76.03748,-1,-1,-1,-1,30.0056606849946,39.38603433184983,-9999,37446.84753354167,-0.7102813720703125,0.6789398193359375,-0.1641845703125,37446.83745754167,-3.062972331102251,-1.350548697488452,-0.7468892316409883,-0.001890295068733394,0.01790719851851463,0.01405676361173391,-0.0002443790435791016,-0.00316619873046875,0.0009829998016357422,XArbitraryZVertical,-0.5927678070008132,0.2616650502553243,-0.7172138737370686,0.2564408346959783,-0.7160793542861938,0.6793593764305115,-0.1603154540061951,0,0,0,-1,-1,37443.66748329167,unknown,2,2025-04-22T16:28:23.387+03:00,2025-04-21T17:08:51.449+03:00,8584,1.057491,0,0,7132.477,7,22,2025-04-22T16:28:23.387+03:00,767021264.8016557,0,-12.9,100.3591,1,0.5,2025-04-22T16:27:26.940+03:00,96,1.6,2025-04-22T14:20:19.516+03:00,0.02197104130929222,0
2025-04-22T16:28:36.026+03:00,1745328514.31086,40.95223118027651,29.14031871188165,76.03748,-1,-1,-1,-1,30.0056606849946,39.38603433184983,-9999,37446.85760954167,-0.7097320556640625,0.67822265625,-0.163330078125,37446.84753354167,-3.062940891372379,-1.350341588550932,-0.7470049556502545,0.001744120847433805,0.01766058802604675,0.01924539916217327,0.003582417964935303,-0.002915441989898682,-0.002166569232940674,XArbitraryZVertical,-0.5926861145220202,0.2617248263870603,-0.7172534417660985,0.256458007829483,-0.715969443321228,0.6794442534446716,-0.1604465693235397,0,0,0,-1,-1,37443.66748329167,unknown,2,2025-04-22T16:28:23.387+03:00,2025-04-21T17:08:51.449+03:00,8584,1.057491,0,0,7132.477,7,22,2025-04-22T16:28:23.387+03:00,767021264.8016557,0,-12.9,100.3591,1,0.5,2025-04-22T16:27:26.940+03:00,96,1.6,2025-04-22T14:20:19.516+03:00,0.02197104130929222,0
2025-04-22T16:28:36.036+03:00,1745328514.31086,40.95223118027651,29.14031871188165,76.03748,-1,-1,-1,-1,30.0056606849946,39.38603433184983,-9999,37446.86768554167,-0.709014892578125,0.677825927734375,-0.16192626953125,37446.85760954167,-3.062929718257923,-1.35016106726729,-0.7471537442939682,-0.006042096298187971,0.01590669713914394,0.01556800678372383,0.005591094493865967,4.249811172485352e-05,-0.003997281193733215,XArbitraryZVertical,-0.5926080001625627,0.2617993522641417,-0.7172827144743238,0.2564807832665673,-0.7158419489860535,0.6795534491539001,-0.1605537086725235,0,0,0,-1,-1,37443.66748329167,unknown,2,2025-04-22T16:28:23.387+03:00,2025-04-21T17:08:51.449+03:00,8584,1.057491,0,0,7132.477,7,22,2025-04-22T16:28:23.387+03:00,767021264.8016557,0,-12.9,100.3591,1,0.5,2025-04-22T16:27:26.940+03:00,96,1.6,2025-04-22T14:20:19.516+03:00,0.02197104130929222,0
2025-04-22T16:28:36.046+03:00,1745328514.31086,40.95223118027651,29.14031871188165,76.03748,-1,-1,-1,-1,30.0056606849946,39.38603433184983,-9999,37446.87776154167,-0.710968017578125,0.6784515380859375,-0.1627960205078125,37446.86768554167,-3.062962632315018,-1.350023517729692,-0.7473263608606633,-0.003168012946844101,0.01418176852166653,0.01578185893595219,0.005958080291748047,-0.0008165836334228516,-0.003085270524024963,XArbitraryZVertical,-0.5925371569259614,0.2618902028110768,-0.7173011121183518,0.2565001899469951,-0.7157053351402283,0.6796800494194031,-0.1606264859437943,0,0,0,-1,-1,37443.66748329167,unknown,2,2025-04-22T16:28:23.387+03:00,2025-04-21T17:08:51.449+03:00,8584,1.057491,0,0,7132.477,7,22,2025-04-22T16:28:23.387+03:00,767021264.8016557,0,-12.9,100.3591,1,0.5,2025-04-22T16:27:26.940+03:00,96,1.6,2025-04-22T14:20:19.516+03:00,0.02197104130929222,0
2025-04-22T16:28:36.056+03:00,1745328514.31086,40.95223118027651,29.14031871188165,76.03748,-1,-1,-1,-1,30.0056606849946,39.38603433184983,-9999,37446.88783754167,-0.7119903564453125,0.678466796875,-0.1648406982421875,37446.87776154167,-3.063013782999413,-1.3499123006906,-0.7475052648836049,-0.006640908308327198,0.01274991966784,0.01326257549226284,0.007179617881774902,-0.001634418964385986,-0.0009418874979019165,XArbitraryZVertical,-0.5924727323478008,0.2619853876087012,-0.7173131128985373,0.2565182719887739,-0.7155688405036926,0.6798112988471985,-0.160679429769516,0,0,0,-1,-1,37443.66748329167,unknown,2,2025-04-22T16:28:23.387+03:00,2025-04-21T17:08:51.449+03:00,8584,1.057491,0,0,7132.477,7,22,2025-04-22T16:28:23.387+03:00,767021264.8016557,0,-12.9,100.3591,1,0.5,2025-04-22T16:27:26.940+03:00,96,1.6,2025-04-22T14:20:19.516+03:00,0.02197104130929222,0
2025-04-22T16:28:36.066+03:00,1745328514.31086,40.95223118027651,29.14031871188165,76.03748,-1,-1,-1,-1,30.0056606849946,39.38603433184983,-9999,37446.89791354167,-0.7094573974609375,0.67987060546875,-0.1666717529296875,37446.88783754167,-3.0630693323158,-1.349845973768681,-0.7476843765613412,-0.006641440559178591,0.008577278815209866,0.01549110747873783,0.004227280616760254,-0.002177715301513672,-0.002172306180000305,XArbitraryZVertical,-0.5924238030964151,0.2620761934288429,-0.7173123386238477,0.256540707962136,-0.7154393792152405,0.6799426078796387,-0.1607002168893814,0,0,0,-1,-1,37443.66748329167,unknown,2,2025-04-22T16:28:23.387+03:00,2025-04-21T17:08:51.449+03:00,8584,1.057491,0,0,7132.477,7,22,2025-04-22T16:28:23.387+03:00,767021264.8016557,0,-12.9,100.3591,1,0.5,2025-04-22T16:27:26.940+03:00,96,1.6,2025-04-22T14:20:19.516+03:00,0.02197104130929222,0
2025-04-22T16:28:36.076+03:00,1745328514.31086,40.95223118027651,29.14031871188165,76.03748,-1,-1,-1,-1,30.0056606849946,39.38603433184983,-9999,37446.90798954167,-0.7109832763671875,0.6754302978515625,-0.1680908203125,37446.89791354167,-3.063113769696425,-1.349812162868983,-0.7478576111055318,-0.008555188775062561,0.00541397649794817,0.01638832688331604,0.003496527671813965,-0.001114547252655029,-0.003669276833534241,XArbitraryZVertical,-0.5923885712467049,0.2621573753601075,-0.7173013988257965,0.2565697123906144,-0.715319037437439,0.680069625377655,-0.1606985777616501,0,0,0,-1,-1,37443.66748329167,unknown,2,2025-04-22T16:28:23.387+03:00,2025-04-21T17:08:51.449+03:00,8584,1.057491,0,0,7132.477,7,22,2025-04-22T16:28:23.387+03:00,767021264.8016557,0,-12.9,100.3591,1,0.5,2025-04-22T16:27:26.940+03:00,96,1.6,2025-04-22T14:20:19.516+03:00,0.02197104130929222,0
2025-04-22T16:28:36.086+03:00,1745328514.31086,40.95223118027651,29.14031871188165,76.03748,-1,-1,-1,-1,30.0056606849946,39.38603433184983,-9999,37446.91806554167,-0.712158203125,0.67913818359375,-0.1625518798828125,37446.90798954167,-3.063174396575697,-1.349812474844542,-0.7480115236330785,-0.009541356936097145,0.001806192100048065,0.01542719267308712,0.005896925926208496,-0.0004949569702148438,-0.005645588040351868,XArbitraryZVertical,-0.5923653774489352,0.2622318712986584,-0.717285382404441,0.2565918795668115,-0.7152169346809387,0.6801824569702148,-0.1606754064559937,0,0,0,-1,-1,37443.66748329167,unknown,2,2025-04-22T16:28:23.387+03:00,2025-04-21T17:08:51.449+03:00,8584,1.057491,0,0,7132.477,7,22,2025-04-22T16:28:23.387+03:00,767021264.8016557,0,-12.9,100.3591,1,0.5,2025-04-22T16:27:26.940+03:00,96,1.6,2025-04-22T14:20:19.516+03:00,0.02197104130929222,0
2025-04-22T16:28:36.096+03:00,1745328514.31086,40.95223118027651,29.14031871188165,76.03748,-1,-1,-1,-1,30.0056606849946,39.38603433184983,-9999,37446.92814154167,-0.7083282470703125,0.6821746826171875,-0.1629486083984375,37446.91806554167,-3.063261256644965,-1.349856467817186,-0.7481371732614047,-0.006262206938117743,0.002406468149274588,0.01362942531704903,0.003180623054504395,-0.004920721054077148,-0.00706915557384491,XArbitraryZVertical,-0.5923572387389159,0.2622981559337386,-0.7172639560024572,0.2566023699062162,-0.7151403427124023,0.6802745461463928,-0.160625159740448,0,0,0,-1,-1,37443.66748329167,unknown,2,2025-04-22T16:28:23.387+03:00,2025-04-21T17:08:51.449+03:00,8584,1.057491,0,0,7132.477,7,22,2025-04-22T16:28:23.387+03:00,767021264.8016557,0,-12.9,100.3591,1,0.5,2025-04-22T16:27:26.940+03:00,96,1.6,2025-04-22T14:20:19.516+03:00,0.02197104130929222,0
2025-04-22T16:28:36.107+03:00,1745328514.31086,40.95223118027651,29.14031871188165,76.03748,-1,-1,-1,-1,30.0056606849946,39.38603433184983,-9999,37446.93821754167,-0.7126922607421875,0.678466796875,-0.163421630859375,37446.92814154167,-3.063277453588517,-1.349837062730966,-0.7482765056239847,-0.003989997785538435,0.002531370613723993,0.01443103700876236,0.003542959690093994,0.0003789067268371582,-0.001384451985359192,XArbitraryZVertical,-0.5923342250056112,0.2623566409373329,-0.7172505342041195,0.2566336639460907,-0.7150449752807617,0.6803767085075378,-0.16061832010746,0,0,0,-1,-1,37443.66748329167,unknown,2,2025-04-22T16:28:23.387+03:00,2025-04-21T17:08:51.449+03:00,8584,1.057491,0,0,7132.477,7,22,2025-04-22T16:28:23.387+03:00,767021264.8016557,0,-12.9,100.3591,1,0.5,2025-04-22T16:27:26.940+03:00,96,1.6,2025-04-22T14:20:19.516+03:00,0.02197104130929222,0
2025-04-22T16:28:36.117+03:00,1745328514.31086,40.95223118027651,29.14031871188165,76.03748,-1,-1,-1,-1,30.0056606849946,39.38603433184983,-9999,37446.94829354167,-0.711181640625,0.676361083984375,-0.161590576171875,37446.93821754167,-3.063236408084534,-1.349751784164154,-0.7484318046593905,0.0006566856172867119,0.003776931203901768,0.01480534393340349,0.006600022315979004,0.001638412475585938,-0.002109602093696594,XArbitraryZVertical,-0.5922935166473275,0.2624125111360605,-0.7172466166635105,0.2566814519762667,-0.7149282097816467,0.6804904937744141,-0.1606561243534088,0,0,0,-1,-1,37443.66748329167,unknown,2,2025-04-22T16:28:23.387+03:00,2025-04-21T17:08:51.449+03:00,8584,1.057491,0,0,7132.477,7,22,2025-04-22T16:28:23.387+03:00,767021264.8016557,0,-12.9,100.3591,1,0.5,2025-04-22T16:27:26.940+03:00,96,1.6,2025-04-22T14:20:19.516+03:00,0.02197104130929222,0
2025-04-22T16:28:36.127+03:00,1745328514.31086,40.95223118027651,29.14031871188165,76.03748,-1,-1,-1,-1,30.0056606849946,39.38603433184983,-9999,37446.95837125,-0.709075927734375,0.67242431640625,-0.161712646484375,37446.94829354167,-3.063152011258873,-1.349646092603964,-0.7485974675361445,0.001992793520912528,0.00284961867146194,0.01615290343761444,0.002017438411712646,-0.001962006092071533,-0.002928510308265686,XArbitraryZVertical,-0.5922501395128572,0.2624619752262298,-0.7172415994182973,0.256745046102999,-0.7148012518882751,0.6806118488311768,-0.1607069671154022,0,0,0,-1,-1,37443.66748329167,unknown,2,2025-04-22T16:28:23.387+03:00,2025-04-21T17:08:51.449+03:00,8584,1.057491,0,0,7132.477,7,22,2025-04-22T16:28:23.387+03:00,767021264.8016557,0,-12.9,100.3591,1,0.5,2025-04-22T16:27:26.940+03:00,96,1.6,2025-04-22T14:20:19.516+03:00,0.02197104130929222,0
2025-04-22T16:28:36.137+03:00,1745328514.31086,40.95223118027651,29.14031871188165,76.03748,-1,-1,-1,-1,30.0056606849946,39.38603433184983,-9999,37446.96844725,-0.7076263427734375,0.6747283935546875,-0.1626739501953125,37446.95837125,-3.063048390414754,-1.349552489887149,-0.7487460134602045,0.003581169294193387,-0.001400453969836235,0.01437541004270315,0.004299461841583252,-0.005198895931243896,-0.0009459257125854492,XArbitraryZVertical,-0.5922153361724796,0.2624979127339902,-0.7172331165030174,0.2568122486095988,-0.7146875262260437,0.6807206869125366,-0.160751685500145,0,0,0,-1,-1,37443.66748329167,unknown,2,2025-04-22T16:28:23.387+03:00,2025-04-21T17:08:51.449+03:00,8584,1.057491,0,0,7132.477,7,22,2025-04-22T16:28:23.387+03:00,767021264.8016557,0,-12.9,100.3591,1,0.5,2025-04-22T16:27:26.940+03:00,96,1.6,2025-04-22T14:20:19.516+03:00,0.02197104130929222,0
2025-04-22T16:28:36.147+03:00,1745328514.31086,40.95223118027651,29.14031871188165,76.03748,-1,-1,-1,-1,30.0056606849946,39.38603433184983,-9999,37446.97852325,-0.702423095703125,0.674468994140625,-0.165924072265625,37446.96844725,-3.062976418055998,-1.349548886141921,-0.748877074865977,-0.004316168371587992,-0.009891411289572716,0.01316793262958527,0.005905330181121826,-0.008102595806121826,-0.001527532935142517,XArbitraryZVertical,-0.5922104186032534,0.2625252569877032,-0.7172045353580877,0.2568749883000497,-0.7145996689796448,0.6808167099952698,-0.160734623670578,0,0,0,-1,-1,37443.66748329167,unknown,2,2025-04-22T16:28:23.387+03:00,2025-04-21T17:08:51.449+03:00,8584,1.057491,0,0,7132.477,7,22,2025-04-22T16:28:23.387+03:00,767021264.8016557,0,-12.9,100.3591,1,0.5,2025-04-22T16:27:26.940+03:00,96,1.6,2025-04-22T14:20:19.516+03:00,0.02197104130929222,0
2025-04-22T16:28:36.157+03:00,1745328514.31086,40.95223118027651,29.14031871188165,76.03748,-1,-1,-1,-1,30.0056606849946,39.38603433184983,-9999,37446.98859925001,-0.7051849365234375,0.67547607421875,-0.1674041748046875,37446.97852325,-3.062972818703209,-1.349693631796401,-0.7490163461288906,-0.004856390412896872,-0.02112582325935364,0.01156344544142485,0.006919503211975098,-0.006159961223602295,-0.002292618155479431,XArbitraryZVertical,-0.5922488775458429,0.2625567849179178,-0.71713980675109,0.2569349384413283,-0.7145304679870605,0.6809186935424805,-0.1606104075908661,0,0,0,-1,-1,37443.66748329167,unknown,2,2025-04-22T16:28:23.387+03:00,2025-04-21T17:08:51.449+03:00,8584,1.057491,0,0,7132.477,7,22,2025-04-22T16:28:23.387+03:00,767021264.8016557,0,-12.9,100.3591,1,0.5,2025-04-22T16:27:26.940+03:00,96,1.6,2025-04-22T14:20:19.516+03:00,0.02197104130929222,0
2025-04-22T16:28:36.167+03:00,1745328514.31086,40.95223118027651,29.14031871188165,76.03748,-1,-1,-1,-1,30.0056606849946,39.38603433184983,-9999,37446.99867625,-0.7095794677734375,0.67578125,-0.17474365234375,37446.98859925001,-3.0629056948935,-1.349906033463967,-0.7491389587224693,0.005402638576924801,-0.03501953557133675,0.01144919544458389,0.01224327087402344,-0.006020843982696533,-0.005026146769523621,XArbitraryZVertical,-0.5923215914945492,0.2625546773539039,-0.7170494110539078,0.2570218137765358,-0.7144831418991089,0.681008517742157,-0.1604403406381607,0,0,0,-1,-1,37443.66748329167,unknown,2,2025-04-22T16:28:23.387+03:00,2025-04-21T17:08:51.449+03:00,8584,1.057491,0,0,7132.477,7,22,2025-04-22T16:28:23.387+03:00,767021264.8016557,0,-12.9,100.3591,1,0.5,2025-04-22T16:27:26.940+03:00,96,1.6,2025-04-22T14:20:19.516+03:00,0.02197104130929222,0
2025-04-22T16:28:36.177+03:00,1745328514.31086,40.95223118027651,29.14031871188165,76.03748,-1,-1,-1,-1,30.0056606849946,39.38603433184983,-9999,37447.00875225,-0.7118988037109375,0.68304443359375,-0.180450439453125,37446.99867625,-3.06261420411505,-1.350035098450783,-0.7492200059460642,0.02578014694154263,-0.03720938414335251,0.01459162496030331,0.00816655158996582,-0.005546092987060547,-0.007312417030334473,XArbitraryZVertical,-0.592398019623041,0.2624815338678868,-0.7169612775306977,0.2571663290302861,-0.7144500613212585,0.6810678243637085,-0.1603360623121262,0,0,0,-1,-1,37443.66748329167,unknown,2,2025-04-22T16:28:23.387+03:00,2025-04-21T17:08:51.449+03:00,8584,1.057491,0,0,7132.477,7,22,2025-04-22T16:28:23.387+03:00,767021264.8016557,0,-12.9,100.3591,1,0.5,2025-04-22T16:27:26.940+03:00,96,1.6,2025-04-22T14:20:19.516+03:00,0.02197104130929222,0
2025-04-22T16:28:36.187+03:00,1745328514.31086,40.95223118027651,29.14031871188165,76.03748,-1,-1,-1,-1,30.0056606849946,39.38603433184983,-9999,37447.01882825,-0.7114410400390625,0.689788818359375,-0.1843719482421875,37447.00875225,-3.062106319506928,-1.350076372172208,-0.7493146243108049,0.04043898731470108,-0.04429765418171883,0.01668726839125156,0.004615902900695801,-0.004837214946746826,-0.01544325053691864,XArbitraryZVertical,-0.5924700181926508,0.2623605662347651,-0.7168689747831758,0.2573808028744105,-0.7143936157226562,0.6811371445655823,-0.1602924168109894,0,0,0,-1,-1,37443.66748329167,unknown,2,2025-04-22T16:28:23.387+03:00,2025-04-21T17:08:51.449+03:00,8584,1.057491,0,0,7132.477,7,22,2025-04-22T16:28:23.387+03:00,767021264.8016557,0,-12.9,100.3591,1,0.5,2025-04-22T16:27:26.940+03:00,96,1.6,2025-04-22T14:20:19.516+03:00,0.02197104130929222,0
2025-04-22T16:28:36.197+03:00,1745328514.31086,40.95223118027651,29.14031871188165,76.03748,-1,-1,-1,-1,30.0056606849946,39.38603433184983,-9999,37447.02890425,-0.7154693603515625,0.68804931640625,-0.1870269775390625,37447.01882825,-3.061438801721416,-1.350037350258344,-0.7494181737771936,0.05195096507668495,-0.04413553327322006,0.01661972142755985,0.002740323543548584,0.003082633018493652,-0.02029836177825928,XArbitraryZVertical,-0.5925332375817501,0.262205893236187,-0.7167786421701413,0.2576444166255946,-0.714318573474884,0.6812129020690918,-0.1603048592805862,0,0,0,-1,-1,37443.66748329167,unknown,2,2025-04-22T16:28:23.387+03:00,2025-04-21T17:08:51.449+03:00,8584,1.057491,0,0,7132.477,7,22,2025-04-22T16:28:23.387+03:00,767021264.8016557,0,-12.9,100.3591,1,0.5,2025-04-22T16:27:26.940+03:00,96,1.6,2025-04-22T14:20:19.516+03:00,0.02197104130929222,0
2025-04-22T16:28:36.207+03:00,1745328514.31086,40.95223118027651,29.14031871188165,76.03748,-1,-1,-1,-1,30.0056606849946,39.38603433184983,-9999,37447.03898025,-0.7210235595703125,0.6925201416015625,-0.18377685546875,37447.02890425,-3.060653496426565,-1.349856043092291,-0.7494590935212075,0.05184417217969894,-0.03065940737724304,0.01623835787177086,0.002882540225982666,0.008957862854003906,-0.02398961782455444,XArbitraryZVertical,-0.5925670945074946,0.2620116296666989,-0.7167249099886683,0.2579137151991868,-0.7142624258995056,0.6812428832054138,-0.1604282855987549,0,0,0,-1,-1,37443.66748329167,unknown,2,2025-04-22T16:28:23.387+03:00,2025-04-21T17:08:51.449+03:00,8584,1.057491,0,0,7132.477,7,22,2025-04-22T16:28:23.387+03:00,767021264.8016557,0,-12.9,100.3591,1,0.5,2025-04-22T16:27:26.940+03:00,96,1.6,2025-04-22T14:20:19.516+03:00,0.02197104130929222,0
2025-04-22T16:28:36.217+03:00,1745328514.31086,40.95223118027651,29.14031871188165,76.03748,-1,-1,-1,-1,30.0056606849946,39.38603433184983,-9999,37447.04905625001,-0.7321929931640625,0.6940765380859375,-0.173431396484375,37447.03898025,-3.059778758617107,-1.349562518676915,-0.7494968355399715,0.06823340058326721,-0.02823553048074245,0.02112039923667908,-0.002484440803527832,0.0069161057472229,-0.02724935114383698,XArbitraryZVertical,-0.5925726966058412,0.261804199122553,-0.7166932733632713,0.2581994570214282,-0.7141903042793274,0.6812705397605896,-0.1606323271989822,0,0,0,-1,-1,37443.66748329167,unknown,2,2025-04-22T16:28:23.387+03:00,2025-04-21T17:08:51.449+03:00,8584,1.057491,0,0,7132.477,7,22,2025-04-22T16:28:23.387+03:00,767021264.8016557,0,-12.9,100.3591,1,0.5,2025-04-22T16:27:26.940+03:00,96,1.6,2025-04-22T14:20:19.516+03:00,0.02197104130929222,0
2025-04-22T16:28:36.228+03:00,1745328514.31086,40.95223118027651,29.14031871188165,76.03748,-1,-1,-1,-1,30.0056606849946,39.38603433184983,-9999,37447.05913225,-0.7319488525390625,0.7021636962890625,-0.177642822265625,37447.04905625001,-3.058646348509218,-1.348999617442101,-0.7495197424151198,0.08862655609846115,-0.01418336108326912,0.02055714093148708,-0.007869839668273926,0.01118695735931396,-0.02068625390529633,XArbitraryZVertical,-0.5925168824833184,0.2615498522974798,-0.7167100571968986,0.2585381717856791,-0.7140843868255615,0.6812872886657715,-0.1610308438539505,0,0,0,-1,-1,37443.66748329167,unknown,2,2025-04-22T16:28:23.387+03:00,2025-04-21T17:08:51.449+03:00,8584,1.057491,0,0,7132.477,7,22,2025-04-22T16:28:23.387+03:00,767021264.8016557,0,-12.9,100.3591,1,0.5,2025-04-22T16:27:26.940+03:00,96,1.6,2025-04-22T14:20:19.516+03:00,0.02197104130929222,0
