loggingTime(txt),locationTimestamp_since1970(s),locationLatitude(WGS84),locationLongitude(WGS84),locationAltitude(m),locationSpeed(m/s),locationSpeedAccuracy(m/s),locationCourse(°),locationCourseAccuracy(°),locationVerticalAccuracy(m),locationHorizontalAccuracy(m),locationFloor(Z),accelerometerTimestamp_sinceReboot(s),accelerometerAccelerationX(G),accelerometerAccelerationY(G),accelerometerAccelerationZ(G),motionTimestamp_sinceReboot(s),motionYaw(rad),motionRoll(rad),motionPitch(rad),motionRotationRateX(rad/s),motionRotationRateY(rad/s),motionRotationRateZ(rad/s),motionUserAccelerationX(G),motionUserAccelerationY(G),motionUserAccelerationZ(G),motionAttitudeReferenceFrame(txt),motionQuaternionX(R),motionQuaternionY(R),motionQuaternionZ(R),motionQuaternionW(R),motionGravityX(G),motionGravityY(G),motionGravityZ(G),motionMagneticFieldX(µT),motionMagneticFieldY(µT),motionMagneticFieldZ(µT),motionHeading(°),motionMagneticFieldCalibrationAccuracy(Z),activityTimestamp_sinceReboot(s),activity(txt),activityActivityConfidence(Z),activityActivityStartDate(txt),pedometerStartDate(txt),pedometerNumberofSteps(N),pedometerAverageActivePace(s/m),pedometerCurrentPace(s/m),pedometerCurrentCadence(steps/s),pedometerDistance(m),pedometerFloorAscended(N),pedometerFloorDescended(N),pedometerEndDate(txt),altimeterTimestamp_sinceReboot(s),altimeterReset(bool),altimeterRelativeAltitude(m),altimeterPressure(kPa),batteryState(N),batteryLevel(R),heartRateBPMTimestamp(txt),heartRateBPM(N),heartRateBPS(R),heartRateVariabilityTimestamp(txt),heartRateVariability(ms),label
2025-04-21T15:27:54.445+03:00,1745238473.757574,40.95228509088264,29.14029757623211,76.50295,-1,-1,-1,-1,30,26.32010262020495,-9999,18637.02072925,-0.6361236572265625,0.3979339599609375,-0.619354248046875,18637.01569125,2.912716945479003,-0.7644350118399056,-0.4412987255434178,0.01239841431379318,0.009177864529192448,-0.0144001105800271,0.007917046546936035,-0.01798033714294434,0.009559512138366699,XArbitraryZVertical,0.3383675302388901,-0.243299056802109,0.9087444476091561,0.0222822862562632,-0.6258217692375183,0.4271141290664673,-0.6526259779930115,0,0,0,-1,-1,18632.579920125,unknown,2,2025-04-21T15:27:14.835+03:00,2025-04-20T21:57:49.637+03:00,6713,0.9734122,0,0,5510.912,5,6,2025-04-21T15:27:25.154+03:00,766931273.6357998,0,-43.9,100.2611,1,0.4,2025-04-21T15:26:28.730+03:00,90,1.5,2025-04-21T12:30:07.995+03:00,0.02023345852159405,0
2025-04-21T15:27:54.446+03:00,1745238473.757574,40.95228509088264,29.14029757623211,76.50295,-1,-1,-1,-1,30,26.32010262020495,-9999,18637.03080525,-0.6556243896484375,0.42669677734375,-0.6375274658203125,18637.02576725,2.912697558639913,-0.7641955853697411,-0.4410054041533443,0.02423803135752678,0.04260559380054474,-0.01704755984246731,-0.007670760154724121,-0.03639191389083862,0.0307043194770813,XArbitraryZVertical,0.3382834617723913,-0.2431691245313501,0.9088081027157952,0.02237657527588612,-0.6257520914077759,0.4268488883972168,-0.6528661251068115,0,0,0,-1,-1,18632.579920125,unknown,2,2025-04-21T15:27:14.835+03:00,2025-04-20T21:57:49.637+03:00,6713,0.9734122,0,0,5510.912,5,6,2025-04-21T15:27:25.154+03:00,766931273.6357998,0,-43.9,100.2611,1,0.4,2025-04-21T15:26:28.730+03:00,90,1.5,2025-04-21T12:30:07.995+03:00,0.02023345852159405,0
2025-04-21T15:27:54.447+03:00,1745238473.757574,40.95228509088264,29.14029757623211,76.50295,-1,-1,-1,-1,30,26.32010262020495,-9999,18637.04088125,-0.6285552978515625,0.430023193359375,-0.651336669921875,18637.03584325,2.912770541445572,-0.7638993817903722,-0.440588089300564,0.03600167855620384,0.0179917961359024,-0.01340358890593052,-0.02319812774658203,-0.008335024118423462,0.02515888214111328,XArbitraryZVertical,0.3381961923350041,-0.2429677053193336,0.9088924128921012,0.02245965814612039,-0.6256818771362305,0.426471471786499,-0.6531800627708435,0,0,0,-1,-1,18632.579920125,unknown,2,2025-04-21T15:27:14.835+03:00,2025-04-20T21:57:49.637+03:00,6713,0.9734122,0,0,5510.912,5,6,2025-04-21T15:27:25.154+03:00,766931273.6357998,0,-43.9,100.2611,1,0.4,2025-04-21T15:26:28.730+03:00,90,1.5,2025-04-21T12:30:07.995+03:00,0.02023345852159405,0
2025-04-21T15:27:54.454+03:00,1745238473.757574,40.95228509088264,29.14029757623211,76.50295,-1,-1,-1,-1,30,26.32010262020495,-9999,18637.05095725,-0.597198486328125,0.4319000244140625,-0.6492156982421875,18637.04591925,2.912973896371472,-0.7637221350443647,-0.4402044911921576,0.03805417940020561,0.00504244165495038,-0.01030659861862659,-0.0194014310836792,0.004386872053146362,0.004193365573883057,XArbitraryZVertical,0.3381756550908364,-0.2427605582084866,0.9089553650171177,0.02246251831312222,-0.6256791949272156,0.4261244833469391,-0.6534090638160706,0,0,0,-1,-1,18632.579920125,unknown,2,2025-04-21T15:27:14.835+03:00,2025-04-20T21:57:49.637+03:00,6713,0.9734122,0,0,5510.912,5,6,2025-04-21T15:27:25.154+03:00,766931273.6357998,0,-43.9,100.2611,1,0.4,2025-04-21T15:26:28.730+03:00,90,1.5,2025-04-21T12:30:07.995+03:00,0.02023345852159405,0
2025-04-21T15:27:54.464+03:00,1745238473.757574,40.95228509088264,29.14029757623211,76.50295,-1,-1,-1,-1,30,26.32010262020495,-9999,18637.06103325,-0.612548828125,0.4299163818359375,-0.6446990966796875,18637.05599525,2.913208021301264,-0.7634860423313716,-0.4399380599043176,0.04020488262176514,0.0119564738124609,-0.01981158740818501,0.02314060926437378,0.004383772611618042,0.002576768398284912,XArbitraryZVertical,0.3381212630376061,-0.2425996975959563,0.9090192497074382,0.02243598375798597,-0.6256033778190613,0.425883412361145,-0.6536387801170349,0,0,0,-1,-1,18632.579920125,unknown,2,2025-04-21T15:27:14.835+03:00,2025-04-20T21:57:49.637+03:00,6713,0.9734122,0,0,5510.912,5,6,2025-04-21T15:27:25.154+03:00,766931273.6357998,0,-43.9,100.2611,1,0.4,2025-04-21T15:26:28.730+03:00,90,1.5,2025-04-21T12:30:07.995+03:00,0.02023345852159405,0
2025-04-21T15:27:54.474+03:00,1745238473.757574,40.95228509088264,29.14029757623211,76.50295,-1,-1,-1,-1,30,26.32010262020495,-9999,18637.07110925,-0.6241455078125,0.422821044921875,-0.6480255126953125,18637.06607125,2.913371478652033,-0.7632287782913501,-0.4396329529858604,0.03393793106079102,0.01107443496584892,-0.01847095228731632,0.02179574966430664,0.006490916013717651,0.007912755012512207,XArbitraryZVertical,0.3380521854150911,-0.242433318077194,0.9090889973388857,0.02245152490454734,-0.6255250573158264,0.4256073534488678,-0.6538935899734497,0,0,0,-1,-1,18632.579920125,unknown,2,2025-04-21T15:27:14.835+03:00,2025-04-20T21:57:49.637+03:00,6713,0.9734122,0,0,5510.912,5,6,2025-04-21T15:27:25.154+03:00,766931273.6357998,0,-43.9,100.2611,1,0.4,2025-04-21T15:26:28.730+03:00,90,1.5,2025-04-21T12:30:07.995+03:00,0.02023345852159405,0
2025-04-21T15:27:54.484+03:00,1745238473.757574,40.95228509088264,29.14029757623211,76.50295,-1,-1,-1,-1,30,26.32010262020495,-9999,18637.08118625,-0.617431640625,0.4203948974609375,-0.6487579345703125,18637.07614725,2.913453410832081,-0.763148120251483,-0.4393328465897008,0.02322289906442165,0.0009522256441414356,-0.01580316387116909,0.003398656845092773,4.863739013671875e-05,0.007078886032104492,XArbitraryZVertical,0.3380530361483159,-0.2422849259517094,0.9091274566587991,0.02248167187900775,-0.6255605220794678,0.4253357648849487,-0.6540363430976868,0,0,0,-1,-1,18632.579920125,unknown,2,2025-04-21T15:27:14.835+03:00,2025-04-20T21:57:49.637+03:00,6713,0.9734122,0,0,5510.912,5,6,2025-04-21T15:27:25.154+03:00,766931273.6357998,0,-43.9,100.2611,1,0.4,2025-04-21T15:26:28.730+03:00,90,1.5,2025-04-21T12:30:07.995+03:00,0.02023345852159405,0
2025-04-21T15:27:54.494+03:00,1745238473.757574,40.95228509088264,29.14029757623211,76.50295,-1,-1,-1,-1,30,26.32010262020495,-9999,18637.09126225,-0.620452880859375,0.417205810546875,-0.64666748046875,18637.08622425,2.913466007151824,-0.7631084816202099,-0.4390936584098627,0.01437348127365112,0.006111035123467445,-0.01936141401529312,0.004877328872680664,-0.004037857055664062,0.004308581352233887,XArbitraryZVertical,0.3380585038100167,-0.2421758289123937,0.9091534019949032,0.0225266945359072,-0.6256049275398254,0.4251192808151245,-0.6541346311569214,0,0,0,-1,-1,18632.579920125,unknown,2,2025-04-21T15:27:14.835+03:00,2025-04-20T21:57:49.637+03:00,6713,0.9734122,0,0,5510.912,5,6,2025-04-21T15:27:25.154+03:00,766931273.6357998,0,-43.9,100.2611,1,0.4,2025-04-21T15:26:28.730+03:00,90,1.5,2025-04-21T12:30:07.995+03:00,0.02023345852159405,0
2025-04-21T15:27:54.504+03:00,1745238473.757574,40.95228509088264,29.14029757623211,76.50295,-1,-1,-1,-1,30,26.32010262020495,-9999,18637.10133825,-0.627044677734375,0.4165802001953125,-0.6493988037109375,18637.09630025,2.913386620515333,-0.7630653273540001,-0.438848359352309,0.009745573624968529,0.006534077692776918,-0.02144393883645535,0.008003473281860352,-0.006577670574188232,0.007386386394500732,XArbitraryZVertical,0.3380518049646204,-0.2420795165520207,0.9091793363990718,0.0226151053719609,-0.6256487369537354,0.4248972237110138,-0.6542369723320007,0,0,0,-1,-1,18632.579920125,unknown,2,2025-04-21T15:27:14.835+03:00,2025-04-20T21:57:49.637+03:00,6713,0.9734122,0,0,5510.912,5,6,2025-04-21T15:27:25.154+03:00,766931273.6357998,0,-43.9,100.2611,1,0.4,2025-04-21T15:26:28.730+03:00,90,1.5,2025-04-21T12:30:07.995+03:00,0.02023345852159405,0
2025-04-21T15:27:54.514+03:00,1745238473.757574,40.95228509088264,29.14029757623211,76.50295,-1,-1,-1,-1,30,26.32010262020495,-9999,18637.11141425,-0.62176513671875,0.41455078125,-0.6468048095703125,18637.10637625,2.91326467735417,-0.7631493396959625,-0.4386166789224066,0.003374227089807391,-0.00592418946325779,-0.01793895289301872,-0.000464320182800293,-0.007786989212036133,0.005528092384338379,XArbitraryZVertical,0.338096539988405,-0.2419979079731057,0.9091821070490999,0.0227048165887351,-0.625771701335907,0.4246875047683716,-0.6542555093765259,0,0,0,-1,-1,18632.579920125,unknown,2,2025-04-21T15:27:14.835+03:00,2025-04-20T21:57:49.637+03:00,6713,0.9734122,0,0,5510.912,5,6,2025-04-21T15:27:25.154+03:00,766931273.6357998,0,-43.9,100.2611,1,0.4,2025-04-21T15:26:28.730+03:00,90,1.5,2025-04-21T12:30:07.995+03:00,0.02023345852159405,0
2025-04-21T15:27:54.524+03:00,1745238473.757574,40.95228509088264,29.14029757623211,76.50295,-1,-1,-1,-1,30,26.32010262020495,-9999,18637.12149025,-0.61639404296875,0.4166107177734375,-0.6473236083984375,18637.11645225,2.913078621695993,-0.763384241457685,-0.4384972011777105,-0.007243795786052942,-0.01187555491924286,-0.01689632423222065,0.001372396945953369,-0.009540379047393799,0.005997538566589355,XArbitraryZVertical,0.3381917883137303,-0.2419788274975333,0.9091497728412656,0.02278391694286874,-0.6259604096412659,0.4245793223381042,-0.6541451215744019,0,0,0,-1,-1,18632.579920125,unknown,2,2025-04-21T15:27:14.835+03:00,2025-04-20T21:57:49.637+03:00,6713,0.9734122,0,0,5510.912,5,6,2025-04-21T15:27:25.154+03:00,766931273.6357998,0,-43.9,100.2611,1,0.4,2025-04-21T15:26:28.730+03:00,90,1.5,2025-04-21T12:30:07.995+03:00,0.02023345852159405,0
2025-04-21T15:27:54.535+03:00,1745238473.757574,40.95228509088264,29.14029757623211,76.50295,-1,-1,-1,-1,30,26.32010262020495,-9999,18637.13156625,-0.62274169921875,0.4178466796875,-0.646759033203125,18637.12652825,2.912771097362532,-0.7636611595990798,-0.4384942412223143,-0.02531787194311619,-0.00962624978274107,-0.01982127502560616,0.008878648281097412,-0.008759528398513794,0.00721365213394165,XArbitraryZVertical,0.3382807237159846,-0.2420326787125736,0.9090996720230907,0.02289077034709022,-0.6261424422264099,0.4245766401290894,-0.6539726853370667,0,0,0,-1,-1,18632.579920125,unknown,2,2025-04-21T15:27:14.835+03:00,2025-04-20T21:57:49.637+03:00,6713,0.9734122,0,0,5510.912,5,6,2025-04-21T15:27:25.154+03:00,766931273.6357998,0,-43.9,100.2611,1,0.4,2025-04-21T15:26:28.730+03:00,90,1.5,2025-04-21T12:30:07.995+03:00,0.02023345852159405,0
2025-04-21T15:27:54.544+03:00,1745238473.757574,40.95228509088264,29.14029757623211,76.50295,-1,-1,-1,-1,30,26.32010262020495,-9999,18637.14164225,-0.6264495849609375,0.4186859130859375,-0.645782470703125,18637.13660425,2.912456228233878,-0.7638402395306844,-0.4386110294424335,-0.02514010667800903,-0.01063625421375036,-0.01566135138273239,0.00598597526550293,-0.007339358329772949,0.006531655788421631,XArbitraryZVertical,0.3383132471463298,-0.2421399898455452,0.9090565527711612,0.02298979993663466,-0.6262252330780029,0.4246823787689209,-0.6538247466087341,0,0,0,-1,-1,18632.579920125,unknown,2,2025-04-21T15:27:14.835+03:00,2025-04-20T21:57:49.637+03:00,6713,0.9734122,0,0,5510.912,5,6,2025-04-21T15:27:25.154+03:00,766931273.6357998,0,-43.9,100.2611,1,0.4,2025-04-21T15:26:28.730+03:00,90,1.5,2025-04-21T12:30:07.995+03:00,0.02023345852159405,0
2025-04-21T15:27:54.554+03:00,1745238473.757574,40.95228509088264,29.14029757623211,76.50295,-1,-1,-1,-1,30,26.32010262020495,-9999,18637.15171925,-0.625274658203125,0.423187255859375,-0.64862060546875,18637.14668025,2.912209245478957,-0.7639851075354853,-0.4387519355636288,-0.01542995404452085,-0.01117607671767473,-0.01690211705863476,-1.847743988037109e-05,-0.007085472345352173,0.008182942867279053,XArbitraryZVertical,0.3383362278039728,-0.2422461813343607,0.9090179320307141,0.02305738946424597,-0.6262785196304321,0.4248099327087402,-0.6536907553672791,0,0,0,-1,-1,18632.579920125,unknown,2,2025-04-21T15:27:14.835+03:00,2025-04-20T21:57:49.637+03:00,6713,0.9734122,0,0,5510.912,5,6,2025-04-21T15:27:25.154+03:00,766931273.6357998,0,-43.9,100.2611,1,0.4,2025-04-21T15:26:28.730+03:00,90,1.5,2025-04-21T12:30:07.995+03:00,0.02023345852159405,0
2025-04-21T15:27:54.564+03:00,1745238473.757574,40.95228509088264,29.14029757623211,76.50295,-1,-1,-1,-1,30,26.32010262020495,-9999,18637.16179525,-0.6206512451171875,0.429412841796875,-0.6507110595703125,18637.15675725,2.911931575933354,-0.764213983793554,-0.4387723491538744,-0.0166840348392725,-0.01069723907858133,-0.01890947483479977,-0.0001342892646789551,-0.004143744707107544,0.006415963172912598,XArbitraryZVertical,0.3384047177604528,-0.2423048858882839,0.9089744408793661,0.02315196907002084,-0.6264221668243408,0.424828439950943,-0.6535412073135376,0,0,0,-1,-1,18632.579920125,unknown,2,2025-04-21T15:27:14.835+03:00,2025-04-20T21:57:49.637+03:00,6713,0.9734122,0,0,5510.912,5,6,2025-04-21T15:27:25.154+03:00,766931273.6357998,0,-43.9,100.2611,1,0.4,2025-04-21T15:26:28.730+03:00,90,1.5,2025-04-21T12:30:07.995+03:00,0.02023345852159405,0
2025-04-21T15:27:54.574+03:00,1745238473.757574,40.95228509088264,29.14029757623211,76.50295,-1,-1,-1,-1,30,26.32010262020495,-9999,18637.17187125,-0.620574951171875,0.4283599853515625,-0.6492462158203125,18637.16683325,2.911680510612228,-0.7643903085297854,-0.4387458492800669,-0.01676872372627258,-0.006864950992166996,-0.01806418597698212,0.003559350967407227,0.002014279365539551,0.002758324146270752,XArbitraryZVertical,0.3384568588812293,-0.242337611984127,0.9089438693624242,0.02324984353239698,-0.6265451908111572,0.4248044490814209,-0.6534388661384583,0,0,0,-1,-1,18632.579920125,unknown,2,2025-04-21T15:27:14.835+03:00,2025-04-20T21:57:49.637+03:00,6713,0.9734122,0,0,5510.912,5,6,2025-04-21T15:27:25.154+03:00,766931273.6357998,0,-43.9,100.2611,1,0.4,2025-04-21T15:26:28.730+03:00,90,1.5,2025-04-21T12:30:07.995+03:00,0.02023345852159405,0
2025-04-21T15:27:54.584+03:00,1745238473.757574,40.95228509088264,29.14029757623211,76.50295,-1,-1,-1,-1,30,26.32010262020495,-9999,18637.18194725,-0.6262664794921875,0.41741943359375,-0.6454620361328125,18637.17690925,2.911385969578325,-0.7645812283520047,-0.4387625788225004,-0.02718002162873745,-0.00664650509133935,-0.01711793430149555,0.007081866264343262,0.006195306777954102,0.003655910491943359,XArbitraryZVertical,0.3385063997381911,-0.2423971360571456,0.9089067512024341,0.02335732278548442,-0.6266649961471558,0.4248195886611938,-0.6533141136169434,0,0,0,-1,-1,18632.579920125,unknown,2,2025-04-21T15:27:14.835+03:00,2025-04-20T21:57:49.637+03:00,6713,0.9734122,0,0,5510.912,5,6,2025-04-21T15:27:25.154+03:00,766931273.6357998,0,-43.9,100.2611,1,0.4,2025-04-21T15:26:28.730+03:00,90,1.5,2025-04-21T12:30:07.995+03:00,0.02023345852159405,0
2025-04-21T15:27:54.595+03:00,1745238473.757574,40.95228509088264,29.14029757623211,76.50295,-1,-1,-1,-1,30,26.32010262020495,-9999,18637.192023125,-0.625244140625,0.415924072265625,-0.645294189453125,18637.18698525,2.911026731474718,-0.7648541789323186,-0.4388548554231413,-0.03627365082502365,-0.01368657313287258,-0.009025918319821358,0.002472281455993652,-0.003104567527770996,0.006264150142669678,XArbitraryZVertical,0.3385783854284705,-0.2425022190579,0.9088489483126888,0.0234696892060085,-0.6268160939216614,0.4249031245708466,-0.6531146764755249,0,0,0,-1,-1,18632.579920125,unknown,2,2025-04-21T15:27:14.835+03:00,2025-04-20T21:57:49.637+03:00,6713,0.9734122,0,0,5510.912,5,6,2025-04-21T15:27:25.154+03:00,766931273.6357998,0,-43.9,100.2611,1,0.4,2025-04-21T15:26:28.730+03:00,90,1.5,2025-04-21T12:30:07.995+03:00,0.02023345852159405,0
2025-04-21T15:27:54.604+03:00,1745238473.757574,40.95228509088264,29.14029757623211,76.50295,-1,-1,-1,-1,30,26.32010262020495,-9999,18637.202099125,-0.623504638671875,0.4170379638671875,-0.64898681640625,18637.197061125,2.910683292344128,-0.7651567429125402,-0.439009712694399,-0.03396795317530632,-0.01588587835431099,-0.007125253323465586,0.0007321834564208984,-0.009760230779647827,0.008529424667358398,XArbitraryZVertical,0.3386598740148785,-0.2426328356683024,0.9087814879394575,0.02355928144246675,-0.6269681453704834,0.4250432848930359,-0.6528775691986084,0,0,0,-1,-1,18632.579920125,unknown,2,2025-04-21T15:27:14.835+03:00,2025-04-20T21:57:49.637+03:00,6713,0.9734122,0,0,5510.912,5,6,2025-04-21T15:27:25.154+03:00,766931273.6357998,0,-43.9,100.2611,1,0.4,2025-04-21T15:26:28.730+03:00,90,1.5,2025-04-21T12:30:07.995+03:00,0.02023345852159405,0
2025-04-21T15:27:54.615+03:00,1745238473.757574,40.95228509088264,29.14029757623211,76.50295,-1,-1,-1,-1,30,26.32010262020495,-9999,18637.212176125,-0.6251983642578125,0.42181396484375,-0.6514892578125,18637.207137125,2.910430901574783,-0.7653933672197795,-0.4391704170282564,-0.02230570279061794,-0.01307624112814665,-0.004055693745613098,0.00286865234375,-0.00842556357383728,0.004547595977783203,XArbitraryZVertical,0.3387219183607775,-0.2427498913860203,0.9087255772774745,0.02361423558570976,-0.6270752549171448,0.4251887500286102,-0.6526799201965332,0,0,0,-1,-1,18632.579920125,unknown,2,2025-04-21T15:27:14.835+03:00,2025-04-20T21:57:49.637+03:00,6713,0.9734122,0,0,5510.912,5,6,2025-04-21T15:27:25.154+03:00,766931273.6357998,0,-43.9,100.2611,1,0.4,2025-04-21T15:26:28.730+03:00,90,1.5,2025-04-21T12:30:07.995+03:00,0.02023345852159405,0
2025-04-21T15:27:54.625+03:00,1745238473.757574,40.95228509088264,29.14029757623211,76.50295,-1,-1,-1,-1,30,26.32010262020495,-9999,18637.222252125,-0.63153076171875,0.429229736328125,-0.6522369384765625,18637.217214125,2.910292617916266,-0.7655078341466793,-0.4392146799090321,-0.006689126137644053,0.0005650683306157589,-0.005204948130995035,0.002747237682342529,-0.00654304027557373,0.0009374618530273438,XArbitraryZVertical,0.338753034059792,-0.2427943582888159,0.9087010724488307,0.02365465660163272,-0.6271369457244873,0.4252288043498993,-0.6525945663452148,0,0,0,-1,-1,18632.579920125,unknown,2,2025-04-21T15:27:14.835+03:00,2025-04-20T21:57:49.637+03:00,6713,0.9734122,0,0,5510.912,5,6,2025-04-21T15:27:25.154+03:00,766931273.6357998,0,-43.9,100.2611,1,0.4,2025-04-21T15:26:28.730+03:00,90,1.5,2025-04-21T12:30:07.995+03:00,0.02023345852159405,0
2025-04-21T15:27:54.635+03:00,1745238473.757574,40.95228509088264,29.14029757623211,76.50295,-1,-1,-1,-1,30,26.32010262020495,-9999,18637.232328125,-0.63433837890625,0.431060791015625,-0.6516876220703125,18637.227290125,2.910199672042941,-0.7655132544107659,-0.4391510619070388,-0.000755603308789432,0.01288991142064333,-0.01008758693933487,-0.001487672328948975,0.001021862030029297,0.0003126859664916992,XArbitraryZVertical,0.3387501096657708,-0.2427818582025552,0.9087040941749278,0.02370848466393942,-0.6271591782569885,0.4251712262630463,-0.6526106595993042,0,0,0,-1,-1,18632.579920125,unknown,2,2025-04-21T15:27:14.835+03:00,2025-04-20T21:57:49.637+03:00,6713,0.9734122,0,0,5510.912,5,6,2025-04-21T15:27:25.154+03:00,766931273.6357998,0,-43.9,100.2611,1,0.4,2025-04-21T15:26:28.730+03:00,90,1.5,2025-04-21T12:30:07.995+03:00,0.02023345852159405,0
2025-04-21T15:27:54.645+03:00,1745238473.757574,40.95228509088264,29.14029757623211,76.50295,-1,-1,-1,-1,30,26.32010262020495,-9999,18637.242404125,-0.6361541748046875,0.42987060546875,-0.6495513916015625,18637.237366125,2.910101223819086,-0.7653906417647933,-0.4390601555831364,-0.001777524827048182,0.02305566146969795,-0.01357862539589405,-0.006591558456420898,0.005422383546829224,0.0002801418304443359,XArbitraryZVertical,0.3386908755256763,-0.2427566259468767,0.9087308912498313,0.02378561100576444,-0.6271059513092041,0.4250889420509338,-0.6527154445648193,0,0,0,-1,-1,18632.579920125,unknown,2,2025-04-21T15:27:14.835+03:00,2025-04-20T21:57:49.637+03:00,6713,0.9734122,0,0,5510.912,5,6,2025-04-21T15:27:25.154+03:00,766931273.6357998,0,-43.9,100.2611,1,0.4,2025-04-21T15:26:28.730+03:00,90,1.5,2025-04-21T12:30:07.995+03:00,0.02023345852159405,0
2025-04-21T15:27:54.656+03:00,1745238473.757574,40.95228509088264,29.14029757623211,76.50295,-1,-1,-1,-1,30,26.32010262020495,-9999,18637.252480125,-0.6391143798828125,0.4209747314453125,-0.649139404296875,18637.247442125,2.909911874485359,-0.7651540837012116,-0.4390204775169606,-0.01505391579121351,0.03890706226229668,-0.02124693244695663,-0.007588803768157959,0.006160199642181396,0.002454757690429688,XArbitraryZVertical,0.3385640857037395,-0.2427682095376771,0.9087718229914261,0.02390800013976895,-0.626963198184967,0.4250530302524567,-0.6528759002685547,0,0,0,-1,-1,18632.579920125,unknown,2,2025-04-21T15:27:14.835+03:00,2025-04-20T21:57:49.637+03:00,6713,0.9734122,0,0,5510.912,5,6,2025-04-21T15:27:25.154+03:00,766931273.6357998,0,-43.9,100.2611,1,0.4,2025-04-21T15:26:28.730+03:00,90,1.5,2025-04-21T12:30:07.995+03:00,0.02023345852159405,0
2025-04-21T15:27:54.665+03:00,1745238473.757574,40.95228509088264,29.14029757623211,76.50295,-1,-1,-1,-1,30,26.32010262020495,-9999,18637.262556125,-0.6366729736328125,0.416595458984375,-0.65020751953125,18637.257518125,2.909612661881074,-0.7649066065213761,-0.4390412896486302,-0.0216313898563385,0.03423268347978592,-0.01928431540727615,-0.01070147752761841,-0.000862419605255127,0.004480361938476562,XArbitraryZVertical,0.3384133604717864,-0.2428251363234543,0.9088085395284958,0.02407003127051524,-0.6267955303192139,0.4250718653202057,-0.6530246734619141,0,0,0,-1,-1,18632.579920125,unknown,2,2025-04-21T15:27:14.835+03:00,2025-04-20T21:57:49.637+03:00,6713,0.9734122,0,0,5510.912,5,6,2025-04-21T15:27:25.154+03:00,766931273.6357998,0,-43.9,100.2611,1,0.4,2025-04-21T15:26:28.730+03:00,90,1.5,2025-04-21T12:30:07.995+03:00,0.02023345852159405,0
2025-04-21T15:27:54.675+03:00,1745238473.757574,40.95228509088264,29.14029757623211,76.50295,-1,-1,-1,-1,30,26.32010262020495,-9999,18637.272633125,-0.624176025390625,0.4135894775390625,-0.6496429443359375,18637.267594125,2.909217654936869,-0.7648229937402538,-0.4391004074925825,-0.03185366839170456,0.01848727650940418,-0.02011681906878948,-0.01294022798538208,-0.00770607590675354,0.002500474452972412,XArbitraryZVertical,0.338321931993902,-0.2429172684938288,0.9088131551943476,0.02424825573125848,-0.6267234683036804,0.425125390291214,-0.6530589461326599,0,0,0,-1,-1,18632.579920125,unknown,2,2025-04-21T15:27:14.835+03:00,2025-04-20T21:57:49.637+03:00,6713,0.9734122,0,0,5510.912,5,6,2025-04-21T15:27:25.154+03:00,766931273.6357998,0,-43.9,100.2611,1,0.4,2025-04-21T15:26:28.730+03:00,90,1.5,2025-04-21T12:30:07.995+03:00,0.02023345852159405,0
2025-04-21T15:27:54.685+03:00,1745238473.757574,40.95228509088264,29.14029757623211,76.50295,-1,-1,-1,-1,30,26.32010262020495,-9999,18637.282709125,-0.61737060546875,0.413665771484375,-0.648162841796875,18637.277671125,2.908780608582624,-0.7648939218555411,-0.4391541429569029,-0.02967766486108303,0.009357094764709473,-0.02236402779817581,-0.00247269868850708,-0.01044028997421265,0.003248274326324463,XArbitraryZVertical,0.3382960807801345,-0.2430159721854752,0.908791564191117,0.02442787501006471,-0.6267539858818054,0.4251740276813507,-0.6529979705810547,0,0,0,-1,-1,18632.579920125,unknown,2,2025-04-21T15:27:14.835+03:00,2025-04-20T21:57:49.637+03:00,6713,0.9734122,0,0,5510.912,5,6,2025-04-21T15:27:25.154+03:00,766931273.6357998,0,-43.9,100.2611,1,0.4,2025-04-21T15:26:28.730+03:00,90,1.5,2025-04-21T12:30:07.995+03:00,0.02023345852159405,0
2025-04-21T15:27:54.696+03:00,1745238473.757574,40.95228509088264,29.14029757623211,76.50295,-1,-1,-1,-1,30,26.32010262020495,-9999,18637.292785125,-0.620361328125,0.4232330322265625,-0.648773193359375,18637.287747125,2.90838426288763,-0.7649776546513338,-0.4391799453817452,-0.02623366564512253,0.008668933995068073,-0.01961324922740459,0.008362352848052979,-0.01310339570045471,0.003935575485229492,XArbitraryZVertical,0.3382835305285466,-0.243095508698817,0.9087706163057929,0.02459288270308044,-0.6268011331558228,0.4251973628997803,-0.652937650680542,0,0,0,-1,-1,18632.579920125,unknown,2,2025-04-21T15:27:14.835+03:00,2025-04-20T21:57:49.637+03:00,6713,0.9734122,0,0,5510.912,5,6,2025-04-21T15:27:25.154+03:00,766931273.6357998,0,-43.9,100.2611,1,0.4,2025-04-21T15:26:28.730+03:00,90,1.5,2025-04-21T12:30:07.995+03:00,0.02023345852159405,0
2025-04-21T15:27:54.706+03:00,1745238473.757574,40.95228509088264,29.14029757623211,76.50295,-1,-1,-1,-1,30,26.32010262020495,-9999,18637.302861125,-0.624053955078125,0.426605224609375,-0.6468505859375,18637.297823125,2.908051556341567,-0.7650285634278332,-0.4391651021291932,-0.01833932474255562,0.01006755977869034,-0.02013499476015568,0.00804901123046875,-0.006513416767120361,0.004549026489257812,XArbitraryZVertical,0.3382676163197801,-0.2431458109879912,0.9087590175153762,0.02474069987828338,-0.6268386840820312,0.4251839518547058,-0.6529102921485901,0,0,0,-1,-1,18632.579920125,unknown,2,2025-04-21T15:27:14.835+03:00,2025-04-20T21:57:49.637+03:00,6713,0.9734122,0,0,5510.912,5,6,2025-04-21T15:27:25.154+03:00,766931273.6357998,0,-43.9,100.2611,1,0.4,2025-04-21T15:26:28.730+03:00,90,1.5,2025-04-21T12:30:07.995+03:00,0.02023345852159405,0
2025-04-21T15:27:54.716+03:00,1745238473.757574,40.95228509088264,29.14029757623211,76.50295,-1,-1,-1,-1,30,26.32010262020495,-9999,18637.312937125,-0.6291961669921875,0.4213104248046875,-0.6452178955078125,18637.307899125,2.907731435965815,-0.7650343023476256,-0.4391512824195773,-0.02212287671864033,0.0172040332108736,-0.02211132645606995,0.004120051860809326,0.001555740833282471,0.005099058151245117,XArbitraryZVertical,0.3382325867691978,-0.2431938732821745,0.9087551787235838,0.0248881259636205,-0.6268464922904968,0.425171434879303,-0.6529108881950378,0,0,0,-1,-1,18632.579920125,unknown,2,2025-04-21T15:27:14.835+03:00,2025-04-20T21:57:49.637+03:00,6713,0.9734122,0,0,5510.912,5,6,2025-04-21T15:27:25.154+03:00,766931273.6357998,0,-43.9,100.2611,1,0.4,2025-04-21T15:26:28.730+03:00,90,1.5,2025-04-21T12:30:07.995+03:00,0.02023345852159405,0
2025-04-21T15:27:54.729+03:00,1745238473.757574,40.95228509088264,29.14029757623211,76.50295,-1,-1,-1,-1,30,26.32010262020495,-9999,18637.323013125,-0.6290130615234375,0.4141845703125,-0.642333984375,18637.317975125,2.907325778388101,-0.7650234695987387,-0.4392514332643714,-0.04120622575283051,0.02534378319978714,-0.01809045299887657,-0.0008909106254577637,-0.001067876815795898,0.00725710391998291,XArbitraryZVertical,0.3381689852783383,-0.2433068890236477,0.9087440367664087,0.02505447121767971,-0.6268099546432495,0.4252620935440063,-0.6528869867324829,0,0,0,-1,-1,18632.579920125,unknown,2,2025-04-21T15:27:14.835+03:00,2025-04-20T21:57:49.637+03:00,6713,0.9734122,0,0,5510.912,5,6,2025-04-21T15:27:25.154+03:00,766931273.6357998,0,-43.9,100.2611,1,0.4,2025-04-21T15:26:28.730+03:00,90,1.5,2025-04-21T12:30:07.995+03:00,0.02023345852159405,0
2025-04-21T15:27:54.736+03:00,1745238473.757574,40.95228509088264,29.14029757623211,76.50295,-1,-1,-1,-1,30,26.32010262020495,-9999,18637.333090125,-0.625030517578125,0.4080963134765625,-0.633392333984375,18637.328051125,2.90667776563696,-0.7650708106592693,-0.4395714576715442,-0.08097521215677261,0.02897447347640991,-0.02170436270534992,-0.002800583839416504,-0.009383618831634521,0.008319377899169922,XArbitraryZVertical,0.3380817294038044,-0.2435593965581384,0.9087026056524569,0.02528148299425519,-0.6267465949058533,0.42555171251297,-0.6527591347694397,0,0,0,-1,-1,18632.579920125,unknown,2,2025-04-21T15:27:14.835+03:00,2025-04-20T21:57:49.637+03:00,6713,0.9734122,0,0,5510.912,5,6,2025-04-21T15:27:25.154+03:00,766931273.6357998,0,-43.9,100.2611,1,0.4,2025-04-21T15:26:28.730+03:00,90,1.5,2025-04-21T12:30:07.995+03:00,0.02023345852159405,0
2025-04-21T15:27:54.763+03:00,1745238473.757574,40.95228509088264,29.14029757623211,76.50295,-1,-1,-1,-1,30,26.32010262020495,-9999,18637.343166125,-0.6265411376953125,0.403472900390625,-0.6312713623046875,18637.338128125,2.905751765029417,-0.7652610876389003,-0.4400774643916534,-0.1104966104030609,0.02368170581758022,-0.02059648744761944,0.000882267951965332,-0.01519730687141418,0.01521635055541992,XArbitraryZVertical,0.338007973369318,-0.2439433896148363,0.9086186116905343,0.02558143526660542,-0.6267215013504028,0.4260095357894897,-0.6524844765663147,0,0,0,-1,-1,18632.579920125,unknown,2,2025-04-21T15:27:14.835+03:00,2025-04-20T21:57:49.637+03:00,6713,0.9734122,0,0,5510.912,5,6,2025-04-21T15:27:25.154+03:00,766931273.6357998,0,-43.9,100.2611,1,0.4,2025-04-21T15:26:28.730+03:00,90,1.5,2025-04-21T12:30:07.995+03:00,0.02023345852159405,0
2025-04-21T15:27:54.764+03:00,1745238473.757574,40.95228509088264,29.14029757623211,76.50295,-1,-1,-1,-1,30,26.32010262020495,-9999,18637.353242125,-0.621002197265625,0.4001617431640625,-0.6384124755859375,18637.348204125,2.904604258421142,-0.7656559493235476,-0.440786247404407,-0.1371995955705643,0.006345060188323259,-0.01539027318358421,0.0006252527236938477,-0.02168256044387817,0.02212107181549072,XArbitraryZVertical,0.3379806888091277,-0.2444575599879532,0.90848105278967,0.02591779873188129,-0.6267697215080261,0.4266507029533386,-0.6520190834999084,0,0,0,-1,-1,18632.579920125,unknown,2,2025-04-21T15:27:14.835+03:00,2025-04-20T21:57:49.637+03:00,6713,0.9734122,0,0,5510.912,5,6,2025-04-21T15:27:25.154+03:00,766931273.6357998,0,-43.9,100.2611,1,0.4,2025-04-21T15:26:28.730+03:00,90,1.5,2025-04-21T12:30:07.995+03:00,0.02023345852159405,0
2025-04-21T15:27:54.766+03:00,1745238473.757574,40.95228509088264,29.14029757623211,76.50295,-1,-1,-1,-1,30,26.32010262020495,-9999,18637.363318125,-0.6174163818359375,0.4059295654296875,-0.6435089111328125,18637.358280125,2.903397751756139,-0.7661815653797295,-0.4416487802786555,-0.1398140341043472,-0.004586683120578527,-0.01261286251246929,0.002680838108062744,-0.02649080753326416,0.01581931114196777,XArbitraryZVertical,0.3379905080706447,-0.2450517089704309,0.9083081750998524,0.02623493648510633,-0.6268569231033325,0.4274306297302246,-0.6514241695404053,0,0,0,-1,-1,18632.579920125,unknown,2,2025-04-21T15:27:14.835+03:00,2025-04-20T21:57:49.637+03:00,6713,0.9734122,0,0,5510.912,5,6,2025-04-21T15:27:25.154+03:00,766931273.6357998,0,-43.9,100.2611,1,0.4,2025-04-21T15:26:28.730+03:00,90,1.5,2025-04-21T12:30:07.995+03:00,0.02023345852159405,0
2025-04-21T15:27:54.776+03:00,1745238473.757574,40.95228509088264,29.14029757623211,76.50295,-1,-1,-1,-1,30,26.32010262020495,-9999,18637.373394125,-0.621429443359375,0.417205810546875,-0.65057373046875,18637.368356125,2.90231178688155,-0.7667140690216488,-0.4424398892311318,-0.1177385449409485,-0.01250319555401802,-0.01179101131856441,0.009644091129302979,-0.02493232488632202,0.009412765502929688,XArbitraryZVertical,0.3380243022066785,-0.2455937933932858,0.9081411819761365,0.02650990864340528,-0.6269689202308655,0.4281456768512726,-0.650846540927887,0,0,0,-1,-1,18632.579920125,unknown,2,2025-04-21T15:27:14.835+03:00,2025-04-20T21:57:49.637+03:00,6713,0.9734122,0,0,5510.912,5,6,2025-04-21T15:27:25.154+03:00,766931273.6357998,0,-43.9,100.2611,1,0.4,2025-04-21T15:26:28.730+03:00,90,1.5,2025-04-21T12:30:07.995+03:00,0.02023345852159405,0
2025-04-21T15:27:54.786+03:00,1745238473.757574,40.95228509088264,29.14029757623211,76.50295,-1,-1,-1,-1,30,26.32010262020495,-9999,18637.383470125,-0.6264190673828125,0.4344329833984375,-0.6527557373046875,18637.378432125,2.901440478278142,-0.7671538512541002,-0.4430563228851396,-0.08551563322544098,-0.002074523828923702,-0.01461396273225546,0.008282124996185303,-0.01613566279411316,0.002355098724365234,XArbitraryZVertical,0.3380584003192137,-0.2460207414454719,0.9080064337892378,0.02673228580701599,-0.6270717978477478,0.4287026822566986,-0.6503806114196777,0,0,0,-1,-1,18632.579920125,unknown,2,2025-04-21T15:27:14.835+03:00,2025-04-20T21:57:49.637+03:00,6713,0.9734122,0,0,5510.912,5,6,2025-04-21T15:27:25.154+03:00,766931273.6357998,0,-43.9,100.2611,1,0.4,2025-04-21T15:26:28.730+03:00,90,1.5,2025-04-21T12:30:07.995+03:00,0.02023345852159405,0
2025-04-21T15:27:54.796+03:00,1745238473.757574,40.95228509088264,29.14029757623211,76.50295,-1,-1,-1,-1,30,26.32010262020495,-9999,18637.393547125,-0.628753662109375,0.443817138671875,-0.6524505615234375,18637.388508125,2.900749472704321,-0.7673864528992036,-0.4434862321389918,-0.06141775101423264,0.0120253162458539,-0.0174062866717577,0.002201855182647705,-0.001097410917282104,-0.002562165260314941,XArbitraryZVertical,0.3380380630614278,-0.2463315885200234,0.9079237418295154,0.02693417182667377,-0.6270950436592102,0.4290910363197327,-0.6501020193099976,0,0,0,-1,-1,18632.579920125,unknown,2,2025-04-21T15:27:14.835+03:00,2025-04-20T21:57:49.637+03:00,6713,0.9734122,0,0,5510.912,5,6,2025-04-21T15:27:25.154+03:00,766931273.6357998,0,-43.9,100.2611,1,0.4,2025-04-21T15:26:28.730+03:00,90,1.5,2025-04-21T12:30:07.995+03:00,0.02023345852159405,0
2025-04-21T15:27:54.806+03:00,1745238473.757574,40.95228509088264,29.14029757623211,76.50295,-1,-1,-1,-1,30,26.32010262020495,-9999,18637.403623125,-0.62835693359375,0.4373779296875,-0.6495361328125,18637.398585125,2.900187213736749,-0.7674697435090435,-0.4437494182041493,-0.0508042573928833,0.02142467722296715,-0.01455883495509624,-0.0004317164421081543,0.01320651173591614,-0.002970337867736816,XArbitraryZVertical,0.3379815204387244,-0.2465446067296907,0.907881181592797,0.02712820245675859,-0.6270707249641418,0.4293287694454193,-0.6499685049057007,0,0,0,-1,-1,18632.579920125,unknown,2,2025-04-21T15:27:14.835+03:00,2025-04-20T21:57:49.637+03:00,6713,0.9734122,0,0,5510.912,5,6,2025-04-21T15:27:25.154+03:00,766931273.6357998,0,-43.9,100.2611,1,0.4,2025-04-21T15:26:28.730+03:00,90,1.5,2025-04-21T12:30:07.995+03:00,0.02023345852159405,0
2025-04-21T15:27:54.816+03:00,1745238473.757574,40.95228509088264,29.14029757623211,76.50295,-1,-1,-1,-1,30,26.32010262020495,-9999,18637.413699125,-0.6326446533203125,0.422088623046875,-0.6443328857421875,18637.408661125,2.899575336120899,-0.7675018336860316,-0.4439728960264956,-0.06851241737604141,0.03036943450570107,-0.02199225127696991,-0.001881301403045654,0.01118889451026917,-0.0007249116897583008,XArbitraryZVertical,0.3378993077155769,-0.2467476582700446,0.9078496839411473,0.0273587253900448,-0.6270249485969543,0.4295305907726288,-0.6498792767524719,0,0,0,-1,-1,18632.579920125,unknown,2,2025-04-21T15:27:14.835+03:00,2025-04-20T21:57:49.637+03:00,6713,0.9734122,0,0,5510.912,5,6,2025-04-21T15:27:25.154+03:00,766931273.6357998,0,-43.9,100.2611,1,0.4,2025-04-21T15:26:28.730+03:00,90,1.5,2025-04-21T12:30:07.995+03:00,0.02023345852159405,0
2025-04-21T15:27:54.826+03:00,1745238473.757574,40.95228509088264,29.14029757623211,76.50295,-1,-1,-1,-1,30,26.32010262020495,-9999,18637.423775125,-0.6403045654296875,0.408203125,-0.6456756591796875,18637.418737125,2.898720052288061,-0.7676122668582411,-0.4443093432203823,-0.09154769033193588,0.03350690752267838,-0.02599391713738441,-0.003069579601287842,-0.001077830791473389,0.003130137920379639,XArbitraryZVertical,0.3378116956652762,-0.247043025073541,0.9077925345411305,0.02766814245170595,-0.6269963383674622,0.429834395647049,-0.6497060060501099,0,0,0,-1,-1,18632.579920125,unknown,2,2025-04-21T15:27:14.835+03:00,2025-04-20T21:57:49.637+03:00,6713,0.9734122,0,0,5510.912,5,6,2025-04-21T15:27:25.154+03:00,766931273.6357998,0,-43.9,100.2611,1,0.4,2025-04-21T15:26:28.730+03:00,90,1.5,2025-04-21T12:30:07.995+03:00,0.02023345852159405,0
2025-04-21T15:27:54.836+03:00,1745238473.757574,40.95228509088264,29.14029757623211,76.50295,-1,-1,-1,-1,30,26.32010262020495,-9999,18637.433851125,-0.6387176513671875,0.4105682373046875,-0.649139404296875,18637.428813125,2.897707995031602,-0.7678347647990899,-0.4447474675696577,-0.1038320511579514,0.02302337251603603,-0.02515102550387383,-0.009800314903259277,-0.01787653565406799,0.004747152328491211,XArbitraryZVertical,0.3377455499702971,-0.2474115025299989,0.9077062365431418,0.02801517231983055,-0.6270100474357605,0.4302299320697784,-0.6494309902191162,0,0,0,-1,-1,18632.579920125,unknown,2,2025-04-21T15:27:14.835+03:00,2025-04-20T21:57:49.637+03:00,6713,0.9734122,0,0,5510.912,5,6,2025-04-21T15:27:25.154+03:00,766931273.6357998,0,-43.9,100.2611,1,0.4,2025-04-21T15:26:28.730+03:00,90,1.5,2025-04-21T12:30:07.995+03:00,0.02023345852159405,0
2025-04-21T15:27:54.846+03:00,1745238473.757574,40.95228509088264,29.14029757623211,76.50295,-1,-1,-1,-1,30,26.32010262020495,-9999,18637.443927125,-0.6289215087890625,0.418975830078125,-0.6497802734375,18637.438889125,2.896569856779064,-0.7681976744222222,-0.4453081650885494,-0.1371902674436569,0.01221360173076391,-0.0242877621203661,-0.01432526111602783,-0.02257883548736572,0.001538336277008057,XArbitraryZVertical,0.3377154304447231,-0.2478576228245588,0.9075843880067891,0.02837804134398959,-0.6270779371261597,0.4307360053062439,-0.6490297913551331,0,0,0,-1,-1,18632.579920125,unknown,2,2025-04-21T15:27:14.835+03:00,2025-04-20T21:57:49.637+03:00,6713,0.9734122,0,0,5510.912,5,6,2025-04-21T15:27:25.154+03:00,766931273.6357998,0,-43.9,100.2611,1,0.4,2025-04-21T15:26:28.730+03:00,90,1.5,2025-04-21T12:30:07.995+03:00,0.02023345852159405,0
2025-04-21T15:27:54.857+03:00,1745238473.757574,40.95228509088264,29.14029757623211,76.50295,-1,-1,-1,-1,30,26.32010262020495,-9999,18637.454004125,-0.62396240234375,0.41632080078125,-0.65313720703125,18637.448966125,2.895319005258141,-0.7685911844593019,-0.4460190266565718,-0.1431442946195602,0.0164371095597744,-0.02202141098678112,-0.006211042404174805,-0.01466003060340881,-0.00161433219909668,XArbitraryZVertical,0.3376702220289826,-0.2483897929401654,0.9074436913136759,0.0287589176365146,-0.6271202564239502,0.4313774406909943,-0.6485626697540283,0,0,0,-1,-1,18632.579920125,unknown,2,2025-04-21T15:27:14.835+03:00,2025-04-20T21:57:49.637+03:00,6713,0.9734122,0,0,5510.912,5,6,2025-04-21T15:27:25.154+03:00,766931273.6357998,0,-43.9,100.2611,1,0.4,2025-04-21T15:26:28.730+03:00,90,1.5,2025-04-21T12:30:07.995+03:00,0.02023345852159405,0
2025-04-21T15:27:54.867+03:00,1745238473.757574,40.95228509088264,29.14029757623211,76.50295,-1,-1,-1,-1,30,26.32010262020495,-9999,18637.464080125,-0.6285552978515625,0.4077301025390625,-0.6673126220703125,18637.459042125,2.89393726800952,-0.7688781595724022,-0.4467433309510824,-0.1370687633752823,0.04858685657382011,-0.05580703914165497,0.002134740352630615,-0.01285672187805176,-0.001668095588684082,XArbitraryZVertical,0.3375584483041899,-0.2489483983768691,0.9073178618489618,0.02920958231342499,-0.6270889639854431,0.4320307672023773,-0.6481579542160034,0,0,0,-1,-1,18632.579920125,unknown,2,2025-04-21T15:27:14.835+03:00,2025-04-20T21:57:49.637+03:00,6713,0.9734122,0,0,5510.912,5,6,2025-04-21T15:27:25.154+03:00,766931273.6357998,0,-43.9,100.2611,1,0.4,2025-04-21T15:26:28.730+03:00,90,1.5,2025-04-21T12:30:07.995+03:00,0.02023345852159405,0
2025-04-21T15:27:54.877+03:00,1745238473.757574,40.95228509088264,29.14029757623211,76.50295,-1,-1,-1,-1,30,26.32010262020495,-9999,18637.474156125,-0.6298675537109375,0.40869140625,-0.676788330078125,18637.469118125,2.892226763034872,-0.7692238629851829,-0.4474339160478734,-0.2029066383838654,0.01612185686826706,-0.03953512385487556,0.0003505349159240723,-0.02167338132858276,-0.01395547389984131,XArbitraryZVertical,0.3374349378955406,-0.2495482975969377,0.9071794747270953,0.02980827278946152,-0.6271052956581116,0.4326534867286682,-0.6477265954017639,0,0,0,-1,-1,18632.579920125,unknown,2,2025-04-21T15:27:14.835+03:00,2025-04-20T21:57:49.637+03:00,6713,0.9734122,0,0,5510.912,5,6,2025-04-21T15:27:25.154+03:00,766931273.6357998,0,-43.9,100.2611,1,0.4,2025-04-21T15:26:28.730+03:00,90,1.5,2025-04-21T12:30:07.995+03:00,0.02023345852159405,0
2025-04-21T15:27:54.887+03:00,1745238473.757574,40.95228509088264,29.14029757623211,76.50295,-1,-1,-1,-1,30,26.32010262020495,-9999,18637.484232125,-0.6303863525390625,0.3916168212890625,-0.663482666015625,18637.479194125,2.890086248231301,-0.7697894623858357,-0.449113557230972,-0.3082055747509003,0.04195751622319221,-0.01969121210277081,-0.003421425819396973,-0.02733749151229858,-0.02896261215209961,XArbitraryZVertical,0.3372594657568478,-0.2506621124401975,0.9069186232368714,0.03038181193611078,-0.6269649267196655,0.4341671764850616,-0.6468490958213806,0,0,0,-1,-1,18632.579920125,unknown,2,2025-04-21T15:27:14.835+03:00,2025-04-20T21:57:49.637+03:00,6713,0.9734122,0,0,5510.912,5,6,2025-04-21T15:27:25.154+03:00,766931273.6357998,0,-43.9,100.2611,1,0.4,2025-04-21T15:26:28.730+03:00,90,1.5,2025-04-21T12:30:07.995+03:00,0.02023345852159405,0
2025-04-21T15:27:54.897+03:00,1745238473.757574,40.95228509088264,29.14029757623211,76.50295,-1,-1,-1,-1,30,26.32010262020495,-9999,18637.494308125,-0.6485595703125,0.3623046875,-0.6502532958984375,18637.489270125,2.887174752397842,-0.77051882241268,-0.4514853211620036,-0.3781857192516327,0.06488732993602753,-0.0294349193572998,-0.002448081970214844,-0.03292131423950195,-0.02410304546356201,XArbitraryZVertical,0.3369903218775571,-0.252214301645586,0.9065622315924647,0.03114839205429099,-0.6267175078392029,0.43630251288414,-0.6456509232521057,0,0,0,-1,-1,18632.579920125,unknown,2,2025-04-21T15:27:14.835+03:00,2025-04-20T21:57:49.637+03:00,6713,0.9734122,0,0,5510.912,5,6,2025-04-21T15:27:25.154+03:00,766931273.6357998,0,-43.9,100.2611,1,0.4,2025-04-21T15:26:28.730+03:00,90,1.5,2025-04-21T12:30:07.995+03:00,0.02023345852159405,0
2025-04-21T15:27:54.907+03:00,1745238473.757574,40.95228509088264,29.14029757623211,76.50295,-1,-1,-1,-1,30,26.32010262020495,-9999,18637.504385125,-0.6537628173828125,0.3921966552734375,-0.651397705078125,18637.499346125,2.883986846799911,-0.7712078306295543,-0.4539640705179719,-0.3688160479068756,0.07884109765291214,-0.02789581194519997,-0.01417267322540283,-0.07119157910346985,-0.009016156196594238,XArbitraryZVertical,0.3366526422312891,-0.2538587015100509,0.9061982279322592,0.03202272181511336,-0.6264065504074097,0.4385315477848053,-0.644441545009613,0,0,0,-1,-1,18632.579920125,unknown,2,2025-04-21T15:27:14.835+03:00,2025-04-20T21:57:49.637+03:00,6713,0.9734122,0,0,5510.912,5,6,2025-04-21T15:27:25.154+03:00,766931273.6357998,0,-43.9,100.2611,1,0.4,2025-04-21T15:26:28.730+03:00,90,1.5,2025-04-21T12:30:07.995+03:00,0.02023345852159405,0
2025-04-21T15:27:54.917+03:00,1745238473.757574,40.95228509088264,29.14029757623211,76.50295,-1,-1,-1,-1,30,26.32010262020495,-9999,18637.514461125,-0.6429901123046875,0.430633544921875,-0.6588287353515625,18637.509423125,2.881175773384191,-0.7715746933692119,-0.4559006142938317,-0.2612637579441071,0.1012414768338203,-0.04643487557768822,-0.02959007024765015,-0.06446254253387451,-0.005781829357147217,XArbitraryZVertical,0.3362667617818152,-0.2551936617282494,0.9059361239105935,0.03287150831582572,-0.6260496377944946,0.4402711093425751,-0.6436017155647278,0,0,0,-1,-1,18632.579920125,unknown,2,2025-04-21T15:27:14.835+03:00,2025-04-20T21:57:49.637+03:00,6713,0.9734122,0,0,5510.912,5,6,2025-04-21T15:27:25.154+03:00,766931273.6357998,0,-43.9,100.2611,1,0.4,2025-04-21T15:26:28.730+03:00,90,1.5,2025-04-21T12:30:07.995+03:00,0.02023345852159405,0
2025-04-21T15:27:54.927+03:00,1745238473.757574,40.95228509088264,29.14029757623211,76.50295,-1,-1,-1,-1,30,26.32010262020495,-9999,18637.524537125,-0.6299285888671875,0.4451904296875,-0.6871795654296875,18637.519499125,2.878538811559797,-0.771873522108841,-0.4574833928593055,-0.3467139303684235,0.09358782321214676,-0.03263344243168831,-0.02187371253967285,-0.0226396918296814,-0.01194703578948975,XArbitraryZVertical,0.3359048369390643,-0.2563410229094168,0.9057153244023942,0.03371832071324074,-0.6257550716400146,0.4416916966438293,-0.6429144144058228,0,0,0,-1,-1,18632.579920125,unknown,2,2025-04-21T15:27:14.835+03:00,2025-04-20T21:57:49.637+03:00,6713,0.9734122,0,0,5510.912,5,6,2025-04-21T15:27:25.154+03:00,766931273.6357998,0,-43.9,100.2611,1,0.4,2025-04-21T15:26:28.730+03:00,90,1.5,2025-04-21T12:30:07.995+03:00,0.02023345852159405,0
2025-04-21T15:27:54.937+03:00,1745238473.757574,40.95228509088264,29.14029757623211,76.50295,-1,-1,-1,-1,30,26.32010262020495,-9999,18637.534613125,-0.617462158203125,0.42694091796875,-0.722503662109375,18637.529575125,2.874959377104101,-0.7724188811997225,-0.4601312728434936,-0.5099561214447021,0.1100924983620644,-0.04199977964162827,-0.01048547029495239,-0.002369701862335205,-0.03323936462402344,XArbitraryZVertical,0.3354213051926186,-0.2581200318805241,0.9053502097425041,0.03475080315916559,-0.6252872347831726,0.4440657198429108,-0.6417331695556641,0,0,0,-1,-1,18632.579920125,unknown,2,2025-04-21T15:27:14.835+03:00,2025-04-20T21:57:49.637+03:00,6713,0.9734122,0,0,5510.912,5,6,2025-04-21T15:27:25.154+03:00,766931273.6357998,0,-43.9,100.2611,1,0.4,2025-04-21T15:26:28.730+03:00,90,1.5,2025-04-21T12:30:07.995+03:00,0.02023345852159405,0
2025-04-21T15:27:54.947+03:00,1745238473.757574,40.95228509088264,29.14029757623211,76.50295,-1,-1,-1,-1,30,26.32010262020495,-9999,18637.544689125,-0.61004638671875,0.3629608154296875,-0.7728118896484375,18637.539651125,2.869719949564297,-0.7736956028113483,-0.4642763201631535,-0.7495022416114807,0.08952450752258301,-0.0267975926399231,0.004193723201751709,-0.005957752466201782,-0.06767851114273071,XArbitraryZVertical,0.3348911224391565,-0.2608483319299625,0.904709785957601,0.03614343892452515,-0.6248144507408142,0.4477758407592773,-0.6396121382713318,0,0,0,-1,-1,18632.579920125,unknown,2,2025-04-21T15:27:14.835+03:00,2025-04-20T21:57:49.637+03:00,6713,0.9734122,0,0,5510.912,5,6,2025-04-21T15:27:25.154+03:00,766931273.6357998,0,-43.9,100.2611,1,0.4,2025-04-21T15:26:28.730+03:00,90,1.5,2025-04-21T12:30:07.995+03:00,0.02023345852159405,0
2025-04-21T15:27:54.958+03:00,1745238473.757574,40.95228509088264,29.14029757623211,76.50295,-1,-1,-1,-1,30,26.32010262020495,-9999,18637.554765125,-0.606689453125,0.330596923828125,-0.7717132568359375,18637.549727125,2.863005309270279,-0.7759796920019798,-0.4700029809209643,-0.9125193953514099,0.05295903235673904,-0.01326979883015156,0.01168966293334961,-0.0676199197769165,-0.1195319890975952,XArbitraryZVertical,0.3344400652320228,-0.2645345271485356,0.9037399714810407,0.03775251770860637,-0.6244673728942871,0.4528889358043671,-0.6363426446914673,0,0,0,-1,-1,18632.579920125,unknown,2,2025-04-21T15:27:14.835+03:00,2025-04-20T21:57:49.637+03:00,6713,0.9734122,0,0,5510.912,5,6,2025-04-21T15:27:25.154+03:00,766931273.6357998,0,-43.9,100.2611,1,0.4,2025-04-21T15:26:28.730+03:00,90,1.5,2025-04-21T12:30:07.995+03:00,0.02023345852159405,0
2025-04-21T15:27:54.968+03:00,1745238473.757574,40.95228509088264,29.14029757623211,76.50295,-1,-1,-1,-1,30,26.32010262020495,-9999,18637.564842125,-0.6258087158203125,0.32672119140625,-0.7465667724609375,18637.559804125,2.855272017358398,-0.7790159372437313,-0.477060450507408,-1.041505694389343,0.04718789830803871,0.01986708119511604,0.01769012212753296,-0.1208215951919556,-0.1458311676979065,XArbitraryZVertical,0.334022258057618,-0.2689840633402832,0.9025079522938317,0.03944451762881655,-0.6241353750228882,0.4591698050498962,-0.6321533918380737,0,0,0,-1,-1,18632.579920125,unknown,2,2025-04-21T15:27:14.835+03:00,2025-04-20T21:57:49.637+03:00,6713,0.9734122,0,0,5510.912,5,6,2025-04-21T15:27:25.154+03:00,766931273.6357998,0,-43.9,100.2611,1,0.4,2025-04-21T15:26:28.730+03:00,90,1.5,2025-04-21T12:30:07.995+03:00,0.02023345852159405,0
2025-04-21T15:27:54.978+03:00,1745238473.757574,40.95228509088264,29.14029757623211,76.50295,-1,-1,-1,-1,30,26.32010262020495,-9999,18637.574918125,-0.6546478271484375,0.3623504638671875,-0.7050323486328125,18637.569880125,2.846799199542623,-0.7824756302511168,-0.4851279560283804,-1.144551396369934,0.0486086942255497,0.0490979366004467,0.007613062858581543,-0.1428658664226532,-0.1296457052230835,XArbitraryZVertical,0.3335457436581208,-0.2739996288125074,0.901096364322222,0.04119162677824287,-0.623686671257019,0.4663215577602386,-0.6273428797721863,0,0,0,-1,-1,18632.579920125,unknown,2,2025-04-21T15:27:14.835+03:00,2025-04-20T21:57:49.637+03:00,6713,0.9734122,0,0,5510.912,5,6,2025-04-21T15:27:25.154+03:00,766931273.6357998,0,-43.9,100.2611,1,0.4,2025-04-21T15:26:28.730+03:00,90,1.5,2025-04-21T12:30:07.995+03:00,0.02023345852159405,0
2025-04-21T15:27:54.988+03:00,1745238473.757574,40.95228509088264,29.14029757623211,76.50295,-1,-1,-1,-1,30,26.32010262020495,-9999,18637.584994125,-0.6795654296875,0.3856048583984375,-0.6631317138671875,18637.579956125,2.837529801337491,-0.7861905091018068,-0.4942487550637497,-1.291656017303467,0.08061309903860092,0.08252027630805969,-0.02098971605300903,-0.1285606324672699,-0.101352334022522,XArbitraryZVertical,0.3329075421745877,-0.279602014451297,0.8995243088489243,0.04302571844385983,-0.6229770183563232,0.4743704497814178,-0.6219905614852905,0,0,0,-1,-1,18632.579920125,unknown,2,2025-04-21T15:27:14.835+03:00,2025-04-20T21:57:49.637+03:00,6713,0.9734122,0,0,5510.912,5,6,2025-04-21T15:27:25.154+03:00,766931273.6357998,0,-43.9,100.2611,1,0.4,2025-04-21T15:26:28.730+03:00,90,1.5,2025-04-21T12:30:07.995+03:00,0.02023345852159405,0
2025-04-21T15:27:54.998+03:00,1745238473.757574,40.95228509088264,29.14029757623211,76.50295,-1,-1,-1,-1,30,26.32010262020495,-9999,18637.595070125,-0.681488037109375,0.37982177734375,-0.668731689453125,18637.590032125,2.827068894419094,-0.7901866424051214,-0.5048613336844251,-1.474350452423096,0.1193583682179451,0.1218093633651733,-0.05001413822174072,-0.1024148464202881,-0.05824524164199829,XArbitraryZVertical,0.3319948878327906,-0.2860421267960048,0.8977372063735707,0.04502364685803598,-0.6218456625938416,0.483686089515686,-0.6159185767173767,0,0,0,-1,-1,18632.579920125,unknown,2,2025-04-21T15:27:14.835+03:00,2025-04-20T21:57:49.637+03:00,6713,0.9734122,0,0,5510.912,5,6,2025-04-21T15:27:25.154+03:00,766931273.6357998,0,-43.9,100.2611,1,0.4,2025-04-21T15:26:28.730+03:00,90,1.5,2025-04-21T12:30:07.995+03:00,0.02023345852159405,0
2025-04-21T15:27:55.008+03:00,1745238473.757574,40.95228509088264,29.14029757623211,76.50295,-1,-1,-1,-1,30,26.32010262020495,-9999,18637.605146125,-0.6584930419921875,0.3585205078125,-0.70172119140625,18637.600108125,2.815654678313306,-0.7944673327377929,-0.5165632776404865,-1.549278616905212,0.1409745812416077,0.1427731513977051,-0.06420540809631348,-0.1096785962581635,-0.05178266763687134,XArbitraryZVertical,0.3308659511517077,-0.2930973423297355,0.8957671279801698,0.04714775456338118,-0.6203954219818115,0.4938947558403015,-0.6092433333396912,0,0,0,-1,-1,18632.579920125,unknown,2,2025-04-21T15:27:14.835+03:00,2025-04-20T21:57:49.637+03:00,6713,0.9734122,0,0,5510.912,5,6,2025-04-21T15:27:25.154+03:00,766931273.6357998,0,-43.9,100.2611,1,0.4,2025-04-21T15:26:28.730+03:00,90,1.5,2025-04-21T12:30:07.995+03:00,0.02023345852159405,0
2025-04-21T15:27:55.018+03:00,1745238473.757574,40.95228509088264,29.14029757623211,76.50295,-1,-1,-1,-1,30,26.32010262020495,-9999,18637.615223125,-0.63653564453125,0.36370849609375,-0.71209716796875,18637.610185125,2.804342098352707,-0.7986892358205567,-0.5284762978739078,-1.470913052558899,0.1387662887573242,0.1944006681442261,-0.04862529039382935,-0.1375037431716919,-0.08805036544799805,XArbitraryZVertical,0.3296129329712119,-0.3001996800662145,0.8937673162179425,0.04914739019324706,-0.6187025904655457,0.5042181015014648,-0.6024709343910217,0,0,0,-1,-1,18632.579920125,unknown,2,2025-04-21T15:27:14.835+03:00,2025-04-20T21:57:49.637+03:00,6713,0.9734122,0,0,5510.912,5,6,2025-04-21T15:27:25.154+03:00,766931273.6357998,0,-43.9,100.2611,1,0.4,2025-04-21T15:26:28.730+03:00,90,1.5,2025-04-21T12:30:07.995+03:00,0.02023345852159405,0
2025-04-21T15:27:55.028+03:00,1745238473.757574,40.95228509088264,29.14029757623211,76.50295,-1,-1,-1,-1,30,26.32010262020495,-9999,18637.625299125,-0.6227264404296875,0.4265594482421875,-0.715362548828125,18637.620261125,2.794110206603374,-0.8024126067960179,-0.5402444528524054,-1.439671516418457,0.1569851636886597,0.2611964344978333,-0.02832645177841187,-0.1600519418716431,-0.114985466003418,XArbitraryZVertical,0.3282349581229145,-0.3070226035450156,0.8918664397218359,0.05072687449719943,-0.6166321039199829,0.514345645904541,-0.5959978699684143,0,0,0,-1,-1,18632.579920125,unknown,2,2025-04-21T15:27:14.835+03:00,2025-04-20T21:57:49.637+03:00,6713,0.9734122,0,0,5510.912,5,6,2025-04-21T15:27:25.154+03:00,766931273.6357998,0,-43.9,100.2611,1,0.4,2025-04-21T15:26:28.730+03:00,90,1.5,2025-04-21T12:30:07.995+03:00,0.02023345852159405,0
2025-04-21T15:27:55.038+03:00,1745238473.757574,40.95228509088264,29.14029757623211,76.50295,-1,-1,-1,-1,30,26.32010262020495,-9999,18637.635375125,-0.621490478515625,0.470245361328125,-0.73114013671875,18637.630337125,2.783736398191118,-0.8062912447983442,-0.5524179808285697,-1.508678793907166,0.1390817910432816,0.2503704130649567,-0.01225847005844116,-0.1256994009017944,-0.1229192018508911,XArbitraryZVertical,0.3267731319459611,-0.3140182373879135,0.8898789627657225,0.05222179629048745,-0.6143742799758911,0.5247470736503601,-0.5892237424850464,0,0,0,-1,-1,18632.579920125,unknown,2,2025-04-21T15:27:14.835+03:00,2025-04-20T21:57:49.637+03:00,6713,0.9734122,0,0,5510.912,5,6,2025-04-21T15:27:25.154+03:00,766931273.6357998,0,-43.9,100.2611,1,0.4,2025-04-21T15:26:28.730+03:00,90,1.5,2025-04-21T12:30:07.995+03:00,0.02023345852159405,0
2025-04-21T15:27:55.048+03:00,1745238473.757574,40.95228509088264,29.14029757623211,76.50295,-1,-1,-1,-1,30,26.32010262020495,-9999,18637.645451125,-0.624053955078125,0.4082183837890625,-0.7544403076171875,18637.640413125,2.771984852341803,-0.8111412525989022,-0.5656336756285127,-1.749340653419495,0.1246834248304367,0.2895504534244537,-0.009271442890167236,-0.07080209255218506,-0.1428635120391846,XArbitraryZVertical,0.3252991632811937,-0.3216758276163185,0.8875801752683079,0.05391232929388409,-0.6121427416801453,0.5359508991241455,-0.5814102292060852,0,0,0,-1,-1,18632.579920125,unknown,2,2025-04-21T15:27:14.835+03:00,2025-04-20T21:57:49.637+03:00,6713,0.9734122,0,0,5510.912,5,6,2025-04-21T15:27:25.154+03:00,766931273.6357998,0,-43.9,100.2611,1,0.4,2025-04-21T15:26:28.730+03:00,90,1.5,2025-04-21T12:30:07.995+03:00,0.02023345852159405,0
2025-04-21T15:27:55.058+03:00,1745238473.757574,40.95228509088264,29.14029757623211,76.50295,-1,-1,-1,-1,30,26.32010262020495,-9999,18637.655527125,-0.62579345703125,0.3507843017578125,-0.7540283203125,18637.650489125,2.75814481230882,-0.8174447180078194,-0.5809826417262806,-1.999528408050537,0.1145431697368622,0.3399251997470856,-0.01320195198059082,-0.1095757484436035,-0.1760038137435913,XArbitraryZVertical,0.3237262112689975,-0.3305737068388196,0.8847659454458084,0.05578031698430878,-0.6097228527069092,0.5488455891609192,-0.571844756603241,0,0,0,-1,-1,18632.579920125,unknown,2,2025-04-21T15:27:14.835+03:00,2025-04-20T21:57:49.637+03:00,6713,0.9734122,0,0,5510.912,5,6,2025-04-21T15:27:25.154+03:00,766931273.6357998,0,-43.9,100.2611,1,0.4,2025-04-21T15:26:28.730+03:00,90,1.5,2025-04-21T12:30:07.995+03:00,0.02023345852159405,0
2025-04-21T15:27:55.068+03:00,1745238473.757574,40.95228509088264,29.14029757623211,76.50295,-1,-1,-1,-1,30,26.32010262020495,-9999,18637.665604125,-0.6184844970703125,0.3805084228515625,-0.7701263427734375,18637.660565125,2.743115893993411,-0.8250114853187485,-0.5974589552619732,-2.005453824996948,0.04212382808327675,0.3664138317108154,-0.0183645486831665,-0.1988503336906433,-0.1937282085418701,XArbitraryZVertical,0.3222069890855986,-0.3401200434892193,0.8815776596466031,0.0576353510711345,-0.6073068380355835,0.5625434517860413,-0.5610020160675049,0,0,0,-1,-1,18632.579920125,unknown,2,2025-04-21T15:27:14.835+03:00,2025-04-20T21:57:49.637+03:00,6713,0.9734122,0,0,5510.912,5,6,2025-04-21T15:27:25.154+03:00,766931273.6357998,0,-43.9,100.2611,1,0.4,2025-04-21T15:26:28.730+03:00,90,1.5,2025-04-21T12:30:07.995+03:00,0.02023345852159405,0
2025-04-21T15:27:55.078+03:00,1745238473.757574,40.95228509088264,29.14029757623211,76.50295,-1,-1,-1,-1,30,26.32010262020495,-9999,18637.675680125,-0.6011505126953125,0.4806976318359375,-0.7903594970703125,18637.670642125,2.729375423437936,-0.8326604041310973,-0.6132521658909904,-1.745061993598938,-0.01075935829430819,0.4298282265663147,-0.01806902885437012,-0.2185661196708679,-0.2116395235061646,XArbitraryZVertical,0.3208877654975801,-0.3491197550296081,0.8784477676276607,0.05895656629641712,-0.6049320697784424,0.5755300521850586,-0.5502928495407104,0,0,0,-1,-1,18632.579920125,unknown,2,2025-04-21T15:27:14.835+03:00,2025-04-20T21:57:49.637+03:00,6713,0.9734122,0,0,5510.912,5,6,2025-04-21T15:27:25.154+03:00,766931273.6357998,0,-43.9,100.2611,1,0.4,2025-04-21T15:26:28.730+03:00,90,1.5,2025-04-21T12:30:07.995+03:00,0.02023345852159405,0
2025-04-21T15:27:55.089+03:00,1745238473.757574,40.95228509088264,29.14029757623211,76.50295,-1,-1,-1,-1,30,26.32010262020495,-9999,18637.685756125,-0.57708740234375,0.529296875,-0.8052978515625,18637.680718125,2.718398385751244,-0.8394649200789089,-0.6274507940817735,-1.47277843952179,-0.07494473457336426,0.4749909043312073,-0.00525355339050293,-0.1462415456771851,-0.2427805662155151,XArbitraryZVertical,0.3197925476396968,-0.3569411845328023,0.8756645994589751,0.05947371451515873,-0.6025192737579346,0.5870830416679382,-0.5406514406204224,0,0,0,-1,-1,18632.579920125,unknown,2,2025-04-21T15:27:14.835+03:00,2025-04-20T21:57:49.637+03:00,6713,0.9734122,0,0,5510.912,5,6,2025-04-21T15:27:25.154+03:00,766931273.6357998,0,-43.9,100.2611,1,0.4,2025-04-21T15:26:28.730+03:00,90,1.5,2025-04-21T12:30:07.995+03:00,0.02023345852159405,0
2025-04-21T15:27:55.099+03:00,1745238473.757574,40.95228509088264,29.14029757623211,76.50295,-1,-1,-1,-1,30,26.32010262020495,-9999,18637.695832125,-0.5796051025390625,0.4876708984375,-0.7777252197265625,18637.690794125,2.709270339397598,-0.8458095070281572,-0.6407330170037272,-1.398527264595032,-0.09648251533508301,0.531126856803894,0.01476591825485229,-0.07397967576980591,-0.2710583806037903,XArbitraryZVertical,0.318871384012147,-0.3640345748602858,0.8730816881374798,0.05939794776196284,-0.6000473499298096,0.5977832078933716,-0.531599760055542,0,0,0,-1,-1,18632.579920125,unknown,2,2025-04-21T15:27:14.835+03:00,2025-04-20T21:57:49.637+03:00,6713,0.9734122,0,0,5510.912,5,6,2025-04-21T15:27:25.154+03:00,766931273.6357998,0,-43.9,100.2611,1,0.4,2025-04-21T15:26:28.730+03:00,90,1.5,2025-04-21T12:30:07.995+03:00,0.02023345852159405,0
2025-04-21T15:27:55.109+03:00,1745238473.757574,40.95228509088264,29.14029757623211,76.50295,-1,-1,-1,-1,30,26.32010262020495,-9999,18637.705908125,-0.5957794189453125,0.4429168701171875,-0.7290802001953125,18637.700870125,2.700855400404567,-0.8518734640532143,-0.6546574905615414,-1.437557220458984,-0.1155369058251381,0.6485613584518433,0.02297848463058472,-0.09915268421173096,-0.2707181572914124,XArbitraryZVertical,0.3177747257424345,-0.371227681607871,0.8704852301893683,0.05886063856029956,-0.5969378352165222,0.6088875532150269,-0.5224184393882751,0,0,0,-1,-1,18632.579920125,unknown,2,2025-04-21T15:27:14.835+03:00,2025-04-20T21:57:49.637+03:00,6713,0.9734122,0,0,5510.912,5,6,2025-04-21T15:27:25.154+03:00,766931273.6357998,0,-43.9,100.2611,1,0.4,2025-04-21T15:26:28.730+03:00,90,1.5,2025-04-21T12:30:07.995+03:00,0.02023345852159405,0
2025-04-21T15:27:55.119+03:00,1745238473.757574,40.95228509088264,29.14029757623211,76.50295,-1,-1,-1,-1,30,26.32010262020495,-9999,18637.715985125,-0.5804901123046875,0.4469146728515625,-0.6984710693359375,18637.710946125,2.691630830895209,-0.8589117926466783,-0.6696864105661275,-1.626126050949097,-0.1544619202613831,0.6548901200294495,0.0006015896797180176,-0.1675237417221069,-0.2327815294265747,XArbitraryZVertical,0.3166867227917618,-0.3789796439102721,0.8675820497494422,0.05818323217712297,-0.5936039686203003,0.6207401752471924,-0.5121678709983826,0,0,0,-1,-1,18632.579920125,unknown,2,2025-04-21T15:27:14.835+03:00,2025-04-20T21:57:49.637+03:00,6713,0.9734122,0,0,5510.912,5,6,2025-04-21T15:27:25.154+03:00,766931273.6357998,0,-43.9,100.2611,1,0.4,2025-04-21T15:26:28.730+03:00,90,1.5,2025-04-21T12:30:07.995+03:00,0.02023345852159405,0
2025-04-21T15:27:55.129+03:00,1745238473.757574,40.95228509088264,29.14029757623211,76.50295,-1,-1,-1,-1,30,26.32010262020495,-9999,18637.726061125,-0.569091796875,0.4622955322265625,-0.6404876708984375,18637.721023125,2.680661008170311,-0.8677660054419951,-0.6860143830378839,-1.743902802467346,-0.23891581594944,0.710219144821167,0.003588199615478516,-0.1913959980010986,-0.2112760543823242,XArbitraryZVertical,0.3157328475273342,-0.3875265733754883,0.8641903358645731,0.05754104468795078,-0.590303897857666,0.6334582567214966,-0.5002718567848206,0,0,0,-1,-1,18632.579920125,unknown,2,2025-04-21T15:27:14.835+03:00,2025-04-20T21:57:49.637+03:00,6713,0.9734122,0,0,5510.912,5,6,2025-04-21T15:27:25.154+03:00,766931273.6357998,0,-43.9,100.2611,1,0.4,2025-04-21T15:26:28.730+03:00,90,1.5,2025-04-21T12:30:07.995+03:00,0.02023345852159405,0
2025-04-21T15:27:55.139+03:00,1745238473.757574,40.95228509088264,29.14029757623211,76.50295,-1,-1,-1,-1,30,26.32010262020495,-9999,18637.736137125,-0.53326416015625,0.5273895263671875,-0.6134796142578125,18637.731099125,2.669399459488845,-0.8777601078905618,-0.7028449206863469,-1.689719438552856,-0.3189382255077362,0.7312101721763611,0.01164031028747559,-0.1920301914215088,-0.1748871803283691,XArbitraryZVertical,0.3150000022387139,-0.3962850114350378,0.860541325176955,0.05658454741233072,-0.5869882702827454,0.646390974521637,-0.4874663650989532,0,0,0,-1,-1,18632.579920125,unknown,2,2025-04-21T15:27:14.835+03:00,2025-04-20T21:57:49.637+03:00,6713,0.9734122,0,0,5510.912,5,6,2025-04-21T15:27:25.154+03:00,766931273.6357998,0,-43.9,100.2611,1,0.4,2025-04-21T15:26:28.730+03:00,90,1.5,2025-04-21T12:30:07.995+03:00,0.02023345852159405,0
2025-04-21T15:27:55.149+03:00,1745238473.757574,40.95228509088264,29.14029757623211,76.50295,-1,-1,-1,-1,30,26.32010262020495,-9999,18637.746213125,-0.5474700927734375,0.661590576171875,-0.5766448974609375,18637.741175125,2.659392560827186,-0.8880213726049377,-0.7182609886734453,-1.413869142532349,-0.4204775393009186,0.6773558855056763,0.03760373592376709,-0.1653395891189575,-0.1452727913856506,XArbitraryZVertical,0.3147460919217725,-0.404225456408028,0.8570201908485093,0.05525482218231004,-0.5841583013534546,0.658076286315918,-0.475073367357254,0,0,0,-1,-1,18632.579920125,unknown,2,2025-04-21T15:27:14.835+03:00,2025-04-20T21:57:49.637+03:00,6713,0.9734122,0,0,5510.912,5,6,2025-04-21T15:27:25.154+03:00,766931273.6357998,0,-43.9,100.2611,1,0.4,2025-04-21T15:26:28.730+03:00,90,1.5,2025-04-21T12:30:07.995+03:00,0.02023345852159405,0
2025-04-21T15:27:55.159+03:00,1745238473.757574,40.95228509088264,29.14029757623211,76.50295,-1,-1,-1,-1,30,26.32010262020495,-9999,18637.756289125,-0.6025543212890625,0.806121826171875,-0.5561676025390625,18637.751251125,2.651954031134834,-0.8977027762868389,-0.7317129941316993,-1.130754113197327,-0.5454064607620239,0.7172673344612122,0.04875063896179199,-0.06086081266403198,-0.1293050348758698,XArbitraryZVertical,0.3150070036269613,-0.4109176045641933,0.8538589596834355,0.05331027717953674,-0.5817553400993347,0.6681451201438904,-0.4638346135616302,0,0,0,-1,-1,18632.579920125,unknown,2,2025-04-21T15:27:14.835+03:00,2025-04-20T21:57:49.637+03:00,6713,0.9734122,0,0,5510.912,5,6,2025-04-21T15:27:25.154+03:00,766931273.6357998,0,-43.9,100.2611,1,0.4,2025-04-21T15:26:28.730+03:00,90,1.5,2025-04-21T12:30:07.995+03:00,0.02023345852159405,0
2025-04-21T15:27:55.169+03:00,1745238473.757574,40.95228509088264,29.14029757623211,76.50295,-1,-1,-1,-1,30,26.32010262020495,-9999,18637.766366125,-0.6205902099609375,0.891510009765625,-0.56207275390625,18637.761327125,2.6474655059531,-0.9067373307836661,-0.7433243509313952,-0.8498154878616333,-0.6432167887687683,0.6809249520301819,-0.004302620887756348,0.07849448919296265,-0.106341540813446,XArbitraryZVertical,0.3158579825186538,-0.4163651106909338,0.851065631384346,0.05060654397497705,-0.5797733664512634,0.6767390966415405,-0.4537476599216461,0,0,0,-1,-1,18632.579920125,unknown,2,2025-04-21T15:27:14.835+03:00,2025-04-20T21:57:49.637+03:00,6713,0.9734122,0,0,5510.912,5,6,2025-04-21T15:27:25.154+03:00,766931273.6357998,0,-43.9,100.2611,1,0.4,2025-04-21T15:26:28.730+03:00,90,1.5,2025-04-21T12:30:07.995+03:00,0.02023345852159405,0
2025-04-21T15:27:55.179+03:00,1745238473.757574,40.95228509088264,29.14029757623211,76.50295,-1,-1,-1,-1,30,26.32010262020495,-9999,18637.776442125,-0.60394287109375,0.826171875,-0.59765625,18637.771404125,2.644354422786759,-0.9159478115858155,-0.7537699568547176,-0.7814955711364746,-0.727975070476532,0.7076194286346436,-0.04098844528198242,0.1883034706115723,-0.1111932992935181,XArbitraryZVertical,0.3172343498789597,-0.4211091500447101,0.8483941892375582,0.0475055220786499,-0.5782895684242249,0.6843923330307007,-0.444058895111084,0,0,0,-1,-1,18632.579920125,unknown,2,2025-04-21T15:27:14.835+03:00,2025-04-20T21:57:49.637+03:00,6713,0.9734122,0,0,5510.912,5,6,2025-04-21T15:27:25.154+03:00,766931273.6357998,0,-43.9,100.2611,1,0.4,2025-04-21T15:26:28.730+03:00,90,1.5,2025-04-21T12:30:07.995+03:00,0.02023345852159405,0
2025-04-21T15:27:55.189+03:00,1745238473.757574,40.95228509088264,29.14029757623211,76.50295,-1,-1,-1,-1,30,26.32010262020495,-9999,18637.786518125,-0.557220458984375,0.705841064453125,-0.6135711669921875,18637.781480125,2.641435511431332,-0.9258650309544449,-0.764803697765512,-0.8673124313354492,-0.8241267800331116,0.7568261623382568,-0.03885316848754883,0.1768061518669128,-0.1509808301925659,XArbitraryZVertical,0.3188027994860557,-0.4260243663383318,0.8455373851029158,0.04398280253587766,-0.5765948891639709,0.6923953890800476,-0.4337360262870789,0,0,0,-1,-1,18632.579920125,unknown,2,2025-04-21T15:27:14.835+03:00,2025-04-20T21:57:49.637+03:00,6713,0.9734122,0,0,5510.912,5,6,2025-04-21T15:27:25.154+03:00,766931273.6357998,0,-43.9,100.2611,1,0.4,2025-04-21T15:26:28.730+03:00,90,1.5,2025-04-21T12:30:07.995+03:00,0.02023345852159405,0
2025-04-21T15:27:55.199+03:00,1745238473.757574,40.95228509088264,29.14029757623211,76.50295,-1,-1,-1,-1,30,26.32010262020495,-9999,18637.796594125,-0.5441436767578125,0.6697845458984375,-0.587249755859375,18637.791556125,2.637288555707989,-0.9370713199599359,-0.7758940252766383,-0.9195727109909058,-0.811231791973114,0.6495769619941711,-0.0001981258392333984,0.04297721385955811,-0.1900730729103088,XArbitraryZVertical,0.3205959236593806,-0.4311394020605683,0.8424285255671261,0.04063332308934802,-0.5751955509185791,0.7003545165061951,-0.422674149274826,0,0,0,-1,-1,18632.579920125,unknown,2,2025-04-21T15:27:14.835+03:00,2025-04-20T21:57:49.637+03:00,6713,0.9734122,0,0,5510.912,5,6,2025-04-21T15:27:25.154+03:00,766931273.6357998,0,-43.9,100.2611,1,0.4,2025-04-21T15:26:28.730+03:00,90,1.5,2025-04-21T12:30:07.995+03:00,0.02023345852159405,0
2025-04-21T15:27:55.209+03:00,1745238473.757574,40.95228509088264,29.14029757623211,76.50295,-1,-1,-1,-1,30,26.32010262020495,-9999,18637.806670125,-0.5837860107421875,0.717132568359375,-0.541015625,18637.801632125,2.630416438403681,-0.950266940351429,-0.7867631115011605,-1.187674999237061,-0.8760249018669128,0.5352979302406311,0.03448700904846191,-0.03621166944503784,-0.1877766251564026,XArbitraryZVertical,0.3226171930388761,-0.4366001727294612,0.8389609270185765,0.03798570810914032,-0.5744955539703369,0.7080712914466858,-0.4105968773365021,0,0,0,-1,-1,18632.579920125,unknown,2,2025-04-21T15:27:14.835+03:00,2025-04-20T21:57:49.637+03:00,6713,0.9734122,0,0,5510.912,5,6,2025-04-21T15:27:25.154+03:00,766931273.6357998,0,-43.9,100.2611,1,0.4,2025-04-21T15:26:28.730+03:00,90,1.5,2025-04-21T12:30:07.995+03:00,0.02023345852159405,0
2025-04-21T15:27:55.220+03:00,1745238473.757574,40.95228509088264,29.14029757623211,76.50295,-1,-1,-1,-1,30,26.32010262020495,-9999,18637.816747125,-0.5561065673828125,0.745697021484375,-0.4066009521484375,18637.811708125,2.618510707511961,-0.9677609044647925,-0.7987621401454772,-1.4787278175354,-0.8758499622344971,0.4576670229434967,0.004482626914978027,-0.02261507511138916,-0.169151782989502,XArbitraryZVertical,0.3250287170788373,-0.4433258116525495,0.8345738764199887,0.03612475576650694,-0.5745510458946228,0.7164931297302246,-0.3956371247768402,0,0,0,-1,-1,18632.579920125,unknown,2,2025-04-21T15:27:14.835+03:00,2025-04-20T21:57:49.637+03:00,6713,0.9734122,0,0,5510.912,5,6,2025-04-21T15:27:25.154+03:00,766931273.6357998,0,-43.9,100.2611,1,0.4,2025-04-21T15:26:28.730+03:00,90,1.5,2025-04-21T12:30:07.995+03:00,0.02023345852159405,0
2025-04-21T15:27:55.230+03:00,1745238473.757574,40.95228509088264,29.14029757623211,76.50295,-1,-1,-1,-1,30,26.32010262020495,-9999,18637.826823125,-0.521087646484375,0.7263946533203125,-0.311248779296875,18637.821785125,2.603083137619878,-0.9878472766200646,-0.8113307766175345,-1.67128849029541,-0.8899333477020264,0.4297589361667633,-0.00344473123550415,0.0206911563873291,-0.08546298742294312,XArbitraryZVertical,0.3274824171898575,-0.4508218289316949,0.8296381778906625,0.03486278815320028,-0.5748176574707031,0.7252041101455688,-0.3790298998355865,0,0,0,-1,-1,18632.579920125,unknown,2,2025-04-21T15:27:14.835+03:00,2025-04-20T21:57:49.637+03:00,6713,0.9734122,0,0,5510.912,5,6,2025-04-21T15:27:25.154+03:00,766931273.6357998,0,-43.9,100.2611,1,0.4,2025-04-21T15:26:28.730+03:00,90,1.5,2025-04-21T12:30:07.995+03:00,0.02023345852159405,0
2025-04-21T15:27:55.240+03:00,1745238473.757574,40.95228509088264,29.14029757623211,76.50295,-1,-1,-1,-1,30,26.32010262020495,-9999,18637.836899125,-0.5654296875,0.7727508544921875,-0.262542724609375,18637.831861125,2.585957043901097,-1.00899204718599,-0.8238074803768974,-1.62651252746582,-0.8297203779220581,0.4011232852935791,0.05276834964752197,-0.005466759204864502,0.02583771944046021,XArbitraryZVertical,0.3298325953714834,-0.4585181438916195,0.8245128838309678,0.03391139458548091,-0.5750004053115845,0.7337380647659302,-0.3619431555271149,0,0,0,-1,-1,18632.579920125,unknown,2,2025-04-21T15:27:14.835+03:00,2025-04-20T21:57:49.637+03:00,6713,0.9734122,0,0,5510.912,5,6,2025-04-21T15:27:25.154+03:00,766931273.6357998,0,-43.9,100.2611,1,0.4,2025-04-21T15:26:28.730+03:00,90,1.5,2025-04-21T12:30:07.995+03:00,0.02023345852159405,0
2025-04-21T15:27:55.250+03:00,1745238473.757574,40.95228509088264,29.14029757623211,76.50295,-1,-1,-1,-1,30,26.32010262020495,-9999,18637.846975125,-0.59783935546875,0.838134765625,-0.2515869140625,18637.841937125,2.569505742394323,-1.029655914757602,-0.8350192579523713,-1.396315693855286,-0.8390683531761169,0.3519526422023773,0.02985846996307373,0.007881641387939453,0.06912931799888611,XArbitraryZVertical,0.3322209921744138,-0.4655818854329209,0.819620072205017,0.03294656347660704,-0.5752686262130737,0.7413094639778137,-0.3457254469394684,0,0,0,-1,-1,18632.579920125,unknown,2,2025-04-21T15:27:14.835+03:00,2025-04-20T21:57:49.637+03:00,6713,0.9734122,0,0,5510.912,5,6,2025-04-21T15:27:25.154+03:00,766931273.6357998,0,-43.9,100.2611,1,0.4,2025-04-21T15:26:28.730+03:00,90,1.5,2025-04-21T12:30:07.995+03:00,0.02023345852159405,0
2025-04-21T15:27:55.260+03:00,1745238473.757574,40.95228509088264,29.14029757623211,76.50295,-1,-1,-1,-1,30,26.32010262020495,-9999,18637.857051125,-0.5911102294921875,0.8697357177734375,-0.25238037109375,18637.852013125,2.555385781494409,-1.048563154054484,-0.8445529959485977,-1.180290937423706,-0.8415728211402893,0.2983927428722382,-0.01526987552642822,0.06629031896591187,0.07831734418869019,XArbitraryZVertical,0.334636881616262,-0.4715873430123741,0.8152400451476419,0.03173503564342887,-0.5755504369735718,0.7476743459701538,-0.3312470614910126,0,0,0,-1,-1,18632.579920125,unknown,2,2025-04-21T15:27:14.835+03:00,2025-04-20T21:57:49.637+03:00,6713,0.9734122,0,0,5510.912,5,6,2025-04-21T15:27:25.154+03:00,766931273.6357998,0,-43.9,100.2611,1,0.4,2025-04-21T15:26:28.730+03:00,90,1.5,2025-04-21T12:30:07.995+03:00,0.02023345852159405,0
2025-04-21T15:27:55.270+03:00,1745238473.757574,40.95228509088264,29.14029757623211,76.50295,-1,-1,-1,-1,30,26.32010262020495,-9999,18637.867128125,-0.577362060546875,0.8396148681640625,-0.2377777099609375,18637.862090125,2.54242020781525,-1.066470970840413,-0.8527055131130666,-1.102631568908691,-0.7797345519065857,0.261092871427536,-0.02049314975738525,0.1126744747161865,0.06744328141212463,XArbitraryZVertical,0.3370977020164481,-0.4768640675229976,0.8111921301254083,0.03054531504918911,-0.5760339498519897,0.7530632615089417,-0.317931592464447,0,0,0,-1,-1,18632.579920125,unknown,2,2025-04-21T15:27:14.835+03:00,2025-04-20T21:57:49.637+03:00,6713,0.9734122,0,0,5510.912,5,6,2025-04-21T15:27:25.154+03:00,766931273.6357998,0,-43.9,100.2611,1,0.4,2025-04-21T15:26:28.730+03:00,90,1.5,2025-04-21T12:30:07.995+03:00,0.02023345852159405,0
2025-04-21T15:27:55.293+03:00,1745238473.757574,40.95228509088264,29.14029757623211,76.50295,-1,-1,-1,-1,30,26.32010262020495,-9999,18637.877204125,-0.5750732421875,0.77716064453125,-0.1738128662109375,18637.872166125,2.528629472799535,-1.084532062789457,-0.8603634767805131,-1.191718816757202,-0.7257072329521179,0.2454017996788025,-0.004625678062438965,0.0985332727432251,0.05503180623054504,XArbitraryZVertical,0.3394287724276472,-0.4820807900226914,0.8071585081635679,0.02968452517267145,-0.5765663385391235,0.7580796480178833,-0.3047724366188049,0,0,0,-1,-1,18632.579920125,unknown,2,2025-04-21T15:27:14.835+03:00,2025-04-20T21:57:49.637+03:00,6713,0.9734122,0,0,5510.912,5,6,2025-04-21T15:27:25.154+03:00,766931273.6357998,0,-43.9,100.2611,1,0.4,2025-04-21T15:26:28.730+03:00,90,1.5,2025-04-21T12:30:07.995+03:00,0.02023345852159405,0
2025-04-21T15:27:55.296+03:00,1745238473.757574,40.95228509088264,29.14029757623211,76.50295,-1,-1,-1,-1,30,26.32010262020495,-9999,18637.887280125,-0.57623291015625,0.7414398193359375,-0.1126861572265625,18637.882242125,2.513736583155207,-1.10272882526561,-0.8681280500229963,-1.222583889961243,-0.6585112810134888,0.2435356825590134,0.003473222255706787,0.03666871786117554,0.09044036269187927,XArbitraryZVertical,0.3414198012425386,-0.4874928514509495,0.8030792634654598,0.02909949070378604,-0.5767459273338318,0.7631205320358276,-0.2915664911270142,0,0,0,-1,-1,18632.579920125,unknown,2,2025-04-21T15:27:14.835+03:00,2025-04-20T21:57:49.637+03:00,6713,0.9734122,0,0,5510.912,5,6,2025-04-21T15:27:25.154+03:00,766931273.6357998,0,-43.9,100.2611,1,0.4,2025-04-21T15:26:28.730+03:00,90,1.5,2025-04-21T12:30:07.995+03:00,0.02023345852159405,0
2025-04-21T15:27:55.300+03:00,1745238473.757574,40.95228509088264,29.14029757623211,76.50295,-1,-1,-1,-1,30,26.32010262020495,-9999,18637.897356125,-0.5716705322265625,0.7419891357421875,-0.11895751953125,18637.892318125,2.499571771256246,-1.119647376306395,-0.875820614538976,-1.067340493202209,-0.5653858184814453,0.3031178116798401,-0.0008830428123474121,-0.01852720975875854,0.1502781808376312,XArbitraryZVertical,0.3429873724504549,-0.4927066003326332,0.7992436043561503,0.02844994417317505,-0.5762958526611328,0.7680692672729492,-0.2791997492313385,0,0,0,-1,-1,18632.579920125,unknown,2,2025-04-21T15:27:14.835+03:00,2025-04-20T21:57:49.637+03:00,6713,0.9734122,0,0,5510.912,5,6,2025-04-21T15:27:25.154+03:00,766931273.6357998,0,-43.9,100.2611,1,0.4,2025-04-21T15:26:28.730+03:00,90,1.5,2025-04-21T12:30:07.995+03:00,0.02023345852159405,0
2025-04-21T15:27:55.310+03:00,1745238473.757574,40.95228509088264,29.14029757623211,76.50295,-1,-1,-1,-1,30,26.32010262020495,-9999,18637.907432125,-0.5672454833984375,0.7240142822265625,-0.1475067138671875,18637.902394125,2.487680135194218,-1.134287467470741,-0.8830445910729403,-0.9021366238594055,-0.5221182107925415,0.3381265699863434,0.001074612140655518,-0.03308182954788208,0.1588678359985352,XArbitraryZVertical,0.344224182033464,-0.4973123618023952,0.7958855127406282,0.0274998688699969,-0.575278103351593,0.7726751565933228,-0.2683802545070648,0,0,0,-1,-1,18632.579920125,unknown,2,2025-04-21T15:27:14.835+03:00,2025-04-20T21:57:49.637+03:00,6713,0.9734122,0,0,5510.912,5,6,2025-04-21T15:27:25.154+03:00,766931273.6357998,0,-43.9,100.2611,1,0.4,2025-04-21T15:26:28.730+03:00,90,1.5,2025-04-21T12:30:07.995+03:00,0.02023345852159405,0
2025-04-21T15:27:55.320+03:00,1745238473.757574,40.95228509088264,29.14029757623211,76.50295,-1,-1,-1,-1,30,26.32010262020495,-9999,18637.917509125,-0.559417724609375,0.657196044921875,-0.10955810546875,18637.912471125,2.478050025259512,-1.146746712453292,-0.8898858197236196,-0.7738332152366638,-0.4865532517433167,0.3823387622833252,0.005905270576477051,-0.0399395227432251,0.1159597933292389,XArbitraryZVertical,0.3451782141664119,-0.5013446865919363,0.7929798304915266,0.02623655320239363,-0.5737458467483521,0.7769998908042908,-0.2590110003948212,0,0,0,-1,-1,18632.579920125,unknown,2,2025-04-21T15:27:14.835+03:00,2025-04-20T21:57:49.637+03:00,6713,0.9734122,0,0,5510.912,5,6,2025-04-21T15:27:25.154+03:00,766931273.6357998,0,-43.9,100.2611,1,0.4,2025-04-21T15:26:28.730+03:00,90,1.5,2025-04-21T12:30:07.995+03:00,0.02023345852159405,0
2025-04-21T15:27:55.330+03:00,1745238473.757574,40.95228509088264,29.14029757623211,76.50295,-1,-1,-1,-1,30,26.32010262020495,-9999,18637.927585125,-0.547821044921875,0.6380767822265625,-0.057586669921875,18637.922547125,2.470007116113005,-1.157802387158583,-0.8964855973135115,-0.6766692996025085,-0.4663027226924896,0.4111949503421783,0.007976293563842773,-0.09824579954147339,0.1215143799781799,XArbitraryZVertical,0.3459797437998642,-0.5049789562231646,0.7903691019071033,0.02471537653469557,-0.571864902973175,0.7811374664306641,-0.2505885362625122,0,0,0,-1,-1,18632.579920125,unknown,2,2025-04-21T15:27:14.835+03:00,2025-04-20T21:57:49.637+03:00,6713,0.9734122,0,0,5510.912,5,6,2025-04-21T15:27:25.154+03:00,766931273.6357998,0,-43.9,100.2611,1,0.4,2025-04-21T15:26:28.730+03:00,90,1.5,2025-04-21T12:30:07.995+03:00,0.02023345852159405,0
2025-04-21T15:27:55.340+03:00,1745238473.757574,40.95228509088264,29.14029757623211,76.50295,-1,-1,-1,-1,30,26.32010262020495,-9999,18637.937661125,-0.5367279052734375,0.6685028076171875,-0.0464630126953125,18637.932623125,2.46244901929755,-1.168422637234441,-0.9031015644340605,-0.7230967283248901,-0.4645785987377167,0.4283965826034546,0.01903647184371948,-0.1496767997741699,0.1688025295734406,XArbitraryZVertical,0.3466847043372562,-0.5085013915827782,0.7878477657265771,0.0230645713979258,-0.569726288318634,0.7852510809898376,-0.2424720972776413,0,0,0,-1,-1,18632.579920125,unknown,2,2025-04-21T15:27:14.835+03:00,2025-04-20T21:57:49.637+03:00,6713,0.9734122,0,0,5510.912,5,6,2025-04-21T15:27:25.154+03:00,766931273.6357998,0,-43.9,100.2611,1,0.4,2025-04-21T15:26:28.730+03:00,90,1.5,2025-04-21T12:30:07.995+03:00,0.02023345852159405,0
2025-04-21T15:27:55.350+03:00,1745238473.757574,40.95228509088264,29.14029757623211,76.50295,-1,-1,-1,-1,30,26.32010262020495,-9999,18637.947737125,-0.5047149658203125,0.6713409423828125,-0.060272216796875,18637.942699125,2.452817793524252,-1.180663383938237,-0.9103949538124457,-0.9379158616065979,-0.4566514790058136,0.4585320949554443,0.02566754817962646,-0.1328859925270081,0.1869700253009796,XArbitraryZVertical,0.3472903642894154,-0.5125831740816464,0.7849728962066601,0.02156944105183349,-0.567339301109314,0.789746105670929,-0.2332957834005356,0,0,0,-1,-1,18632.579920125,unknown,2,2025-04-21T15:27:14.835+03:00,2025-04-20T21:57:49.637+03:00,6713,0.9734122,0,0,5510.912,5,6,2025-04-21T15:27:25.154+03:00,766931273.6357998,0,-43.9,100.2611,1,0.4,2025-04-21T15:26:28.730+03:00,90,1.5,2025-04-21T12:30:07.995+03:00,0.02023345852159405,0
2025-04-21T15:27:55.361+03:00,1745238473.757574,40.95228509088264,29.14029757623211,76.50295,-1,-1,-1,-1,30,26.32010262020495,-9999,18637.957814125,-0.4579010009765625,0.675048828125,-0.078460693359375,18637.952775125,2.440179094120239,-1.195257569872659,-0.9186879653720288,-1.067034482955933,-0.4584616422653198,0.4825854897499084,0.04473459720611572,-0.1199253797531128,0.169465571641922,XArbitraryZVertical,0.3477379045723968,-0.5174819692246462,0.7815874872942296,0.0202865224853482,-0.5645710229873657,0.7948060631752014,-0.2225815206766129,0,0,0,-1,-1,18632.579920125,unknown,2,2025-04-21T15:27:14.835+03:00,2025-04-20T21:57:49.637+03:00,6713,0.9734122,0,0,5510.912,5,6,2025-04-21T15:27:25.154+03:00,766931273.6357998,0,-43.9,100.2611,1,0.4,2025-04-21T15:26:28.730+03:00,90,1.5,2025-04-21T12:30:07.995+03:00,0.02023345852159405,0
2025-04-21T15:27:55.371+03:00,1745238473.757574,40.95228509088264,29.14029757623211,76.50295,-1,-1,-1,-1,30,26.32010262020495,-9999,18637.967890125,-0.4393310546875,0.73876953125,-0.1020050048828125,18637.962852125,2.426544032487695,-1.210873900221744,-0.92683004466746,-1.024222612380981,-0.4967100322246552,0.4405038058757782,0.08707970380783081,-0.1302109360694885,0.1389879286289215,XArbitraryZVertical,0.3482775882801198,-0.5224717161360755,0.7780499088478481,0.01909013560287701,-0.5619028210639954,0.799720823764801,-0.2114520519971848,0,0,0,-1,-1,18632.579920125,unknown,2,2025-04-21T15:27:14.835+03:00,2025-04-20T21:57:49.637+03:00,6713,0.9734122,0,0,5510.912,5,6,2025-04-21T15:27:25.154+03:00,766931273.6357998,0,-43.9,100.2611,1,0.4,2025-04-21T15:26:28.730+03:00,90,1.5,2025-04-21T12:30:07.995+03:00,0.02023345852159405,0
2025-04-21T15:27:55.381+03:00,1745238473.757574,40.95228509088264,29.14029757623211,76.50295,-1,-1,-1,-1,30,26.32010262020495,-9999,18637.977966125,-0.436981201171875,0.8431396484375,-0.1452789306640625,18637.972928125,2.414169470306683,-1.226054336039996,-0.9339697197736124,-0.8306610584259033,-0.5460075736045837,0.3806649744510651,0.1190007925033569,-0.09849703311920166,0.1111498773097992,XArbitraryZVertical,0.349143505244577,-0.5268939402900898,0.7747042616043663,0.01773928187233985,-0.5596593618392944,0.8039868474006653,-0.2009631842374802,0,0,0,-1,-1,18632.579920125,unknown,2,2025-04-21T15:27:14.835+03:00,2025-04-20T21:57:49.637+03:00,6713,0.9734122,0,0,5510.912,5,6,2025-04-21T15:27:25.154+03:00,766931273.6357998,0,-43.9,100.2611,1,0.4,2025-04-21T15:26:28.730+03:00,90,1.5,2025-04-21T12:30:07.995+03:00,0.02023345852159405,0
2025-04-21T15:27:55.391+03:00,1745238473.757574,40.95228509088264,29.14029757623211,76.50295,-1,-1,-1,-1,30,26.32010262020495,-9999,18637.988042125,-0.4237213134765625,0.8806304931640625,-0.1662139892578125,18637.983004125,2.404220873473221,-1.239719173636404,-0.9397638841655385,-0.6565957069396973,-0.5688434243202209,0.310007631778717,0.1177528500556946,-0.0009310245513916016,0.06381924450397491,XArbitraryZVertical,0.3503354756622009,-0.5304482059281896,0.7717689398173558,0.01619601812979619,-0.5579383969306946,0.8074188232421875,-0.1917795091867447,0,0,0,-1,-1,18632.579920125,unknown,2,2025-04-21T15:27:14.835+03:00,2025-04-20T21:57:49.637+03:00,6713,0.9734122,0,0,5510.912,5,6,2025-04-21T15:27:25.154+03:00,766931273.6357998,0,-43.9,100.2611,1,0.4,2025-04-21T15:26:28.730+03:00,90,1.5,2025-04-21T12:30:07.995+03:00,0.02023345852159405,0
2025-04-21T15:27:55.401+03:00,1745238473.757574,40.95228509088264,29.14029757623211,76.50295,-1,-1,-1,-1,30,26.32010262020495,-9999,18637.998118125,-0.441619873046875,0.86651611328125,-0.153106689453125,18637.993080125,2.396034900933875,-1.251905262547802,-0.944461702809069,-0.5532562732696533,-0.5324191451072693,0.2860144078731537,0.130280077457428,0.06617629528045654,0.01898010075092316,XArbitraryZVertical,0.3516574888302969,-0.5333380225828479,0.7692025746634159,0.0146569431483426,-0.5566259026527405,0.8101814985275269,-0.1837751269340515,0,0,0,-1,-1,18632.579920125,unknown,2,2025-04-21T15:27:14.835+03:00,2025-04-20T21:57:49.637+03:00,6713,0.9734122,0,0,5510.912,5,6,2025-04-21T15:27:25.154+03:00,766931273.6357998,0,-43.9,100.2611,1,0.4,2025-04-21T15:26:28.730+03:00,90,1.5,2025-04-21T12:30:07.995+03:00,0.02023345852159405,0
2025-04-21T15:27:55.411+03:00,1745238473.757574,40.95228509088264,29.14029757623211,76.50295,-1,-1,-1,-1,30,26.32010262020495,-9999,18638.008195125,-0.4633636474609375,0.85498046875,-0.12701416015625,18638.003157125,2.388981897245605,-1.262927999475623,-0.9486563103047733,-0.4879160225391388,-0.5166965126991272,0.2511962950229645,0.1240999102592468,0.061878502368927,0.01769213378429413,XArbitraryZVertical,0.3529295751261066,-0.5358564123431894,0.7668941465079611,0.01311468845642489,-0.5553744435310364,0.8126331567764282,-0.1765972375869751,0,0,0,-1,-1,18632.579920125,unknown,2,2025-04-21T15:27:14.835+03:00,2025-04-20T21:57:49.637+03:00,6713,0.9734122,0,0,5510.912,5,6,2025-04-21T15:27:25.154+03:00,766931273.6357998,0,-43.9,100.2611,1,0.4,2025-04-21T15:26:28.730+03:00,90,1.5,2025-04-21T12:30:07.995+03:00,0.02023345852159405,0
2025-04-21T15:27:55.421+03:00,1745238473.757574,40.95228509088264,29.14029757623211,76.50295,-1,-1,-1,-1,30,26.32010262020495,-9999,18638.018271125,-0.4875946044921875,0.8681488037109375,-0.074676513671875,18638.013233125,2.382558809151333,-1.273323307754827,-0.9523273418538311,-0.4423733055591583,-0.5170981287956238,0.2162657529115677,0.09762841463088989,0.04048782587051392,0.0289781242609024,XArbitraryZVertical,0.3542379944865593,-0.5380947842666015,0.7647443346958211,0.01163455035244567,-0.5543239712715149,0.814767062664032,-0.1699388921260834,0,0,0,-1,-1,18632.579920125,unknown,2,2025-04-21T15:27:14.835+03:00,2025-04-20T21:57:49.637+03:00,6713,0.9734122,0,0,5510.912,5,6,2025-04-21T15:27:25.154+03:00,766931273.6357998,0,-43.9,100.2611,1,0.4,2025-04-21T15:26:28.730+03:00,90,1.5,2025-04-21T12:30:07.995+03:00,0.02023345852159405,0
2025-04-21T15:27:55.431+03:00,1745238473.757574,40.95228509088264,29.14029757623211,76.50295,-1,-1,-1,-1,30,26.32010262020495,-9999,18638.028347125,-0.5077972412109375,0.874847412109375,-0.036041259765625,18638.023309125,2.376284776018045,-1.28356011796079,-0.955521550756717,-0.4323438704013824,-0.4925878047943115,0.1953005343675613,0.0760425329208374,0.04643726348876953,0.06950797140598297,XArbitraryZVertical,0.3556261348146577,-0.5401586192815745,0.7626618775409814,0.01026624746569365,-0.5535358190536499,0.8166148662567139,-0.1635174304246902,0,0,0,-1,-1,18632.579920125,unknown,2,2025-04-21T15:27:14.835+03:00,2025-04-20T21:57:49.637+03:00,6713,0.9734122,0,0,5510.912,5,6,2025-04-21T15:27:25.154+03:00,766931273.6357998,0,-43.9,100.2611,1,0.4,2025-04-21T15:26:28.730+03:00,90,1.5,2025-04-21T12:30:07.995+03:00,0.02023345852159405,0
2025-04-21T15:27:55.441+03:00,1745238473.757574,40.95228509088264,29.14029757623211,76.50295,-1,-1,-1,-1,30,26.32010262020495,-9999,18638.038423125,-0.530914306640625,0.855072021484375,-0.0147705078125,18638.033385125,2.369875216369258,-1.293794525859206,-0.9587162033942972,-0.4560404121875763,-0.4969987869262695,0.1821453124284744,0.05205780267715454,0.0565146803855896,0.1096289306879044,XArbitraryZVertical,0.3569545096527639,-0.5422348752259706,0.7605819972053537,0.00892768982024794,-0.5526681542396545,0.8184546232223511,-0.157129630446434,0,0,0,-1,-1,18632.579920125,unknown,2,2025-04-21T15:27:14.835+03:00,2025-04-20T21:57:49.637+03:00,6713,0.9734122,0,0,5510.912,5,6,2025-04-21T15:27:25.154+03:00,766931273.6357998,0,-43.9,100.2611,1,0.4,2025-04-21T15:26:28.730+03:00,90,1.5,2025-04-21T12:30:07.995+03:00,0.02023345852159405,0
2025-04-21T15:27:55.451+03:00,1745238473.757574,40.95228509088264,29.14029757623211,76.50295,-1,-1,-1,-1,30,26.32010262020495,-9999,18638.048499125,-0.569854736328125,0.8191070556640625,0.005889892578125,18638.043461125,2.363081175541959,-1.304136188759815,-0.9615873005843529,-0.4419011175632477,-0.4595847427845001,0.1738559901714325,0.03176134824752808,0.04484337568283081,0.1277908831834793,XArbitraryZVertical,0.3582820640261107,-0.5442802279768086,0.7585065831966672,0.007786305911847439,-0.5519945025444031,0.8201009035110474,-0.1507859975099564,0,0,0,-1,-1,18632.579920125,unknown,2,2025-04-21T15:27:14.835+03:00,2025-04-20T21:57:49.637+03:00,6713,0.9734122,0,0,5510.912,5,6,2025-04-21T15:27:25.154+03:00,766931273.6357998,0,-43.9,100.2611,1,0.4,2025-04-21T15:26:28.730+03:00,90,1.5,2025-04-21T12:30:07.995+03:00,0.02023345852159405,0
2025-04-21T15:27:55.461+03:00,1745238473.757574,40.95228509088264,29.14029757623211,76.50295,-1,-1,-1,-1,30,26.32010262020495,-9999,18638.058576125,-0.5996551513671875,0.8142547607421875,-0.014007568359375,18638.053538125,2.356688847121289,-1.313978616764636,-0.9642332567899423,-0.3829349875450134,-0.4450755715370178,0.1370889246463776,-0.003092169761657715,0.01348602771759033,0.147037148475647,XArbitraryZVertical,0.3595680771073298,-0.5461810318533469,0.7565397646075459,0.00667920841561441,-0.5513511896133423,0.8216120600700378,-0.1447941511869431,0,0,0,-1,-1,18632.579920125,unknown,2,2025-04-21T15:27:14.835+03:00,2025-04-20T21:57:49.637+03:00,6713,0.9734122,0,0,5510.912,5,6,2025-04-21T15:27:25.154+03:00,766931273.6357998,0,-43.9,100.2611,1,0.4,2025-04-21T15:26:28.730+03:00,90,1.5,2025-04-21T12:30:07.995+03:00,0.02023345852159405,0
2025-04-21T15:27:55.471+03:00,1745238473.757574,40.95228509088264,29.14029757623211,76.50295,-1,-1,-1,-1,30,26.32010262020495,-9999,18638.068652125,-0.61505126953125,0.862945556640625,-0.011383056640625,18638.063614125,2.35170352083997,-1.322467890273318,-0.9663779997880564,-0.2759111225605011,-0.430129200220108,0.1306783854961395,-0.03977090120315552,-0.01695531606674194,0.1351277381181717,XArbitraryZVertical,0.3608429165960846,-0.54768139401896,0.7548552840946793,0.005553104076414508,-0.550851047039032,0.8228327631950378,-0.139674961566925,0,0,0,-1,-1,18632.579920125,unknown,2,2025-04-21T15:27:14.835+03:00,2025-04-20T21:57:49.637+03:00,6713,0.9734122,0,0,5510.912,5,6,2025-04-21T15:27:25.154+03:00,766931273.6357998,0,-43.9,100.2611,1,0.4,2025-04-21T15:26:28.730+03:00,90,1.5,2025-04-21T12:30:07.995+03:00,0.02023345852159405,0
2025-04-21T15:27:55.481+03:00,1745238473.757574,40.95228509088264,29.14029757623211,76.50295,-1,-1,-1,-1,30,26.32010262020495,-9999,18638.078728125,-0.5999298095703125,0.8989105224609375,0.0089111328125,18638.073690125,2.347767094076021,-1.329946201331202,-0.967955141645658,-0.2417662292718887,-0.4039657711982727,0.07074820250272751,-0.06208229064941406,0.02050995826721191,0.1182893663644791,XArbitraryZVertical,0.3621632122460001,-0.5488322565152515,0.7533927898869417,0.004479330939741591,-0.5506191253662109,0.8237280249595642,-0.1352419257164001,0,0,0,-1,-1,18632.579920125,unknown,2,2025-04-21T15:27:14.835+03:00,2025-04-20T21:57:49.637+03:00,6713,0.9734122,0,0,5510.912,5,6,2025-04-21T15:27:25.154+03:00,766931273.6357998,0,-43.9,100.2611,1,0.4,2025-04-21T15:26:28.730+03:00,90,1.5,2025-04-21T12:30:07.995+03:00,0.02023345852159405,0
2025-04-21T15:27:55.492+03:00,1745238473.757574,40.95228509088264,29.14029757623211,76.50295,-1,-1,-1,-1,30,26.32010262020495,-9999,18638.088804125,-0.5873260498046875,0.8913726806640625,-0.005828857421875,18638.083766125,2.343978332208504,-1.336956276863693,-0.9689518455699058,-0.2250174731016159,-0.3728058636188507,0.02417903952300549,-0.05640751123428345,0.06497418880462646,0.133477196097374,XArbitraryZVertical,0.3634942624275729,-0.5497978315861471,0.7520511456061117,0.003658158256140074,-0.5507550239562988,0.8242927193641663,-0.1311885267496109,0,0,0,-1,-1,18632.579920125,unknown,2,2025-04-21T15:27:14.835+03:00,2025-04-20T21:57:49.637+03:00,6713,0.9734122,0,0,5510.912,5,6,2025-04-21T15:27:25.154+03:00,766931273.6357998,0,-43.9,100.2611,1,0.4,2025-04-21T15:26:28.730+03:00,90,1.5,2025-04-21T12:30:07.995+03:00,0.02023345852159405,0
2025-04-21T15:27:55.502+03:00,1745238473.757574,40.95228509088264,29.14029757623211,76.50295,-1,-1,-1,-1,30,26.32010262020495,-9999,18638.098881125,-0.5880279541015625,0.8654937744140625,-0.0181427001953125,18638.093842125,2.339889168400528,-1.343834057881742,-0.9695867915041332,-0.228562667965889,-0.3185085356235504,-0.01142529398202896,-0.04043400287628174,0.07462453842163086,0.1321775913238525,XArbitraryZVertical,0.3647829401798895,-0.5507209693594683,0.7507530467049185,0.003096135616430145,-0.5511340498924255,0.8246520757675171,-0.1272796392440796,0,0,0,-1,-1,18632.579920125,unknown,2,2025-04-21T15:27:14.835+03:00,2025-04-20T21:57:49.637+03:00,6713,0.9734122,0,0,5510.912,5,6,2025-04-21T15:27:25.154+03:00,766931273.6357998,0,-43.9,100.2611,1,0.4,2025-04-21T15:26:28.730+03:00,90,1.5,2025-04-21T12:30:07.995+03:00,0.02023345852159405,0
2025-04-21T15:27:55.512+03:00,1745238473.757574,40.95228509088264,29.14029757623211,76.50295,-1,-1,-1,-1,30,26.32010262020495,-9999,18638.108957125,-0.6089935302734375,0.8780364990234375,0.0612640380859375,18638.103919125,2.336559699140422,-1.349364027477284,-0.9694639245686043,-0.107158474624157,-0.231421023607254,-0.1048102378845215,-0.03217816352844238,0.04852521419525146,0.1028135418891907,XArbitraryZVertical,0.3659731036722647,-0.5513053382127265,0.7497452028730263,0.002861567734285185,-0.5519283413887024,0.824582576751709,-0.1242522224783897,0,0,0,-1,-1,18632.579920125,unknown,2,2025-04-21T15:27:14.835+03:00,2025-04-20T21:57:49.637+03:00,6713,0.9734122,0,0,5510.912,5,6,2025-04-21T15:27:25.154+03:00,766931273.6357998,0,-43.9,100.2611,1,0.4,2025-04-21T15:26:28.730+03:00,90,1.5,2025-04-21T12:30:07.995+03:00,0.02023345852159405,0
2025-04-21T15:27:55.522+03:00,1745238473.757574,40.95228509088264,29.14029757623211,76.50295,-1,-1,-1,-1,30,26.32010262020495,-9999,18638.119033125,-0.6142578125,0.976287841796875,0.238311767578125,18638.113995125,2.336042439859301,-1.35150252952114,-0.9675316354981631,0.1399330794811249,-0.09912317246198654,-0.2995402812957764,-0.04819703102111816,0.04099869728088379,0.1422320604324341,XArbitraryZVertical,0.3671522780860949,-0.550899436589369,0.7494660770843989,0.003095504009297012,-0.5537469983100891,0.8234878182411194,-0.1234180331230164,0,0,0,-1,-1,18632.579920125,unknown,2,2025-04-21T15:27:14.835+03:00,2025-04-20T21:57:49.637+03:00,6713,0.9734122,0,0,5510.912,5,6,2025-04-21T15:27:25.154+03:00,766931273.6357998,0,-43.9,100.2611,1,0.4,2025-04-21T15:26:28.730+03:00,90,1.5,2025-04-21T12:30:07.995+03:00,0.02023345852159405,0
2025-04-21T15:27:55.532+03:00,1745238473.757574,40.95228509088264,29.14029757623211,76.50295,-1,-1,-1,-1,30,26.32010262020495,-9999,18638.129109125,-0.6285552978515625,1.105560302734375,0.5229339599609375,18638.124071125,2.33874154080839,-1.348820215317232,-0.9625891497150189,0.3578171730041504,0.2267899513244629,-0.6142011284828186,-0.05706363916397095,0.109929084777832,0.2884102463722229,XArbitraryZVertical,0.3682171592539371,-0.54910601324226,0.7502526201938584,0.004430402508679378,-0.5573772788047791,0.8206737637519836,-0.1257974207401276,0,0,0,-1,-1,18632.579920125,unknown,2,2025-04-21T15:27:14.835+03:00,2025-04-20T21:57:49.637+03:00,6713,0.9734122,0,0,5510.912,5,6,2025-04-21T15:27:25.154+03:00,766931273.6357998,0,-43.9,100.2611,1,0.4,2025-04-21T15:26:28.730+03:00,90,1.5,2025-04-21T12:30:07.995+03:00,0.02023345852159405,0
2025-04-21T15:27:55.542+03:00,1745238473.757574,40.95228509088264,29.14029757623211,76.50295,-1,-1,-1,-1,30,26.32010262020495,-9999,18638.139185125,-0.6885833740234375,1.279037475585938,1.072128295898438,18638.134147125,2.341857433293314,-1.341468804364798,-0.9534950922090673,0.3988538384437561,0.7500156164169312,-1.071069121360779,-0.05529052019119263,0.2421124577522278,0.5285857915878296,XArbitraryZVertical,0.3687424209246695,-0.5461114175885262,0.7521460294563057,0.008227288119990166,-0.5636823177337646,0.8154435753822327,-0.1315826922655106,0,0,0,-1,-1,18632.579920125,unknown,2,2025-04-21T15:27:14.835+03:00,2025-04-20T21:57:49.637+03:00,6713,0.9734122,0,0,5510.912,5,6,2025-04-21T15:27:25.154+03:00,766931273.6357998,0,-43.9,100.2611,1,0.4,2025-04-21T15:26:28.730+03:00,90,1.5,2025-04-21T12:30:07.995+03:00,0.02023345852159405,0
2025-04-21T15:27:55.552+03:00,1745238473.757574,40.95228509088264,29.14029757623211,76.50295,-1,-1,-1,-1,30,26.32010262020495,-9999,18638.149262125,-0.740631103515625,1.498931884765625,1.804458618164062,18638.144224125,2.344119262918889,-1.329029858015483,-0.9398704835940042,0.515065610408783,1.374586462974548,-1.479299664497375,-0.08906799554824829,0.3948037624359131,0.9652206897735596,XArbitraryZVertical,0.3682927706693778,-0.541982461621322,0.7552385460181514,0.01516509017719009,-0.5727362036705017,0.8074817061424255,-0.141230896115303,0,0,0,-1,-1,18632.579920125,unknown,2,2025-04-21T15:27:14.835+03:00,2025-04-20T21:57:49.637+03:00,6713,0.9734122,0,0,5510.912,5,6,2025-04-21T15:27:25.154+03:00,766931273.6357998,0,-43.9,100.2611,1,0.4,2025-04-21T15:26:28.730+03:00,90,1.5,2025-04-21T12:30:07.995+03:00,0.02023345852159405,0
2025-04-21T15:27:55.562+03:00,1745238473.757574,40.95228509088264,29.14029757623211,76.50295,-1,-1,-1,-1,30,26.32010262020495,-9999,18638.159338125,-0.803924560546875,1.543502807617188,2.068954467773438,18638.154300125,2.350683154824759,-1.305058790971311,-0.9212023910358782,1.239661931991577,2.379764080047607,-1.926937580108643,-0.141465961933136,0.62542325258255,1.705343127250671,XArbitraryZVertical,0.3658905319691676,-0.5354430598088066,0.7607848333965955,0.02512287012821677,-0.583631694316864,0.7963294982910156,-0.1588497012853622,0,0,0,-1,-1,18632.579920125,unknown,2,2025-04-21T15:27:14.835+03:00,2025-04-20T21:57:49.637+03:00,6713,0.9734122,0,0,5510.912,5,6,2025-04-21T15:27:25.154+03:00,766931273.6357998,0,-43.9,100.2611,1,0.4,2025-04-21T15:26:28.730+03:00,90,1.5,2025-04-21T12:30:07.995+03:00,0.02023345852159405,0
2025-04-21T15:27:55.572+03:00,1745238473.757574,40.95228509088264,29.14029757623211,76.50295,-1,-1,-1,-1,30,26.32010262020495,-9999,18638.169414125,-0.7653656005859375,1.276580810546875,1.808685302734375,18638.164376125,2.37103208833857,-1.258848233008954,-0.8950793099904323,2.788122892379761,3.601669549942017,-2.288704395294189,-0.1799214482307434,0.7859339118003845,2.248342275619507,XArbitraryZVertical,0.3603299202161607,-0.5236237282932044,0.7710716242458153,0.03780439425233226,-0.5952709317207336,0.7802587151527405,-0.1919610798358917,0,0,0,-1,-1,18632.579920125,unknown,2,2025-04-21T15:27:14.835+03:00,2025-04-20T21:57:49.637+03:00,6713,0.9734122,0,0,5510.912,5,6,2025-04-21T15:27:25.154+03:00,766931273.6357998,0,-43.9,100.2611,1,0.4,2025-04-21T15:26:28.730+03:00,90,1.5,2025-04-21T12:30:07.995+03:00,0.02023345852159405,0
2025-04-21T15:27:55.582+03:00,1745238473.757574,40.95228509088264,29.14029757623211,76.50295,-1,-1,-1,-1,30,26.32010262020495,-9999,18638.179490125,-0.3759613037109375,1.113662719726562,1.483016967773438,18638.174452125,2.420023988664088,-1.179680597821704,-0.8568393901610702,5.786873817443848,4.604107856750488,-2.728496074676514,-0.213742733001709,0.6367402672767639,2.183105707168579,XArbitraryZVertical,0.3515130257611327,-0.5016188733653211,0.7888294844144802,0.05064795762266292,-0.6053796410560608,0.7557767033576965,-0.2496341913938522,0,0,0,-1,-1,18632.579920125,unknown,2,2025-04-21T15:27:14.835+03:00,2025-04-20T21:57:49.637+03:00,6713,0.9734122,0,0,5510.912,5,6,2025-04-21T15:27:25.154+03:00,766931273.6357998,0,-43.9,100.2611,1,0.4,2025-04-21T15:26:28.730+03:00,90,1.5,2025-04-21T12:30:07.995+03:00,0.02023345852159405,0
2025-04-21T15:27:55.592+03:00,1745238473.757574,40.95228509088264,29.14029757623211,76.50295,-1,-1,-1,-1,30,26.32010262020495,-9999,18638.189567125,-0.1114501953125,1.234878540039062,1.6141357421875,18638.184529125,2.498289539255671,-1.071712664200683,-0.797853834298085,8.610712051391602,5.384757041931152,-3.275553464889526,0.06728219985961914,0.4233466386795044,1.92142915725708,XArbitraryZVertical,0.3407733247455499,-0.46559229104394,0.8143788714933854,0.0623256782513787,-0.6130738854408264,0.7158591747283936,-0.3341947197914124,0,0,0,-1,-1,18632.579920125,unknown,2,2025-04-21T15:27:14.835+03:00,2025-04-20T21:57:49.637+03:00,6713,0.9734122,0,0,5510.912,5,6,2025-04-21T15:27:25.154+03:00,766931273.6357998,0,-43.9,100.2611,1,0.4,2025-04-21T15:26:28.730+03:00,90,1.5,2025-04-21T12:30:07.995+03:00,0.02023345852159405,0
2025-04-21T15:27:55.602+03:00,1745238473.757574,40.95228509088264,29.14029757623211,76.50295,-1,-1,-1,-1,30,26.32010262020495,-9999,18638.19964491667,-0.1796112060546875,1.355331420898438,2.180984497070312,18638.19460691667,2.586403267388143,-0.9536820083259498,-0.7156685231174079,10.67335987091064,5.95878791809082,-3.839131593704224,0.4559140205383301,0.5048274397850037,1.915374875068665,XArbitraryZVertical,0.3281687983780587,-0.4170754107761135,0.8443684800369401,0.07345091019026641,-0.6154599189758301,0.656122088432312,-0.4367066919803619,0,0,0,-1,-1,18632.579920125,unknown,2,2025-04-21T15:27:14.835+03:00,2025-04-20T21:57:49.637+03:00,6713,0.9734122,0,0,5510.912,5,6,2025-04-21T15:27:25.154+03:00,766931273.6357998,0,-43.9,100.2611,1,0.4,2025-04-21T15:26:28.730+03:00,90,1.5,2025-04-21T12:30:07.995+03:00,0.02023345852159405,0
2025-04-21T15:27:55.612+03:00,1745238473.757574,40.95228509088264,29.14029757623211,76.50295,-1,-1,-1,-1,30,26.32010262020495,-9999,18638.20972091667,-0.25140380859375,0.864166259765625,2.328094482421875,18638.20468291667,2.657285909679488,-0.8489016168527651,-0.6183798646054335,9.685366630554199,6.015199661254883,-4.478470802307129,0.472665548324585,0.777293860912323,2.517976522445679,XArbitraryZVertical,0.3143549951862156,-0.3632652111390242,0.8727756107127526,0.08649811292943343,-0.6115662455558777,0.5797157883644104,-0.538438618183136,0,0,0,-1,-1,18632.579920125,unknown,2,2025-04-21T15:27:14.835+03:00,2025-04-20T21:57:49.637+03:00,6713,0.9734122,0,0,5510.912,5,6,2025-04-21T15:27:25.154+03:00,766931273.6357998,0,-43.9,100.2611,1,0.4,2025-04-21T15:26:28.730+03:00,90,1.5,2025-04-21T12:30:07.995+03:00,0.02023345852159405,0
2025-04-21T15:27:55.623+03:00,1745238473.757574,40.95228509088264,29.14029757623211,76.50295,-1,-1,-1,-1,30,26.32010262020495,-9999,18638.21979691667,-0.0496673583984375,-0.2579498291015625,2.076400756835938,18638.21475891667,2.695119685209761,-0.7674946463733106,-0.5247588928945343,7.422123908996582,5.982413768768311,-4.452728748321533,0.3621995449066162,0.6253687739372253,2.95907735824585,XArbitraryZVertical,0.2993653070365816,-0.3145961109493964,0.8948101766601039,0.1035578395633828,-0.6009080410003662,0.5010043382644653,-0.6228194236755371,0,0,0,-1,-1,18632.579920125,unknown,2,2025-04-21T15:27:14.835+03:00,2025-04-20T21:57:49.637+03:00,6713,0.9734122,0,0,5510.912,5,6,2025-04-21T15:27:25.154+03:00,766931273.6357998,0,-43.9,100.2611,1,0.4,2025-04-21T15:26:28.730+03:00,90,1.5,2025-04-21T12:30:07.995+03:00,0.02023345852159405,0
2025-04-21T15:27:55.633+03:00,1745238473.757574,40.95228509088264,29.14029757623211,76.50295,-1,-1,-1,-1,30,26.32010262020495,-9999,18638.22987391667,0.3562774658203125,-1.740432739257812,1.714111328125,18638.22483491667,2.699115632128454,-0.7066573648529075,-0.4608155540821769,2.261710166931152,5.678954124450684,-3.385540723800659,0.4091124534606934,-0.2069011926651001,2.887336015701294,XArbitraryZVertical,0.2816493121615599,-0.2829685113827453,0.9085088477995612,0.1233449736324508,-0.5815672874450684,0.4446787238121033,-0.6812049746513367,0,0,0,-1,-1,18632.579920125,unknown,2,2025-04-21T15:27:14.835+03:00,2025-04-20T21:57:49.637+03:00,6713,0.9734122,0,0,5510.912,5,6,2025-04-21T15:27:25.154+03:00,766931273.6357998,0,-43.9,100.2611,1,0.4,2025-04-21T15:26:28.730+03:00,90,1.5,2025-04-21T12:30:07.995+03:00,0.02023345852159405,0
2025-04-21T15:27:55.643+03:00,1745238473.757574,40.95228509088264,29.14029757623211,76.50295,-1,-1,-1,-1,30,26.32010262020495,-9999,18638.23994991667,0.8785400390625,-2.63720703125,-0.049224853515625,18638.23491191667,2.7160588004716,-0.6693333827586122,-0.4170516830345635,8.957651138305664,-0.1440919935703278,0.1849157214164734,0.7850551009178162,-1.600516557693481,2.550954818725586,XArbitraryZVertical,0.2728033823445727,-0.2589789848705623,0.9175800128205911,0.1286664241635062,-0.5672816634178162,0.4050666093826294,-0.7170163989067078,0,0,0,-1,-1,18632.579920125,unknown,2,2025-04-21T15:27:14.835+03:00,2025-04-20T21:57:49.637+03:00,6713,0.9734122,0,0,5510.912,5,6,2025-04-21T15:27:25.154+03:00,766931273.6357998,0,-43.9,100.2611,1,0.4,2025-04-21T15:26:28.730+03:00,90,1.5,2025-04-21T12:30:07.995+03:00,0.02023345852159405,0
2025-04-21T15:27:55.653+03:00,1745238473.757574,40.95228509088264,29.14029757623211,76.50295,-1,-1,-1,-1,30,26.32010262020495,-9999,18638.25002591667,2.119308471679688,-0.26483154296875,-7.423110961914062,18638.24498791667,2.782703004505128,-0.665958103440159,-0.3322103341813266,9.459656715393066,-3.249044179916382,-1.758095145225525,1.162768483161926,-2.797157049179077,1.927902221679688,XArbitraryZVertical,0.289294987149796,-0.2112875885801817,0.9267447151495966,0.1131820637114663,-0.5840331315994263,0.3261333107948303,-0.7433319091796875,0,0,0,-1,-1,18632.579920125,unknown,2,2025-04-21T15:27:14.835+03:00,2025-04-20T21:57:49.637+03:00,6713,0.9734122,0,0,5510.912,5,6,2025-04-21T15:27:25.154+03:00,766931273.6357998,0,-43.9,100.2611,1,0.4,2025-04-21T15:26:28.730+03:00,90,1.5,2025-04-21T12:30:07.995+03:00,0.02023345852159405,0
2025-04-21T15:27:55.663+03:00,1745238473.757574,40.95228509088264,29.14029757623211,76.50295,-1,-1,-1,-1,30,26.32010262020495,-9999,18638.26010191667,1.471206665039062,2.870697021484375,-6.223007202148438,18638.25506391667,2.801695542292119,-0.704475537992176,-0.2689656147019046,1.315889477729797,-5.542014122009277,-2.238971471786499,2.366292715072632,-1.982592463493347,-3.798738479614258,XArbitraryZVertical,0.3156741098640785,-0.1818562350148059,0.9245517552717464,0.1117237946514354,-0.6243494153022766,0.2657343745231628,-0.7345563173294067,0,0,0,-1,-1,18632.579920125,unknown,2,2025-04-21T15:27:14.835+03:00,2025-04-20T21:57:49.637+03:00,6713,0.9734122,0,0,5510.912,5,6,2025-04-21T15:27:25.154+03:00,766931273.6357998,0,-43.9,100.2611,1,0.4,2025-04-21T15:26:28.730+03:00,90,1.5,2025-04-21T12:30:07.995+03:00,0.02023345852159405,0
2025-04-21T15:27:55.673+03:00,1745238473.757574,40.95228509088264,29.14029757623211,76.50295,-1,-1,-1,-1,30,26.32010262020495,-9999,18638.27017891667,0.9217071533203125,-2.174392700195312,-1.735031127929688,18638.26513991667,2.794780071524554,-0.7633339049493223,-0.2587445981911621,0.1390688717365265,-5.518399238586426,-0.03121151402592659,2.569657564163208,2.13109564781189,-7.671648979187012,XArbitraryZVertical,0.3431581832088547,-0.1816611094659532,0.9147785849035617,0.111453328437076,-0.6683210134506226,0.2558671534061432,-0.698483407497406,0,0,0,-1,-1,18632.579920125,unknown,2,2025-04-21T15:27:14.835+03:00,2025-04-20T21:57:49.637+03:00,6713,0.9734122,0,0,5510.912,5,6,2025-04-21T15:27:25.154+03:00,766931273.6357998,0,-43.9,100.2611,1,0.4,2025-04-21T15:26:28.730+03:00,90,1.5,2025-04-21T12:30:07.995+03:00,0.02023345852159405,0
2025-04-21T15:27:55.683+03:00,1745238473.757574,40.95228509088264,29.14029757623211,76.50295,-1,-1,-1,-1,30,26.32010262020495,-9999,18638.28025491667,0.001373291015625,-6.118759155273438,-3.756393432617188,18638.27521691667,2.802726000345665,-0.8057008814066847,-0.2653910120744047,0.2001146525144577,-3.173324584960938,1.440581083297729,1.709231376647949,0.2537044882774353,-1.535041928291321,XArbitraryZVertical,0.3625071430118889,-0.1854985235860796,0.9075489495225515,0.1026343493259969,-0.6960629820823669,0.2622866034507751,-0.6683577299118042,0,0,0,-1,-1,18632.579920125,unknown,2,2025-04-21T15:27:14.835+03:00,2025-04-20T21:57:49.637+03:00,6713,0.9734122,0,0,5510.912,5,6,2025-04-21T15:27:25.154+03:00,766931273.6357998,0,-43.9,100.2611,1,0.4,2025-04-21T15:26:28.730+03:00,90,1.5,2025-04-21T12:30:07.995+03:00,0.02023345852159405,0
2025-04-21T15:27:55.693+03:00,1745238473.757574,40.95228509088264,29.14029757623211,76.50295,-1,-1,-1,-1,30,26.32010262020495,-9999,18638.29033091667,-1.739501953125,-1.305038452148438,-0.329498291015625,18638.28529291667,2.811424223022619,-0.8223279051965678,-0.2739020823613225,-0.2138235419988632,-0.8174684047698975,1.229211330413818,1.236271023750305,-6.089551448822021,-2.751787185668945,XArbitraryZVertical,0.3699856757954,-0.1885095932856015,0.904694641984932,0.09540521800088846,-0.7054176926612854,0.2704901099205017,-0.6551494598388672,0,0,0,-1,-1,18632.579920125,unknown,2,2025-04-21T15:27:14.835+03:00,2025-04-20T21:57:49.637+03:00,6713,0.9734122,0,0,5510.912,5,6,2025-04-21T15:27:25.154+03:00,766931273.6357998,0,-43.9,100.2611,1,0.4,2025-04-21T15:26:28.730+03:00,90,1.5,2025-04-21T12:30:07.995+03:00,0.02023345852159405,0
2025-04-21T15:27:55.703+03:00,1745238473.757574,40.95228509088264,29.14029757623211,76.50295,-1,-1,-1,-1,30,26.32010262020495,-9999,18638.30040691667,-2.0028076171875,1.52642822265625,0.3906402587890625,18638.29536891667,2.818465234172079,-0.8204560055971513,-0.2856060631590561,-0.1564491987228394,0.6532244682312012,1.197304725646973,-0.4430864453315735,-3.751160621643066,-1.193146944046021,XArbitraryZVertical,0.3686238436874397,-0.1923119786164266,0.9050046884209588,0.08999345879917828,-0.701826274394989,0.2817390263080597,-0.6542651057243347,0,0,0,-1,-1,18632.579920125,unknown,2,2025-04-21T15:27:14.835+03:00,2025-04-20T21:57:49.637+03:00,6713,0.9734122,0,0,5510.912,5,6,2025-04-21T15:27:25.154+03:00,766931273.6357998,0,-43.9,100.2611,1,0.4,2025-04-21T15:26:28.730+03:00,90,1.5,2025-04-21T12:30:07.995+03:00,0.02023345852159405,0
2025-04-21T15:27:55.713+03:00,1745238473.757574,40.95228509088264,29.14029757623211,76.50295,-1,-1,-1,-1,30,26.32010262020495,-9999,18638.31048291667,-1.108978271484375,1.072799682617188,-1.180984497070312,18638.30544491667,2.828374033918612,-0.8121708623104594,-0.2900100043270101,0.8830181956291199,0.2566320896148682,0.7989826798439026,-1.44576096534729,0.760302722454071,1.382280945777893,XArbitraryZVertical,0.3653826059919839,-0.1920854833632266,0.9068104728052238,0.08540149869779616,-0.6954743266105652,0.2859618067741394,-0.6591974496841431,0,0,0,-1,-1,18632.579920125,unknown,2,2025-04-21T15:27:14.835+03:00,2025-04-20T21:57:49.637+03:00,6713,0.9734122,0,0,5510.912,5,6,2025-04-21T15:27:25.154+03:00,766931273.6357998,0,-43.9,100.2611,1,0.4,2025-04-21T15:26:28.730+03:00,90,1.5,2025-04-21T12:30:07.995+03:00,0.02023345852159405,0
2025-04-21T15:27:55.723+03:00,1745238473.757574,40.95228509088264,29.14029757623211,76.50295,-1,-1,-1,-1,30,26.32010262020495,-9999,18638.32055991667,-0.6558685302734375,0.54876708984375,-1.016204833984375,18638.31552191667,2.842424815590008,-0.8071579625487941,-0.2852616010107172,1.634260296821594,0.07906021177768707,0.2902549505233765,-0.7651788592338562,1.109887838363647,-0.06052935123443604,XArbitraryZVertical,0.3649017624795301,-0.1871982587411798,0.9084762907059694,0.0804625728941305,-0.6931341290473938,0.2814084887504578,-0.6636070609092712,0,0,0,-1,-1,18632.579920125,unknown,2,2025-04-21T15:27:14.835+03:00,2025-04-20T21:57:49.637+03:00,6713,0.9734122,0,0,5510.912,5,6,2025-04-21T15:27:25.154+03:00,766931273.6357998,0,-43.9,100.2611,1,0.4,2025-04-21T15:26:28.730+03:00,90,1.5,2025-04-21T12:30:07.995+03:00,0.02023345852159405,0
2025-04-21T15:27:55.733+03:00,1745238473.757574,40.95228509088264,29.14029757623211,76.50295,-1,-1,-1,-1,30,26.32010262020495,-9999,18638.33063591667,-1.078720092773438,0.74267578125,-0.8431396484375,18638.32559791667,2.854289267647694,-0.8009515725237224,-0.2742801612630181,1.333041429519653,0.5382180213928223,-0.2434150576591492,-0.01298314332962036,0.3551223576068878,-0.5505591034889221,XArbitraryZVertical,0.3641956250744531,-0.1798838690750818,0.9104633388751042,0.07784451057085759,-0.6911794543266296,0.2708540856838226,-0.6700066924095154,0,0,0,-1,-1,18632.579920125,unknown,2,2025-04-21T15:27:14.835+03:00,2025-04-20T21:57:49.637+03:00,6713,0.9734122,0,0,5510.912,5,6,2025-04-21T15:27:25.154+03:00,766931273.6357998,0,-43.9,100.2611,1,0.4,2025-04-21T15:26:28.730+03:00,90,1.5,2025-04-21T12:30:07.995+03:00,0.02023345852159405,0
2025-04-21T15:27:55.743+03:00,1745238473.757574,40.95228509088264,29.14029757623211,76.50295,-1,-1,-1,-1,30,26.32010262020495,-9999,18638.34071191667,-1.072174072265625,0.3784332275390625,-0.7201995849609375,18638.33567391667,2.859575742839681,-0.7938560583396381,-0.267796419944314,0.3191533088684082,0.6517384648323059,0.0207513514906168,-0.2021551728248596,0.407389909029007,-0.151128888130188,XArbitraryZVertical,0.3620207070372594,-0.1757426153478511,0.9121793344975182,0.07735817073883225,-0.6876458525657654,0.2646070420742035,-0.676111102104187,0,0,0,-1,-1,18632.579920125,unknown,2,2025-04-21T15:27:14.835+03:00,2025-04-20T21:57:49.637+03:00,6713,0.9734122,0,0,5510.912,5,6,2025-04-21T15:27:25.154+03:00,766931273.6357998,0,-43.9,100.2611,1,0.4,2025-04-21T15:26:28.730+03:00,90,1.5,2025-04-21T12:30:07.995+03:00,0.02023345852159405,0
2025-04-21T15:27:55.753+03:00,1745238473.757574,40.95228509088264,29.14029757623211,76.50295,-1,-1,-1,-1,30,26.32010262020495,-9999,18638.35078791667,-0.777801513671875,0.0103912353515625,-0.544708251953125,18638.34574991667,2.860871446525125,-0.7868897176939964,-0.2674713416554458,0.02717742696404457,0.7190592288970947,0.02082355692982674,-0.4913362860679626,0.3416938781738281,-0.1438528299331665,XArbitraryZVertical,0.3589838746827405,-0.1750934321428992,0.9134963553866755,0.07744203700918822,-0.6829801201820374,0.2642935514450073,-0.6809457540512085,0,0,0,-1,-1,18632.579920125,unknown,2,2025-04-21T15:27:14.835+03:00,2025-04-20T21:57:49.637+03:00,6713,0.9734122,0,0,5510.912,5,6,2025-04-21T15:27:25.154+03:00,766931273.6357998,0,-43.9,100.2611,1,0.4,2025-04-21T15:26:28.730+03:00,90,1.5,2025-04-21T12:30:07.995+03:00,0.02023345852159405,0
2025-04-21T15:27:55.764+03:00,1745238473.757574,40.95228509088264,29.14029757623211,76.50295,-1,-1,-1,-1,30,26.32010262020495,-9999,18638.36086491667,-0.9073486328125,0.5495452880859375,-0.8212127685546875,18638.35582591667,2.860760963881093,-0.7797902104864264,-0.2659906053826067,0.1870123594999313,0.6628806591033936,-0.2169386595487595,-0.1609677672386169,-0.225481241941452,0.1360517740249634,XArbitraryZVertical,0.3558613369214799,-0.1741702777408439,0.9148116376435816,0.07840248843411333,-0.6784029603004456,0.2628651559352875,-0.6860548257827759,0,0,0,-1,-1,18632.579920125,unknown,2,2025-04-21T15:27:14.835+03:00,2025-04-20T21:57:49.637+03:00,6713,0.9734122,0,0,5510.912,5,6,2025-04-21T15:27:25.154+03:00,766931273.6357998,0,-43.9,100.2611,1,0.4,2025-04-21T15:26:28.730+03:00,90,1.5,2025-04-21T12:30:07.995+03:00,0.02023345852159405,0
2025-04-21T15:27:55.774+03:00,1745238473.757574,40.95228509088264,29.14029757623211,76.50295,-1,-1,-1,-1,30,26.32010262020495,-9999,18638.37094091667,-0.8592376708984375,0.674652099609375,-0.9475860595703125,18638.36590291667,2.860216518303805,-0.7742708036959346,-0.2625505922169977,0.1869433969259262,0.4733634293079376,-0.32705357670784,-0.1667457222938538,0.04466977715492249,-0.008619725704193115,XArbitraryZVertical,0.3535941021855009,-0.172498189890212,0.9158862486272046,0.07979892758786794,-0.675234317779541,0.2595445811748505,-0.6904311776161194,0,0,0,-1,-1,18632.579920125,unknown,2,2025-04-21T15:27:14.835+03:00,2025-04-20T21:57:49.637+03:00,6713,0.9734122,0,0,5510.912,5,6,2025-04-21T15:27:25.154+03:00,766931273.6357998,0,-43.9,100.2611,1,0.4,2025-04-21T15:26:28.730+03:00,90,1.5,2025-04-21T12:30:07.995+03:00,0.02023345852159405,0
2025-04-21T15:27:55.792+03:00,1745238473.757574,40.95228509088264,29.14029757623211,76.50295,-1,-1,-1,-1,30,26.32010262020495,-9999,18638.38101691667,-0.6879730224609375,0.17742919921875,-0.855255126953125,18638.37597891667,2.858510642814834,-0.7704496853386958,-0.2592831692483722,0.05413687229156494,0.3671445846557617,-0.3458722829818726,-0.2444548606872559,0.491201251745224,-0.2487106323242188,XArbitraryZVertical,0.3519872957006157,-0.1711706118224279,0.9166005877793613,0.08154046988056647,-0.6731781959533691,0.2563877403736115,-0.6936111450195312,0,0,0,-1,-1,18632.579920125,unknown,2,2025-04-21T15:27:14.835+03:00,2025-04-20T21:57:49.637+03:00,6713,0.9734122,0,0,5510.912,5,6,2025-04-21T15:27:25.154+03:00,766931273.6357998,0,-43.9,100.2611,1,0.4,2025-04-21T15:26:28.730+03:00,90,1.5,2025-04-21T12:30:07.995+03:00,0.02023345852159405,0
2025-04-21T15:27:55.795+03:00,1745238473.757574,40.95228509088264,29.14029757623211,76.50295,-1,-1,-1,-1,30,26.32010262020495,-9999,18638.39109291667,-0.6038818359375,0.0487213134765625,-0.7500457763671875,18638.38605491667,2.856426645347705,-0.7680168667441261,-0.2566438448371476,0.06395441293716431,0.2149617820978165,-0.3041102886199951,-0.06868982315063477,0.1059663593769073,-0.1977778077125549,XArbitraryZVertical,0.3509289984895033,-0.1702447755378547,0.9170284949544169,0.08321179697788841,-0.6719565391540527,0.2538357675075531,-0.6957311034202576,0,0,0,-1,-1,18632.579920125,unknown,2,2025-04-21T15:27:14.835+03:00,2025-04-20T21:57:49.637+03:00,6713,0.9734122,0,0,5510.912,5,6,2025-04-21T15:27:25.154+03:00,766931273.6357998,0,-43.9,100.2611,1,0.4,2025-04-21T15:26:28.730+03:00,90,1.5,2025-04-21T12:30:07.995+03:00,0.02023345852159405,0
2025-04-21T15:27:55.804+03:00,1745238473.757574,40.95228509088264,29.14029757623211,76.50295,-1,-1,-1,-1,30,26.32010262020495,-9999,18638.40116991667,-0.5672454833984375,0.18975830078125,-0.62042236328125,18638.39613091667,2.855143555281112,-0.7666972280039355,-0.2536628271649503,0.1899951845407486,0.1236886009573936,-0.2898469567298889,0.03973913192749023,-0.2161460816860199,-0.09628266096115112,XArbitraryZVertical,0.3504805093672106,-0.1690676212161109,0.9173013090678228,0.08448494068294035,-0.6715598106384277,0.2509512603282928,-0.6971591114997864,0,0,0,-1,-1,18632.579920125,unknown,2,2025-04-21T15:27:14.835+03:00,2025-04-20T21:57:49.637+03:00,6713,0.9734122,0,0,5510.912,5,6,2025-04-21T15:27:25.154+03:00,766931273.6357998,0,-43.9,100.2611,1,0.4,2025-04-21T15:26:28.730+03:00,90,1.5,2025-04-21T12:30:07.995+03:00,0.02023345852159405,0
2025-04-21T15:27:55.814+03:00,1745238473.757574,40.95228509088264,29.14029757623211,76.50295,-1,-1,-1,-1,30,26.32010262020495,-9999,18638.41124591667,-0.5867156982421875,0.1630859375,-0.54290771484375,18638.40620791667,2.854439558536127,-0.7657598094703667,-0.2500234239889459,0.2179838567972183,0.1010231673717499,-0.3059368431568146,0.1001081466674805,-0.1033990681171417,0.03215181827545166,XArbitraryZVertical,0.3503151157794699,-0.1675060807186446,0.9175489374033072,0.08558494204574174,-0.671534538269043,0.2474266588687897,-0.6984420418739319,0,0,0,-1,-1,18632.579920125,unknown,2,2025-04-21T15:27:14.835+03:00,2025-04-20T21:57:49.637+03:00,6713,0.9734122,0,0,5510.912,5,6,2025-04-21T15:27:25.154+03:00,766931273.6357998,0,-43.9,100.2611,1,0.4,2025-04-21T15:26:28.730+03:00,90,1.5,2025-04-21T12:30:07.995+03:00,0.02023345852159405,0
2025-04-21T15:27:55.824+03:00,1745238473.757574,40.95228509088264,29.14029757623211,76.50295,-1,-1,-1,-1,30,26.32010262020495,-9999,18638.42132191667,-0.58270263671875,0.099945068359375,-0.4907379150390625,18638.41628391667,2.853502477558351,-0.764848633313962,-0.2466872829620033,0.1228128671646118,0.1242834776639938,-0.2784575521945953,0.09244042634963989,-0.05080311000347137,0.1331323385238647,XArbitraryZVertical,0.3501152669150938,-0.1661223072173817,0.9177693265447097,0.08673006700264263,-0.6714656949043274,0.2441928684711456,-0.6996453404426575,0,0,0,-1,-1,18632.579920125,unknown,2,2025-04-21T15:27:14.835+03:00,2025-04-20T21:57:49.637+03:00,6713,0.9734122,0,0,5510.912,5,6,2025-04-21T15:27:25.154+03:00,766931273.6357998,0,-43.9,100.2611,1,0.4,2025-04-21T15:26:28.730+03:00,90,1.5,2025-04-21T12:30:07.995+03:00,0.02023345852159405,0
