loggingTime(txt),locationTimestamp_since1970(s),locationLatitude(WGS84),locationLongitude(WGS84),locationAltitude(m),locationSpeed(m/s),locationSpeedAccuracy(m/s),locationCourse(°),locationCourseAccuracy(°),locationVerticalAccuracy(m),locationHorizontalAccuracy(m),locationFloor(Z),accelerometerTimestamp_sinceReboot(s),accelerometerAccelerationX(G),accelerometerAccelerationY(G),accelerometerAccelerationZ(G),motionTimestamp_sinceReboot(s),motionYaw(rad),motionRoll(rad),motionPitch(rad),motionRotationRateX(rad/s),motionRotationRateY(rad/s),motionRotationRateZ(rad/s),motionUserAccelerationX(G),motionUserAccelerationY(G),motionUserAccelerationZ(G),motionAttitudeReferenceFrame(txt),motionQuaternionX(R),motionQuaternionY(R),motionQuaternionZ(R),motionQuaternionW(R),motionGravityX(G),motionGravityY(G),motionGravityZ(G),motionMagneticFieldX(µT),motionMagneticFieldY(µT),motionMagneticFieldZ(µT),motionHeading(°),motionMagneticFieldCalibrationAccuracy(Z),activityTimestamp_sinceReboot(s),activity(txt),activityActivityConfidence(Z),activityActivityStartDate(txt),pedometerStartDate(txt),pedometerNumberofSteps(N),pedometerAverageActivePace(s/m),pedometerCurrentPace(s/m),pedometerCurrentCadence(steps/s),pedometerDistance(m),pedometerFloorAscended(N),pedometerFloorDescended(N),pedometerEndDate(txt),altimeterTimestamp_sinceReboot(s),altimeterReset(bool),altimeterRelativeAltitude(m),altimeterPressure(kPa),batteryState(N),batteryLevel(R),heartRateBPMTimestamp(txt),heartRateBPM(N),heartRateBPS(R),heartRateVariabilityTimestamp(txt),heartRateVariability(ms),label
2025-04-21T15:54:32.812+03:00,1745240072.248771,40.95226103126694,29.14027780705777,76.23357,-1,-1,-1,-1,30,23.02324769301786,-9999,19385.18080325,-0.7096405029296875,0.5135040283203125,-0.5485992431640625,19385.17072825,2.378163416687224,-0.8809996708551664,-0.5187321007509262,0.0344308502972126,-0.1475582718849182,-0.03142790496349335,-0.06775587797164917,0.0003599226474761963,-0.01125562191009521,XArbitraryZVertical,-0.2960506536721093,0.368811966045598,-0.8520959933024344,-0.2241963731280947,-0.6698997616767883,0.495779424905777,-0.5526635050773621,0,0,0,-1,-1,19369.710663875,unknown,2,2025-04-21T15:54:17.318+03:00,2025-04-20T21:57:49.637+03:00,6727,0.976288,0,0,5522.566,5,6,2025-04-21T15:44:52.413+03:00,766932860.0002184,0,-40.25,100.2154,1,0.4,2025-04-21T15:54:20.605+03:00,83,1.383333333333333,2025-04-21T12:30:07.995+03:00,0.02023345852159405,0
2025-04-21T15:54:32.813+03:00,1745240072.248771,40.95226103126694,29.14027780705777,76.23357,-1,-1,-1,-1,30,23.02324769301786,-9999,19385.19087925,-0.65875244140625,0.4970855712890625,-0.542816162109375,19385.18080325,2.378301357904835,-0.8823330850790094,-0.518389408323588,0.02842502295970917,-0.1353304982185364,-0.007418377790600061,-0.06076955795288086,0.016450434923172,-0.0004447698593139648,XArbitraryZVertical,-0.2967172917895702,0.3688088964118358,-0.8519244501957478,-0.2239721860469703,-0.6707673072814941,0.4954817891120911,-0.5518776774406433,0,0,0,-1,-1,19369.710663875,unknown,2,2025-04-21T15:54:17.318+03:00,2025-04-20T21:57:49.637+03:00,6727,0.976288,0,0,5522.566,5,6,2025-04-21T15:44:52.413+03:00,766932860.0002184,0,-40.25,100.2154,1,0.4,2025-04-21T15:54:20.605+03:00,83,1.383333333333333,2025-04-21T12:30:07.995+03:00,0.02023345852159405,0
2025-04-21T15:54:32.814+03:00,1745240072.248771,40.95226103126694,29.14027780705777,76.23357,-1,-1,-1,-1,30,23.02324769301786,-9999,19385.20095525,-0.6828765869140625,0.4831085205078125,-0.5503387451171875,19385.19087925,2.378480999170228,-0.8832782108220356,-0.5182601539077476,0.01257788389921188,-0.07210306078195572,0.004998610820621252,0.0005617141723632812,0.009253740310668945,0.008361101150512695,XArbitraryZVertical,-0.2971805718001359,0.3688382286880298,-0.8518082066957695,-0.2237517491816302,-0.6713380813598633,0.4953695237636566,-0.55128413438797,0,0,0,-1,-1,19369.710663875,unknown,2,2025-04-21T15:54:17.318+03:00,2025-04-20T21:57:49.637+03:00,6727,0.976288,0,0,5522.566,5,6,2025-04-21T15:44:52.413+03:00,766932860.0002184,0,-40.25,100.2154,1,0.4,2025-04-21T15:54:20.605+03:00,83,1.383333333333333,2025-04-21T12:30:07.995+03:00,0.02023345852159405,0
2025-04-21T15:54:32.823+03:00,1745240072.248771,40.95226103126694,29.14027780705777,76.23357,-1,-1,-1,-1,30,23.02324769301786,-9999,19385.21103125,-0.7060394287109375,0.488525390625,-0.5496063232421875,19385.20095525,2.378656696112226,-0.8835678381517666,-0.5181999227864352,0.01906028389930725,-0.01217607408761978,-0.0002467512094881386,0.004482805728912354,-0.009050250053405762,0.003928303718566895,XArbitraryZVertical,-0.2973491925947452,0.3688213129681547,-0.8517866354148117,-0.2236376315375251,-0.6715207695960999,0.4953171908855438,-0.5511085987091064,0,0,0,-1,-1,19369.710663875,unknown,2,2025-04-21T15:54:17.318+03:00,2025-04-20T21:57:49.637+03:00,6727,0.976288,0,0,5522.566,5,6,2025-04-21T15:44:52.413+03:00,766932860.0002184,0,-40.25,100.2154,1,0.4,2025-04-21T15:54:20.605+03:00,83,1.383333333333333,2025-04-21T12:30:07.995+03:00,0.02023345852159405,0
2025-04-21T15:54:32.834+03:00,1745240072.248771,40.95226103126694,29.14027780705777,76.23357,-1,-1,-1,-1,30,23.02324769301786,-9999,19385.22110625,-0.67962646484375,0.5006103515625,-0.548370361328125,19385.21103125,2.378882470073783,-0.8834816783353768,-0.5180807404839277,0.02316181734204292,-0.003803095780313015,0.003742664353922009,-0.03244531154632568,-0.01054888963699341,-0.0001724958419799805,XArbitraryZVertical,-0.2973795867810646,0.3687322112242239,-0.851828294314891,-0.223585298888602,-0.6715189218521118,0.495213657617569,-0.5512038469314575,0,0,0,-1,-1,19369.710663875,unknown,2,2025-04-21T15:54:17.318+03:00,2025-04-20T21:57:49.637+03:00,6727,0.976288,0,0,5522.566,5,6,2025-04-21T15:44:52.413+03:00,766932860.0002184,0,-40.25,100.2154,1,0.4,2025-04-21T15:54:20.605+03:00,83,1.383333333333333,2025-04-21T12:30:07.995+03:00,0.02023345852159405,0
2025-04-21T15:54:32.843+03:00,1745240072.248771,40.95226103126694,29.14027780705777,76.23357,-1,-1,-1,-1,30,23.02324769301786,-9999,19385.23118225,-0.6573028564453125,0.500335693359375,-0.5489044189453125,19385.22110625,2.379156264947951,-0.8834715770188656,-0.5179714367537552,0.027372807264328,-0.02395949698984623,0.004578363616019487,-0.02053773403167725,0.001508951187133789,0.003729045391082764,XArbitraryZVertical,-0.2974490899962759,0.3686482660453743,-0.8518637264931869,-0.2234961968580821,-0.6715551614761353,0.4951186776161194,-0.5512449741363525,0,0,0,-1,-1,19369.710663875,unknown,2,2025-04-21T15:54:17.318+03:00,2025-04-20T21:57:49.637+03:00,6727,0.976288,0,0,5522.566,5,6,2025-04-21T15:44:52.413+03:00,766932860.0002184,0,-40.25,100.2154,1,0.4,2025-04-21T15:54:20.605+03:00,83,1.383333333333333,2025-04-21T12:30:07.995+03:00,0.02023345852159405,0
2025-04-21T15:54:32.853+03:00,1745240072.248771,40.95226103126694,29.14027780705777,76.23357,-1,-1,-1,-1,30,23.02324769301786,-9999,19385.24125825,-0.664306640625,0.492584228515625,-0.5468902587890625,19385.23118225,2.379441415001081,-0.8835732116589134,-0.5178713647200651,0.02594082616269588,-0.02494166977703571,0.00597918638959527,0.009646952152252197,0.007043302059173584,0.001586556434631348,XArbitraryZVertical,-0.2975662499253507,0.3685786522608871,-0.851883590562482,-0.2233796144654408,-0.6716495156288147,0.4950317442417145,-0.5512081980705261,0,0,0,-1,-1,19369.710663875,unknown,2,2025-04-21T15:54:17.318+03:00,2025-04-20T21:57:49.637+03:00,6727,0.976288,0,0,5522.566,5,6,2025-04-21T15:44:52.413+03:00,766932860.0002184,0,-40.25,100.2154,1,0.4,2025-04-21T15:54:20.605+03:00,83,1.383333333333333,2025-04-21T12:30:07.995+03:00,0.02023345852159405,0
2025-04-21T15:54:32.863+03:00,1745240072.248771,40.95226103126694,29.14027780705777,76.23357,-1,-1,-1,-1,30,23.02324769301786,-9999,19385.25133325,-0.6761016845703125,0.4918212890625,-0.54779052734375,19385.24125825,2.379739417492918,-0.8836073278472123,-0.5177225539638296,0.0289619155228138,-0.01203439384698868,0.004098196048289537,0.01202678680419922,0.0003061294555664062,0.003960192203521729,XArbitraryZVertical,-0.2976674425704758,0.3684807885138522,-0.8519163185493143,-0.2232813116258718,-0.6717252731323242,0.4949024319648743,-0.5512319803237915,0,0,0,-1,-1,19369.710663875,unknown,2,2025-04-21T15:54:17.318+03:00,2025-04-20T21:57:49.637+03:00,6727,0.976288,0,0,5522.566,5,6,2025-04-21T15:44:52.413+03:00,766932860.0002184,0,-40.25,100.2154,1,0.4,2025-04-21T15:54:20.605+03:00,83,1.383333333333333,2025-04-21T12:30:07.995+03:00,0.02023345852159405,0
2025-04-21T15:54:32.873+03:00,1745240072.248771,40.95226103126694,29.14027780705777,76.23357,-1,-1,-1,-1,30,23.02324769301786,-9999,19385.26140925,-0.6723480224609375,0.4933319091796875,-0.5438995361328125,19385.25133325,2.380029608608083,-0.8835932418720442,-0.517525844880789,0.03179046139121056,-0.0117209404706955,0.001058197813108563,-0.0009062290191650391,-0.003490209579467773,0.00368046760559082,XArbitraryZVertical,-0.2977568295281316,0.3683602284139121,-0.8519568383678031,-0.2232065195839207,-0.67179274559021,0.4947314858436584,-0.5513032078742981,0,0,0,-1,-1,19369.710663875,unknown,2,2025-04-21T15:54:17.318+03:00,2025-04-20T21:57:49.637+03:00,6727,0.976288,0,0,5522.566,5,6,2025-04-21T15:44:52.413+03:00,766932860.0002184,0,-40.25,100.2154,1,0.4,2025-04-21T15:54:20.605+03:00,83,1.383333333333333,2025-04-21T12:30:07.995+03:00,0.02023345852159405,0
2025-04-21T15:54:32.884+03:00,1745240072.248771,40.95226103126694,29.14027780705777,76.23357,-1,-1,-1,-1,30,23.02324769301786,-9999,19385.27148525,-0.6688690185546875,0.49462890625,-0.5439910888671875,19385.26140925,2.380293011833072,-0.883575049464505,-0.5173195144232189,0.03079070895910263,-0.009496667422354221,-0.001092837424948812,-0.002576828002929688,-0.001723974943161011,0.005588531494140625,XArbitraryZVertical,-0.2978415409350849,0.3682394684809646,-0.8519952878783751,-0.2231461815274615,-0.6718616485595703,0.4945521652698517,-0.5513802170753479,0,0,0,-1,-1,19369.710663875,unknown,2,2025-04-21T15:54:17.318+03:00,2025-04-20T21:57:49.637+03:00,6727,0.976288,0,0,5522.566,5,6,2025-04-21T15:44:52.413+03:00,766932860.0002184,0,-40.25,100.2154,1,0.4,2025-04-21T15:54:20.605+03:00,83,1.383333333333333,2025-04-21T12:30:07.995+03:00,0.02023345852159405,0
2025-04-21T15:54:32.893+03:00,1745240072.248771,40.95226103126694,29.14027780705777,76.23357,-1,-1,-1,-1,30,23.02324769301786,-9999,19385.28156125,-0.6701507568359375,0.4918365478515625,-0.54473876953125,19385.27148525,2.38054088046301,-0.8835523642759218,-0.5171101303412752,0.0275280699133873,-0.009474829770624638,-0.005104623269289732,0.002312421798706055,0.0004569292068481445,0.00710374116897583,XArbitraryZVertical,-0.2979221536773192,0.3681193272238488,-0.8520326543258351,-0.2230938369561364,-0.6719291210174561,0.4943701922893524,-0.5514611005783081,0,0,0,-1,-1,19369.710663875,unknown,2,2025-04-21T15:54:17.318+03:00,2025-04-20T21:57:49.637+03:00,6727,0.976288,0,0,5522.566,5,6,2025-04-21T15:44:52.413+03:00,766932860.0002184,0,-40.25,100.2154,1,0.4,2025-04-21T15:54:20.605+03:00,83,1.383333333333333,2025-04-21T12:30:07.995+03:00,0.02023345852159405,0
2025-04-21T15:54:32.904+03:00,1745240072.248771,40.95226103126694,29.14027780705777,76.23357,-1,-1,-1,-1,30,23.02324769301786,-9999,19385.29163625,-0.6740875244140625,0.4889373779296875,-0.5454864501953125,19385.28156125,2.380747507802361,-0.8835416951581395,-0.5168778929301587,0.02725250087678432,-0.007086440455168486,-0.007809562608599663,0.002502083778381348,-0.001141726970672607,0.006527602672576904,XArbitraryZVertical,-0.2980050936224845,0.3679978398169867,-0.8520644012865142,-0.2230623314724859,-0.6720119714736938,0.4941682815551758,-0.5515410900115967,0,0,0,-1,-1,19369.710663875,unknown,2,2025-04-21T15:54:17.318+03:00,2025-04-20T21:57:49.637+03:00,6727,0.976288,0,0,5522.566,5,6,2025-04-21T15:44:52.413+03:00,766932860.0002184,0,-40.25,100.2154,1,0.4,2025-04-21T15:54:20.605+03:00,83,1.383333333333333,2025-04-21T12:30:07.995+03:00,0.02023345852159405,0
2025-04-21T15:54:32.914+03:00,1745240072.248771,40.95226103126694,29.14027780705777,76.23357,-1,-1,-1,-1,30,23.02324769301786,-9999,19385.30171225,-0.67401123046875,0.488739013671875,-0.5457611083984375,19385.29163625,2.380888066662908,-0.8835660269312746,-0.5166167596044945,0.02301041781902313,-0.00777506735175848,-0.01111264806240797,-0.0005280971527099609,-0.004973560571670532,0.006898283958435059,XArbitraryZVertical,-0.2980969750785279,0.3678789483889376,-0.8520843302716204,-0.2230591502371355,-0.6721250414848328,0.4939412474632263,-0.5516065359115601,0,0,0,-1,-1,19369.710663875,unknown,2,2025-04-21T15:54:17.318+03:00,2025-04-20T21:57:49.637+03:00,6727,0.976288,0,0,5522.566,5,6,2025-04-21T15:44:52.413+03:00,766932860.0002184,0,-40.25,100.2154,1,0.4,2025-04-21T15:54:20.605+03:00,83,1.383333333333333,2025-04-21T12:30:07.995+03:00,0.02023345852159405,0
2025-04-21T15:54:32.924+03:00,1745240072.248771,40.95226103126694,29.14027780705777,76.23357,-1,-1,-1,-1,30,23.02324769301786,-9999,19385.31178825,-0.66961669921875,0.490203857421875,-0.5445098876953125,19385.30171225,2.381007573157279,-0.8835954765185428,-0.516380802319257,0.02186612412333488,-0.009292736649513245,-0.01037651766091585,-0.002603769302368164,-0.005287140607833862,0.005716443061828613,XArbitraryZVertical,-0.2981817136097486,0.3677734521357082,-0.8521005078156554,-0.2230582950829112,-0.6722314357757568,0.4937360882759094,-0.5516607165336609,0,0,0,-1,-1,19369.710663875,unknown,2,2025-04-21T15:54:17.318+03:00,2025-04-20T21:57:49.637+03:00,6727,0.976288,0,0,5522.566,5,6,2025-04-21T15:44:52.413+03:00,766932860.0002184,0,-40.25,100.2154,1,0.4,2025-04-21T15:54:20.605+03:00,83,1.383333333333333,2025-04-21T12:30:07.995+03:00,0.02023345852159405,0
2025-04-21T15:54:32.934+03:00,1745240072.248771,40.95226103126694,29.14027780705777,76.23357,-1,-1,-1,-1,30,23.02324769301786,-9999,19385.32186425,-0.666656494140625,0.489654541015625,-0.545806884765625,19385.31178825,2.381119672771641,-0.8836289114820355,-0.5162120596846038,0.01838856749236584,-0.01151514425873756,-0.01087799109518528,0.0008512735366821289,-0.003782391548156738,0.006494462490081787,XArbitraryZVertical,-0.2982525083432893,0.367695410143326,-0.8521131283648177,-0.2230439560635636,-0.6723142266273499,0.4935893416404724,-0.5516910552978516,0,0,0,-1,-1,19369.710663875,unknown,2,2025-04-21T15:54:17.318+03:00,2025-04-20T21:57:49.637+03:00,6727,0.976288,0,0,5522.566,5,6,2025-04-21T15:44:52.413+03:00,766932860.0002184,0,-40.25,100.2154,1,0.4,2025-04-21T15:54:20.605+03:00,83,1.383333333333333,2025-04-21T12:30:07.995+03:00,0.02023345852159405,0
2025-04-21T15:54:32.944+03:00,1745240072.248771,40.95226103126694,29.14027780705777,76.23357,-1,-1,-1,-1,30,23.02324769301786,-9999,19385.33193925,-0.6671295166015625,0.4902801513671875,-0.546875,19385.32186425,2.381195416235077,-0.883714905637969,-0.5160508891023416,0.01415420882403851,-0.01398542523384094,-0.009984732605516911,0.005125820636749268,-0.003733724355697632,0.006593942642211914,XArbitraryZVertical,-0.2983373664561229,0.3676315621617313,-0.8521136676004546,-0.2230337437508716,-0.6724231839179993,0.4934491515159607,-0.5516837239265442,0,0,0,-1,-1,19369.710663875,unknown,2,2025-04-21T15:54:17.318+03:00,2025-04-20T21:57:49.637+03:00,6727,0.976288,0,0,5522.566,5,6,2025-04-21T15:44:52.413+03:00,766932860.0002184,0,-40.25,100.2154,1,0.4,2025-04-21T15:54:20.605+03:00,83,1.383333333333333,2025-04-21T12:30:07.995+03:00,0.02023345852159405,0
2025-04-21T15:54:32.954+03:00,1745240072.248771,40.95226103126694,29.14027780705777,76.23357,-1,-1,-1,-1,30,23.02324769301786,-9999,19385.34201525,-0.6680908203125,0.4905242919921875,-0.5430755615234375,19385.33193925,2.381252108337483,-0.8838261946271053,-0.5158938351941856,0.01506234612315893,-0.01271056942641735,-0.007194539066404104,0.006330490112304688,-0.004146456718444824,0.004615068435668945,XArbitraryZVertical,-0.2984286416119737,0.3675749606307496,-0.8521081275915369,-0.2230259665131918,-0.6725444793701172,0.4933125376701355,-0.5516579747200012,0,0,0,-1,-1,19369.710663875,unknown,2,2025-04-21T15:54:17.318+03:00,2025-04-20T21:57:49.637+03:00,6727,0.976288,0,0,5522.566,5,6,2025-04-21T15:44:52.413+03:00,766932860.0002184,0,-40.25,100.2154,1,0.4,2025-04-21T15:54:20.605+03:00,83,1.383333333333333,2025-04-21T12:30:07.995+03:00,0.02023345852159405,0
2025-04-21T15:54:32.964+03:00,1745240072.248771,40.95226103126694,29.14027780705777,76.23357,-1,-1,-1,-1,30,23.02324769301786,-9999,19385.35209125,-0.669677734375,0.49200439453125,-0.5403289794921875,19385.34201525,2.381307442996089,-0.8839199699124597,-0.5157509568482807,0.01288900710642338,-0.008968763053417206,-0.008083468303084373,0.004681944847106934,-0.003121912479400635,0.0068092942237854,XArbitraryZVertical,-0.2985091867378934,0.3675220705525491,-0.8521046037273537,-0.2230186542298747,-0.6726506352424622,0.4931882619857788,-0.5516395568847656,0,0,0,-1,-1,19369.710663875,unknown,2,2025-04-21T15:54:17.318+03:00,2025-04-20T21:57:49.637+03:00,6727,0.976288,0,0,5522.566,5,6,2025-04-21T15:44:52.413+03:00,766932872.8895561,0,-40.16,100.2136,1,0.4,2025-04-21T15:54:20.605+03:00,83,1.383333333333333,2025-04-21T12:30:07.995+03:00,0.02023345852159405,0
2025-04-21T15:54:32.974+03:00,1745240072.248771,40.95226103126694,29.14027780705777,76.23357,-1,-1,-1,-1,30,23.02324769301786,-9999,19385.36216725,-0.67431640625,0.4945068359375,-0.5426025390625,19385.35209125,2.381377660381768,-0.8839670390575287,-0.5156061532905556,0.01859003677964211,-0.002066914457827806,-0.00743365753442049,0.003908634185791016,-0.002019375562667847,0.01120215654373169,XArbitraryZVertical,-0.2985729626836542,0.3674610039412426,-0.8521097798583698,-0.2230140663703756,-0.6727318167686462,0.493062287569046,-0.5516532063484192,0,0,0,-1,-1,19369.710663875,unknown,2,2025-04-21T15:54:17.318+03:00,2025-04-20T21:57:49.637+03:00,6727,0.976288,0,0,5522.566,5,6,2025-04-21T15:44:52.413+03:00,766932872.8895561,0,-40.16,100.2136,1,0.4,2025-04-21T15:54:20.605+03:00,83,1.383333333333333,2025-04-21T12:30:07.995+03:00,0.02023345852159405,0
2025-04-21T15:54:32.984+03:00,1745240072.248771,40.95226103126694,29.14027780705777,76.23357,-1,-1,-1,-1,30,23.02324769301786,-9999,19385.37224225,-0.6736907958984375,0.497100830078125,-0.5429229736328125,19385.36216725,2.381482511982872,-0.8839351596930362,-0.5154305478990936,0.02166791819036007,-0.00333744240924716,-0.007636690512299538,6.699562072753906e-05,0.0008189678192138672,0.01036292314529419,XArbitraryZVertical,-0.2986159750030501,0.3673740782078991,-0.8521316018778485,-0.2230165640422876,-0.672781229019165,0.4929095208644867,-0.5517295598983765,0,0,0,-1,-1,19369.710663875,unknown,2,2025-04-21T15:54:17.318+03:00,2025-04-20T21:57:49.637+03:00,6727,0.976288,0,0,5522.566,5,6,2025-04-21T15:44:52.413+03:00,766932872.8895561,0,-40.16,100.2136,1,0.4,2025-04-21T15:54:20.605+03:00,83,1.383333333333333,2025-04-21T12:30:07.995+03:00,0.02023345852159405,0
2025-04-21T15:54:32.995+03:00,1745240072.248771,40.95226103126694,29.14027780705777,76.23357,-1,-1,-1,-1,30,23.02324769301786,-9999,19385.38231825,-0.6726837158203125,0.4934844970703125,-0.5418243408203125,19385.37224225,2.381620016334251,-0.8838938652565245,-0.5152407162263875,0.02252359129488468,0.001496461685746908,-0.00798077043145895,-0.002233266830444336,0.003730714321136475,0.008435904979705811,XArbitraryZVertical,-0.2986640266221287,0.367275734751283,-0.852158822624528,-0.2230100969486797,-0.6728307604789734,0.4927443265914917,-0.5518166422843933,0,0,0,-1,-1,19369.710663875,unknown,2,2025-04-21T15:54:17.318+03:00,2025-04-20T21:57:49.637+03:00,6727,0.976288,0,0,5522.566,5,6,2025-04-21T15:44:52.413+03:00,766932872.8895561,0,-40.16,100.2136,1,0.4,2025-04-21T15:54:20.605+03:00,83,1.383333333333333,2025-04-21T12:30:07.995+03:00,0.02023345852159405,0
2025-04-21T15:54:33.004+03:00,1745240072.248771,40.95226103126694,29.14027780705777,76.23357,-1,-1,-1,-1,30,23.02324769301786,-9999,19385.39239425,-0.671173095703125,0.4893951416015625,-0.5426025390625,19385.38231825,2.381767852366092,-0.8838264853097245,-0.5150100225898725,0.02480039559304714,3.178976476192474e-05,-0.008287001401185989,0.0001673102378845215,0.002680271863937378,0.01058274507522583,XArbitraryZVertical,-0.2987114826329835,0.3671571656246204,-0.8521924223196853,-0.2230137521306047,-0.672881543636322,0.4925435781478882,-0.5519341230392456,0,0,0,-1,-1,19369.710663875,unknown,2,2025-04-21T15:54:17.318+03:00,2025-04-20T21:57:49.637+03:00,6727,0.976288,0,0,5522.566,5,6,2025-04-21T15:44:52.413+03:00,766932872.8895561,0,-40.16,100.2136,1,0.4,2025-04-21T15:54:20.605+03:00,83,1.383333333333333,2025-04-21T12:30:07.995+03:00,0.02023345852159405,0
2025-04-21T15:54:33.015+03:00,1745240072.248771,40.95226103126694,29.14027780705777,76.23357,-1,-1,-1,-1,30,23.02324769301786,-9999,19385.40246925,-0.6667633056640625,0.487152099609375,-0.53863525390625,19385.39239425,2.381902170607892,-0.8837871101020158,-0.5148487056198556,0.01209977921098471,-0.004488127306103706,-0.004474951885640621,0.001214087009429932,-0.001360237598419189,0.009347379207611084,XArbitraryZVertical,-0.298753654389123,0.3670704883398902,-0.8522181668009179,-0.2230016308760189,-0.6729212403297424,0.4924031794071198,-0.5520110130310059,0,0,0,-1,-1,19369.710663875,unknown,2,2025-04-21T15:54:17.318+03:00,2025-04-20T21:57:49.637+03:00,6727,0.976288,0,0,5522.566,5,6,2025-04-21T15:44:52.413+03:00,766932872.8895561,0,-40.16,100.2136,1,0.4,2025-04-21T15:54:20.605+03:00,83,1.383333333333333,2025-04-21T12:30:07.995+03:00,0.02023345852159405,0
2025-04-21T15:54:33.025+03:00,1745240072.248771,40.95226103126694,29.14027780705777,76.23357,-1,-1,-1,-1,30,23.02324769301786,-9999,19385.41254525,-0.66925048828125,0.4849090576171875,-0.5379180908203125,19385.40246925,2.381955433679183,-0.8838134661023734,-0.5147814174918485,0.002814269158989191,-0.005157512612640858,-0.00262052658945322,0.004656970500946045,-0.005146890878677368,0.01115119457244873,XArbitraryZVertical,-0.2987889660886439,0.3670395141907098,-0.8522222001355063,-0.2229898912928721,-0.6729613542556763,0.4923446178436279,-0.5520142912864685,0,0,0,-1,-1,19369.710663875,unknown,2,2025-04-21T15:54:17.318+03:00,2025-04-20T21:57:49.637+03:00,6727,0.976288,0,0,5522.566,5,6,2025-04-21T15:44:52.413+03:00,766932872.8895561,0,-40.16,100.2136,1,0.4,2025-04-21T15:54:20.605+03:00,83,1.383333333333333,2025-04-21T12:30:07.995+03:00,0.02023345852159405,0
2025-04-21T15:54:33.035+03:00,1745240072.248771,40.95226103126694,29.14027780705777,76.23357,-1,-1,-1,-1,30,23.02324769301786,-9999,19385.42262125,-0.6696014404296875,0.48651123046875,-0.544189453125,19385.41254525,2.381917803128513,-0.8838480739988812,-0.5147655628525862,-0.006234352942556143,-0.0004935190081596375,-0.001405592425726354,0.004682064056396484,-0.006521642208099365,0.01468813419342041,XArbitraryZVertical,-0.2988001848553701,0.3670428793964647,-0.8522132986600396,-0.2230032747554827,-0.6729865074157715,0.4923308193683624,-0.5519959330558777,0,0,0,-1,-1,19369.710663875,unknown,2,2025-04-21T15:54:17.318+03:00,2025-04-20T21:57:49.637+03:00,6727,0.976288,0,0,5522.566,5,6,2025-04-21T15:44:52.413+03:00,766932872.8895561,0,-40.16,100.2136,1,0.4,2025-04-21T15:54:20.605+03:00,83,1.383333333333333,2025-04-21T12:30:07.995+03:00,0.02023345852159405,0
2025-04-21T15:54:33.045+03:00,1745240072.248771,40.95226103126694,29.14027780705777,76.23357,-1,-1,-1,-1,30,23.02324769301786,-9999,19385.43269725,-0.668121337890625,0.4910888671875,-0.548431396484375,19385.42262125,2.381813260817193,-0.8839238778886637,-0.5147835573922178,-0.007869134657084942,-0.004304102621972561,-0.004837674554437399,0.003465771675109863,-0.007666438817977905,0.01051163673400879,XArbitraryZVertical,-0.2988094987159901,0.3670738936961054,-0.8521897227065609,-0.2230296072613248,-0.6730214357376099,0.492346465587616,-0.5519393086433411,0,0,0,-1,-1,19369.710663875,unknown,2,2025-04-21T15:54:17.318+03:00,2025-04-20T21:57:49.637+03:00,6727,0.976288,0,0,5522.566,5,6,2025-04-21T15:44:52.413+03:00,766932872.8895561,0,-40.16,100.2136,1,0.4,2025-04-21T15:54:20.605+03:00,83,1.383333333333333,2025-04-21T12:30:07.995+03:00,0.02023345852159405,0
2025-04-21T15:54:33.055+03:00,1745240072.248771,40.95226103126694,29.14027780705777,76.23357,-1,-1,-1,-1,30,23.02324769301786,-9999,19385.44277225,-0.6697235107421875,0.4967803955078125,-0.550323486328125,19385.43269725,2.381718131205781,-0.8840599973771376,-0.5147757803209101,-0.004681597463786602,-0.008983276784420013,-0.006012927740812302,0.0041542649269104,-0.003768712282180786,0.004776656627655029,XArbitraryZVertical,-0.2988517133290063,0.3671002891350546,-0.8521589667761483,-0.2230469164760422,-0.6730995178222656,0.492339700460434,-0.5518500804901123,0,0,0,-1,-1,19369.710663875,unknown,2,2025-04-21T15:54:17.318+03:00,2025-04-20T21:57:49.637+03:00,6727,0.976288,0,0,5522.566,5,6,2025-04-21T15:44:52.413+03:00,766932872.8895561,0,-40.16,100.2136,1,0.4,2025-04-21T15:54:20.605+03:00,83,1.383333333333333,2025-04-21T12:30:07.995+03:00,0.02023345852159405,0
2025-04-21T15:54:33.066+03:00,1745240072.248771,40.95226103126694,29.14027780705777,76.23357,-1,-1,-1,-1,30,23.02324769301786,-9999,19385.45284825,-0.671051025390625,0.4954071044921875,-0.5529327392578125,19385.44277225,2.38163238465253,-0.8841946074317393,-0.5147260759218866,0.001636353088542819,-0.004122608341276646,-0.009504131972789764,0.004857838153839111,0.003476709127426147,0.001878738403320312,XArbitraryZVertical,-0.2989038564466864,0.3671089431998094,-0.8521308640977968,-0.223070533666121,-0.6731927990913391,0.492296427488327,-0.5517750382423401,0,0,0,-1,-1,19369.710663875,unknown,2,2025-04-21T15:54:17.318+03:00,2025-04-20T21:57:49.637+03:00,6727,0.976288,0,0,5522.566,5,6,2025-04-21T15:44:52.413+03:00,766932872.8895561,0,-40.16,100.2136,1,0.4,2025-04-21T15:54:20.605+03:00,83,1.383333333333333,2025-04-21T12:30:07.995+03:00,0.02023345852159405,0
2025-04-21T15:54:33.076+03:00,1745240072.248771,40.95226103126694,29.14027780705777,76.23357,-1,-1,-1,-1,30,23.02324769301786,-9999,19385.46292425,-0.6704254150390625,0.4932708740234375,-0.551025390625,19385.45284825,2.381592470857622,-0.8842955107118492,-0.514610370630746,0.007980269379913807,-0.01002923306077719,-0.01220910437405109,0.00219571590423584,0.004920214414596558,-0.0007776021957397461,XArbitraryZVertical,-0.2989641247670329,0.3670815393953199,-0.8521148162815345,-0.2230961943246564,-0.6732925176620483,0.492195725440979,-0.55174320936203,0,0,0,-1,-1,19369.710663875,unknown,2,2025-04-21T15:54:17.318+03:00,2025-04-20T21:57:49.637+03:00,6727,0.976288,0,0,5522.566,5,6,2025-04-21T15:44:52.413+03:00,766932872.8895561,0,-40.16,100.2136,1,0.4,2025-04-21T15:54:20.605+03:00,83,1.383333333333333,2025-04-21T12:30:07.995+03:00,0.02023345852159405,0
2025-04-21T15:54:33.088+03:00,1745240072.248771,40.95226103126694,29.14027780705777,76.23357,-1,-1,-1,-1,30,23.02324769301786,-9999,19385.47300025,-0.6700286865234375,0.492218017578125,-0.5455780029296875,19385.46292425,2.381583523373771,-0.8844378739160393,-0.5144648690754619,0.01137699745595455,-0.0125359334051609,-0.01218307204544544,0.002909481525421143,0.000881195068359375,-0.001148521900177002,XArbitraryZVertical,-0.2990541173095425,0.3670426449018969,-0.8520968315996617,-0.2231079324027009,-0.6734263896942139,0.4920690655708313,-0.5516926646232605,0,0,0,-1,-1,19369.710663875,unknown,2,2025-04-21T15:54:17.318+03:00,2025-04-20T21:57:49.637+03:00,6727,0.976288,0,0,5522.566,5,6,2025-04-21T15:44:52.413+03:00,766932872.8895561,0,-40.16,100.2136,1,0.4,2025-04-21T15:54:20.605+03:00,83,1.383333333333333,2025-04-21T12:30:07.995+03:00,0.02023345852159405,0
2025-04-21T15:54:33.096+03:00,1745240072.248771,40.95226103126694,29.14027780705777,76.23357,-1,-1,-1,-1,30,23.02324769301786,-9999,19385.48307525,-0.671966552734375,0.486572265625,-0.5455474853515625,19385.47300025,2.381546627366872,-0.8845995558771075,-0.5143404236426988,0.001958995126187801,-0.01063097454607487,-0.01267229486256838,0.003107070922851562,0.0008217096328735352,0.003999829292297363,XArbitraryZVertical,-0.299142665569527,0.3670182042708054,-0.8520723224174773,-0.2231232874674203,-0.6735630035400391,0.4919607043266296,-0.5516226291656494,0,0,0,-1,-1,19369.710663875,unknown,2,2025-04-21T15:54:17.318+03:00,2025-04-20T21:57:49.637+03:00,6727,0.976288,0,0,5522.566,5,6,2025-04-21T15:44:52.413+03:00,766932872.8895561,0,-40.16,100.2136,1,0.4,2025-04-21T15:54:20.605+03:00,83,1.383333333333333,2025-04-21T12:30:07.995+03:00,0.02023345852159405,0
2025-04-21T15:54:33.108+03:00,1745240072.248771,40.95226103126694,29.14027780705777,76.23357,-1,-1,-1,-1,30,23.02324769301786,-9999,19385.49315125,-0.6732635498046875,0.4831390380859375,-0.548065185546875,19385.48307525,2.381439776889982,-0.8847423696577111,-0.514240995496727,-0.003291360335424542,-0.008181065320968628,-0.01404259167611599,0.003284752368927002,-0.00208243727684021,0.007489979267120361,XArbitraryZVertical,-0.2992050321073934,0.3670117770704058,-0.8520420400348527,-0.2231659916123273,-0.6736796498298645,0.4918741583824158,-0.5515574216842651,0,0,0,-1,-1,19369.710663875,unknown,2,2025-04-21T15:54:17.318+03:00,2025-04-20T21:57:49.637+03:00,6727,0.976288,0,0,5522.566,5,6,2025-04-21T15:44:52.413+03:00,766932872.8895561,0,-40.16,100.2136,1,0.4,2025-04-21T15:54:20.605+03:00,83,1.383333333333333,2025-04-21T12:30:07.995+03:00,0.02023345852159405,0
2025-04-21T15:54:33.116+03:00,1745240072.248771,40.95226103126694,29.14027780705777,76.23357,-1,-1,-1,-1,30,23.02324769301786,-9999,19385.50322725,-0.6746978759765625,0.4853363037109375,-0.5451202392578125,19385.49315125,2.381298851385036,-0.8849152934853374,-0.5141589774425722,-0.007428580895066261,-0.008335262537002563,-0.0128966337069869,0.0008630752563476562,-0.008297652006149292,0.00375211238861084,XArbitraryZVertical,-0.2992702895153534,0.3670205321184415,-0.8520028789677261,-0.2232135390134201,-0.6738061904907227,0.4918027520179749,-0.5514664649963379,0,0,0,-1,-1,19369.710663875,unknown,2,2025-04-21T15:54:17.318+03:00,2025-04-20T21:57:49.637+03:00,6727,0.976288,0,0,5522.566,5,6,2025-04-21T15:44:52.413+03:00,766932872.8895561,0,-40.16,100.2136,1,0.4,2025-04-21T15:54:20.605+03:00,83,1.383333333333333,2025-04-21T12:30:07.995+03:00,0.02023345852159405,0
2025-04-21T15:54:33.126+03:00,1745240072.248771,40.95226103126694,29.14027780705777,76.23357,-1,-1,-1,-1,30,23.02324769301786,-9999,19385.51330325,-0.677703857421875,0.488800048828125,-0.54345703125,19385.50322725,2.381153900473549,-0.8850382093553092,-0.5140793436687878,-0.00156310189049691,-0.0009539127349853516,-0.0141553096473217,0.0007017850875854492,-0.007434844970703125,0.005113184452056885,XArbitraryZVertical,-0.2993129864844315,0.3670252368079227,-0.8519706874548523,-0.2232714462152833,-0.6739042997360229,0.4917334020137787,-0.5514084100723267,0,0,0,-1,-1,19369.710663875,unknown,2,2025-04-21T15:54:17.318+03:00,2025-04-20T21:57:49.637+03:00,6727,0.976288,0,0,5522.566,5,6,2025-04-21T15:44:52.413+03:00,766932872.8895561,0,-40.16,100.2136,1,0.4,2025-04-21T15:54:20.605+03:00,83,1.383333333333333,2025-04-21T12:30:07.995+03:00,0.02023345852159405,0
2025-04-21T15:54:33.136+03:00,1745240072.248771,40.95226103126694,29.14027780705777,76.23357,-1,-1,-1,-1,30,23.02324769301786,-9999,19385.52337825,-0.6745147705078125,0.492889404296875,-0.543914794921875,19385.51330325,2.381034356067324,-0.8850643252886299,-0.5139863436771713,-0.0003391132049728185,0.007492036558687687,-0.01416569575667381,-0.0031852126121521,-0.003371328115463257,0.007687985897064209,XArbitraryZVertical,-0.2993219869404784,0.3670101862850409,-0.8519561465276888,-0.2233393393971515,-0.6739540100097656,0.4916524291038513,-0.551419734954834,0,0,0,-1,-1,19369.710663875,unknown,2,2025-04-21T15:54:17.318+03:00,2025-04-20T21:57:49.637+03:00,6727,0.976288,0,0,5522.566,5,6,2025-04-21T15:44:52.413+03:00,766932872.8895561,0,-40.16,100.2136,1,0.4,2025-04-21T15:54:20.605+03:00,83,1.383333333333333,2025-04-21T12:30:07.995+03:00,0.02023345852159405,0
2025-04-21T15:54:33.146+03:00,1745240072.248771,40.95226103126694,29.14027780705777,76.23357,-1,-1,-1,-1,30,23.02324769301786,-9999,19385.53345425,-0.668487548828125,0.4972686767578125,-0.5461578369140625,19385.52337825,2.380955169271207,-0.8850066158235914,-0.5138681044061114,0.007297967094928026,0.007629122585058212,-0.01580037735402584,-0.001981854438781738,-0.0004760026931762695,0.00759589672088623,XArbitraryZVertical,-0.2993080007219868,0.3669699992252728,-0.8519595100827634,-0.2234115158190305,-0.6739672422409058,0.4915494620800018,-0.5514954924583435,0,0,0,-1,-1,19369.710663875,unknown,2,2025-04-21T15:54:17.318+03:00,2025-04-20T21:57:49.637+03:00,6727,0.976288,0,0,5522.566,5,6,2025-04-21T15:44:52.413+03:00,766932872.8895561,0,-40.16,100.2136,1,0.4,2025-04-21T15:54:20.605+03:00,83,1.383333333333333,2025-04-21T12:30:07.995+03:00,0.02023345852159405,0
2025-04-21T15:54:33.156+03:00,1745240072.248771,40.95226103126694,29.14027780705777,76.23357,-1,-1,-1,-1,30,23.02324769301786,-9999,19385.54353025,-0.66552734375,0.4954833984375,-0.54827880859375,19385.53345425,2.3809388876195,-0.8849399911583977,-0.5137137254568106,0.01315212808549404,0.002973384456709027,-0.01569997705519199,0.002709329128265381,0.004648059606552124,0.00623929500579834,XArbitraryZVertical,-0.2993094649244525,0.3669054639754503,-0.8519722713716937,-0.2234669668004403,-0.6739892363548279,0.4914149940013885,-0.5515884757041931,0,0,0,-1,-1,19369.710663875,unknown,2,2025-04-21T15:54:17.318+03:00,2025-04-20T21:57:49.637+03:00,6727,0.976288,0,0,5522.566,5,6,2025-04-21T15:44:52.413+03:00,766932872.8895561,0,-40.16,100.2136,1,0.4,2025-04-21T15:54:20.605+03:00,83,1.383333333333333,2025-04-21T12:30:07.995+03:00,0.02023345852159405,0
2025-04-21T15:54:33.166+03:00,1745240072.248771,40.95226103126694,29.14027780705777,76.23357,-1,-1,-1,-1,30,23.02324769301786,-9999,19385.55360625,-0.6676025390625,0.4910430908203125,-0.548065185546875,19385.54353025,2.380945574687074,-0.8849002375931129,-0.5135363872530456,0.009348735213279724,0.002549808472394943,-0.01353156380355358,0.007622361183166504,0.006053745746612549,0.004139244556427002,XArbitraryZVertical,-0.2993314793960494,0.3668316360792015,-0.851984239859738,-0.2235130683358397,-0.6740347146987915,0.4912605583667755,-0.5516704320907593,0,0,0,-1,-1,19369.710663875,unknown,2,2025-04-21T15:54:17.318+03:00,2025-04-20T21:57:49.637+03:00,6727,0.976288,0,0,5522.566,5,6,2025-04-21T15:44:52.413+03:00,766932872.8895561,0,-40.16,100.2136,1,0.4,2025-04-21T15:54:20.605+03:00,83,1.383333333333333,2025-04-21T12:30:07.995+03:00,0.02023345852159405,0
2025-04-21T15:54:33.176+03:00,1745240072.248771,40.95226103126694,29.14027780705777,76.23357,-1,-1,-1,-1,30,23.02324769301786,-9999,19385.56368125,-0.66912841796875,0.4860992431640625,-0.5471649169921875,19385.55360625,2.380872356044361,-0.8849255427578363,-0.5134196624919239,-0.00114651711191982,0.0001617521047592163,-0.01243966724723577,0.006978750228881836,0.0007843077182769775,0.003777027130126953,XArbitraryZVertical,-0.2993536803182558,0.3668004119729245,-0.8519756932557907,-0.2235669728195599,-0.6740930080413818,0.4911588728427887,-0.5516896843910217,0,0,0,-1,-1,19369.710663875,unknown,2,2025-04-21T15:54:17.318+03:00,2025-04-20T21:57:49.637+03:00,6727,0.976288,0,0,5522.566,5,6,2025-04-21T15:44:52.413+03:00,766932872.8895561,0,-40.16,100.2136,1,0.4,2025-04-21T15:54:20.605+03:00,83,1.383333333333333,2025-04-21T12:30:07.995+03:00,0.02023345852159405,0
2025-04-21T15:54:33.186+03:00,1745240072.248771,40.95226103126694,29.14027780705777,76.23357,-1,-1,-1,-1,30,23.02324769301786,-9999,19385.57375725,-0.6728515625,0.4830780029296875,-0.549041748046875,19385.56368125,2.380697920051935,-0.8850408226899638,-0.5133700099298467,-0.01059414818882942,-0.003417869564145803,-0.01649875938892365,0.005443811416625977,-0.002987116575241089,0.00453871488571167,XArbitraryZVertical,-0.2993813528082382,0.3668202634262031,-0.8519404166069672,-0.2236318126719988,-0.674175500869751,0.4911156296730042,-0.5516273975372314,0,0,0,-1,-1,19369.710663875,unknown,2,2025-04-21T15:54:17.318+03:00,2025-04-20T21:57:49.637+03:00,6727,0.976288,0,0,5522.566,5,6,2025-04-21T15:44:52.413+03:00,766932872.8895561,0,-40.16,100.2136,1,0.4,2025-04-21T15:54:20.605+03:00,83,1.383333333333333,2025-04-21T12:30:07.995+03:00,0.02023345852159405,0
2025-04-21T15:54:33.196+03:00,1745240072.248771,40.95226103126694,29.14027780705777,76.23357,-1,-1,-1,-1,30,23.02324769301786,-9999,19385.58383325,-0.676483154296875,0.487030029296875,-0.54840087890625,19385.57375725,2.380464140701719,-0.885155487046371,-0.5133203711134786,-0.01475294027477503,0.004006491042673588,-0.01374318543821573,0.003252387046813965,-0.007597833871841431,0.003134071826934814,XArbitraryZVertical,-0.2993979061179049,0.366848944570578,-0.8518985211261884,-0.2237219396094408,-0.6742575764656067,0.4910723865032196,-0.5515654683113098,0,0,0,-1,-1,19369.710663875,unknown,2,2025-04-21T15:54:17.318+03:00,2025-04-20T21:57:49.637+03:00,6727,0.976288,0,0,5522.566,5,6,2025-04-21T15:44:52.413+03:00,766932872.8895561,0,-40.16,100.2136,1,0.4,2025-04-21T15:54:20.605+03:00,83,1.383333333333333,2025-04-21T12:30:07.995+03:00,0.02023345852159405,0
2025-04-21T15:54:33.206+03:00,1745240072.248771,40.95226103126694,29.14027780705777,76.23357,-1,-1,-1,-1,30,23.02324769301786,-9999,19385.59390925,-0.6755523681640625,0.4890594482421875,-0.5482635498046875,19385.58383325,2.380197430495619,-0.8852368956899145,-0.513303800914111,-0.01698054186999798,0.00883360393345356,-0.01577151566743851,-0.001594483852386475,-0.006438970565795898,0.003374218940734863,XArbitraryZVertical,-0.2993871511248337,0.3668915881102597,-0.8518570452316152,-0.2238245969175839,-0.6743088364601135,0.491057962179184,-0.5515158176422119,0,0,0,-1,-1,19369.710663875,unknown,2,2025-04-21T15:54:17.318+03:00,2025-04-20T21:57:49.637+03:00,6727,0.976288,0,0,5522.566,5,6,2025-04-21T15:44:52.413+03:00,766932872.8895561,0,-40.16,100.2136,1,0.4,2025-04-21T15:54:20.605+03:00,83,1.383333333333333,2025-04-21T12:30:07.995+03:00,0.02023345852159405,0
2025-04-21T15:54:33.216+03:00,1745240072.248771,40.95226103126694,29.14027780705777,76.23357,-1,-1,-1,-1,30,23.02324769301786,-9999,19385.60398425,-0.6730499267578125,0.4864349365234375,-0.548858642578125,19385.59390925,2.3799016680045,-0.8853141154386672,-0.5133034153464624,-0.02071029879152775,0.008296177722513676,-0.01612704806029797,-0.00190269947052002,-0.001906812191009521,0.003474891185760498,XArbitraryZVertical,-0.299365902169867,0.3669443579615605,-0.851812313316986,-0.2239363739223968,-0.6743515133857727,0.4910576045513153,-0.551463782787323,0,0,0,-1,-1,19369.710663875,unknown,2,2025-04-21T15:54:17.318+03:00,2025-04-20T21:57:49.637+03:00,6727,0.976288,0,0,5522.566,5,6,2025-04-21T15:44:52.413+03:00,766932872.8895561,0,-40.16,100.2136,1,0.4,2025-04-21T15:54:20.605+03:00,83,1.383333333333333,2025-04-21T12:30:07.995+03:00,0.02023345852159405,0
2025-04-21T15:54:33.226+03:00,1745240072.248771,40.95226103126694,29.14027780705777,76.23357,-1,-1,-1,-1,30,23.02324769301786,-9999,19385.61406025,-0.6717681884765625,0.4889373779296875,-0.5479888916015625,19385.60398425,2.379587011396319,-0.8854257531687746,-0.5133121692228219,-0.01944982446730137,0.004566420800983906,-0.01610041595995426,0.0008105635643005371,-0.003943800926208496,0.002786517143249512,XArbitraryZVertical,-0.2993538026554985,0.3670073304127198,-0.8517601924862037,-0.2240479764588276,-0.674409806728363,0.4910652339458466,-0.5513858199119568,0,0,0,-1,-1,19369.710663875,unknown,2,2025-04-21T15:54:17.318+03:00,2025-04-20T21:57:49.637+03:00,6727,0.976288,0,0,5522.566,5,6,2025-04-21T15:44:52.413+03:00,766932872.8895561,0,-40.16,100.2136,1,0.4,2025-04-21T15:54:20.605+03:00,83,1.383333333333333,2025-04-21T12:30:07.995+03:00,0.02023345852159405,0
2025-04-21T15:54:33.237+03:00,1745240072.248771,40.95226103126694,29.14027780705777,76.23357,-1,-1,-1,-1,30,23.02324769301786,-9999,19385.62413625,-0.6668548583984375,0.49444580078125,-0.5471954345703125,19385.61406025,2.379319856641432,-0.8855473009932311,-0.5133045283909924,-0.01515334658324718,-0.004099239129573107,-0.01548975240439177,0.00223851203918457,-0.00308266282081604,0.00247800350189209,XArbitraryZVertical,-0.2993581809860718,0.3670579926169272,-0.8517122618732997,-0.2241411953467178,-0.6744797229766846,0.4910585880279541,-0.5513062477111816,0,0,0,-1,-1,19369.710663875,unknown,2,2025-04-21T15:54:17.318+03:00,2025-04-20T21:57:49.637+03:00,6727,0.976288,0,0,5522.566,5,6,2025-04-21T15:44:52.413+03:00,766932872.8895561,0,-40.16,100.2136,1,0.4,2025-04-21T15:54:20.605+03:00,83,1.383333333333333,2025-04-21T12:30:07.995+03:00,0.02023345852159405,0
2025-04-21T15:54:33.247+03:00,1745240072.248771,40.95226103126694,29.14027780705777,76.23357,-1,-1,-1,-1,30,23.02324769301786,-9999,19385.63421225,-0.6626434326171875,0.4957122802734375,-0.546356201171875,19385.62413625,2.379108762668,-0.8856740075373178,-0.5132831252984131,-0.01018195692449808,-0.003327388316392899,-0.01601809076964855,0.005200386047363281,0.0008575022220611572,0.004520177841186523,XArbitraryZVertical,-0.2993779530743196,0.3670955439001682,-0.8516702655700089,-0.224212867125507,-0.6745576858520508,0.4910399317741394,-0.5512273907661438,0,0,0,-1,-1,19369.710663875,unknown,2,2025-04-21T15:54:17.318+03:00,2025-04-20T21:57:49.637+03:00,6727,0.976288,0,0,5522.566,5,6,2025-04-21T15:44:52.413+03:00,766932872.8895561,0,-40.16,100.2136,1,0.4,2025-04-21T15:54:20.605+03:00,83,1.383333333333333,2025-04-21T12:30:07.995+03:00,0.02023345852159405,0
2025-04-21T15:54:33.257+03:00,1745240072.248771,40.95226103126694,29.14027780705777,76.23357,-1,-1,-1,-1,30,23.02324769301786,-9999,19385.64428825,-0.6618194580078125,0.4921417236328125,-0.544219970703125,19385.63421225,2.378907949289679,-0.8857963847233958,-0.513201446599709,-0.007939841598272324,-0.004284261725842953,-0.01774701476097107,0.0117533802986145,0.005368947982788086,0.004417240619659424,XArbitraryZVertical,-0.2994106032009211,0.3671078515547679,-0.851631834913684,-0.2242951313428946,-0.6746562123298645,0.4909687936306,-0.5511702299118042,0,0,0,-1,-1,19369.710663875,unknown,2,2025-04-21T15:54:17.318+03:00,2025-04-20T21:57:49.637+03:00,6727,0.976288,0,0,5522.566,5,6,2025-04-21T15:44:52.413+03:00,766932872.8895561,0,-40.16,100.2136,1,0.4,2025-04-21T15:54:20.605+03:00,83,1.383333333333333,2025-04-21T12:30:07.995+03:00,0.02023345852159405,0
2025-04-21T15:54:33.267+03:00,1745240072.248771,40.95226103126694,29.14027780705777,76.23357,-1,-1,-1,-1,30,23.02324769301786,-9999,19385.65436325,-0.6664581298828125,0.4907989501953125,-0.5421905517578125,19385.64428825,2.378674437836164,-0.88599669599621,-0.5131329543429116,-0.01578657887876034,-0.01210410241037607,-0.01620717532932758,0.01285111904144287,0.002758324146270752,0.005493581295013428,XArbitraryZVertical,-0.2994676135139024,0.3671388890822981,-0.8515776862408925,-0.2243739390237913,-0.6747926473617554,0.4909091293811798,-0.5510563850402832,0,0,0,-1,-1,19369.710663875,unknown,2,2025-04-21T15:54:17.318+03:00,2025-04-20T21:57:49.637+03:00,6727,0.976288,0,0,5522.566,5,6,2025-04-21T15:44:52.413+03:00,766932872.8895561,0,-40.16,100.2136,1,0.4,2025-04-21T15:54:20.605+03:00,83,1.383333333333333,2025-04-21T12:30:07.995+03:00,0.02023345852159405,0
2025-04-21T15:54:33.277+03:00,1745240072.248771,40.95226103126694,29.14027780705777,76.23357,-1,-1,-1,-1,30,23.02324769301786,-9999,19385.66443925,-0.67523193359375,0.485595703125,-0.5478363037109375,19385.65436325,2.378384943616961,-0.8862139818789091,-0.5130940087122521,-0.0179195050150156,-0.005962586030364037,-0.02006289921700954,0.01081889867782593,0.0006407797336578369,0.009112715721130371,XArbitraryZVertical,-0.2995152877208198,0.367191616974034,-0.8515137937716104,-0.2244664531005233,-0.6749271750450134,0.4908751845359802,-0.5509217977523804,0,0,0,-1,-1,19369.710663875,unknown,2,2025-04-21T15:54:17.318+03:00,2025-04-20T21:57:49.637+03:00,6727,0.976288,0,0,5522.566,5,6,2025-04-21T15:44:52.413+03:00,766932872.8895561,0,-40.16,100.2136,1,0.4,2025-04-21T15:54:20.605+03:00,83,1.383333333333333,2025-04-21T12:30:07.995+03:00,0.02023345852159405,0
2025-04-21T15:54:33.287+03:00,1745240072.248771,40.95226103126694,29.14027780705777,76.23357,-1,-1,-1,-1,30,23.02324769301786,-9999,19385.67451525,-0.67449951171875,0.4853668212890625,-0.5515899658203125,19385.66443925,2.378030415832448,-0.8864171208934976,-0.5130712322545397,-0.02740228921175003,0.0001045609824359417,-0.01999741978943348,0.003325343132019043,-0.003459274768829346,0.005351006984710693,XArbitraryZVertical,-0.2995415458043584,0.3672587444947488,-0.8514442091464441,-0.2245854089469449,-0.675047755241394,0.49085533618927,-0.5507917404174805,0,0,0,-1,-1,19369.710663875,unknown,2,2025-04-21T15:54:17.318+03:00,2025-04-20T21:57:49.637+03:00,6727,0.976288,0,0,5522.566,5,6,2025-04-21T15:44:52.413+03:00,766932872.8895561,0,-40.16,100.2136,1,0.4,2025-04-21T15:54:20.605+03:00,83,1.383333333333333,2025-04-21T12:30:07.995+03:00,0.02023345852159405,0
2025-04-21T15:54:33.297+03:00,1745240072.248771,40.95226103126694,29.14027780705777,76.23357,-1,-1,-1,-1,30,23.02324769301786,-9999,19385.68459125,-0.6651763916015625,0.488189697265625,-0.5492401123046875,19385.67451525,2.37759698673231,-0.8866503841183689,-0.5131045438576889,-0.03407830372452736,-0.005010839086025953,-0.02009995095431805,-0.0006787776947021484,-0.006173849105834961,-0.0009202957153320312,XArbitraryZVertical,-0.2995541754802825,0.3673626942595187,-0.851359549250456,-0.2247191377265801,-0.6751634478569031,0.4908843636512756,-0.550623893737793,0,0,0,-1,-1,19369.710663875,unknown,2,2025-04-21T15:54:17.318+03:00,2025-04-20T21:57:49.637+03:00,6727,0.976288,0,0,5522.566,5,6,2025-04-21T15:44:52.413+03:00,766932872.8895561,0,-40.16,100.2136,1,0.4,2025-04-21T15:54:20.605+03:00,83,1.383333333333333,2025-04-21T12:30:07.995+03:00,0.02023345852159405,0
2025-04-21T15:54:33.307+03:00,1745240072.248771,40.95226103126694,29.14027780705777,76.23357,-1,-1,-1,-1,30,23.02324769301786,-9999,19385.69466625,-0.6631622314453125,0.489349365234375,-0.54803466796875,19385.68459125,2.377142052545425,-0.8869937451161163,-0.5131776127751848,-0.03875221312046051,-0.01700764708220959,-0.0207723006606102,0.006654083728790283,-0.003094196319580078,-0.0002593398094177246,XArbitraryZVertical,-0.2996011621731269,0.3674975640080576,-0.8512548606601935,-0.2248324949916913,-0.6753246784210205,0.4909480214118958,-0.5503693819046021,0,0,0,-1,-1,19369.710663875,unknown,2,2025-04-21T15:54:17.318+03:00,2025-04-20T21:57:49.637+03:00,6727,0.976288,0,0,5522.566,5,6,2025-04-21T15:44:52.413+03:00,766932872.8895561,0,-40.16,100.2136,1,0.4,2025-04-21T15:54:20.605+03:00,83,1.383333333333333,2025-04-21T12:30:07.995+03:00,0.02023345852159405,0
2025-04-21T15:54:33.317+03:00,1745240072.248771,40.95226103126694,29.14027780705777,76.23357,-1,-1,-1,-1,30,23.02324769301786,-9999,19385.70474225,-0.6651153564453125,0.494354248046875,-0.5482177734375,19385.69466625,2.376661475771063,-0.8873911068193202,-0.5132619233495632,-0.03616229072213173,-0.01592587120831013,-0.02064446918666363,0.01279151439666748,-0.001946926116943359,0.00191807746887207,XArbitraryZVertical,-0.2996639395949656,0.3676466983649608,-0.8511388830564095,-0.224944199504451,-0.6755112409591675,0.4910214841365814,-0.5500748753547668,0,0,0,-1,-1,19369.710663875,unknown,2,2025-04-21T15:54:17.318+03:00,2025-04-20T21:57:49.637+03:00,6727,0.976288,0,0,5522.566,5,6,2025-04-21T15:44:52.413+03:00,766932872.8895561,0,-40.16,100.2136,1,0.4,2025-04-21T15:54:20.605+03:00,83,1.383333333333333,2025-04-21T12:30:07.995+03:00,0.02023345852159405,0
2025-04-21T15:54:33.327+03:00,1745240072.248771,40.95226103126694,29.14027780705777,76.23357,-1,-1,-1,-1,30,23.02324769301786,-9999,19385.71481825,-0.6662445068359375,0.5002288818359375,-0.547210693359375,19385.70474225,2.376211264143198,-0.8877757236767062,-0.5132946089703896,-0.02840556763112545,-0.01544330641627312,-0.02407102473080158,0.01123589277267456,0.0008474588394165039,0.002594172954559326,XArbitraryZVertical,-0.2997378498717867,0.3677700112944806,-0.8510296671808489,-0.2250573902491728,-0.6757103204727173,0.4910499453544617,-0.5498048663139343,0,0,0,-1,-1,19369.710663875,unknown,2,2025-04-21T15:54:17.318+03:00,2025-04-20T21:57:49.637+03:00,6727,0.976288,0,0,5522.566,5,6,2025-04-21T15:44:52.413+03:00,766932872.8895561,0,-40.16,100.2136,1,0.4,2025-04-21T15:54:20.605+03:00,83,1.383333333333333,2025-04-21T12:30:07.995+03:00,0.02023345852159405,0
2025-04-21T15:54:33.354+03:00,1745240072.248771,40.95226103126694,29.14027780705777,76.23357,-1,-1,-1,-1,30,23.02324769301786,-9999,19385.72489425,-0.6703338623046875,0.502593994140625,-0.543975830078125,19385.71481825,2.375820617799373,-0.8881319681058466,-0.5132770891899497,-0.02342013083398342,-0.01822950504720211,-0.02512829937040806,0.009851455688476562,0.006447464227676392,0.001748442649841309,XArbitraryZVertical,-0.2998213255972488,0.3678619210100814,-0.8509328112787677,-0.2251622277579381,-0.6759127974510193,0.4910346865653992,-0.5495695471763611,0,0,0,-1,-1,19369.710663875,unknown,2,2025-04-21T15:54:17.318+03:00,2025-04-20T21:57:49.637+03:00,6727,0.976288,0,0,5522.566,5,6,2025-04-21T15:44:52.413+03:00,766932872.8895561,0,-40.16,100.2136,1,0.4,2025-04-21T15:54:20.605+03:00,83,1.383333333333333,2025-04-21T12:30:07.995+03:00,0.02023345852159405,0
2025-04-21T15:54:33.357+03:00,1745240072.248771,40.95226103126694,29.14027780705777,76.23357,-1,-1,-1,-1,30,23.02324769301786,-9999,19385.73496925,-0.6743011474609375,0.4952392578125,-0.5455780029296875,19385.72489425,2.37547758873936,-0.8884506187188518,-0.5132364334661597,-0.02116469852626324,-0.01588592305779457,-0.02438247948884964,0.007997334003448486,0.0115792453289032,0.004673659801483154,XArbitraryZVertical,-0.2999025067529923,0.3679335947506047,-0.8508475319129547,-0.2252590661649538,-0.6761033535003662,0.4909992516040802,-0.5493667125701904,0,0,0,-1,-1,19369.710663875,unknown,2,2025-04-21T15:54:17.318+03:00,2025-04-20T21:57:49.637+03:00,6727,0.976288,0,0,5522.566,5,6,2025-04-21T15:44:52.413+03:00,766932872.8895561,0,-40.16,100.2136,1,0.4,2025-04-21T15:54:20.605+03:00,83,1.383333333333333,2025-04-21T12:30:07.995+03:00,0.02023345852159405,0
2025-04-21T15:54:33.359+03:00,1745240072.248771,40.95226103126694,29.14027780705777,76.23357,-1,-1,-1,-1,30,23.02324769301786,-9999,19385.74504525,-0.6750030517578125,0.488861083984375,-0.5499267578125,19385.73496925,2.375074004745677,-0.8887837369620627,-0.5131928398728629,-0.02464971132576466,-0.01330771669745445,-0.02701794356107712,0.00259697437286377,0.007772058248519897,0.004645049571990967,XArbitraryZVertical,-0.2999792874024531,0.3680148828488679,-0.850753343198081,-0.2253797215680926,-0.676302969455719,0.4909612834453583,-0.5491549372673035,0,0,0,-1,-1,19369.710663875,unknown,2,2025-04-21T15:54:17.318+03:00,2025-04-20T21:57:49.637+03:00,6727,0.976288,0,0,5522.566,5,6,2025-04-21T15:44:52.413+03:00,766932872.8895561,0,-40.16,100.2136,1,0.4,2025-04-21T15:54:20.605+03:00,83,1.383333333333333,2025-04-21T12:30:07.995+03:00,0.02023345852159405,0
2025-04-21T15:54:33.368+03:00,1745240072.248771,40.95226103126694,29.14027780705777,76.23357,-1,-1,-1,-1,30,23.02324769301786,-9999,19385.75512125,-0.6700286865234375,0.4896240234375,-0.5501708984375,19385.74504525,2.374633522529994,-0.8891503928580931,-0.5131366221008763,-0.02437201142311096,-0.01502765342593193,-0.02767138555645943,0.001736283302307129,-0.0005408227443695068,0.001026928424835205,XArbitraryZVertical,-0.300066216591406,0.3681006734968955,-0.8506502748164942,-0.2255128368193531,-0.6765256524085999,0.4909123182296753,-0.5489243268966675,0,0,0,-1,-1,19369.710663875,unknown,2,2025-04-21T15:54:17.318+03:00,2025-04-20T21:57:49.637+03:00,6727,0.976288,0,0,5522.566,5,6,2025-04-21T15:44:52.413+03:00,766932872.8895561,0,-40.16,100.2136,1,0.4,2025-04-21T15:54:20.605+03:00,83,1.383333333333333,2025-04-21T12:30:07.995+03:00,0.02023345852159405,0
2025-04-21T15:54:33.377+03:00,1745240072.248771,40.95226103126694,29.14027780705777,76.23357,-1,-1,-1,-1,30,23.02324769301786,-9999,19385.76519725,-0.6677093505859375,0.4923095703125,-0.5485382080078125,19385.75512125,2.37419757019241,-0.8895333177255383,-0.5130708217338026,-0.0294695682823658,-0.02092309296131134,-0.02704207971692085,0.004550278186798096,-0.002970576286315918,-0.001683712005615234,XArbitraryZVertical,-0.3001628332666194,0.3681839801217434,-0.8505456545413392,-0.2256435007662481,-0.6767610311508179,0.4908549785614014,-0.5486856698989868,0,0,0,-1,-1,19369.710663875,unknown,2,2025-04-21T15:54:17.318+03:00,2025-04-20T21:57:49.637+03:00,6727,0.976288,0,0,5522.566,5,6,2025-04-21T15:44:52.413+03:00,766932872.8895561,0,-40.16,100.2136,1,0.4,2025-04-21T15:54:20.605+03:00,83,1.383333333333333,2025-04-21T12:30:07.995+03:00,0.02023345852159405,0
2025-04-21T15:54:33.388+03:00,1745240072.248771,40.95226103126694,29.14027780705777,76.23357,-1,-1,-1,-1,30,23.02324769301786,-9999,19385.77527225,-0.6672210693359375,0.4918212890625,-0.5469512939453125,19385.76519725,2.373738740711191,-0.8899699766803182,-0.5130547261310187,-0.0299911480396986,-0.02427481487393379,-0.02663135342299938,0.008854806423187256,0.0009191334247589111,-0.0009062290191650391,XArbitraryZVertical,-0.3002675077411445,0.3682959461602981,-0.8504287425939404,-0.225761950229243,-0.6770066618919373,0.4908409714698792,-0.548395037651062,0,0,0,-1,-1,19369.710663875,unknown,2,2025-04-21T15:54:17.318+03:00,2025-04-20T21:57:49.637+03:00,6727,0.976288,0,0,5522.566,5,6,2025-04-21T15:44:52.413+03:00,766932872.8895561,0,-40.16,100.2136,1,0.4,2025-04-21T15:54:20.605+03:00,83,1.383333333333333,2025-04-21T12:30:07.995+03:00,0.02023345852159405,0
2025-04-21T15:54:33.398+03:00,1745240072.248771,40.95226103126694,29.14027780705777,76.23357,-1,-1,-1,-1,30,23.02324769301786,-9999,19385.78534825,-0.6716156005859375,0.4932708740234375,-0.5443572998046875,19385.77527225,2.37326576352709,-0.8904087953429219,-0.5130146927836851,-0.02757699228823185,-0.02213682793080807,-0.03080532513558865,0.01020926237106323,0.001655876636505127,0.00146406888961792,XArbitraryZVertical,-0.300375591569128,0.3684011362566091,-0.8503104938953823,-0.2258915620189853,-0.6772624254226685,0.4908060729503632,-0.5481101870536804,0,0,0,-1,-1,19369.710663875,unknown,2,2025-04-21T15:54:17.318+03:00,2025-04-20T21:57:49.637+03:00,6727,0.976288,0,0,5522.566,5,6,2025-04-21T15:44:52.413+03:00,766932872.8895561,0,-40.16,100.2136,1,0.4,2025-04-21T15:54:20.605+03:00,83,1.383333333333333,2025-04-21T12:30:07.995+03:00,0.02023345852159405,0
2025-04-21T15:54:33.408+03:00,1745240072.248771,40.95226103126694,29.14027780705777,76.23357,-1,-1,-1,-1,30,23.02324769301786,-9999,19385.79542425,-0.6739959716796875,0.496551513671875,-0.5417022705078125,19385.78534825,2.372727523327961,-0.8908341419109002,-0.5128727169280356,-0.02939619868993759,-0.01780945807695389,-0.04205864667892456,0.00807034969329834,0.001443922519683838,0.002760887145996094,XArbitraryZVertical,-0.3004876822714804,0.3684755073407786,-0.8501897688346154,-0.2260755495409976,-0.6775497198104858,0.4906823635101318,-0.5478659272193909,0,0,0,-1,-1,19369.710663875,unknown,2,2025-04-21T15:54:17.318+03:00,2025-04-20T21:57:49.637+03:00,6727,0.976288,0,0,5522.566,5,6,2025-04-21T15:44:52.413+03:00,766932872.8895561,0,-40.16,100.2136,1,0.4,2025-04-21T15:54:20.605+03:00,83,1.383333333333333,2025-04-21T12:30:07.995+03:00,0.02023345852159405,0
2025-04-21T15:54:33.418+03:00,1745240072.248771,40.95226103126694,29.14027780705777,76.23357,-1,-1,-1,-1,30,23.02324769301786,-9999,19385.80550025,-0.6741943359375,0.4956512451171875,-0.5416717529296875,19385.79542425,2.372275120781527,-0.8912175086531728,-0.5128552941922185,-0.03001272119581699,-0.01696523651480675,-0.0250847227871418,0.004258692264556885,0.004266738891601562,0.005130946636199951,XArbitraryZVertical,-0.3005710065690042,0.3685801426182445,-0.8500815074274355,-0.2262013429072321,-0.6777663826942444,0.4906671941280365,-0.5476114749908447,0,0,0,-1,-1,19369.710663875,unknown,2,2025-04-21T15:54:17.318+03:00,2025-04-20T21:57:49.637+03:00,6727,0.976288,0,0,5522.566,5,6,2025-04-21T15:44:52.413+03:00,766932872.8895561,0,-40.16,100.2136,1,0.4,2025-04-21T15:54:20.605+03:00,83,1.383333333333333,2025-04-21T12:30:07.995+03:00,0.02023345852159405,0
2025-04-21T15:54:33.428+03:00,1745240072.248771,40.95226103126694,29.14027780705777,76.23357,-1,-1,-1,-1,30,23.02324769301786,-9999,19385.81557625,-0.679168701171875,0.495697021484375,-0.542724609375,19385.80550025,2.371798264302768,-0.8915962237754184,-0.5128332476218805,-0.02511729672551155,-0.01460620854049921,-0.03345583751797676,0.004779636859893799,0.006406873464584351,0.006040751934051514,XArbitraryZVertical,-0.3006488121846911,0.3686861977390796,-0.8499712277718151,-0.2263393855017986,-0.6779820919036865,0.4906479716300964,-0.5473615527153015,0,0,0,-1,-1,19369.710663875,unknown,2,2025-04-21T15:54:17.318+03:00,2025-04-20T21:57:49.637+03:00,6727,0.976288,0,0,5522.566,5,6,2025-04-21T15:44:52.413+03:00,766932872.8895561,0,-40.16,100.2136,1,0.4,2025-04-21T15:54:20.605+03:00,83,1.383333333333333,2025-04-21T12:30:07.995+03:00,0.02023345852159405,0
2025-04-21T15:54:33.438+03:00,1745240072.248771,40.95226103126694,29.14027780705777,76.23357,-1,-1,-1,-1,30,23.02324769301786,-9999,19385.82565125,-0.6762542724609375,0.49774169921875,-0.5438232421875,19385.81557625,2.371319732376077,-0.891956411183715,-0.5127471864140251,-0.02633329480886459,-0.01314280088990927,-0.03592805191874504,0.0006150603294372559,0.004757672548294067,0.003976702690124512,XArbitraryZVertical,-0.300732099640531,0.368765880649516,-0.8498653216883384,-0.2264967294095754,-0.6782121062278748,0.490572988986969,-0.5471438765525818,0,0,0,-1,-1,19369.710663875,unknown,2,2025-04-21T15:54:17.318+03:00,2025-04-20T21:57:49.637+03:00,6727,0.976288,0,0,5522.566,5,6,2025-04-21T15:44:52.413+03:00,766932872.8895561,0,-40.16,100.2136,1,0.4,2025-04-21T15:54:20.605+03:00,83,1.383333333333333,2025-04-21T12:30:07.995+03:00,0.02023345852159405,0
2025-04-21T15:54:33.448+03:00,1745240072.248771,40.95226103126694,29.14027780705777,76.23357,-1,-1,-1,-1,30,23.02324769301786,-9999,19385.83572725,-0.6710205078125,0.4959259033203125,-0.5446319580078125,19385.82565125,2.370842014762942,-0.8923369565026832,-0.512624155239286,-0.02356560714542866,-0.016614630818367,-0.0372927188873291,0.0004734992980957031,0.007504642009735107,0.003588557243347168,XArbitraryZVertical,-0.300832094850206,0.3688336164682846,-0.8497573990397209,-0.2266586761595928,-0.6784672737121582,0.4904657900333405,-0.5469236373901367,0,0,0,-1,-1,19369.710663875,unknown,2,2025-04-21T15:54:17.318+03:00,2025-04-20T21:57:49.637+03:00,6727,0.976288,0,0,5522.566,5,6,2025-04-21T15:44:52.413+03:00,766932872.8895561,0,-40.16,100.2136,1,0.4,2025-04-21T15:54:20.605+03:00,83,1.383333333333333,2025-04-21T12:30:07.995+03:00,0.02023345852159405,0
2025-04-21T15:54:33.458+03:00,1745240072.248771,40.95226103126694,29.14027780705777,76.23357,-1,-1,-1,-1,30,23.02324769301786,-9999,19385.84580325,-0.669342041015625,0.4932098388671875,-0.5449371337890625,19385.83572725,2.37034780111697,-0.8927568579002229,-0.5124782428060473,-0.02909539453685284,-0.02123335190117359,-0.04070449620485306,0.005748450756072998,0.006487399339675903,0.002448320388793945,XArbitraryZVertical,-0.3009506739968778,0.3688995851099837,-0.8496422020092623,-0.2268256978158866,-0.678752601146698,0.4903386235237122,-0.5466835498809814,0,0,0,-1,-1,19369.710663875,unknown,2,2025-04-21T15:54:17.318+03:00,2025-04-20T21:57:49.637+03:00,6727,0.976288,0,0,5522.566,5,6,2025-04-21T15:44:52.413+03:00,766932872.8895561,0,-40.16,100.2136,1,0.4,2025-04-21T15:54:20.605+03:00,83,1.383333333333333,2025-04-21T12:30:07.995+03:00,0.02023345852159405,0
2025-04-21T15:54:33.468+03:00,1745240072.248771,40.95226103126694,29.14027780705777,76.23357,-1,-1,-1,-1,30,23.02324769301786,-9999,19385.85587925,-0.6713409423828125,0.4914703369140625,-0.5414886474609375,19385.84580325,2.369763745326667,-0.8932548650623962,-0.5123683413058403,-0.03558691591024399,-0.02380257099866867,-0.04410897940397263,0.01030457019805908,0.003806084394454956,0.0007554292678833008,XArbitraryZVertical,-0.3010780849560253,0.3690018331507144,-0.8495039897248413,-0.2270079309482081,-0.6790667772293091,0.4902428388595581,-0.5463792681694031,0,0,0,-1,-1,19369.710663875,unknown,2,2025-04-21T15:54:17.318+03:00,2025-04-20T21:57:49.637+03:00,6727,0.976288,0,0,5522.566,5,6,2025-04-21T15:44:52.413+03:00,766932872.8895561,0,-40.16,100.2136,1,0.4,2025-04-21T15:54:20.605+03:00,83,1.383333333333333,2025-04-21T12:30:07.995+03:00,0.02023345852159405,0
2025-04-21T15:54:33.478+03:00,1745240072.248771,40.95226103126694,29.14027780705777,76.23357,-1,-1,-1,-1,30,23.02324769301786,-9999,19385.86595425,-0.6801910400390625,0.494476318359375,-0.543243408203125,19385.85587925,2.369127143637739,-0.8937410365966503,-0.5122658649646386,-0.03879602253437042,-0.01474409364163876,-0.04779293015599251,0.009876847267150879,0.001118302345275879,0.003432154655456543,XArbitraryZVertical,-0.3011891139935448,0.3691135915041499,-0.8493613060983514,-0.2272128785372826,-0.6793714761734009,0.4901535212993622,-0.5460805296897888,0,0,0,-1,-1,19369.710663875,unknown,2,2025-04-21T15:54:17.318+03:00,2025-04-20T21:57:49.637+03:00,6727,0.976288,0,0,5522.566,5,6,2025-04-21T15:44:52.413+03:00,766932872.8895561,0,-40.16,100.2136,1,0.4,2025-04-21T15:54:20.605+03:00,83,1.383333333333333,2025-04-21T12:30:07.995+03:00,0.02023345852159405,0
2025-04-21T15:54:33.488+03:00,1745240072.248771,40.95226103126694,29.14027780705777,76.23357,-1,-1,-1,-1,30,23.02324769301786,-9999,19385.87603025,-0.682159423828125,0.4961700439453125,-0.5467529296875,19385.86595425,2.368447863602621,-0.8941537034022884,-0.5121355597849356,-0.0353083461523056,-0.005888550542294979,-0.04904115572571754,0.002873420715332031,0.003185003995895386,0.003817319869995117,XArbitraryZVertical,-0.3012670502091266,0.3692128528812966,-0.8492253562898969,-0.2274558446225707,-0.6796464920043945,0.4900399446487427,-0.5458400845527649,0,0,0,-1,-1,19369.710663875,unknown,2,2025-04-21T15:54:17.318+03:00,2025-04-20T21:57:49.637+03:00,6727,0.976288,0,0,5522.566,5,6,2025-04-21T15:44:52.413+03:00,766932872.8895561,0,-40.16,100.2136,1,0.4,2025-04-21T15:54:20.605+03:00,83,1.383333333333333,2025-04-21T12:30:07.995+03:00,0.02023345852159405,0
2025-04-21T15:54:33.499+03:00,1745240072.248771,40.95226103126694,29.14027780705777,76.23357,-1,-1,-1,-1,30,23.02324769301786,-9999,19385.88610625,-0.6762542724609375,0.49627685546875,-0.545989990234375,19385.87603025,2.367761167472273,-0.8945500337575624,-0.5119717284903261,-0.03531873226165771,-0.005796138197183609,-0.05315467342734337,-0.002874851226806641,0.005814999341964722,0.0004853606224060059,XArbitraryZVertical,-0.3013437849137483,0.3692986114834542,-0.8490919318381758,-0.2277130601953986,-0.6799253821372986,0.4898971021175385,-0.5456209182739258,0,0,0,-1,-1,19369.710663875,unknown,2,2025-04-21T15:54:17.318+03:00,2025-04-20T21:57:49.637+03:00,6727,0.976288,0,0,5522.566,5,6,2025-04-21T15:44:52.413+03:00,766932872.8895561,0,-40.16,100.2136,1,0.4,2025-04-21T15:54:20.605+03:00,83,1.383333333333333,2025-04-21T12:30:07.995+03:00,0.02023345852159405,0
2025-04-21T15:54:33.509+03:00,1745240072.248771,40.95226103126694,29.14027780705777,76.23357,-1,-1,-1,-1,30,23.02324769301786,-9999,19385.89618225,-0.674713134765625,0.4966888427734375,-0.54425048828125,19385.88610625,2.36706473758188,-0.8949346715856319,-0.5117752568187626,-0.02970712259411812,-0.004931610077619553,-0.05731809139251709,0.001316308975219727,0.006093114614486694,-0.001150310039520264,XArbitraryZVertical,-0.3014207498739627,0.3693720935430804,-0.8489599061985774,-0.2279842601705604,-0.680210292339325,0.4897258281707764,-0.5454195737838745,0,0,0,-1,-1,19369.710663875,unknown,2,2025-04-21T15:54:17.318+03:00,2025-04-20T21:57:49.637+03:00,6727,0.976288,0,0,5522.566,5,6,2025-04-21T15:44:52.413+03:00,766932872.8895561,0,-40.16,100.2136,1,0.4,2025-04-21T15:54:20.605+03:00,83,1.383333333333333,2025-04-21T12:30:07.995+03:00,0.02023345852159405,0
2025-04-21T15:54:33.519+03:00,1745240072.248771,40.95226103126694,29.14027780705777,76.23357,-1,-1,-1,-1,30,23.02324769301786,-9999,19385.90625725,-0.6718597412109375,0.49652099609375,-0.546478271484375,19385.89618225,2.366376232828417,-0.8953144426981691,-0.5115482036621493,-0.0300754364579916,-0.004984606988728046,-0.05798494815826416,0.004814445972442627,0.006596237421035767,0.0009039044380187988,XArbitraryZVertical,-0.30150372417903,0.3694322132824288,-0.8488300972069306,-0.2282600586061489,-0.6805040836334229,0.4895278513431549,-0.5452306866645813,0,0,0,-1,-1,19369.710663875,unknown,2,2025-04-21T15:54:17.318+03:00,2025-04-20T21:57:49.637+03:00,6727,0.976288,0,0,5522.566,5,6,2025-04-21T15:44:52.413+03:00,766932872.8895561,0,-40.16,100.2136,1,0.4,2025-04-21T15:54:20.605+03:00,83,1.383333333333333,2025-04-21T12:30:07.995+03:00,0.02023345852159405,0
2025-04-21T15:54:33.529+03:00,1745240072.248771,40.95226103126694,29.14027780705777,76.23357,-1,-1,-1,-1,30,23.02324769301786,-9999,19385.91633325,-0.6703033447265625,0.494903564453125,-0.5455474853515625,19385.90625725,2.365667962548205,-0.8957340042602016,-0.5112980653613083,-0.03174477443099022,-0.007832124829292297,-0.06072724238038063,0.007107138633728027,0.007287383079528809,-0.001166760921478271,XArbitraryZVertical,-0.3016048519381895,0.3694911220818877,-0.8486925608384992,-0.2285424415937911,-0.6808283925056458,0.4893097281455994,-0.545021653175354,0,0,0,-1,-1,19369.710663875,unknown,2,2025-04-21T15:54:17.318+03:00,2025-04-20T21:57:49.637+03:00,6727,0.976288,0,0,5522.566,5,6,2025-04-21T15:44:52.413+03:00,766932872.8895561,0,-40.16,100.2136,1,0.4,2025-04-21T15:54:20.605+03:00,83,1.383333333333333,2025-04-21T12:30:07.995+03:00,0.02023345852159405,0
2025-04-21T15:54:33.539+03:00,1745240072.248771,40.95226103126694,29.14027780705777,76.23357,-1,-1,-1,-1,30,23.02324769301786,-9999,19385.92640925,-0.672454833984375,0.49591064453125,-0.5442047119140625,19385.91633325,2.364974450834455,-0.8961671058060493,-0.5110476460581562,-0.02918600849807262,-0.01067238673567772,-0.05931656435132027,0.0106583833694458,0.006407171487808228,-0.001003682613372803,XArbitraryZVertical,-0.3017145211879798,0.3695493680577878,-0.8485544577109155,-0.2288160021587465,-0.681160032749176,0.4890913069248199,-0.5448032021522522,0,0,0,-1,-1,19369.710663875,unknown,2,2025-04-21T15:54:17.318+03:00,2025-04-20T21:57:49.637+03:00,6727,0.976288,0,0,5522.566,5,6,2025-04-21T15:44:52.413+03:00,766932872.8895561,0,-40.16,100.2136,1,0.4,2025-04-21T15:54:20.605+03:00,83,1.383333333333333,2025-04-21T12:30:07.995+03:00,0.02023345852159405,0
2025-04-21T15:54:33.549+03:00,1745240072.248771,40.95226103126694,29.14027780705777,76.23357,-1,-1,-1,-1,30,23.02324769301786,-9999,19385.93648525,-0.67645263671875,0.4974212646484375,-0.5455169677734375,19385.92640925,2.364274196201007,-0.8965568350903477,-0.5107678496669767,-0.02694588899612427,-0.002212722320109606,-0.06160242110490799,0.01044344902038574,0.006498634815216064,-0.0003140568733215332,XArbitraryZVertical,-0.3018108632189088,0.3695925430856122,-0.8484227307924567,-0.2291073760762818,-0.6814791560173035,0.4888472259044647,-0.5446231365203857,0,0,0,-1,-1,19369.710663875,unknown,2,2025-04-21T15:54:17.318+03:00,2025-04-20T21:57:49.637+03:00,6727,0.976288,0,0,5522.566,5,6,2025-04-21T15:44:52.413+03:00,766932872.8895561,0,-40.16,100.2136,1,0.4,2025-04-21T15:54:20.605+03:00,83,1.383333333333333,2025-04-21T12:30:07.995+03:00,0.02023345852159405,0
2025-04-21T15:54:33.559+03:00,1745240072.248771,40.95226103126694,29.14027780705777,76.23357,-1,-1,-1,-1,30,23.02324769301786,-9999,19385.94656125,-0.6767120361328125,0.50067138671875,-0.547393798828125,19385.93648525,2.363598229225881,-0.896874677519052,-0.510451771427014,-0.02208029478788376,0.002536759013310075,-0.06360458582639694,0.006586909294128418,0.008834362030029297,-0.0006021261215209961,XArbitraryZVertical,-0.301888941506545,0.3696100372617218,-0.8483055704446989,-0.229410571033627,-0.6817730665206909,0.4885714650154114,-0.5445029735565186,0,0,0,-1,-1,19369.710663875,unknown,2,2025-04-21T15:54:17.318+03:00,2025-04-20T21:57:49.637+03:00,6727,0.976288,0,0,5522.566,5,6,2025-04-21T15:44:52.413+03:00,766932872.8895561,0,-40.16,100.2136,1,0.4,2025-04-21T15:54:20.605+03:00,83,1.383333333333333,2025-04-21T12:30:07.995+03:00,0.02023345852159405,0
2025-04-21T15:54:33.569+03:00,1745240072.248771,40.95226103126694,29.14027780705777,76.23357,-1,-1,-1,-1,30,23.02324769301786,-9999,19385.95663625,-0.6729278564453125,0.5022430419921875,-0.54156494140625,19385.94656125,2.362963182428802,-0.8971797162191809,-0.5101227616297104,-0.01999457366764545,-0.001390937715768814,-0.06099951267242432,0.004040360450744629,0.01066261529922485,-0.003059744834899902,XArbitraryZVertical,-0.3019720844202297,0.369615041130099,-0.8481949612565118,-0.2297014449307203,-0.6820645928382874,0.4882843792438507,-0.5443951487541199,0,0,0,-1,-1,19369.710663875,unknown,2,2025-04-21T15:54:17.318+03:00,2025-04-20T21:57:49.637+03:00,6727,0.976288,0,0,5522.566,5,6,2025-04-21T15:44:52.413+03:00,766932872.8895561,0,-40.16,100.2136,1,0.4,2025-04-21T15:54:20.605+03:00,83,1.383333333333333,2025-04-21T12:30:07.995+03:00,0.02023345852159405,0
2025-04-21T15:54:33.579+03:00,1745240072.248771,40.95226103126694,29.14027780705777,76.23357,-1,-1,-1,-1,30,23.02324769301786,-9999,19385.96671225,-0.67755126953125,0.5011749267578125,-0.5383758544921875,19385.95663625,2.362360997307813,-0.8974839574770747,-0.5097576020639295,-0.0169465858489275,0.000441849697381258,-0.06089245527982712,0.008541524410247803,0.01470446586608887,-0.0002263784408569336,XArbitraryZVertical,-0.3020686982662346,0.3696012544657529,-0.848089179117374,-0.2299873649983592,-0.6823696494102478,0.4879656732082367,-0.5442988276481628,0,0,0,-1,-1,19369.710663875,unknown,2,2025-04-21T15:54:17.318+03:00,2025-04-20T21:57:49.637+03:00,6727,0.976288,0,0,5522.566,5,6,2025-04-21T15:44:52.413+03:00,766932872.8895561,0,-40.16,100.2136,1,0.4,2025-04-21T15:54:20.605+03:00,83,1.383333333333333,2025-04-21T12:30:07.995+03:00,0.02023345852159405,0
2025-04-21T15:54:33.589+03:00,1745240072.248771,40.95226103126694,29.14027780705777,76.23357,-1,-1,-1,-1,30,23.02324769301786,-9999,19385.97678825,-0.67724609375,0.4974822998046875,-0.538604736328125,19385.96671225,2.361815339918078,-0.897691545370642,-0.5093693889431199,-0.0116219948977232,0.00823226198554039,-0.05971380695700645,0.007642865180969238,0.01397520303726196,0.005441546440124512,XArbitraryZVertical,-0.3021398682217192,0.3695590835069774,-0.8480047625589531,-0.2302723884544227,-0.6826305985450745,0.4876267910003662,-0.544275164604187,0,0,0,-1,-1,19369.710663875,unknown,2,2025-04-21T15:54:17.318+03:00,2025-04-20T21:57:49.637+03:00,6727,0.976288,0,0,5522.566,5,6,2025-04-21T15:44:52.413+03:00,766932872.8895561,0,-40.16,100.2136,1,0.4,2025-04-21T15:54:20.605+03:00,83,1.383333333333333,2025-04-21T12:30:07.995+03:00,0.02023345852159405,0
2025-04-21T15:54:33.599+03:00,1745240072.248771,40.95226103126694,29.14027780705777,76.23357,-1,-1,-1,-1,30,23.02324769301786,-9999,19385.98686425,-0.6650238037109375,0.49383544921875,-0.5328216552734375,19385.97678825,2.361283083597602,-0.8979007184589849,-0.5090294165070702,-0.02014384418725967,-0.001469101291149855,-0.05727967992424965,0.003995299339294434,0.0115407407283783,0.005890250205993652,XArbitraryZVertical,-0.3022037284857049,0.3695335829551764,-0.847920396154503,-0.2305401378365198,-0.6828740835189819,0.4873299598693848,-0.5442356467247009,0,0,0,-1,-1,19369.710663875,unknown,2,2025-04-21T15:54:17.318+03:00,2025-04-20T21:57:49.637+03:00,6727,0.976288,0,0,5522.566,5,6,2025-04-21T15:44:52.413+03:00,766932872.8895561,0,-40.16,100.2136,1,0.4,2025-04-21T15:54:20.605+03:00,83,1.383333333333333,2025-04-21T12:30:07.995+03:00,0.02023345852159405,0
2025-04-21T15:54:33.609+03:00,1745240072.248771,40.95226103126694,29.14027780705777,76.23357,-1,-1,-1,-1,30,23.02324769301786,-9999,19385.99693925,-0.6660919189453125,0.4864654541015625,-0.529052734375,19385.98686425,2.360681485432791,-0.8982133544130007,-0.5087995812590558,-0.02821095660328865,-0.005512711592018604,-0.05321416258811951,0.01411014795303345,0.009177982807159424,0.00838625431060791,XArbitraryZVertical,-0.3022748577093653,0.3695726748085731,-0.8478094582663745,-0.2307919073352274,-0.6831317543983459,0.4871292412281036,-0.5440918803215027,0,0,0,-1,-1,19369.710663875,unknown,2,2025-04-21T15:54:17.318+03:00,2025-04-20T21:57:49.637+03:00,6727,0.976288,0,0,5522.566,5,6,2025-04-21T15:44:52.413+03:00,766932872.8895561,0,-40.16,100.2136,1,0.4,2025-04-21T15:54:20.605+03:00,83,1.383333333333333,2025-04-21T12:30:07.995+03:00,0.02023345852159405,0
2025-04-21T15:54:33.619+03:00,1745240072.248771,40.95226103126694,29.14027780705777,76.23357,-1,-1,-1,-1,30,23.02324769301786,-9999,19386.00701525,-0.6777801513671875,0.4881439208984375,-0.537322998046875,19385.99693925,2.360013853160639,-0.8984990368867101,-0.5086067051624948,-0.03408828750252724,0.006451806053519249,-0.0548727810382843,0.01978641748428345,0.001762807369232178,0.01490241289138794,XArbitraryZVertical,-0.3023143372190834,0.3696328407181199,-0.8476939542741107,-0.2310678795845231,-0.6833606362342834,0.486960768699646,-0.5439552068710327,0,0,0,-1,-1,19369.710663875,unknown,2,2025-04-21T15:54:17.318+03:00,2025-04-20T21:57:49.637+03:00,6727,0.976288,0,0,5522.566,5,6,2025-04-21T15:44:52.413+03:00,766932872.8895561,0,-40.16,100.2136,1,0.4,2025-04-21T15:54:20.605+03:00,83,1.383333333333333,2025-04-21T12:30:07.995+03:00,0.02023345852159405,0
2025-04-21T15:54:33.630+03:00,1745240072.248771,40.95226103126694,29.14027780705777,76.23357,-1,-1,-1,-1,30,23.02324769301786,-9999,19386.01709125,-0.6774139404296875,0.4944000244140625,-0.5453948974609375,19386.00701525,2.359341305413258,-0.8987084323286297,-0.508415478734846,-0.02895737625658512,0.0117648784071207,-0.05499245226383209,0.009749829769134521,-0.0002827048301696777,0.01020920276641846,XArbitraryZVertical,-0.3023201857888079,0.3696856243741158,-0.847589285603834,-0.2313596688266279,-0.6835473775863647,0.4867937564849854,-0.5438700914382935,0,0,0,-1,-1,19369.710663875,unknown,2,2025-04-21T15:54:17.318+03:00,2025-04-20T21:57:49.637+03:00,6727,0.976288,0,0,5522.566,5,6,2025-04-21T15:44:52.413+03:00,766932872.8895561,0,-40.16,100.2136,1,0.4,2025-04-21T15:54:20.605+03:00,83,1.383333333333333,2025-04-21T12:30:07.995+03:00,0.02023345852159405,0
2025-04-21T15:54:33.640+03:00,1745240072.248771,40.95226103126694,29.14027780705777,76.23357,-1,-1,-1,-1,30,23.02324769301786,-9999,19386.02716725,-0.67010498046875,0.497802734375,-0.5470733642578125,19386.01709125,2.358698395012461,-0.8989254930600866,-0.5081969821526128,-0.02856669016182423,0.00537089491263032,-0.05368617177009583,0.004274845123291016,0.004989355802536011,0.0009717345237731934,XArbitraryZVertical,-0.3023406731692384,0.3697244445849515,-0.8474874185512603,-0.2316439076058175,-0.6837486624717712,0.4866028726100922,-0.5437878966331482,0,0,0,-1,-1,19369.710663875,unknown,2,2025-04-21T15:54:17.318+03:00,2025-04-20T21:57:49.637+03:00,6727,0.976288,0,0,5522.566,5,6,2025-04-21T15:44:52.413+03:00,766932872.8895561,0,-40.16,100.2136,1,0.4,2025-04-21T15:54:20.605+03:00,83,1.383333333333333,2025-04-21T12:30:07.995+03:00,0.02023345852159405,0
2025-04-21T15:54:33.655+03:00,1745240072.248771,40.95226103126694,29.14027780705777,76.23357,-1,-1,-1,-1,30,23.02324769301786,-9999,19386.03724225,-0.6684417724609375,0.496612548828125,-0.544647216796875,19386.02716725,2.358077595814312,-0.899185935868497,-0.5079386253588374,-0.02157309465110302,0.001871900865808129,-0.05651944503188133,0.01106083393096924,0.01006737351417542,-0.003797411918640137,XArbitraryZVertical,-0.3023922733406261,0.3697497797712037,-0.8473824002920757,-0.2319202019725846,-0.6839886903762817,0.4863771498203278,-0.5436879992485046,0,0,0,-1,-1,19369.710663875,unknown,2,2025-04-21T15:54:17.318+03:00,2025-04-20T21:57:49.637+03:00,6727,0.976288,0,0,5522.566,5,6,2025-04-21T15:44:52.413+03:00,766932872.8895561,0,-40.16,100.2136,1,0.4,2025-04-21T15:54:20.605+03:00,83,1.383333333333333,2025-04-21T12:30:07.995+03:00,0.02023345852159405,0
2025-04-21T15:54:33.659+03:00,1745240072.248771,40.95226103126694,29.14027780705777,76.23357,-1,-1,-1,-1,30,23.02324769301786,-9999,19386.047318375,-0.6683807373046875,0.494598388671875,-0.5390167236328125,19386.03724225,2.357438167285707,-0.8994847727885705,-0.5076630726992096,-0.0293913371860981,-0.003658419009298086,-0.06670150905847549,0.01569217443466187,0.01111689209938049,-0.002346813678741455,XArbitraryZVertical,-0.3024604298389785,0.3697758934285059,-0.8472696954595551,-0.2322013528384983,-0.6842560172080994,0.4861363768577576,-0.5435669422149658,0,0,0,-1,-1,19369.710663875,unknown,2,2025-04-21T15:54:17.318+03:00,2025-04-20T21:57:49.637+03:00,6727,0.976288,0,0,5522.566,5,6,2025-04-21T15:44:52.413+03:00,766932872.8895561,0,-40.16,100.2136,1,0.4,2025-04-21T15:54:20.605+03:00,83,1.383333333333333,2025-04-21T12:30:07.995+03:00,0.02023345852159405,0
2025-04-21T15:54:33.669+03:00,1745240072.248771,40.95226103126694,29.14027780705777,76.23357,-1,-1,-1,-1,30,23.02324769301786,-9999,19386.057394375,-0.670196533203125,0.4889068603515625,-0.5334014892578125,19386.047318375,2.356642069066038,-0.8999547152558316,-0.5074306897949934,-0.0419035330414772,-0.0165245495736599,-0.0650303065776825,0.01655483245849609,0.009321123361587524,0.001689493656158447,XArbitraryZVertical,-0.302562700123083,0.36986216555085,-0.8471117559354149,-0.2325069982272853,-0.6845999360084534,0.4859332740306854,-0.543315589427948,0,0,0,-1,-1,19369.710663875,unknown,2,2025-04-21T15:54:17.318+03:00,2025-04-20T21:57:49.637+03:00,6727,0.976288,0,0,5522.566,5,6,2025-04-21T15:44:52.413+03:00,766932872.8895561,0,-40.16,100.2136,1,0.4,2025-04-21T15:54:20.605+03:00,83,1.383333333333333,2025-04-21T12:30:07.995+03:00,0.02023345852159405,0
2025-04-21T15:54:33.680+03:00,1745240072.248771,40.95226103126694,29.14027780705777,76.23357,-1,-1,-1,-1,30,23.02324769301786,-9999,19386.067470375,-0.68328857421875,0.4783172607421875,-0.5392303466796875,19386.057394375,2.355782949096916,-0.9005759911180883,-0.5071676986667935,-0.03354387357831001,-0.02109666354954243,-0.07235879451036453,0.01639729738235474,0.007079035043716431,0.008240401744842529,XArbitraryZVertical,-0.3027240738962129,0.3699640529123738,-0.8469239899631618,-0.2328183635385952,-0.6850374341011047,0.4857034087181091,-0.5429694652557373,0,0,0,-1,-1,19369.710663875,unknown,2,2025-04-21T15:54:17.318+03:00,2025-04-20T21:57:49.637+03:00,6727,0.976288,0,0,5522.566,5,6,2025-04-21T15:44:52.413+03:00,766932872.8895561,0,-40.16,100.2136,1,0.4,2025-04-21T15:54:20.605+03:00,83,1.383333333333333,2025-04-21T12:30:07.995+03:00,0.02023345852159405,0
2025-04-21T15:54:33.690+03:00,1745240072.248771,40.95226103126694,29.14027780705777,76.23357,-1,-1,-1,-1,30,23.02324769301786,-9999,19386.077546375,-0.69097900390625,0.4823150634765625,-0.5488433837890625,19386.067470375,2.354985576207554,-0.9010929321276816,-0.5068155712242856,-0.03774993494153023,-0.01067904569208622,-0.07832261174917221,0.008068680763244629,-0.00437772274017334,0.007793962955474854,XArbitraryZVertical,-0.3028719975987744,0.3700106220770158,-0.8467611050598211,-0.2331440739503734,-0.6854520440101624,0.4853955805301666,-0.5427213907241821,0,0,0,-1,-1,19369.710663875,unknown,2,2025-04-21T15:54:17.318+03:00,2025-04-20T21:57:49.637+03:00,6727,0.976288,0,0,5522.566,5,6,2025-04-21T15:44:52.413+03:00,766932872.8895561,0,-40.16,100.2136,1,0.4,2025-04-21T15:54:20.605+03:00,83,1.383333333333333,2025-04-21T12:30:07.995+03:00,0.02023345852159405,0
2025-04-21T15:54:33.700+03:00,1745240072.248771,40.95226103126694,29.14027780705777,76.23357,-1,-1,-1,-1,30,23.02324769301786,-9999,19386.087621375,-0.6844329833984375,0.4861297607421875,-0.5466156005859375,19386.077546375,2.35388385874585,-0.9017158635035989,-0.5064339688067934,-0.06618770211935043,-0.01141407713294029,-0.1160156652331352,-0.004250288009643555,-0.006424397230148315,-0.005167782306671143,XArbitraryZVertical,-0.3030148663936695,0.3701046198310409,-0.8465470642730742,-0.2335859707087317,-0.6859351992607117,0.485061913728714,-0.5424091219902039,0,0,0,-1,-1,19369.710663875,unknown,2,2025-04-21T15:54:17.318+03:00,2025-04-20T21:57:49.637+03:00,6727,0.976288,0,0,5522.566,5,6,2025-04-21T15:44:52.413+03:00,766932872.8895561,0,-40.16,100.2136,1,0.4,2025-04-21T15:54:20.605+03:00,83,1.383333333333333,2025-04-21T12:30:07.995+03:00,0.02023345852159405,0
2025-04-21T15:54:33.710+03:00,1745240072.248771,40.95226103126694,29.14027780705777,76.23357,-1,-1,-1,-1,30,23.02324769301786,-9999,19386.097697375,-0.67559814453125,0.48004150390625,-0.54376220703125,19386.087621375,2.352627275622363,-0.902595792222691,-0.5061769715027998,-0.0754728764295578,-0.0308043546974659,-0.06713550537824631,-0.001310348510742188,0.001811236143112183,-0.005953788757324219,XArbitraryZVertical,-0.3032105818318408,0.3702999396957368,-0.846272783991618,-0.2340161753204149,-0.6865100860595703,0.4848371744155884,-0.5418825745582581,0,0,0,-1,-1,19369.710663875,unknown,2,2025-04-21T15:54:17.318+03:00,2025-04-20T21:57:49.637+03:00,6727,0.976288,0,0,5522.566,5,6,2025-04-21T15:44:52.413+03:00,766932872.8895561,0,-40.16,100.2136,1,0.4,2025-04-21T15:54:20.605+03:00,83,1.383333333333333,2025-04-21T12:30:07.995+03:00,0.02023345852159405,0
2025-04-21T15:54:33.720+03:00,1745240072.248771,40.95226103126694,29.14027780705777,76.23357,-1,-1,-1,-1,30,23.02324769301786,-9999,19386.107773375,-0.68414306640625,0.4760284423828125,-0.542205810546875,19386.097697375,2.351357375410575,-0.9034904985044934,-0.5061718915238805,-0.09002625197172165,-0.02961418777704239,-0.07450660318136215,0.01000988483428955,-0.001922726631164551,-0.003530144691467285,XArbitraryZVertical,-0.3033549849866302,0.3705953444761536,-0.8459885320164808,-0.2343889378859935,-0.6869965791702271,0.4848327040672302,-0.5412696599960327,0,0,0,-1,-1,19369.710663875,unknown,2,2025-04-21T15:54:17.318+03:00,2025-04-20T21:57:49.637+03:00,6727,0.976288,0,0,5522.566,5,6,2025-04-21T15:44:52.413+03:00,766932872.8895561,0,-40.16,100.2136,1,0.4,2025-04-21T15:54:20.605+03:00,83,1.383333333333333,2025-04-21T12:30:07.995+03:00,0.02023345852159405,0
2025-04-21T15:54:33.730+03:00,1745240072.248771,40.95226103126694,29.14027780705777,76.23357,-1,-1,-1,-1,30,23.02324769301786,-9999,19386.117849375,-0.686981201171875,0.4843902587890625,-0.5506744384765625,19386.107773375,2.350056055953587,-0.9043207166243077,-0.5061584544094925,-0.09122513979673386,-0.01395073905587196,-0.07623109221458435,0.008053243160247803,-0.007587283849716187,-0.001243293285369873,XArbitraryZVertical,-0.3034678345866529,0.370885025828377,-0.8457102047375992,-0.2347885357628764,-0.6874507665634155,0.4848209619522095,-0.5407031178474426,0,0,0,-1,-1,19369.710663875,unknown,2,2025-04-21T15:54:17.318+03:00,2025-04-20T21:57:49.637+03:00,6727,0.976288,0,0,5522.566,5,6,2025-04-21T15:44:52.413+03:00,766932872.8895561,0,-40.16,100.2136,1,0.4,2025-04-21T15:54:20.605+03:00,83,1.383333333333333,2025-04-21T12:30:07.995+03:00,0.02023345852159405,0
2025-04-21T15:54:33.741+03:00,1745240072.248771,40.95226103126694,29.14027780705777,76.23357,-1,-1,-1,-1,30,23.02324769301786,-9999,19386.127925375,-0.681182861328125,0.5011749267578125,-0.5632171630859375,19386.117849375,2.348503976100827,-0.9051388750808406,-0.506219750583885,-0.1302226185798645,-0.003331649582833052,-0.08854528516530991,-0.0002101659774780273,-0.004802703857421875,-0.006829142570495605,XArbitraryZVertical,-0.3035123364222715,0.3712400181890338,-0.8454023791085141,-0.2352784340579511,-0.687869668006897,0.4848745763301849,-0.5401222109794617,0,0,0,-1,-1,19369.710663875,unknown,2,2025-04-21T15:54:17.318+03:00,2025-04-20T21:57:49.637+03:00,6727,0.976288,0,0,5522.566,5,6,2025-04-21T15:44:52.413+03:00,766932872.8895561,0,-40.16,100.2136,1,0.4,2025-04-21T15:54:20.605+03:00,83,1.383333333333333,2025-04-21T12:30:07.995+03:00,0.02023345852159405,0
2025-04-21T15:54:33.750+03:00,1745240072.248771,40.95226103126694,29.14027780705777,76.23357,-1,-1,-1,-1,30,23.02324769301786,-9999,19386.138000375,-0.677215576171875,0.5066375732421875,-0.59527587890625,19386.127925375,2.346478494232078,-0.9060618078818037,-0.5064950995467128,-0.1824569851160049,0.01189557276666164,-0.09324972331523895,0.005294561386108398,0.01117655634880066,-0.01799887418746948,XArbitraryZVertical,-0.3034659364654533,0.3717607874125018,-0.8450175840328715,-0.2358970407664053,-0.6882626414299011,0.4851153790950775,-0.5394046902656555,0,0,0,-1,-1,19369.710663875,unknown,2,2025-04-21T15:54:17.318+03:00,2025-04-20T21:57:49.637+03:00,6727,0.976288,0,0,5522.566,5,6,2025-04-21T15:44:52.413+03:00,766932872.8895561,0,-40.16,100.2136,1,0.4,2025-04-21T15:54:20.605+03:00,83,1.383333333333333,2025-04-21T12:30:07.995+03:00,0.02023345852159405,0
2025-04-21T15:54:33.760+03:00,1745240072.248771,40.95226103126694,29.14027780705777,76.23357,-1,-1,-1,-1,30,23.02324769301786,-9999,19386.148076375,-0.6828765869140625,0.4855499267578125,-0.61065673828125,19386.138000375,2.342768218797068,-0.9074994310236791,-0.5077472746459674,-0.4605775475502014,0.0675460547208786,-0.1108731925487518,0.01111382246017456,0.01983243227005005,-0.04397577047348022,XArbitraryZVertical,-0.3031074384955759,0.3729688047156426,-0.8443340227303437,-0.2368970999481432,-0.6885582804679871,0.4862099587917328,-0.5380402803421021,0,0,0,-1,-1,19369.710663875,unknown,2,2025-04-21T15:54:17.318+03:00,2025-04-20T21:57:49.637+03:00,6727,0.976288,0,0,5522.566,5,6,2025-04-21T15:44:52.413+03:00,766932872.8895561,0,-40.16,100.2136,1,0.4,2025-04-21T15:54:20.605+03:00,83,1.383333333333333,2025-04-21T12:30:07.995+03:00,0.02023345852159405,0
2025-04-21T15:54:33.770+03:00,1745240072.248771,40.95226103126694,29.14027780705777,76.23357,-1,-1,-1,-1,30,23.02324769301786,-9999,19386.158152375,-0.6856231689453125,0.4127960205078125,-0.6061248779296875,19386.148076375,2.336754017233326,-0.9096419106146083,-0.5105207863940514,-0.7333440184593201,0.07767119258642197,-0.09915924817323685,0.009153306484222412,0.01179546117782593,-0.07400757074356079,XArbitraryZVertical,-0.3022747176496593,0.3751841046184463,-0.8432361007416418,-0.2383690403746245,-0.6886424422264099,0.4886316955089569,-0.5357337594032288,0,0,0,-1,-1,19369.710663875,unknown,2,2025-04-21T15:54:17.318+03:00,2025-04-20T21:57:49.637+03:00,6727,0.976288,0,0,5522.566,5,6,2025-04-21T15:44:52.413+03:00,766932872.8895561,0,-40.16,100.2136,1,0.4,2025-04-21T15:54:20.605+03:00,83,1.383333333333333,2025-04-21T12:30:07.995+03:00,0.02023345852159405,0
2025-04-21T15:54:33.781+03:00,1745240072.248771,40.95226103126694,29.14027780705777,76.23357,-1,-1,-1,-1,30,23.02324769301786,-9999,19386.168228375,-0.670623779296875,0.3608856201171875,-0.60638427734375,19386.158152375,2.3278031535982,-0.9128113441623792,-0.5150506896408872,-1.032222986221313,0.1694583594799042,-0.1251538395881653,0.001856744289398193,-0.0519205629825592,-0.07575130462646484,XArbitraryZVertical,-0.3009159991904113,0.378622307104884,-0.8415920925000133,-0.2404526787668634,-0.6885785460472107,0.4925789535045624,-0.5321894288063049,0,0,0,-1,-1,19369.710663875,unknown,2,2025-04-21T15:54:17.318+03:00,2025-04-20T21:57:49.637+03:00,6727,0.976288,0,0,5522.566,5,6,2025-04-21T15:44:52.413+03:00,766932872.8895561,0,-40.16,100.2136,1,0.4,2025-04-21T15:54:20.605+03:00,83,1.383333333333333,2025-04-21T12:30:07.995+03:00,0.02023345852159405,0
2025-04-21T15:54:33.791+03:00,1745240072.248771,40.95226103126694,29.14027780705777,76.23357,-1,-1,-1,-1,30,23.02324769301786,-9999,19386.178303375,-0.6309661865234375,0.33447265625,-0.612060546875,19386.168228375,2.316785394231669,-0.9165995076822573,-0.5210280270018766,-1.199631333351135,0.1465730965137482,-0.08227704465389252,0.009163737297058105,-0.1207122206687927,-0.07639580965042114,XArbitraryZVertical,-0.2990679129253592,0.3829756774753953,-0.8395705442186953,-0.2429183689835608,-0.6882408857345581,0.4977720081806183,-0.5277760028839111,0,0,0,-1,-1,19369.710663875,unknown,2,2025-04-21T15:54:17.318+03:00,2025-04-20T21:57:49.637+03:00,6727,0.976288,0,0,5522.566,5,6,2025-04-21T15:44:52.413+03:00,766932872.8895561,0,-40.16,100.2136,1,0.4,2025-04-21T15:54:20.605+03:00,83,1.383333333333333,2025-04-21T12:30:07.995+03:00,0.02023345852159405,0
2025-04-21T15:54:33.801+03:00,1745240072.248771,40.95226103126694,29.14027780705777,76.23357,-1,-1,-1,-1,30,23.02324769301786,-9999,19386.188379375,-0.6178741455078125,0.389404296875,-0.6262054443359375,19386.178303375,2.304784984663769,-0.9212941712925762,-0.5280884970676192,-1.26353645324707,0.0492236390709877,-0.03015498258173466,0.04057127237319946,-0.1657485961914062,-0.08962959051132202,XArbitraryZVertical,-0.2971184607687222,0.3879695503764753,-0.8372654730595845,-0.2453295185460681,-0.6878948211669922,0.5038831830024719,-0.5224004983901978,0,0,0,-1,-1,19369.710663875,unknown,2,2025-04-21T15:54:17.318+03:00,2025-04-20T21:57:49.637+03:00,6727,0.976288,0,0,5522.566,5,6,2025-04-21T15:44:52.413+03:00,766932872.8895561,0,-40.16,100.2136,1,0.4,2025-04-21T15:54:20.605+03:00,83,1.383333333333333,2025-04-21T12:30:07.995+03:00,0.02023345852159405,0
2025-04-21T15:54:33.811+03:00,1745240072.248771,40.95226103126694,29.14027780705777,76.23357,-1,-1,-1,-1,30,23.02324769301786,-9999,19386.198455375,-0.6448211669921875,0.493865966796875,-0.677398681640625,19386.188379375,2.293458663879345,-0.92636815292076,-0.5355736937688275,-1.149504780769348,0.09700946509838104,0.02925411611795425,0.07106232643127441,-0.1530196666717529,-0.1011137366294861,XArbitraryZVertical,-0.2953063818404174,0.393042713910394,-0.8349737682430223,-0.2472452926097006,-0.6875020861625671,0.5103344917297363,-0.5166231393814087,0,0,0,-1,-1,19369.710663875,unknown,2,2025-04-21T15:54:17.318+03:00,2025-04-20T21:57:49.637+03:00,6727,0.976288,0,0,5522.566,5,6,2025-04-21T15:44:52.413+03:00,766932872.8895561,0,-40.16,100.2136,1,0.4,2025-04-21T15:54:20.605+03:00,83,1.383333333333333,2025-04-21T12:30:07.995+03:00,0.02023345852159405,0
2025-04-21T15:54:33.822+03:00,1745240072.248771,40.95226103126694,29.14027780705777,76.23357,-1,-1,-1,-1,30,23.02324769301786,-9999,19386.208531375,-0.657562255859375,0.5627593994140625,-0.759613037109375,19386.198455375,2.283778430434729,-0.9307097681262223,-0.5425222108547539,-1.010985732078552,0.05228700488805771,0.08878855407238007,0.05453842878341675,-0.05983114242553711,-0.1401388049125671,XArbitraryZVertical,-0.2935876555393849,0.3975609807127494,-0.8330015782356367,-0.2487164733349988,-0.6868779063224792,0.5162976980209351,-0.5115031003952026,0,0,0,-1,-1,19369.710663875,unknown,2,2025-04-21T15:54:17.318+03:00,2025-04-20T21:57:49.637+03:00,6727,0.976288,0,0,5522.566,5,6,2025-04-21T15:44:52.413+03:00,766932872.8895561,0,-40.16,100.2136,1,0.4,2025-04-21T15:54:20.605+03:00,83,1.383333333333333,2025-04-21T12:30:07.995+03:00,0.02023345852159405,0
2025-04-21T15:54:33.833+03:00,1745240072.248771,40.95226103126694,29.14027780705777,76.23357,-1,-1,-1,-1,30,23.02324769301786,-9999,19386.218607375,-0.635040283203125,0.5881195068359375,-0.8394775390625,19386.208531375,2.275310406704296,-0.9343405511913402,-0.5493428743784557,-0.9449822306632996,0.08967725187540054,0.1422096937894821,0.02787774801254272,0.01830875873565674,-0.2221029996871948,XArbitraryZVertical,-0.2918050300581194,0.4017453204072032,-0.8312855031861449,-0.2498298627906339,-0.685882568359375,0.5221269130706787,-0.5069010257720947,0,0,0,-1,-1,19369.710663875,unknown,2,2025-04-21T15:54:17.318+03:00,2025-04-20T21:57:49.637+03:00,6727,0.976288,0,0,5522.566,5,6,2025-04-21T15:44:52.413+03:00,766932872.8895561,0,-40.16,100.2136,1,0.4,2025-04-21T15:54:20.605+03:00,83,1.383333333333333,2025-04-21T12:30:07.995+03:00,0.02023345852159405,0
2025-04-21T15:54:33.844+03:00,1745240072.248771,40.95226103126694,29.14027780705777,76.23357,-1,-1,-1,-1,30,23.02324769301786,-9999,19386.228682375,-0.6080780029296875,0.5776519775390625,-0.8674468994140625,19386.218607375,2.267571634656146,-0.9375106884311186,-0.5562966592244077,-0.9398205280303955,0.04998177289962769,0.1656332612037659,0.03898912668228149,0.05703794956207275,-0.3075563907623291,XArbitraryZVertical,-0.2899127392671398,0.4057942345024855,-0.8297240837934404,-0.2506782059166311,-0.684542715549469,0.5280448794364929,-0.5025632977485657,0,0,0,-1,-1,19369.710663875,unknown,2,2025-04-21T15:54:17.318+03:00,2025-04-20T21:57:49.637+03:00,6727,0.976288,0,0,5522.566,5,6,2025-04-21T15:44:52.413+03:00,766932872.8895561,0,-40.16,100.2136,1,0.4,2025-04-21T15:54:20.605+03:00,83,1.383333333333333,2025-04-21T12:30:07.995+03:00,0.02023345852159405,0
2025-04-21T15:54:33.851+03:00,1745240072.248771,40.95226103126694,29.14027780705777,76.23357,-1,-1,-1,-1,30,23.02324769301786,-9999,19386.238758375,-0.60821533203125,0.53546142578125,-0.82025146484375,19386.228682375,2.259674174094145,-0.9415583071220088,-0.5632420090341999,-0.9491392970085144,-0.01323774270713329,0.1857527494430542,0.06757712364196777,0.05066436529159546,-0.372819721698761,XArbitraryZVertical,-0.2883216798855556,0.4099531974719512,-0.8280155346534731,-0.2513945911835535,-0.6835896968841553,0.5339301824569702,-0.4976179599761963,0,0,0,-1,-1,19369.710663875,unknown,2,2025-04-21T15:54:17.318+03:00,2025-04-20T21:57:49.637+03:00,6727,0.976288,0,0,5522.566,5,6,2025-04-21T15:44:52.413+03:00,766932872.8895561,0,-40.16,100.2136,1,0.4,2025-04-21T15:54:20.605+03:00,83,1.383333333333333,2025-04-21T12:30:07.995+03:00,0.02023345852159405,0
2025-04-21T15:54:33.861+03:00,1745240072.248771,40.95226103126694,29.14027780705777,76.23357,-1,-1,-1,-1,30,23.02324769301786,-9999,19386.248834375,-0.6067962646484375,0.4832611083984375,-0.8014678955078125,19386.238758375,2.251874242635858,-0.9463823041307335,-0.5709597162288834,-0.9993749856948853,-0.1377011090517044,0.2747904658317566,0.07612758874893188,0.0141865611076355,-0.3453438282012939,XArbitraryZVertical,-0.2868514265755534,0.4144524692814048,-0.8261939958665244,-0.2516921372590825,-0.6826187372207642,0.540439784526825,-0.4918908178806305,0,0,0,-1,-1,19369.710663875,unknown,2,2025-04-21T15:54:17.318+03:00,2025-04-20T21:57:49.637+03:00,6727,0.976288,0,0,5522.566,5,6,2025-04-21T15:44:52.413+03:00,766932872.8895561,0,-40.16,100.2136,1,0.4,2025-04-21T15:54:20.605+03:00,83,1.383333333333333,2025-04-21T12:30:07.995+03:00,0.02023345852159405,0
2025-04-21T15:54:33.871+03:00,1745240072.248771,40.95226103126694,29.14027780705777,76.23357,-1,-1,-1,-1,30,23.02324769301786,-9999,19386.258910375,-0.635528564453125,0.44708251953125,-0.805572509765625,19386.248834375,2.244125293075562,-0.9530212479346271,-0.5791646668241608,-0.9997157454490662,-0.3348532319068909,0.3000580370426178,0.07566410303115845,-0.04589080810546875,-0.3212518095970154,XArbitraryZVertical,-0.2859838282969823,0.419322774599434,-0.824112581863132,-0.2514361196643011,-0.6822315454483032,0.5473250150680542,-0.4847633242607117,0,0,0,-1,-1,19369.710663875,unknown,2,2025-04-21T15:54:17.318+03:00,2025-04-20T21:57:49.637+03:00,6727,0.976288,0,0,5522.566,5,6,2025-04-21T15:44:52.413+03:00,766932872.8895561,0,-40.16,100.2136,1,0.4,2025-04-21T15:54:20.605+03:00,83,1.383333333333333,2025-04-21T12:30:07.995+03:00,0.02023345852159405,0
2025-04-21T15:54:33.881+03:00,1745240072.248771,40.95226103126694,29.14027780705777,76.23357,-1,-1,-1,-1,30,23.02324769301786,-9999,19386.268986375,-0.6848907470703125,0.4715118408203125,-0.8396759033203125,19386.258910375,2.236858301418545,-0.9611075162323525,-0.5873942856073788,-0.8973830342292786,-0.4718457162380219,0.3525079190731049,0.06373029947280884,-0.09746807813644409,-0.3231236040592194,XArbitraryZVertical,-0.2857649218552721,0.4242884982090978,-0.8218893820414713,-0.2506299229610188,-0.6824131011962891,0.554193913936615,-0.4766353666782379,0,0,0,-1,-1,19369.710663875,unknown,2,2025-04-21T15:54:17.318+03:00,2025-04-20T21:57:49.637+03:00,6727,0.976288,0,0,5522.566,5,6,2025-04-21T15:44:52.413+03:00,766932872.8895561,0,-40.16,100.2136,1,0.4,2025-04-21T15:54:20.605+03:00,83,1.383333333333333,2025-04-21T12:30:07.995+03:00,0.02023345852159405,0
2025-04-21T15:54:33.891+03:00,1745240072.248771,40.95226103126694,29.14027780705777,76.23357,-1,-1,-1,-1,30,23.02324769301786,-9999,19386.279061375,-0.71142578125,0.5249786376953125,-0.859466552734375,19386.268986375,2.231669725878307,-0.969320604238276,-0.5952648418117227,-0.6846030950546265,-0.588671088218689,0.4449360370635986,0.01503884792327881,-0.105390727519989,-0.3573806285858154,XArbitraryZVertical,-0.2860896355392181,0.4288201966587082,-0.8199198823794288,-0.2489925001241767,-0.6826871633529663,0.5607280731201172,-0.4685319066047668,0,0,0,-1,-1,19369.710663875,unknown,2,2025-04-21T15:54:17.318+03:00,2025-04-20T21:57:49.637+03:00,6727,0.976288,0,0,5522.566,5,6,2025-04-21T15:44:52.413+03:00,766932872.8895561,0,-40.16,100.2136,1,0.4,2025-04-21T15:54:20.605+03:00,83,1.383333333333333,2025-04-21T12:30:07.995+03:00,0.02023345852159405,0
2025-04-21T15:54:33.902+03:00,1745240072.248771,40.95226103126694,29.14027780705777,76.23357,-1,-1,-1,-1,30,23.02324769301786,-9999,19386.289137375,-0.7228851318359375,0.5489654541015625,-0.84722900390625,19386.279061375,2.228671076862663,-0.9775194546536247,-0.6027562414205562,-0.5776441693305969,-0.7040696144104004,0.5013529658317566,-0.02114367485046387,-0.06076604127883911,-0.3960251808166504,XArbitraryZVertical,-0.2869450076338957,0.4328784821584727,-0.8182334740563499,-0.246521415028498,-0.6830036640167236,0.5669151544570923,-0.4605575501918793,0,0,0,-1,-1,19369.710663875,unknown,2,2025-04-21T15:54:17.318+03:00,2025-04-20T21:57:49.637+03:00,6727,0.976288,0,0,5522.566,5,6,2025-04-21T15:44:52.413+03:00,766932872.8895561,0,-40.16,100.2136,1,0.4,2025-04-21T15:54:20.605+03:00,83,1.383333333333333,2025-04-21T12:30:07.995+03:00,0.02023345852159405,0
2025-04-21T15:54:33.912+03:00,1745240072.248771,40.95226103126694,29.14027780705777,76.23357,-1,-1,-1,-1,30,23.02324769301786,-9999,19386.299213375,-0.718475341796875,0.521453857421875,-0.825042724609375,19386.289137375,2.226474568125995,-0.9863103972714574,-0.6102626187913854,-0.5558454990386963,-0.7854756116867065,0.5457792282104492,-0.03617751598358154,-0.02695554494857788,-0.4027906060218811,XArbitraryZVertical,-0.2881921992054334,0.4368728641585378,-0.8165585023764045,-0.2435558777172688,-0.6834574937820435,0.5730826854705811,-0.4521747231483459,0,0,0,-1,-1,19369.710663875,unknown,2,2025-04-21T15:54:17.318+03:00,2025-04-20T21:57:49.637+03:00,6727,0.976288,0,0,5522.566,5,6,2025-04-21T15:44:52.413+03:00,766932872.8895561,0,-40.16,100.2136,1,0.4,2025-04-21T15:54:20.605+03:00,83,1.383333333333333,2025-04-21T12:30:07.995+03:00,0.02023345852159405,0
2025-04-21T15:54:33.923+03:00,1745240072.248771,40.95226103126694,29.14027780705777,76.23357,-1,-1,-1,-1,30,23.02324769301786,-9999,19386.309289375,-0.6820220947265625,0.47613525390625,-0.80401611328125,19386.299213375,2.224572200418248,-0.9957680778618614,-0.6184348386480164,-0.6139801740646362,-0.8740720748901367,0.6484677791595459,-0.04043179750442505,-0.04330754280090332,-0.390321671962738,XArbitraryZVertical,-0.289589842765992,0.4411046928873991,-0.8148064147016548,-0.2401142026403354,-0.683750331401825,0.5797606110572815,-0.4431287348270416,0,0,0,-1,-1,19369.710663875,unknown,2,2025-04-21T15:54:17.318+03:00,2025-04-20T21:57:49.637+03:00,6727,0.976288,0,0,5522.566,5,6,2025-04-21T15:44:52.413+03:00,766932872.8895561,0,-40.16,100.2136,1,0.4,2025-04-21T15:54:20.605+03:00,83,1.383333333333333,2025-04-21T12:30:07.995+03:00,0.02023345852159405,0
2025-04-21T15:54:33.932+03:00,1745240072.248771,40.95226103126694,29.14027780705777,76.23357,-1,-1,-1,-1,30,23.02324769301786,-9999,19386.319365375,-0.644317626953125,0.4331207275390625,-0.7485809326171875,19386.309289375,2.222051599110021,-1.006768317081466,-0.628028505983491,-0.756389319896698,-1.042316079139709,0.725534200668335,-0.01475715637207031,-0.0947224497795105,-0.3805842697620392,XArbitraryZVertical,-0.2910986902384836,0.4460582393965977,-0.81272393924738,-0.2361635948335291,-0.6838511824607849,0.5875505805015564,-0.432587206363678,0,0,0,-1,-1,19369.710663875,unknown,2,2025-04-21T15:54:17.318+03:00,2025-04-20T21:57:49.637+03:00,6727,0.976288,0,0,5522.566,5,6,2025-04-21T15:44:52.413+03:00,766932872.8895561,0,-40.16,100.2136,1,0.4,2025-04-21T15:54:20.605+03:00,83,1.383333333333333,2025-04-21T12:30:07.995+03:00,0.02023345852159405,0
2025-04-21T15:54:33.942+03:00,1745240072.248771,40.95226103126694,29.14027780705777,76.23357,-1,-1,-1,-1,30,23.02324769301786,-9999,19386.329440375,-0.6427154541015625,0.4101715087890625,-0.6678619384765625,19386.319365375,2.218242108432058,-1.020329748168492,-0.6389158574993561,-0.8935586214065552,-1.198248624801636,0.7993338108062744,0.0292852520942688,-0.1467254757881165,-0.355030357837677,XArbitraryZVertical,-0.2929975012473218,0.4518862473538229,-0.8100863720925856,-0.2317567153062155,-0.684161901473999,0.5963255167007446,-0.4199025630950928,0,0,0,-1,-1,19369.710663875,unknown,2,2025-04-21T15:54:17.318+03:00,2025-04-20T21:57:49.637+03:00,6727,0.976288,0,0,5522.566,5,6,2025-04-21T15:44:52.413+03:00,766932872.8895561,0,-40.16,100.2136,1,0.4,2025-04-21T15:54:20.605+03:00,83,1.383333333333333,2025-04-21T12:30:07.995+03:00,0.02023345852159405,0
2025-04-21T15:54:33.952+03:00,1745240072.248771,40.95226103126694,29.14027780705777,76.23357,-1,-1,-1,-1,30,23.02324769301786,-9999,19386.339516375,-0.6680908203125,0.4384002685546875,-0.6057586669921875,19386.329440375,2.21346717689239,-1.035890362624642,-0.6509237170972287,-0.9586809873580933,-1.31050443649292,0.8469584584236145,0.04441869258880615,-0.1928967833518982,-0.2907015085220337,XArbitraryZVertical,-0.2951504314927298,0.4583916506462736,-0.8070187443387229,-0.2269009133817428,-0.6844028234481812,0.6059215068817139,-0.4055266380310059,0,0,0,-1,-1,19369.710663875,unknown,2,2025-04-21T15:54:17.318+03:00,2025-04-20T21:57:49.637+03:00,6727,0.976288,0,0,5522.566,5,6,2025-04-21T15:44:52.413+03:00,766932872.8895561,0,-40.16,100.2136,1,0.4,2025-04-21T15:54:20.605+03:00,83,1.383333333333333,2025-04-21T12:30:07.995+03:00,0.02023345852159405,0
2025-04-21T15:54:33.962+03:00,1745240072.248771,40.95226103126694,29.14027780705777,76.23357,-1,-1,-1,-1,30,23.02324769301786,-9999,19386.349592375,-0.692138671875,0.4839019775390625,-0.5464935302734375,19386.339516375,2.208738048156911,-1.052403921712217,-0.6631825864635309,-0.9077416658401489,-1.385741591453552,0.889074981212616,0.02838939428329468,-0.1929444670677185,-0.2375308573246002,XArbitraryZVertical,-0.2975713771867993,0.4649960338551353,-0.8038073153413513,-0.2216383632968197,-0.6845020055770874,0.6156279444694519,-0.3904599249362946,0,0,0,-1,-1,19369.710663875,unknown,2,2025-04-21T15:54:17.318+03:00,2025-04-20T21:57:49.637+03:00,6727,0.976288,0,0,5522.566,5,6,2025-04-21T15:44:52.413+03:00,766932872.8895561,0,-40.16,100.2136,1,0.4,2025-04-21T15:54:20.605+03:00,83,1.383333333333333,2025-04-21T12:30:07.995+03:00,0.02023345852159405,0
2025-04-21T15:54:33.972+03:00,1745240072.248771,40.95226103126694,29.14027780705777,76.23357,-1,-1,-1,-1,30,23.02324769301786,-9999,19386.359668375,-0.68658447265625,0.515289306640625,-0.5032501220703125,19386.349592375,2.204054903259997,-1.069216922019856,-0.675933458655714,-0.9761003851890564,-1.363567590713501,0.9647780656814575,-0.002431392669677734,-0.1582492589950562,-0.1928098797798157,XArbitraryZVertical,-0.299930962456373,0.4716942727993113,-0.8005435731838683,-0.2160461095788057,-0.6840310096740723,0.6256257891654968,-0.3750918507575989,0,0,0,-1,-1,19369.710663875,unknown,2,2025-04-21T15:54:17.318+03:00,2025-04-20T21:57:49.637+03:00,6727,0.976288,0,0,5522.566,5,6,2025-04-21T15:44:52.413+03:00,766932872.8895561,0,-40.16,100.2136,1,0.4,2025-04-21T15:54:20.605+03:00,83,1.383333333333333,2025-04-21T12:30:07.995+03:00,0.02023345852159405,0
2025-04-21T15:54:33.982+03:00,1745240072.248771,40.95226103126694,29.14027780705777,76.23357,-1,-1,-1,-1,30,23.02324769301786,-9999,19386.369744375,-0.6642608642578125,0.5041656494140625,-0.4602813720703125,19386.359668375,2.198886041368199,-1.086145753123805,-0.6895181846297372,-0.9956503510475159,-1.326550364494324,1.044776439666748,-0.008661627769470215,-0.1282921433448792,-0.1574563980102539,XArbitraryZVertical,-0.3019363845811024,0.4786455585466806,-0.7971929199636536,-0.2102763979568449,-0.6826988458633423,0.6361654996871948,-0.3594656884670258,0,0,0,-1,-1,19369.710663875,unknown,2,2025-04-21T15:54:17.318+03:00,2025-04-20T21:57:49.637+03:00,6727,0.976288,0,0,5522.566,5,6,2025-04-21T15:44:52.413+03:00,766932872.8895561,0,-40.16,100.2136,1,0.4,2025-04-21T15:54:20.605+03:00,83,1.383333333333333,2025-04-21T12:30:07.995+03:00,0.02023345852159405,0
2025-04-21T15:54:33.992+03:00,1745240072.248771,40.95226103126694,29.14027780705777,76.23357,-1,-1,-1,-1,30,23.02324769301786,-9999,19386.379819375,-0.634033203125,0.51708984375,-0.366668701171875,19386.369744375,2.194058415024416,-1.102606203365573,-0.7039464283506821,-0.9868509769439697,-1.322866559028625,1.168654203414917,0.005669593811035156,-0.1365042924880981,-0.1381608247756958,XArbitraryZVertical,-0.3035436037817321,0.4856546051698825,-0.7939343343243346,-0.2041299373598503,-0.6802606582641602,0.6472310423851013,-0.3440017700195312,0,0,0,-1,-1,19369.710663875,unknown,2,2025-04-21T15:54:17.318+03:00,2025-04-20T21:57:49.637+03:00,6727,0.976288,0,0,5522.566,5,6,2025-04-21T15:44:52.413+03:00,766932872.8895561,0,-40.16,100.2136,1,0.4,2025-04-21T15:54:20.605+03:00,83,1.383333333333333,2025-04-21T12:30:07.995+03:00,0.02023345852159405,0
2025-04-21T15:54:34.002+03:00,1745240072.248771,40.95226103126694,29.14027780705777,76.23357,-1,-1,-1,-1,30,23.02324769301786,-9999,19386.389895375,-0.6136627197265625,0.5830230712890625,-0.3220367431640625,19386.379819375,2.189822736818524,-1.118664006531765,-0.7193470616994275,-0.9021579027175903,-1.320109724998474,1.278535723686218,0.03167581558227539,-0.1544687747955322,-0.07426810264587402,XArbitraryZVertical,-0.3048074332792358,0.4927192489092118,-0.7907794142612651,-0.1974538942609772,-0.6766495704650879,0.6588936448097229,-0.328640341758728,0,0,0,-1,-1,19369.710663875,unknown,2,2025-04-21T15:54:17.318+03:00,2025-04-20T21:57:49.637+03:00,6727,0.976288,0,0,5522.566,5,6,2025-04-21T15:44:52.413+03:00,766932872.8895561,0,-40.16,100.2136,1,0.4,2025-04-21T15:54:20.605+03:00,83,1.383333333333333,2025-04-21T12:30:07.995+03:00,0.02023345852159405,0
2025-04-21T15:54:34.012+03:00,1745240072.248771,40.95226103126694,29.14027780705777,76.23357,-1,-1,-1,-1,30,23.02324769301786,-9999,19386.399971375,-0.60205078125,0.642730712890625,-0.311676025390625,19386.389895375,2.188319723982089,-1.132795432675183,-0.7347002405252265,-0.5991570353507996,-1.279199123382568,1.375627994537354,0.05292057991027832,-0.114258348941803,-0.01388025283813477,XArbitraryZVertical,-0.3059366350118636,0.4990429305660536,-0.7881798873838294,-0.1900825752787279,-0.6719849109649658,0.6703647375106812,-0.3147178590297699,0,0,0,-1,-1,19369.710663875,unknown,2,2025-04-21T15:54:17.318+03:00,2025-04-20T21:57:49.637+03:00,6727,0.976288,0,0,5522.566,5,6,2025-04-21T15:44:52.413+03:00,766932872.8895561,0,-40.16,100.2136,1,0.4,2025-04-21T15:54:20.605+03:00,83,1.383333333333333,2025-04-21T12:30:07.995+03:00,0.02023345852159405,0
2025-04-21T15:54:34.022+03:00,1745240072.248771,40.95226103126694,29.14027780705777,76.23357,-1,-1,-1,-1,30,23.02324769301786,-9999,19386.410047375,-0.5834808349609375,0.6997833251953125,-0.254730224609375,19386.399971375,2.190794280968481,-1.143730272237809,-0.7494029290728774,-0.3011567890644073,-1.229388952255249,1.41281795501709,0.05945461988449097,-0.05994027853012085,-0.0164666473865509,XArbitraryZVertical,-0.3069404738362841,0.504152476122916,-0.7864309570946018,-0.1820555934560384,-0.666342556476593,0.6812017560005188,-0.303235650062561,0,0,0,-1,-1,19369.710663875,unknown,2,2025-04-21T15:54:17.318+03:00,2025-04-20T21:57:49.637+03:00,6727,0.976288,0,0,5522.566,5,6,2025-04-21T15:44:52.413+03:00,766932872.8895561,0,-40.16,100.2136,1,0.4,2025-04-21T15:54:20.605+03:00,83,1.383333333333333,2025-04-21T12:30:07.995+03:00,0.02023345852159405,0
2025-04-21T15:54:34.033+03:00,1745240072.248771,40.95226103126694,29.14027780705777,76.23357,-1,-1,-1,-1,30,23.02324769301786,-9999,19386.420123375,-0.56756591796875,0.7205352783203125,-0.177337646484375,19386.410047375,2.197293480350538,-1.15162025950063,-0.7628438698390364,0.07356027513742447,-1.240491271018982,1.4010990858078,0.07038581371307373,-0.01208615303039551,0.01348409056663513,XArbitraryZVertical,-0.3080940700162118,0.5079078327473787,-0.7854885594011667,-0.1735372380860103,-0.6602905988693237,0.6909800171852112,-0.2942153513431549,0,0,0,-1,-1,19369.710663875,unknown,2,2025-04-21T15:54:17.318+03:00,2025-04-20T21:57:49.637+03:00,6727,0.976288,0,0,5522.566,5,6,2025-04-21T15:44:52.413+03:00,766932872.8895561,0,-40.16,100.2136,1,0.4,2025-04-21T15:54:20.605+03:00,83,1.383333333333333,2025-04-21T12:30:07.995+03:00,0.02023345852159405,0
2025-04-21T15:54:34.043+03:00,1745240072.248771,40.95226103126694,29.14027780705777,76.23357,-1,-1,-1,-1,30,23.02324769301786,-9999,19386.430198375,-0.56243896484375,0.7322998046875,-0.128509521484375,19386.420123375,2.207962673318669,-1.15702583787683,-0.774718907248664,0.3357695341110229,-1.301812410354614,1.365979433059692,0.08157336711883545,0.01924985647201538,0.0817253589630127,XArbitraryZVertical,-0.3097622035291129,0.5102804995074304,-0.7852500261790503,-0.1644492467144543,-0.6543120145797729,0.6995152235031128,-0.2873223721981049,0,0,0,-1,-1,19369.710663875,unknown,2,2025-04-21T15:54:17.318+03:00,2025-04-20T21:57:49.637+03:00,6727,0.976288,0,0,5522.566,5,6,2025-04-21T15:44:52.413+03:00,766932872.8895561,0,-40.16,100.2136,1,0.4,2025-04-21T15:54:20.605+03:00,83,1.383333333333333,2025-04-21T12:30:07.995+03:00,0.02023345852159405,0
2025-04-21T15:54:34.053+03:00,1745240072.248771,40.95226103126694,29.14027780705777,76.23357,-1,-1,-1,-1,30,23.02324769301786,-9999,19386.440274375,-0.56951904296875,0.7932891845703125,-0.1058807373046875,19386.430198375,2.220700099613054,-1.161192204278707,-0.7856454718047661,0.4316366612911224,-1.297351837158203,1.339583039283752,0.08648747205734253,0.01499295234680176,0.1401449143886566,XArbitraryZVertical,-0.3117448416891011,0.511906920153023,-0.7853029976011738,-0.1551307861920949,-0.6484533548355103,0.7072816491127014,-0.2815329134464264,0,0,0,-1,-1,19369.710663875,unknown,2,2025-04-21T15:54:17.318+03:00,2025-04-20T21:57:49.637+03:00,6727,0.976288,0,0,5522.566,5,6,2025-04-21T15:44:52.413+03:00,766932872.8895561,0,-40.16,100.2136,1,0.4,2025-04-21T15:54:20.605+03:00,83,1.383333333333333,2025-04-21T12:30:07.995+03:00,0.02023345852159405,0
2025-04-21T15:54:34.063+03:00,1745240072.248771,40.95226103126694,29.14027780705777,76.23357,-1,-1,-1,-1,30,23.02324769301786,-9999,19386.450350375,-0.5698699951171875,0.83154296875,-0.0610809326171875,19386.440274375,2.233957615944902,-1.164724943557001,-0.7961321256646314,0.4222964346408844,-1.279087662696838,1.296397686004639,0.07603561878204346,0.05276936292648315,0.1606946289539337,XArbitraryZVertical,-0.313749650753121,0.5132382621138849,-0.7854067306629396,-0.1458895860710368,-0.6425943970680237,0.7146559357643127,-0.2762952744960785,0,0,0,-1,-1,19369.710663875,unknown,2,2025-04-21T15:54:17.318+03:00,2025-04-20T21:57:49.637+03:00,6727,0.976288,0,0,5522.566,5,6,2025-04-21T15:44:52.413+03:00,766932872.8895561,0,-40.16,100.2136,1,0.4,2025-04-21T15:54:20.605+03:00,83,1.383333333333333,2025-04-21T12:30:07.995+03:00,0.02023345852159405,0
2025-04-21T15:54:34.073+03:00,1745240072.248771,40.95226103126694,29.14027780705777,76.23357,-1,-1,-1,-1,30,23.02324769301786,-9999,19386.460426375,-0.5693511962890625,0.8128814697265625,0.0178680419921875,19386.450350375,2.245848980288048,-1.168914552288162,-0.8063228772231111,0.2797388136386871,-1.246339678764343,1.205270886421204,0.06642329692840576,0.1029447317123413,0.1884012818336487,XArbitraryZVertical,-0.3157591439831973,0.5147108381788987,-0.7852222079895674,-0.1370947607415177,-0.6370105147361755,0.7217469215393066,-0.2707378268241882,0,0,0,-1,-1,19369.710663875,unknown,2,2025-04-21T15:54:17.318+03:00,2025-04-20T21:57:49.637+03:00,6727,0.976288,0,0,5522.566,5,6,2025-04-21T15:44:52.413+03:00,766932872.8895561,0,-40.16,100.2136,1,0.4,2025-04-21T15:54:20.605+03:00,83,1.383333333333333,2025-04-21T12:30:07.995+03:00,0.02023345852159405,0
2025-04-21T15:54:34.083+03:00,1745240072.248771,40.95226103126694,29.14027780705777,76.23357,-1,-1,-1,-1,30,23.02324769301786,-9999,19386.470502375,-0.5657501220703125,0.7781219482421875,0.1003875732421875,19386.460426375,2.254764819120209,-1.174834145637139,-0.8163834368984905,0.05730680376291275,-1.206565380096436,1.118512868881226,0.06352633237838745,0.09613996744155884,0.2497438490390778,XArbitraryZVertical,-0.3177306357741669,0.5166944250256753,-0.7844871886813479,-0.1290504392939162,-0.6318705081939697,0.7286737561225891,-0.2641482353210449,0,0,0,-1,-1,19369.710663875,unknown,2,2025-04-21T15:54:17.318+03:00,2025-04-20T21:57:49.637+03:00,6727,0.976288,0,0,5522.566,5,6,2025-04-21T15:44:52.413+03:00,766932872.8895561,0,-40.16,100.2136,1,0.4,2025-04-21T15:54:20.605+03:00,83,1.383333333333333,2025-04-21T12:30:07.995+03:00,0.02023345852159405,0
2025-04-21T15:54:34.093+03:00,1745240072.248771,40.95226103126694,29.14027780705777,76.23357,-1,-1,-1,-1,30,23.02324769301786,-9999,19386.480577375,-0.5585479736328125,0.749420166015625,0.159637451171875,19386.470502375,2.260179055760307,-1.182538371236785,-0.8269512876036229,-0.1763815730810165,-1.10370409488678,1.104151606559753,0.05828845500946045,0.0544431209564209,0.3278452754020691,XArbitraryZVertical,-0.3193695877032419,0.5194532850197784,-0.7831657897894477,-0.1217486646168593,-0.6267241835594177,0.7358704209327698,-0.2563427090644836,0,0,0,-1,-1,19369.710663875,unknown,2,2025-04-21T15:54:17.318+03:00,2025-04-20T21:57:49.637+03:00,6727,0.976288,0,0,5522.566,5,6,2025-04-21T15:44:52.413+03:00,766932872.8895561,0,-40.16,100.2136,1,0.4,2025-04-21T15:54:20.605+03:00,83,1.383333333333333,2025-04-21T12:30:07.995+03:00,0.02023345852159405,0
2025-04-21T15:54:34.111+03:00,1745240072.248771,40.95226103126694,29.14027780705777,76.23357,-1,-1,-1,-1,30,23.02324769301786,-9999,19386.490653375,-0.5753936767578125,0.723541259765625,0.2064208984375,19386.480577375,2.262532696756236,-1.191313021741444,-0.8381278636736655,-0.3481280505657196,-0.9767563939094543,1.065503239631653,0.06173086166381836,0.0167546272277832,0.3886250257492065,XArbitraryZVertical,-0.3204667299443515,0.5228914351588885,-0.781424518172618,-0.1151572601832582,-0.6212705969810486,0.7433922290802002,-0.2477712482213974,0,0,0,-1,-1,19369.710663875,unknown,2,2025-04-21T15:54:17.318+03:00,2025-04-20T21:57:49.637+03:00,6727,0.976288,0,0,5522.566,5,6,2025-04-21T15:44:52.413+03:00,766932872.8895561,0,-40.16,100.2136,1,0.4,2025-04-21T15:54:20.605+03:00,83,1.383333333333333,2025-04-21T12:30:07.995+03:00,0.02023345852159405,0
2025-04-21T15:54:34.114+03:00,1745240072.248771,40.95226103126694,29.14027780705777,76.23357,-1,-1,-1,-1,30,23.02324769301786,-9999,19386.500729375,-0.601959228515625,0.7482452392578125,0.280364990234375,19386.490653375,2.263063343879364,-1.199849783222838,-0.8492388075151558,-0.3756430149078369,-0.7906712293624878,1.01368260383606,0.05031931400299072,-0.0203092098236084,0.4260798096656799,XArbitraryZVertical,-0.3209966168329677,0.5265323777356236,-0.7795973124520685,-0.1093292517675481,-0.6156269907951355,0.7507778406143188,-0.2394496500492096,0,0,0,-1,-1,19369.710663875,unknown,2,2025-04-21T15:54:17.318+03:00,2025-04-20T21:57:49.637+03:00,6727,0.976288,0,0,5522.566,5,6,2025-04-21T15:44:52.413+03:00,766932872.8895561,0,-40.16,100.2136,1,0.4,2025-04-21T15:54:20.605+03:00,83,1.383333333333333,2025-04-21T12:30:07.995+03:00,0.02023345852159405,0
2025-04-21T15:54:34.123+03:00,1745240072.248771,40.95226103126694,29.14027780705777,76.23357,-1,-1,-1,-1,30,23.02324769301786,-9999,19386.510805375,-0.617828369140625,0.839019775390625,0.35699462890625,19386.500729375,2.263997051532289,-1.206041822721312,-0.8595374384677202,-0.219455286860466,-0.5784149169921875,0.9363508224487305,0.01711404323577881,-0.02789616584777832,0.4822672307491302,XArbitraryZVertical,-0.320919525664011,0.5296975196006579,-0.7781883111325482,-0.1041821105837431,-0.6098416447639465,0.7575407028198242,-0.2328623980283737,0,0,0,-1,-1,19369.710663875,unknown,2,2025-04-21T15:54:17.318+03:00,2025-04-20T21:57:49.637+03:00,6727,0.976288,0,0,5522.566,5,6,2025-04-21T15:44:52.413+03:00,766932872.8895561,0,-40.16,100.2136,1,0.4,2025-04-21T15:54:20.605+03:00,83,1.383333333333333,2025-04-21T12:30:07.995+03:00,0.02023345852159405,0
2025-04-21T15:54:34.133+03:00,1745240072.248771,40.95226103126694,29.14027780705777,76.23357,-1,-1,-1,-1,30,23.02324769301786,-9999,19386.520881375,-0.617218017578125,0.9326324462890625,0.370574951171875,19386.510805375,2.268073646090576,-1.207622665900169,-0.8679863884040004,0.1219915971159935,-0.3514477610588074,0.8136537075042725,-0.009412527084350586,0.03718745708465576,0.5606249570846558,XArbitraryZVertical,-0.3203680167398619,0.5315602417792672,-0.7777467841455872,-0.09958793599608561,-0.6042043566703796,0.7630289793014526,-0.2296160906553268,0,0,0,-1,-1,19369.710663875,unknown,2,2025-04-21T15:54:17.318+03:00,2025-04-20T21:57:49.637+03:00,6727,0.976288,0,0,5522.566,5,6,2025-04-21T15:44:52.413+03:00,766932872.8895561,0,-40.16,100.2136,1,0.4,2025-04-21T15:54:20.605+03:00,83,1.383333333333333,2025-04-21T12:30:07.995+03:00,0.02023345852159405,0
2025-04-21T15:54:34.143+03:00,1745240072.248771,40.95226103126694,29.14027780705777,76.23357,-1,-1,-1,-1,30,23.02324769301786,-9999,19386.530956375,-0.62164306640625,0.9745635986328125,0.36846923828125,19386.520881375,2.276733529908066,-1.203403090437071,-0.8738849857709677,0.5009799003601074,-0.1247530877590179,0.6749514937400818,-0.01917523145675659,0.1340656876564026,0.6046883463859558,XArbitraryZVertical,-0.3194608448423997,0.5316702864134855,-0.7785529575502477,-0.09553384116288433,-0.5990194082260132,0.7668282985687256,-0.2305429428815842,0,0,0,-1,-1,19369.710663875,unknown,2,2025-04-21T15:54:17.318+03:00,2025-04-20T21:57:49.637+03:00,6727,0.976288,0,0,5522.566,5,6,2025-04-21T15:44:52.413+03:00,766932872.8895561,0,-40.16,100.2136,1,0.4,2025-04-21T15:54:20.605+03:00,83,1.383333333333333,2025-04-21T12:30:07.995+03:00,0.02023345852159405,0
2025-04-21T15:54:34.153+03:00,1745240072.248771,40.95226103126694,29.14027780705777,76.23357,-1,-1,-1,-1,30,23.02324769301786,-9999,19386.541032375,-0.6392974853515625,0.92303466796875,0.4283294677734375,19386.530956375,2.290160949877938,-1.193073340387199,-0.8770086113210324,0.8554866313934326,0.1315623819828033,0.5188090205192566,-0.02387905120849609,0.1999050974845886,0.5988859534263611,XArbitraryZVertical,-0.3181724830436451,0.5299522856939463,-0.7806641175657896,-0.09208841660920136,-0.5943766236305237,0.7688294649124146,-0.2358336895704269,0,0,0,-1,-1,19369.710663875,unknown,2,2025-04-21T15:54:17.318+03:00,2025-04-20T21:57:49.637+03:00,6727,0.976288,0,0,5522.566,5,6,2025-04-21T15:44:52.413+03:00,766932872.8895561,0,-40.16,100.2136,1,0.4,2025-04-21T15:54:20.605+03:00,83,1.383333333333333,2025-04-21T12:30:07.995+03:00,0.02023345852159405,0
2025-04-21T15:54:34.163+03:00,1745240072.248771,40.95226103126694,29.14027780705777,76.23357,-1,-1,-1,-1,30,23.02324769301786,-9999,19386.551108375,-0.6563720703125,0.8289337158203125,0.48858642578125,19386.541032375,2.306182857629313,-1.178094489583218,-0.8775061289772306,0.9240294694900513,0.3948526084423065,0.3313502073287964,-0.04040485620498657,0.1835042834281921,0.6451677083969116,XArbitraryZVertical,-0.3164170104391288,0.5268761726835917,-0.7837399203063248,-0.08962898058828733,-0.5904240608215332,0.769147515296936,-0.2445635497570038,0,0,0,-1,-1,19369.710663875,unknown,2,2025-04-21T15:54:17.318+03:00,2025-04-20T21:57:49.637+03:00,6727,0.976288,0,0,5522.566,5,6,2025-04-21T15:44:52.413+03:00,766932872.8895561,0,-40.16,100.2136,1,0.4,2025-04-21T15:54:20.605+03:00,83,1.383333333333333,2025-04-21T12:30:07.995+03:00,0.02023345852159405,0
