loggingTime(txt),locationTimestamp_since1970(s),locationLatitude(WGS84),locationLongitude(WGS84),locationAltitude(m),locationSpeed(m/s),locationSpeedAccuracy(m/s),locationCourse(°),locationCourseAccuracy(°),locationVerticalAccuracy(m),locationHorizontalAccuracy(m),locationFloor(Z),accelerometerTimestamp_sinceReboot(s),accelerometerAccelerationX(G),accelerometerAccelerationY(G),accelerometerAccelerationZ(G),motionTimestamp_sinceReboot(s),motionYaw(rad),motionRoll(rad),motionPitch(rad),motionRotationRateX(rad/s),motionRotationRateY(rad/s),motionRotationRateZ(rad/s),motionUserAccelerationX(G),motionUserAccelerationY(G),motionUserAccelerationZ(G),motionAttitudeReferenceFrame(txt),motionQuaternionX(R),motionQuaternionY(R),motionQuaternionZ(R),motionQuaternionW(R),motionGravityX(G),motionGravityY(G),motionGravityZ(G),motionMagneticFieldX(µT),motionMagneticFieldY(µT),motionMagneticFieldZ(µT),motionHeading(°),motionMagneticFieldCalibrationAccuracy(Z),activityTimestamp_sinceReboot(s),activity(txt),activityActivityConfidence(Z),activityActivityStartDate(txt),pedometerStartDate(txt),pedometerNumberofSteps(N),pedometerAverageActivePace(s/m),pedometerCurrentPace(s/m),pedometerCurrentCadence(steps/s),pedometerDistance(m),pedometerFloorAscended(N),pedometerFloorDescended(N),pedometerEndDate(txt),altimeterTimestamp_sinceReboot(s),altimeterReset(bool),altimeterRelativeAltitude(m),altimeterPressure(kPa),batteryState(N),batteryLevel(R),heartRateBPMTimestamp(txt),heartRateBPM(N),heartRateBPS(R),heartRateVariabilityTimestamp(txt),heartRateVariability(ms),label
2025-04-18T12:28:59.660+03:00,1744968539.412587,40.95366318922127,29.14102828050063,92.44445,-1,-1,-1,-1,30,31.2094058870221,-9999,66548.45859479166,-0.6802978515625,0.6818084716796875,-0.130706787109375,66548.44851979167,1.264365249858195,-1.37091129508513,-0.7724224030592475,0.00890942569822073,-0.007131404709070921,-0.01651887781918049,-0.04832804203033447,-0.0009270310401916504,-0.001069307327270508,XArbitraryZVertical,0.1112613864180924,-0.6453801586699653,0.6161118762161685,0.4376203665097491,-0.7019619345664978,0.6978722810745239,-0.1422107070684433,0,0,0,-1,-1,66540.06475766667,unknown,2,2025-04-18T12:28:51.236+03:00,2025-04-17T15:44:39.500+03:00,7638,1.148105,0,0,6290.708,4,10,2025-04-18T12:28:51.236+03:00,766661339.0591693,0,110.73,100.5267,1,0.45,2025-04-18T12:23:56.170+03:00,84,1.4,2025-04-18T08:51:18.885+03:00,0.03057091307199995,1
2025-04-18T12:28:59.662+03:00,1744968539.412587,40.95366318922127,29.14102828050063,92.44445,-1,-1,-1,-1,30,31.2094058870221,-9999,66548.46866979168,-0.7091064453125,0.6881561279296875,-0.141693115234375,66548.45859479166,1.264422567627145,-1.37075344218017,-0.7723423452376227,0.007606873288750648,0.02873897925019264,0.008582480251789093,0.01470774412155151,-0.01318359375,0.01048149168491364,XArbitraryZVertical,0.1112600902984109,-0.6453331656428555,0.6161211665869334,0.4376768139309626,-0.7019941210746765,0.69781494140625,-0.142332598567009,0,0,0,-1,-1,66540.06475766667,unknown,2,2025-04-18T12:28:51.236+03:00,2025-04-17T15:44:39.500+03:00,7638,1.148105,0,0,6290.708,4,10,2025-04-18T12:28:51.236+03:00,766661339.0591693,0,110.73,100.5267,1,0.45,2025-04-18T12:23:56.170+03:00,84,1.4,2025-04-18T08:51:18.885+03:00,0.03057091307199995,1
2025-04-18T12:28:59.667+03:00,1744968539.412587,40.95366318922127,29.14102828050063,92.44445,-1,-1,-1,-1,30,31.2094058870221,-9999,66548.47874479168,-0.6970367431640625,0.693328857421875,-0.144561767578125,66548.46866979168,1.264511459576685,-1.370498849409905,-0.7723992501947027,-0.0004846085794270039,0.008858746849000454,0.00553862052038312,-0.0007176995277404785,-0.01189672946929932,0.002916142344474792,XArbitraryZVertical,0.1111898036800502,-0.6452790899376918,0.6161633252379082,0.4377152204190067,-0.7019191384315491,0.6978556513786316,-0.1425034403800964,0,0,0,-1,-1,66540.06475766667,unknown,2,2025-04-18T12:28:51.236+03:00,2025-04-17T15:44:39.500+03:00,7638,1.148105,0,0,6290.708,4,10,2025-04-18T12:28:51.236+03:00,766661339.0591693,0,110.73,100.5267,1,0.45,2025-04-18T12:23:56.170+03:00,84,1.4,2025-04-18T08:51:18.885+03:00,0.03057091307199995,1
2025-04-18T12:28:59.679+03:00,1744968539.412587,40.95366318922127,29.14102828050063,92.44445,-1,-1,-1,-1,30,31.2094058870221,-9999,66548.48882079167,-0.6936798095703125,0.6944122314453125,-0.1488189697265625,66548.47874479168,1.26458091651621,-1.370302504126639,-0.7724830956537188,0.008588248863816261,0.01656007580459118,0.005579899530857801,5.7220458984375e-06,-0.00367128849029541,-0.002466201782226562,XArbitraryZVertical,0.1111215602454401,-0.6452419659873152,0.6162020380985525,0.4377327732084281,-0.7018337845802307,0.6979157328605652,-0.1426296085119247,0,0,0,-1,-1,66540.06475766667,unknown,2,2025-04-18T12:28:51.236+03:00,2025-04-17T15:44:39.500+03:00,7638,1.148105,0,0,6290.708,4,10,2025-04-18T12:28:51.236+03:00,766661339.0591693,0,110.73,100.5267,1,0.45,2025-04-18T12:23:56.170+03:00,84,1.4,2025-04-18T08:51:18.885+03:00,0.03057091307199995,1
2025-04-18T12:28:59.690+03:00,1744968539.412587,40.95366318922127,29.14102828050063,92.44445,-1,-1,-1,-1,30,31.2094058870221,-9999,66548.49889579166,-0.69720458984375,0.707763671875,-0.153900146484375,66548.48882079167,1.264817785514158,-1.369969711566387,-0.77249511685966,0.02282863669097424,0.009323402307927608,0.0009647413389757276,0.009654521942138672,-0.004992187023162842,-0.004843533039093018,XArbitraryZVertical,0.1110911413509114,-0.645157361297827,0.6162741794518033,0.4377635555217595,-0.7017779350280762,0.6979243159294128,-0.142861470580101,0,0,0,-1,-1,66540.06475766667,unknown,2,2025-04-18T12:28:51.236+03:00,2025-04-17T15:44:39.500+03:00,7638,1.148105,0,0,6290.708,4,10,2025-04-18T12:28:51.236+03:00,766661339.0591693,0,110.73,100.5267,1,0.45,2025-04-18T12:23:56.170+03:00,84,1.4,2025-04-18T08:51:18.885+03:00,0.03057091307199995,1
2025-04-18T12:28:59.694+03:00,1744968539.412587,40.95366318922127,29.14102828050063,92.44445,-1,-1,-1,-1,30,31.2094058870221,-9999,66548.50897079168,-0.6960296630859375,0.7017974853515625,-0.1501007080078125,66548.49889579166,1.26517207238157,-1.369595921759448,-0.7724635299021413,0.02721433155238628,0.01521538011729717,8.829511352814734e-05,0.002786636352539062,0.01030445098876953,-0.01116858422756195,XArbitraryZVertical,0.1111016368213414,-0.6450522023962847,0.6163677562067819,0.4377840021611563,-0.7017459869384766,0.697901725769043,-0.1431281715631485,0,0,0,-1,-1,66540.06475766667,unknown,2,2025-04-18T12:28:51.236+03:00,2025-04-17T15:44:39.500+03:00,7638,1.148105,0,0,6290.708,4,10,2025-04-18T12:28:51.236+03:00,766661339.0591693,0,110.73,100.5267,1,0.45,2025-04-18T12:23:56.170+03:00,84,1.4,2025-04-18T08:51:18.885+03:00,0.03057091307199995,1
2025-04-18T12:28:59.704+03:00,1744968539.412587,40.95366318922127,29.14102828050063,92.44445,-1,-1,-1,-1,30,31.2094058870221,-9999,66548.51904679167,-0.6978302001953125,0.7006988525390625,-0.1483001708984375,66548.50897079168,1.265581882287004,-1.369182924181256,-0.7724159255532713,0.03082983754575253,0.009932734072208405,-0.002719875192269683,0.006467998027801514,0.00461655855178833,-0.006965875625610352,XArbitraryZVertical,0.1111235698532329,-0.6449335020771241,0.6164732605690819,0.4378049309076376,-0.7017195820808411,0.6978676319122314,-0.1434246599674225,0,0,0,-1,-1,66540.06475766667,unknown,2,2025-04-18T12:28:51.236+03:00,2025-04-17T15:44:39.500+03:00,7638,1.148105,0,0,6290.708,4,10,2025-04-18T12:28:51.236+03:00,766661339.0591693,0,110.73,100.5267,1,0.45,2025-04-18T12:23:56.170+03:00,84,1.4,2025-04-18T08:51:18.885+03:00,0.03057091307199995,1
2025-04-18T12:28:59.715+03:00,1744968539.412587,40.95366318922127,29.14102828050063,92.44445,-1,-1,-1,-1,30,31.2094058870221,-9999,66548.52912116668,-0.697113037109375,0.6934356689453125,-0.144775390625,66548.51904679167,1.265930766622853,-1.368846303424623,-0.772378872511453,0.02145897224545479,0.008391030132770538,0.001087646349333227,0.003149271011352539,0.002751052379608154,-0.005351200699806213,XArbitraryZVertical,0.1111455681875231,-0.6448361188880046,0.6165627789574246,0.4378168882753822,-0.7016967535018921,0.6978411078453064,-0.1436660885810852,0,0,0,-1,-1,66540.06475766667,unknown,2,2025-04-18T12:28:51.236+03:00,2025-04-17T15:44:39.500+03:00,7638,1.148105,0,0,6290.708,4,10,2025-04-18T12:28:51.236+03:00,766661339.0591693,0,110.73,100.5267,1,0.45,2025-04-18T12:23:56.170+03:00,84,1.4,2025-04-18T08:51:18.885+03:00,0.03057091307199995,1
2025-04-18T12:28:59.725+03:00,1744968539.412587,40.95366318922127,29.14102828050063,92.44445,-1,-1,-1,-1,30,31.2094058870221,-9999,66548.53919616668,-0.7005615234375,0.688873291015625,-0.1434783935546875,66548.52912116668,1.266165165822088,-1.368611177666989,-0.7723286363201177,0.01338593382388353,0.007848876528441906,0.00402434729039669,0.004309415817260742,-0.003224968910217285,-0.002081647515296936,XArbitraryZVertical,0.1111667396856325,-0.6447657764177462,0.6166196385809981,0.4378349934492735,-0.7016972303390503,0.6978051066398621,-0.1438380926847458,0,0,0,-1,-1,66540.06475766667,unknown,2,2025-04-18T12:28:51.236+03:00,2025-04-17T15:44:39.500+03:00,7638,1.148105,0,0,6290.708,4,10,2025-04-18T12:28:51.236+03:00,766661339.0591693,0,110.73,100.5267,1,0.45,2025-04-18T12:23:56.170+03:00,84,1.4,2025-04-18T08:51:18.885+03:00,0.03057091307199995,1
2025-04-18T12:28:59.735+03:00,1744968539.412587,40.95366318922127,29.14102828050063,92.44445,-1,-1,-1,-1,30,31.2094058870221,-9999,66548.54927116667,-0.702789306640625,0.6904144287109375,-0.142547607421875,66548.53919616668,1.266341240403629,-1.368433482780342,-0.7723547532801898,0.01262080762535334,0.00602274714037776,0.005790821742266417,0.001717746257781982,-0.008584201335906982,0.0007859915494918823,XArbitraryZVertical,0.1111593319334025,-0.6447201298940841,0.6166719718973085,0.4378303484353461,-0.701653778553009,0.6978238224983215,-0.1439591199159622,0,0,0,-1,-1,66540.06475766667,unknown,2,2025-04-18T12:28:51.236+03:00,2025-04-17T15:44:39.500+03:00,7638,1.148105,0,0,6290.708,4,10,2025-04-18T12:28:51.236+03:00,766661339.0591693,0,110.73,100.5267,1,0.45,2025-04-18T12:23:56.170+03:00,84,1.4,2025-04-18T08:51:18.885+03:00,0.03057091307199995,1
2025-04-18T12:28:59.745+03:00,1744968539.412587,40.95366318922127,29.14102828050063,92.44445,-1,-1,-1,-1,30,31.2094058870221,-9999,66548.55934716667,-0.702850341796875,0.695709228515625,-0.1431732177734375,66548.54927116667,1.266534645901898,-1.368257144431137,-0.7723774538295695,0.01506019569933414,0.003310783300548792,0.006384407635778189,-0.0008256435394287109,-0.007379829883575439,0.0009827613830566406,XArbitraryZVertical,0.1111591765185748,-0.6446734226742034,0.6167275132423045,0.4378208240373886,-0.7016127705574036,0.6978400945663452,-0.1440796256065369,0,0,0,-1,-1,66540.06475766667,unknown,2,2025-04-18T12:28:51.236+03:00,2025-04-17T15:44:39.500+03:00,7638,1.148105,0,0,6290.708,4,10,2025-04-18T12:28:51.236+03:00,766661339.0591693,0,110.73,100.5267,1,0.45,2025-04-18T12:23:56.170+03:00,84,1.4,2025-04-18T08:51:18.885+03:00,0.03057091307199995,1
2025-04-18T12:28:59.755+03:00,1744968539.412587,40.95366318922127,29.14102828050063,92.44445,-1,-1,-1,-1,30,31.2094058870221,-9999,66548.56942216666,-0.701690673828125,0.6988067626953125,-0.1464691162109375,66548.55934716667,1.266743225360578,-1.368096506373882,-0.7724144047386642,0.01381303742527962,0.0001860964111983776,0.007224368397146463,-0.001057147979736328,-0.003042280673980713,0.001242876052856445,XArbitraryZVertical,0.1111635636225663,-0.6446309696402078,0.6167876256922784,0.4377975678063413,-0.7015643715858459,0.6978665590286255,-0.1441871523857117,0,0,0,-1,-1,66540.06475766667,unknown,2,2025-04-18T12:28:51.236+03:00,2025-04-17T15:44:39.500+03:00,7638,1.148105,0,0,6290.708,4,10,2025-04-18T12:28:51.236+03:00,766661339.0591693,0,110.73,100.5267,1,0.45,2025-04-18T12:23:56.170+03:00,84,1.4,2025-04-18T08:51:18.885+03:00,0.03057091307199995,1
2025-04-18T12:28:59.765+03:00,1744968539.412587,40.95366318922127,29.14102828050063,92.44445,-1,-1,-1,-1,30,31.2094058870221,-9999,66548.57949716668,-0.699249267578125,0.697235107421875,-0.149566650390625,66548.56942216666,1.266949562050385,-1.367961216792386,-0.7724270953602428,0.01467863190919161,-0.002585388254374266,-0.001018747687339783,-0.0007649064064025879,0.0008396506309509277,-0.002020910382270813,XArbitraryZVertical,0.1111837436972361,-0.644591364038287,0.616842204971213,0.4377739459989208,-0.701536238193512,0.6978756189346313,-0.1442802995443344,0,0,0,-1,-1,66540.06475766667,unknown,2,2025-04-18T12:28:51.236+03:00,2025-04-17T15:44:39.500+03:00,7638,1.148105,0,0,6290.708,4,10,2025-04-18T12:28:51.236+03:00,766661339.0591693,0,110.73,100.5267,1,0.45,2025-04-18T12:23:56.170+03:00,84,1.4,2025-04-18T08:51:18.885+03:00,0.03057091307199995,1
2025-04-18T12:28:59.775+03:00,1744968539.412587,40.95366318922127,29.14102828050063,92.44445,-1,-1,-1,-1,30,31.2094058870221,-9999,66548.58957216667,-0.7028961181640625,0.6999053955078125,-0.1521148681640625,66548.57949716668,1.267188488028639,-1.367810354212431,-0.7723983595989885,0.01794526539742947,-0.003103639464825392,0.0003469213552307338,0.001964330673217773,-0.0009097456932067871,-0.004398241639137268,XArbitraryZVertical,0.1112245544930949,-0.6445417070083661,0.616898595805396,0.4377572274089949,-0.7015341520309448,0.6978550553321838,-0.1443901658058167,0,0,0,-1,-1,66540.06475766667,unknown,2,2025-04-18T12:28:51.236+03:00,2025-04-17T15:44:39.500+03:00,7638,1.148105,0,0,6290.708,4,10,2025-04-18T12:28:51.236+03:00,766661339.0591693,0,110.73,100.5267,1,0.45,2025-04-18T12:23:56.170+03:00,84,1.4,2025-04-18T08:51:18.885+03:00,0.03057091307199995,1
2025-04-18T12:28:59.785+03:00,1744968539.412587,40.95366318922127,29.14102828050063,92.44445,-1,-1,-1,-1,30,31.2094058870221,-9999,66548.59964816667,-0.702056884765625,0.6999053955078125,-0.15008544921875,66548.58957216667,1.267510351845451,-1.367600206632072,-0.7723509276943193,0.02491688914597034,-0.001751286443322897,-0.0005969029734842479,-0.001207470893859863,0.001245081424713135,-0.007540032267570496,XArbitraryZVertical,0.1112805561825448,-0.6444722731852579,0.6169736525159822,0.437739343598824,-0.7015360593795776,0.6978210806846619,-0.1445442587137222,0,0,0,-1,-1,66540.06475766667,unknown,2,2025-04-18T12:28:51.236+03:00,2025-04-17T15:44:39.500+03:00,7638,1.148105,0,0,6290.708,4,10,2025-04-18T12:28:51.236+03:00,766661339.0591693,0,110.73,100.5267,1,0.45,2025-04-18T12:23:56.170+03:00,84,1.4,2025-04-18T08:51:18.885+03:00,0.03057091307199995,1
2025-04-18T12:28:59.795+03:00,1744968539.412587,40.95366318922127,29.14102828050063,92.44445,-1,-1,-1,-1,30,31.2094058870221,-9999,66548.60972316666,-0.7039947509765625,0.69622802734375,-0.14593505859375,66548.59964816667,1.267898909409516,-1.367342829664627,-0.7722997394315234,0.02684688195586205,-0.002360617741942406,-0.001727681141346693,-0.001438558101654053,0.002319395542144775,-0.006085753440856934,XArbitraryZVertical,0.1113447475770201,-0.6443883370263376,0.6170653740924009,0.437717354565393,-0.7015339136123657,0.697784423828125,-0.1447320431470871,0,0,0,-1,-1,66540.06475766667,unknown,2,2025-04-18T12:28:51.236+03:00,2025-04-17T15:44:39.500+03:00,7638,1.148105,0,0,6290.708,4,10,2025-04-18T12:28:51.236+03:00,766661339.0591693,0,110.73,100.5267,1,0.45,2025-04-18T12:23:56.170+03:00,84,1.4,2025-04-18T08:51:18.885+03:00,0.03057091307199995,1
2025-04-18T12:28:59.805+03:00,1744968539.412587,40.95366318922127,29.14102828050063,92.44445,-1,-1,-1,-1,30,31.2094058870221,-9999,66548.61979816668,-0.7032012939453125,0.691680908203125,-0.1421356201171875,66548.60972316666,1.26822644846905,-1.367139061211517,-0.7722360787449152,0.0209684856235981,-0.001839437056332827,-0.003075773362070322,-0.001867175102233887,-0.0006715059280395508,-0.001340925693511963,XArbitraryZVertical,0.1114103310091926,-0.6443180594142709,0.6171389097429584,0.4377003767122528,-0.7015478014945984,0.6977388262748718,-0.1448839455842972,0,0,0,-1,-1,66540.06475766667,unknown,2,2025-04-18T12:28:51.236+03:00,2025-04-17T15:44:39.500+03:00,7638,1.148105,0,0,6290.708,4,10,2025-04-18T12:28:51.236+03:00,766661339.0591693,0,110.73,100.5267,1,0.45,2025-04-18T12:23:56.170+03:00,84,1.4,2025-04-18T08:51:18.885+03:00,0.03057091307199995,1
2025-04-18T12:28:59.815+03:00,1744968539.412587,40.95366318922127,29.14102828050063,92.44445,-1,-1,-1,-1,30,31.2094058870221,-9999,66548.62987316668,-0.7002410888671875,0.691253662109375,-0.14166259765625,66548.61979816668,1.268458660672697,-1.36698824521858,-0.772168635075714,0.01413854211568832,-0.002121732104569674,-0.003821990918368101,-0.002117514610290527,-0.004865109920501709,0.003138363361358643,XArbitraryZVertical,0.1114628300367935,-0.6442642228579127,0.6171880698689617,0.4376970225759125,-0.7015721201896667,0.697690486907959,-0.1449992954730988,0,0,0,-1,-1,66540.06475766667,unknown,2,2025-04-18T12:28:51.236+03:00,2025-04-17T15:44:39.500+03:00,7638,1.148105,0,0,6290.708,4,10,2025-04-18T12:28:51.236+03:00,766661339.0591693,0,110.73,100.5267,1,0.45,2025-04-18T12:23:56.170+03:00,84,1.4,2025-04-18T08:51:18.885+03:00,0.03057091307199995,1
2025-04-18T12:28:59.826+03:00,1744968539.412587,40.95366318922127,29.14102828050063,92.44445,-1,-1,-1,-1,30,31.2094058870221,-9999,66548.63994916667,-0.69830322265625,0.6953277587890625,-0.1442108154296875,66548.62987316668,1.268655724955683,-1.366884348699412,-0.7721054942370884,0.01681715063750744,-0.004462916869670153,-0.001060825539752841,0.001572668552398682,-0.006605088710784912,0.00398312509059906,XArbitraryZVertical,0.1115169430556382,-0.6442231077162113,0.6172275719024214,0.4376880998317785,-0.7016002535820007,0.6976452469825745,-0.1450811177492142,0,0,0,-1,-1,66540.06475766667,unknown,2,2025-04-18T12:28:51.236+03:00,2025-04-17T15:44:39.500+03:00,7638,1.148105,0,0,6290.708,4,10,2025-04-18T12:28:51.236+03:00,766661339.0591693,0,110.73,100.5267,1,0.45,2025-04-18T12:23:56.170+03:00,84,1.4,2025-04-18T08:51:18.885+03:00,0.03057091307199995,1
2025-04-18T12:28:59.836+03:00,1744968539.412587,40.95366318922127,29.14102828050063,92.44445,-1,-1,-1,-1,30,31.2094058870221,-9999,66548.65002416667,-0.696990966796875,0.6939849853515625,-0.1486663818359375,66548.63994916667,1.268846575274822,-1.366822212715915,-0.7720592862508265,0.01340351067483425,-0.008006252348423004,-0.001775618060491979,0.003105878829956055,-0.00248265266418457,0.001424059271812439,XArbitraryZVertical,0.1115758404926717,-0.6441934527850997,0.6172659119602479,0.4376627264259115,-0.7016228437423706,0.6976121664047241,-0.1451312601566315,0,0,0,-1,-1,66540.06475766667,unknown,2,2025-04-18T12:28:51.236+03:00,2025-04-17T15:44:39.500+03:00,7638,1.148105,0,0,6290.708,4,10,2025-04-18T12:28:51.236+03:00,766661339.0591693,0,110.73,100.5267,1,0.45,2025-04-18T12:23:56.170+03:00,84,1.4,2025-04-18T08:51:18.885+03:00,0.03057091307199995,1
2025-04-18T12:28:59.846+03:00,1744968539.412587,40.95366318922127,29.14102828050063,92.44445,-1,-1,-1,-1,30,31.2094058870221,-9999,66548.66009916666,-0.69757080078125,0.689605712890625,-0.149505615234375,66548.65002416667,1.269017234234275,-1.366797673912161,-0.7720269271814487,0.01474654302000999,-0.009429978206753731,0.0007594450144097209,0.004909634590148926,-0.003176689147949219,-0.003665924072265625,XArbitraryZVertical,0.1116349284115674,-0.6441747704282782,0.617299808730436,0.4376272116183444,-0.7016412615776062,0.6975889801979065,-0.1451530158519745,0,0,0,-1,-1,66540.06475766667,unknown,2,2025-04-18T12:28:51.236+03:00,2025-04-17T15:44:39.500+03:00,7638,1.148105,0,0,6290.708,4,10,2025-04-18T12:28:51.236+03:00,766661339.0591693,0,110.73,100.5267,1,0.45,2025-04-18T12:23:56.170+03:00,84,1.4,2025-04-18T08:51:18.885+03:00,0.03057091307199995,1
2025-04-18T12:28:59.856+03:00,1744968539.412587,40.95366318922127,29.14102828050063,92.44445,-1,-1,-1,-1,30,31.2094058870221,-9999,66548.67017416668,-0.699737548828125,0.6904754638671875,-0.14697265625,66548.66009916666,1.269192241778955,-1.366793955990177,-0.7720033782606136,0.01350684091448784,-0.01433205977082253,0.000265694921836257,0.004024922847747803,-0.007417023181915283,-0.004438161849975586,XArbitraryZVertical,0.111698622582616,-0.644161425716926,0.6173347995885333,0.4375812329580527,-0.7016568183898926,0.6975721120834351,-0.1451589465141296,0,0,0,-1,-1,66540.06475766667,unknown,2,2025-04-18T12:28:51.236+03:00,2025-04-17T15:44:39.500+03:00,7638,1.148105,0,0,6290.708,4,10,2025-04-18T12:28:51.236+03:00,766661339.0591693,0,110.73,100.5267,1,0.45,2025-04-18T12:23:56.170+03:00,84,1.4,2025-04-18T08:51:18.885+03:00,0.03057091307199995,1
2025-04-18T12:28:59.866+03:00,1744968539.412587,40.95366318922127,29.14102828050063,92.44445,-1,-1,-1,-1,30,31.2094058870221,-9999,66548.68025016667,-0.702117919921875,0.693023681640625,-0.1409912109375,66548.67017416668,1.269388428178294,-1.366818002473097,-0.7719541722670079,0.01345570757985115,-0.01990818604826927,-0.004552496131509542,0.00175786018371582,-0.006847798824310303,-0.002998456358909607,XArbitraryZVertical,0.1117869699814739,-0.6441499576036808,0.6173690500363999,0.4375271338467467,-0.7016937732696533,0.697536826133728,-0.1451490074396133,0,0,0,-1,-1,66540.06475766667,unknown,2,2025-04-18T12:28:51.236+03:00,2025-04-17T15:44:39.500+03:00,7638,1.148105,0,0,6290.708,4,10,2025-04-18T12:28:51.236+03:00,766661339.0591693,0,110.73,100.5267,1,0.45,2025-04-18T12:23:56.170+03:00,84,1.4,2025-04-18T08:51:18.885+03:00,0.03057091307199995,1
2025-04-18T12:28:59.876+03:00,1744968539.412587,40.95366318922127,29.14102828050063,92.44445,-1,-1,-1,-1,30,31.2094058870221,-9999,66548.69032516667,-0.702423095703125,0.6914825439453125,-0.13507080078125,66548.68025016667,1.269601054090311,-1.366868673693165,-0.7718578239048018,0.01375524699687958,-0.01765947975218296,-0.007637268863618374,-0.0001983642578125,-0.004795074462890625,0.002823665738105774,XArbitraryZVertical,0.1119057421308097,-0.6441378505281603,0.6173983731666026,0.4374732344054379,-0.7017669677734375,0.6974678039550781,-0.145127072930336,0,0,0,-1,-1,66540.06475766667,unknown,2,2025-04-18T12:28:51.236+03:00,2025-04-17T15:44:39.500+03:00,7638,1.148105,0,0,6290.708,4,10,2025-04-18T12:28:51.236+03:00,766661339.0591693,0,110.73,100.5267,1,0.45,2025-04-18T12:23:56.170+03:00,84,1.4,2025-04-18T08:51:18.885+03:00,0.03057091307199995,1
2025-04-18T12:28:59.887+03:00,1744968539.412587,40.95366318922127,29.14102828050063,92.44445,-1,-1,-1,-1,30,31.2094058870221,-9999,66548.70040016666,-0.7024078369140625,0.6978759765625,-0.137481689453125,66548.69032516667,1.269744114329436,-1.366948516830806,-0.771769727590366,0.0109892887994647,-0.01625519432127476,-0.007843397557735443,-0.0001114010810852051,-0.005876302719116211,0.00984489917755127,XArbitraryZVertical,0.1120081441142288,-0.6441369698232182,0.6174120688200125,0.437429014204625,-0.7018387317657471,0.697404682636261,-0.1450834721326828,0,0,0,-1,-1,66540.06475766667,unknown,2,2025-04-18T12:28:51.236+03:00,2025-04-17T15:44:39.500+03:00,7638,1.148105,0,0,6290.708,4,10,2025-04-18T12:28:51.236+03:00,766661339.0591693,0,110.73,100.5267,1,0.45,2025-04-18T12:23:56.170+03:00,84,1.4,2025-04-18T08:51:18.885+03:00,0.03057091307199995,1
2025-04-18T12:28:59.897+03:00,1744968539.412587,40.95366318922127,29.14102828050063,92.44445,-1,-1,-1,-1,30,31.2094058870221,-9999,66548.71047516668,-0.6995391845703125,0.695587158203125,-0.1411285400390625,66548.70040016666,1.26981351413709,-1.367096252463535,-0.7716474461227848,0.005459766834974289,-0.02066512405872345,-0.01136542856693268,-0.0007997751235961914,-0.0005701780319213867,0.007591724395751953,XArbitraryZVertical,0.1121200487356554,-0.6441510416626127,0.6174007446506206,0.437395693844103,-0.7019438147544861,0.6973170042037964,-0.1449970602989197,0,0,0,-1,-1,66540.06475766667,unknown,2,2025-04-18T12:28:51.236+03:00,2025-04-17T15:44:39.500+03:00,7638,1.148105,0,0,6290.708,4,10,2025-04-18T12:28:51.236+03:00,766661339.0591693,0,110.73,100.5267,1,0.45,2025-04-18T12:23:56.170+03:00,84,1.4,2025-04-18T08:51:18.885+03:00,0.03057091307199995,1
2025-04-18T12:28:59.907+03:00,1744968539.412587,40.95366318922127,29.14102828050063,92.44445,-1,-1,-1,-1,30,31.2094058870221,-9999,66548.72055116667,-0.7007598876953125,0.6903839111328125,-0.13751220703125,66548.71047516668,1.269804816089563,-1.367314783646243,-0.7715193000912303,-0.002166927559301257,-0.01907248795032501,-0.01020052749663591,0.002142190933227539,-0.001134395599365234,0.003458559513092041,XArbitraryZVertical,0.1122308267149999,-0.644184284316667,0.6173674889089082,0.4373651801429667,-0.7020629048347473,0.6972251534461975,-0.1448616981506348,0,0,0,-1,-1,66540.06475766667,unknown,2,2025-04-18T12:28:51.236+03:00,2025-04-17T15:44:39.500+03:00,7638,1.148105,0,0,6290.708,4,10,2025-04-18T12:28:51.236+03:00,766661339.0591693,0,110.73,100.5267,1,0.45,2025-04-18T12:23:56.170+03:00,84,1.4,2025-04-18T08:51:18.885+03:00,0.03057091307199995,1
2025-04-18T12:28:59.916+03:00,1744968539.412587,40.95366318922127,29.14102828050063,92.44445,-1,-1,-1,-1,30,31.2094058870221,-9999,66548.73062616667,-0.7017822265625,0.6894683837890625,-0.1435699462890625,66548.72055116667,1.269672351566328,-1.367583496202991,-0.7714672354792537,-0.01375567354261875,-0.0171547457575798,-0.005894196685403585,0.001621544361114502,-0.00642240047454834,0.006679952144622803,XArbitraryZVertical,0.1122898231178052,-0.6442443724850688,0.6173156750537392,0.4373346743782602,-0.7021373510360718,0.6971878409385681,-0.1446803659200668,0,0,0,-1,-1,66540.06475766667,unknown,2,2025-04-18T12:28:51.236+03:00,2025-04-17T15:44:39.500+03:00,7638,1.148105,0,0,6290.708,4,10,2025-04-18T12:28:51.236+03:00,766661339.0591693,0,110.73,100.5267,1,0.45,2025-04-18T12:23:56.170+03:00,84,1.4,2025-04-18T08:51:18.885+03:00,0.03057091307199995,1
2025-04-18T12:28:59.926+03:00,1744968539.412587,40.95366318922127,29.14102828050063,92.44445,-1,-1,-1,-1,30,31.2094058870221,-9999,66548.74070116667,-0.697174072265625,0.6882476806640625,-0.1484375,66548.73062616667,1.269464889406355,-1.367915415903493,-0.7714388080880731,-0.01285912003368139,-0.02123244293034077,-0.005482405424118042,0.0001630187034606934,-0.007927954196929932,0.00208689272403717,XArbitraryZVertical,0.1123357026203359,-0.6443252686457912,0.6172474358837203,0.4372999153934098,-0.7022046446800232,0.6971674561500549,-0.1444512754678726,0,0,0,-1,-1,66540.06475766667,unknown,2,2025-04-18T12:28:51.236+03:00,2025-04-17T15:44:39.500+03:00,7638,1.148105,0,0,6290.708,4,10,2025-04-18T12:28:51.236+03:00,766661339.0591693,0,110.73,100.5267,1,0.45,2025-04-18T12:23:56.170+03:00,84,1.4,2025-04-18T08:51:18.885+03:00,0.03057091307199995,1
2025-04-18T12:28:59.936+03:00,1744968539.412587,40.95366318922127,29.14102828050063,92.44445,-1,-1,-1,-1,30,31.2094058870221,-9999,66548.75077616666,-0.6961822509765625,0.69512939453125,-0.146392822265625,66548.74070116667,1.269364297826559,-1.368214788793291,-0.7713956635420058,-0.003636859357357025,-0.02889036387205124,-0.006733025889843702,0.004416704177856445,-0.009255051612854004,-0.004220843315124512,XArbitraryZVertical,0.1124111300448493,-0.6443913166472962,0.6172021731158014,0.4372472718971136,-0.7022774815559387,0.6971365213394165,-0.1442471444606781,0,0,0,-1,-1,66540.06475766667,unknown,2,2025-04-18T12:28:51.236+03:00,2025-04-17T15:44:39.500+03:00,7638,1.148105,0,0,6290.708,4,10,2025-04-18T12:28:51.236+03:00,766661339.0591693,0,110.73,100.5267,1,0.45,2025-04-18T12:23:56.170+03:00,84,1.4,2025-04-18T08:51:18.885+03:00,0.03057091307199995,1
2025-04-18T12:28:59.947+03:00,1744968539.412587,40.95366318922127,29.14102828050063,92.44445,-1,-1,-1,-1,30,31.2094058870221,-9999,66548.76085216667,-0.696807861328125,0.6938018798828125,-0.14361572265625,66548.75077616666,1.269296251887516,-1.368563720989867,-0.7713508435015771,-0.005316914524883032,-0.03069745004177094,-0.006158781703561544,0.005642056465148926,-0.002508997917175293,-0.003345727920532227,XArbitraryZVertical,0.1125129898151725,-0.6444661713755252,0.6171609815563837,0.4371689074502921,-0.7023584246635437,0.6971043944358826,-0.1440083682537079,0,0,0,-1,-1,66540.06475766667,unknown,2,2025-04-18T12:28:51.236+03:00,2025-04-17T15:44:39.500+03:00,7638,1.148105,0,0,6290.708,4,10,2025-04-18T12:28:51.236+03:00,766661339.0591693,0,110.73,100.5267,1,0.45,2025-04-18T12:23:56.170+03:00,84,1.4,2025-04-18T08:51:18.885+03:00,0.03057091307199995,1
2025-04-18T12:28:59.959+03:00,1744968539.412587,40.95366318922127,29.14102828050063,92.44445,-1,-1,-1,-1,30,31.2094058870221,-9999,66548.77092716667,-0.6970367431640625,0.6886138916015625,-0.1434783935546875,66548.76085216667,1.269148284662843,-1.368997413652292,-0.7712869895234241,-0.01198653411120176,-0.03336061164736748,-0.006859725806862116,0.00564110279083252,-0.002386927604675293,-0.0001929402351379395,XArbitraryZVertical,0.1126221174886837,-0.6445618166685587,0.6170946908804089,0.4370932941604481,-0.7024643421173096,0.6970586180686951,-0.1437126398086548,0,0,0,-1,-1,66540.06475766667,unknown,2,2025-04-18T12:28:51.236+03:00,2025-04-17T15:44:39.500+03:00,7638,1.148105,0,0,6290.708,4,10,2025-04-18T12:28:51.236+03:00,766661339.0591693,0,110.73,100.5267,1,0.45,2025-04-18T12:23:56.170+03:00,84,1.4,2025-04-18T08:51:18.885+03:00,0.03057091307199995,1
2025-04-18T12:28:59.967+03:00,1744968539.412587,40.95366318922127,29.14102828050063,92.44445,-1,-1,-1,-1,30,31.2094058870221,-9999,66548.78100216667,-0.696044921875,0.691619873046875,-0.1475677490234375,66548.77092716667,1.268949513908799,-1.369497491833563,-0.771201718618486,-0.01009881962090731,-0.03828446567058563,-0.01283848937600851,0.004855692386627197,-0.008093595504760742,-0.0003949999809265137,XArbitraryZVertical,0.1127429713041461,-0.6446723222396433,0.6170103209589849,0.4370183320222086,-0.7025943994522095,0.6969974637031555,-0.1433732360601425,0,0,0,-1,-1,66540.06475766667,unknown,2,2025-04-18T12:28:51.236+03:00,2025-04-17T15:44:39.500+03:00,7638,1.148105,0,0,6290.708,4,10,2025-04-18T12:28:51.236+03:00,766661339.0591693,0,110.73,100.5267,1,0.45,2025-04-18T12:23:56.170+03:00,84,1.4,2025-04-18T08:51:18.885+03:00,0.03057091307199995,1
2025-04-18T12:28:59.989+03:00,1744968539.412587,40.95366318922127,29.14102828050063,92.44445,-1,-1,-1,-1,30,31.2094058870221,-9999,66548.79107816667,-0.695831298828125,0.69293212890625,-0.1475677490234375,66548.78100216667,1.268749958789184,-1.370042056742898,-0.7711084220844701,-0.01252442691475153,-0.04193352907896042,-0.01041954010725021,0.005958616733551025,-0.005692124366760254,-0.004075825214385986,XArbitraryZVertical,0.1128802134335534,-0.6447916570667938,0.6169220406789523,0.4369313625069555,-0.702735960483551,0.6969305872917175,-0.1430035531520844,0,0,0,-1,-1,66540.06475766667,unknown,2,2025-04-18T12:28:51.236+03:00,2025-04-17T15:44:39.500+03:00,7638,1.148105,0,0,6290.708,4,10,2025-04-18T12:28:51.236+03:00,766661339.0591693,0,110.73,100.5267,1,0.45,2025-04-18T12:23:56.170+03:00,84,1.4,2025-04-18T08:51:18.885+03:00,0.03057091307199995,1
2025-04-18T12:28:59.990+03:00,1744968539.412587,40.95366318922127,29.14102828050063,92.44445,-1,-1,-1,-1,30,31.2094058870221,-9999,66548.80115316667,-0.6974029541015625,0.6925201416015625,-0.1414947509765625,66548.79107816667,1.268542516208004,-1.370651506598096,-0.7710338003018335,-0.01290499232709408,-0.04582786560058594,-0.01088386215269566,0.007180094718933105,-0.004112720489501953,-0.005668699741363525,XArbitraryZVertical,0.1130280887549605,-0.6449277857249085,0.6168311195284666,0.4368206809823503,-0.7028740644454956,0.6968770623207092,-0.1425856053829193,0,0,0,-1,-1,66540.06475766667,unknown,2,2025-04-18T12:28:51.236+03:00,2025-04-17T15:44:39.500+03:00,7638,1.148105,0,0,6290.708,4,10,2025-04-18T12:28:51.236+03:00,766661339.0591693,0,110.73,100.5267,1,0.45,2025-04-18T12:23:56.170+03:00,84,1.4,2025-04-18T08:51:18.885+03:00,0.03057091307199995,1
2025-04-18T12:28:59.997+03:00,1744968539.412587,40.95366318922127,29.14102828050063,92.44445,-1,-1,-1,-1,30,31.2094058870221,-9999,66548.81122816667,-0.7061614990234375,0.6923065185546875,-0.1404266357421875,66548.80115316667,1.268268654262336,-1.371294098070894,-0.7709607902730768,-0.01958606578409672,-0.04379028081893921,-0.01054564025253057,0.005566656589508057,-0.00341951847076416,-0.0004798769950866699,XArbitraryZVertical,0.1131641782356186,-0.6450750887323969,0.6167240216325268,0.4367191486519459,-0.7030154466629028,0.6968246698379517,-0.1421439945697784,0,0,0,-1,-1,66540.06475766667,unknown,2,2025-04-18T12:28:51.236+03:00,2025-04-17T15:44:39.500+03:00,7638,1.148105,0,0,6290.708,4,10,2025-04-18T12:28:51.236+03:00,766661339.0591693,0,110.73,100.5267,1,0.45,2025-04-18T12:23:56.170+03:00,84,1.4,2025-04-18T08:51:18.885+03:00,0.03057091307199995,1
2025-04-18T12:29:00.007+03:00,1744968539.412587,40.95366318922127,29.14102828050063,92.44445,-1,-1,-1,-1,30,31.2094058870221,-9999,66548.82130316667,-0.7096710205078125,0.6999053955078125,-0.1396484375,66548.81122816667,1.267974847152925,-1.37194389733338,-0.7708783254672021,-0.01845788210630417,-0.04325731471180916,-0.0103332195430994,-0.002310991287231445,-0.004260659217834473,0.001882269978523254,XArbitraryZVertical,0.1132994453159391,-0.645223991310272,0.6166107039825278,0.4366239812062708,-0.7031638622283936,0.6967655420303345,-0.1416984796524048,0,0,0,-1,-1,66540.06475766667,unknown,2,2025-04-18T12:28:51.236+03:00,2025-04-17T15:44:39.500+03:00,7638,1.148105,0,0,6290.708,4,10,2025-04-18T12:28:51.236+03:00,766661339.0591693,0,110.73,100.5267,1,0.45,2025-04-18T12:23:56.170+03:00,84,1.4,2025-04-18T08:51:18.885+03:00,0.03057091307199995,1
2025-04-18T12:29:00.017+03:00,1744968539.412587,40.95366318922127,29.14102828050063,92.44445,-1,-1,-1,-1,30,31.2094058870221,-9999,66548.83137916667,-0.70843505859375,0.698333740234375,-0.1429443359375,66548.82130316667,1.267717091853478,-1.37253722803692,-0.7707782459983515,-0.01587728038430214,-0.04280058294534683,-0.01675783097743988,-0.005668222904205322,0.002372384071350098,0.00143297016620636,XArbitraryZVertical,0.1134351638669278,-0.6453564737407615,0.61650575883665,0.4365411169142157,-0.7033161520957947,0.6966937184333801,-0.1412949711084366,0,0,0,-1,-1,66540.06475766667,unknown,2,2025-04-18T12:28:51.236+03:00,2025-04-17T15:44:39.500+03:00,7638,1.148105,0,0,6290.708,4,10,2025-04-18T12:28:51.236+03:00,766661339.0591693,0,110.73,100.5267,1,0.45,2025-04-18T12:23:56.170+03:00,84,1.4,2025-04-18T08:51:18.885+03:00,0.03057091307199995,1
2025-04-18T12:29:00.027+03:00,1744968539.412587,40.95366318922127,29.14102828050063,92.44445,-1,-1,-1,-1,30,31.2094058870221,-9999,66548.84145416667,-0.7067108154296875,0.697418212890625,-0.142669677734375,66548.83137916667,1.267524249302867,-1.373058460539036,-0.7706542826285441,-0.009779772721230984,-0.03583408892154694,-0.01442759670317173,-0.004747092723846436,0.00238502025604248,-0.002639815211296082,XArbitraryZVertical,0.1135781418959101,-0.6454667646780977,0.6164154317800702,0.4364684136024249,-0.7034743428230286,0.6966047883033752,-0.1409453153610229,0,0,0,-1,-1,66540.06475766667,unknown,2,2025-04-18T12:28:51.236+03:00,2025-04-17T15:44:39.500+03:00,7638,1.148105,0,0,6290.708,4,10,2025-04-18T12:28:51.236+03:00,766661339.0591693,0,110.73,100.5267,1,0.45,2025-04-18T12:23:56.170+03:00,84,1.4,2025-04-18T08:51:18.885+03:00,0.03057091307199995,1
2025-04-18T12:29:00.037+03:00,1744968539.412587,40.95366318922127,29.14102828050063,92.44445,-1,-1,-1,-1,30,31.2094058870221,-9999,66548.85152916667,-0.703033447265625,0.6958770751953125,-0.1434783935546875,66548.84145416667,1.267351913161659,-1.373518707409201,-0.7705197534892833,-0.008332877419888973,-0.03181804344058037,-0.0170444194227457,-0.003247499465942383,0.0009862780570983887,-0.002029716968536377,XArbitraryZVertical,0.1137126293847805,-0.6455613592394032,0.6163313982505457,0.4364123394747594,-0.7036312222480774,0.6965082883834839,-0.1406399458646774,0,0,0,-1,-1,66540.06475766667,unknown,2,2025-04-18T12:28:51.236+03:00,2025-04-17T15:44:39.500+03:00,7638,1.148105,0,0,6290.708,4,10,2025-04-18T12:28:51.236+03:00,766661339.0591693,0,110.73,100.5267,1,0.45,2025-04-18T12:23:56.170+03:00,84,1.4,2025-04-18T08:51:18.885+03:00,0.03057091307199995,1
2025-04-18T12:29:00.048+03:00,1744968539.412587,40.95366318922127,29.14102828050063,92.44445,-1,-1,-1,-1,30,31.2094058870221,-9999,66548.86160416667,-0.7032318115234375,0.692779541015625,-0.1438446044921875,66548.85152916667,1.267186743541119,-1.373937879467205,-0.7703797603024409,-0.01030741166323423,-0.02781324833631516,-0.01406730525195599,0.0008741617202758789,4.911422729492188e-05,-0.00337374210357666,XArbitraryZVertical,0.1138388135097408,-0.6456459617912954,0.6162504110511271,0.4363685514432497,-0.7037855982780457,0.6964077949523926,-0.1403640359640121,0,0,0,-1,-1,66540.06475766667,unknown,2,2025-04-18T12:28:51.236+03:00,2025-04-17T15:44:39.500+03:00,7638,1.148105,0,0,6290.708,4,10,2025-04-18T12:28:51.236+03:00,766661339.0591693,0,110.73,100.5267,1,0.45,2025-04-18T12:23:56.170+03:00,84,1.4,2025-04-18T08:51:18.885+03:00,0.03057091307199995,1
2025-04-18T12:29:00.058+03:00,1744968539.412587,40.95366318922127,29.14102828050063,92.44445,-1,-1,-1,-1,30,31.2094058870221,-9999,66548.87168016667,-0.701263427734375,0.691162109375,-0.138916015625,66548.86160416667,1.267022410018959,-1.374303805729068,-0.7702959991880286,-0.01031966228038073,-0.02605289593338966,-0.01014233846217394,0.000464022159576416,-0.003293395042419434,-0.003589347004890442,XArbitraryZVertical,0.1139285254028648,-0.6457254321446134,0.6161810753834029,0.4363256388494006,-0.703894317150116,0.696347713470459,-0.1401179134845734,0,0,0,-1,-1,66540.06475766667,unknown,2,2025-04-18T12:28:51.236+03:00,2025-04-17T15:44:39.500+03:00,7638,1.148105,0,0,6290.708,4,10,2025-04-18T12:28:51.236+03:00,766661339.0591693,0,110.73,100.5267,1,0.45,2025-04-18T12:23:56.170+03:00,84,1.4,2025-04-18T08:51:18.885+03:00,0.03057091307199995,1
2025-04-18T12:29:00.068+03:00,1744968539.412587,40.95366318922127,29.14102828050063,92.44445,-1,-1,-1,-1,30,31.2094058870221,-9999,66548.88175516667,-0.702178955078125,0.68951416015625,-0.1282806396484375,66548.87168016667,1.266881235375894,-1.374620917407313,-0.7702187245658044,-0.01124897226691246,-0.01742119342088699,-0.01060113403946161,0.002117514610290527,-0.005694687366485596,0.0003635883331298828,XArbitraryZVertical,0.1140084458490005,-0.6457936943977348,0.6161205461541015,0.4362890835661341,-0.7039913535118103,0.6962922215461731,-0.1399051547050476,0,0,0,-1,-1,66540.06475766667,unknown,2,2025-04-18T12:28:51.236+03:00,2025-04-17T15:44:39.500+03:00,7638,1.148105,0,0,6290.708,4,10,2025-04-18T12:28:51.236+03:00,766661339.0591693,0,110.73,100.5267,1,0.45,2025-04-18T12:23:56.170+03:00,84,1.4,2025-04-18T08:51:18.885+03:00,0.03057091307199995,1
2025-04-18T12:29:00.078+03:00,1744968539.412587,40.95366318922127,29.14102828050063,92.44445,-1,-1,-1,-1,30,31.2094058870221,-9999,66548.89183016667,-0.708709716796875,0.69073486328125,-0.1236724853515625,66548.88175516667,1.266690890104663,-1.374883942818647,-0.7701448336618453,-0.01648528128862381,-0.01331646367907524,-0.009992068633437157,0.002387940883636475,-0.007259070873260498,0.00984722375869751,XArbitraryZVertical,0.1140545215885304,-0.6458533576444668,0.6160528617900684,0.4362843673546873,-0.7040786743164062,0.6962392330169678,-0.1397300064563751,0,0,0,-1,-1,66540.06475766667,unknown,2,2025-04-18T12:28:51.236+03:00,2025-04-17T15:44:39.500+03:00,7638,1.148105,0,0,6290.708,4,10,2025-04-18T12:28:51.236+03:00,766661339.0591693,0,110.73,100.5267,1,0.45,2025-04-18T12:23:56.170+03:00,84,1.4,2025-04-18T08:51:18.885+03:00,0.03057091307199995,1
2025-04-18T12:29:00.088+03:00,1744968539.412587,40.95366318922127,29.14102828050063,92.44445,-1,-1,-1,-1,30,31.2094058870221,-9999,66548.90190516667,-0.7062225341796875,0.687164306640625,-0.1290435791015625,66548.89183016667,1.266400044079369,-1.375228265626768,-0.7700626617255848,-0.02377841249108315,-0.01610193029046059,-0.01247736439108849,-0.003657221794128418,-0.005185961723327637,0.01617725193500519,XArbitraryZVertical,0.1140962106972767,-0.6459355397576899,0.6159573603212071,0.4362865191716737,-0.7041827440261841,0.6961802244186401,-0.1394986659288406,0,0,0,-1,-1,66540.06475766667,unknown,2,2025-04-18T12:28:51.236+03:00,2025-04-17T15:44:39.500+03:00,7638,1.148105,0,0,6290.708,4,10,2025-04-18T12:28:51.236+03:00,766661339.0591693,0,110.73,100.5267,1,0.45,2025-04-18T12:23:56.170+03:00,84,1.4,2025-04-18T08:51:18.885+03:00,0.03057091307199995,1
2025-04-18T12:29:00.098+03:00,1744968539.412587,40.95366318922127,29.14102828050063,92.44445,-1,-1,-1,-1,30,31.2094058870221,-9999,66548.91198116668,-0.7030029296875,0.6921234130859375,-0.139404296875,66548.90190516667,1.266053969387899,-1.375659220176066,-0.7699853216351435,-0.02068328857421875,-0.02264265343546867,-0.01508273463696241,-0.002583026885986328,-0.008365273475646973,0.0118100643157959,XArbitraryZVertical,0.1141448925349432,-0.6460403425498888,0.6158455722932612,0.4362764989078694,-0.7042956948280334,0.6961246728897095,-0.1392056345939636,0,0,0,-1,-1,66540.06475766667,unknown,2,2025-04-18T12:28:51.236+03:00,2025-04-17T15:44:39.500+03:00,7638,1.148105,0,0,6290.708,4,10,2025-04-18T12:28:51.236+03:00,766661339.0591693,0,110.73,100.5267,1,0.45,2025-04-18T12:23:56.170+03:00,84,1.4,2025-04-18T08:51:18.885+03:00,0.03057091307199995,1
2025-04-18T12:29:00.108+03:00,1744968539.412587,40.95366318922127,29.14102828050063,92.44445,-1,-1,-1,-1,30,31.2094058870221,-9999,66548.92205616667,-0.7011566162109375,0.6938934326171875,-0.15020751953125,66548.91198116668,1.265714597908267,-1.376154376991998,-0.7698920453560134,-0.02431943453848362,-0.02635017223656178,-0.0148423183709383,0.0009674429893493652,-0.005292356014251709,0.001570895314216614,XArbitraryZVertical,0.1142212548275811,-0.6461569416888508,0.6157291540406474,0.4362480588103641,-0.7044281363487244,0.6960577368736267,-0.1388694196939468,0,0,0,-1,-1,66540.06475766667,unknown,2,2025-04-18T12:28:51.236+03:00,2025-04-17T15:44:39.500+03:00,7638,1.148105,0,0,6290.708,4,10,2025-04-18T12:28:51.236+03:00,766661339.0591693,0,110.73,100.5267,1,0.45,2025-04-18T12:23:56.170+03:00,84,1.4,2025-04-18T08:51:18.885+03:00,0.03057091307199995,1
2025-04-18T12:29:00.141+03:00,1744968539.412587,40.95366318922127,29.14102828050063,92.44445,-1,-1,-1,-1,30,31.2094058870221,-9999,66548.93213116667,-0.69989013671875,0.6922149658203125,-0.1537933349609375,66548.92205616667,1.265420067318151,-1.376640086344613,-0.7697769809699269,-0.01550809852778912,-0.02980455942451954,-0.01537601556628942,0.002715587615966797,-0.001150846481323242,-0.01004725694656372,XArbitraryZVertical,0.1143168977376725,-0.646266416669653,0.6156197144511684,0.4362153897515067,-0.7045741677284241,0.695975124835968,-0.1385427266359329,0,0,0,-1,-1,66540.06475766667,unknown,2,2025-04-18T12:28:51.236+03:00,2025-04-17T15:44:39.500+03:00,7638,1.148105,0,0,6290.708,4,10,2025-04-18T12:28:51.236+03:00,766661339.0591693,0,110.73,100.5267,1,0.45,2025-04-18T12:23:56.170+03:00,84,1.4,2025-04-18T08:51:18.885+03:00,0.03057091307199995,1
2025-04-18T12:29:00.144+03:00,1744968539.412587,40.95366318922127,29.14102828050063,92.44445,-1,-1,-1,-1,30,31.2094058870221,-9999,66548.94220616667,-0.6988372802734375,0.693145751953125,-0.1500701904296875,66548.93213116667,1.265185534088836,-1.37710127524331,-0.7696461269117205,-0.01806806400418282,-0.03342526033520699,-0.01470296829938889,0.004852414131164551,-0.004490077495574951,-0.01461191475391388,XArbitraryZVertical,0.1144300331981201,-0.6463653085554304,0.6155223328157009,0.4361766599936394,-0.7047274112701416,0.6958811283111572,-0.1382353156805038,0,0,0,-1,-1,66540.06475766667,unknown,2,2025-04-18T12:28:51.236+03:00,2025-04-17T15:44:39.500+03:00,7638,1.148105,0,0,6290.708,4,10,2025-04-18T12:28:51.236+03:00,766661339.0591693,0,110.73,100.5267,1,0.45,2025-04-18T12:23:56.170+03:00,84,1.4,2025-04-18T08:51:18.885+03:00,0.03057091307199995,1
2025-04-18T12:29:00.146+03:00,1744968539.412587,40.95366318922127,29.14102828050063,92.44445,-1,-1,-1,-1,30,31.2094058870221,-9999,66548.95228216668,-0.695526123046875,0.6916046142578125,-0.147918701171875,66548.94220616667,1.26484274042388,-1.377699740189645,-0.7695468322728003,-0.02671214938163757,-0.03901044279336929,-0.01755201816558838,0.006559193134307861,-0.002297878265380859,-0.01361666619777679,XArbitraryZVertical,0.1145391192597339,-0.6465039911093586,0.6153982462977748,0.4361174249444485,-0.7048776745796204,0.6958098411560059,-0.1378267556428909,0,0,0,-1,-1,66540.06475766667,unknown,2,2025-04-18T12:28:51.236+03:00,2025-04-17T15:44:39.500+03:00,7638,1.148105,0,0,6290.708,4,10,2025-04-18T12:28:51.236+03:00,766661339.0591693,0,110.73,100.5267,1,0.45,2025-04-18T12:23:56.170+03:00,84,1.4,2025-04-18T08:51:18.885+03:00,0.03057091307199995,1
2025-04-18T12:29:00.149+03:00,1744968539.412587,40.95366318922127,29.14102828050063,92.44445,-1,-1,-1,-1,30,31.2094058870221,-9999,66548.96235716667,-0.7053985595703125,0.690826416015625,-0.1507110595703125,66548.95228216668,1.264404995987568,-1.378289690232934,-0.769410375132956,-0.0280121061950922,-0.01813052594661713,-0.02133879996836185,0.00880885124206543,-0.004030823707580566,-0.009604528546333313,XArbitraryZVertical,0.1146280352035674,-0.6466419927312098,0.6152482356944838,0.4361013013512633,-0.7050521969795227,0.6957117915153503,-0.1374290883541107,0,0,0,-1,-1,66540.06475766667,unknown,2,2025-04-18T12:28:51.236+03:00,2025-04-17T15:44:39.500+03:00,7638,1.148105,0,0,6290.708,4,10,2025-04-18T12:28:51.236+03:00,766661339.0591693,0,110.73,100.5267,1,0.45,2025-04-18T12:23:56.170+03:00,84,1.4,2025-04-18T08:51:18.885+03:00,0.03057091307199995,1
2025-04-18T12:29:00.159+03:00,1744968539.412587,40.95366318922127,29.14102828050063,92.44445,-1,-1,-1,-1,30,31.2094058870221,-9999,66548.97243216667,-0.7082366943359375,0.6825408935546875,-0.1346893310546875,66548.96235716667,1.263789147122204,-1.378928401149134,-0.7692763064961071,-0.05009051039814949,-0.02314871922135353,-0.02534579113125801,0.001053392887115479,-0.005246818065643311,-0.0143248438835144,XArbitraryZVertical,0.1146735113132917,-0.6468011514755946,0.6150569192046135,0.436123115500458,-0.7052313685417175,0.6956155300140381,-0.1369965076446533,0,0,0,-1,-1,66540.06475766667,unknown,2,2025-04-18T12:28:51.236+03:00,2025-04-17T15:44:39.500+03:00,7638,1.148105,0,0,6290.708,4,10,2025-04-18T12:28:51.236+03:00,766661339.0591693,0,110.73,100.5267,1,0.45,2025-04-18T12:23:56.170+03:00,84,1.4,2025-04-18T08:51:18.885+03:00,0.03057091307199995,1
2025-04-18T12:29:00.169+03:00,1744968539.412587,40.95366318922127,29.14102828050063,92.44445,-1,-1,-1,-1,30,31.2094058870221,-9999,66548.98250816666,-0.7080535888671875,0.683319091796875,-0.12982177734375,66548.97243216667,1.26291005029412,-1.379794970801044,-0.7691002818156456,-0.05711859092116356,-0.02830406650900841,-0.03151607140898705,-0.003041386604309082,-0.01218509674072266,-0.0009662061929702759,XArbitraryZVertical,0.1147187710173125,-0.6470203321539157,0.614788661888891,0.4361644039597841,-0.705470085144043,0.6954890489578247,-0.1364085823297501,0,0,0,-1,-1,66540.06475766667,unknown,2,2025-04-18T12:28:51.236+03:00,2025-04-17T15:44:39.500+03:00,7638,1.148105,0,0,6290.708,4,10,2025-04-18T12:28:51.236+03:00,766661339.0591693,0,110.73,100.5267,1,0.45,2025-04-18T12:23:56.170+03:00,84,1.4,2025-04-18T08:51:18.885+03:00,0.03057091307199995,1
2025-04-18T12:29:00.179+03:00,1744968539.412587,40.95366318922127,29.14102828050063,92.44445,-1,-1,-1,-1,30,31.2094058870221,-9999,66548.99258316668,-0.712554931640625,0.7069091796875,-0.1398773193359375,66548.98250816666,1.262119618682425,-1.380664740462707,-0.7688444625948216,-0.03833132237195969,-0.03534839302301407,-0.0370546467602253,-0.002153337001800537,-0.01412230730056763,0.006113648414611816,XArbitraryZVertical,0.1148222262012196,-0.6472260751361226,0.6145272674232197,0.4362001356982761,-0.7057629823684692,0.6953052282333374,-0.1358285248279572,0,0,0,-1,-1,66540.06475766667,unknown,2,2025-04-18T12:28:51.236+03:00,2025-04-17T15:44:39.500+03:00,7638,1.148105,0,0,6290.708,4,10,2025-04-18T12:28:51.236+03:00,766661339.0591693,0,110.73,100.5267,1,0.45,2025-04-18T12:23:56.170+03:00,84,1.4,2025-04-18T08:51:18.885+03:00,0.03057091307199995,1
2025-04-18T12:29:00.189+03:00,1744968539.412587,40.95366318922127,29.14102828050063,92.44445,-1,-1,-1,-1,30,31.2094058870221,-9999,66549.00265816668,-0.710784912109375,0.7133026123046875,-0.134857177734375,66548.99258316668,1.261669681843589,-1.381324944526312,-0.7685459086207195,-0.01740253902971745,-0.03183029219508171,-0.03306985646486282,-0.00622403621673584,0.008309066295623779,-0.003361746668815613,XArbitraryZVertical,0.1149866490762028,-0.6473617691896852,0.6143454932071196,0.436211404657497,-0.7060562372207642,0.6950905919075012,-0.1354016214609146,0,0,0,-1,-1,66540.06475766667,unknown,2,2025-04-18T12:28:51.236+03:00,2025-04-17T15:44:39.500+03:00,7638,1.148105,0,0,6290.708,4,10,2025-04-18T12:28:51.236+03:00,766661339.0591693,0,110.73,100.5267,1,0.45,2025-04-18T12:23:56.170+03:00,84,1.4,2025-04-18T08:51:18.885+03:00,0.03057091307199995,1
2025-04-18T12:29:00.199+03:00,1744968539.412587,40.95366318922127,29.14102828050063,92.44445,-1,-1,-1,-1,30,31.2094058870221,-9999,66549.01273316667,-0.713134765625,0.7100372314453125,-0.1297454833984375,66549.00265816668,1.261526309703929,-1.381716394834628,-0.7682495957700988,0.006447133608162403,-0.03065477311611176,-0.03132309019565582,-0.004778623580932617,0.01909643411636353,-0.0006850212812423706,XArbitraryZVertical,0.1151668229051559,-0.6474215277159505,0.6142462706008842,0.436214945984395,-0.7063114643096924,0.694877564907074,-0.1351639330387115,0,0,0,-1,-1,66540.06475766667,unknown,2,2025-04-18T12:28:51.236+03:00,2025-04-17T15:44:39.500+03:00,7638,1.148105,0,0,6290.708,4,10,2025-04-18T12:28:51.236+03:00,766661339.0591693,0,110.73,100.5267,1,0.45,2025-04-18T12:23:56.170+03:00,84,1.4,2025-04-18T08:51:18.885+03:00,0.03057091307199995,1
2025-04-18T12:29:00.209+03:00,1744968539.412587,40.95366318922127,29.14102828050063,92.44445,-1,-1,-1,-1,30,31.2094058870221,-9999,66549.02280916666,-0.70892333984375,0.70452880859375,-0.1375579833984375,66549.01273316667,1.261653837568076,-1.381904624335567,-0.7679051881990364,0.01696242392063141,-0.02994790486991405,-0.03209763765335083,-0.006242334842681885,0.01565158367156982,0.005452573299407959,XArbitraryZVertical,0.1153894852438958,-0.647415862011518,0.6142103951529998,0.436215137254461,-0.7065720558166504,0.6946298480033875,-0.1350759416818619,0,0,0,-1,-1,66540.06475766667,unknown,2,2025-04-18T12:28:51.236+03:00,2025-04-17T15:44:39.500+03:00,7638,1.148105,0,0,6290.708,4,10,2025-04-18T12:28:51.236+03:00,766661339.0591693,0,110.73,100.5267,1,0.45,2025-04-18T12:23:56.170+03:00,84,1.4,2025-04-18T08:51:18.885+03:00,0.03057091307199995,1
2025-04-18T12:29:00.219+03:00,1744968539.412587,40.95366318922127,29.14102828050063,92.44445,-1,-1,-1,-1,30,31.2094058870221,-9999,66549.03288416668,-0.7074127197265625,0.6909027099609375,-0.1426544189453125,66549.02280916666,1.261794954976472,-1.382082567035627,-0.7675842978877538,0.01022382918745279,-0.02939050458371639,-0.02745494991540909,-0.002993404865264893,0.01179307699203491,-0.001223146915435791,XArbitraryZVertical,0.1156049536915095,-0.6474098257458327,0.6141816463763431,0.4362075814581039,-0.7068150043487549,0.6943989396095276,-0.1349920183420181,0,0,0,-1,-1,66540.06475766667,unknown,2,2025-04-18T12:28:51.236+03:00,2025-04-17T15:44:39.500+03:00,7638,1.148105,0,0,6290.708,4,10,2025-04-18T12:28:51.236+03:00,766661339.0591693,0,110.73,100.5267,1,0.45,2025-04-18T12:23:56.170+03:00,84,1.4,2025-04-18T08:51:18.885+03:00,0.03057091307199995,1
2025-04-18T12:29:00.229+03:00,1744968539.412587,40.95366318922127,29.14102828050063,92.44445,-1,-1,-1,-1,30,31.2094058870221,-9999,66549.04295916668,-0.70220947265625,0.6880035400390625,-0.143585205078125,66549.03288416668,1.261859856941629,-1.382348884593938,-0.767346713208928,0.008243035525083542,-0.03357239812612534,-0.01990818232297897,-0.0002167224884033203,-0.001707792282104492,-0.007422924041748047,XArbitraryZVertical,0.1157930276874201,-0.6474369765014287,0.6141439180346133,0.4361704555124672,-0.707012951374054,0.6942279934883118,-0.1348346769809723,0,0,0,-1,-1,66540.06475766667,unknown,2,2025-04-18T12:28:51.236+03:00,2025-04-17T15:44:39.500+03:00,7638,1.148105,0,0,6290.708,4,10,2025-04-18T12:28:51.236+03:00,766661339.0591693,0,110.73,100.5267,1,0.45,2025-04-18T12:23:56.170+03:00,84,1.4,2025-04-18T08:51:18.885+03:00,0.03057091307199995,1
2025-04-18T12:29:00.239+03:00,1744968539.412587,40.95366318922127,29.14102828050063,92.44445,-1,-1,-1,-1,30,31.2094058870221,-9999,66549.05303416667,-0.7028045654296875,0.69000244140625,-0.1457061767578125,66549.04295916668,1.26193067454012,-1.38258936788631,-0.7671818617451124,0.01017356105148792,-0.02924023382365704,-0.01124145742505789,0.004841506481170654,-0.006242990493774414,-0.00865490734577179,XArbitraryZVertical,0.11594890322398,-0.6474664567943651,0.6141201006440334,0.4361189409391472,-0.7071578502655029,0.694109320640564,-0.1346860826015472,0,0,0,-1,-1,66540.06475766667,unknown,2,2025-04-18T12:28:51.236+03:00,2025-04-17T15:44:39.500+03:00,7638,1.148105,0,0,6290.708,4,10,2025-04-18T12:28:51.236+03:00,766661339.0591693,0,110.73,100.5267,1,0.45,2025-04-18T12:23:56.170+03:00,84,1.4,2025-04-18T08:51:18.885+03:00,0.03057091307199995,1
2025-04-18T12:29:00.250+03:00,1744968539.412587,40.95366318922127,29.14102828050063,92.44445,-1,-1,-1,-1,30,31.2094058870221,-9999,66549.06311016667,-0.701934814453125,0.6931610107421875,-0.1446380615234375,66549.05303416667,1.262087085695858,-1.382768491023925,-0.7670484247443811,0.01743913069367409,-0.0272314790636301,-0.008814152330160141,0.004941284656524658,-0.003751397132873535,-0.01032072305679321,XArbitraryZVertical,0.1161024420815581,-0.6474811729159002,0.6141233130942197,0.4360516553112984,-0.7072728872299194,0.694013237953186,-0.1345767080783844,0,0,0,-1,-1,66540.06475766667,unknown,2,2025-04-18T12:28:51.236+03:00,2025-04-17T15:44:39.500+03:00,7638,1.148105,0,0,6290.708,4,10,2025-04-18T12:28:51.236+03:00,766661339.0591693,0,110.73,100.5267,1,0.45,2025-04-18T12:23:56.170+03:00,84,1.4,2025-04-18T08:51:18.885+03:00,0.03057091307199995,1
2025-04-18T12:29:00.260+03:00,1744968539.412587,40.95366318922127,29.14102828050063,92.44445,-1,-1,-1,-1,30,31.2094058870221,-9999,66549.07318516666,-0.701446533203125,0.6920928955078125,-0.141845703125,66549.06311016667,1.26223287009545,-1.382948536224088,-0.7669415997945063,0.007627779617905617,-0.02573345229029655,-0.006211712025105953,0.00512993335723877,-0.0005311369895935059,-0.01092249155044556,XArbitraryZVertical,0.1162432465503555,-0.6474997316987499,0.6141282194808305,0.4359796785555591,-0.7073699831962585,0.6939363479614258,-0.1344632059335709,0,0,0,-1,-1,66540.06475766667,unknown,2,2025-04-18T12:28:51.236+03:00,2025-04-17T15:44:39.500+03:00,7638,1.148105,0,0,6290.708,4,10,2025-04-18T12:28:51.236+03:00,766661339.0591693,0,110.73,100.5267,1,0.45,2025-04-18T12:23:56.170+03:00,84,1.4,2025-04-18T08:51:18.885+03:00,0.03057091307199995,1
2025-04-18T12:29:00.270+03:00,1744968539.412587,40.95366318922127,29.14102828050063,92.44445,-1,-1,-1,-1,30,31.2094058870221,-9999,66549.08326016668,-0.70465087890625,0.692108154296875,-0.1393280029296875,66549.07318516666,1.262287273098541,-1.383131745424291,-0.7668807464815308,0.00625944696366787,-0.01913946494460106,-0.006686820182949305,0.006904900074005127,-0.001647055149078369,-0.007900938391685486,XArbitraryZVertical,0.1163390045230278,-0.6475295404096566,0.6141200776231975,0.4359211830296938,-0.7074359059333801,0.6938925385475159,-0.1343414634466171,0,0,0,-1,-1,66540.06475766667,unknown,2,2025-04-18T12:28:51.236+03:00,2025-04-17T15:44:39.500+03:00,7638,1.148105,0,0,6290.708,4,10,2025-04-18T12:28:51.236+03:00,766661339.0591693,0,110.73,100.5267,1,0.45,2025-04-18T12:23:56.170+03:00,84,1.4,2025-04-18T08:51:18.885+03:00,0.03057091307199995,1
2025-04-18T12:29:00.280+03:00,1744968539.412587,40.95366318922127,29.14102828050063,92.44445,-1,-1,-1,-1,30,31.2094058870221,-9999,66549.09333516668,-0.70513916015625,0.6932373046875,-0.1383209228515625,66549.08326016668,1.262315029906217,-1.383268300915232,-0.7668280809729937,0.002847405383363366,-0.01128553599119186,-0.006871643476188183,0.002259552478790283,-0.002402544021606445,-0.005350887775421143,XArbitraryZVertical,0.116408764807587,-0.6475516603928834,0.6141100788088587,0.4358839154328145,-0.7074903249740601,0.6938545703887939,-0.1342516988515854,0,0,0,-1,-1,66540.06475766667,unknown,2,2025-04-18T12:28:51.236+03:00,2025-04-17T15:44:39.500+03:00,7638,1.148105,0,0,6290.708,4,10,2025-04-18T12:28:51.236+03:00,766661339.0591693,0,110.73,100.5267,1,0.45,2025-04-18T12:23:56.170+03:00,84,1.4,2025-04-18T08:51:18.885+03:00,0.03057091307199995,1
2025-04-18T12:29:00.290+03:00,1744968539.412587,40.95366318922127,29.14102828050063,92.44445,-1,-1,-1,-1,30,31.2094058870221,-9999,66549.10341116667,-0.7030029296875,0.6854400634765625,-0.1390838623046875,66549.09333516668,1.262274323437979,-1.383379882414181,-0.7667641152103561,-0.003521744161844254,-0.005370588973164558,-0.00761369988322258,0.002607941627502441,-0.0001897811889648438,-0.004185602068901062,XArbitraryZVertical,0.1164528457701501,-0.6475710300184356,0.6140848810564118,0.4358787256237849,-0.7075487375259399,0.6938084959983826,-0.1341809928417206,0,0,0,-1,-1,66540.06475766667,unknown,2,2025-04-18T12:28:51.236+03:00,2025-04-17T15:44:39.500+03:00,7638,1.148105,0,0,6290.708,4,10,2025-04-18T12:28:51.236+03:00,766661339.0591693,0,110.73,100.5267,1,0.45,2025-04-18T12:23:56.170+03:00,84,1.4,2025-04-18T08:51:18.885+03:00,0.03057091307199995,1
2025-04-18T12:29:00.300+03:00,1744968539.412587,40.95366318922127,29.14102828050063,92.44445,-1,-1,-1,-1,30,31.2094058870221,-9999,66549.11348616667,-0.6999664306640625,0.685791015625,-0.143951416015625,66549.10341116667,1.26218140293249,-1.383529707231647,-0.7666696934777487,-0.007816890254616737,-0.01593694649636745,-0.01211763732135296,0.00406569242477417,-0.006988167762756348,-0.004920363426208496,XArbitraryZVertical,0.1165026120605649,-0.647598292131954,0.6140413779643372,0.4358862581377995,-0.7076332569122314,0.6937405467033386,-0.1340871900320053,0,0,0,-1,-1,66540.06475766667,unknown,2,2025-04-18T12:28:51.236+03:00,2025-04-17T15:44:39.500+03:00,7638,1.148105,0,0,6290.708,4,10,2025-04-18T12:28:51.236+03:00,766661339.0591693,0,110.73,100.5267,1,0.45,2025-04-18T12:23:56.170+03:00,84,1.4,2025-04-18T08:51:18.885+03:00,0.03057091307199995,1
2025-04-18T12:29:00.310+03:00,1744968539.412587,40.95366318922127,29.14102828050063,92.44445,-1,-1,-1,-1,30,31.2094058870221,-9999,66549.12356116668,-0.7043609619140625,0.6925201416015625,-0.136688232421875,66549.11348616667,1.262124904710516,-1.383764695100975,-0.7665454294965139,-0.006457746028900146,-0.02089295536279678,-0.01081794872879982,0.007828772068023682,-0.008989095687866211,-0.00986182689666748,XArbitraryZVertical,0.1166010155841842,-0.6476385836754602,0.6139962462775698,0.435863707752444,-0.7077494859695435,0.693651020526886,-0.1339369416236877,0,0,0,-1,-1,66540.06475766667,unknown,2,2025-04-18T12:28:51.236+03:00,2025-04-17T15:44:39.500+03:00,7638,1.148105,0,0,6290.708,4,10,2025-04-18T12:28:51.236+03:00,766661339.0591693,0,110.73,100.5267,1,0.45,2025-04-18T12:23:56.170+03:00,84,1.4,2025-04-18T08:51:18.885+03:00,0.03057091307199995,1
2025-04-18T12:29:00.320+03:00,1744968539.412587,40.95366318922127,29.14102828050063,92.44445,-1,-1,-1,-1,30,31.2094058870221,-9999,66549.13363616668,-0.7196502685546875,0.6898956298828125,-0.125457763671875,66549.12356116668,1.262021469076468,-1.384035462913689,-0.7664517283395319,-0.006909151561558247,-0.02477717772126198,-0.00925121083855629,0.004938125610351562,-0.001490592956542969,-0.004914462566375732,XArbitraryZVertical,0.1166842691188849,-0.6476929090213703,0.6139434895842539,0.4358349699306603,-0.7078495621681213,0.6935835480690002,-0.1337573528289795,0,0,0,-1,-1,66540.06475766667,unknown,2,2025-04-18T12:28:51.236+03:00,2025-04-17T15:44:39.500+03:00,7638,1.148105,0,0,6290.708,4,10,2025-04-18T12:28:51.236+03:00,766661339.0591693,0,110.73,100.5267,1,0.45,2025-04-18T12:23:56.170+03:00,84,1.4,2025-04-18T08:51:18.885+03:00,0.03057091307199995,1
2025-04-18T12:29:00.330+03:00,1744968539.412587,40.95366318922127,29.14102828050063,92.44445,-1,-1,-1,-1,30,31.2094058870221,-9999,66549.14371216667,-0.726226806640625,0.702850341796875,-0.12567138671875,66549.13363616668,1.262096012697979,-1.384177314532818,-0.7663644206485054,0.01763986796140671,-0.01459191646426916,-0.006820943206548691,-0.009616494178771973,-0.003747045993804932,0.007478058338165283,XArbitraryZVertical,0.1167832196796709,-0.6477094860919833,0.6139380018089925,0.4357916871695557,-0.7079281210899353,0.6935206055641174,-0.1336681991815567,0,0,0,-1,-1,66540.06475766667,unknown,2,2025-04-18T12:28:51.236+03:00,2025-04-17T15:44:39.500+03:00,7638,1.148105,0,0,6290.708,4,10,2025-04-18T12:28:51.236+03:00,766661339.0591693,0,110.73,100.5267,1,0.45,2025-04-18T12:23:56.170+03:00,84,1.4,2025-04-18T08:51:18.885+03:00,0.03057091307199995,1
2025-04-18T12:29:00.340+03:00,1744968539.412587,40.95366318922127,29.14102828050063,92.44445,-1,-1,-1,-1,30,31.2094058870221,-9999,66549.15378716667,-0.72247314453125,0.7016448974609375,-0.12493896484375,66549.14371216667,1.262367807558287,-1.384101791594024,-0.7662728769581452,0.02368817292153835,-0.01690380647778511,-0.007199112325906754,-0.01742255687713623,0.00799185037612915,0.008321478962898254,XArbitraryZVertical,0.1168809349656238,-0.647666684264628,0.6139875414382575,0.4357591854032273,-0.7079802751541138,0.6934546828269958,-0.1337334215641022,0,0,0,-1,-1,66540.06475766667,unknown,2,2025-04-18T12:28:51.236+03:00,2025-04-17T15:44:39.500+03:00,7638,1.148105,0,0,6290.708,4,10,2025-04-18T12:28:51.236+03:00,766661339.0591693,0,110.73,100.5267,1,0.45,2025-04-18T12:23:56.170+03:00,84,1.4,2025-04-18T08:51:18.885+03:00,0.03057091307199995,1
2025-04-18T12:29:00.350+03:00,1744968539.412587,40.95366318922127,29.14102828050063,92.44445,-1,-1,-1,-1,30,31.2094058870221,-9999,66549.16386216666,-0.7166900634765625,0.692108154296875,-0.1278228759765625,66549.15378716667,1.262690134036379,-1.384032948757871,-0.7661529617486856,0.02631724625825882,-0.01691099628806114,-0.008738019503653049,-0.01579362154006958,0.009894073009490967,0.008004188537597656,XArbitraryZVertical,0.117007154843535,-0.6476191137507742,0.6140433259291929,0.4357174776212075,-0.7080528736114502,0.6933682560920715,-0.1337976157665253,0,0,0,-1,-1,66540.06475766667,unknown,2,2025-04-18T12:28:51.236+03:00,2025-04-17T15:44:39.500+03:00,7638,1.148105,0,0,6290.708,4,10,2025-04-18T12:28:51.236+03:00,766661339.0591693,0,110.73,100.5267,1,0.45,2025-04-18T12:23:56.170+03:00,84,1.4,2025-04-18T08:51:18.885+03:00,0.03057091307199995,1
2025-04-18T12:29:00.360+03:00,1744968539.412587,40.95366318922127,29.14102828050063,92.44445,-1,-1,-1,-1,30,31.2094058870221,-9999,66549.17393816667,-0.710540771484375,0.69268798828125,-0.1377716064453125,66549.16386216666,1.262980206050202,-1.38400815022093,-0.7660474309006245,0.01801244169473648,-0.01864178478717804,-0.004999740514904261,-0.008751869201660156,-0.0009399652481079102,0.006372168660163879,XArbitraryZVertical,0.1171313763597069,-0.6475846466299771,0.6140917313339429,0.4356669414208516,-0.7081212401390076,0.6932922005653381,-0.133828729391098,0,0,0,-1,-1,66540.06475766667,unknown,2,2025-04-18T12:28:51.236+03:00,2025-04-17T15:44:39.500+03:00,7638,1.148105,0,0,6290.708,4,10,2025-04-18T12:28:51.236+03:00,766661339.0591693,0,110.73,100.5267,1,0.45,2025-04-18T12:23:56.170+03:00,84,1.4,2025-04-18T08:51:18.885+03:00,0.03057091307199995,1
2025-04-18T12:29:00.370+03:00,1744968539.412587,40.95366318922127,29.14102828050063,92.44445,-1,-1,-1,-1,30,31.2094058870221,-9999,66549.18401316667,-0.70135498046875,0.684600830078125,-0.138580322265625,66549.17393816667,1.263142364112163,-1.384115356394912,-0.7659913876981604,0.005947990342974663,-0.0271205585449934,-0.002201191149652004,-0.003618121147155762,3.123283386230469e-05,-0.002882346510887146,XArbitraryZVertical,0.1172368657584842,-0.6475920749909337,0.6141121411005168,0.4355988327253623,-0.7081738710403442,0.6932518482208252,-0.1337600499391556,0,0,0,-1,-1,66540.06475766667,unknown,2,2025-04-18T12:28:51.236+03:00,2025-04-17T15:44:39.500+03:00,7638,1.148105,0,0,6290.708,4,10,2025-04-18T12:28:51.236+03:00,766661339.0591693,0,110.73,100.5267,1,0.45,2025-04-18T12:23:56.170+03:00,84,1.4,2025-04-18T08:51:18.885+03:00,0.03057091307199995,1
2025-04-18T12:29:00.380+03:00,1744968539.412587,40.95366318922127,29.14102828050063,92.44445,-1,-1,-1,-1,30,31.2094058870221,-9999,66549.19408816667,-0.699920654296875,0.6856689453125,-0.1380462646484375,66549.18401316667,1.263226441463314,-1.384357595245166,-0.765961906709361,0.006840149872004986,-0.03273077681660652,-0.001852583372965455,0.006627261638641357,-0.007927834987640381,-0.005491495132446289,XArbitraryZVertical,0.1173490101248607,-0.6476365194416348,0.6141117028031888,0.4355032513645211,-0.7082264423370361,0.6932305693626404,-0.1335922926664352,0,0,0,-1,-1,66540.06475766667,unknown,2,2025-04-18T12:28:51.236+03:00,2025-04-17T15:44:39.500+03:00,7638,1.148105,0,0,6290.708,4,10,2025-04-18T12:28:51.236+03:00,766661339.0591693,0,110.73,100.5267,1,0.45,2025-04-18T12:23:56.170+03:00,84,1.4,2025-04-18T08:51:18.885+03:00,0.03057091307199995,1
2025-04-18T12:29:00.391+03:00,1744968539.412587,40.95366318922127,29.14102828050063,92.44445,-1,-1,-1,-1,30,31.2094058870221,-9999,66549.20416316667,-0.70452880859375,0.6932830810546875,-0.1379852294921875,66549.19408816667,1.263404955150184,-1.384550408366469,-0.7659436340622978,0.01684844121336937,-0.03257058560848236,0.003347305115312338,0.008526980876922607,-0.00789940357208252,-0.004588127136230469,XArbitraryZVertical,0.1174725966773446,-0.6476659263430802,0.6141364394240151,0.4353912473241497,-0.7082645297050476,0.693217396736145,-0.1334580779075623,0,0,0,-1,-1,66540.06475766667,unknown,2,2025-04-18T12:28:51.236+03:00,2025-04-17T15:44:39.500+03:00,7638,1.148105,0,0,6290.708,4,10,2025-04-18T12:28:51.236+03:00,766661339.0591693,0,110.73,100.5267,1,0.45,2025-04-18T12:23:56.170+03:00,84,1.4,2025-04-18T08:51:18.885+03:00,0.03057091307199995,1
2025-04-18T12:29:00.401+03:00,1744968539.412587,40.95366318922127,29.14102828050063,92.44445,-1,-1,-1,-1,30,31.2094058870221,-9999,66549.21423916667,-0.70770263671875,0.6964569091796875,-0.1343231201171875,66549.20416316667,1.263678339663187,-1.384664622639832,-0.7659554994304264,0.02079231664538383,-0.03270667418837547,0.005877574905753136,0.004307448863983154,-0.0006600022315979004,-0.004990994930267334,XArbitraryZVertical,0.1175919298762613,-0.6476760804981992,0.614191058430677,0.4352669105622002,-0.7082717418670654,0.6932259798049927,-0.1333756595849991,0,0,0,-1,-1,66540.06475766667,unknown,2,2025-04-18T12:28:51.236+03:00,2025-04-17T15:44:39.500+03:00,7638,1.148105,0,0,6290.708,4,10,2025-04-18T12:28:51.236+03:00,766661339.0591693,0,110.73,100.5267,1,0.45,2025-04-18T12:23:56.170+03:00,84,1.4,2025-04-18T08:51:18.885+03:00,0.03057091307199995,1
2025-04-18T12:29:00.411+03:00,1744968539.412587,40.95366318922127,29.14102828050063,92.44445,-1,-1,-1,-1,30,31.2094058870221,-9999,66549.22431416667,-0.706024169921875,0.6909332275390625,-0.13140869140625,66549.21423916667,1.263931058029517,-1.38480088560928,-0.7659690201180748,0.01475426554679871,-0.0286534745246172,0.004640469793230295,0.0007763504981994629,0.003358542919158936,-0.002022206783294678,XArbitraryZVertical,0.1177107773616796,-0.6476924151248911,0.6142401167544892,0.4351412179309879,-0.7082806825637817,0.6932356953620911,-0.133277416229248,0,0,0,-1,-1,66540.06475766667,unknown,2,2025-04-18T12:28:51.236+03:00,2025-04-17T15:44:39.500+03:00,7638,1.148105,0,0,6290.708,4,10,2025-04-18T12:28:51.236+03:00,766661339.0591693,0,110.73,100.5267,1,0.45,2025-04-18T12:23:56.170+03:00,84,1.4,2025-04-18T08:51:18.885+03:00,0.03057091307199995,1
2025-04-18T12:29:00.421+03:00,1744968539.412587,40.95366318922127,29.14102828050063,92.44445,-1,-1,-1,-1,30,31.2094058870221,-9999,66549.23438916667,-0.703948974609375,0.6910400390625,-0.127777099609375,66549.22431416667,1.264056687184847,-1.385029184881373,-0.7660091915247261,0.002301856875419617,-0.03127375990152359,0.007128394674509764,0.001557588577270508,-0.001156508922576904,0.001320496201515198,XArbitraryZVertical,0.1178072062477786,-0.6477392872592913,0.6142601908360757,0.4350169269544247,-0.7082836627960205,0.6932646632194519,-0.1331105530261993,0,0,0,-1,-1,66540.06475766667,unknown,2,2025-04-18T12:28:51.236+03:00,2025-04-17T15:44:39.500+03:00,7638,1.148105,0,0,6290.708,4,10,2025-04-18T12:28:51.236+03:00,766661339.0591693,0,110.73,100.5267,1,0.45,2025-04-18T12:23:56.170+03:00,84,1.4,2025-04-18T08:51:18.885+03:00,0.03057091307199995,1
2025-04-18T12:29:00.431+03:00,1744968539.412587,40.95366318922127,29.14102828050063,92.44445,-1,-1,-1,-1,30,31.2094058870221,-9999,66549.24446416667,-0.7061920166015625,0.6881561279296875,-0.127685546875,66549.23438916667,1.264043169165748,-1.385356568042731,-0.7660661991276895,-0.008262836374342442,-0.0290968231856823,0.006719499360769987,0.004079937934875488,-0.002891302108764648,0.004728138446807861,XArbitraryZVertical,0.1178829382248759,-0.6478178150200181,0.6142467380395497,0.4348984634980562,-0.7082883715629578,0.6933057308197021,-0.1328713893890381,0,0,0,-1,-1,66540.06475766667,unknown,2,2025-04-18T12:28:51.236+03:00,2025-04-17T15:44:39.500+03:00,7638,1.148105,0,0,6290.708,4,10,2025-04-18T12:28:51.236+03:00,766661339.0591693,0,110.73,100.5267,1,0.45,2025-04-18T12:23:56.170+03:00,84,1.4,2025-04-18T08:51:18.885+03:00,0.03057091307199995,1
2025-04-18T12:29:00.441+03:00,1744968539.412587,40.95366318922127,29.14102828050063,92.44445,-1,-1,-1,-1,30,31.2094058870221,-9999,66549.25454016667,-0.70928955078125,0.68646240234375,-0.1284637451171875,66549.24446416667,1.263976419943934,-1.385687790038699,-0.766138185295932,-0.005716854240745306,-0.02892531827092171,0.00669313408434391,0.00250321626663208,-0.004118084907531738,0.005491435527801514,XArbitraryZVertical,0.1179372355795093,-0.6479020092518246,0.6142237857380511,0.4347907288007747,-0.7082833051681519,0.6933575868606567,-0.1326275914907455,0,0,0,-1,-1,66540.06475766667,unknown,2,2025-04-18T12:28:51.236+03:00,2025-04-17T15:44:39.500+03:00,7638,1.148105,0,0,6290.708,4,10,2025-04-18T12:28:51.236+03:00,766661339.0591693,0,110.73,100.5267,1,0.45,2025-04-18T12:23:56.170+03:00,84,1.4,2025-04-18T08:51:18.885+03:00,0.03057091307199995,1
2025-04-18T12:29:00.451+03:00,1744968539.412587,40.95366318922127,29.14102828050063,92.44445,-1,-1,-1,-1,30,31.2094058870221,-9999,66549.26461516667,-0.710205078125,0.6891326904296875,-0.1365814208984375,66549.25454016667,1.263968446743963,-1.385963255608568,-0.7662217833207676,0.0006150772096589208,-0.02959057502448559,0.009531664662063122,-0.0009504556655883789,-0.007367432117462158,0.00403439998626709,XArbitraryZVertical,0.1179892707406353,-0.6479719251479511,0.6142186838191221,0.4346796577596084,-0.7082628607749939,0.6934178471565247,-0.1324218362569809,0,0,0,-1,-1,66540.06475766667,unknown,2,2025-04-18T12:28:51.236+03:00,2025-04-17T15:44:39.500+03:00,7638,1.148105,0,0,6290.708,4,10,2025-04-18T12:28:51.236+03:00,766661339.0591693,0,110.73,100.5267,1,0.45,2025-04-18T12:23:56.170+03:00,84,1.4,2025-04-18T08:51:18.885+03:00,0.03057091307199995,1
2025-04-18T12:29:00.461+03:00,1744968539.412587,40.95366318922127,29.14102828050063,92.44445,-1,-1,-1,-1,30,31.2094058870221,-9999,66549.27469016667,-0.7077178955078125,0.6865692138671875,-0.137542724609375,66549.26461516667,1.26397147325539,-1.386272826197131,-0.7663022589738225,-0.004122153855860233,-0.03312485292553902,0.008430181071162224,-0.00159001350402832,-0.004770398139953613,-0.00295470654964447,XArbitraryZVertical,0.118056515065675,-0.6480482258637928,0.6142134796580815,0.4345548986170183,-0.7082488536834717,0.6934758424758911,-0.1321923136711121,0,0,0,-1,-1,66540.06475766667,unknown,2,2025-04-18T12:28:51.236+03:00,2025-04-17T15:44:39.500+03:00,7638,1.148105,0,0,6290.708,4,10,2025-04-18T12:28:51.236+03:00,766661339.0591693,0,110.73,100.5267,1,0.45,2025-04-18T12:23:56.170+03:00,84,1.4,2025-04-18T08:51:18.885+03:00,0.03057091307199995,1
2025-04-18T12:29:00.471+03:00,1744968539.412587,40.95366318922127,29.14102828050063,92.44445,-1,-1,-1,-1,30,31.2094058870221,-9999,66549.28476516667,-0.70782470703125,0.681793212890625,-0.134857177734375,66549.27469016667,1.263860768636776,-1.386657152368418,-0.7663958008340825,-0.01491374894976616,-0.03014125116169453,0.006584244314581156,-0.0003365278244018555,-0.005936384201049805,-0.005542874336242676,XArbitraryZVertical,0.1181051127449205,-0.6481489501706669,0.6141811567513605,0.4344372221883692,-0.7082359194755554,0.6935432553291321,-0.1319082379341125,0,0,0,-1,-1,66540.06475766667,unknown,2,2025-04-18T12:28:51.236+03:00,2025-04-17T15:44:39.500+03:00,7638,1.148105,0,0,6290.708,4,10,2025-04-18T12:28:51.236+03:00,766661339.0591693,0,110.73,100.5267,1,0.45,2025-04-18T12:23:56.170+03:00,84,1.4,2025-04-18T08:51:18.885+03:00,0.03057091307199995,1
2025-04-18T12:29:00.481+03:00,1744968539.412587,40.95366318922127,29.14102828050063,92.44445,-1,-1,-1,-1,30,31.2094058870221,-9999,66549.29484116667,-0.705322265625,0.683807373046875,-0.1316986083984375,66549.28476516667,1.263624016717275,-1.387136125878937,-0.7664956214784502,-0.02454666793346405,-0.03315860778093338,0.008071620017290115,0.001138627529144287,-0.0107690691947937,-0.004094228148460388,XArbitraryZVertical,0.1181397249930759,-0.6482783633069337,0.6141168500120689,0.4343255169636773,-0.7082308530807495,0.6936151385307312,-0.1315563321113586,0,0,0,-1,-1,66540.06475766667,unknown,2,2025-04-18T12:28:51.236+03:00,2025-04-17T15:44:39.500+03:00,7638,1.148105,0,0,6290.708,4,10,2025-04-18T12:28:51.236+03:00,766661339.0591693,0,110.73,100.5267,1,0.45,2025-04-18T12:23:56.170+03:00,84,1.4,2025-04-18T08:51:18.885+03:00,0.03057091307199995,1
2025-04-18T12:29:00.492+03:00,1744968539.412587,40.95366318922127,29.14102828050063,92.44445,-1,-1,-1,-1,30,31.2094058870221,-9999,66549.30491616667,-0.7052154541015625,0.68414306640625,-0.1343841552734375,66549.29484116667,1.263250821536978,-1.387726481102053,-0.7666369403939313,-0.03304075077176094,-0.03298517316579819,0.008648494258522987,0.002203226089477539,-0.01007729768753052,-0.0008528381586074829,XArbitraryZVertical,0.118149287393628,-0.6484447136741901,0.6140227523047672,0.4342078051177364,-0.7082121968269348,0.6937169432640076,-0.1311203986406326,0,0,0,-1,-1,66540.06475766667,unknown,2,2025-04-18T12:28:51.236+03:00,2025-04-17T15:44:39.500+03:00,7638,1.148105,0,0,6290.708,4,10,2025-04-18T12:28:51.236+03:00,766661339.0591693,0,110.73,100.5267,1,0.45,2025-04-18T12:23:56.170+03:00,84,1.4,2025-04-18T08:51:18.885+03:00,0.03057091307199995,1
2025-04-18T12:29:00.502+03:00,1744968539.412587,40.95366318922127,29.14102828050063,92.44445,-1,-1,-1,-1,30,31.2094058870221,-9999,66549.31499116667,-0.7075653076171875,0.68695068359375,-0.1371002197265625,66549.30491616667,1.262786986233867,-1.388364992622766,-0.7667974767962483,-0.03647276759147644,-0.02991747856140137,0.01110685802996159,0.003397941589355469,-0.009521603584289551,-0.003385186195373535,XArbitraryZVertical,0.1181373950531221,-0.6486290004512155,0.6139091573717657,0.4340963292541467,-0.7081862092018127,0.6938325762748718,-0.1306479573249817,0,0,0,-1,-1,66540.06475766667,unknown,2,2025-04-18T12:28:51.236+03:00,2025-04-17T15:44:39.500+03:00,7638,1.148105,0,0,6290.708,4,10,2025-04-18T12:28:51.236+03:00,766661339.0591693,0,110.73,100.5267,1,0.45,2025-04-18T12:23:56.170+03:00,84,1.4,2025-04-18T08:51:18.885+03:00,0.03057091307199995,1
2025-04-18T12:29:00.512+03:00,1744968539.412587,40.95366318922127,29.14102828050063,92.44445,-1,-1,-1,-1,30,31.2094058870221,-9999,66549.32506616667,-0.7060394287109375,0.6954498291015625,-0.1324615478515625,66549.31499116667,1.262351397194918,-1.388987537566752,-0.7669577891706806,-0.03074590861797333,-0.0289550106972456,0.01037222519516945,0.001202940940856934,-0.007836580276489258,-0.007355734705924988,XArbitraryZVertical,0.1181297759399421,-0.648808058063756,0.6138026555931898,0.4339813235091569,-0.7081578969955444,0.693947970867157,-0.130186915397644,0,0,0,-1,-1,66540.06475766667,unknown,2,2025-04-18T12:28:51.236+03:00,2025-04-17T15:44:39.500+03:00,7638,1.148105,0,0,6290.708,4,10,2025-04-18T12:28:51.236+03:00,766661339.0591693,0,110.73,100.5267,1,0.45,2025-04-18T12:23:56.170+03:00,84,1.4,2025-04-18T08:51:18.885+03:00,0.03057091307199995,1
2025-04-18T12:29:00.522+03:00,1744968539.412587,40.95366318922127,29.14102828050063,92.44445,-1,-1,-1,-1,30,31.2094058870221,-9999,66549.33514216667,-0.7075347900390625,0.6960906982421875,-0.126922607421875,66549.32506616667,1.261931003097092,-1.389538994557352,-0.7671402539690814,-0.03546236827969551,-0.02348621003329754,0.01396429631859064,0.002096116542816162,0.001019537448883057,-0.004198551177978516,XArbitraryZVertical,0.1180972141834862,-0.6489732396291009,0.6137071252522995,0.4338783540917702,-0.7081050872802734,0.6940793395042419,-0.1297735571861267,0,0,0,-1,-1,66540.06475766667,unknown,2,2025-04-18T12:28:51.236+03:00,2025-04-17T15:44:39.500+03:00,7638,1.148105,0,0,6290.708,4,10,2025-04-18T12:28:51.236+03:00,766661339.0591693,0,110.73,100.5267,1,0.45,2025-04-18T12:23:56.170+03:00,84,1.4,2025-04-18T08:51:18.885+03:00,0.03057091307199995,1
2025-04-18T12:29:00.532+03:00,1744968539.412587,40.95366318922127,29.14102828050063,92.44445,-1,-1,-1,-1,30,31.2094058870221,-9999,66549.34521716667,-0.7069244384765625,0.6899566650390625,-0.1281890869140625,66549.33514216667,1.261431134932197,-1.390104802057645,-0.7673347663659302,-0.04078442603349686,-0.01945391669869423,0.01341262273490429,0.001090526580810547,0.001932322978973389,0.001251175999641418,XArbitraryZVertical,0.1180389323225764,-0.6491475198139415,0.6135954382314968,0.4337913899931805,-0.708045482635498,0.6942193508148193,-0.1293486207723618,0,0,0,-1,-1,66540.06475766667,unknown,2,2025-04-18T12:28:51.236+03:00,2025-04-17T15:44:39.500+03:00,7638,1.148105,0,0,6290.708,4,10,2025-04-18T12:28:51.236+03:00,766661339.0591693,0,110.73,100.5267,1,0.45,2025-04-18T12:23:56.170+03:00,84,1.4,2025-04-18T08:51:18.885+03:00,0.03057091307199995,1
2025-04-18T12:29:00.542+03:00,1744968539.412587,40.95366318922127,29.14102828050063,92.44445,-1,-1,-1,-1,30,31.2094058870221,-9999,66549.35529216667,-0.709136962890625,0.691650390625,-0.129730224609375,66549.34521716667,1.260899333375479,-1.390648577088069,-0.767536986001139,-0.04232985898852348,-0.01520937122404575,0.01431463565677404,0.001037955284118652,-0.003721535205841064,0.0009630322456359863,XArbitraryZVertical,0.1179606426489029,-0.6493196974804147,0.6134793828981607,0.4337191942737197,-0.7079776525497437,0.6943649053573608,-0.1289384365081787,0,0,0,-1,-1,66540.06475766667,unknown,2,2025-04-18T12:28:51.236+03:00,2025-04-17T15:44:39.500+03:00,7638,1.148105,0,0,6290.708,4,10,2025-04-18T12:28:51.236+03:00,766661339.0591693,0,110.73,100.5267,1,0.45,2025-04-18T12:23:56.170+03:00,84,1.4,2025-04-18T08:51:18.885+03:00,0.03057091307199995,1
2025-04-18T12:29:00.552+03:00,1744968539.412587,40.95366318922127,29.14102828050063,92.44445,-1,-1,-1,-1,30,31.2094058870221,-9999,66549.36536816668,-0.708892822265625,0.6913604736328125,-0.1314697265625,66549.35529216667,1.2603563456692,-1.391170066292742,-0.7677583321756009,-0.04568251222372055,-0.01102874055504799,0.01808340847492218,-0.0007398724555969238,-0.003590881824493408,-0.001112103462219238,XArbitraryZVertical,0.1178649637384716,-0.6494897770126662,0.613365256613877,0.4336519971128352,-0.7078936100006104,0.6945241689682007,-0.1285417526960373,0,0,0,-1,-1,66540.06475766667,unknown,2,2025-04-18T12:28:51.236+03:00,2025-04-17T15:44:39.500+03:00,7638,1.148105,0,0,6290.708,4,10,2025-04-18T12:28:51.236+03:00,766661339.0591693,0,110.73,100.5267,1,0.45,2025-04-18T12:23:56.170+03:00,84,1.4,2025-04-18T08:51:18.885+03:00,0.03057091307199995,1
2025-04-18T12:29:00.562+03:00,1744968539.412587,40.95366318922127,29.14102828050063,92.44445,-1,-1,-1,-1,30,31.2094058870221,-9999,66549.37544316667,-0.7071990966796875,0.6868133544921875,-0.1334228515625,66549.36536816668,1.25977810407165,-1.39168786292186,-0.7679905767444606,-0.04710890352725983,-0.01454784162342548,0.01601679436862469,-0.0009695291519165039,-0.003223955631256104,-0.003597855567932129,XArbitraryZVertical,0.1177527626249639,-0.6496622689710944,0.6132454776252106,0.4335934325512341,-0.7078012824058533,0.6946912407875061,-0.1281464397907257,0,0,0,-1,-1,66540.06475766667,unknown,2,2025-04-18T12:28:51.236+03:00,2025-04-17T15:44:39.500+03:00,7638,1.148105,0,0,6290.708,4,10,2025-04-18T12:28:51.236+03:00,766661339.0591693,0,110.73,100.5267,1,0.45,2025-04-18T12:23:56.170+03:00,84,1.4,2025-04-18T08:51:18.885+03:00,0.03057091307199995,1
2025-04-18T12:29:00.572+03:00,1744968539.412587,40.95366318922127,29.14102828050063,92.44445,-1,-1,-1,-1,30,31.2094058870221,-9999,66549.38551816667,-0.7054290771484375,0.686004638671875,-0.131744384765625,66549.37544316667,1.259169477915994,-1.392258346721326,-0.768232939659056,-0.04704272374510765,-0.01647637039422989,0.01681501045823097,-8.565187454223633e-05,-0.007991194725036621,-0.005435392260551453,XArbitraryZVertical,0.1176431259707061,-0.6498490075489392,0.6131176655212948,0.4335240630700716,-0.7077085375785828,0.6948655843734741,-0.1277127265930176,0,0,0,-1,-1,66540.06475766667,unknown,2,2025-04-18T12:28:51.236+03:00,2025-04-17T15:44:39.500+03:00,7638,1.148105,0,0,6290.708,4,10,2025-04-18T12:28:51.236+03:00,766661339.0591693,0,110.73,100.5267,1,0.45,2025-04-18T12:23:56.170+03:00,84,1.4,2025-04-18T08:51:18.885+03:00,0.03057091307199995,1
2025-04-18T12:29:00.582+03:00,1744968539.412587,40.95366318922127,29.14102828050063,92.44445,-1,-1,-1,-1,30,31.2094058870221,-9999,66549.39559316667,-0.707611083984375,0.694366455078125,-0.1316986083984375,66549.38551816667,1.258596016671157,-1.392818012910166,-0.7684719660280022,-0.04418408498167992,-0.01809077709913254,0.01665815152227879,0.002935051918029785,-0.009276866912841797,-0.004746988415718079,XArbitraryZVertical,0.117542640124601,-0.6500308514232025,0.6129976728017319,0.4334485075881812,-0.7076165080070496,0.6950374245643616,-0.1272872388362885,0,0,0,-1,-1,66540.06475766667,unknown,2,2025-04-18T12:28:51.236+03:00,2025-04-17T15:44:39.500+03:00,7638,1.148105,0,0,6290.708,4,10,2025-04-18T12:28:51.236+03:00,766661339.0591693,0,110.73,100.5267,1,0.45,2025-04-18T12:23:56.170+03:00,84,1.4,2025-04-18T08:51:18.885+03:00,0.03057091307199995,1
2025-04-18T12:29:00.592+03:00,1744968539.412587,40.95366318922127,29.14102828050063,92.44445,-1,-1,-1,-1,30,31.2094058870221,-9999,66549.40566916668,-0.7108612060546875,0.69647216796875,-0.130828857421875,66549.39559316667,1.258077403259652,-1.393340285352438,-0.7686742029904438,-0.04086112603545189,-0.01602962426841259,0.01338133029639721,0.0003911256790161133,-0.001533448696136475,-0.005416110157966614,XArbitraryZVertical,0.1174616651363851,-0.6501971519663311,0.6128861152955932,0.4333787959492536,-0.7075445652008057,0.6951828002929688,-0.1268928349018097,0,0,0,-1,-1,66540.06475766667,unknown,2,2025-04-18T12:28:51.236+03:00,2025-04-17T15:44:39.500+03:00,7638,1.148105,0,0,6290.708,4,10,2025-04-18T12:28:51.236+03:00,766661339.0591693,0,110.73,100.5267,1,0.45,2025-04-18T12:23:56.170+03:00,84,1.4,2025-04-18T08:51:18.885+03:00,0.03057091307199995,1
2025-04-18T12:29:00.603+03:00,1744968539.412587,40.95366318922127,29.14102828050063,92.44445,-1,-1,-1,-1,30,31.2094058870221,-9999,66549.41574416668,-0.7124786376953125,0.6979217529296875,-0.1309051513671875,66549.40566916668,1.257581727080549,-1.39384832643318,-0.768836462948906,-0.03829703480005264,-0.01583255082368851,0.007901078090071678,-0.002676844596862793,0.0009743571281433105,-0.003781259059906006,XArbitraryZVertical,0.1173980928363827,-0.6503544773340204,0.6127741981012307,0.4333180900542716,-0.707497775554657,0.6952994465827942,-0.1265134811401367,0,0,0,-1,-1,66540.06475766667,unknown,2,2025-04-18T12:28:51.236+03:00,2025-04-17T15:44:39.500+03:00,7638,1.148105,0,0,6290.708,4,10,2025-04-18T12:28:51.236+03:00,766661339.0591693,0,110.73,100.5267,1,0.45,2025-04-18T12:23:56.170+03:00,84,1.4,2025-04-18T08:51:18.885+03:00,0.03057091307199995,1
2025-04-18T12:29:00.613+03:00,1744968539.412587,40.95366318922127,29.14102828050063,92.44445,-1,-1,-1,-1,30,31.2094058870221,-9999,66549.42581916667,-0.712738037109375,0.7033538818359375,-0.1270599365234375,66549.41574416668,1.257145511734317,-1.394321401883612,-0.7689528830439095,-0.0284495297819376,-0.01765741594135761,0.003857034258544445,-0.004985511302947998,0.0008907318115234375,-0.004053890705108643,XArbitraryZVertical,0.1173594238838808,-0.6504955642532648,0.612670099094612,0.433264068484074,-0.7074779272079468,0.6953831315040588,-0.1261645704507828,0,0,0,-1,-1,66540.06475766667,unknown,2,2025-04-18T12:28:51.236+03:00,2025-04-17T15:44:39.500+03:00,7638,1.148105,0,0,6290.708,4,10,2025-04-18T12:28:51.236+03:00,766661339.0591693,0,110.73,100.5267,1,0.45,2025-04-18T12:23:56.170+03:00,84,1.4,2025-04-18T08:51:18.885+03:00,0.03057091307199995,1
2025-04-18T12:29:00.631+03:00,1744968539.412587,40.95366318922127,29.14102828050063,92.44445,-1,-1,-1,-1,30,31.2094058870221,-9999,66549.43589416667,-0.7109832763671875,0.703033447265625,-0.1242828369140625,66549.42581916667,1.25680758427739,-1.394746908220249,-0.7689813051168518,-0.02079320885241032,-0.02049128524959087,-0.002769975690171123,-0.006309390068054199,0.007782518863677979,-0.001459240913391113,XArbitraryZVertical,0.1173696811413313,-0.6506107370247298,0.6125763698766707,0.4332208299670771,-0.7075120210647583,0.695403516292572,-0.1258600503206253,0,0,0,-1,-1,66540.06475766667,unknown,2,2025-04-18T12:28:51.236+03:00,2025-04-17T15:44:39.500+03:00,7638,1.148105,0,0,6290.708,4,10,2025-04-18T12:28:51.236+03:00,766661339.0591693,0,110.73,100.5267,1,0.45,2025-04-18T12:23:56.170+03:00,84,1.4,2025-04-18T08:51:18.885+03:00,0.03057091307199995,1
2025-04-18T12:29:00.633+03:00,1744968539.412587,40.95366318922127,29.14102828050063,92.44445,-1,-1,-1,-1,30,31.2094058870221,-9999,66549.44597016666,-0.7115020751953125,0.696441650390625,-0.124755859375,66549.43589416667,1.256496217326742,-1.395149360110421,-0.7689509512232735,-0.02353706397116184,-0.01590771973133087,-0.009844663552939892,-0.002820014953613281,0.008185803890228271,0.001464128494262695,XArbitraryZVertical,0.1174024847707274,-0.6507128041729406,0.6124805564001252,0.433194188800598,-0.707583487033844,0.695381760597229,-0.1255789995193481,0,0,0,-1,-1,66540.06475766667,unknown,2,2025-04-18T12:28:51.236+03:00,2025-04-17T15:44:39.500+03:00,7638,1.148105,0,0,6290.708,4,10,2025-04-18T12:28:51.236+03:00,766661339.0591693,0,110.73,100.5267,1,0.45,2025-04-18T12:23:56.170+03:00,84,1.4,2025-04-18T08:51:18.885+03:00,0.03057091307199995,1
2025-04-18T12:29:00.643+03:00,1744968539.412587,40.95366318922127,29.14102828050063,92.44445,-1,-1,-1,-1,30,31.2094058870221,-9999,66549.45604516668,-0.708526611328125,0.6899871826171875,-0.12322998046875,66549.44597016666,1.256113255413283,-1.395575754592603,-0.7689025008848707,-0.03134944662451744,-0.01855676621198654,-0.00859777070581913,-0.004320323467254639,0.001766085624694824,0.0004815608263015747,XArbitraryZVertical,0.1174258313025068,-0.6508222517287341,0.6123649988202041,0.433186720858671,-0.7076700329780579,0.6953468918800354,-0.1252831369638443,0,0,0,-1,-1,66540.06475766667,unknown,2,2025-04-18T12:28:51.236+03:00,2025-04-17T15:44:39.500+03:00,7638,1.148105,0,0,6290.708,4,10,2025-04-18T12:28:51.236+03:00,766661339.0591693,0,110.73,100.5267,1,0.45,2025-04-18T12:23:56.170+03:00,84,1.4,2025-04-18T08:51:18.885+03:00,0.03057091307199995,1
2025-04-18T12:29:00.653+03:00,1744968539.412587,40.95366318922127,29.14102828050063,92.44445,-1,-1,-1,-1,30,31.2094058870221,-9999,66549.46612016667,-0.7086334228515625,0.685333251953125,-0.1255645751953125,66549.45604516668,1.25566765348813,-1.396065533931124,-0.7688508906701984,-0.03468052670359612,-0.02076292783021927,-0.008357154205441475,-0.0009735226631164551,-0.005261540412902832,0.0017586350440979,XArbitraryZVertical,0.1174492200687991,-0.6509487640291284,0.6122316395119954,0.4331788523850632,-0.7077667117118835,0.6953098177909851,-0.124942772090435,0,0,0,-1,-1,66540.06475766667,unknown,2,2025-04-18T12:28:51.236+03:00,2025-04-17T15:44:39.500+03:00,7638,1.148105,0,0,6290.708,4,10,2025-04-18T12:28:51.236+03:00,766661339.0591693,0,110.73,100.5267,1,0.45,2025-04-18T12:23:56.170+03:00,84,1.4,2025-04-18T08:51:18.885+03:00,0.03057091307199995,1
2025-04-18T12:29:00.663+03:00,1744968539.412587,40.95366318922127,29.14102828050063,92.44445,-1,-1,-1,-1,30,31.2094058870221,-9999,66549.47619516667,-0.70953369140625,0.6859130859375,-0.127410888671875,66549.46612016667,1.255186307634542,-1.396569338494052,-0.7688239880306389,-0.03351219743490219,-0.01492607779800892,-0.006628496572375298,-0.0003124475479125977,-0.009987711906433105,-0.0002731680870056152,XArbitraryZVertical,0.1174563849352501,-0.6510831640202023,0.6120935821080553,0.4331700076763793,-0.7078480124473572,0.6952905058860779,-0.1245894208550453,0,0,0,-1,-1,66540.06475766667,unknown,2,2025-04-18T12:28:51.236+03:00,2025-04-17T15:44:39.500+03:00,7638,1.148105,0,0,6290.708,4,10,2025-04-18T12:28:51.236+03:00,766661339.0591693,0,110.73,100.5267,1,0.45,2025-04-18T12:23:56.170+03:00,84,1.4,2025-04-18T08:51:18.885+03:00,0.03057091307199995,1
2025-04-18T12:29:00.673+03:00,1744968539.412587,40.95366318922127,29.14102828050063,92.44445,-1,-1,-1,-1,30,31.2094058870221,-9999,66549.48627116666,-0.7106781005859375,0.6901397705078125,-0.12579345703125,66549.47619516667,1.254724650905839,-1.39700630162,-0.7688274987533223,-0.03215492144227028,-0.009515998885035515,-0.004272597841918468,-0.002030611038208008,-0.01023447513580322,-0.002413980662822723,XArbitraryZVertical,0.1174385914810411,-0.6512053027917414,0.6119684910222832,0.4331678477715831,-0.707899808883667,0.6952930092811584,-0.1242796629667282,0,0,0,-1,-1,66540.06475766667,unknown,2,2025-04-18T12:28:51.236+03:00,2025-04-17T15:44:39.500+03:00,7638,1.148105,0,0,6290.708,4,10,2025-04-18T12:28:51.236+03:00,766661339.0591693,0,110.73,100.5267,1,0.45,2025-04-18T12:23:56.170+03:00,84,1.4,2025-04-18T08:51:18.885+03:00,0.03057091307199995,1
2025-04-18T12:29:00.683+03:00,1744968539.412587,40.95366318922127,29.14102828050063,92.44445,-1,-1,-1,-1,30,31.2094058870221,-9999,66549.49634616668,-0.7086181640625,0.6883392333984375,-0.1277618408203125,66549.48627116666,1.254271031839779,-1.39739545976374,-0.7688335367338285,-0.03079111501574516,-0.004956933204084635,-0.006233483087271452,-0.002734065055847168,-0.005706906318664551,-0.002400271594524384,XArbitraryZVertical,0.1174077727200761,-0.6513168901355514,0.6118483426364619,0.4331781804785722,-0.7079440355300903,0.6952973604202271,-0.1240034475922585,0,0,0,-1,-1,66540.06475766667,unknown,2,2025-04-18T12:28:51.236+03:00,2025-04-17T15:44:39.500+03:00,7638,1.148105,0,0,6290.708,4,10,2025-04-18T12:28:51.236+03:00,766661339.0591693,0,110.73,100.5267,1,0.45,2025-04-18T12:23:56.170+03:00,84,1.4,2025-04-18T08:51:18.885+03:00,0.03057091307199995,1
2025-04-18T12:29:00.693+03:00,1744968539.412587,40.95366318922127,29.14102828050063,92.44445,-1,-1,-1,-1,30,31.2094058870221,-9999,66549.50642116668,-0.7075653076171875,0.6866302490234375,-0.1296844482421875,66549.49634616668,1.253850198800615,-1.397710249574903,-0.7688356068381036,-0.02937844023108482,0.0009695314802229404,-0.003193684620782733,-0.0006365180015563965,-0.006166160106658936,-0.003935627639293671,XArbitraryZVertical,0.1173662529488572,-0.6514100011835172,0.611739039785464,0.4332038302267266,-0.7079816460609436,0.6952988505363464,-0.1237803474068642,0,0,0,-1,-1,66540.06475766667,unknown,2,2025-04-18T12:28:51.236+03:00,2025-04-17T15:44:39.500+03:00,7638,1.148105,0,0,6290.708,4,10,2025-04-18T12:28:51.236+03:00,766661339.0591693,0,110.73,100.5267,1,0.45,2025-04-18T12:23:56.170+03:00,84,1.4,2025-04-18T08:51:18.885+03:00,0.03057091307199995,1
2025-04-18T12:29:00.703+03:00,1744968539.412587,40.95366318922127,29.14102828050063,92.44445,-1,-1,-1,-1,30,31.2094058870221,-9999,66549.51649616667,-0.7054443359375,0.6872711181640625,-0.125152587890625,66549.50642116668,1.2534213790495,-1.397999516251947,-0.7688561702406083,-0.03045275993645191,-0.001433704979717731,-0.001949455821886659,0.0004075169563293457,-0.009019076824188232,-0.006065540015697479,XArbitraryZVertical,0.1173076845903028,-0.6515000880175601,0.6116324181642412,0.4332347580930357,-0.7080033421516418,0.6953136324882507,-0.1235730871558189,0,0,0,-1,-1,66540.06475766667,unknown,2,2025-04-18T12:28:51.236+03:00,2025-04-17T15:44:39.500+03:00,7638,1.148105,0,0,6290.708,4,10,2025-04-18T12:28:51.236+03:00,766661339.0591693,0,110.73,100.5267,1,0.45,2025-04-18T12:23:56.170+03:00,84,1.4,2025-04-18T08:51:18.885+03:00,0.03057091307199995,1
2025-04-18T12:29:00.714+03:00,1744968539.412587,40.95366318922127,29.14102828050063,92.44445,-1,-1,-1,-1,30,31.2094058870221,-9999,66549.526573375,-0.7047882080078125,0.69390869140625,-0.1213836669921875,66549.51649616667,1.253033067368525,-1.398299762517522,-0.7688807916896755,-0.02657699584960938,-0.004255522973835468,-0.004517109598964453,0.002716600894927979,-0.008639991283416748,-0.002374768257141113,XArbitraryZVertical,0.1172641306506667,-0.651590615150005,0.611534565129367,0.4332486634395453,-0.7080236673355103,0.695331335067749,-0.1233575865626335,0,0,0,-1,-1,66540.06475766667,unknown,2,2025-04-18T12:28:51.236+03:00,2025-04-17T15:44:39.500+03:00,7638,1.148105,0,0,6290.708,4,10,2025-04-18T12:28:51.236+03:00,766661339.0591693,0,110.73,100.5267,1,0.45,2025-04-18T12:23:56.170+03:00,84,1.4,2025-04-18T08:51:18.885+03:00,0.03057091307199995,1
2025-04-18T12:29:00.723+03:00,1744968539.412587,40.95366318922127,29.14102828050063,92.44445,-1,-1,-1,-1,30,31.2094058870221,-9999,66549.53664837501,-0.7070159912109375,0.694671630859375,-0.124786376953125,66549.526573375,1.252675992215519,-1.398569945097157,-0.7689000502418761,-0.02546832151710987,-6.850156933069229e-05,-0.001873655710369349,0.00366741418838501,-0.002779185771942139,0.002238094806671143,XArbitraryZVertical,0.1172235346120987,-0.6516721988887684,0.6114444120651029,0.4332640939281767,-0.7080436944961548,0.6953451633453369,-0.1231639757752419,0,0,0,-1,-1,66540.06475766667,unknown,2,2025-04-18T12:28:51.236+03:00,2025-04-17T15:44:39.500+03:00,7638,1.148105,0,0,6290.708,4,10,2025-04-18T12:28:51.236+03:00,766661339.0591693,0,110.73,100.5267,1,0.45,2025-04-18T12:23:56.170+03:00,84,1.4,2025-04-18T08:51:18.885+03:00,0.03057091307199995,1
2025-04-18T12:29:00.734+03:00,1744968539.412587,40.95366318922127,29.14102828050063,92.44445,-1,-1,-1,-1,30,31.2094058870221,-9999,66549.54672337501,-0.70465087890625,0.6901397705078125,-0.1241912841796875,66549.53664837501,1.25228585305728,-1.398863974357616,-0.768927226446845,-0.03208021819591522,-0.004859328735619783,-0.0008160144789144397,0.00121307373046875,0.0003902912139892578,-0.001452259719371796,XArbitraryZVertical,0.1171765696093237,-0.6517617499056313,0.6113469494775673,0.4332795920569637,-0.7080612182617188,0.6953646540641785,-0.1229525431990623,0,0,0,-1,-1,66540.06475766667,unknown,2,2025-04-18T12:28:51.236+03:00,2025-04-17T15:44:39.500+03:00,7638,1.148105,0,0,6290.708,4,10,2025-04-18T12:28:51.236+03:00,766661339.0591693,0,110.73,100.5267,1,0.45,2025-04-18T12:23:56.170+03:00,84,1.4,2025-04-18T08:51:18.885+03:00,0.03057091307199995,1
2025-04-18T12:29:00.744+03:00,1744968539.412587,40.95366318922127,29.14102828050063,92.44445,-1,-1,-1,-1,30,31.2094058870221,-9999,66549.556799375,-0.700469970703125,0.6928863525390625,-0.1248626708984375,66549.54672337501,1.251824921068162,-1.399272478683046,-0.7689719506864059,-0.03265146538615227,-0.01511489599943161,0.0007954642060212791,0.002789020538330078,-0.004356682300567627,-0.001685813069343567,XArbitraryZVertical,0.1171351263153293,-0.6518821653741952,0.6112302129898026,0.4332744986328902,-0.7080808877944946,0.6953968405723572,-0.1226580068469048,0,0,0,-1,-1,66540.06475766667,unknown,2,2025-04-18T12:28:51.236+03:00,2025-04-17T15:44:39.500+03:00,7638,1.148105,0,0,6290.708,4,10,2025-04-18T12:28:51.236+03:00,766661339.0591693,0,110.73,100.5267,1,0.45,2025-04-18T12:23:56.170+03:00,84,1.4,2025-04-18T08:51:18.885+03:00,0.03057091307199995,1
2025-04-18T12:29:00.754+03:00,1744968539.412587,40.95366318922127,29.14102828050063,92.44445,-1,-1,-1,-1,30,31.2094058870221,-9999,66549.566874375,-0.6999359130859375,0.7003021240234375,-0.1309967041015625,66549.556799375,1.251408058770072,-1.39971572111385,-0.769004370566034,-0.02534914575517178,-0.01472294516861439,-0.0005084527074359357,0.006940960884094238,-0.00338822603225708,-0.002369701862335205,XArbitraryZVertical,0.1171231015619479,-0.6520061582852569,0.6111190710550654,0.4332478967574535,-0.708112895488739,0.6954201459884644,-0.1223402991890907,0,0,0,-1,-1,66540.06475766667,unknown,2,2025-04-18T12:28:51.236+03:00,2025-04-17T15:44:39.500+03:00,7638,1.148105,0,0,6290.708,4,10,2025-04-18T12:28:51.236+03:00,766661339.0591693,0,110.73,100.5267,1,0.45,2025-04-18T12:23:56.170+03:00,84,1.4,2025-04-18T08:51:18.885+03:00,0.03057091307199995,1
2025-04-18T12:29:00.764+03:00,1744968539.412587,40.95366318922127,29.14102828050063,92.44445,-1,-1,-1,-1,30,31.2094058870221,-9999,66549.576949375,-0.70147705078125,0.697967529296875,-0.1261138916015625,66549.566874375,1.251099098589737,-1.400089491937359,-0.7690132438758411,-0.02302953228354454,-0.01807693019509315,-0.004707724787294865,0.008353829383850098,0.004601001739501953,-0.008738934993743896,XArbitraryZVertical,0.1171334068088893,-0.6521061903133042,0.6110316591500859,0.4332178176144901,-0.7081524729728699,0.6954265236854553,-0.1220745667815208,0,0,0,-1,-1,66540.06475766667,unknown,2,2025-04-18T12:28:51.236+03:00,2025-04-17T15:44:39.500+03:00,7638,1.148105,0,0,6290.708,4,10,2025-04-18T12:28:51.236+03:00,766661339.0591693,0,110.73,100.5267,1,0.45,2025-04-18T12:23:56.170+03:00,84,1.4,2025-04-18T08:51:18.885+03:00,0.03057091307199995,1
2025-04-18T12:29:00.774+03:00,1744968539.412587,40.95366318922127,29.14102828050063,92.44445,-1,-1,-1,-1,30,31.2094058870221,-9999,66549.58702437501,-0.7047271728515625,0.6914520263671875,-0.1207733154296875,66549.576949375,1.250722897358698,-1.400514827599767,-0.7690128875957132,-0.03241424635052681,-0.01286006532609463,-0.0009060626616701484,0.007276833057403564,0.00269395112991333,-0.005820527672767639,XArbitraryZVertical,0.117140753676131,-0.6522203138651819,0.61092519993426,0.4331942857296884,-0.7082046866416931,0.6954262256622314,-0.1217734143137932,0,0,0,-1,-1,66540.06475766667,unknown,2,2025-04-18T12:28:51.236+03:00,2025-04-17T15:44:39.500+03:00,7638,1.148105,0,0,6290.708,4,10,2025-04-18T12:28:51.236+03:00,766661339.0591693,0,110.73,100.5267,1,0.45,2025-04-18T12:23:56.170+03:00,84,1.4,2025-04-18T08:51:18.885+03:00,0.03057091307199995,1
2025-04-18T12:29:00.784+03:00,1744968539.412587,40.95366318922127,29.14102828050063,92.44445,-1,-1,-1,-1,30,31.2094058870221,-9999,66549.597100375,-0.7060089111328125,0.6895904541015625,-0.12799072265625,66549.58702437501,1.250242695138076,-1.400958754467734,-0.7690461647862804,-0.03982582315802574,-0.01298603229224682,-0.003882411401718855,0.003706932067871094,-0.003113090991973877,0.0002241134643554688,XArbitraryZVertical,0.1171078458507602,-0.652348228731054,0.6108004640928427,0.4331863821732667,-0.7082358002662659,0.6954501271247864,-0.121455080807209,0,0,0,-1,-1,66540.06475766667,unknown,2,2025-04-18T12:28:51.236+03:00,2025-04-17T15:44:39.500+03:00,7638,1.148105,0,0,6290.708,4,10,2025-04-18T12:28:51.236+03:00,766661339.0591693,0,110.73,100.5267,1,0.45,2025-04-18T12:23:56.170+03:00,84,1.4,2025-04-18T08:51:18.885+03:00,0.03057091307199995,1
2025-04-18T12:29:00.794+03:00,1744968539.412587,40.95366318922127,29.14102828050063,92.44445,-1,-1,-1,-1,30,31.2094058870221,-9999,66549.607175375,-0.7099151611328125,0.6933441162109375,-0.129547119140625,66549.597100375,1.24973990693363,-1.401482393907835,-0.7690571720594126,-0.03464091196656227,-0.02113237604498863,-0.001753880060277879,0.001809775829315186,-0.006462633609771729,-0.00638897716999054,XArbitraryZVertical,0.1170997745280425,-0.6524922845355386,0.6106626479206317,0.4331659466028808,-0.70829176902771,0.6954580545425415,-0.1210829243063927,0,0,0,-1,-1,66540.06475766667,unknown,2,2025-04-18T12:28:51.236+03:00,2025-04-17T15:44:39.500+03:00,7638,1.148105,0,0,6290.708,4,10,2025-04-18T12:28:51.236+03:00,766661339.0591693,0,110.73,100.5267,1,0.45,2025-04-18T12:23:56.170+03:00,84,1.4,2025-04-18T08:51:18.885+03:00,0.03057091307199995,1
2025-04-18T12:29:00.804+03:00,1744968539.412587,40.95366318922127,29.14102828050063,92.44445,-1,-1,-1,-1,30,31.2094058870221,-9999,66549.617250375,-0.716461181640625,0.6943511962890625,-0.1267242431640625,66549.607175375,1.249249938575666,-1.402032478759381,-0.7691127507782308,-0.0359855443239212,-0.0196726955473423,0.0008363104425370693,-0.0001606941223144531,-0.00245898962020874,-0.00918067991733551,XArbitraryZVertical,0.1170879298714475,-0.6526461656032279,0.610533141526664,0.4331199153840439,-0.7083202004432678,0.695497989654541,-0.120686799287796,0,0,0,-1,-1,66540.06475766667,unknown,2,2025-04-18T12:28:51.236+03:00,2025-04-17T15:44:39.500+03:00,7638,1.148105,0,0,6290.708,4,10,2025-04-18T12:28:51.236+03:00,766661339.0591693,0,110.73,100.5267,1,0.45,2025-04-18T12:23:56.170+03:00,84,1.4,2025-04-18T08:51:18.885+03:00,0.03057091307199995,1
2025-04-18T12:29:00.814+03:00,1744968539.412587,40.95366318922127,29.14102828050063,92.44445,-1,-1,-1,-1,30,31.2094058870221,-9999,66549.627325375,-0.7154541015625,0.6906585693359375,-0.124359130859375,66549.617250375,1.24873039833499,-1.402578574232674,-0.7691868107720286,-0.04300557076931,-0.01893839612603188,-5.142096779309213e-05,-0.007790267467498779,-0.0009252429008483887,-0.005883470177650452,XArbitraryZVertical,0.1170585043606504,-0.6528028992811566,0.610400421577732,0.4330788228972379,-0.7083353400230408,0.6955512166023254,-0.1202913597226143,0,0,0,-1,-1,66540.06475766667,unknown,2,2025-04-18T12:28:51.236+03:00,2025-04-17T15:44:39.500+03:00,7638,1.148105,0,0,6290.708,4,10,2025-04-18T12:28:51.236+03:00,766661339.0591693,0,110.73,100.5267,1,0.45,2025-04-18T12:23:56.170+03:00,84,1.4,2025-04-18T08:51:18.885+03:00,0.03057091307199995,1
2025-04-18T12:29:00.824+03:00,1744968539.412587,40.95366318922127,29.14102828050063,92.44445,-1,-1,-1,-1,30,31.2094058870221,-9999,66549.637401375,-0.7101593017578125,0.68780517578125,-0.1223602294921875,66549.627325375,1.248090041562369,-1.403204074020512,-0.7692619664253572,-0.05215778946876526,-0.01796714216470718,-0.000933193601667881,-0.007186949253082275,-0.004809260368347168,-0.004855215549468994,XArbitraryZVertical,0.1170134772680813,-0.6529839809224294,0.6102371113923514,0.4330480217568027,-0.7083587646484375,0.6956052184104919,-0.119839534163475,0,0,0,-1,-1,66540.06475766667,unknown,2,2025-04-18T12:28:51.236+03:00,2025-04-17T15:44:39.500+03:00,7638,1.148105,0,0,6290.708,4,10,2025-04-18T12:28:51.236+03:00,766661339.0591693,0,110.73,100.5267,1,0.45,2025-04-18T12:23:56.170+03:00,84,1.4,2025-04-18T08:51:18.885+03:00,0.03057091307199995,1
2025-04-18T12:29:00.834+03:00,1744968539.412587,40.95366318922127,29.14102828050063,92.44445,-1,-1,-1,-1,30,31.2094058870221,-9999,66549.647476375,-0.709503173828125,0.6953277587890625,-0.1226654052734375,66549.637401375,1.247384800289477,-1.403889736247431,-0.7693333410341866,-0.04957239329814911,-0.02152059786021709,-0.002967715496197343,-0.002850949764251709,-0.007927596569061279,-0.003304541110992432,XArbitraryZVertical,0.1169668210574916,-0.6531814329144106,0.6100556666985454,0.4330184652471468,-0.7083917856216431,0.6956564784049988,-0.1193455532193184,0,0,0,-1,-1,66540.06475766667,unknown,2,2025-04-18T12:28:51.236+03:00,2025-04-17T15:44:39.500+03:00,7638,1.148105,0,0,6290.708,4,10,2025-04-18T12:28:51.236+03:00,766661339.0591693,0,110.73,100.5267,1,0.45,2025-04-18T12:23:56.170+03:00,84,1.4,2025-04-18T08:51:18.885+03:00,0.03057091307199995,1
2025-04-18T12:29:00.845+03:00,1744968539.412587,40.95366318922127,29.14102828050063,92.44445,-1,-1,-1,-1,30,31.2094058870221,-9999,66549.657551375,-0.709991455078125,0.7003173828125,-0.1262664794921875,66549.647476375,1.246808950239253,-1.404474094378038,-0.7693881714412084,-0.03426720574498177,-0.02059408277273178,-0.003072377759963274,-0.0008504986763000488,-0.001481950283050537,-0.002839803695678711,XArbitraryZVertical,0.1169372994401991,-0.6533475560552199,0.6099055567362605,0.4329873368472458,-0.7084238529205322,0.6956958770751953,-0.1189252808690071,0,0,0,-1,-1,66540.06475766667,unknown,2,2025-04-18T12:28:51.236+03:00,2025-04-17T15:44:39.500+03:00,7638,1.148105,0,0,6290.708,4,10,2025-04-18T12:28:51.236+03:00,766661339.0591693,0,110.73,100.5267,1,0.45,2025-04-18T12:23:56.170+03:00,84,1.4,2025-04-18T08:51:18.885+03:00,0.03057091307199995,1
2025-04-18T12:29:00.855+03:00,1744968539.412587,40.95366318922127,29.14102828050063,92.44445,-1,-1,-1,-1,30,31.2094058870221,-9999,66549.667626375,-0.7047576904296875,0.6995086669921875,-0.125,66549.657551375,1.246428006431627,-1.404990730176918,-0.7694144244740748,-0.02120959386229515,-0.03061356022953987,-0.005248513538390398,-0.00181424617767334,0.004083931446075439,-0.006962493062019348,XArbitraryZVertical,0.1169609580987612,-0.6534845095623131,0.6097970651413647,0.4329271295206242,-0.7084672451019287,0.6957147121429443,-0.1185562610626221,0,0,0,-1,-1,66540.06475766667,unknown,2,2025-04-18T12:28:51.236+03:00,2025-04-17T15:44:39.500+03:00,7638,1.148105,0,0,6290.708,4,10,2025-04-18T12:28:51.236+03:00,766661339.0591693,0,110.73,100.5267,1,0.45,2025-04-18T12:23:56.170+03:00,84,1.4,2025-04-18T08:51:18.885+03:00,0.03057091307199995,1
2025-04-18T12:29:00.865+03:00,1744968539.412587,40.95366318922127,29.14102828050063,92.44445,-1,-1,-1,-1,30,31.2094058870221,-9999,66549.677702375,-0.7008056640625,0.70074462890625,-0.1178741455078125,66549.667626375,1.246185015876219,-1.40546253335829,-0.7693843244787407,-0.0111790644004941,-0.03285727277398109,-0.007418723311275244,0.002946615219116211,0.003418862819671631,-0.008117318153381348,XArbitraryZVertical,0.1170362258775582,-0.6535975946214407,0.6097120724287877,0.4328556412777004,-0.708543598651886,0.6956931352615356,-0.1182254105806351,0,0,0,-1,-1,66540.06475766667,unknown,2,2025-04-18T12:28:51.236+03:00,2025-04-17T15:44:39.500+03:00,7638,1.148105,0,0,6290.708,4,10,2025-04-18T12:28:51.236+03:00,766661339.0591693,0,110.73,100.5267,1,0.45,2025-04-18T12:23:56.170+03:00,84,1.4,2025-04-18T08:51:18.885+03:00,0.03057091307199995,1
2025-04-18T12:29:00.875+03:00,1744968539.412587,40.95366318922127,29.14102828050063,92.44445,-1,-1,-1,-1,30,31.2094058870221,-9999,66549.687777375,-0.7054595947265625,0.7010498046875,-0.118988037109375,66549.677702375,1.246040559365533,-1.405857620657202,-0.7693238567382382,-0.008574560284614563,-0.02984344214200974,-0.005803948733955622,0.007581830024719238,0.004484653472900391,-0.0006998777389526367,XArbitraryZVertical,0.1171311224254765,-0.6536850305668906,0.6096480252027499,0.4327880788786188,-0.708631694316864,0.6956496834754944,-0.117952361702919,0,0,0,-1,-1,66540.06475766667,unknown,2,2025-04-18T12:28:51.236+03:00,2025-04-17T15:44:39.500+03:00,7638,1.148105,0,0,6290.708,4,10,2025-04-18T12:28:51.236+03:00,766661339.0591693,0,110.73,100.5267,1,0.45,2025-04-18T12:23:56.170+03:00,84,1.4,2025-04-18T08:51:18.885+03:00,0.03057091307199995,1
2025-04-18T12:29:00.885+03:00,1744968539.412587,40.95366318922127,29.14102828050063,92.44445,-1,-1,-1,-1,30,31.2094058870221,-9999,66549.697852375,-0.70367431640625,0.69189453125,-0.1187286376953125,66549.687777375,1.245872184317051,-1.406228638443522,-0.7692442818653329,-0.01517227478325367,-0.02502365224063396,-0.01066102180629969,0.003407716751098633,0.006204962730407715,-0.001579396426677704,XArbitraryZVertical,0.1172176607082189,-0.6537665999029418,0.6095771357958706,0.4327412801990776,-0.7087299823760986,0.6955925226211548,-0.1176985055208206,0,0,0,-1,-1,66540.06475766667,unknown,2,2025-04-18T12:28:51.236+03:00,2025-04-17T15:44:39.500+03:00,7638,1.148105,0,0,6290.708,4,10,2025-04-18T12:28:51.236+03:00,766661339.0591693,0,110.73,100.5267,1,0.45,2025-04-18T12:23:56.170+03:00,84,1.4,2025-04-18T08:51:18.885+03:00,0.03057091307199995,1
2025-04-18T12:29:00.895+03:00,1744968539.412587,40.95366318922127,29.14102828050063,92.44445,-1,-1,-1,-1,30,31.2094058870221,-9999,66549.70792837501,-0.7033538818359375,0.6926422119140625,-0.1231689453125,66549.697852375,1.245641231607113,-1.406611078874811,-0.7691502137069649,-0.01037212647497654,-0.01838938519358635,-0.01485320366919041,0.004554867744445801,-0.002669036388397217,-0.002038121223449707,XArbitraryZVertical,0.1172923682164727,-0.6538527545294158,0.609489696019939,0.4327140718601741,-0.7088395357131958,0.6955249309539795,-0.1174381524324417,0,0,0,-1,-1,66540.06475766667,unknown,2,2025-04-18T12:28:51.236+03:00,2025-04-17T15:44:39.500+03:00,7638,1.148105,0,0,6290.708,4,10,2025-04-18T12:28:51.236+03:00,766661339.0591693,0,110.73,100.5267,1,0.45,2025-04-18T12:23:56.170+03:00,84,1.4,2025-04-18T08:51:18.885+03:00,0.03057091307199995,1
2025-04-18T12:29:00.905+03:00,1744968539.412587,40.95366318922127,29.14102828050063,92.44445,-1,-1,-1,-1,30,31.2094058870221,-9999,66549.718003375,-0.7064056396484375,0.7034454345703125,-0.1463470458984375,66549.70792837501,1.24564945212711,-1.406697655663652,-0.7689966805161932,0.01703472994267941,-0.003523886669427156,-0.01460313331335783,0.005540072917938232,-0.003581047058105469,-0.003760457038879395,XArbitraryZVertical,0.1173763898912106,-0.6538544724038309,0.6094618258167803,0.4327279388557166,-0.7089550495147705,0.6954146027565002,-0.1173942238092422,0,0,0,-1,-1,66540.06475766667,unknown,2,2025-04-18T12:28:51.236+03:00,2025-04-17T15:44:39.500+03:00,7638,1.148105,0,0,6290.708,4,10,2025-04-18T12:28:51.236+03:00,766661339.0591693,0,110.73,100.5267,1,0.45,2025-04-18T12:23:56.170+03:00,84,1.4,2025-04-18T08:51:18.885+03:00,0.03057091307199995,1
2025-04-18T12:29:00.915+03:00,1744968539.412587,40.95366318922127,29.14102828050063,92.44445,-1,-1,-1,-1,30,31.2094058870221,-9999,66549.728078375,-0.711334228515625,0.701751708984375,-0.1538543701171875,66549.718003375,1.246054066008456,-1.40640302430794,-0.7687437644066916,0.04530911147594452,0.007286549545824528,-0.02079504914581776,0.002550899982452393,0.006106913089752197,-0.02534288167953491,XArbitraryZVertical,0.117509375526366,-0.6537397076864455,0.6095262048541915,0.4327745802757075,-0.7090939283370972,0.6952328085899353,-0.1176318824291229,0,0,0,-1,-1,66540.06475766667,unknown,2,2025-04-18T12:28:51.236+03:00,2025-04-17T15:44:39.500+03:00,7638,1.148105,0,0,6290.708,4,10,2025-04-18T12:28:51.236+03:00,766661339.0591693,0,110.73,100.5267,1,0.45,2025-04-18T12:23:56.170+03:00,84,1.4,2025-04-18T08:51:18.885+03:00,0.03057091307199995,1
2025-04-18T12:29:00.925+03:00,1744968539.412587,40.95366318922127,29.14102828050063,92.44445,-1,-1,-1,-1,30,31.2094058870221,-9999,66549.738153375,-0.720245361328125,0.6852264404296875,-0.14447021484375,66549.728078375,1.246749455360874,-1.405706560575449,-0.7683883858779573,0.06275920569896698,0.03475439548492432,-0.03097871132194996,-0.001666784286499023,0.008269786834716797,-0.03693920373916626,XArbitraryZVertical,0.1176515484518587,-0.6535097250785318,0.6096608236044646,0.4328936408884529,-0.7092555165290833,0.694977343082428,-0.1181663051247597,0,0,0,-1,-1,66540.06475766667,unknown,2,2025-04-18T12:28:51.236+03:00,2025-04-17T15:44:39.500+03:00,7638,1.148105,0,0,6290.708,4,10,2025-04-18T12:28:51.236+03:00,766661339.0591693,0,110.73,100.5267,1,0.45,2025-04-18T12:23:56.170+03:00,84,1.4,2025-04-18T08:51:18.885+03:00,0.03057091307199995,1
2025-04-18T12:29:00.935+03:00,1744968539.412587,40.95366318922127,29.14102828050063,92.44445,-1,-1,-1,-1,30,31.2094058870221,-9999,66549.74822937501,-0.7253570556640625,0.6692962646484375,-0.1459197998046875,66549.738153375,1.247487812529806,-1.404673812128777,-0.7678725382744713,0.04837094992399216,0.06662710756063461,-0.04526989907026291,-0.009751677513122559,-0.007045209407806396,-0.02578677237033844,XArbitraryZVertical,0.1177624627196606,-0.6531867985590474,0.6097990810114784,0.4331562014864819,-0.709486722946167,0.6946063637733459,-0.11895801872015,0,0,0,-1,-1,66540.06475766667,unknown,2,2025-04-18T12:28:51.236+03:00,2025-04-17T15:44:39.500+03:00,7638,1.148105,0,0,6290.708,4,10,2025-04-18T12:28:51.236+03:00,766661339.0591693,0,110.73,100.5267,1,0.45,2025-04-18T12:23:56.170+03:00,84,1.4,2025-04-18T08:51:18.885+03:00,0.03057091307199995,1
2025-04-18T12:29:00.945+03:00,1744968539.412587,40.95366318922127,29.14102828050063,92.44445,-1,-1,-1,-1,30,31.2094058870221,-9999,66549.75830437501,-0.723541259765625,0.6783599853515625,-0.148193359375,66549.74822937501,1.24784445916399,-1.403597207232082,-0.7674348560802399,0.0212360005825758,0.09348055720329285,-0.03412137553095818,-0.01582133769989014,-0.02406430244445801,-0.02559810876846313,XArbitraryZVertical,0.1177073426463255,-0.6528849873987954,0.6098699265684954,0.4335261937095162,-0.7096578478813171,0.6942914128303528,-0.1197723522782326,0,0,0,-1,-1,66540.06475766667,unknown,2,2025-04-18T12:28:51.236+03:00,2025-04-17T15:44:39.500+03:00,7638,1.148105,0,0,6290.708,4,10,2025-04-18T12:28:51.236+03:00,766661339.0591693,0,110.73,100.5267,1,0.45,2025-04-18T12:23:56.170+03:00,84,1.4,2025-04-18T08:51:18.885+03:00,0.03057091307199995,1
2025-04-18T12:29:00.956+03:00,1744968539.412587,40.95366318922127,29.14102828050063,92.44445,-1,-1,-1,-1,30,31.2094058870221,-9999,66549.768379375,-0.714202880859375,0.6657867431640625,-0.147064208984375,66549.75830437501,1.247725469000549,-1.402703522954171,-0.7672303873097749,-0.03541522845625877,0.09667588025331497,-0.009969132021069527,-0.0146443247795105,-0.01666921377182007,-0.0280834436416626,XArbitraryZVertical,0.1174692068879718,-0.6526759221809748,0.6098640840684955,0.4339135885939863,-0.7096903920173645,0.6941442489624023,-0.1204302534461021,0,0,0,-1,-1,66540.06475766667,unknown,2,2025-04-18T12:28:51.236+03:00,2025-04-17T15:44:39.500+03:00,7638,1.148105,0,0,6290.708,4,10,2025-04-18T12:28:51.236+03:00,766661339.0591693,0,110.73,100.5267,1,0.45,2025-04-18T12:23:56.170+03:00,84,1.4,2025-04-18T08:51:18.885+03:00,0.03057091307199995,1
2025-04-18T12:29:00.966+03:00,1744968539.412587,40.95366318922127,29.14102828050063,92.44445,-1,-1,-1,-1,30,31.2094058870221,-9999,66549.778454375,-0.714141845703125,0.6482086181640625,-0.142578125,66549.768379375,1.24685354314059,-1.402414934684336,-0.7672244094755294,-0.09348172694444656,0.08453905582427979,-0.01256544794887304,-0.005580902099609375,-0.02510309219360352,-0.02619950473308563,XArbitraryZVertical,0.1170988621530115,-0.6526637654848023,0.6096908110308088,0.4342752162198971,-0.7096595764160156,0.6941399574279785,-0.1206357330083847,0,0,0,-1,-1,66540.06475766667,unknown,2,2025-04-18T12:28:51.236+03:00,2025-04-17T15:44:39.500+03:00,7638,1.148105,0,0,6290.708,4,10,2025-04-18T12:28:51.236+03:00,766661339.0591693,0,110.73,100.5267,1,0.45,2025-04-18T12:23:56.170+03:00,84,1.4,2025-04-18T08:51:18.885+03:00,0.03057091307199995,1
2025-04-18T12:29:00.976+03:00,1744968539.412587,40.95366318922127,29.14102828050063,92.44445,-1,-1,-1,-1,30,31.2094058870221,-9999,66549.78853037501,-0.726654052734375,0.6757354736328125,-0.1443328857421875,66549.778454375,1.245367500009002,-1.402671489998478,-0.7674211693268145,-0.1178031787276268,0.06988514959812164,0.01151585206389427,-0.003288924694061279,-0.04711049795150757,-0.02243715524673462,XArbitraryZVertical,0.1166215334551381,-0.6528276994024278,0.6093844047683669,0.4345873321269572,-0.709555983543396,0.6942815780639648,-0.1204308271408081,0,0,0,-1,-1,66540.06475766667,unknown,2,2025-04-18T12:28:51.236+03:00,2025-04-17T15:44:39.500+03:00,7638,1.148105,0,0,6290.708,4,10,2025-04-18T12:28:51.236+03:00,766661339.0591693,0,110.73,100.5267,1,0.45,2025-04-18T12:23:56.170+03:00,84,1.4,2025-04-18T08:51:18.885+03:00,0.03057091307199995,1
2025-04-18T12:29:00.986+03:00,1744968539.412587,40.95366318922127,29.14102828050063,92.44445,-1,-1,-1,-1,30,31.2094058870221,-9999,66549.79860537501,-0.723175048828125,0.7032318115234375,-0.15899658203125,66549.78853037501,1.243854308125134,-1.403073719400216,-0.7678341458730409,-0.09937943518161774,0.05828095600008965,0.03162484988570213,-0.01629489660263062,-0.02284103631973267,-0.0225721001625061,XArbitraryZVertical,0.1161021221879663,-0.6530478765271628,0.6090980788430864,0.4347969475904943,-0.7093216180801392,0.6945787072181702,-0.1200975328683853,0,0,0,-1,-1,66540.06475766667,unknown,2,2025-04-18T12:28:51.236+03:00,2025-04-17T15:44:39.500+03:00,7638,1.148105,0,0,6290.708,4,10,2025-04-18T12:28:51.236+03:00,766661339.0591693,0,110.73,100.5267,1,0.45,2025-04-18T12:23:56.170+03:00,84,1.4,2025-04-18T08:51:18.885+03:00,0.03057091307199995,1
2025-04-18T12:29:00.996+03:00,1744968539.412587,40.95366318922127,29.14102828050063,92.44445,-1,-1,-1,-1,30,31.2094058870221,-9999,66549.808680375,-0.72943115234375,0.7226104736328125,-0.1804656982421875,66549.79860537501,1.24310861201295,-1.402920093950732,-0.7683465333289787,-0.02384472452104092,0.07029473781585693,0.04977202787995338,-0.01468068361282349,0.005904257297515869,-0.03715574741363525,XArbitraryZVertical,0.1156282624822112,-0.6531130011727667,0.609026741149733,0.4349253247047001,-0.7089521884918213,0.6949472427368164,-0.1201470270752907,0,0,0,-1,-1,66540.06475766667,unknown,2,2025-04-18T12:28:51.236+03:00,2025-04-17T15:44:39.500+03:00,7638,1.148105,0,0,6290.708,4,10,2025-04-18T12:28:51.236+03:00,766661339.0591693,0,110.73,100.5267,1,0.45,2025-04-18T12:23:56.170+03:00,84,1.4,2025-04-18T08:51:18.885+03:00,0.03057091307199995,1
2025-04-18T12:29:01.006+03:00,1744968539.412587,40.95366318922127,29.14102828050063,92.44445,-1,-1,-1,-1,30,31.2094058870221,-9999,66549.818755375,-0.7376251220703125,0.743072509765625,-0.2042694091796875,66549.808680375,1.24361894982728,-1.401804757775527,-0.7688877662808348,0.06530672311782837,0.083561010658741,0.04234074428677559,-0.01959586143493652,0.02480226755142212,-0.05647844076156616,XArbitraryZVertical,0.1152612592955629,-0.6528994190176464,0.6092885250139153,0.4349766992316524,-0.7084468007087708,0.6953363418579102,-0.1208743825554848,0,0,0,-1,-1,66540.06475766667,unknown,2,2025-04-18T12:28:51.236+03:00,2025-04-17T15:44:39.500+03:00,7638,1.148105,0,0,6290.708,4,10,2025-04-18T12:28:51.236+03:00,766661339.0591693,0,110.73,100.5267,1,0.45,2025-04-18T12:23:56.170+03:00,84,1.4,2025-04-18T08:51:18.885+03:00,0.03057091307199995,1
2025-04-18T12:29:01.016+03:00,1744968539.412587,40.95366318922127,29.14102828050063,92.44445,-1,-1,-1,-1,30,31.2094058870221,-9999,66549.82883137501,-0.7336273193359375,0.7336273193359375,-0.2328643798828125,66549.818755375,1.245141900877249,-1.399911575869698,-0.7691288281485267,0.1253388375043869,0.08869339525699615,0.04628818109631538,-0.02923798561096191,0.04683059453964233,-0.07913756370544434,XArbitraryZVertical,0.1150948627404319,-0.652426036417883,0.6097671801865193,0.4350603304631669,-0.7080515027046204,0.6955095529556274,-0.1221868768334389,0,0,0,-1,-1,66540.06475766667,unknown,2,2025-04-18T12:28:51.236+03:00,2025-04-17T15:44:39.500+03:00,7638,1.148105,0,0,6290.708,4,10,2025-04-18T12:28:51.236+03:00,766661339.0591693,0,110.73,100.5267,1,0.45,2025-04-18T12:23:56.170+03:00,84,1.4,2025-04-18T08:51:18.885+03:00,0.03057091307199995,1
2025-04-18T12:29:01.026+03:00,1744968539.412587,40.95366318922127,29.14102828050063,92.44445,-1,-1,-1,-1,30,31.2094058870221,-9999,66549.83890637501,-0.73016357421875,0.7545928955078125,-0.2601165771484375,66549.82883137501,1.247676112688329,-1.3971830134874,-0.7691913163434998,0.2239668667316437,0.09666343778371811,0.04100926220417023,-0.0272517204284668,0.03792029619216919,-0.1056559085845947,XArbitraryZVertical,0.1150663145715935,-0.6516934147991125,0.6104854152835721,0.4351586381969236,-0.707672655582428,0.6955544352531433,-0.1241108700633049,0,0,0,-1,-1,66540.06475766667,unknown,2,2025-04-18T12:28:51.236+03:00,2025-04-17T15:44:39.500+03:00,7638,1.148105,0,0,6290.708,4,10,2025-04-18T12:28:51.236+03:00,766661339.0591693,0,110.73,100.5267,1,0.45,2025-04-18T12:23:56.170+03:00,84,1.4,2025-04-18T08:51:18.885+03:00,0.03057091307199995,1
