loggingTime(txt),locationTimestamp_since1970(s),locationLatitude(WGS84),locationLongitude(WGS84),locationAltitude(m),locationSpeed(m/s),locationSpeedAccuracy(m/s),locationCourse(°),locationCourseAccuracy(°),locationVerticalAccuracy(m),locationHorizontalAccuracy(m),locationFloor(Z),accelerometerTimestamp_sinceReboot(s),accelerometerAccelerationX(G),accelerometerAccelerationY(G),accelerometerAccelerationZ(G),motionTimestamp_sinceReboot(s),motionYaw(rad),motionRoll(rad),motionPitch(rad),motionRotationRateX(rad/s),motionRotationRateY(rad/s),motionRotationRateZ(rad/s),motionUserAccelerationX(G),motionUserAccelerationY(G),motionUserAccelerationZ(G),motionAttitudeReferenceFrame(txt),motionQuaternionX(R),motionQuaternionY(R),motionQuaternionZ(R),motionQuaternionW(R),motionGravityX(G),motionGravityY(G),motionGravityZ(G),motionMagneticFieldX(µT),motionMagneticFieldY(µT),motionMagneticFieldZ(µT),motionHeading(°),motionMagneticFieldCalibrationAccuracy(Z),activityTimestamp_sinceReboot(s),activity(txt),activityActivityConfidence(Z),activityActivityStartDate(txt),pedometerStartDate(txt),pedometerNumberofSteps(N),pedometerAverageActivePace(s/m),pedometerCurrentPace(s/m),pedometerCurrentCadence(steps/s),pedometerDistance(m),pedometerFloorAscended(N),pedometerFloorDescended(N),pedometerEndDate(txt),altimeterTimestamp_sinceReboot(s),altimeterReset(bool),altimeterRelativeAltitude(m),altimeterPressure(kPa),batteryState(N),batteryLevel(R),heartRateBPMTimestamp(txt),heartRateBPM(N),heartRateBPS(R),heartRateVariabilityTimestamp(txt),heartRateVariability(ms),label
2025-04-18T12:08:25.496+03:00,1744967304.970806,40.95359319739049,29.1409997789972,93.61648,-1,-1,-1,-1,30,23.79642844582683,-9999,65622.09591166666,-0.7321624755859375,0.739990234375,-0.159576416015625,65622.08960566667,1.519991242845264,-1.374596856177979,-0.7704937178085993,-0.01111588254570961,0.02642691321671009,-0.001486551249399781,-0.006801724433898926,-0.01707673072814941,0.002830386161804199,XArbitraryZVertical,0.1945051380693207,-0.6262789903952116,0.6662939038192909,0.3549575838971739,-0.7038001418113708,0.6964895725250244,-0.1398847550153732,0,0,0,-1,-1,65617.57966775,unknown,2,2025-04-18T12:08:20.955+03:00,2025-04-17T15:44:39.500+03:00,7557,1.143429,0,0,6228.047,4,10,2025-04-18T12:06:19.732+03:00,766660103.6307706,0,108.13,100.5586,1,0.5,2025-04-18T12:08:20.795+03:00,108,1.8,2025-04-18T08:51:18.885+03:00,0.03057091307199995,1
2025-04-18T12:08:25.498+03:00,1744967304.970806,40.95359319739049,29.1409997789972,93.61648,-1,-1,-1,-1,30,23.79642844582683,-9999,65622.10598666668,-0.701416015625,0.721282958984375,-0.1600799560546875,65622.09968166667,1.519896702880313,-1.374551987640708,-0.7704354163812125,-0.002419329481199384,-0.0003876565024256706,-0.01399994548410177,-0.02954941987991333,0.03527230024337769,-0.01676811277866364,XArbitraryZVertical,0.1944804215872592,-0.6262708822068295,0.6662749174394089,0.3550213354461793,-0.7038338780403137,0.6964477896690369,-0.1399243026971817,0,0,0,-1,-1,65617.57966775,unknown,2,2025-04-18T12:08:20.955+03:00,2025-04-17T15:44:39.500+03:00,7557,1.143429,0,0,6228.047,4,10,2025-04-18T12:06:19.732+03:00,766660103.6307706,0,108.13,100.5586,1,0.5,2025-04-18T12:08:20.795+03:00,108,1.8,2025-04-18T08:51:18.885+03:00,0.03057091307199995,1
2025-04-18T12:08:25.499+03:00,1744967304.970806,40.95359319739049,29.1409997789972,93.61648,-1,-1,-1,-1,30,23.79642844582683,-9999,65622.11606266667,-0.6969451904296875,0.68603515625,-0.1560821533203125,65622.10975666667,1.519811665808599,-1.374604312523574,-0.7703605606168195,-0.001875645248219371,0.0003493735566735268,-0.018679054453969,-0.005656898021697998,0.03546327352523804,-0.02155560255050659,XArbitraryZVertical,0.1944969061304121,-0.626276427985659,0.6662462461675498,0.3550560198610317,-0.7038921117782593,0.6963940262794495,-0.1398975849151611,0,0,0,-1,-1,65617.57966775,unknown,2,2025-04-18T12:08:20.955+03:00,2025-04-17T15:44:39.500+03:00,7557,1.143429,0,0,6228.047,4,10,2025-04-18T12:06:19.732+03:00,766660103.6307706,0,108.13,100.5586,1,0.5,2025-04-18T12:08:20.795+03:00,108,1.8,2025-04-18T08:51:18.885+03:00,0.03057091307199995,1
2025-04-18T12:08:25.505+03:00,1744967304.970806,40.95359319739049,29.1409997789972,93.61648,-1,-1,-1,-1,30,23.79642844582683,-9999,65622.12613766667,-0.7068634033203125,0.6963653564453125,-0.1612701416015625,65622.11983166667,1.520035609183654,-1.374429090005412,-0.7702028652466015,0.03892531618475914,-3.465451300144196e-05,-0.01209305599331856,0.009456217288970947,-0.006034255027770996,-0.01588714122772217,XArbitraryZVertical,0.1945625216967218,-0.6261982515155724,0.6662852229742008,0.3550848813079492,-0.7039753198623657,0.696280837059021,-0.1400423496961594,0,0,0,-1,-1,65617.57966775,unknown,2,2025-04-18T12:08:20.955+03:00,2025-04-17T15:44:39.500+03:00,7557,1.143429,0,0,6228.047,4,10,2025-04-18T12:06:19.732+03:00,766660103.6307706,0,108.13,100.5586,1,0.5,2025-04-18T12:08:20.795+03:00,108,1.8,2025-04-18T08:51:18.885+03:00,0.03057091307199995,1
2025-04-18T12:08:25.516+03:00,1744967304.970806,40.95359319739049,29.1409997789972,93.61648,-1,-1,-1,-1,30,23.79642844582683,-9999,65622.13621266666,-0.697509765625,0.704193115234375,-0.1636962890625,65622.12990766668,1.520782779147079,-1.373952394006674,-0.7699944233765007,0.06928528845310211,-0.009869508445262909,-0.007910462096333504,-0.001897156238555908,-0.004587650299072266,-0.01878857612609863,XArbitraryZVertical,0.194708843642465,-0.6260074461518487,0.6664407108649896,0.3550492549667972,-0.7040507793426514,0.6961312294006348,-0.1404062807559967,0,0,0,-1,-1,65617.57966775,unknown,2,2025-04-18T12:08:20.955+03:00,2025-04-17T15:44:39.500+03:00,7557,1.143429,0,0,6228.047,4,10,2025-04-18T12:06:19.732+03:00,766660103.6307706,0,108.13,100.5586,1,0.5,2025-04-18T12:08:20.795+03:00,108,1.8,2025-04-18T08:51:18.885+03:00,0.03057091307199995,1
2025-04-18T12:08:25.526+03:00,1744967304.970806,40.95359319739049,29.1409997789972,93.61648,-1,-1,-1,-1,30,23.79642844582683,-9999,65622.14628866667,-0.694488525390625,0.6870269775390625,-0.1523895263671875,65622.13998266667,1.521643009386493,-1.373445072987954,-0.7697978840098653,0.05221894755959511,-0.008104365319013596,-0.005294971633702517,0.003765642642974854,0.009423732757568359,-0.02455389499664307,XArbitraryZVertical,0.1948761328124811,-0.6258020112822922,0.6666206518824055,0.3549818139354037,-0.7041136026382446,0.6959901452064514,-0.140790268778801,0,0,0,-1,-1,65617.57966775,unknown,2,2025-04-18T12:08:20.955+03:00,2025-04-17T15:44:39.500+03:00,7557,1.143429,0,0,6228.047,4,10,2025-04-18T12:06:19.732+03:00,766660103.6307706,0,108.13,100.5586,1,0.5,2025-04-18T12:08:20.795+03:00,108,1.8,2025-04-18T08:51:18.885+03:00,0.03057091307199995,1
2025-04-18T12:08:25.535+03:00,1744967304.970806,40.95359319739049,29.1409997789972,93.61648,-1,-1,-1,-1,30,23.79642844582683,-9999,65622.15636366667,-0.6966400146484375,0.6747894287109375,-0.1388702392578125,65622.15005766667,1.522166661358272,-1.373174376411703,-0.7696872542741043,0.02490297146141529,-0.01058316975831985,-0.000759574759285897,0.009525001049041748,-0.00398564338684082,-0.014979287981987,XArbitraryZVertical,0.1949875565358915,-0.6256851190593516,0.6667275035577255,0.3549259148974865,-0.7041508555412292,0.6959106922149658,-0.1409959644079208,0,0,0,-1,-1,65617.57966775,unknown,2,2025-04-18T12:08:20.955+03:00,2025-04-17T15:44:39.500+03:00,7557,1.143429,0,0,6228.047,4,10,2025-04-18T12:06:19.732+03:00,766660103.6307706,0,108.13,100.5586,1,0.5,2025-04-18T12:08:20.795+03:00,108,1.8,2025-04-18T08:51:18.885+03:00,0.03057091307199995,1
2025-04-18T12:08:25.545+03:00,1744967304.970806,40.95359319739049,29.1409997789972,93.61648,-1,-1,-1,-1,30,23.79642844582683,-9999,65622.16643866667,-0.697784423828125,0.6816253662109375,-0.1349334716796875,65622.16013366666,1.522374773934899,-1.373179396122437,-0.7696480817979224,0.005937536712735891,-0.01788582280278206,0.002461518393829465,0.007446825504302979,-0.02031487226486206,-0.0002374649047851562,XArbitraryZVertical,0.1950676516876036,-0.6256594134591931,0.6667595488810442,0.3548672105578982,-0.7041784524917603,0.6958825588226318,-0.1409978121519089,0,0,0,-1,-1,65617.57966775,unknown,2,2025-04-18T12:08:20.955+03:00,2025-04-17T15:44:39.500+03:00,7557,1.143429,0,0,6228.047,4,10,2025-04-18T12:06:19.732+03:00,766660103.6307706,0,108.13,100.5586,1,0.5,2025-04-18T12:08:20.795+03:00,108,1.8,2025-04-18T08:51:18.885+03:00,0.03057091307199995,1
2025-04-18T12:08:25.555+03:00,1744967304.970806,40.95359319739049,29.1409997789972,93.61648,-1,-1,-1,-1,30,23.79642844582683,-9999,65622.17651366667,-0.700775146484375,0.6808013916015625,-0.1336212158203125,65622.17020866668,1.522313978844675,-1.373354287437663,-0.7696513856110658,-0.01389036327600479,-0.009418169036507607,0.00110643554944545,0.006904661655426025,-0.0162736177444458,0.00626121461391449,XArbitraryZVertical,0.1951057947426398,-0.6256969072639428,0.6667320779965527,0.3548317880388157,-0.7042008638381958,0.6958849430084229,-0.1408742219209671,0,0,0,-1,-1,65617.57966775,unknown,2,2025-04-18T12:08:20.955+03:00,2025-04-17T15:44:39.500+03:00,7557,1.143429,0,0,6228.047,4,10,2025-04-18T12:06:19.732+03:00,766660103.6307706,0,108.13,100.5586,1,0.5,2025-04-18T12:08:20.795+03:00,108,1.8,2025-04-18T08:51:18.885+03:00,0.03057091307199995,1
2025-04-18T12:08:25.565+03:00,1744967304.970806,40.95359319739049,29.1409997789972,93.61648,-1,-1,-1,-1,30,23.79642844582683,-9999,65622.18658966667,-0.7066192626953125,0.676025390625,-0.1311187744140625,65622.18028366668,1.521958832973865,-1.373668209088317,-0.7697625433442778,-0.03988867625594139,-0.009025618433952332,0.008632795885205269,0.004813015460968018,-0.01334750652313232,0.006681144237518311,XArbitraryZVertical,0.1950613858511149,-0.6258051339480355,0.6666509638231507,0.3548176500532492,-0.7041691541671753,0.6959647536277771,-0.1406379789113998,0,0,0,-1,-1,65617.57966775,unknown,2,2025-04-18T12:08:20.955+03:00,2025-04-17T15:44:39.500+03:00,7557,1.143429,0,0,6228.047,4,10,2025-04-18T12:06:19.732+03:00,766660103.6307706,0,108.13,100.5586,1,0.5,2025-04-18T12:08:20.795+03:00,108,1.8,2025-04-18T08:51:18.885+03:00,0.03057091307199995,1
2025-04-18T12:08:25.575+03:00,1744967304.970806,40.95359319739049,29.1409997789972,93.61648,-1,-1,-1,-1,30,23.79642844582683,-9999,65622.19666466667,-0.7072296142578125,0.682647705078125,-0.130859375,65622.19035866667,1.521478792914755,-1.37401995098597,-0.7699994399994796,-0.04033994674682617,-0.006020108703523874,0.009715170599520206,-0.001570641994476318,-0.02047562599182129,0.008827388286590576,XArbitraryZVertical,0.1949474590743446,-0.6259524426936183,0.6665582181781938,0.3547947067179757,-0.7040568590164185,0.6961348652839661,-0.1403580605983734,0,0,0,-1,-1,65617.57966775,unknown,2,2025-04-18T12:08:20.955+03:00,2025-04-17T15:44:39.500+03:00,7557,1.143429,0,0,6228.047,4,10,2025-04-18T12:06:19.732+03:00,766660103.6307706,0,108.13,100.5586,1,0.5,2025-04-18T12:08:20.795+03:00,108,1.8,2025-04-18T08:51:18.885+03:00,0.03057091307199995,1
2025-04-18T12:08:25.585+03:00,1744967304.970806,40.95359319739049,29.1409997789972,93.61648,-1,-1,-1,-1,30,23.79642844582683,-9999,65622.20673966667,-0.7093353271484375,0.6953125,-0.134002685546875,65622.20043466667,1.52115306940867,-1.374240508092638,-0.7701496391823833,-0.01933053508400917,-0.003057076130062342,0.007643231190741062,-0.003702223300933838,-0.01603633165359497,0.009277224540710449,XArbitraryZVertical,0.1948677356526905,-0.626047443818665,0.6664958781282855,0.3547878841357579,-0.7039851546287537,0.69624263048172,-0.1401823312044144,0,0,0,-1,-1,65617.57966775,unknown,2,2025-04-18T12:08:20.955+03:00,2025-04-17T15:44:39.500+03:00,7557,1.143429,0,0,6228.047,4,10,2025-04-18T12:06:19.732+03:00,766660103.6307706,0,108.13,100.5586,1,0.5,2025-04-18T12:08:20.795+03:00,108,1.8,2025-04-18T08:51:18.885+03:00,0.03057091307199995,1
2025-04-18T12:08:25.595+03:00,1744967304.970806,40.95359319739049,29.1409997789972,93.61648,-1,-1,-1,-1,30,23.79642844582683,-9999,65622.21681566667,-0.7102203369140625,0.7017974853515625,-0.1377410888671875,65622.21050966666,1.521072405441503,-1.37426095664257,-0.7702228149003921,-0.003162284847348928,0.001422827132046223,0.005064192693680525,-0.004771530628204346,-0.00360715389251709,0.00789487361907959,XArbitraryZVertical,0.1948242359306059,-0.6260706905524981,0.6664878497017742,0.354786029096703,-0.7039382457733154,0.6962952017784119,-0.140158012509346,0,0,0,-1,-1,65617.57966775,unknown,2,2025-04-18T12:08:20.955+03:00,2025-04-17T15:44:39.500+03:00,7557,1.143429,0,0,6228.047,4,10,2025-04-18T12:06:19.732+03:00,766660103.6307706,0,108.13,100.5586,1,0.5,2025-04-18T12:08:20.795+03:00,108,1.8,2025-04-18T08:51:18.885+03:00,0.03057091307199995,1
2025-04-18T12:08:25.605+03:00,1744967304.970806,40.95359319739049,29.1409997789972,93.61648,-1,-1,-1,-1,30,23.79642844582683,-9999,65622.22689066667,-0.7100982666015625,0.70477294921875,-0.1386871337890625,65622.22058466668,1.521226742577061,-1.374016852725879,-0.7702776448415759,0.01291894633322954,0.009179017506539822,0.001583973644301295,-0.006292879581451416,0.004913628101348877,0.002749219536781311,XArbitraryZVertical,0.1947725176988771,-0.6260211574181861,0.6665451767765462,0.3547939712430139,-0.7038664221763611,0.6963345408439636,-0.140322357416153,0,0,0,-1,-1,65617.57966775,unknown,2,2025-04-18T12:08:20.955+03:00,2025-04-17T15:44:39.500+03:00,7557,1.143429,0,0,6228.047,4,10,2025-04-18T12:06:19.732+03:00,766660103.6307706,0,108.13,100.5586,1,0.5,2025-04-18T12:08:20.795+03:00,108,1.8,2025-04-18T08:51:18.885+03:00,0.03057091307199995,1
2025-04-18T12:08:25.615+03:00,1744967304.970806,40.95359319739049,29.1409997789972,93.61648,-1,-1,-1,-1,30,23.79642844582683,-9999,65622.23696566667,-0.7047882080078125,0.7090606689453125,-0.1389007568359375,65622.23066066667,1.521591878535538,-1.373633526862593,-0.7702456260924976,0.03086445853114128,0.006652543321251869,-0.001412581885233521,-0.006828427314758301,0.007637441158294678,0.001604318618774414,XArbitraryZVertical,0.1947699792750805,-0.6259124502016775,0.6666436723149503,0.3548020952616778,-0.7038344740867615,0.6963115334510803,-0.1405965238809586,0,0,0,-1,-1,65617.57966775,unknown,2,2025-04-18T12:08:20.955+03:00,2025-04-17T15:44:39.500+03:00,7557,1.143429,0,0,6228.047,4,10,2025-04-18T12:06:19.732+03:00,766660103.6307706,0,108.13,100.5586,1,0.5,2025-04-18T12:08:20.795+03:00,108,1.8,2025-04-18T08:51:18.885+03:00,0.03057091307199995,1
2025-04-18T12:08:25.626+03:00,1744967304.970806,40.95359319739049,29.1409997789972,93.61648,-1,-1,-1,-1,30,23.79642844582683,-9999,65622.24704166668,-0.7025604248046875,0.706146240234375,-0.1388397216796875,65622.24073566667,1.522084010921573,-1.373198318693974,-0.7700956867842609,0.03989550471305847,0.01044035702943802,-0.005148730706423521,-0.002484321594238281,0.01224642992019653,0.002465128898620605,XArbitraryZVertical,0.194830122073786,-0.6257631862389316,0.6667564864399296,0.3548203823025087,-0.7038755416870117,0.6962039470672607,-0.1409233212471008,0,0,0,-1,-1,65617.57966775,unknown,2,2025-04-18T12:08:20.955+03:00,2025-04-17T15:44:39.500+03:00,7557,1.143429,0,0,6228.047,4,10,2025-04-18T12:06:19.732+03:00,766660103.6307706,0,108.13,100.5586,1,0.5,2025-04-18T12:08:20.795+03:00,108,1.8,2025-04-18T08:51:18.885+03:00,0.03057091307199995,1
2025-04-18T12:08:25.636+03:00,1744967304.970806,40.95359319739049,29.1409997789972,93.61648,-1,-1,-1,-1,30,23.79642844582683,-9999,65622.25711666667,-0.7048492431640625,0.6964111328125,-0.1358795166015625,65622.25081066666,1.522498797556499,-1.372808319484641,-0.7699332378369151,0.02454664185643196,0.01234904490411282,-0.01107785943895578,0.001950740814208984,0.0119815468788147,0.001739516854286194,XArbitraryZVertical,0.1948853866960951,-0.6256274159967025,0.6668497942120803,0.3548540035753727,-0.7039313316345215,0.6960873007774353,-0.1412200480699539,0,0,0,-1,-1,65617.57966775,unknown,2,2025-04-18T12:08:20.955+03:00,2025-04-17T15:44:39.500+03:00,7557,1.143429,0,0,6228.047,4,10,2025-04-18T12:06:19.732+03:00,766660103.6307706,0,108.13,100.5586,1,0.5,2025-04-18T12:08:20.795+03:00,108,1.8,2025-04-18T08:51:18.885+03:00,0.03057091307199995,1
2025-04-18T12:08:25.646+03:00,1744967304.970806,40.95359319739049,29.1409997789972,93.61648,-1,-1,-1,-1,30,23.79642844582683,-9999,65622.26719166667,-0.7059173583984375,0.686279296875,-0.1348724365234375,65622.26088666667,1.522585715645548,-1.372609696776128,-0.7697578306718686,-0.005986766889691353,0.01811505481600761,-0.01314899977296591,1.293420791625977e-05,0.003608286380767822,0.005046680569648743,XArbitraryZVertical,0.1949062771324631,-0.6255554310667016,0.6668648509518574,0.3549410987801031,-0.7040229439735413,0.6959613561630249,-0.1413838863372803,0,0,0,-1,-1,65617.57966775,unknown,2,2025-04-18T12:08:20.955+03:00,2025-04-17T15:44:39.500+03:00,7557,1.143429,0,0,6228.047,4,10,2025-04-18T12:06:19.732+03:00,766660103.6307706,0,108.13,100.5586,1,0.5,2025-04-18T12:08:20.795+03:00,108,1.8,2025-04-18T08:51:18.885+03:00,0.03057091307199995,1
2025-04-18T12:08:25.656+03:00,1744967304.970806,40.95359319739049,29.1409997789972,93.61648,-1,-1,-1,-1,30,23.79642844582683,-9999,65622.27726766666,-0.704010009765625,0.6861114501953125,-0.131011962890625,65622.27096166667,1.522262208494016,-1.372688923947204,-0.7696269508158936,-0.02955454401671886,0.01730771735310555,-0.007678400725126266,-0.001656591892242432,-0.008062183856964111,0.005817592144012451,XArbitraryZVertical,0.1948761900378187,-0.6255799267435285,0.6667849951493487,0.3550645222657351,-0.7041234970092773,0.6958673596382141,-0.1413460522890091,0,0,0,-1,-1,65617.57966775,unknown,2,2025-04-18T12:08:20.955+03:00,2025-04-17T15:44:39.500+03:00,7557,1.143429,0,0,6228.047,4,10,2025-04-18T12:06:19.732+03:00,766660103.6307706,0,108.13,100.5586,1,0.5,2025-04-18T12:08:20.795+03:00,108,1.8,2025-04-18T08:51:18.885+03:00,0.03057091307199995,1
2025-04-18T12:08:25.666+03:00,1744967304.970806,40.95359319739049,29.1409997789972,93.61648,-1,-1,-1,-1,30,23.79642844582683,-9999,65622.28734266668,-0.703369140625,0.6888275146484375,-0.1334381103515625,65622.28103666667,1.521704968130423,-1.372966242503512,-0.7695698973626099,-0.03997575864195824,0.01336916908621788,-0.007751903962343931,-0.0009985566139221191,-0.01061517000198364,0.009810984134674072,XArbitraryZVertical,0.1948137984871299,-0.6256742669850098,0.6666526152479816,0.3551811392634643,-0.7042016386985779,0.6958264112472534,-0.1411585956811905,0,0,0,-1,-1,65617.57966775,unknown,2,2025-04-18T12:08:20.955+03:00,2025-04-17T15:44:39.500+03:00,7557,1.143429,0,0,6228.047,4,10,2025-04-18T12:06:19.732+03:00,766660103.6307706,0,108.13,100.5586,1,0.5,2025-04-18T12:08:20.795+03:00,108,1.8,2025-04-18T08:51:18.885+03:00,0.03057091307199995,1
2025-04-18T12:08:25.676+03:00,1744967304.970806,40.95359319739049,29.1409997789972,93.61648,-1,-1,-1,-1,30,23.79642844582683,-9999,65622.29741766668,-0.70159912109375,0.690399169921875,-0.1395721435546875,65622.29111266667,1.521080462362315,-1.373297665205064,-0.7695654241785902,-0.04352914914488792,0.01151860505342484,-0.005784726701676846,0.000104069709777832,-0.007178783416748047,0.008998408913612366,XArbitraryZVertical,0.1947304070381309,-0.6257932307273162,0.6665089104650578,0.355286944134834,-0.7042514085769653,0.6958231925964355,-0.140925794839859,0,0,0,-1,-1,65617.57966775,unknown,2,2025-04-18T12:08:20.955+03:00,2025-04-17T15:44:39.500+03:00,7557,1.143429,0,0,6228.047,4,10,2025-04-18T12:06:19.732+03:00,766660103.6307706,0,108.13,100.5586,1,0.5,2025-04-18T12:08:20.795+03:00,108,1.8,2025-04-18T08:51:18.885+03:00,0.03057091307199995,1
2025-04-18T12:08:25.686+03:00,1744967304.970806,40.95359319739049,29.1409997789972,93.61648,-1,-1,-1,-1,30,23.79642844582683,-9999,65622.30749366667,-0.7029876708984375,0.684783935546875,-0.141937255859375,65622.30118766667,1.520412534098646,-1.373658558420193,-0.7696069690573003,-0.04710817337036133,0.01152419671416283,-0.003339944873005152,0.00223231315612793,-0.005316495895385742,0.002696096897125244,XArbitraryZVertical,0.1946274276635303,-0.6259290475994397,0.6663598071820646,0.3553838655643505,-0.7042739391326904,0.6958529949188232,-0.1406659781932831,0,0,0,-1,-1,65617.57966775,unknown,2,2025-04-18T12:08:20.955+03:00,2025-04-17T15:44:39.500+03:00,7557,1.143429,0,0,6228.047,4,10,2025-04-18T12:06:19.732+03:00,766660103.6307706,0,108.13,100.5586,1,0.5,2025-04-18T12:08:20.795+03:00,108,1.8,2025-04-18T08:51:18.885+03:00,0.03057091307199995,1
2025-04-18T12:08:25.696+03:00,1744967304.970806,40.95359319739049,29.1409997789972,93.61648,-1,-1,-1,-1,30,23.79642844582683,-9999,65622.31756866667,-0.7025604248046875,0.685943603515625,-0.143096923828125,65622.31126266667,1.519787089083879,-1.373997666099805,-0.7696803614413215,-0.03866195306181908,0.007741176523268223,0.0003654443426057696,0.002138376235961914,-0.009473741054534912,-0.001687899231910706,XArbitraryZVertical,0.1945195115994083,-0.6260619504194137,0.6662239733151392,0.3554636448156681,-0.704271674156189,0.6959057450294495,-0.1404171884059906,0,0,0,-1,-1,65617.57966775,unknown,2,2025-04-18T12:08:20.955+03:00,2025-04-17T15:44:39.500+03:00,7557,1.143429,0,0,6228.047,4,10,2025-04-18T12:06:19.732+03:00,766660103.6307706,0,108.13,100.5586,1,0.5,2025-04-18T12:08:20.795+03:00,108,1.8,2025-04-18T08:51:18.885+03:00,0.03057091307199995,1
2025-04-18T12:08:25.706+03:00,1744967304.970806,40.95359319739049,29.1409997789972,93.61648,-1,-1,-1,-1,30,23.79642844582683,-9999,65622.32764366666,-0.703216552734375,0.6898345947265625,-0.1440887451171875,65622.32133866668,1.519337051827976,-1.374214049789912,-0.7697805012459682,-0.02533603087067604,0.007851697504520416,0.001974259968847036,0.001108527183532715,-0.01072067022323608,-0.002616822719573975,XArbitraryZVertical,0.1944165253630153,-0.6261602328668965,0.6661342599671866,0.3555148541614093,-0.7042335271835327,0.6959776282310486,-0.1402511596679688,0,0,0,-1,-1,65617.57966775,unknown,2,2025-04-18T12:08:20.955+03:00,2025-04-17T15:44:39.500+03:00,7557,1.143429,0,0,6228.047,4,10,2025-04-18T12:06:19.732+03:00,766660103.6307706,0,108.13,100.5586,1,0.5,2025-04-18T12:08:20.795+03:00,108,1.8,2025-04-18T08:51:18.885+03:00,0.03057091307199995,1
2025-04-18T12:08:25.716+03:00,1744967304.970806,40.95359319739049,29.1409997789972,93.61648,-1,-1,-1,-1,30,23.79642844582683,-9999,65622.33771966667,-0.7043304443359375,0.6913299560546875,-0.144378662109375,65622.33141366667,1.519077884638671,-1.374317970199749,-0.7698899025070081,-0.01278168894350529,0.007504088804125786,0.003305807244032621,0.001323103904724121,-0.006740391254425049,-0.003727197647094727,XArbitraryZVertical,0.1943325858253627,-0.6262214381257317,0.6660904782811876,0.3555350216532133,-0.7041734457015991,0.6960561871528625,-0.1401631087064743,0,0,0,-1,-1,65617.57966775,unknown,2,2025-04-18T12:08:20.955+03:00,2025-04-17T15:44:39.500+03:00,7557,1.143429,0,0,6228.047,4,10,2025-04-18T12:06:19.732+03:00,766660103.6307706,0,108.13,100.5586,1,0.5,2025-04-18T12:08:20.795+03:00,108,1.8,2025-04-18T08:51:18.885+03:00,0.03057091307199995,1
2025-04-18T12:08:25.730+03:00,1744967304.970806,40.95359319739049,29.1409997789972,93.61648,-1,-1,-1,-1,30,23.79642844582683,-9999,65622.34779466667,-0.704132080078125,0.6905517578125,-0.143463134765625,65622.34148866667,1.518904826992042,-1.374371569049726,-0.7699579424594142,-0.01174944825470448,0.007697434164583683,0.004705830942839384,0.000307619571685791,-0.004195153713226318,-0.004140451550483704,XArbitraryZVertical,0.1942729661847902,-0.6262586882072684,0.6660622169129421,0.3555550180632839,-0.7041345834732056,0.6961050629615784,-0.1401161402463913,0,0,0,-1,-1,65617.57966775,unknown,2,2025-04-18T12:08:20.955+03:00,2025-04-17T15:44:39.500+03:00,7557,1.143429,0,0,6228.047,4,10,2025-04-18T12:06:19.732+03:00,766660103.6307706,0,108.13,100.5586,1,0.5,2025-04-18T12:08:20.795+03:00,108,1.8,2025-04-18T08:51:18.885+03:00,0.03057091307199995,1
2025-04-18T12:08:25.736+03:00,1744967304.970806,40.95359319739049,29.1409997789972,93.61648,-1,-1,-1,-1,30,23.79642844582683,-9999,65622.35786966667,-0.7041168212890625,0.6912689208984375,-0.142791748046875,65622.35156466666,1.518812504279189,-1.37435730904238,-0.770004507446743,-0.003809366375207901,0.009651528671383858,0.006340412888675928,-0.0002603530883789062,-0.005373060703277588,-0.00343477725982666,XArbitraryZVertical,0.1942234538200459,-0.6262725752742694,0.6660524473426614,0.355575718712161,-0.7041006684303284,0.6961385011672974,-0.1401198208332062,0,0,0,-1,-1,65617.57966775,unknown,2,2025-04-18T12:08:20.955+03:00,2025-04-17T15:44:39.500+03:00,7557,1.143429,0,0,6228.047,4,10,2025-04-18T12:06:19.732+03:00,766660103.6307706,0,108.13,100.5586,1,0.5,2025-04-18T12:08:20.795+03:00,108,1.8,2025-04-18T08:51:18.885+03:00,0.03057091307199995,1
2025-04-18T12:08:25.748+03:00,1744967304.970806,40.95359319739049,29.1409997789972,93.61648,-1,-1,-1,-1,30,23.79642844582683,-9999,65622.36794566667,-0.706329345703125,0.690277099609375,-0.1391754150390625,65622.36163966668,1.518687882655025,-1.374336589213156,-0.7700658848174415,-0.01252536009997129,0.01585189998149872,0.00689381780102849,-0.0001677870750427246,-0.004699945449829102,-0.00260460376739502,XArbitraryZVertical,0.1941565340201024,-0.626290827662212,0.6660392568614432,0.3556048706720955,-0.7040559053421021,0.6961825489997864,-0.1401260793209076,0,0,0,-1,-1,65617.57966775,unknown,2,2025-04-18T12:08:20.955+03:00,2025-04-17T15:44:39.500+03:00,7557,1.143429,0,0,6228.047,4,10,2025-04-18T12:06:19.732+03:00,766660103.6307706,0,108.13,100.5586,1,0.5,2025-04-18T12:08:20.795+03:00,108,1.8,2025-04-18T08:51:18.885+03:00,0.03057091307199995,1
2025-04-18T12:08:25.757+03:00,1744967304.970806,40.95359319739049,29.1409997789972,93.61648,-1,-1,-1,-1,30,23.79642844582683,-9999,65622.37802066667,-0.7053985595703125,0.6894989013671875,-0.1362457275390625,65622.37171466667,1.518487325958854,-1.374346955275218,-0.7701477985505458,-0.01910130493342876,0.01526806876063347,0.005719463340938091,-0.001580357551574707,-0.005948960781097412,0.0001083016395568848,XArbitraryZVertical,0.194069191339111,-0.6263252568062577,0.666011864694542,0.3556431761505466,-0.7040013670921326,0.6962413191795349,-0.1401076465845108,0,0,0,-1,-1,65617.57966775,unknown,2,2025-04-18T12:08:20.955+03:00,2025-04-17T15:44:39.500+03:00,7557,1.143429,0,0,6228.047,4,10,2025-04-18T12:06:19.732+03:00,766660103.6307706,0,108.13,100.5586,1,0.5,2025-04-18T12:08:20.795+03:00,108,1.8,2025-04-18T08:51:18.885+03:00,0.03057091307199995,1
2025-04-18T12:08:25.767+03:00,1744967304.970806,40.95359319739049,29.1409997789972,93.61648,-1,-1,-1,-1,30,23.79642844582683,-9999,65622.38809566667,-0.7052154541015625,0.6920166015625,-0.1356658935546875,65622.38179066667,1.518188500850019,-1.374392338736859,-0.7702226200823344,-0.02450831979513168,0.0180840939283371,0.002364146523177624,-0.00151824951171875,-0.006353676319122314,0.002782240509986877,XArbitraryZVertical,0.1939651634931349,-0.6263742951513867,0.6659627915698959,0.355705383224353,-0.7039566040039062,0.6962950229644775,-0.1400655210018158,0,0,0,-1,-1,65617.57966775,unknown,2,2025-04-18T12:08:20.955+03:00,2025-04-17T15:44:39.500+03:00,7557,1.143429,0,0,6228.047,4,10,2025-04-18T12:06:19.732+03:00,766660103.6307706,0,108.13,100.5586,1,0.5,2025-04-18T12:08:20.795+03:00,108,1.8,2025-04-18T08:51:18.885+03:00,0.03057091307199995,1
2025-04-18T12:08:25.777+03:00,1744967304.970806,40.95359319739049,29.1409997789972,93.61648,-1,-1,-1,-1,30,23.79642844582683,-9999,65622.39817166667,-0.704376220703125,0.6981658935546875,-0.138153076171875,65622.39186566666,1.51786424407784,-1.374433384959365,-0.7702737388671472,-0.02599536255002022,0.01786738075315952,0.003991771023720503,-0.0006623268127441406,-0.005566239356994629,0.004501208662986755,XArbitraryZVertical,0.193859715621777,-0.6264212258053823,0.6659069483455959,0.3557850084297455,-0.7039276361465454,0.6963317394256592,-0.140029713511467,0,0,0,-1,-1,65617.57966775,unknown,2,2025-04-18T12:08:20.955+03:00,2025-04-17T15:44:39.500+03:00,7557,1.143429,0,0,6228.047,4,10,2025-04-18T12:06:19.732+03:00,766660103.6307706,0,108.13,100.5586,1,0.5,2025-04-18T12:08:20.795+03:00,108,1.8,2025-04-18T08:51:18.885+03:00,0.03057091307199995,1
2025-04-18T12:08:25.795+03:00,1744967304.970806,40.95359319739049,29.1409997789972,93.61648,-1,-1,-1,-1,30,23.79642844582683,-9999,65622.40824666667,-0.7017669677734375,0.7005462646484375,-0.1437530517578125,65622.40194066668,1.517575007885912,-1.374461686720479,-0.7703066496274221,-0.01940004341304302,0.01573685184121132,-0.0001923214585985988,-0.0009707212448120117,5.578994750976562e-05,0.002554237842559814,XArbitraryZVertical,0.1937673107104733,-0.6264595535315386,0.665856474303646,0.3558622601974369,-0.7039090394973755,0.6963553428649902,-0.1400053203105927,0,0,0,-1,-1,65617.57966775,unknown,2,2025-04-18T12:08:20.955+03:00,2025-04-17T15:44:39.500+03:00,7557,1.143429,0,0,6228.047,4,10,2025-04-18T12:06:19.732+03:00,766660103.6307706,0,108.13,100.5586,1,0.5,2025-04-18T12:08:20.795+03:00,108,1.8,2025-04-18T08:51:18.885+03:00,0.03057091307199995,1
2025-04-18T12:08:25.797+03:00,1744967304.970806,40.95359319739049,29.1409997789972,93.61648,-1,-1,-1,-1,30,23.79642844582683,-9999,65622.41832166667,-0.70361328125,0.6971893310546875,-0.1441192626953125,65622.41201666667,1.517316369038452,-1.37449317180866,-0.7702988744184697,-0.0205019935965538,0.01342103350907564,-0.005320604424923658,0.001159965991973877,0.004913747310638428,-0.003143146634101868,XArbitraryZVertical,0.193699411314102,-0.6264889688515038,0.6658065232205644,0.3559409674299755,-0.7039188146591187,0.6963497996330261,-0.1399842202663422,0,0,0,-1,-1,65617.57966775,unknown,2,2025-04-18T12:08:20.955+03:00,2025-04-17T15:44:39.500+03:00,7557,1.143429,0,0,6228.047,4,10,2025-04-18T12:06:19.732+03:00,766660103.6307706,0,108.13,100.5586,1,0.5,2025-04-18T12:08:20.795+03:00,108,1.8,2025-04-18T08:51:18.885+03:00,0.03057091307199995,1
2025-04-18T12:08:25.807+03:00,1744967304.970806,40.95359319739049,29.1409997789972,93.61648,-1,-1,-1,-1,30,23.79642844582683,-9999,65622.42839766668,-0.7052764892578125,0.6953125,-0.1435089111328125,65622.42209166667,1.517011163762362,-1.374553629022071,-0.7703111926826051,-0.0228948425501585,0.01457418221980333,0.0009985442738980055,0.0007631182670593262,0.002188742160797119,-0.004804894328117371,XArbitraryZVertical,0.193619808732117,-0.6265312423674964,0.6657477223317985,0.3560195689449497,-0.7039186358451843,0.6963586211204529,-0.1399399489164352,0,0,0,-1,-1,65617.57966775,unknown,2,2025-04-18T12:08:20.955+03:00,2025-04-17T15:44:39.500+03:00,7557,1.143429,0,0,6228.047,4,10,2025-04-18T12:06:19.732+03:00,766660103.6307706,0,108.13,100.5586,1,0.5,2025-04-18T12:08:20.795+03:00,108,1.8,2025-04-18T08:51:18.885+03:00,0.03057091307199995,1
2025-04-18T12:08:25.817+03:00,1744967304.970806,40.95359319739049,29.1409997789972,93.61648,-1,-1,-1,-1,30,23.79642844582683,-9999,65622.43847266668,-0.706787109375,0.697113037109375,-0.142669677734375,65622.43216666667,1.516693810657513,-1.374625291066849,-0.770334693556273,-0.02560940384864807,0.01279492489993572,-0.00170576258096844,-0.0007840394973754883,-0.0008951425552368164,-0.003256306052207947,XArbitraryZVertical,0.1935362127828754,-0.6265784717952935,0.6656869549120036,0.3560955030487571,-0.703912615776062,0.6963754892349243,-0.1398863047361374,0,0,0,-1,-1,65617.57966775,unknown,2,2025-04-18T12:08:20.955+03:00,2025-04-17T15:44:39.500+03:00,7557,1.143429,0,0,6228.047,4,10,2025-04-18T12:06:19.732+03:00,766660103.6307706,0,108.13,100.5586,1,0.5,2025-04-18T12:08:20.795+03:00,108,1.8,2025-04-18T08:51:18.885+03:00,0.03057091307199995,1
2025-04-18T12:08:25.827+03:00,1744967304.970806,40.95359319739049,29.1409997789972,93.61648,-1,-1,-1,-1,30,23.79642844582683,-9999,65622.44854766667,-0.7090606689453125,0.69970703125,-0.1421966552734375,65622.44224266667,1.516409779683906,-1.37469512312624,-0.7703401897758074,-0.01443690992891788,0.01257761009037495,-0.003064241027459502,-0.002334237098693848,-0.0002428293228149414,-0.002848401665687561,XArbitraryZVertical,0.1934684800212493,-0.6266192765064325,0.665630271923737,0.3561667890327221,-0.7039189338684082,0.6963794231414795,-0.139836460351944,0,0,0,-1,-1,65617.57966775,unknown,2,2025-04-18T12:08:20.955+03:00,2025-04-17T15:44:39.500+03:00,7557,1.143429,0,0,6228.047,4,10,2025-04-18T12:06:19.732+03:00,766660103.6307706,0,108.13,100.5586,1,0.5,2025-04-18T12:08:20.795+03:00,108,1.8,2025-04-18T08:51:18.885+03:00,0.03057091307199995,1
2025-04-18T12:08:25.838+03:00,1744967304.970806,40.95359319739049,29.1409997789972,93.61648,-1,-1,-1,-1,30,23.79642844582683,-9999,65622.45862366667,-0.708831787109375,0.6994476318359375,-0.1422119140625,65622.45231766667,1.516199802480297,-1.374732142649054,-0.7703212959231972,-0.01291631162166595,0.01145981438457966,-0.001751735457219183,-0.004788100719451904,0.002868175506591797,-0.002368390560150146,XArbitraryZVertical,0.1934215090481745,-0.6266431578070409,0.665587138996277,0.3562307764207288,-0.7039368748664856,0.6963658928871155,-0.1398129463195801,0,0,0,-1,-1,65617.57966775,unknown,2,2025-04-18T12:08:20.955+03:00,2025-04-17T15:44:39.500+03:00,7557,1.143429,0,0,6228.047,4,10,2025-04-18T12:06:19.732+03:00,766660103.6307706,0,108.13,100.5586,1,0.5,2025-04-18T12:08:20.795+03:00,108,1.8,2025-04-18T08:51:18.885+03:00,0.03057091307199995,1
2025-04-18T12:08:25.847+03:00,1744967304.970806,40.95359319739049,29.1409997789972,93.61648,-1,-1,-1,-1,30,23.79642844582683,-9999,65622.46869866666,-0.7049407958984375,0.6980133056640625,-0.1430511474609375,65622.46239266667,1.516008167617972,-1.374756988140533,-0.7703240578885086,-0.01041879970580339,0.01235330570489168,-0.001014039851725101,-0.005122184753417969,0.003659725189208984,-0.002645626664161682,XArbitraryZVertical,0.1933687461279703,-0.6266665596412795,0.6655509244213325,0.3562860395443072,-0.7039386034011841,0.6963678598403931,-0.1397950947284698,0,0,0,-1,-1,65617.57966775,unknown,2,2025-04-18T12:08:20.955+03:00,2025-04-17T15:44:39.500+03:00,7557,1.143429,0,0,6228.047,4,10,2025-04-18T12:06:19.732+03:00,766660103.6307706,0,108.13,100.5586,1,0.5,2025-04-18T12:08:20.795+03:00,108,1.8,2025-04-18T08:51:18.885+03:00,0.03057091307199995,1
2025-04-18T12:08:25.858+03:00,1744967304.970806,40.95359319739049,29.1409997789972,93.61648,-1,-1,-1,-1,30,23.79642844582683,-9999,65622.47877366668,-0.704437255859375,0.697235107421875,-0.1435089111328125,65622.47246866667,1.515866099866005,-1.374736778278188,-0.7703212836974931,-0.01157055050134659,0.01186867710202932,-0.0007412988343276083,-0.002101898193359375,0.002471446990966797,-0.003394007682800293,XArbitraryZVertical,0.1933184874680443,-0.6266762467028406,0.6655272448682158,0.3563404046357258,-0.7039375901222229,0.6963658332824707,-0.1398096829652786,0,0,0,-1,-1,65617.57966775,unknown,2,2025-04-18T12:08:20.955+03:00,2025-04-17T15:44:39.500+03:00,7557,1.143429,0,0,6228.047,4,10,2025-04-18T12:06:19.732+03:00,766660103.6307706,0,108.13,100.5586,1,0.5,2025-04-18T12:08:20.795+03:00,108,1.8,2025-04-18T08:51:18.885+03:00,0.03057091307199995,1
2025-04-18T12:08:25.867+03:00,1744967304.970806,40.95359319739049,29.1409997789972,93.61648,-1,-1,-1,-1,30,23.79642844582683,-9999,65622.48884966667,-0.7047119140625,0.6958770751953125,-0.142974853515625,65622.48254366667,1.515736916525905,-1.374685213070312,-0.7703370115065431,-0.007162485737353563,0.01792657002806664,0.003777286736294627,-0.000365138053894043,0.000949561595916748,-0.003909170627593994,XArbitraryZVertical,0.1932554803004115,-0.6266820528487599,0.665510996297367,0.3563946834658179,-0.7039195895195007,0.696377158164978,-0.1398438513278961,0,0,0,-1,-1,65617.57966775,unknown,2,2025-04-18T12:08:20.955+03:00,2025-04-17T15:44:39.500+03:00,7557,1.143429,0,0,6228.047,4,10,2025-04-18T12:06:19.732+03:00,766660103.6307706,0,108.13,100.5586,1,0.5,2025-04-18T12:08:20.795+03:00,108,1.8,2025-04-18T08:51:18.885+03:00,0.03057091307199995,1
2025-04-18T12:08:25.877+03:00,1744967304.970806,40.95359319739049,29.1409997789972,93.61648,-1,-1,-1,-1,30,23.79642844582683,-9999,65622.49892466667,-0.7063140869140625,0.6932373046875,-0.142852783203125,65622.49261866667,1.515693020802349,-1.374514565468266,-0.7703877698119265,-0.005250336136668921,0.022186029702425,0.002501499373465776,-0.001018762588500977,-0.0004600882530212402,-0.003063514828681946,XArbitraryZVertical,0.1931675483261986,-0.626663987571405,0.6655254379206212,0.3564472405948829,-0.7038611173629761,0.6964135766029358,-0.1399570852518082,0,0,0,-1,-1,65617.57966775,unknown,2,2025-04-18T12:08:20.955+03:00,2025-04-17T15:44:39.500+03:00,7557,1.143429,0,0,6228.047,4,10,2025-04-18T12:06:19.732+03:00,766660103.6307706,0,108.13,100.5586,1,0.5,2025-04-18T12:08:20.795+03:00,108,1.8,2025-04-18T08:51:18.885+03:00,0.03057091307199995,1
2025-04-18T12:08:25.887+03:00,1744967304.970806,40.95359319739049,29.1409997789972,93.61648,-1,-1,-1,-1,30,23.79642844582683,-9999,65622.50899966666,-0.7056732177734375,0.6895751953125,-0.1423797607421875,65622.50269466668,1.515590014218833,-1.374301612715935,-0.7704413943444564,-0.01525982655584812,0.03086393885314465,0.004541747272014618,-0.002305924892425537,-0.001902401447296143,-0.003287091851234436,XArbitraryZVertical,0.193046072892704,-0.626644534838714,0.6655337333234728,0.3565317307429117,-0.7037946581840515,0.6964520812034607,-0.1400996744632721,0,0,0,-1,-1,65617.57966775,unknown,2,2025-04-18T12:08:20.955+03:00,2025-04-17T15:44:39.500+03:00,7557,1.143429,0,0,6228.047,4,10,2025-04-18T12:06:19.732+03:00,766660103.6307706,0,108.13,100.5586,1,0.5,2025-04-18T12:08:20.795+03:00,108,1.8,2025-04-18T08:51:18.885+03:00,0.03057091307199995,1
2025-04-18T12:08:25.897+03:00,1744967304.970806,40.95359319739049,29.1409997789972,93.61648,-1,-1,-1,-1,30,23.79642844582683,-9999,65622.51907566667,-0.7017822265625,0.686981201171875,-0.138336181640625,65622.51276966668,1.515375647340893,-1.374130953063834,-0.770505812097776,-0.01733529567718506,0.0316508375108242,0.003089358797296882,-0.002358615398406982,-0.005336105823516846,-0.002504363656044006,XArbitraryZVertical,0.1929001081670073,-0.6266450705847167,0.6655192950027548,0.3566366422247989,-0.7037266492843628,0.6964982748031616,-0.1402110010385513,0,0,0,-1,-1,65617.57966775,unknown,2,2025-04-18T12:08:20.955+03:00,2025-04-17T15:44:39.500+03:00,7557,1.143429,0,0,6228.047,4,10,2025-04-18T12:06:19.732+03:00,766660103.6307706,0,108.13,100.5586,1,0.5,2025-04-18T12:08:20.795+03:00,108,1.8,2025-04-18T08:51:18.885+03:00,0.03057091307199995,1
2025-04-18T12:08:25.908+03:00,1744967304.970806,40.95359319739049,29.1409997789972,93.61648,-1,-1,-1,-1,30,23.79642844582683,-9999,65622.529150375,-0.70147705078125,0.6869354248046875,-0.1362457275390625,65622.52284437501,1.51509035912011,-1.374005594995009,-0.7705811585505099,-0.02733306773006916,0.03338535502552986,0.005714436527341604,0.001051425933837891,-0.00914376974105835,0.001174673438072205,XArbitraryZVertical,0.192743195561302,-0.6266622463333722,0.6654890721842527,0.3567477762321838,-0.7036576867103577,0.6965523362159729,-0.1402889788150787,0,0,0,-1,-1,65617.57966775,unknown,2,2025-04-18T12:08:20.955+03:00,2025-04-17T15:44:39.500+03:00,7557,1.143429,0,0,6228.047,4,10,2025-04-18T12:06:19.732+03:00,766660103.6307706,0,108.13,100.5586,1,0.5,2025-04-18T12:08:20.795+03:00,108,1.8,2025-04-18T08:51:18.885+03:00,0.03057091307199995,1
2025-04-18T12:08:25.918+03:00,1744967304.970806,40.95359319739049,29.1409997789972,93.61648,-1,-1,-1,-1,30,23.79642844582683,-9999,65622.539225375,-0.7032318115234375,0.690093994140625,-0.138641357421875,65622.53291937501,1.514719994710714,-1.37391833691794,-0.7706661075458366,-0.02824540063738823,0.03432578220963478,0.002591913565993309,0.002278029918670654,-0.00970834493637085,0.00387948751449585,XArbitraryZVertical,0.1925691093723916,-0.6266959014030757,0.6654410449994744,0.3568720383869842,-0.7035872936248779,0.6966133117675781,-0.1403387635946274,0,0,0,-1,-1,65617.57966775,unknown,2,2025-04-18T12:08:20.955+03:00,2025-04-17T15:44:39.500+03:00,7557,1.143429,0,0,6228.047,4,10,2025-04-18T12:06:19.732+03:00,766660103.6307706,0,108.13,100.5586,1,0.5,2025-04-18T12:08:20.795+03:00,108,1.8,2025-04-18T08:51:18.885+03:00,0.03057091307199995,1
2025-04-18T12:08:25.928+03:00,1744967304.970806,40.95359319739049,29.1409997789972,93.61648,-1,-1,-1,-1,30,23.79642844582683,-9999,65622.549300375,-0.7000579833984375,0.6978607177734375,-0.143707275390625,65622.542995375,1.514440585741106,-1.373795860265181,-0.7707237961182386,-0.01283741649240255,0.02957443706691265,0.00042596465209499,0.0001919865608215332,-0.007598280906677246,0.002889648079872131,XArbitraryZVertical,0.1924210910220582,-0.626710134021042,0.6654095218140174,0.3569855655328878,-0.7035306096076965,0.6966546773910522,-0.140417069196701,0,0,0,-1,-1,65617.57966775,unknown,2,2025-04-18T12:08:20.955+03:00,2025-04-17T15:44:39.500+03:00,7557,1.143429,0,0,6228.047,4,10,2025-04-18T12:06:19.732+03:00,766660103.6307706,0,108.13,100.5586,1,0.5,2025-04-18T12:08:20.795+03:00,108,1.8,2025-04-18T08:51:18.885+03:00,0.03057091307199995,1
2025-04-18T12:08:25.938+03:00,1744967304.970806,40.95359319739049,29.1409997789972,93.61648,-1,-1,-1,-1,30,23.79642844582683,-9999,65622.55937637501,-0.7027740478515625,0.699554443359375,-0.146636962890625,65622.553070375,1.514362787505775,-1.373581640433714,-0.7707282042886049,0.001594254048541188,0.02329124137759209,-0.002965970430523157,0.003088533878326416,-0.001177549362182617,-0.002346619963645935,XArbitraryZVertical,0.1923239494264924,-0.6266800767461171,0.6654167358622388,0.3570771684191633,-0.7034974694252014,0.6966578364372253,-0.1405671536922455,0,0,0,-1,-1,65617.57966775,unknown,2,2025-04-18T12:08:20.955+03:00,2025-04-17T15:44:39.500+03:00,7557,1.143429,0,0,6228.047,4,10,2025-04-18T12:06:19.732+03:00,766660103.6307706,0,108.13,100.5586,1,0.5,2025-04-18T12:08:20.795+03:00,108,1.8,2025-04-18T08:51:18.885+03:00,0.03057091307199995,1
2025-04-18T12:08:25.948+03:00,1744967304.970806,40.95359319739049,29.1409997789972,93.61648,-1,-1,-1,-1,30,23.79642844582683,-9999,65622.56945137501,-0.706298828125,0.6963958740234375,-0.1448211669921875,65622.56314537501,1.514508235511553,-1.373269603918467,-0.7706858592044786,0.01642752811312675,0.01806771755218506,-0.002889537718147039,0.001578271389007568,0.003247380256652832,-0.005890175700187683,XArbitraryZVertical,0.1922801553318044,-0.6266036250095062,0.6654679049515133,0.3571396705127787,-0.7034825682640076,0.6966274380683899,-0.1407924741506577,0,0,0,-1,-1,65617.57966775,unknown,2,2025-04-18T12:08:20.955+03:00,2025-04-17T15:44:39.500+03:00,7557,1.143429,0,0,6228.047,4,10,2025-04-18T12:06:19.732+03:00,766660103.6307706,0,108.13,100.5586,1,0.5,2025-04-18T12:08:20.795+03:00,108,1.8,2025-04-18T08:51:18.885+03:00,0.03057091307199995,1
2025-04-18T12:08:25.958+03:00,1744967304.970806,40.95359319739049,29.1409997789972,93.61648,-1,-1,-1,-1,30,23.79642844582683,-9999,65622.579526375,-0.708953857421875,0.6940460205078125,-0.1453094482421875,65622.573221375,1.514797176838138,-1.372903977357738,-0.7706186771339643,0.02203474752604961,0.01574164628982544,-0.0006985883810557425,-0.002303004264831543,0.0006101131439208984,-0.004891335964202881,XArbitraryZVertical,0.1922719359100477,-0.626499836282331,0.6655470403502465,0.357178916146662,-0.7034770846366882,0.6965792775154114,-0.1410589218139648,0,0,0,-1,-1,65617.57966775,unknown,2,2025-04-18T12:08:20.955+03:00,2025-04-17T15:44:39.500+03:00,7557,1.143429,0,0,6228.047,4,10,2025-04-18T12:06:19.732+03:00,766660103.6307706,0,108.13,100.5586,1,0.5,2025-04-18T12:08:20.795+03:00,108,1.8,2025-04-18T08:51:18.885+03:00,0.03057091307199995,1
2025-04-18T12:08:25.968+03:00,1744967304.970806,40.95359319739049,29.1409997789972,93.61648,-1,-1,-1,-1,30,23.79642844582683,-9999,65622.58960237501,-0.708953857421875,0.6909637451171875,-0.146331787109375,65622.583296375,1.515082043376485,-1.372563273980351,-0.7705585358283673,0.01716995052993298,0.01237168163061142,3.085142816416919e-05,-0.005529701709747314,-0.002047538757324219,-0.003697395324707031,XArbitraryZVertical,0.1922684010102196,-0.6264019911138219,0.6656238371498988,0.3572092040923717,-0.70346999168396,0.696536123752594,-0.1413068175315857,0,0,0,-1,-1,65617.57966775,unknown,2,2025-04-18T12:08:20.955+03:00,2025-04-17T15:44:39.500+03:00,7557,1.143429,0,0,6228.047,4,10,2025-04-18T12:06:19.732+03:00,766660103.6307706,0,108.13,100.5586,1,0.5,2025-04-18T12:08:20.795+03:00,108,1.8,2025-04-18T08:51:18.885+03:00,0.03057091307199995,1
2025-04-18T12:08:25.978+03:00,1744967304.970806,40.95359319739049,29.1409997789972,93.61648,-1,-1,-1,-1,30,23.79642844582683,-9999,65622.59967737501,-0.7069244384765625,0.690582275390625,-0.1444091796875,65622.593371375,1.515269058386597,-1.372336560520452,-0.770523395859579,0.007998091168701649,0.005277619697153568,0.0007724419119767845,-0.005400419235229492,-0.005333483219146729,-0.005150496959686279,XArbitraryZVertical,0.1922635334978671,-0.6263379040302115,0.665675051635125,0.3572287890016314,-0.7034619450569153,0.696510910987854,-0.1414711326360703,0,0,0,-1,-1,65617.57966775,unknown,2,2025-04-18T12:08:20.955+03:00,2025-04-17T15:44:39.500+03:00,7557,1.143429,0,0,6228.047,4,10,2025-04-18T12:06:19.732+03:00,766660103.6307706,0,108.13,100.5586,1,0.5,2025-04-18T12:08:20.795+03:00,108,1.8,2025-04-18T08:51:18.885+03:00,0.03057091307199995,1
2025-04-18T12:08:25.989+03:00,1744967304.970806,40.95359319739049,29.1409997789972,93.61648,-1,-1,-1,-1,30,23.79642844582683,-9999,65622.60975237501,-0.7050018310546875,0.6910247802734375,-0.143402099609375,65622.603447375,1.515307801737373,-1.3722624884431,-0.770476141973399,-0.0005083116120658815,0.004583067260682583,-0.003128023818135262,-0.003791689872741699,-0.005833566188812256,-0.004069581627845764,XArbitraryZVertical,0.192267147404006,-0.6263133976096468,0.6656837445505376,0.3572537230468156,-0.7034838199615479,0.6964769959449768,-0.1415297389030457,0,0,0,-1,-1,65617.57966775,unknown,2,2025-04-18T12:08:20.955+03:00,2025-04-17T15:44:39.500+03:00,7557,1.143429,0,0,6228.047,4,10,2025-04-18T12:06:19.732+03:00,766660103.6307706,0,108.13,100.5586,1,0.5,2025-04-18T12:08:20.795+03:00,108,1.8,2025-04-18T08:51:18.885+03:00,0.03057091307199995,1
2025-04-18T12:08:25.998+03:00,1744967304.970806,40.95359319739049,29.1409997789972,93.61648,-1,-1,-1,-1,30,23.79642844582683,-9999,65622.619828375,-0.709808349609375,0.6924591064453125,-0.1420745849609375,65622.613522375,1.51511350779755,-1.372360591875815,-0.7704086103457399,-0.02224350161850452,0.008080796338617802,-0.01137386914342642,-0.001183629035949707,-0.005617380142211914,-0.002115175127983093,XArbitraryZVertical,0.192262163571305,-0.6263387941284663,0.6656319255611687,0.3573081317581307,-0.7035435438156128,0.6964285373687744,-0.1414699554443359,0,0,0,-1,-1,65617.57966775,unknown,2,2025-04-18T12:08:20.955+03:00,2025-04-17T15:44:39.500+03:00,7557,1.143429,0,0,6228.047,4,10,2025-04-18T12:06:19.732+03:00,766660103.6307706,0,108.13,100.5586,1,0.5,2025-04-18T12:08:20.795+03:00,108,1.8,2025-04-18T08:51:18.885+03:00,0.03057091307199995,1
2025-04-18T12:08:26.009+03:00,1744967304.970806,40.95359319739049,29.1409997789972,93.61648,-1,-1,-1,-1,30,23.79642844582683,-9999,65622.62990337501,-0.7039794921875,0.69830322265625,-0.139984130859375,65622.623597375,1.514737443866043,-1.372579691289784,-0.7702855785108066,-0.02418734319508076,0.001731021329760551,-0.01790766790509224,-0.005905568599700928,-0.00452190637588501,-0.00209982693195343,XArbitraryZVertical,0.1922593165747382,-0.6263944405966505,0.6655297298273107,0.3574027464099714,-0.7036587595939636,0.6963402032852173,-0.1413327157497406,0,0,0,-1,-1,65617.57966775,unknown,2,2025-04-18T12:08:20.955+03:00,2025-04-17T15:44:39.500+03:00,7557,1.143429,0,0,6228.047,4,10,2025-04-18T12:06:19.732+03:00,766660103.6307706,0,108.13,100.5586,1,0.5,2025-04-18T12:08:20.795+03:00,108,1.8,2025-04-18T08:51:18.885+03:00,0.03057091307199995,1
2025-04-18T12:08:26.019+03:00,1744967304.970806,40.95359319739049,29.1409997789972,93.61648,-1,-1,-1,-1,30,23.79642844582683,-9999,65622.63997837501,-0.699462890625,0.704681396484375,-0.1447906494140625,65622.63367337501,1.51439762889239,-1.372814356600923,-0.7700921127714799,-0.01739008910953999,-0.0005421862006187439,-0.02709607407450676,-0.00212407112121582,1.138448715209961e-05,0.0005691200494766235,XArbitraryZVertical,0.1922972409827529,-0.62643813974021,0.6654244462019219,0.357501593144723,-0.7038238644599915,0.6962013840675354,-0.1411940604448318,0,0,0,-1,-1,65617.57966775,unknown,2,2025-04-18T12:08:20.955+03:00,2025-04-17T15:44:39.500+03:00,7557,1.143429,0,0,6228.047,4,10,2025-04-18T12:06:19.732+03:00,766660103.6307706,0,108.13,100.5586,1,0.5,2025-04-18T12:08:20.795+03:00,108,1.8,2025-04-18T08:51:18.885+03:00,0.03057091307199995,1
2025-04-18T12:08:26.029+03:00,1744967304.970806,40.95359319739049,29.1409997789972,93.61648,-1,-1,-1,-1,30,23.79642844582683,-9999,65622.650054375,-0.7030181884765625,0.7052764892578125,-0.1486053466796875,65622.64374837501,1.514132655302152,-1.373011652559577,-0.7698486789640208,-0.01152927055954933,-0.005023221485316753,-0.03305409848690033,0.004661798477172852,0.00792241096496582,-0.002084672451019287,XArbitraryZVertical,0.1923631622756946,-0.6264600219715901,0.6653304302695315,0.3576028659308082,-0.7040179371833801,0.696026623249054,-0.1410885155200958,0,0,0,-1,-1,65617.57966775,unknown,2,2025-04-18T12:08:20.955+03:00,2025-04-17T15:44:39.500+03:00,7557,1.143429,0,0,6228.047,4,10,2025-04-18T12:06:19.732+03:00,766660103.6307706,0,108.13,100.5586,1,0.5,2025-04-18T12:08:20.795+03:00,108,1.8,2025-04-18T08:51:18.885+03:00,0.03057091307199995,1
2025-04-18T12:08:26.039+03:00,1744967304.970806,40.95359319739049,29.1409997789972,93.61648,-1,-1,-1,-1,30,23.79642844582683,-9999,65622.660129375,-0.7008209228515625,0.703582763671875,-0.15057373046875,65622.653823375,1.514026871574109,-1.373148097461159,-0.7695128613764802,0.009791996330022812,-0.01271709427237511,-0.03560167923569679,0.001553237438201904,0.009872555732727051,-0.007338047027587891,XArbitraryZVertical,0.1924903477095355,-0.6264409760524461,0.6652601652700294,0.3576985083454708,-0.7042663097381592,0.6957854628562927,-0.1410383433103561,0,0,0,-1,-1,65617.57966775,unknown,2,2025-04-18T12:08:20.955+03:00,2025-04-17T15:44:39.500+03:00,7557,1.143429,0,0,6228.047,4,10,2025-04-18T12:06:19.732+03:00,766660103.6307706,0,108.13,100.5586,1,0.5,2025-04-18T12:08:20.795+03:00,108,1.8,2025-04-18T08:51:18.885+03:00,0.03057091307199995,1
2025-04-18T12:08:26.049+03:00,1744967304.970806,40.95359319739049,29.1409997789972,93.61648,-1,-1,-1,-1,30,23.79642844582683,-9999,65622.670204375,-0.6995391845703125,0.699951171875,-0.15386962890625,65622.66389937501,1.514263296457934,-1.373159715453213,-0.7691050711529762,0.03723107650876045,-0.02276227064430714,-0.03213983401656151,0.002489209175109863,0.008319199085235596,-0.009014785289764404,XArbitraryZVertical,0.1927077986366769,-0.6263551480917259,0.6652548985798369,0.3577415678921541,-0.7045461535453796,0.6954925060272217,-0.1410858631134033,0,0,0,-1,-1,65617.57966775,unknown,2,2025-04-18T12:08:20.955+03:00,2025-04-17T15:44:39.500+03:00,7557,1.143429,0,0,6228.047,4,10,2025-04-18T12:06:19.732+03:00,766660103.6307706,0,108.13,100.5586,1,0.5,2025-04-18T12:08:20.795+03:00,108,1.8,2025-04-18T08:51:18.885+03:00,0.03057091307199995,1
2025-04-18T12:08:26.059+03:00,1744967304.970806,40.95359319739049,29.1409997789972,93.61648,-1,-1,-1,-1,30,23.79642844582683,-9999,65622.680280375,-0.7010498046875,0.6933135986328125,-0.1538543701171875,65622.67397437501,1.514767692001903,-1.373058799583373,-0.7686846549026584,0.04746227711439133,-0.02823653072118759,-0.0289789941161871,0.005904912948608398,0.005951106548309326,-0.01187701523303986,XArbitraryZVertical,0.1929760293660967,-0.626221249873077,0.6653069726384008,0.3577345640968107,-0.7048185467720032,0.6951903104782104,-0.1412144005298615,0,0,0,-1,-1,65617.57966775,unknown,2,2025-04-18T12:08:20.955+03:00,2025-04-17T15:44:39.500+03:00,7557,1.143429,0,0,6228.047,4,10,2025-04-18T12:06:19.732+03:00,766660103.6307706,0,108.13,100.5586,1,0.5,2025-04-18T12:08:20.795+03:00,108,1.8,2025-04-18T08:51:18.885+03:00,0.03057091307199995,1
2025-04-18T12:08:26.069+03:00,1744967304.970806,40.95359319739049,29.1409997789972,93.61648,-1,-1,-1,-1,30,23.79642844582683,-9999,65622.690355375,-0.7014312744140625,0.6851959228515625,-0.1526641845703125,65622.68404937501,1.515319162807003,-1.373005672866344,-0.7683132072040041,0.04116097092628479,-0.03798316791653633,-0.02536748163402081,0.005006134510040283,0.0007860660552978516,-0.01294846832752228,XArbitraryZVertical,0.1932580761471995,-0.6260990542392176,0.6653684473158604,0.3576818925668293,-0.7050642371177673,0.6949232816696167,-0.1413025856018066,0,0,0,-1,-1,65617.57966775,unknown,2,2025-04-18T12:08:20.955+03:00,2025-04-17T15:44:39.500+03:00,7557,1.143429,0,0,6228.047,4,10,2025-04-18T12:06:19.732+03:00,766660103.6307706,0,108.13,100.5586,1,0.5,2025-04-18T12:08:20.795+03:00,108,1.8,2025-04-18T08:51:18.885+03:00,0.03057091307199995,1
2025-04-18T12:08:26.079+03:00,1744967304.970806,40.95359319739049,29.1409997789972,93.61648,-1,-1,-1,-1,30,23.79642844582683,-9999,65622.700430375,-0.7002105712890625,0.6804046630859375,-0.1467742919921875,65622.694125375,1.515720224591979,-1.373125610903573,-0.7680171068291897,0.0247320644557476,-0.0409276932477951,-0.01935812644660473,0.003515660762786865,-0.007454454898834229,-0.01174145936965942,XArbitraryZVertical,0.1935248981694649,-0.6260342857564889,0.6653948386018084,0.3576016200701823,-0.7052826881408691,0.6947103142738342,-0.1412583738565445,0,0,0,-1,-1,65617.57966775,unknown,2,2025-04-18T12:08:20.955+03:00,2025-04-17T15:44:39.500+03:00,7557,1.143429,0,0,6228.047,4,10,2025-04-18T12:06:19.732+03:00,766660103.6307706,0,108.13,100.5586,1,0.5,2025-04-18T12:08:20.795+03:00,108,1.8,2025-04-18T08:51:18.885+03:00,0.03057091307199995,1
2025-04-18T12:08:26.089+03:00,1744967304.970806,40.95359319739049,29.1409997789972,93.61648,-1,-1,-1,-1,30,23.79642844582683,-9999,65622.71050637501,-0.7007904052734375,0.6748809814453125,-0.1446380615234375,65622.70420037501,1.515889700747876,-1.373428424001228,-0.7678166629045083,0.005967430770397186,-0.04175326973199844,-0.01227118819952011,0.004946231842041016,-0.01239144802093506,-0.00731956958770752,XArbitraryZVertical,0.1937472133744469,-0.6260399017406693,0.665373001182663,0.3575121275226661,-0.7054620385169983,0.6945661306381226,-0.1410721242427826,0,0,0,-1,-1,65617.57966775,unknown,2,2025-04-18T12:08:20.955+03:00,2025-04-17T15:44:39.500+03:00,7557,1.143429,0,0,6228.047,4,10,2025-04-18T12:06:19.732+03:00,766660103.6307706,0,108.13,100.5586,1,0.5,2025-04-18T12:08:20.795+03:00,108,1.8,2025-04-18T08:51:18.885+03:00,0.03057091307199995,1
2025-04-18T12:08:26.099+03:00,1744967304.970806,40.95359319739049,29.1409997789972,93.61648,-1,-1,-1,-1,30,23.79642844582683,-9999,65622.720581375,-0.698638916015625,0.676666259765625,-0.144317626953125,65622.71427537501,1.515821857537292,-1.373937063620512,-0.7677426860721552,-0.01238054968416691,-0.04999668896198273,-0.005313347559422255,0.004503726959228516,-0.01917415857315063,-0.00391465425491333,XArbitraryZVertical,0.1939204731211836,-0.6261255355355538,0.6653031517807534,0.3573982300303541,-0.7055841088294983,0.6945129036903381,-0.1407233327627182,0,0,0,-1,-1,65617.57966775,unknown,2,2025-04-18T12:08:20.955+03:00,2025-04-17T15:44:39.500+03:00,7557,1.143429,0,0,6228.047,4,10,2025-04-18T12:06:19.732+03:00,766660103.6307706,0,108.13,100.5586,1,0.5,2025-04-18T12:08:20.795+03:00,108,1.8,2025-04-18T08:51:18.885+03:00,0.03057091307199995,1
2025-04-18T12:08:26.109+03:00,1744967304.970806,40.95359319739049,29.1409997789972,93.61648,-1,-1,-1,-1,30,23.79642844582683,-9999,65622.730656375,-0.700958251953125,0.6822967529296875,-0.1431427001953125,65622.724351375,1.515599561850945,-1.374619421231404,-0.7677757499349204,-0.02028667740523815,-0.05512593686580658,-0.001046430552378297,0.006133496761322021,-0.01977771520614624,-0.004522696137428284,XArbitraryZVertical,0.1940665129867973,-0.6262743038561623,0.6652010270771825,0.3572484327152662,-0.7056575417518616,0.6945366859436035,-0.1402373760938644,0,0,0,-1,-1,65617.57966775,unknown,2,2025-04-18T12:08:20.955+03:00,2025-04-17T15:44:39.500+03:00,7557,1.143429,0,0,6228.047,4,10,2025-04-18T12:06:19.732+03:00,766660103.6307706,0,108.13,100.5586,1,0.5,2025-04-18T12:08:20.795+03:00,108,1.8,2025-04-18T08:51:18.885+03:00,0.03057091307199995,1
2025-04-18T12:08:26.119+03:00,1744967304.970806,40.95359319739049,29.1409997789972,93.61648,-1,-1,-1,-1,30,23.79642844582683,-9999,65622.74073237501,-0.70159912109375,0.6896514892578125,-0.1450347900390625,65622.734426375,1.515337491751773,-1.375367807477526,-0.767851615388659,-0.0219117384403944,-0.0629817321896553,0.0001147076836787164,0.005469381809234619,-0.0133931040763855,-0.003748834133148193,XArbitraryZVertical,0.1942074095356652,-0.6264455205831878,0.6650902435787777,0.3570778350445822,-0.7057105302810669,0.6945912837982178,-0.1396989822387695,0,0,0,-1,-1,65617.57966775,unknown,2,2025-04-18T12:08:20.955+03:00,2025-04-17T15:44:39.500+03:00,7557,1.143429,0,0,6228.047,4,10,2025-04-18T12:06:19.732+03:00,766660103.6307706,0,108.13,100.5586,1,0.5,2025-04-18T12:08:20.795+03:00,108,1.8,2025-04-18T08:51:18.885+03:00,0.03057091307199995,1
2025-04-18T12:08:26.129+03:00,1744967304.970806,40.95359319739049,29.1409997789972,93.61648,-1,-1,-1,-1,30,23.79642844582683,-9999,65622.75080737501,-0.7037200927734375,0.6903839111328125,-0.1449737548828125,65622.74450137501,1.515142172552105,-1.376107037224411,-0.7679357341576736,-0.01886135339736938,-0.0663897767663002,0.003374683205038309,0.003821372985839844,-0.00602269172668457,-0.005197390913963318,XArbitraryZVertical,0.1943633122112603,-0.626609873611751,0.6649931826530998,0.3568852286672686,-0.7057561874389648,0.6946517825126648,-0.1391659379005432,0,0,0,-1,-1,65617.57966775,unknown,2,2025-04-18T12:08:20.955+03:00,2025-04-17T15:44:39.500+03:00,7557,1.143429,0,0,6228.047,4,10,2025-04-18T12:06:19.732+03:00,766660103.6307706,0,108.13,100.5586,1,0.5,2025-04-18T12:08:20.795+03:00,108,1.8,2025-04-18T08:51:18.885+03:00,0.03057091307199995,1
2025-04-18T12:08:26.139+03:00,1744967304.970806,40.95359319739049,29.1409997789972,93.61648,-1,-1,-1,-1,30,23.79642844582683,-9999,65622.76088237501,-0.70654296875,0.6941375732421875,-0.1417083740234375,65622.754577375,1.51489236287752,-1.376958587359091,-0.7680420741693393,-0.02282067388296127,-0.07425648719072342,0.003836475312709808,0.002463400363922119,-0.004191696643829346,-0.006712928414344788,XArbitraryZVertical,0.194531706429457,-0.6268030462899032,0.6648780281765791,0.3566689978665102,-0.7058021426200867,0.6947283148765564,-0.1385507136583328,0,0,0,-1,-1,65617.57966775,unknown,2,2025-04-18T12:08:20.955+03:00,2025-04-17T15:44:39.500+03:00,7557,1.143429,0,0,6228.047,4,10,2025-04-18T12:06:19.732+03:00,766660103.6307706,0,108.13,100.5586,1,0.5,2025-04-18T12:08:20.795+03:00,108,1.8,2025-04-18T08:51:18.885+03:00,0.03057091307199995,1
2025-04-18T12:08:26.150+03:00,1744967304.970806,40.95359319739049,29.1409997789972,93.61648,-1,-1,-1,-1,30,23.79642844582683,-9999,65622.77095837501,-0.706878662109375,0.703948974609375,-0.136474609375,65622.764652375,1.514671972764132,-1.377844100148459,-0.768132611943618,-0.01934311911463737,-0.07924298942089081,0.002453229390084743,-0.000283658504486084,-0.003143012523651123,-0.005763113498687744,XArbitraryZVertical,0.1947260883017107,-0.6269967831240676,0.6647629359252505,0.3564366698477433,-0.7058626413345337,0.6947934031486511,-0.1379135698080063,0,0,0,-1,-1,65617.57966775,unknown,2,2025-04-18T12:08:20.955+03:00,2025-04-17T15:44:39.500+03:00,7557,1.143429,0,0,6228.047,4,10,2025-04-18T12:06:19.732+03:00,766660103.6307706,0,108.13,100.5586,1,0.5,2025-04-18T12:08:20.795+03:00,108,1.8,2025-04-18T08:51:18.885+03:00,0.03057091307199995,1
2025-04-18T12:08:26.160+03:00,1744967304.970806,40.95359319739049,29.1409997789972,93.61648,-1,-1,-1,-1,30,23.79642844582683,-9999,65622.78103337501,-0.7088623046875,0.7087249755859375,-0.134124755859375,65622.774727375,1.51455942852982,-1.378684993153066,-0.7681473288956241,-0.008912050165235996,-0.07893726229667664,0.00111685530282557,-0.0008339881896972656,0.006963014602661133,-0.0007281303405761719,XArbitraryZVertical,0.194965224488823,-0.6271599072361419,0.6646626585451718,0.3562059607954001,-0.7059683799743652,0.6948040127754211,-0.137318029999733,0,0,0,-1,-1,65617.57966775,unknown,2,2025-04-18T12:08:20.955+03:00,2025-04-17T15:44:39.500+03:00,7557,1.143429,0,0,6228.047,4,10,2025-04-18T12:06:19.732+03:00,766660103.6307706,0,108.13,100.5586,1,0.5,2025-04-18T12:08:20.795+03:00,108,1.8,2025-04-18T08:51:18.885+03:00,0.03057091307199995,1
2025-04-18T12:08:26.170+03:00,1744967304.970806,40.95359319739049,29.1409997789972,93.61648,-1,-1,-1,-1,30,23.79642844582683,-9999,65622.79110837501,-0.709075927734375,0.71148681640625,-0.1341094970703125,65622.78480337501,1.514520217927481,-1.379473541357296,-0.7680971766528215,-0.005375637672841549,-0.07318030297756195,-0.004644627682864666,-0.002202332019805908,0.01284325122833252,0.001926049590110779,XArbitraryZVertical,0.1952320650844488,-0.6272961587516005,0.6645729965152652,0.3559872549123524,-0.7061107754707336,0.6947678923606873,-0.1367679387331009,0,0,0,-1,-1,65617.57966775,unknown,2,2025-04-18T12:08:20.955+03:00,2025-04-17T15:44:39.500+03:00,7557,1.143429,0,0,6228.047,4,10,2025-04-18T12:06:19.732+03:00,766660103.6307706,0,108.13,100.5586,1,0.5,2025-04-18T12:08:20.795+03:00,108,1.8,2025-04-18T08:51:18.885+03:00,0.03057091307199995,1
2025-04-18T12:08:26.180+03:00,1744967304.970806,40.95359319739049,29.1409997789972,93.61648,-1,-1,-1,-1,30,23.79642844582683,-9999,65622.801184375,-0.708465576171875,0.713165283203125,-0.134521484375,65622.794878375,1.514448699834497,-1.38027270483834,-0.7679565574847214,-0.003267745953053236,-0.07916815578937531,-0.01577237993478775,-0.003080666065216064,0.01625555753707886,0.002082094550132751,XArbitraryZVertical,0.1955232180140186,-0.6274230009721431,0.6644660028680933,0.35580360094035,-0.706315815448761,0.6946668028831482,-0.1362220942974091,0,0,0,-1,-1,65617.57966775,unknown,2,2025-04-18T12:08:20.955+03:00,2025-04-17T15:44:39.500+03:00,7557,1.143429,0,0,6228.047,4,10,2025-04-18T12:06:19.732+03:00,766660103.6307706,0,108.13,100.5586,1,0.5,2025-04-18T12:08:20.795+03:00,108,1.8,2025-04-18T08:51:18.885+03:00,0.03057091307199995,1
2025-04-18T12:08:26.190+03:00,1744967304.970806,40.95359319739049,29.1409997789972,93.61648,-1,-1,-1,-1,30,23.79642844582683,-9999,65622.811259375,-0.7050933837890625,0.7160186767578125,-0.1318359375,65622.804953375,1.514415822602267,-1.381025333572044,-0.7677088472873007,0.0002582792658358812,-0.07007532566785812,-0.02732410654425621,-0.001832842826843262,0.01821905374526978,0.0004843324422836304,XArbitraryZVertical,0.1958475818517389,-0.627520729669893,0.6643579377278005,0.3556545973738954,-0.7065870761871338,0.6944885849952698,-0.1357229202985764,0,0,0,-1,-1,65617.57966775,unknown,2,2025-04-18T12:08:20.955+03:00,2025-04-17T15:44:39.500+03:00,7557,1.143429,0,0,6228.047,4,10,2025-04-18T12:06:19.732+03:00,766660103.6307706,0,108.13,100.5586,1,0.5,2025-04-18T12:08:20.795+03:00,108,1.8,2025-04-18T08:51:18.885+03:00,0.03057091307199995,1
2025-04-18T12:08:26.200+03:00,1744967304.970806,40.95359319739049,29.1409997789972,93.61648,-1,-1,-1,-1,30,23.79642844582683,-9999,65622.82133437501,-0.7071990966796875,0.71087646484375,-0.1302337646484375,65622.81502937501,1.514360078686861,-1.381706979115505,-0.7673524447523645,-0.002588639967143536,-0.06110686063766479,-0.04179039597511292,0.0006693005561828613,0.02200025320053101,0.002978861331939697,XArbitraryZVertical,0.1961782930221738,-0.6275907943129434,0.6642400341942319,0.3555688203520646,-0.7069224119186401,0.6942321062088013,-0.1352877467870712,0,0,0,-1,-1,65617.57966775,unknown,2,2025-04-18T12:08:20.955+03:00,2025-04-17T15:44:39.500+03:00,7557,1.143429,0,0,6228.047,4,10,2025-04-18T12:06:19.732+03:00,766660103.6307706,0,108.13,100.5586,1,0.5,2025-04-18T12:08:20.795+03:00,108,1.8,2025-04-18T08:51:18.885+03:00,0.03057091307199995,1
2025-04-18T12:08:26.210+03:00,1744967304.970806,40.95359319739049,29.1409997789972,93.61648,-1,-1,-1,-1,30,23.79642844582683,-9999,65622.831410375,-0.7059326171875,0.7062530517578125,-0.1292724609375,65622.82510437501,1.514143325810623,-1.382369956414732,-0.7668567913058246,-0.01372091937810183,-0.04681447893381119,-0.05842529982328415,0.001279771327972412,0.01826769113540649,0.004481971263885498,XArbitraryZVertical,0.1964997812372886,-0.6276512602161551,0.6640790355906651,0.3555851965855709,-0.7073497772216797,0.693875253200531,-0.1348834633827209,0,0,0,-1,-1,65617.57966775,unknown,2,2025-04-18T12:08:20.955+03:00,2025-04-17T15:44:39.500+03:00,7557,1.143429,0,0,6228.047,4,10,2025-04-18T12:06:19.732+03:00,766660103.6307706,0,108.13,100.5586,1,0.5,2025-04-18T12:08:20.795+03:00,108,1.8,2025-04-18T08:51:18.885+03:00,0.03057091307199995,1
2025-04-18T12:08:26.220+03:00,1744967304.970806,40.95359319739049,29.1409997789972,93.61648,-1,-1,-1,-1,30,23.79642844582683,-9999,65622.841485375,-0.702606201171875,0.70611572265625,-0.1286468505859375,65622.835179375,1.513791481366654,-1.382997778312499,-0.7662092729309589,-0.01468205451965332,-0.03464676067233086,-0.07776970416307449,0.0008442997932434082,0.01331722736358643,0.00526602566242218,XArbitraryZVertical,0.1968189592036289,-0.6276947494955646,0.6638796248753653,0.3557042220000276,-0.7078755497932434,0.6934088468551636,-0.1345231980085373,0,0,0,-1,-1,65617.57966775,unknown,2,2025-04-18T12:08:20.955+03:00,2025-04-17T15:44:39.500+03:00,7557,1.143429,0,0,6228.047,4,10,2025-04-18T12:06:19.732+03:00,766660106.2110678,0,108.12,100.5579,1,0.5,2025-04-18T12:08:20.795+03:00,108,1.8,2025-04-18T08:51:18.885+03:00,0.03057091307199995,1
2025-04-18T12:08:26.230+03:00,1744967304.970806,40.95359319739049,29.1409997789972,93.61648,-1,-1,-1,-1,30,23.79642844582683,-9999,65622.851560375,-0.701171875,0.7040557861328125,-0.13262939453125,65622.84525537501,1.513434052433459,-1.383520975421674,-0.7653940890043951,-0.006534378975629807,-0.0243254117667675,-0.08918694406747818,0.005070745944976807,0.0137065052986145,0.006557226181030273,XArbitraryZVertical,0.1971588056022985,-0.6276937100590916,0.6636697263122557,0.3559095204079458,-0.7085009813308716,0.692821204662323,-0.1342580169439316,0,0,0,-1,-1,65617.57966775,unknown,2,2025-04-18T12:08:20.955+03:00,2025-04-17T15:44:39.500+03:00,7557,1.143429,0,0,6228.047,4,10,2025-04-18T12:06:19.732+03:00,766660106.2110678,0,108.12,100.5579,1,0.5,2025-04-18T12:08:20.795+03:00,108,1.8,2025-04-18T08:51:18.885+03:00,0.03057091307199995,1
2025-04-18T12:08:26.241+03:00,1744967304.970806,40.95359319739049,29.1409997789972,93.61648,-1,-1,-1,-1,30,23.79642844582683,-9999,65622.861636375,-0.6978302001953125,0.6975860595703125,-0.136871337890625,65622.85533037501,1.513155256415565,-1.383899444094769,-0.7644946790801515,5.545327439904213e-06,-0.01617347821593285,-0.09935621917247772,0.007305026054382324,0.01231062412261963,0.002361252903938293,XArbitraryZVertical,0.1975040860416639,-0.6276458852507488,0.6634779179440319,0.3561596941134526,-0.7091635465621948,0.6921724081039429,-0.1341055631637573,0,0,0,-1,-1,65617.57966775,unknown,2,2025-04-18T12:08:20.955+03:00,2025-04-17T15:44:39.500+03:00,7557,1.143429,0,0,6228.047,4,10,2025-04-18T12:06:19.732+03:00,766660106.2110678,0,108.12,100.5579,1,0.5,2025-04-18T12:08:20.795+03:00,108,1.8,2025-04-18T08:51:18.885+03:00,0.03057091307199995,1
2025-04-18T12:08:26.250+03:00,1744967304.970806,40.95359319739049,29.1409997789972,93.61648,-1,-1,-1,-1,30,23.79642844582683,-9999,65622.871711375,-0.699066162109375,0.68634033203125,-0.13568115234375,65622.86540537501,1.512947082603042,-1.38419099514857,-0.7635388765786458,0.00594386225566268,-0.01155129540711641,-0.1003647595643997,0.01130509376525879,0.008789360523223877,-0.001735851168632507,XArbitraryZVertical,0.1978617739058254,-0.6275667104485464,0.6633003953691046,0.3564313118688849,-0.7098524570465088,0.6914822459220886,-0.1340214908123016,0,0,0,-1,-1,65617.57966775,unknown,2,2025-04-18T12:08:20.955+03:00,2025-04-17T15:44:39.500+03:00,7557,1.143429,0,0,6228.047,4,10,2025-04-18T12:06:19.732+03:00,766660106.2110678,0,108.12,100.5579,1,0.5,2025-04-18T12:08:20.795+03:00,108,1.8,2025-04-18T08:51:18.885+03:00,0.03057091307199995,1
2025-04-18T12:08:26.260+03:00,1744967304.970806,40.95359319739049,29.1409997789972,93.61648,-1,-1,-1,-1,30,23.79642844582683,-9999,65622.881786375,-0.703704833984375,0.674346923828125,-0.1350860595703125,65622.87548037501,1.51284632250909,-1.38435970074675,-0.7626055492399837,0.01238738000392914,-0.008653509430587292,-0.09341830015182495,0.01217526197433472,-0.001324057579040527,-0.002560004591941833,XArbitraryZVertical,0.1982046798065446,-0.6274585625822997,0.6631565306228879,0.3566989101731063,-0.7105090022087097,0.6908077001571655,-0.1340213119983673,0,0,0,-1,-1,65617.57966775,unknown,2,2025-04-18T12:08:20.955+03:00,2025-04-17T15:44:39.500+03:00,7557,1.143429,0,0,6228.047,4,10,2025-04-18T12:06:19.732+03:00,766660106.2110678,0,108.12,100.5579,1,0.5,2025-04-18T12:08:20.795+03:00,108,1.8,2025-04-18T08:51:18.885+03:00,0.03057091307199995,1
2025-04-18T12:08:26.271+03:00,1744967304.970806,40.95359319739049,29.1409997789972,93.61648,-1,-1,-1,-1,30,23.79642844582683,-9999,65622.89186237501,-0.7059478759765625,0.667510986328125,-0.1363983154296875,65622.88555637501,1.512796505950899,-1.384466609152997,-0.7617618636405855,0.01402469072490931,-0.009285210631787777,-0.08574307709932327,0.009237349033355713,-0.0137600302696228,-0.000956416130065918,XArbitraryZVertical,0.1985124433380146,-0.6273485192004828,0.663038175614765,0.3569413471196927,-0.711095929145813,0.6901974081993103,-0.1340532898902893,0,0,0,-1,-1,65617.57966775,unknown,2,2025-04-18T12:08:20.955+03:00,2025-04-17T15:44:39.500+03:00,7557,1.143429,0,0,6228.047,4,10,2025-04-18T12:06:19.732+03:00,766660106.2110678,0,108.12,100.5579,1,0.5,2025-04-18T12:08:20.795+03:00,108,1.8,2025-04-18T08:51:18.885+03:00,0.03057091307199995,1
2025-04-18T12:08:26.281+03:00,1744967304.970806,40.95359319739049,29.1409997789972,93.61648,-1,-1,-1,-1,30,23.79642844582683,-9999,65622.90193737501,-0.708953857421875,0.66033935546875,-0.1343994140625,65622.89563137501,1.512764078636472,-1.384599286520711,-0.761010677156341,0.006356319412589073,-0.0108067411929369,-0.07774030417203903,0.006148159503936768,-0.02017426490783691,-0.001626193523406982,XArbitraryZVertical,0.198802592562031,-0.6272559916262329,0.6629310648562347,0.3571414607177632,-0.7116230726242065,0.6896536946296692,-0.1340548992156982,0,0,0,-1,-1,65617.57966775,unknown,2,2025-04-18T12:08:20.955+03:00,2025-04-17T15:44:39.500+03:00,7557,1.143429,0,0,6228.047,4,10,2025-04-18T12:06:19.732+03:00,766660106.2110678,0,108.12,100.5579,1,0.5,2025-04-18T12:08:20.795+03:00,108,1.8,2025-04-18T08:51:18.885+03:00,0.03057091307199995,1
2025-04-18T12:08:26.302+03:00,1744967304.970806,40.95359319739049,29.1409997789972,93.61648,-1,-1,-1,-1,30,23.79642844582683,-9999,65622.912012375,-0.7161102294921875,0.651458740234375,-0.1328277587890625,65622.90570637501,1.512530120286413,-1.384871018812745,-0.7603658368261086,-0.01494577340781689,-0.00962110236287117,-0.06682560592889786,0.004317402839660645,-0.0262988805770874,-0.00141693651676178,XArbitraryZVertical,0.199039309353325,-0.6272252352673365,0.6627864730095649,0.357332008145052,-0.7120964527130127,0.6891865730285645,-0.1339437216520309,0,0,0,-1,-1,65617.57966775,unknown,2,2025-04-18T12:08:20.955+03:00,2025-04-17T15:44:39.500+03:00,7557,1.143429,0,0,6228.047,4,10,2025-04-18T12:06:19.732+03:00,766660106.2110678,0,108.12,100.5579,1,0.5,2025-04-18T12:08:20.795+03:00,108,1.8,2025-04-18T08:51:18.885+03:00,0.03057091307199995,1
2025-04-18T12:08:26.305+03:00,1744967304.970806,40.95359319739049,29.1409997789972,93.61648,-1,-1,-1,-1,30,23.79642844582683,-9999,65622.922087375,-0.717071533203125,0.6515655517578125,-0.1309967041015625,65622.915782375,1.511997109906665,-1.385325829143465,-0.7598573024316752,-0.03689435124397278,-0.008833205327391624,-0.05604453384876251,-0.00160980224609375,-0.03548234701156616,0.000414237380027771,XArbitraryZVertical,0.199196377564726,-0.6272787117528748,0.6625860619363071,0.3575222067146568,-0.7125016450881958,0.6888179779052734,-0.133684441447258,0,0,0,-1,-1,65617.57966775,unknown,2,2025-04-18T12:08:20.955+03:00,2025-04-17T15:44:39.500+03:00,7557,1.143429,0,0,6228.047,4,10,2025-04-18T12:06:19.732+03:00,766660106.2110678,0,108.12,100.5579,1,0.5,2025-04-18T12:08:20.795+03:00,108,1.8,2025-04-18T08:51:18.885+03:00,0.03057091307199995,1
2025-04-18T12:08:26.311+03:00,1744967304.970806,40.95359319739049,29.1409997789972,93.61648,-1,-1,-1,-1,30,23.79642844582683,-9999,65622.93216337501,-0.7147674560546875,0.658477783203125,-0.131317138671875,65622.925857375,1.511310130393509,-1.385868451206913,-0.7594913687387986,-0.04250989109277725,-0.003756954800337553,-0.04496658220887184,-0.004570245742797852,-0.0378415584564209,0.001767680048942566,XArbitraryZVertical,0.1992854875206259,-0.6273860219775579,0.6623659987702544,0.3576920179659319,-0.7128217816352844,0.6885526776313782,-0.1333441436290741,0,0,0,-1,-1,65617.57966775,unknown,2,2025-04-18T12:08:20.955+03:00,2025-04-17T15:44:39.500+03:00,7557,1.143429,0,0,6228.047,4,10,2025-04-18T12:06:19.732+03:00,766660106.2110678,0,108.12,100.5579,1,0.5,2025-04-18T12:08:20.795+03:00,108,1.8,2025-04-18T08:51:18.885+03:00,0.03057091307199995,1
2025-04-18T12:08:26.321+03:00,1744967304.970806,40.95359319739049,29.1409997789972,93.61648,-1,-1,-1,-1,30,23.79642844582683,-9999,65622.94223837501,-0.717193603515625,0.6638946533203125,-0.1328887939453125,65622.93593237501,1.510602338230623,-1.386375856718671,-0.7591908495606299,-0.04328899830579758,-0.001177017111331224,-0.03930516913533211,-0.001751184463500977,-0.03094023466110229,0.002084717154502869,XArbitraryZVertical,0.19933402465711,-0.627499611081224,0.6621532798464023,0.357859460104245,-0.7130926847457886,0.6883347034454346,-0.1330203711986542,0,0,0,-1,-1,65617.57966775,unknown,2,2025-04-18T12:08:20.955+03:00,2025-04-17T15:44:39.500+03:00,7557,1.143429,0,0,6228.047,4,10,2025-04-18T12:06:19.732+03:00,766660106.2110678,0,108.12,100.5579,1,0.5,2025-04-18T12:08:20.795+03:00,108,1.8,2025-04-18T08:51:18.885+03:00,0.03057091307199995,1
2025-04-18T12:08:26.331+03:00,1744967304.970806,40.95359319739049,29.1409997789972,93.61648,-1,-1,-1,-1,30,23.79642844582683,-9999,65622.952313375,-0.71612548828125,0.6658172607421875,-0.137725830078125,65622.946008375,1.509960743491293,-1.38676779686205,-0.7589263486191211,-0.03665826097130775,0.01022930163890123,-0.03862979263067245,-0.003213822841644287,-0.02543830871582031,0.0004652738571166992,XArbitraryZVertical,0.1993527425879637,-0.6275917464095373,0.6619680458510981,0.3580300302515933,-0.7133236527442932,0.6881428360939026,-0.1327741742134094,0,0,0,-1,-1,65617.57966775,unknown,2,2025-04-18T12:08:20.955+03:00,2025-04-17T15:44:39.500+03:00,7557,1.143429,0,0,6228.047,4,10,2025-04-18T12:06:19.732+03:00,766660106.2110678,0,108.12,100.5579,1,0.5,2025-04-18T12:08:20.795+03:00,108,1.8,2025-04-18T08:51:18.885+03:00,0.03057091307199995,1
2025-04-18T12:08:26.341+03:00,1744967304.970806,40.95359319739049,29.1409997789972,93.61648,-1,-1,-1,-1,30,23.79642844582683,-9999,65622.96238937501,-0.718292236328125,0.674530029296875,-0.147796630859375,65622.956083375,1.509537065282521,-1.386856134299134,-0.7586137351751708,-0.008534746244549751,0.02608123607933521,-0.04054939746856689,-0.0030517578125,-0.02351778745651245,-0.003342553973197937,XArbitraryZVertical,0.1993557540780413,-0.6276002279908952,0.6618462766441995,0.3582384167633996,-0.7135467529296875,0.6879159808158875,-0.1327504813671112,0,0,0,-1,-1,65617.57966775,unknown,2,2025-04-18T12:08:20.955+03:00,2025-04-17T15:44:39.500+03:00,7557,1.143429,0,0,6228.047,4,10,2025-04-18T12:06:19.732+03:00,766660106.2110678,0,108.12,100.5579,1,0.5,2025-04-18T12:08:20.795+03:00,108,1.8,2025-04-18T08:51:18.885+03:00,0.03057091307199995,1
2025-04-18T12:08:26.351+03:00,1744967304.970806,40.95359319739049,29.1409997789972,93.61648,-1,-1,-1,-1,30,23.79642844582683,-9999,65622.97246437501,-0.717864990234375,0.6849822998046875,-0.166748046875,65622.966158375,1.509569822154898,-1.386526925198995,-0.7581595288610944,0.03126246854662895,0.0332920104265213,-0.04468555375933647,-0.0035819411277771,-0.01571124792098999,-0.01141230762004852,XArbitraryZVertical,0.1994121379027446,-0.6274659388011561,0.6618310370536589,0.3584702219898704,-0.7138099670410156,0.68758624792099,-0.1330425888299942,0,0,0,-1,-1,65617.57966775,unknown,2,2025-04-18T12:08:20.955+03:00,2025-04-17T15:44:39.500+03:00,7557,1.143429,0,0,6228.047,4,10,2025-04-18T12:06:19.732+03:00,766660106.2110678,0,108.12,100.5579,1,0.5,2025-04-18T12:08:20.795+03:00,108,1.8,2025-04-18T08:51:18.885+03:00,0.03057091307199995,1
2025-04-18T12:08:26.361+03:00,1744967304.970806,40.95359319739049,29.1409997789972,93.61648,-1,-1,-1,-1,30,23.79642844582683,-9999,65622.98253937501,-0.716796875,0.6878509521484375,-0.183074951171875,65622.976234375,1.510140689618304,-1.385749882891004,-0.7575538576787406,0.07001952081918716,0.0391869843006134,-0.05048828199505806,-0.004161238670349121,-0.004498600959777832,-0.02825236320495605,XArbitraryZVertical,0.199540655802774,-0.6271735052037622,0.6619390411978997,0.358711168669212,-0.7141157984733582,0.6871463060379028,-0.1336738467216492,0,0,0,-1,-1,65617.57966775,unknown,2,2025-04-18T12:08:20.955+03:00,2025-04-17T15:44:39.500+03:00,7557,1.143429,0,0,6228.047,4,10,2025-04-18T12:06:19.732+03:00,766660106.2110678,0,108.12,100.5579,1,0.5,2025-04-18T12:08:20.795+03:00,108,1.8,2025-04-18T08:51:18.885+03:00,0.03057091307199995,1
2025-04-18T12:08:26.371+03:00,1744967304.970806,40.95359319739049,29.1409997789972,93.61648,-1,-1,-1,-1,30,23.79642844582683,-9999,65622.992615375,-0.7196044921875,0.6844329833984375,-0.187469482421875,65622.986309375,1.511169274143447,-1.384629561648104,-0.7568399920723727,0.09626763314008713,0.04211059957742691,-0.04826560616493225,-0.002364814281463623,0.0006282925605773926,-0.0449092835187912,XArbitraryZVertical,0.1997358763756956,-0.6267561838915319,0.6621508205540928,0.3589408267134793,-0.7144473195075989,0.6866275072097778,-0.134564533829689,0,0,0,-1,-1,65617.57966775,unknown,2,2025-04-18T12:08:20.955+03:00,2025-04-17T15:44:39.500+03:00,7557,1.143429,0,0,6228.047,4,10,2025-04-18T12:06:19.732+03:00,766660106.2110678,0,108.12,100.5579,1,0.5,2025-04-18T12:08:20.795+03:00,108,1.8,2025-04-18T08:51:18.885+03:00,0.03057091307199995,1
2025-04-18T12:08:26.381+03:00,1744967304.970806,40.95359319739049,29.1409997789972,93.61648,-1,-1,-1,-1,30,23.79642844582683,-9999,65623.002690375,-0.7224578857421875,0.677032470703125,-0.18896484375,65622.996384375,1.512415844828998,-1.383368578824713,-0.7560967922242879,0.1004934012889862,0.0401541106402874,-0.0451861284673214,-0.003986895084381104,-0.00101315975189209,-0.0517868846654892,XArbitraryZVertical,0.1999623052767245,-0.6262865753835321,0.66241276077553,0.3591512405204381,-0.7147783637046814,0.6860870122909546,-0.1355604082345963,0,0,0,-1,-1,65617.57966775,unknown,2,2025-04-18T12:08:20.955+03:00,2025-04-17T15:44:39.500+03:00,7557,1.143429,0,0,6228.047,4,10,2025-04-18T12:06:19.732+03:00,766660106.2110678,0,108.12,100.5579,1,0.5,2025-04-18T12:08:20.795+03:00,108,1.8,2025-04-18T08:51:18.885+03:00,0.03057091307199995,1
2025-04-18T12:08:26.392+03:00,1744967304.970806,40.95359319739049,29.1409997789972,93.61648,-1,-1,-1,-1,30,23.79642844582683,-9999,65623.01276537501,-0.7288360595703125,0.6634979248046875,-0.1826324462890625,65623.00646037501,1.513469582610747,-1.382245414578039,-0.7553986173455465,0.0694635808467865,0.04216958954930305,-0.04110749438405037,-0.007194101810455322,-0.006623804569244385,-0.05238986015319824,XArbitraryZVertical,0.2001582499173981,-0.6258675854820179,0.6626320344216275,0.3593679178299301,-0.7150959968566895,0.6855789422988892,-0.1364528834819794,0,0,0,-1,-1,65617.57966775,unknown,2,2025-04-18T12:08:20.955+03:00,2025-04-17T15:44:39.500+03:00,7557,1.143429,0,0,6228.047,4,10,2025-04-18T12:06:19.732+03:00,766660106.2110678,0,108.12,100.5579,1,0.5,2025-04-18T12:08:20.795+03:00,108,1.8,2025-04-18T08:51:18.885+03:00,0.03057091307199995,1
2025-04-18T12:08:26.402+03:00,1744967304.970806,40.95359319739049,29.1409997789972,93.61648,-1,-1,-1,-1,30,23.79642844582683,-9999,65623.022841375,-0.733673095703125,0.6589813232421875,-0.1802978515625,65623.01653537501,1.51411705436087,-1.381404624428762,-0.754882802356435,0.04216977953910828,0.03730306401848793,-0.0301011186093092,-0.01184457540512085,-0.01843994855880737,-0.04680871963500977,XArbitraryZVertical,0.2002581134698245,-0.6255688320646573,0.662771835934712,0.3595746807061534,-0.7153282761573792,0.6852033138275146,-0.1371206492185593,0,0,0,-1,-1,65617.57966775,unknown,2,2025-04-18T12:08:20.955+03:00,2025-04-17T15:44:39.500+03:00,7557,1.143429,0,0,6228.047,4,10,2025-04-18T12:06:19.732+03:00,766660106.2110678,0,108.12,100.5579,1,0.5,2025-04-18T12:08:20.795+03:00,108,1.8,2025-04-18T08:51:18.885+03:00,0.03057091307199995,1
2025-04-18T12:08:26.412+03:00,1744967304.970806,40.95359319739049,29.1409997789972,93.61648,-1,-1,-1,-1,30,23.79642844582683,-9999,65623.032916375,-0.737060546875,0.661956787109375,-0.1797637939453125,65623.026610375,1.514428564679934,-1.380812059348092,-0.7545518505337222,0.01618877612054348,0.04058168083429337,-0.01788573153316975,-0.01705920696258545,-0.02624028921127319,-0.04278671741485596,XArbitraryZVertical,0.2002720360112292,-0.625377850146003,0.6628482541180947,0.3597581813911279,-0.7154695391654968,0.6849622130393982,-0.137587308883667,0,0,0,-1,-1,65617.57966775,unknown,2,2025-04-18T12:08:20.955+03:00,2025-04-17T15:44:39.500+03:00,7557,1.143429,0,0,6228.047,4,10,2025-04-18T12:06:19.732+03:00,766660106.2110678,0,108.12,100.5579,1,0.5,2025-04-18T12:08:20.795+03:00,108,1.8,2025-04-18T08:51:18.885+03:00,0.03057091307199995,1
2025-04-18T12:08:26.422+03:00,1744967304.970806,40.95359319739049,29.1409997789972,93.61648,-1,-1,-1,-1,30,23.79642844582683,-9999,65623.042991375,-0.74127197265625,0.6640777587890625,-0.1799468994140625,65623.03668637501,1.51452177022227,-1.380335767569188,-0.75435128797531,0.00750833610072732,0.04295841977000237,-0.01163642387837172,-0.02072834968566895,-0.02353066205978394,-0.04214531183242798,XArbitraryZVertical,0.200211727083272,-0.6252505338978831,0.662889129873563,0.3599376541213908,-0.7155387997627258,0.6848160624504089,-0.1379540711641312,0,0,0,-1,-1,65617.57966775,unknown,2,2025-04-18T12:08:20.955+03:00,2025-04-17T15:44:39.500+03:00,7557,1.143429,0,0,6228.047,4,10,2025-04-18T12:06:19.732+03:00,766660106.2110678,0,108.12,100.5579,1,0.5,2025-04-18T12:08:20.795+03:00,108,1.8,2025-04-18T08:51:18.885+03:00,0.03057091307199995,1
2025-04-18T12:08:26.432+03:00,1744967304.970806,40.95359319739049,29.1409997789972,93.61648,-1,-1,-1,-1,30,23.79642844582683,-9999,65623.053067375,-0.7358551025390625,0.6771392822265625,-0.1907958984375,65623.04676137501,1.514780994697999,-1.379732969672981,-0.7541976914831536,0.03871579095721245,0.04034026712179184,-0.005207020789384842,-0.02531647682189941,-0.02203011512756348,-0.04070223867893219,XArbitraryZVertical,0.2001452875291369,-0.6250913386979686,0.6629780930380166,0.3600873632596951,-0.7155588865280151,0.6847041249275208,-0.138405367732048,0,0,0,-1,-1,65617.57966775,unknown,2,2025-04-18T12:08:20.955+03:00,2025-04-17T15:44:39.500+03:00,7557,1.143429,0,0,6228.047,4,10,2025-04-18T12:06:19.732+03:00,766660106.2110678,0,108.12,100.5579,1,0.5,2025-04-18T12:08:20.795+03:00,108,1.8,2025-04-18T08:51:18.885+03:00,0.03057091307199995,1
2025-04-18T12:08:26.442+03:00,1744967304.970806,40.95359319739049,29.1409997789972,93.61648,-1,-1,-1,-1,30,23.79642844582683,-9999,65623.063142375,-0.728912353515625,0.6949615478515625,-0.215057373046875,65623.05683637501,1.51577272160245,-1.37861807024293,-0.7539855404791475,0.1061899736523628,0.03856427222490311,-0.005597273353487253,-0.02319240570068359,-0.01174360513687134,-0.04733832180500031,XArbitraryZVertical,0.2001578535457637,-0.6247570992324957,0.6632433684689357,0.3601719573501,-0.715546727180481,0.6845495104789734,-0.13923080265522,0,0,0,-1,-1,65617.57966775,unknown,2,2025-04-18T12:08:20.955+03:00,2025-04-17T15:44:39.500+03:00,7557,1.143429,0,0,6228.047,4,10,2025-04-18T12:06:19.732+03:00,766660106.2110678,0,108.12,100.5579,1,0.5,2025-04-18T12:08:20.795+03:00,108,1.8,2025-04-18T08:51:18.885+03:00,0.03057091307199995,1
2025-04-18T12:08:26.452+03:00,1744967304.970806,40.95359319739049,29.1409997789972,93.61648,-1,-1,-1,-1,30,23.79642844582683,-9999,65623.073217375,-0.7292938232421875,0.70843505859375,-0.236785888671875,65623.066912375,1.517813329795591,-1.376822002784466,-0.7536400670305472,0.1853180676698685,0.03456047177314758,-0.00536877429112792,-0.01472777128219604,0.005979478359222412,-0.06759905815124512,XArbitraryZVertical,0.2003169940153396,-0.624173412668741,0.6637502987980484,0.3601615136113918,-0.7155274152755737,0.6842976212501526,-0.1405613124370575,0,0,0,-1,-1,65617.57966775,unknown,2,2025-04-18T12:08:20.955+03:00,2025-04-17T15:44:39.500+03:00,7557,1.143429,0,0,6228.047,4,10,2025-04-18T12:06:19.732+03:00,766660106.2110678,0,108.12,100.5579,1,0.5,2025-04-18T12:08:20.795+03:00,108,1.8,2025-04-18T08:51:18.885+03:00,0.03057091307199995,1
2025-04-18T12:08:26.462+03:00,1744967304.970806,40.95359319739049,29.1409997789972,93.61648,-1,-1,-1,-1,30,23.79642844582683,-9999,65623.08329337501,-0.73406982421875,0.7153472900390625,-0.2507476806640625,65623.07698737501,1.520987767084866,-1.37419071329967,-0.75313029092336,0.2732132375240326,0.04796303063631058,-0.001653298386372626,-0.01311010122299194,0.0212286114692688,-0.08986431360244751,XArbitraryZVertical,0.2006069972261892,-0.6232984686549428,0.6645264356394929,0.3600841588549707,-0.7154971361160278,0.6839258074760437,-0.142511710524559,0,0,0,-1,-1,65617.57966775,unknown,2,2025-04-18T12:08:20.955+03:00,2025-04-17T15:44:39.500+03:00,7557,1.143429,0,0,6228.047,4,10,2025-04-18T12:06:19.732+03:00,766660106.2110678,0,108.12,100.5579,1,0.5,2025-04-18T12:08:20.795+03:00,108,1.8,2025-04-18T08:51:18.885+03:00,0.03057091307199995,1
2025-04-18T12:08:26.472+03:00,1744967304.970806,40.95359319739049,29.1409997789972,93.61648,-1,-1,-1,-1,30,23.79642844582683,-9999,65623.093368375,-0.739837646484375,0.724212646484375,-0.274993896484375,65623.08706237501,1.525415417637961,-1.370596668464011,-0.7524378562683318,0.3718119859695435,0.05639433488249779,-0.004717797972261906,-0.01732867956161499,0.02948540449142456,-0.1019395589828491,XArbitraryZVertical,0.2010263347754663,-0.6220933938346623,0.6656046094379097,0.359942830429459,-0.7154442071914673,0.6834204792976379,-0.1451764404773712,0,0,0,-1,-1,65617.57966775,unknown,2,2025-04-18T12:08:20.955+03:00,2025-04-17T15:44:39.500+03:00,7557,1.143429,0,0,6228.047,4,10,2025-04-18T12:06:19.732+03:00,766660106.2110678,0,108.12,100.5579,1,0.5,2025-04-18T12:08:20.795+03:00,108,1.8,2025-04-18T08:51:18.885+03:00,0.03057091307199995,1
2025-04-18T12:08:26.482+03:00,1744967304.970806,40.95359319739049,29.1409997789972,93.61648,-1,-1,-1,-1,30,23.79642844582683,-9999,65623.103443375,-0.7437744140625,0.72674560546875,-0.307525634765625,65623.097138375,1.530974027455319,-1.366185735985715,-0.7515143196054443,0.4409990608692169,0.05944977700710297,-0.01011242996901274,-0.02350753545761108,0.03913211822509766,-0.1187986135482788,XArbitraryZVertical,0.2015982416182367,-0.6205873497644349,0.6669436207366788,0.3597441080380949,-0.7154145836830139,0.6827459931373596,-0.1484589874744415,0,0,0,-1,-1,65617.57966775,unknown,2,2025-04-18T12:08:20.955+03:00,2025-04-17T15:44:39.500+03:00,7557,1.143429,0,0,6228.047,4,10,2025-04-18T12:06:19.732+03:00,766660106.2110678,0,108.12,100.5579,1,0.5,2025-04-18T12:08:20.795+03:00,108,1.8,2025-04-18T08:51:18.885+03:00,0.03057091307199995,1
2025-04-18T12:08:26.492+03:00,1744967304.970806,40.95359319739049,29.1409997789972,93.61648,-1,-1,-1,-1,30,23.79642844582683,-9999,65623.11351937501,-0.757965087890625,0.7059478759765625,-0.3195343017578125,65623.107213375,1.537005238262913,-1.361392753106158,-0.7504097211583105,0.4469666481018066,0.07141163200139999,-0.02159944176673889,-0.02674025297164917,0.04643982648849487,-0.1484636068344116,XArbitraryZVertical,0.2022429628777772,-0.61893160538754,0.6683880395624636,0.359553853976008,-0.7154320478439331,0.6819384694099426,-0.1520429104566574,0,0,0,-1,-1,65617.57966775,unknown,2,2025-04-18T12:08:20.955+03:00,2025-04-17T15:44:39.500+03:00,7557,1.143429,0,0,6228.047,4,10,2025-04-18T12:06:19.732+03:00,766660106.2110678,0,108.12,100.5579,1,0.5,2025-04-18T12:08:20.795+03:00,108,1.8,2025-04-18T08:51:18.885+03:00,0.03057091307199995,1
2025-04-18T12:08:26.502+03:00,1744967304.970806,40.95359319739049,29.1409997789972,93.61648,-1,-1,-1,-1,30,23.79642844582683,-9999,65623.12359437501,-0.7764434814453125,0.6767730712890625,-0.3152618408203125,65623.117288375,1.542652138743471,-1.356754620930241,-0.7492457064329957,0.3939512968063354,0.08324239403009415,-0.0276283398270607,-0.03746592998504639,0.03264319896697998,-0.1632279604673386,XArbitraryZVertical,0.2028323361103425,-0.6173289533759176,0.6697438137977545,0.3594541187149324,-0.7154942750930786,0.6810866594314575,-0.1555280089378357,0,0,0,-1,-1,65617.57966775,unknown,2,2025-04-18T12:08:20.955+03:00,2025-04-17T15:44:39.500+03:00,7557,1.143429,0,0,6228.047,4,10,2025-04-18T12:06:19.732+03:00,766660106.2110678,0,108.12,100.5579,1,0.5,2025-04-18T12:08:20.795+03:00,108,1.8,2025-04-18T08:51:18.885+03:00,0.03057091307199995,1
2025-04-18T12:08:26.512+03:00,1744967304.970806,40.95359319739049,29.1409997789972,93.61648,-1,-1,-1,-1,30,23.79642844582683,-9999,65623.13366937501,-0.791259765625,0.657928466796875,-0.31500244140625,65623.127364375,1.547476494406376,-1.352518150705885,-0.7481892813562026,0.3347620069980621,0.1038097217679024,-0.02341095730662346,-0.05615180730819702,0.003280997276306152,-0.1579825878143311,XArbitraryZVertical,0.203258637826235,-0.615897049545132,0.6709253996941317,0.3594661196436474,-0.7155309915542603,0.6803127527236938,-0.1587135046720505,0,0,0,-1,-1,65617.57966775,unknown,2,2025-04-18T12:08:20.955+03:00,2025-04-17T15:44:39.500+03:00,7557,1.143429,0,0,6228.047,4,10,2025-04-18T12:06:19.732+03:00,766660106.2110678,0,108.12,100.5579,1,0.5,2025-04-18T12:08:20.795+03:00,108,1.8,2025-04-18T08:51:18.885+03:00,0.03057091307199995,1
2025-04-18T12:08:26.522+03:00,1744967304.970806,40.95359319739049,29.1409997789972,93.61648,-1,-1,-1,-1,30,23.79642844582683,-9999,65623.143745375,-0.7980804443359375,0.654998779296875,-0.3193206787109375,65623.137439375,1.551601091743163,-1.348632374660645,-0.7472905538126721,0.2928468286991119,0.1052464991807938,-0.01661337167024612,-0.07342010736465454,-0.01871925592422485,-0.15297831594944,XArbitraryZVertical,0.2035279730459927,-0.614624010977421,0.6719647495961227,0.3595514371522258,-0.7155051231384277,0.6796537637710571,-0.1616273820400238,0,0,0,-1,-1,65617.57966775,unknown,2,2025-04-18T12:08:20.955+03:00,2025-04-17T15:44:39.500+03:00,7557,1.143429,0,0,6228.047,4,10,2025-04-18T12:06:19.732+03:00,766660106.2110678,0,108.12,100.5579,1,0.5,2025-04-18T12:08:20.795+03:00,108,1.8,2025-04-18T08:51:18.885+03:00,0.03057091307199995,1
2025-04-18T12:08:26.533+03:00,1744967304.970806,40.95359319739049,29.1409997789972,93.61648,-1,-1,-1,-1,30,23.79642844582683,-9999,65623.15382037501,-0.7960205078125,0.655975341796875,-0.3266754150390625,65623.147514375,1.555283336904136,-1.345151207473842,-0.7465189007492268,0.2583125531673431,0.08542618900537491,-0.01367590576410294,-0.08249419927597046,-0.02389043569564819,-0.154246911406517,XArbitraryZVertical,0.203749976801128,-0.6134889779263796,0.6728985535688168,0.3596175580564716,-0.7154489159584045,0.6790875792503357,-0.1642344444990158,0,0,0,-1,-1,65617.57966775,unknown,2,2025-04-18T12:08:20.955+03:00,2025-04-17T15:44:39.500+03:00,7557,1.143429,0,0,6228.047,4,10,2025-04-18T12:06:19.732+03:00,766660106.2110678,0,108.12,100.5579,1,0.5,2025-04-18T12:08:20.795+03:00,108,1.8,2025-04-18T08:51:18.885+03:00,0.03057091307199995,1
2025-04-18T12:08:26.543+03:00,1744967304.970806,40.95359319739049,29.1409997789972,93.61648,-1,-1,-1,-1,30,23.79642844582683,-9999,65623.16389537501,-0.7931060791015625,0.6625823974609375,-0.3246917724609375,65623.15759037501,1.558249380160517,-1.342448647926904,-0.7459331155591282,0.1829025894403458,0.03934004902839661,0.0008983095758594573,-0.08189713954925537,-0.0221174955368042,-0.1585410833358765,XArbitraryZVertical,0.2039479824670407,-0.612598164148231,0.673645126896957,0.3596262564500454,-0.7153899073600769,0.6786574125289917,-0.1662574261426926,0,0,0,-1,-1,65617.57966775,unknown,2,2025-04-18T12:08:20.955+03:00,2025-04-17T15:44:39.500+03:00,7557,1.143429,0,0,6228.047,4,10,2025-04-18T12:06:19.732+03:00,766660106.2110678,0,108.12,100.5579,1,0.5,2025-04-18T12:08:20.795+03:00,108,1.8,2025-04-18T08:51:18.885+03:00,0.03057091307199995,1
2025-04-18T12:08:26.553+03:00,1744967304.970806,40.95359319739049,29.1409997789972,93.61648,-1,-1,-1,-1,30,23.79642844582683,-9999,65623.173971375,-0.7715911865234375,0.686126708984375,-0.3098297119140625,65623.167665375,1.560557160495481,-1.340852011692068,-0.7456288641576405,0.1700355261564255,-0.02918201871216297,0.01364659518003464,-0.08028393983840942,-0.01957458257675171,-0.1608310490846634,XArbitraryZVertical,0.2042196095604706,-0.6120221384694979,0.6741908151828189,0.359430375967207,-0.7153246402740479,0.6784339547157288,-0.1674465090036392,0,0,0,-1,-1,65617.57966775,unknown,2,2025-04-18T12:08:20.955+03:00,2025-04-17T15:44:39.500+03:00,7557,1.143429,0,0,6228.047,4,10,2025-04-18T12:06:19.732+03:00,766660106.2110678,0,108.12,100.5579,1,0.5,2025-04-18T12:08:20.795+03:00,108,1.8,2025-04-18T08:51:18.885+03:00,0.03057091307199995,1
2025-04-18T12:08:26.563+03:00,1744967304.970806,40.95359319739049,29.1409997789972,93.61648,-1,-1,-1,-1,30,23.79642844582683,-9999,65623.184046375,-0.775909423828125,0.7018585205078125,-0.313201904296875,65623.177740375,1.563067724189122,-1.339595579236128,-0.7453764533531096,0.1942510455846786,-0.06110513210296631,0.02123723737895489,-0.06210929155349731,0.001820504665374756,-0.1437188982963562,XArbitraryZVertical,0.2046493963099943,-0.6114952610869429,0.6747436829325854,0.3590448910630969,-0.715280294418335,0.6782484650611877,-0.1683843433856964,0,0,0,-1,-1,65617.57966775,unknown,2,2025-04-18T12:08:20.955+03:00,2025-04-17T15:44:39.500+03:00,7557,1.143429,0,0,6228.047,4,10,2025-04-18T12:06:19.732+03:00,766660106.2110678,0,108.12,100.5579,1,0.5,2025-04-18T12:08:20.795+03:00,108,1.8,2025-04-18T08:51:18.885+03:00,0.03057091307199995,1
2025-04-18T12:08:26.573+03:00,1744967304.970806,40.95359319739049,29.1409997789972,93.61648,-1,-1,-1,-1,30,23.79642844582683,-9999,65623.19412137501,-0.8136138916015625,0.707122802734375,-0.3137969970703125,65623.18781637501,1.566006434876807,-1.338384378024388,-0.7449188924561664,0.2331651598215103,-0.09281938523054123,-0.01612824387848377,-0.05426031351089478,0.02057421207427979,-0.1425522714853287,XArbitraryZVertical,0.2052935563091264,-0.6108956783601379,0.6753472694370474,0.3585628116588849,-0.7153778076171875,0.677912175655365,-0.1693220585584641,0,0,0,-1,-1,65617.57966775,unknown,2,2025-04-18T12:08:20.955+03:00,2025-04-17T15:44:39.500+03:00,7557,1.143429,0,0,6228.047,4,10,2025-04-18T12:06:19.732+03:00,766660106.2110678,0,108.12,100.5579,1,0.5,2025-04-18T12:08:20.795+03:00,108,1.8,2025-04-18T08:51:18.885+03:00,0.03057091307199995,1
2025-04-18T12:08:26.583+03:00,1744967304.970806,40.95359319739049,29.1409997789972,93.61648,-1,-1,-1,-1,30,23.79642844582683,-9999,65623.204197375,-0.8419952392578125,0.687286376953125,-0.306549072265625,65623.19789137501,1.569056262582077,-1.337236652586329,-0.7445261638852936,0.2094058394432068,-0.1055449694395065,0.0338691771030426,-0.08787244558334351,0.03047597408294678,-0.144019603729248,XArbitraryZVertical,0.2059699042596118,-0.6103065756928323,0.6759708346514032,0.358002466658882,-0.7154418230056763,0.677623450756073,-0.1702045649290085,0,0,0,-1,-1,65617.57966775,unknown,2,2025-04-18T12:08:20.955+03:00,2025-04-17T15:44:39.500+03:00,7557,1.143429,0,0,6228.047,4,10,2025-04-18T12:06:19.732+03:00,766660106.2110678,0,108.12,100.5579,1,0.5,2025-04-18T12:08:20.795+03:00,108,1.8,2025-04-18T08:51:18.885+03:00,0.03057091307199995,1
2025-04-18T12:08:26.593+03:00,1744967304.970806,40.95359319739049,29.1409997789972,93.61648,-1,-1,-1,-1,30,23.79642844582683,-9999,65623.214272375,-0.8253021240234375,0.6691741943359375,-0.2779998779296875,65623.207966375,1.571670728693661,-1.336679122150943,-0.7443063724983581,0.1763951480388641,-0.1350533217191696,0.0116869080811739,-0.1237112879753113,0.01653850078582764,-0.1389322876930237,XArbitraryZVertical,0.2066532771927713,-0.6098978942526571,0.6764732142969814,0.35735559005808,-0.7154916524887085,0.6774617433547974,-0.1706379652023315,0,0,0,-1,-1,65617.57966775,unknown,2,2025-04-18T12:08:20.955+03:00,2025-04-17T15:44:39.500+03:00,7557,1.143429,0,0,6228.047,4,10,2025-04-18T12:06:19.732+03:00,766660106.2110678,0,108.12,100.5579,1,0.5,2025-04-18T12:08:20.795+03:00,108,1.8,2025-04-18T08:51:18.885+03:00,0.03057091307199995,1
2025-04-18T12:08:26.603+03:00,1744967304.970806,40.95359319739049,29.1409997789972,93.61648,-1,-1,-1,-1,30,23.79642844582683,-9999,65623.224347375,-0.81298828125,0.688262939453125,-0.24456787109375,65623.21804237501,1.574065283441719,-1.336582731695327,-0.7440240541453069,0.1836675107479095,-0.1655304878950119,0.01489272154867649,-0.1151036024093628,-0.005485892295837402,-0.116007074713707,XArbitraryZVertical,0.2074461303419676,-0.6095821971204582,0.6768815753116224,0.3566608685089669,-0.7156611680984497,0.6772540807723999,-0.1707512885332108,0,0,0,-1,-1,65617.57966775,unknown,2,2025-04-18T12:08:20.955+03:00,2025-04-17T15:44:39.500+03:00,7557,1.143429,0,0,6228.047,4,10,2025-04-18T12:06:19.732+03:00,766660106.2110678,0,108.12,100.5579,1,0.5,2025-04-18T12:08:20.795+03:00,108,1.8,2025-04-18T08:51:18.885+03:00,0.03057091307199995,1
2025-04-18T12:08:26.613+03:00,1744967304.970806,40.95359319739049,29.1409997789972,93.61648,-1,-1,-1,-1,30,23.79642844582683,-9999,65623.234423375,-0.7969512939453125,0.7235107421875,-0.2166900634765625,65623.22811737501,1.576822833261939,-1.336550556705244,-0.7436267674937544,0.2274970263242722,-0.1987435668706894,-0.001925939461216331,-0.09931391477584839,0.002268075942993164,-0.08169609308242798,XArbitraryZVertical,0.2084095815439277,-0.6092183925639718,0.6773353989429998,0.3558584972932862,-0.7159174680709839,0.6769617199897766,-0.1708367913961411,0,0,0,-1,-1,65617.57966775,unknown,2,2025-04-18T12:08:20.955+03:00,2025-04-17T15:44:39.500+03:00,7557,1.143429,0,0,6228.047,4,10,2025-04-18T12:06:19.732+03:00,766660106.2110678,0,108.12,100.5579,1,0.5,2025-04-18T12:08:20.795+03:00,108,1.8,2025-04-18T08:51:18.885+03:00,0.03057091307199995,1
2025-04-18T12:08:26.623+03:00,1744967304.970806,40.95359319739049,29.1409997789972,93.61648,-1,-1,-1,-1,30,23.79642844582683,-9999,65623.244498375,-0.7766571044921875,0.73876953125,-0.1829376220703125,65623.23819237501,1.579807555388456,-1.336680937318888,-0.7429527907736947,0.2171168923377991,-0.2282417118549347,-0.02510446310043335,-0.08509981632232666,0.04056030511856079,-0.05299711227416992,XArbitraryZVertical,0.2095900466266923,-0.6088081687370112,0.6777833262119315,0.3550133739625487,-0.7163833379745483,0.6764655113220215,-0.1708492487668991,0,0,0,-1,-1,65617.57966775,unknown,2,2025-04-18T12:08:20.955+03:00,2025-04-17T15:44:39.500+03:00,7557,1.143429,0,0,6228.047,4,10,2025-04-18T12:06:19.732+03:00,766660106.2110678,0,108.12,100.5579,1,0.5,2025-04-18T12:08:20.795+03:00,108,1.8,2025-04-18T08:51:18.885+03:00,0.03057091307199995,1
2025-04-18T12:08:26.633+03:00,1744967304.970806,40.95359319739049,29.1409997789972,93.61648,-1,-1,-1,-1,30,23.79642844582683,-9999,65623.254573375,-0.7547454833984375,0.73712158203125,-0.146087646484375,65623.248268375,1.582151256042883,-1.337508789851446,-0.7421481438944267,0.1466736197471619,-0.2529624998569489,-0.05563307553529739,-0.06476086378097534,0.05999761819839478,-0.02107004821300507,XArbitraryZVertical,0.2108552776353236,-0.6085631567055042,0.6780297614766463,0.3542125534350007,-0.7170537114143372,0.6758726835250854,-0.1703818738460541,0,0,0,-1,-1,65617.57966775,unknown,2,2025-04-18T12:08:20.955+03:00,2025-04-17T15:44:39.500+03:00,7557,1.143429,0,0,6228.047,4,10,2025-04-18T12:06:19.732+03:00,766660106.2110678,0,108.12,100.5579,1,0.5,2025-04-18T12:08:20.795+03:00,108,1.8,2025-04-18T08:51:18.885+03:00,0.03057091307199995,1
2025-04-18T12:08:26.643+03:00,1744967304.970806,40.95359319739049,29.1409997789972,93.61648,-1,-1,-1,-1,30,23.79642844582683,-9999,65623.264648375,-0.743377685546875,0.7253875732421875,-0.1040802001953125,65623.258343375,1.58333868109113,-1.339312019879568,-0.7411443783578516,0.07522479444742203,-0.2609609961509705,-0.0985778421163559,-0.04177629947662354,0.06375908851623535,0.01452010869979858,XArbitraryZVertical,0.2121659422014727,-0.6085749950514033,0.6779466921910212,0.3535681805897501,-0.7180199027061462,0.6751325726509094,-0.1692441701889038,0,0,0,-1,-1,65617.57966775,unknown,2,2025-04-18T12:08:20.955+03:00,2025-04-17T15:44:39.500+03:00,7557,1.143429,0,0,6228.047,4,10,2025-04-18T12:06:19.732+03:00,766660106.2110678,0,108.12,100.5579,1,0.5,2025-04-18T12:08:20.795+03:00,108,1.8,2025-04-18T08:51:18.885+03:00,0.03057091307199995,1
2025-04-18T12:08:26.653+03:00,1744967304.970806,40.95359319739049,29.1409997789972,93.61648,-1,-1,-1,-1,30,23.79642844582683,-9999,65623.27472437501,-0.729522705078125,0.749969482421875,-0.05377197265625,65623.26841837501,1.583707012309875,-1.34174082733137,-0.7398768359516658,0.04299921542406082,-0.2801147103309631,-0.1287418752908707,-0.02577918767929077,0.05259448289871216,0.05174243450164795,XArbitraryZVertical,0.2135277733653964,-0.6087355073223524,0.6776233193402271,0.353091764201497,-0.7192617654800415,0.6741969585418701,-0.1676939427852631,0,0,0,-1,-1,65617.57966775,unknown,2,2025-04-18T12:08:20.955+03:00,2025-04-17T15:44:39.500+03:00,7557,1.143429,0,0,6228.047,4,10,2025-04-18T12:06:19.732+03:00,766660106.2110678,0,108.12,100.5579,1,0.5,2025-04-18T12:08:20.795+03:00,108,1.8,2025-04-18T08:51:18.885+03:00,0.03057091307199995,1
2025-04-18T12:08:26.664+03:00,1744967304.970806,40.95359319739049,29.1409997789972,93.61648,-1,-1,-1,-1,30,23.79642844582683,-9999,65623.284799375,-0.7119293212890625,0.8076934814453125,-0.0142364501953125,65623.27849337501,1.584290081290968,-1.344249431467564,-0.7383110091634291,0.1172181218862534,-0.2911121845245361,-0.1613558381795883,-0.01386553049087524,0.06487536430358887,0.09990286827087402,XArbitraryZVertical,0.2150817330112968,-0.6088323773059788,0.6772958961728723,0.3526093435830558,-0.720707893371582,0.6730396747589111,-0.1661259680986404,0,0,0,-1,-1,65617.57966775,unknown,2,2025-04-18T12:08:20.955+03:00,2025-04-17T15:44:39.500+03:00,7557,1.143429,0,0,6228.047,4,10,2025-04-18T12:06:19.732+03:00,766660106.2110678,0,108.12,100.5579,1,0.5,2025-04-18T12:08:20.795+03:00,108,1.8,2025-04-18T08:51:18.885+03:00,0.03057091307199995,1
2025-04-18T12:08:26.674+03:00,1744967304.970806,40.95359319739049,29.1409997789972,93.61648,-1,-1,-1,-1,30,23.79642844582683,-9999,65623.294874375,-0.7125701904296875,0.8332977294921875,0.049407958984375,65623.288569375,1.585431432623715,-1.346288512167495,-0.7362729337134385,0.1318053156137466,-0.2652637958526611,-0.1887531131505966,0.007109880447387695,0.1237266659736633,0.1413710713386536,XArbitraryZVertical,0.2168045133317605,-0.6086996508535121,0.6770655399029548,0.3522256056353146,-0.7223809361457825,0.6715309023857117,-0.1649610698223114,0,0,0,-1,-1,65617.57966775,unknown,2,2025-04-18T12:08:20.955+03:00,2025-04-17T15:44:39.500+03:00,7557,1.143429,0,0,6228.047,4,10,2025-04-18T12:06:19.732+03:00,766660106.2110678,0,108.12,100.5579,1,0.5,2025-04-18T12:08:20.795+03:00,108,1.8,2025-04-18T08:51:18.885+03:00,0.03057091307199995,1
2025-04-18T12:08:26.684+03:00,1744967304.970806,40.95359319739049,29.1409997789972,93.61648,-1,-1,-1,-1,30,23.79642844582683,-9999,65623.30495037501,-0.70404052734375,0.8432769775390625,0.141326904296875,65623.298644375,1.587682823003358,-1.347319395697953,-0.7337626522989872,0.3358075320720673,-0.2357569634914398,-0.2321756631135941,0.01282733678817749,0.1595548987388611,0.1926808953285217,XArbitraryZVertical,0.2186811799824931,-0.6081807737290374,0.6770884038676228,0.3519177067638734,-0.7241921424865723,0.6696687340736389,-0.1645893752574921,0,0,0,-1,-1,65617.57966775,unknown,2,2025-04-18T12:08:20.955+03:00,2025-04-17T15:44:39.500+03:00,7557,1.143429,0,0,6228.047,4,10,2025-04-18T12:06:19.732+03:00,766660106.2110678,0,108.12,100.5579,1,0.5,2025-04-18T12:08:20.795+03:00,108,1.8,2025-04-18T08:51:18.885+03:00,0.03057091307199995,1
2025-04-18T12:08:26.694+03:00,1744967304.970806,40.95359319739049,29.1409997789972,93.61648,-1,-1,-1,-1,30,23.79642844582683,-9999,65623.31502537501,-0.6914215087890625,0.8682861328125,0.2474212646484375,65623.30871937501,1.593629376834754,-1.345367318516113,-0.7300121456989968,0.680315375328064,-0.1671363562345505,-0.2909196615219116,0.01835036277770996,0.1752386093139648,0.2855357527732849,XArbitraryZVertical,0.2210828770479427,-0.6064988696122724,0.6779593150326727,0.3516428609906198,-0.7263123989105225,0.6668787002563477,-0.1665629595518112,0,0,0,-1,-1,65617.57966775,unknown,2,2025-04-18T12:08:20.955+03:00,2025-04-17T15:44:39.500+03:00,7557,1.143429,0,0,6228.047,4,10,2025-04-18T12:06:19.732+03:00,766660106.2110678,0,108.12,100.5579,1,0.5,2025-04-18T12:08:20.795+03:00,108,1.8,2025-04-18T08:51:18.885+03:00,0.03057091307199995,1
2025-04-18T12:08:26.704+03:00,1744967304.970806,40.95359319739049,29.1409997789972,93.61648,-1,-1,-1,-1,30,23.79642844582683,-9999,65623.325100375,-0.6767730712890625,1.020370483398438,0.41729736328125,65623.318795375,1.604378731104166,-1.339465912740104,-0.725176217293195,1.091761946678162,-0.07500763237476349,-0.2770296037197113,0.03459972143173218,0.1898058652877808,0.3853899836540222,XArbitraryZVertical,0.2239478250584922,-0.6033701244810922,0.6800082765233509,0.3512559810712541,-0.7284474968910217,0.6632673144340515,-0.1715837270021439,0,0,0,-1,-1,65617.57966775,unknown,2,2025-04-18T12:08:20.955+03:00,2025-04-17T15:44:39.500+03:00,7557,1.143429,0,0,6228.047,4,10,2025-04-18T12:06:19.732+03:00,766660106.2110678,0,108.12,100.5579,1,0.5,2025-04-18T12:08:20.795+03:00,108,1.8,2025-04-18T08:51:18.885+03:00,0.03057091307199995,1
2025-04-18T12:08:26.714+03:00,1744967304.970806,40.95359319739049,29.1409997789972,93.61648,-1,-1,-1,-1,30,23.79642844582683,-9999,65623.33517637501,-0.659881591796875,1.144622802734375,0.556732177734375,65623.328870375,1.620047957150312,-1.329025376113739,-0.719557044728623,1.452859997749329,0.1081573963165283,-0.2760359644889832,0.04771298170089722,0.3141998052597046,0.5549165606498718,XArbitraryZVertical,0.2269709792429953,-0.5987066301476397,0.6833723064352397,0.350766144183553,-0.7302234172821045,0.6590515971183777,-0.1800690889358521,0,0,0,-1,-1,65617.57966775,unknown,2,2025-04-18T12:08:20.955+03:00,2025-04-17T15:44:39.500+03:00,7557,1.143429,0,0,6228.047,4,10,2025-04-18T12:06:19.732+03:00,766660106.2110678,0,108.12,100.5579,1,0.5,2025-04-18T12:08:20.795+03:00,108,1.8,2025-04-18T08:51:18.885+03:00,0.03057091307199995,1
2025-04-18T12:08:26.724+03:00,1744967304.970806,40.95359319739049,29.1409997789972,93.61648,-1,-1,-1,-1,30,23.79642844582683,-9999,65623.34525137501,-0.6528167724609375,1.125595092773438,0.723297119140625,65623.338945375,1.639248553779247,-1.313628496584969,-0.7127450606014571,1.590334892272949,0.4641280174255371,-0.3278228640556335,0.06834393739700317,0.4758324027061462,0.7173150777816772,XArbitraryZVertical,0.2296716935422309,-0.5924837440689751,0.6878409222695455,0.3508400743665482,-0.7316892743110657,0.6539130806922913,-0.192427858710289,0,0,0,-1,-1,65617.57966775,unknown,2,2025-04-18T12:08:20.955+03:00,2025-04-17T15:44:39.500+03:00,7557,1.143429,0,0,6228.047,4,10,2025-04-18T12:06:19.732+03:00,766660106.2110678,0,108.12,100.5579,1,0.5,2025-04-18T12:08:20.795+03:00,108,1.8,2025-04-18T08:51:18.885+03:00,0.03057091307199995,1
2025-04-18T12:08:26.734+03:00,1744967304.970806,40.95359319739049,29.1409997789972,93.61648,-1,-1,-1,-1,30,23.79642844582683,-9999,65623.35532637501,-0.6049652099609375,1.160049438476562,0.92144775390625,65623.349021375,1.655977100706354,-1.296078967394641,-0.7055397329935028,1.163037061691284,0.865004301071167,-0.3889184594154358,0.0773051381111145,0.4838336706161499,0.8811176419258118,XArbitraryZVertical,0.2309270755959272,-0.5860179816644606,0.6921386623546221,0.3524199175464953,-0.732715904712677,0.6484448313713074,-0.2065112292766571,0,0,0,-1,-1,65617.57966775,unknown,2,2025-04-18T12:08:20.955+03:00,2025-04-17T15:44:39.500+03:00,7557,1.143429,0,0,6228.047,4,10,2025-04-18T12:06:19.732+03:00,766660106.2110678,0,108.12,100.5579,1,0.5,2025-04-18T12:08:20.795+03:00,108,1.8,2025-04-18T08:51:18.885+03:00,0.03057091307199995,1
2025-04-18T12:08:26.744+03:00,1744967304.970806,40.95359319739049,29.1409997789972,93.61648,-1,-1,-1,-1,30,23.79642844582683,-9999,65623.365402375,-0.4783477783203125,1.131149291992188,1.084503173828125,65623.359096375,1.665072085821852,-1.278848650407622,-0.6991330392259412,0.5029236674308777,1.401485919952393,-0.4604573845863342,0.1093401312828064,0.5022433996200562,1.096028566360474,XArbitraryZVertical,0.2297151136521377,-0.5805884395858298,0.6951668163259205,0.3562179140954909,-0.7330126762390137,0.6435543298721313,-0.2202960550785065,0,0,0,-1,-1,65617.57966775,unknown,2,2025-04-18T12:08:20.955+03:00,2025-04-17T15:44:39.500+03:00,7557,1.143429,0,0,6228.047,4,10,2025-04-18T12:06:19.732+03:00,766660106.2110678,0,108.12,100.5579,1,0.5,2025-04-18T12:08:20.795+03:00,108,1.8,2025-04-18T08:51:18.885+03:00,0.03057091307199995,1
2025-04-18T12:08:26.754+03:00,1744967304.970806,40.95359319739049,29.1409997789972,93.61648,-1,-1,-1,-1,30,23.79642844582683,-9999,65623.375477375,-0.3628692626953125,1.042083740234375,1.363967895507812,65623.369171375,1.662391492237791,-1.263411248468324,-0.6932495628747394,-0.551971435546875,2.03355884552002,-0.8220946788787842,0.2178009748458862,0.5148906111717224,1.276336431503296,XArbitraryZVertical,0.2255097790254382,-0.5768725670023425,0.6959327489860544,0.3633744709906097,-0.7331207990646362,0.6390400528907776,-0.2327267676591873,0,0,0,-1,-1,65617.57966775,unknown,2,2025-04-18T12:08:20.955+03:00,2025-04-17T15:44:39.500+03:00,7557,1.143429,0,0,6228.047,4,10,2025-04-18T12:06:19.732+03:00,766660106.2110678,0,108.12,100.5579,1,0.5,2025-04-18T12:08:20.795+03:00,108,1.8,2025-04-18T08:51:18.885+03:00,0.03057091307199995,1
2025-04-18T12:08:26.765+03:00,1744967304.970806,40.95359319739049,29.1409997789972,93.61648,-1,-1,-1,-1,30,23.79642844582683,-9999,65623.38555237501,-0.3530426025390625,1.127700805664062,1.80023193359375,65623.37924737501,1.646579367240712,-1.248540157589191,-0.6868735390675643,-1.339525699615479,2.935826778411865,-1.115060567855835,0.3509978652000427,0.4186573624610901,1.514358758926392,XArbitraryZVertical,0.2178998464899968,-0.5745219242276842,0.6941113560700938,0.3750383073898217,-0.733428955078125,0.6341227889060974,-0.2448884248733521,0,0,0,-1,-1,65617.57966775,unknown,2,2025-04-18T12:08:20.955+03:00,2025-04-17T15:44:39.500+03:00,7557,1.143429,0,0,6228.047,4,10,2025-04-18T12:06:19.732+03:00,766660106.2110678,0,108.12,100.5579,1,0.5,2025-04-18T12:08:20.795+03:00,108,1.8,2025-04-18T08:51:18.885+03:00,0.03057091307199995,1
2025-04-18T12:08:26.774+03:00,1744967304.970806,40.95359319739049,29.1409997789972,93.61648,-1,-1,-1,-1,30,23.79642844582683,-9999,65623.395628375,-0.4368133544921875,1.275970458984375,2.098434448242188,65623.38932237501,1.620130250480742,-1.230479169288678,-0.6805412473978918,-2.082643747329712,3.983588457107544,-1.398170828819275,0.3863437175750732,0.4618507027626038,1.958266735076904,XArbitraryZVertical,0.2061750715630166,-0.5725182623704401,0.6904028009736556,0.3912272991315112,-0.732657253742218,0.629213809967041,-0.2594293653964996,0,0,0,-1,-1,65617.57966775,unknown,2,2025-04-18T12:08:20.955+03:00,2025-04-17T15:44:39.500+03:00,7557,1.143429,0,0,6228.047,4,10,2025-04-18T12:06:19.732+03:00,766660106.2110678,0,108.12,100.5579,1,0.5,2025-04-18T12:08:20.795+03:00,108,1.8,2025-04-18T08:51:18.885+03:00,0.03057091307199995,1
2025-04-18T12:08:26.784+03:00,1744967304.970806,40.95359319739049,29.1409997789972,93.61648,-1,-1,-1,-1,30,23.79642844582683,-9999,65623.405703375,-0.5734405517578125,1.207778930664062,2.243576049804688,65623.399397375,1.584642477711864,-1.207069357354605,-0.6748967938218025,-2.703818082809448,5.067229747772217,-1.522890686988831,0.3228615522384644,0.6235964298248291,2.315364837646484,XArbitraryZVertical,0.1898905960305185,-0.5701385631495717,0.6850888478967115,0.4117486763142516,-0.7296914458274841,0.6248167157173157,-0.277767151594162,0,0,0,-1,-1,65617.57966775,unknown,2,2025-04-18T12:08:20.955+03:00,2025-04-17T15:44:39.500+03:00,7557,1.143429,0,0,6228.047,4,10,2025-04-18T12:06:19.732+03:00,766660106.2110678,0,108.12,100.5579,1,0.5,2025-04-18T12:08:20.795+03:00,108,1.8,2025-04-18T08:51:18.885+03:00,0.03057091307199995,1
2025-04-18T12:08:26.802+03:00,1744967304.970806,40.95359319739049,29.1409997789972,93.61648,-1,-1,-1,-1,30,23.79642844582683,-9999,65623.415778375,-0.63958740234375,0.8316650390625,2.216323852539062,65623.40947337501,1.540481082422643,-1.178878505669311,-0.6721380699615465,-3.458356380462646,5.95078706741333,-1.483676671981812,0.1803765892982483,0.6330616474151611,2.524483203887939,XArbitraryZVertical,0.1686660218683694,-0.5675480641247652,0.6780065391425556,0.4356009702830779,-0.7231622934341431,0.6226604580879211,-0.2988819479942322,0,0,0,-1,-1,65617.57966775,unknown,2,2025-04-18T12:08:20.955+03:00,2025-04-17T15:44:39.500+03:00,7557,1.143429,0,0,6228.047,4,10,2025-04-18T12:06:19.732+03:00,766660106.2110678,0,108.12,100.5579,1,0.5,2025-04-18T12:08:20.795+03:00,108,1.8,2025-04-18T08:51:18.885+03:00,0.03057091307199995,1
2025-04-18T12:08:26.805+03:00,1744967304.970806,40.95359319739049,29.1409997789972,93.61648,-1,-1,-1,-1,30,23.79642844582683,-9999,65623.425854375,-0.5514984130859375,0.355377197265625,1.996902465820312,65623.41954837501,1.485604845862257,-1.157299481840748,-0.6770692445055928,-5.270867347717285,3.73992657661438,-0.9012399315834045,0.08048462867736816,0.3195792436599731,2.546211004257202,XArbitraryZVertical,0.1441030795107963,-0.56801846133014,0.6678883196192387,0.4588185777834635,-0.7137243747711182,0.6265114545822144,-0.3131786584854126,0,0,0,-1,-1,65617.57966775,unknown,2,2025-04-18T12:08:20.955+03:00,2025-04-17T15:44:39.500+03:00,7557,1.143429,0,0,6228.047,4,10,2025-04-18T12:06:19.732+03:00,766660106.2110678,0,108.12,100.5579,1,0.5,2025-04-18T12:08:20.795+03:00,108,1.8,2025-04-18T08:51:18.885+03:00,0.03057091307199995,1
2025-04-18T12:08:26.815+03:00,1744967304.970806,40.95359319739049,29.1409997789972,93.61648,-1,-1,-1,-1,30,23.79642844582683,-9999,65623.435929375,-0.401336669921875,-0.279815673828125,-3.474594116210938,65623.42962337501,1.386154228432747,-1.211200879257263,-0.7184157838695766,-8.069071769714355,1.43297803401947,3.385632514953613,0.1138914823532104,-0.1874439716339111,2.385423183441162,XArbitraryZVertical,0.1181531646051993,-0.5946239597966814,0.6457013612879644,0.4642540836396133,-0.7046965360641479,0.6581928133964539,-0.2649243474006653,0,0,0,-1,-1,65617.57966775,unknown,2,2025-04-18T12:08:20.955+03:00,2025-04-17T15:44:39.500+03:00,7557,1.143429,0,0,6228.047,4,10,2025-04-18T12:06:19.732+03:00,766660106.2110678,0,108.12,100.5579,1,0.5,2025-04-18T12:08:20.795+03:00,108,1.8,2025-04-18T08:51:18.885+03:00,0.03057091307199995,1
2025-04-18T12:08:26.825+03:00,1744967304.970806,40.95359319739049,29.1409997789972,93.61648,-1,-1,-1,-1,30,23.79642844582683,-9999,65623.446004375,-1.267745971679688,-2.061630249023438,-11.15011596679688,65623.439699375,1.362546627383249,-1.212796355530004,-0.7266981982897761,0.2132425308227539,0.3284862339496613,-2.258243560791016,0.3199530243873596,-0.7104718685150146,-0.7696440815925598,XArbitraryZVertical,0.1086388885639285,-0.597710074872454,0.6410451084426076,0.4690431510512447,-0.6999884843826294,0.6644055843353271,-0.2618805170059204,0,0,0,-1,-1,65617.57966775,unknown,2,2025-04-18T12:08:20.955+03:00,2025-04-17T15:44:39.500+03:00,7557,1.143429,0,0,6228.047,4,10,2025-04-18T12:06:19.732+03:00,766660106.2110678,0,108.12,100.5579,1,0.5,2025-04-18T12:08:20.795+03:00,108,1.8,2025-04-18T08:51:18.885+03:00,0.03057091307199995,1
2025-04-18T12:08:26.835+03:00,1744967304.970806,40.95359319739049,29.1409997789972,93.61648,-1,-1,-1,-1,30,23.79642844582683,-9999,65623.45608037501,2.193191528320312,0.372802734375,-4.998550415039062,65623.44977437501,1.34716155060217,-1.232184732304682,-0.7164949642201307,-0.6357982754707336,-1.999040722846985,-1.114730834960938,-0.5013550519943237,-2.296699047088623,-10.26453018188477,XArbitraryZVertical,0.1139059668119847,-0.6014779414583955,0.6351406622499455,0.4710055061499372,-0.711291491985321,0.6567454934120178,-0.250499427318573,0,0,0,-1,-1,65617.57966775,unknown,2,2025-04-18T12:08:20.955+03:00,2025-04-17T15:44:39.500+03:00,7557,1.143429,0,0,6228.047,4,10,2025-04-18T12:06:19.732+03:00,766660106.2110678,0,108.12,100.5579,1,0.5,2025-04-18T12:08:20.795+03:00,108,1.8,2025-04-18T08:51:18.885+03:00,0.03057091307199995,1
2025-04-18T12:08:26.846+03:00,1744967304.970806,40.95359319739049,29.1409997789972,93.61648,-1,-1,-1,-1,30,23.79642844582683,-9999,65623.466155375,0.5695648193359375,2.876785278320312,0.31634521484375,65623.45984937501,1.341054478731761,-1.257116982063269,-0.6974320590664617,0.9334837198257446,-1.229645729064941,-1.921668887138367,1.89916718006134,-1.471719264984131,-6.9433913230896,XArbitraryZVertical,0.1268322966376282,-0.6046971732831865,0.6297921873440602,0.4707618575996583,-0.7290927171707153,0.6422514915466309,-0.2365097999572754,0,0,0,-1,-1,65617.57966775,unknown,2,2025-04-18T12:08:20.955+03:00,2025-04-17T15:44:39.500+03:00,7557,1.143429,0,0,6228.047,4,10,2025-04-18T12:06:19.732+03:00,766660106.2110678,0,108.12,100.5579,1,0.5,2025-04-18T12:08:20.795+03:00,108,1.8,2025-04-18T08:51:18.885+03:00,0.03057091307199995,1
2025-04-18T12:08:26.855+03:00,1744967304.970806,40.95359319739049,29.1409997789972,93.61648,-1,-1,-1,-1,30,23.79642844582683,-9999,65623.476230375,-1.786849975585938,0.25823974609375,0.43304443359375,65623.469925375,1.34976216545357,-1.260571289349218,-0.686647561795786,0.7506158947944641,-0.9240863919258118,-0.2164852470159531,2.506859540939331,2.290002346038818,-0.07921692728996277,XArbitraryZVertical,0.1344279429748864,-0.6032277970849418,0.6302000928753855,0.4699929538718708,-0.7364586591720581,0.633948028087616,-0.2360907047986984,0,0,0,-1,-1,65617.57966775,unknown,2,2025-04-18T12:08:20.955+03:00,2025-04-17T15:44:39.500+03:00,7557,1.143429,0,0,6228.047,4,10,2025-04-18T12:06:19.732+03:00,766660106.2110678,0,108.12,100.5579,1,0.5,2025-04-18T12:08:20.795+03:00,108,1.8,2025-04-18T08:51:18.885+03:00,0.03057091307199995,1
2025-04-18T12:08:26.865+03:00,1744967304.970806,40.95359319739049,29.1409997789972,93.61648,-1,-1,-1,-1,30,23.79642844582683,-9999,65623.48630637501,-0.123687744140625,-0.7682647705078125,0.5481414794921875,65623.480000375,1.352969969977179,-1.268668196069316,-0.6869664272889249,-0.2469381839036942,-1.174831509590149,0.3704405725002289,-1.171362400054932,0.3438479900360107,0.7528412342071533,XArbitraryZVertical,0.1378343577165743,-0.6049560113012111,0.6304421017240236,0.4664470256171614,-0.7381530404090881,0.6341946125030518,-0.2300598323345184,0,0,0,-1,-1,65617.57966775,unknown,2,2025-04-18T12:08:20.955+03:00,2025-04-17T15:44:39.500+03:00,7557,1.143429,0,0,6228.047,4,10,2025-04-18T12:06:19.732+03:00,766660106.2110678,0,108.12,100.5579,1,0.5,2025-04-18T12:08:20.795+03:00,108,1.8,2025-04-18T08:51:18.885+03:00,0.03057091307199995,1
