loggingTime(txt),locationTimestamp_since1970(s),locationLatitude(WGS84),locationLongitude(WGS84),locationAltitude(m),locationSpeed(m/s),locationSpeedAccuracy(m/s),locationCourse(°),locationCourseAccuracy(°),locationVerticalAccuracy(m),locationHorizontalAccuracy(m),locationFloor(Z),accelerometerTimestamp_sinceReboot(s),accelerometerAccelerationX(G),accelerometerAccelerationY(G),accelerometerAccelerationZ(G),motionTimestamp_sinceReboot(s),motionYaw(rad),motionRoll(rad),motionPitch(rad),motionRotationRateX(rad/s),motionRotationRateY(rad/s),motionRotationRateZ(rad/s),motionUserAccelerationX(G),motionUserAccelerationY(G),motionUserAccelerationZ(G),motionAttitudeReferenceFrame(txt),motionQuaternionX(R),motionQuaternionY(R),motionQuaternionZ(R),motionQuaternionW(R),motionGravityX(G),motionGravityY(G),motionGravityZ(G),motionMagneticFieldX(µT),motionMagneticFieldY(µT),motionMagneticFieldZ(µT),motionHeading(°),motionMagneticFieldCalibrationAccuracy(Z),activityTimestamp_sinceReboot(s),activity(txt),activityActivityConfidence(Z),activityActivityStartDate(txt),pedometerStartDate(txt),pedometerNumberofSteps(N),pedometerAverageActivePace(s/m),pedometerCurrentPace(s/m),pedometerCurrentCadence(steps/s),pedometerDistance(m),pedometerFloorAscended(N),pedometerFloorDescended(N),pedometerEndDate(txt),altimeterTimestamp_sinceReboot(s),altimeterReset(bool),altimeterRelativeAltitude(m),altimeterPressure(kPa),batteryState(N),batteryLevel(R),heartRateBPMTimestamp(txt),heartRateBPM(N),heartRateBPS(R),heartRateVariabilityTimestamp(txt),heartRateVariability(ms),label
2025-04-28T22:42:31.338+03:00,1745869351.133383,40.98570378094778,29.13752618574849,129.2685,-1,-1,-1,-1,30.72688367416445,29.72613821890759,-9999,1232.562108875,-0.6459197998046875,0.6651458740234375,-0.4165802001953125,1232.557069875,-0.8989343000071427,-0.9647606007501868,-0.7428190077664368,0.008561188355088234,0.01286020129919052,-0.02347208186984062,0.01008546352386475,-0.01309794187545776,-0.01188486814498901,XArbitraryZVertical,0.4773937494301919,0.2496327937992948,0.2070263193190256,-0.8166509261502621,-0.6053918600082397,0.6763669848442078,-0.4195573627948761,0,0,0,-1,-1,1210.234274541667,unknown,2,2025-04-28T22:41:39.514+03:00,2025-04-28T22:17:59.397+03:00,11,0.7499527,0,0,8.86931,0,0,2025-04-28T22:41:39.514+03:00,767562151.2044723,0,-0.7300001,100.8054,1,0.35,2025-04-28T22:30:20.081+03:00,89,1.483333333333333,2025-04-22T14:20:19.516+03:00,0.02197104130929222,0
2025-04-28T22:42:31.346+03:00,1745869351.133383,40.98570378094778,29.13752618574849,129.2685,-1,-1,-1,-1,30.72688367416445,29.72613821890759,-9999,1232.572185875,-0.656463623046875,0.6788787841796875,-0.4273529052734375,1232.567146875,-0.8989169189718792,-0.9643705762808955,-0.742694145717673,0.003659108420833945,0.04485968127846718,0.005536932963877916,-0.006442487239837646,-0.02739500999450684,0.009151339530944824,XArbitraryZVertical,0.4773093261422701,0.2495095445481129,0.2071453426775478,-0.8167077841427007,-0.6052975654602051,0.6762750148773193,-0.4198415875434875,0,0,0,-1,-1,1210.234274541667,unknown,2,2025-04-28T22:41:39.514+03:00,2025-04-28T22:17:59.397+03:00,11,0.7499527,0,0,8.86931,0,0,2025-04-28T22:41:39.514+03:00,767562151.2044723,0,-0.7300001,100.8054,1,0.35,2025-04-28T22:30:20.081+03:00,89,1.483333333333333,2025-04-22T14:20:19.516+03:00,0.02197104130929222,0
2025-04-28T22:42:31.347+03:00,1745869351.133383,40.98570378094778,29.13752618574849,129.2685,-1,-1,-1,-1,30.72688367416445,29.72613821890759,-9999,1232.582262875,-0.5978546142578125,0.6580963134765625,-0.418243408203125,1232.577223875,-0.8989174496031969,-0.9641563531909482,-0.7427674846233051,-0.003824107814580202,0.00293966056779027,9.476370178163052e-05,-0.06100130081176758,0.00212252140045166,-0.004709064960479736,XArbitraryZVertical,0.4773117863225854,0.2494032288296364,0.2071772945426235,-0.8167307218950363,-0.6051669120788574,0.6763290166854858,-0.4199429750442505,0,0,0,-1,-1,1210.234274541667,unknown,2,2025-04-28T22:41:39.514+03:00,2025-04-28T22:17:59.397+03:00,11,0.7499527,0,0,8.86931,0,0,2025-04-28T22:41:39.514+03:00,767562151.2044723,0,-0.7300001,100.8054,1,0.35,2025-04-28T22:30:20.081+03:00,89,1.483333333333333,2025-04-22T14:20:19.516+03:00,0.02197104130929222,0
2025-04-28T22:42:31.348+03:00,1745869351.133383,40.98570378094778,29.13752618574849,129.2685,-1,-1,-1,-1,30.72688367416445,29.72613821890759,-9999,1232.592339875,-0.571807861328125,0.656463623046875,-0.41436767578125,1232.587301875,-0.8995018147033793,-0.9650769390726449,-0.7425969661407469,-0.01392361428588629,-0.02993812784552574,-0.007848380133509636,-0.02188491821289062,-0.007334351539611816,-0.004376769065856934,XArbitraryZVertical,0.4774229215548738,0.2496831611839701,0.2072412757722059,-0.8165639855803885,-0.6056480407714844,0.6762034296989441,-0.4194513559341431,0,0,0,-1,-1,1210.234274541667,unknown,2,2025-04-28T22:41:39.514+03:00,2025-04-28T22:17:59.397+03:00,11,0.7499527,0,0,8.86931,0,0,2025-04-28T22:41:39.514+03:00,767562151.2044723,0,-0.7300001,100.8054,1,0.35,2025-04-28T22:30:20.081+03:00,89,1.483333333333333,2025-04-22T14:20:19.516+03:00,0.02197104130929222,0
2025-04-28T22:42:31.349+03:00,1745869351.133383,40.98570378094778,29.13752618574849,129.2685,-1,-1,-1,-1,30.72688367416445,29.72613821890759,-9999,1232.602417875,-0.590545654296875,0.668243408203125,-0.4208984375,1232.597378875,-0.8997333398768361,-0.965474329429899,-0.7421123053899913,-0.02343376353383064,-0.01518954150378704,-0.00252432213164866,0.02841687202453613,-0.02130526304244995,0.004297018051147461,XArbitraryZVertical,0.4773306336121902,0.2499138492666631,0.2073691832127193,-0.8165148892691182,-0.6060841083526611,0.67584627866745,-0.4193970561027527,0,0,0,-1,-1,1210.234274541667,unknown,2,2025-04-28T22:41:39.514+03:00,2025-04-28T22:17:59.397+03:00,11,0.7499527,0,0,8.86931,0,0,2025-04-28T22:41:39.514+03:00,767562151.2044723,0,-0.7300001,100.8054,1,0.35,2025-04-28T22:30:20.081+03:00,89,1.483333333333333,2025-04-22T14:20:19.516+03:00,0.02197104130929222,0
2025-04-28T22:42:31.359+03:00,1745869351.133383,40.98570378094778,29.13752618574849,129.2685,-1,-1,-1,-1,30.72688367416445,29.72613821890759,-9999,1232.612494875,-0.6130828857421875,0.676605224609375,-0.4228973388671875,1232.607455875,-0.8997491618055253,-0.9653150798160371,-0.7426207665318239,-0.02253974042832851,0.01233609206974506,0.001675749197602272,0.02851003408432007,-0.01435565948486328,0.001466572284698486,XArbitraryZVertical,0.4774864416774727,0.2497152694620563,0.2072791195138993,-0.816507445823361,-0.6057347059249878,0.6762209534645081,-0.4192979633808136,0,0,0,-1,-1,1210.234274541667,unknown,2,2025-04-28T22:41:39.514+03:00,2025-04-28T22:17:59.397+03:00,11,0.7499527,0,0,8.86931,0,0,2025-04-28T22:41:39.514+03:00,767562151.2044723,0,-0.7300001,100.8054,1,0.35,2025-04-28T22:30:20.081+03:00,89,1.483333333333333,2025-04-22T14:20:19.516+03:00,0.02197104130929222,0
2025-04-28T22:42:31.365+03:00,1745869351.133383,40.98570378094778,29.13752618574849,129.2685,-1,-1,-1,-1,30.72688367416445,29.72613821890759,-9999,1232.622571875,-0.609893798828125,0.6741943359375,-0.420379638671875,1232.617533875,-0.8995149347281201,-0.9647010810043195,-0.7432501597126988,-0.01120572537183762,0.01324010174721479,0.001436264486983418,0.001336932182312012,-0.002841055393218994,-0.003363251686096191,XArbitraryZVertical,0.4776044803833377,0.2493598427350771,0.2071635709360175,-0.8165763405771348,-0.605127215385437,0.6766844987869263,-0.4194272458553314,0,0,0,-1,-1,1210.234274541667,unknown,2,2025-04-28T22:41:39.514+03:00,2025-04-28T22:17:59.397+03:00,11,0.7499527,0,0,8.86931,0,0,2025-04-28T22:41:39.514+03:00,767562151.2044723,0,-0.7300001,100.8054,1,0.35,2025-04-28T22:30:20.081+03:00,89,1.483333333333333,2025-04-22T14:20:19.516+03:00,0.02197104130929222,0
2025-04-28T22:42:31.375+03:00,1745869351.133383,40.98570378094778,29.13752618574849,129.2685,-1,-1,-1,-1,30.72688367416445,29.72613821890759,-9999,1232.632649875,-0.59478759765625,0.6755828857421875,-0.4198455810546875,1232.627610875,-0.8993203416888162,-0.9642839248035777,-0.7435194391500242,-0.007606994826346636,-0.004288025200366974,-0.00108228693716228,-0.01085913181304932,-0.001666009426116943,-0.002741694450378418,XArbitraryZVertical,0.4776272442697072,0.2491672557439555,0.2071125174633167,-0.8166347815985681,-0.6048024296760559,0.6768827438354492,-0.4195757806301117,0,0,0,-1,-1,1210.234274541667,unknown,2,2025-04-28T22:41:39.514+03:00,2025-04-28T22:17:59.397+03:00,11,0.7499527,0,0,8.86931,0,0,2025-04-28T22:41:39.514+03:00,767562151.2044723,0,-0.7300001,100.8054,1,0.35,2025-04-28T22:30:20.081+03:00,89,1.483333333333333,2025-04-22T14:20:19.516+03:00,0.02197104130929222,0
2025-04-28T22:42:31.385+03:00,1745869351.133383,40.98570378094778,29.13752618574849,129.2685,-1,-1,-1,-1,30.72688367416445,29.72613821890759,-9999,1232.642726875,-0.59222412109375,0.67730712890625,-0.4214935302734375,1232.637687875,-0.8993185511460915,-0.9642715709251569,-0.743475511928238,-0.003063442418351769,-0.006085725966840982,-0.00246849562972784,0.003686428070068359,-0.002137303352355957,-0.0003522336483001709,XArbitraryZVertical,0.4776110880599655,0.2491738181504093,0.2071263166180647,-0.81663860003448,-0.6048215627670288,0.6768503785133362,-0.4196000993251801,0,0,0,-1,-1,1210.234274541667,unknown,2,2025-04-28T22:41:39.514+03:00,2025-04-28T22:17:59.397+03:00,11,0.7499527,0,0,8.86931,0,0,2025-04-28T22:41:39.514+03:00,767562151.2044723,0,-0.7300001,100.8054,1,0.35,2025-04-28T22:30:20.081+03:00,89,1.483333333333333,2025-04-22T14:20:19.516+03:00,0.02197104130929222,0
2025-04-28T22:42:31.397+03:00,1745869351.133383,40.98570378094778,29.13752618574849,129.2685,-1,-1,-1,-1,30.72688367416445,29.72613821890759,-9999,1232.652803875,-0.60015869140625,0.67657470703125,-0.424560546875,1232.647765875,-0.8994428517302603,-0.9644930626896726,-0.7433190436306427,-0.001634922926314175,-0.006495852489024401,-0.003249600529670715,0.01367777585983276,-0.000343620777130127,-0.002089053392410278,XArbitraryZVertical,0.4775970715387458,0.2492745181973764,0.2071655691943765,-0.8166061350479064,-0.6050015687942505,0.6767352223396301,-0.4195265173912048,0,0,0,-1,-1,1210.234274541667,unknown,2,2025-04-28T22:41:39.514+03:00,2025-04-28T22:17:59.397+03:00,11,0.7499527,0,0,8.86931,0,0,2025-04-28T22:41:39.514+03:00,767562151.2044723,0,-0.7300001,100.8054,1,0.35,2025-04-28T22:30:20.081+03:00,89,1.483333333333333,2025-04-22T14:20:19.516+03:00,0.02197104130929222,0
2025-04-28T22:42:31.405+03:00,1745869351.133383,40.98570378094778,29.13752618574849,129.2685,-1,-1,-1,-1,30.72688367416445,29.72613821890759,-9999,1232.662881875,-0.6018524169921875,0.67120361328125,-0.4266815185546875,1232.657842875,-0.8996468183535139,-0.9648308078961779,-0.743096244707364,-0.003765052184462547,-0.007069896440953016,-0.003589753061532974,0.008495926856994629,0.000995337963104248,-0.003519803285598755,XArbitraryZVertical,0.4775828513319458,0.2494205785763324,0.2072271246582303,-0.8165542080480371,-0.6052671074867249,0.6765711307525635,-0.419407993555069,0,0,0,-1,-1,1210.234274541667,unknown,2,2025-04-28T22:41:39.514+03:00,2025-04-28T22:17:59.397+03:00,11,0.7499527,0,0,8.86931,0,0,2025-04-28T22:41:39.514+03:00,767562151.2044723,0,-0.7300001,100.8054,1,0.35,2025-04-28T22:30:20.081+03:00,89,1.483333333333333,2025-04-22T14:20:19.516+03:00,0.02197104130929222,0
2025-04-28T22:42:31.415+03:00,1745869351.133383,40.98570378094778,29.13752618574849,129.2685,-1,-1,-1,-1,30.72688367416445,29.72613821890759,-9999,1232.672958875,-0.5988006591796875,0.66827392578125,-0.428192138671875,1232.667919875,-0.8998146239162919,-0.9651051660386845,-0.7429844941442384,-0.009422404691576958,-0.01538721472024918,-0.00407870952039957,0.002920627593994141,-0.002325057983398438,-0.006877690553665161,XArbitraryZVertical,0.4775947621343396,0.2495210543850178,0.2072596917048103,-0.816508299382636,-0.6054443120956421,0.6764888763427734,-0.4192849695682526,0,0,0,-1,-1,1210.234274541667,unknown,2,2025-04-28T22:41:39.514+03:00,2025-04-28T22:17:59.397+03:00,11,0.7499527,0,0,8.86931,0,0,2025-04-28T22:41:39.514+03:00,767562151.2044723,0,-0.7300001,100.8054,1,0.35,2025-04-28T22:30:20.081+03:00,89,1.483333333333333,2025-04-22T14:20:19.516+03:00,0.02197104130929222,0
2025-04-28T22:42:31.425+03:00,1745869351.133383,40.98570378094778,29.13752618574849,129.2685,-1,-1,-1,-1,30.72688367416445,29.72613821890759,-9999,1232.683035875,-0.5959014892578125,0.669281005859375,-0.4324951171875,1232.677997875,-0.8999346054164595,-0.9652941392131547,-0.7430454277679995,-0.02190930210053921,-0.02165296673774719,-0.006879355758428574,0.004903793334960938,-0.007283210754394531,-0.008541464805603027,XArbitraryZVertical,0.4776497025183314,0.2495540020854752,0.2072474336695929,-0.8164692480695608,-0.6054896712303162,0.6765337586402893,-0.4191471338272095,0,0,0,-1,-1,1210.234274541667,unknown,2,2025-04-28T22:41:39.514+03:00,2025-04-28T22:17:59.397+03:00,11,0.7499527,0,0,8.86931,0,0,2025-04-28T22:41:39.514+03:00,767562151.2044723,0,-0.7300001,100.8054,1,0.35,2025-04-28T22:30:20.081+03:00,89,1.483333333333333,2025-04-22T14:20:19.516+03:00,0.02197104130929222,0
2025-04-28T22:42:31.436+03:00,1745869351.133383,40.98570378094778,29.13752618574849,129.2685,-1,-1,-1,-1,30.72688367416445,29.72613821890759,-9999,1232.693113875,-0.5980224609375,0.6694488525390625,-0.4394683837890625,1232.688074875,-0.9002054077750353,-0.9655994295764218,-0.7431704011016742,-0.04042945429682732,-0.02147773094475269,-0.01298678293824196,0.00940251350402832,-0.007375240325927734,-0.01091063022613525,XArbitraryZVertical,0.4777569860763808,0.2495820289467757,0.2072519829039054,-0.8163967497963194,-0.605548083782196,0.6766257882118225,-0.4189141392707825,0,0,0,-1,-1,1210.234274541667,unknown,2,2025-04-28T22:41:39.514+03:00,2025-04-28T22:17:59.397+03:00,11,0.7499527,0,0,8.86931,0,0,2025-04-28T22:41:39.514+03:00,767562151.2044723,0,-0.7300001,100.8054,1,0.35,2025-04-28T22:30:20.081+03:00,89,1.483333333333333,2025-04-22T14:20:19.516+03:00,0.02197104130929222,0
2025-04-28T22:42:31.445+03:00,1745869351.133383,40.98570378094778,29.13752618574849,129.2685,-1,-1,-1,-1,30.72688367416445,29.72613821890759,-9999,1232.703189625,-0.5945587158203125,0.6676483154296875,-0.4557647705078125,1232.698151875,-0.9008700812833086,-0.9662487149729567,-0.7433532178133421,-0.08108953386545181,-0.03254583105444908,-0.0101375998929143,0.00941997766494751,-0.007235169410705566,-0.01631808280944824,XArbitraryZVertical,0.4779684378578091,0.2496415225867924,0.2073197349656118,-0.8162375680516233,-0.6057181358337402,0.6767603754997253,-0.4184505641460419,0,0,0,-1,-1,1210.234274541667,unknown,2,2025-04-28T22:41:39.514+03:00,2025-04-28T22:17:59.397+03:00,11,0.7499527,0,0,8.86931,0,0,2025-04-28T22:41:39.514+03:00,767562151.2044723,0,-0.7300001,100.8054,1,0.35,2025-04-28T22:30:20.081+03:00,89,1.483333333333333,2025-04-22T14:20:19.516+03:00,0.02197104130929222,0
2025-04-28T22:42:31.456+03:00,1745869351.133383,40.98570378094778,29.13752618574849,129.2685,-1,-1,-1,-1,30.72688367416445,29.72613821890759,-9999,1232.713266625,-0.5842742919921875,0.6564178466796875,-0.4676361083984375,1232.708228625,-0.9023194798824237,-0.9677435082672523,-0.7436825722996773,-0.1675200313329697,-0.05585594475269318,-0.01184175722301006,0.009098291397094727,-0.007828652858734131,-0.02932855486869812,XArbitraryZVertical,0.4784145927268856,0.2498206764688152,0.2074664512234125,-0.8158839921151669,-0.6061593294143677,0.6770027875900269,-0.4174182116985321,0,0,0,-1,-1,1210.234274541667,unknown,2,2025-04-28T22:41:39.514+03:00,2025-04-28T22:17:59.397+03:00,11,0.7499527,0,0,8.86931,0,0,2025-04-28T22:41:39.514+03:00,767562151.2044723,0,-0.7300001,100.8054,1,0.35,2025-04-28T22:30:20.081+03:00,89,1.483333333333333,2025-04-22T14:20:19.516+03:00,0.02197104130929222,0
2025-04-28T22:42:31.466+03:00,1745869351.133383,40.98570378094778,29.13752618574849,129.2685,-1,-1,-1,-1,30.72688367416445,29.72613821890759,-9999,1232.723344625,-0.5778656005859375,0.6390838623046875,-0.4793701171875,1232.718305625,-0.9055158038446218,-0.9705900744563197,-0.7451153900144706,-0.3908576369285583,-0.09629085659980774,-0.02669959887862206,0.01654773950576782,-0.01526063680648804,-0.04754945635795593,XArbitraryZVertical,0.4795875566820688,0.2498487674049672,0.2077076534388939,-0.8151250165238859,-0.6065439581871033,0.6780566573143005,-0.4151427447795868,0,0,0,-1,-1,1210.234274541667,unknown,2,2025-04-28T22:41:39.514+03:00,2025-04-28T22:17:59.397+03:00,11,0.7499527,0,0,8.86931,0,0,2025-04-28T22:41:39.514+03:00,767562151.2044723,0,-0.7300001,100.8054,1,0.35,2025-04-28T22:30:20.081+03:00,89,1.483333333333333,2025-04-22T14:20:19.516+03:00,0.02197104130929222,0
2025-04-28T22:42:31.476+03:00,1745869351.133383,40.98570378094778,29.13752618574849,129.2685,-1,-1,-1,-1,30.72688367416445,29.72613821890759,-9999,1232.733421625,-0.5760650634765625,0.6095428466796875,-0.4936370849609375,1232.728382625,-0.9112421523210436,-0.9753699052519114,-0.7480010801251243,-0.644683301448822,-0.1356513053178787,-0.01834233291447163,0.0265461802482605,-0.03217983245849609,-0.06075355410575867,XArbitraryZVertical,0.4817588714158255,0.2496768921073992,0.2081223141946267,-0.8137903871270974,-0.6068988442420959,0.6801748275756836,-0.4111396670341492,0,0,0,-1,-1,1210.234274541667,unknown,2,2025-04-28T22:41:39.514+03:00,2025-04-28T22:17:59.397+03:00,11,0.7499527,0,0,8.86931,0,0,2025-04-28T22:41:39.514+03:00,767562151.2044723,0,-0.7300001,100.8054,1,0.35,2025-04-28T22:30:20.081+03:00,89,1.483333333333333,2025-04-22T14:20:19.516+03:00,0.02197104130929222,0
2025-04-28T22:42:31.486+03:00,1745869351.133383,40.98570378094778,29.13752618574849,129.2685,-1,-1,-1,-1,30.72688367416445,29.72613821890759,-9999,1232.743498625,-0.5747222900390625,0.5762481689453125,-0.490020751953125,1232.738460625,-0.9193948312984126,-0.9822415592211224,-0.7519741912624085,-0.8187361359596252,-0.1813771277666092,-0.0171105545014143,0.03085815906524658,-0.056601881980896,-0.08207741379737854,XArbitraryZVertical,0.4848048169398784,0.2494719096727039,0.20871193845516,-0.8118911247849218,-0.607457160949707,0.6830819249153137,-0.4054561257362366,0,0,0,-1,-1,1210.234274541667,unknown,2,2025-04-28T22:41:39.514+03:00,2025-04-28T22:17:59.397+03:00,11,0.7499527,0,0,8.86931,0,0,2025-04-28T22:41:39.514+03:00,767562151.2044723,0,-0.7300001,100.8054,1,0.35,2025-04-28T22:30:20.081+03:00,89,1.483333333333333,2025-04-22T14:20:19.516+03:00,0.02197104130929222,0
2025-04-28T22:42:31.496+03:00,1745869351.133383,40.98570378094778,29.13752618574849,129.2685,-1,-1,-1,-1,30.72688367416445,29.72613821890759,-9999,1232.753576625,-0.58282470703125,0.5788116455078125,-0.4751434326171875,1232.748537625,-0.9296972171740515,-0.9910308169592955,-0.7565895120228454,-1.005130290985107,-0.2113350182771683,-0.03240961581468582,0.03407365083694458,-0.09631174802780151,-0.09575521945953369,XArbitraryZVertical,0.4885203326090359,0.2493247737329652,0.2095061215396953,-0.8095011391946837,-0.6083533763885498,0.686445415019989,-0.398370087146759,0,0,0,-1,-1,1210.234274541667,unknown,2,2025-04-28T22:41:39.514+03:00,2025-04-28T22:17:59.397+03:00,11,0.7499527,0,0,8.86931,0,0,2025-04-28T22:41:39.514+03:00,767562151.2044723,0,-0.7300001,100.8054,1,0.35,2025-04-28T22:30:20.081+03:00,89,1.483333333333333,2025-04-22T14:20:19.516+03:00,0.02197104130929222,0
2025-04-28T22:42:31.506+03:00,1745869351.133383,40.98570378094778,29.13752618574849,129.2685,-1,-1,-1,-1,30.72688367416445,29.72613821890759,-9999,1232.763653625,-0.5936279296875,0.618560791015625,-0.462677001953125,1232.758614625,-0.9431346258573094,-1.002520527094915,-0.7624114109015219,-1.212660193443298,-0.2301376610994339,-0.03924711421132088,0.03262263536453247,-0.1195003390312195,-0.09484255313873291,XArbitraryZVertical,0.4932877702755158,0.2491361234166452,0.2105333382779972,-0.8063956632483456,-0.6095116138458252,0.6906673312187195,-0.3891967236995697,0,0,0,-1,-1,1210.234274541667,unknown,2,2025-04-28T22:41:39.514+03:00,2025-04-28T22:17:59.397+03:00,11,0.7499527,0,0,8.86931,0,0,2025-04-28T22:41:39.514+03:00,767562151.2044723,0,-0.7300001,100.8054,1,0.35,2025-04-28T22:30:20.081+03:00,89,1.483333333333333,2025-04-22T14:20:19.516+03:00,0.02197104130929222,0
2025-04-28T22:42:31.516+03:00,1745869351.133383,40.98570378094778,29.13752618574849,129.2685,-1,-1,-1,-1,30.72688367416445,29.72613821890759,-9999,1232.773730625,-0.5868682861328125,0.6318817138671875,-0.4705963134765625,1232.768692625,-0.9579195660540943,-1.015312899052863,-0.7690266749022381,-1.297269701957703,-0.2803766131401062,0.02212809398770332,0.02047246694564819,-0.09732216596603394,-0.08789238333702087,XArbitraryZVertical,0.4985932533415531,0.248856690526828,0.2114961989675462,-0.8029597587020587,-0.6105449795722961,0.6954361200332642,-0.3789502382278442,0,0,0,-1,-1,1210.234274541667,unknown,2,2025-04-28T22:41:39.514+03:00,2025-04-28T22:17:59.397+03:00,11,0.7499527,0,0,8.86931,0,0,2025-04-28T22:41:39.514+03:00,767562151.2044723,0,-0.7300001,100.8054,1,0.35,2025-04-28T22:30:20.081+03:00,89,1.483333333333333,2025-04-22T14:20:19.516+03:00,0.02197104130929222,0
2025-04-28T22:42:31.526+03:00,1745869351.133383,40.98570378094778,29.13752618574849,129.2685,-1,-1,-1,-1,30.72688367416445,29.72613821890759,-9999,1232.783807625,-0.57501220703125,0.6340789794921875,-0.4948577880859375,1232.778769625,-0.9742938490206486,-1.029723285934764,-0.7764003679943258,-1.433873653411865,-0.3063349425792694,0.01476085837930441,0.01926028728485107,-0.07048207521438599,-0.09686309099197388,XArbitraryZVertical,0.504478441362838,0.2485368812622531,0.2123983292531421,-0.7991357130996503,-0.6115301251411438,0.7007158398628235,-0.3674618303775787,0,0,0,-1,-1,1210.234274541667,unknown,2,2025-04-28T22:41:39.514+03:00,2025-04-28T22:17:59.397+03:00,11,0.7499527,0,0,8.86931,0,0,2025-04-28T22:41:39.514+03:00,767562151.2044723,0,-0.7300001,100.8054,1,0.35,2025-04-28T22:30:20.081+03:00,89,1.483333333333333,2025-04-22T14:20:19.516+03:00,0.02197104130929222,0
2025-04-28T22:42:31.537+03:00,1745869351.133383,40.98570378094778,29.13752618574849,129.2685,-1,-1,-1,-1,30.72688367416445,29.72613821890759,-9999,1232.793885625,-0.5728759765625,0.6446075439453125,-0.538909912109375,1232.788846625,-0.9917179307986687,-1.045069192858668,-0.7840515383656717,-1.437557578086853,-0.3306288421154022,0.04165985062718391,0.03274506330490112,-0.07393646240234375,-0.1256693005561829,XArbitraryZVertical,0.5106439588936602,0.2481451255282112,0.2133055950649476,-0.7950896175636668,-0.6124416589736938,0.706153929233551,-0.3553334772586823,0,0,0,-1,-1,1210.234274541667,unknown,2,2025-04-28T22:41:39.514+03:00,2025-04-28T22:17:59.397+03:00,11,0.7499527,0,0,8.86931,0,0,2025-04-28T22:41:39.514+03:00,767562151.2044723,0,-0.7300001,100.8054,1,0.35,2025-04-28T22:30:20.081+03:00,89,1.483333333333333,2025-04-22T14:20:19.516+03:00,0.02197104130929222,0
2025-04-28T22:42:31.547+03:00,1745869351.133383,40.98570378094778,29.13752618574849,129.2685,-1,-1,-1,-1,30.72688367416445,29.72613821890759,-9999,1232.803962625,-0.552978515625,0.6693267822265625,-0.5840606689453125,1232.798923625,-1.009495093664416,-1.061695229355915,-0.7917100007815886,-1.478087186813354,-0.4761179983615875,0.04565040022134781,0.03936648368835449,-0.07457762956619263,-0.170803427696228,XArbitraryZVertical,0.516952799514762,0.2480556428805653,0.2139137288031733,-0.7908660375804578,-0.6135241389274597,0.7115558385848999,-0.3424564003944397,0,0,0,-1,-1,1210.234274541667,unknown,2,2025-04-28T22:41:39.514+03:00,2025-04-28T22:17:59.397+03:00,11,0.7499527,0,0,8.86931,0,0,2025-04-28T22:41:39.514+03:00,767562151.2044723,0,-0.7300001,100.8054,1,0.35,2025-04-28T22:30:20.081+03:00,89,1.483333333333333,2025-04-22T14:20:19.516+03:00,0.02197104130929222,0
2025-04-28T22:42:31.557+03:00,1745869351.133383,40.98570378094778,29.13752618574849,129.2685,-1,-1,-1,-1,30.72688367416445,29.72613821890759,-9999,1232.814039625,-0.5421600341796875,0.669525146484375,-0.5821990966796875,1232.809001625,-1.028237683857029,-1.080897020654455,-0.799358087152527,-1.54404616355896,-0.667026698589325,0.03652108460664749,0.04973673820495605,-0.06070452928543091,-0.2377530038356781,XArbitraryZVertical,0.5236130065090085,0.2486121380317636,0.2141161300232647,-0.7862414088817363,-0.6151663064956665,0.7169086933135986,-0.3280428349971771,0,0,0,-1,-1,1210.234274541667,unknown,2,2025-04-28T22:41:39.514+03:00,2025-04-28T22:17:59.397+03:00,11,0.7499527,0,0,8.86931,0,0,2025-04-28T22:41:39.514+03:00,767562151.2044723,0,-0.7300001,100.8054,1,0.35,2025-04-28T22:30:20.081+03:00,89,1.483333333333333,2025-04-22T14:20:19.516+03:00,0.02197104130929222,0
2025-04-28T22:42:31.567+03:00,1745869351.133383,40.98570378094778,29.13752618574849,129.2685,-1,-1,-1,-1,30.72688367416445,29.72613821890759,-9999,1232.824117625,-0.5683135986328125,0.63189697265625,-0.5685272216796875,1232.819078625,-1.04844033817714,-1.102802239434063,-0.8072195845431105,-1.621324419975281,-0.8067888021469116,0.06390666961669922,0.07421672344207764,-0.04638767242431641,-0.2747320234775543,XArbitraryZVertical,0.5307628856172708,0.2496434310367875,0.2139758165036724,-0.7811422214760279,-0.6171548962593079,0.7223672866821289,-0.3119378387928009,0,0,0,-1,-1,1210.234274541667,unknown,2,2025-04-28T22:41:39.514+03:00,2025-04-28T22:17:59.397+03:00,11,0.7499527,0,0,8.86931,0,0,2025-04-28T22:41:39.514+03:00,767562151.2044723,0,-0.7300001,100.8054,1,0.35,2025-04-28T22:30:20.081+03:00,89,1.483333333333333,2025-04-22T14:20:19.516+03:00,0.02197104130929222,0
2025-04-28T22:42:31.577+03:00,1745869351.133383,40.98570378094778,29.13752618574849,129.2685,-1,-1,-1,-1,30.72688367416445,29.72613821890759,-9999,1232.834194625,-0.6031036376953125,0.60723876953125,-0.5422210693359375,1232.829155625,-1.069663301388287,-1.127011990403907,-0.8152401992789662,-1.691905975341797,-0.932134211063385,0.09145840257406235,0.06695032119750977,-0.07586705684661865,-0.2825099527835846,XArbitraryZVertical,0.5382825755307852,0.2510918030202637,0.2134047581484404,-0.7756694454283483,-0.6192725896835327,0.7278903126716614,-0.2944095432758331,0,0,0,-1,-1,1210.234274541667,unknown,2,2025-04-28T22:41:39.514+03:00,2025-04-28T22:17:59.397+03:00,11,0.7499527,0,0,8.86931,0,0,2025-04-28T22:41:39.514+03:00,767562151.2044723,0,-0.7300001,100.8054,1,0.35,2025-04-28T22:30:20.081+03:00,89,1.483333333333333,2025-04-22T14:20:19.516+03:00,0.02197104130929222,0
2025-04-28T22:42:31.587+03:00,1745869351.133383,40.98570378094778,29.13752618574849,129.2685,-1,-1,-1,-1,30.72688367416445,29.72613821890759,-9999,1232.844271625,-0.622344970703125,0.62530517578125,-0.50323486328125,1232.839233625,-1.091674761420818,-1.152810999698217,-0.8234988427948692,-1.689916968345642,-1.010215640068054,0.1520075500011444,0.03458309173583984,-0.1175004839897156,-0.2804481983184814,XArbitraryZVertical,0.5460798058857677,0.2526919974843212,0.2124512035930088,-0.7699403670066525,-0.6211461424827576,0.7335283160209656,-0.2758871912956238,0,0,0,-1,-1,1210.234274541667,unknown,2,2025-04-28T22:41:39.514+03:00,2025-04-28T22:17:59.397+03:00,11,0.7499527,0,0,8.86931,0,0,2025-04-28T22:41:39.514+03:00,767562151.2044723,0,-0.7300001,100.8054,1,0.35,2025-04-28T22:30:20.081+03:00,89,1.483333333333333,2025-04-22T14:20:19.516+03:00,0.02197104130929222,0
2025-04-28T22:42:31.597+03:00,1745869351.133383,40.98570378094778,29.13752618574849,129.2685,-1,-1,-1,-1,30.72688367416445,29.72613821890759,-9999,1232.854349625,-0.6152801513671875,0.6721343994140625,-0.464508056640625,1232.849310625,-1.113538277348497,-1.179667698416024,-0.8315786490722999,-1.642645597457886,-1.128903865814209,0.1504839658737183,0.007306814193725586,-0.1282780170440674,-0.2680776715278625,XArbitraryZVertical,0.5538579007417487,0.2546006365973394,0.2110058209365031,-0.7641312642533754,-0.6228311061859131,0.7389958500862122,-0.2568398714065552,0,0,0,-1,-1,1210.234274541667,unknown,2,2025-04-28T22:41:39.514+03:00,2025-04-28T22:17:59.397+03:00,11,0.7499527,0,0,8.86931,0,0,2025-04-28T22:41:39.514+03:00,767562151.2044723,0,-0.7300001,100.8054,1,0.35,2025-04-28T22:30:20.081+03:00,89,1.483333333333333,2025-04-22T14:20:19.516+03:00,0.02197104130929222,0
2025-04-28T22:42:31.612+03:00,1745869351.133383,40.98570378094778,29.13752618574849,129.2685,-1,-1,-1,-1,30.72688367416445,29.72613821890759,-9999,1232.864426625,-0.6038055419921875,0.7444610595703125,-0.39453125,1232.859387625,-1.135633302975912,-1.208003863565534,-0.8386647955839529,-1.603705644607544,-1.243597745895386,0.06930150091648102,0.004310250282287598,-0.09825879335403442,-0.2469963878393173,XArbitraryZVertical,0.561498306053138,0.257112143327376,0.2093394807367977,-0.7581489499890971,-0.624946117401123,0.7437512278556824,-0.2372259944677353,0,0,0,-1,-1,1210.234274541667,unknown,2,2025-04-28T22:41:39.514+03:00,2025-04-28T22:17:59.397+03:00,11,0.7499527,0,0,8.86931,0,0,2025-04-28T22:41:39.514+03:00,767562151.2044723,0,-0.7300001,100.8054,1,0.35,2025-04-28T22:30:20.081+03:00,89,1.483333333333333,2025-04-22T14:20:19.516+03:00,0.02197104130929222,0
2025-04-28T22:42:31.617+03:00,1745869351.133383,40.98570378094778,29.13752618574849,129.2685,-1,-1,-1,-1,30.72688367416445,29.72613821890759,-9999,1232.874503625,-0.5972747802734375,0.802581787109375,-0.3268280029296875,1232.869465625,-1.157438994981783,-1.237173234071843,-0.8444889448180497,-1.50915539264679,-1.320101261138916,0.04455593973398209,0.01918888092041016,-0.04122614860534668,-0.2175059914588928,XArbitraryZVertical,0.5688170712994172,0.2602095601088488,0.2075199755742721,-0.7521127771035416,-0.6274957060813904,0.7476317882537842,-0.2174762487411499,0,0,0,-1,-1,1210.234274541667,unknown,2,2025-04-28T22:41:39.514+03:00,2025-04-28T22:17:59.397+03:00,11,0.7499527,0,0,8.86931,0,0,2025-04-28T22:41:39.514+03:00,767562151.2044723,0,-0.7300001,100.8054,1,0.35,2025-04-28T22:30:20.081+03:00,89,1.483333333333333,2025-04-22T14:20:19.516+03:00,0.02197104130929222,0
2025-04-28T22:42:31.627+03:00,1745869351.133383,40.98570378094778,29.13752618574849,129.2685,-1,-1,-1,-1,30.72688367416445,29.72613821890759,-9999,1232.884581625,-0.5819091796875,0.8072967529296875,-0.3054962158203125,1232.879542625,-1.179241271535782,-1.267083177890482,-0.8497830349570221,-1.563522815704346,-1.366781115531921,0.05283424258232117,0.02873677015304565,0.02838855981826782,-0.157004177570343,XArbitraryZVertical,0.5760399485112212,0.2635612235694705,0.205459073618236,-0.7459893068881353,-0.6299329996109009,0.7511371970176697,-0.1974269151687622,0,0,0,-1,-1,1210.234274541667,unknown,2,2025-04-28T22:41:39.514+03:00,2025-04-28T22:17:59.397+03:00,11,0.7499527,0,0,8.86931,0,0,2025-04-28T22:41:39.514+03:00,767562151.2044723,0,-0.7300001,100.8054,1,0.35,2025-04-28T22:30:20.081+03:00,89,1.483333333333333,2025-04-22T14:20:19.516+03:00,0.02197104130929222,0
2025-04-28T22:42:31.637+03:00,1745869351.133383,40.98570378094778,29.13752618574849,129.2685,-1,-1,-1,-1,30.72688367416445,29.72613821890759,-9999,1232.894658625,-0.5869140625,0.76458740234375,-0.2810211181640625,1232.889619625,-1.202694824711954,-1.298602590683793,-0.854717165412628,-1.630748987197876,-1.380167722702026,0.01763524115085602,0.04235965013504028,0.05817574262619019,-0.13713538646698,XArbitraryZVertical,0.5835211375380457,0.2669528787863606,0.2034607627020384,-0.7394883422325188,-0.6322643756866455,0.7543852925300598,-0.1764784902334213,0,0,0,-1,-1,1210.234274541667,unknown,2,2025-04-28T22:41:39.514+03:00,2025-04-28T22:17:59.397+03:00,11,0.7499527,0,0,8.86931,0,0,2025-04-28T22:41:39.514+03:00,767562151.2044723,0,-0.7300001,100.8054,1,0.35,2025-04-28T22:30:20.081+03:00,89,1.483333333333333,2025-04-22T14:20:19.516+03:00,0.02197104130929222,0
2025-04-28T22:42:31.647+03:00,1745869351.133383,40.98570378094778,29.13752618574849,129.2685,-1,-1,-1,-1,30.72688367416445,29.72613821890759,-9999,1232.904735625,-0.6157989501953125,0.730438232421875,-0.2621917724609375,1232.899697625,-1.226688856510024,-1.330492484091507,-0.858980214177261,-1.597859025001526,-1.356125354766846,0.002819610293954611,0.05498790740966797,0.03301483392715454,-0.138742208480835,XArbitraryZVertical,0.590925182333918,0.2703260708920664,0.2015566653706762,-0.7328752363106266,-0.6344403624534607,0.7571768164634705,-0.1554624885320663,0,0,0,-1,-1,1210.234274541667,unknown,2,2025-04-28T22:41:39.514+03:00,2025-04-28T22:17:59.397+03:00,11,0.7499527,0,0,8.86931,0,0,2025-04-28T22:41:39.514+03:00,767562151.2044723,0,-0.7300001,100.8054,1,0.35,2025-04-28T22:30:20.081+03:00,89,1.483333333333333,2025-04-22T14:20:19.516+03:00,0.02197104130929222,0
2025-04-28T22:42:31.657+03:00,1745869351.133383,40.98570378094778,29.13752618574849,129.2685,-1,-1,-1,-1,30.72688367416445,29.72613821890759,-9999,1232.914813625,-0.639373779296875,0.769012451171875,-0.23004150390625,1232.909774625,-1.250623215940308,-1.362122553733472,-0.8622202551519805,-1.559045314788818,-1.320194602012634,-0.07156381011009216,0.03502786159515381,-0.01855134963989258,-0.1357113122940063,XArbitraryZVertical,0.5980478718419592,0.2737386990327915,0.1998316378912885,-0.7262734452506131,-0.6366360783576965,0.7592892646789551,-0.1348117291927338,0,0,0,-1,-1,1210.234274541667,unknown,2,2025-04-28T22:41:39.514+03:00,2025-04-28T22:17:59.397+03:00,11,0.7499527,0,0,8.86931,0,0,2025-04-28T22:41:39.514+03:00,767562151.2044723,0,-0.7300001,100.8054,1,0.35,2025-04-28T22:30:20.081+03:00,89,1.483333333333333,2025-04-22T14:20:19.516+03:00,0.02197104130929222,0
2025-04-28T22:42:31.667+03:00,1745869351.133383,40.98570378094778,29.13752618574849,129.2685,-1,-1,-1,-1,30.72688367416445,29.72613821890759,-9999,1232.924890625,-0.65264892578125,0.8424835205078125,-0.185394287109375,1232.919851625,-1.273035645470059,-1.392293881121684,-0.8640941754703316,-1.332656145095825,-1.297470092773438,-0.111970454454422,0.01092952489852905,-0.01972377300262451,-0.1343719810247421,XArbitraryZVertical,0.6045222661781934,0.2773205496726094,0.1982490601144228,-0.7199606389082494,-0.6390116810798645,0.7605074048042297,-0.1152922883629799,0,0,0,-1,-1,1210.234274541667,unknown,2,2025-04-28T22:41:39.514+03:00,2025-04-28T22:17:59.397+03:00,11,0.7499527,0,0,8.86931,0,0,2025-04-28T22:41:39.514+03:00,767562151.2044723,0,-0.7300001,100.8054,1,0.35,2025-04-28T22:30:20.081+03:00,89,1.483333333333333,2025-04-22T14:20:19.516+03:00,0.02197104130929222,0
2025-04-28T22:42:31.677+03:00,1745869351.133383,40.98570378094778,29.13752618574849,129.2685,-1,-1,-1,-1,30.72688367416445,29.72613821890759,-9999,1232.934967625,-0.6436767578125,0.88885498046875,-0.1614227294921875,1232.929929625,-1.291977054772912,-1.419846275889333,-0.8647467677366726,-1.105781435966492,-1.314891934394836,-0.1629132628440857,-0.007318437099456787,0.04561805725097656,-0.1084695979952812,XArbitraryZVertical,0.6100145535157395,0.2812424920142886,0.1964590039925995,-0.7142749442008899,-0.6414546370506287,0.7609309554100037,-0.09756980836391449,0,0,0,-1,-1,1210.234274541667,unknown,2,2025-04-28T22:41:39.514+03:00,2025-04-28T22:17:59.397+03:00,11,0.7499527,0,0,8.86931,0,0,2025-04-28T22:41:39.514+03:00,767562151.2044723,0,-0.7300001,100.8054,1,0.35,2025-04-28T22:30:20.081+03:00,89,1.483333333333333,2025-04-22T14:20:19.516+03:00,0.02197104130929222,0
2025-04-28T22:42:31.687+03:00,1745869351.133383,40.98570378094778,29.13752618574849,129.2685,-1,-1,-1,-1,30.72688367416445,29.72613821890759,-9999,1232.945045625,-0.6463623046875,0.8889312744140625,-0.133087158203125,1232.940006625,-1.30703421746219,-1.444466661178235,-0.8645088774967123,-0.7938668727874756,-1.299106597900391,-0.1415936946868896,-0.005892515182495117,0.1090202927589417,-0.0898590162396431,XArbitraryZVertical,0.6145083843843316,0.2854707365668843,0.194359998415855,-0.7093026035645166,-0.6438419818878174,0.7607766389846802,-0.08177180588245392,0,0,0,-1,-1,1210.234274541667,unknown,2,2025-04-28T22:41:39.514+03:00,2025-04-28T22:17:59.397+03:00,11,0.7499527,0,0,8.86931,0,0,2025-04-28T22:41:39.514+03:00,767562151.2044723,0,-0.7300001,100.8054,1,0.35,2025-04-28T22:30:20.081+03:00,89,1.483333333333333,2025-04-22T14:20:19.516+03:00,0.02197104130929222,0
2025-04-28T22:42:31.698+03:00,1745869351.133383,40.98570378094778,29.13752618574849,129.2685,-1,-1,-1,-1,30.72688367416445,29.72613821890759,-9999,1232.955122625,-0.6336669921875,0.8581390380859375,-0.109893798828125,1232.950083625,-1.316835442611906,-1.465003160786577,-0.8641307360120291,-0.4636743068695068,-1.306824684143066,-0.08395916223526001,0.002757549285888672,0.1356787085533142,-0.07987386733293533,XArbitraryZVertical,0.6178303302217042,0.2898342336587116,0.191625951456779,-0.705380276431022,-0.6456713676452637,0.7605311274528503,-0.06856360286474228,0,0,0,-1,-1,1210.234274541667,unknown,2,2025-04-28T22:41:39.514+03:00,2025-04-28T22:17:59.397+03:00,11,0.7499527,0,0,8.86931,0,0,2025-04-28T22:41:39.514+03:00,767562151.2044723,0,-0.7300001,100.8054,1,0.35,2025-04-28T22:30:20.081+03:00,89,1.483333333333333,2025-04-22T14:20:19.516+03:00,0.02197104130929222,0
2025-04-28T22:42:31.708+03:00,1745869351.133383,40.98570378094778,29.13752618574849,129.2685,-1,-1,-1,-1,30.72688367416445,29.72613821890759,-9999,1232.965199625,-0.6234283447265625,0.8367767333984375,-0.088958740234375,1232.960161625,-1.321926953155995,-1.482203311041786,-0.8637920255115215,-0.1982652992010117,-1.343096017837524,-0.04873073473572731,0.00367051362991333,0.1130866408348083,-0.06177628040313721,XArbitraryZVertical,0.6201465618099311,0.2944192144383593,0.1882082770071253,-0.7023625442718315,-0.6470115184783936,0.7603111863136292,-0.0574711374938488,0,0,0,-1,-1,1210.234274541667,unknown,2,2025-04-28T22:41:39.514+03:00,2025-04-28T22:17:59.397+03:00,11,0.7499527,0,0,8.86931,0,0,2025-04-28T22:41:39.514+03:00,767562151.2044723,0,-0.7300001,100.8054,1,0.35,2025-04-28T22:30:20.081+03:00,89,1.483333333333333,2025-04-22T14:20:19.516+03:00,0.02197104130929222,0
2025-04-28T22:42:31.718+03:00,1745869351.133383,40.98570378094778,29.13752618574849,129.2685,-1,-1,-1,-1,30.72688367416445,29.72613821890759,-9999,1232.975277625,-0.6354522705078125,0.806121826171875,-0.0385894775390625,1232.970238625,-1.323710778111002,-1.497036173199736,-0.8634084126486749,-0.04900070652365685,-1.340966105461121,-0.05469701439142227,0.02274793386459351,0.08704495429992676,-0.05290991067886353,XArbitraryZVertical,0.6217252058102514,0.2991871607530727,0.1843579398933879,-0.6999692000126213,-0.6480835676193237,0.7600619196891785,-0.04788962379097939,0,0,0,-1,-1,1210.234274541667,unknown,2,2025-04-28T22:41:39.514+03:00,2025-04-28T22:17:59.397+03:00,11,0.7499527,0,0,8.86931,0,0,2025-04-28T22:41:39.514+03:00,767562151.2044723,0,-0.7300001,100.8054,1,0.35,2025-04-28T22:30:20.081+03:00,89,1.483333333333333,2025-04-22T14:20:19.516+03:00,0.02197104130929222,0
2025-04-28T22:42:31.728+03:00,1745869351.133383,40.98570378094778,29.13752618574849,129.2685,-1,-1,-1,-1,30.72688367416445,29.72613821890759,-9999,1232.985354625,-0.6496429443359375,0.782562255859375,0.0304107666015625,1232.980315625,-1.32370757256154,-1.509865243012716,-0.8632390899281365,0.04180276393890381,-1.24637234210968,0.01973730698227882,0.02204883098602295,0.06240516901016235,-0.03054993972182274,XArbitraryZVertical,0.6228652392211083,0.303725496684234,0.1804223793438464,-0.6980238951456003,-0.6487729549407959,0.7599518895149231,-0.03957943245768547,0,0,0,-1,-1,1210.234274541667,unknown,2,2025-04-28T22:41:39.514+03:00,2025-04-28T22:17:59.397+03:00,11,0.7499527,0,0,8.86931,0,0,2025-04-28T22:41:39.514+03:00,767562151.2044723,0,-0.7300001,100.8054,1,0.35,2025-04-28T22:30:20.081+03:00,89,1.483333333333333,2025-04-22T14:20:19.516+03:00,0.02197104130929222,0
2025-04-28T22:42:31.738+03:00,1745869351.133383,40.98570378094778,29.13752618574849,129.2685,-1,-1,-1,-1,30.72688367416445,29.72613821890759,-9999,1232.995431625,-0.645751953125,0.76702880859375,0.0492095947265625,1232.990393625,-1.322329470920704,-1.521149955017107,-0.863720675535988,0.1254475861787796,-1.202711701393127,0.08677413314580917,0.004418849945068359,0.03181880712509155,0.0315815843641758,XArbitraryZVertical,0.6237435927683782,0.3079368259810544,0.176261444715904,-0.6964557308391428,-0.6488126516342163,0.7602648138999939,-0.03223768249154091,0,0,0,-1,-1,1210.234274541667,unknown,2,2025-04-28T22:41:39.514+03:00,2025-04-28T22:17:59.397+03:00,11,0.7499527,0,0,8.86931,0,0,2025-04-28T22:41:39.514+03:00,767562151.2044723,0,-0.7300001,100.8054,1,0.35,2025-04-28T22:30:20.081+03:00,89,1.483333333333333,2025-04-22T14:20:19.516+03:00,0.02197104130929222,0
2025-04-28T22:42:31.748+03:00,1745869351.133383,40.98570378094778,29.13752618574849,129.2685,-1,-1,-1,-1,30.72688367416445,29.72613821890759,-9999,1233.005509625,-0.6486358642578125,0.7454986572265625,0.044464111328125,1233.000470625,-1.319447146745074,-1.530673280810104,-0.8648487008357872,0.2231862097978592,-1.125666379928589,0.1512707322835922,-0.0002806782722473145,0.01366102695465088,0.07190626859664917,XArbitraryZVertical,0.6243181338558667,0.3117937519434866,0.1719029009199122,-0.695313470831438,-0.6482329964637756,0.7609971165657043,-0.02602304704487324,0,0,0,-1,-1,1210.234274541667,unknown,2,2025-04-28T22:41:39.514+03:00,2025-04-28T22:17:59.397+03:00,11,0.7499527,0,0,8.86931,0,0,2025-04-28T22:41:39.514+03:00,767562151.2044723,0,-0.7300001,100.8054,1,0.35,2025-04-28T22:30:20.081+03:00,89,1.483333333333333,2025-04-22T14:20:19.516+03:00,0.02197104130929222,0
2025-04-28T22:42:31.758+03:00,1745869351.133383,40.98570378094778,29.13752618574849,129.2685,-1,-1,-1,-1,30.72688367416445,29.72613821890759,-9999,1233.015586625,-0.6533660888671875,0.7304840087890625,0.0440521240234375,1233.010547625,-1.315368277794648,-1.538474538151437,-0.8664937946442948,0.2728842496871948,-1.045626640319824,0.1890074610710144,0.001778542995452881,-0.005257964134216309,0.06885266304016113,XArbitraryZVertical,0.6246190531114261,0.3152596441361205,0.1674878963573853,-0.6945575019869158,-0.6471641659736633,0.7620633244514465,-0.02092478983104229,0,0,0,-1,-1,1210.234274541667,unknown,2,2025-04-28T22:41:39.514+03:00,2025-04-28T22:17:59.397+03:00,11,0.7499527,0,0,8.86931,0,0,2025-04-28T22:41:39.514+03:00,767562151.2044723,0,-0.7300001,100.8054,1,0.35,2025-04-28T22:30:20.081+03:00,89,1.483333333333333,2025-04-22T14:20:19.516+03:00,0.02197104130929222,0
2025-04-28T22:42:31.768+03:00,1745869351.133383,40.98570378094778,29.13752618574849,129.2685,-1,-1,-1,-1,30.72688367416445,29.72613821890759,-9999,1233.025663625,-0.64996337890625,0.7308502197265625,0.0701751708984375,1233.020625625,-1.31049934173315,-1.544938937588053,-0.8684793627007558,0.3456456065177917,-0.9815768003463745,0.2260993272066116,-0.006007134914398193,-0.02816390991210938,0.05794620513916016,XArbitraryZVertical,0.6247164725556835,0.3183998735625219,0.1630986440975132,-0.694081811370344,-0.6457719206809998,0.7633475065231323,-0.01670169830322266,0,0,0,-1,-1,1210.234274541667,unknown,2,2025-04-28T22:41:39.514+03:00,2025-04-28T22:17:59.397+03:00,11,0.7499527,0,0,8.86931,0,0,2025-04-28T22:41:39.514+03:00,767562151.2044723,0,-0.7300001,100.8054,1,0.35,2025-04-28T22:30:20.081+03:00,89,1.483333333333333,2025-04-22T14:20:19.516+03:00,0.02197104130929222,0
2025-04-28T22:42:31.778+03:00,1745869351.133383,40.98570378094778,29.13752618574849,129.2685,-1,-1,-1,-1,30.72688367416445,29.72613821890759,-9999,1233.035741625,-0.629547119140625,0.7336273193359375,0.0835723876953125,1233.030702625,-1.304760958397005,-1.550198629878601,-0.8707865298293584,0.3605811297893524,-0.9422562718391418,0.2460192441940308,-0.008987665176391602,-0.03525221347808838,0.06810873746871948,XArbitraryZVertical,0.6246093374678359,0.3212924974137887,0.1586729437883816,-0.6938710940079981,-0.6440883874893188,0.7648358941078186,-0.01326861325651407,0,0,0,-1,-1,1210.234274541667,unknown,2,2025-04-28T22:41:39.514+03:00,2025-04-28T22:17:59.397+03:00,11,0.7499527,0,0,8.86931,0,0,2025-04-28T22:41:39.514+03:00,767562151.2044723,0,-0.7300001,100.8054,1,0.35,2025-04-28T22:30:20.081+03:00,89,1.483333333333333,2025-04-22T14:20:19.516+03:00,0.02197104130929222,0
2025-04-28T22:42:31.788+03:00,1745869351.133383,40.98570378094778,29.13752618574849,129.2685,-1,-1,-1,-1,30.72688367416445,29.72613821890759,-9999,1233.045818625,-0.6110687255859375,0.733612060546875,0.082855224609375,1233.040779625,-1.299008984293073,-1.555167574325818,-0.8733473993983756,0.3528491854667664,-0.9232508540153503,0.2766947448253632,0.001713693141937256,-0.03433579206466675,0.09087848663330078,XArbitraryZVertical,0.6244992251523301,0.3240092981841779,0.1542452800299902,-0.6937053864721984,-0.6421861052513123,0.7664831280708313,-0.0100373849272728,0,0,0,-1,-1,1210.234274541667,unknown,2,2025-04-28T22:41:39.514+03:00,2025-04-28T22:17:59.397+03:00,11,0.7499527,0,0,8.86931,0,0,2025-04-28T22:41:39.514+03:00,767562151.2044723,0,-0.7300001,100.8054,1,0.35,2025-04-28T22:30:20.081+03:00,89,1.483333333333333,2025-04-22T14:20:19.516+03:00,0.02197104130929222,0
2025-04-28T22:42:31.798+03:00,1745869351.133383,40.98570378094778,29.13752618574849,129.2685,-1,-1,-1,-1,30.72688367416445,29.72613821890759,-9999,1233.055895625,-0.6031951904296875,0.7158203125,0.0939483642578125,1233.050857625,-1.294420157339434,-1.560676347351252,-0.8760268131140274,0.2124872803688049,-0.8667148947715759,0.2540775835514069,0.02126401662826538,-0.03249865770339966,0.09053945541381836,XArbitraryZVertical,0.6246196378112188,0.3265132688949225,0.1500103175900673,-0.693351559387654,-0.6401757597923279,0.7682012915611267,-0.006478786468505859,0,0,0,-1,-1,1210.234274541667,unknown,2,2025-04-28T22:41:39.514+03:00,2025-04-28T22:17:59.397+03:00,11,0.7499527,0,0,8.86931,0,0,2025-04-28T22:41:39.514+03:00,767562151.2044723,0,-0.7300001,100.8054,1,0.35,2025-04-28T22:30:20.081+03:00,89,1.483333333333333,2025-04-22T14:20:19.516+03:00,0.02197104130929222,0
2025-04-28T22:42:31.809+03:00,1745869351.133383,40.98570378094778,29.13752618574849,129.2685,-1,-1,-1,-1,30.72688367416445,29.72613821890759,-9999,1233.065973625,-0.6036834716796875,0.7205963134765625,0.14013671875,1233.060934625,-1.292140920824408,-1.567254063728079,-0.878517775853782,0.07674204558134079,-0.800067126750946,0.2456164807081223,0.03262197971343994,-0.04417705535888672,0.08636748790740967,XArbitraryZVertical,0.6251474600014412,0.3287250440553533,0.1463051539166814,-0.6926221599889325,-0.6382890939712524,0.7697936296463013,-0.002260997425764799,0,0,0,-1,-1,1210.234274541667,unknown,2,2025-04-28T22:41:39.514+03:00,2025-04-28T22:17:59.397+03:00,11,0.7499527,0,0,8.86931,0,0,2025-04-28T22:41:39.514+03:00,767562151.2044723,0,-0.7300001,100.8054,1,0.35,2025-04-28T22:30:20.081+03:00,89,1.483333333333333,2025-04-22T14:20:19.516+03:00,0.02197104130929222,0
2025-04-28T22:42:31.819+03:00,1745869351.133383,40.98570378094778,29.13752618574849,129.2685,-1,-1,-1,-1,30.72688367416445,29.72613821890759,-9999,1233.076050625,-0.5958099365234375,0.75555419921875,0.1522216796875,1233.071011625,-1.291629560843429,-1.574697104773243,-0.8809474410387583,-0.01735596172511578,-0.7602890729904175,0.23793725669384,0.03235089778900146,-0.05851268768310547,0.1144455671310425,XArbitraryZVertical,0.6260018558284584,0.3307006819110668,0.142959134133832,-0.6916078237234883,-0.6364157199859619,0.7713422179222107,0.00248252903111279,0,0,0,-1,-1,1210.234274541667,unknown,2,2025-04-28T22:41:39.514+03:00,2025-04-28T22:17:59.397+03:00,11,0.7499527,0,0,8.86931,0,0,2025-04-28T22:41:39.514+03:00,767562151.2044723,0,-0.7300001,100.8054,1,0.35,2025-04-28T22:30:20.081+03:00,89,1.483333333333333,2025-04-22T14:20:19.516+03:00,0.02197104130929222,0
2025-04-28T22:42:31.857+03:00,1745869351.133383,40.98570378094778,29.13752618574849,129.2685,-1,-1,-1,-1,30.72688367416445,29.72613821890759,-9999,1233.086127625,-0.6048583984375,0.7964324951171875,0.1399383544921875,1233.081089625,-1.292007705578871,-1.582379127269781,-0.8833359490101208,-0.02030900679528713,-0.7110231518745422,0.2363251596689224,0.03567230701446533,-0.03734070062637329,0.1453447341918945,XArbitraryZVertical,0.6269972962573124,0.3324896910053651,0.1398550921916625,-0.6904821185269145,-0.6345338821411133,0.7728601098060608,0.007350008469074965,0,0,0,-1,-1,1210.234274541667,unknown,2,2025-04-28T22:41:39.514+03:00,2025-04-28T22:17:59.397+03:00,11,0.7499527,0,0,8.86931,0,0,2025-04-28T22:41:39.514+03:00,767562151.2044723,0,-0.7300001,100.8054,1,0.35,2025-04-28T22:30:20.081+03:00,89,1.483333333333333,2025-04-22T14:20:19.516+03:00,0.02197104130929222,0
2025-04-28T22:42:31.860+03:00,1745869351.133383,40.98570378094778,29.13752618574849,129.2685,-1,-1,-1,-1,30.72688367416445,29.72613821890759,-9999,1233.096205625,-0.620208740234375,0.82147216796875,0.114501953125,1233.091166625,-1.291864388837637,-1.589181042661162,-0.8857214764747183,0.04615470394492149,-0.665016770362854,0.2372221201658249,0.03527295589447021,0.002514302730560303,0.135661244392395,XArbitraryZVertical,0.6278291365976475,0.3341355058348791,0.1368429232884519,-0.6895346181470923,-0.6326239705085754,0.7743716835975647,0.01163192186504602,0,0,0,-1,-1,1210.234274541667,unknown,2,2025-04-28T22:41:39.514+03:00,2025-04-28T22:17:59.397+03:00,11,0.7499527,0,0,8.86931,0,0,2025-04-28T22:41:39.514+03:00,767562151.2044723,0,-0.7300001,100.8054,1,0.35,2025-04-28T22:30:20.081+03:00,89,1.483333333333333,2025-04-22T14:20:19.516+03:00,0.02197104130929222,0
2025-04-28T22:42:31.862+03:00,1745869351.133383,40.98570378094778,29.13752618574849,129.2685,-1,-1,-1,-1,30.72688367416445,29.72613821890759,-9999,1233.106282625,-0.619354248046875,0.8369598388671875,0.0906219482421875,1233.101243625,-1.290219805300457,-1.594460718628823,-0.8881019404433003,0.165782555937767,-0.6431164741516113,0.2290399670600891,0.01672619581222534,0.03482377529144287,0.1137034893035889,XArbitraryZVertical,0.6282922204015899,0.3357275008760288,0.1337896943840429,-0.6889385371548142,-0.6307092905044556,0.7758756875991821,0.01492813788354397,0,0,0,-1,-1,1210.234274541667,unknown,2,2025-04-28T22:41:39.514+03:00,2025-04-28T22:17:59.397+03:00,11,0.7499527,0,0,8.86931,0,0,2025-04-28T22:41:39.514+03:00,767562151.2044723,0,-0.7300001,100.8054,1,0.35,2025-04-28T22:30:20.081+03:00,89,1.483333333333333,2025-04-22T14:20:19.516+03:00,0.02197104130929222,0
2025-04-28T22:42:31.864+03:00,1745869351.133383,40.98570378094778,29.13752618574849,129.2685,-1,-1,-1,-1,30.72688367416445,29.72613821890759,-9999,1233.116359625,-0.6156158447265625,0.84393310546875,0.076324462890625,1233.111321625,-1.286547654161377,-1.597994009295856,-0.8903449153007891,0.2989510297775269,-0.6306965947151184,0.2041255682706833,0.007573425769805908,0.05204164981842041,0.08385825157165527,XArbitraryZVertical,0.6282655462270654,0.337397357181697,0.1306330437964401,-0.6887527796251803,-0.6289111971855164,0.7772887945175171,0.01710914634168148,0,0,0,-1,-1,1210.234274541667,unknown,2,2025-04-28T22:41:39.514+03:00,2025-04-28T22:17:59.397+03:00,11,0.7499527,0,0,8.86931,0,0,2025-04-28T22:41:39.514+03:00,767562151.2044723,0,-0.7300001,100.8054,1,0.35,2025-04-28T22:30:20.081+03:00,89,1.483333333333333,2025-04-22T14:20:19.516+03:00,0.02197104130929222,0
2025-04-28T22:42:31.869+03:00,1745869351.133383,40.98570378094778,29.13752618574849,129.2685,-1,-1,-1,-1,30.72688367416445,29.72613821890759,-9999,1233.126437625,-0.61785888671875,0.8342437744140625,0.06158447265625,1233.121398625,-1.281034669101614,-1.599998817712055,-0.8924297810731108,0.3892819583415985,-0.6195792555809021,0.193255603313446,0.01057064533233643,0.06411361694335938,0.06418168544769287,XArbitraryZVertical,0.6277946276887475,0.3391684046082532,0.1273770173323013,-0.6889221944202035,-0.6272544860839844,0.7785987854003906,0.01832260191440582,0,0,0,-1,-1,1210.234274541667,unknown,2,2025-04-28T22:41:39.514+03:00,2025-04-28T22:17:59.397+03:00,11,0.7499527,0,0,8.86931,0,0,2025-04-28T22:41:39.514+03:00,767562151.2044723,0,-0.7300001,100.8054,1,0.35,2025-04-28T22:30:20.081+03:00,89,1.483333333333333,2025-04-22T14:20:19.516+03:00,0.02197104130929222,0
2025-04-28T22:42:31.879+03:00,1745869351.133383,40.98570378094778,29.13752618574849,129.2685,-1,-1,-1,-1,30.72688367416445,29.72613821890759,-9999,1233.136514625,-0.62261962890625,0.807525634765625,0.0464324951171875,1233.131475625,-1.274530251127582,-1.601055940488983,-0.8944547726469757,0.4164203703403473,-0.5977338552474976,0.1810881495475769,0.00976717472076416,0.06128811836242676,0.05059635639190674,XArbitraryZVertical,0.6270785635492644,0.3409419948148323,0.1240966045832573,-0.6892975245326167,-0.6256575584411621,0.7798678874969482,0.01893793791532516,0,0,0,-1,-1,1210.234274541667,unknown,2,2025-04-28T22:41:39.514+03:00,2025-04-28T22:17:59.397+03:00,11,0.7499527,0,0,8.86931,0,0,2025-04-28T22:41:39.514+03:00,767562151.2044723,0,-0.7300001,100.8054,1,0.35,2025-04-28T22:30:20.081+03:00,89,1.483333333333333,2025-04-22T14:20:19.516+03:00,0.02197104130929222,0
2025-04-28T22:42:31.889+03:00,1745869351.133383,40.98570378094778,29.13752618574849,129.2685,-1,-1,-1,-1,30.72688367416445,29.72613821890759,-9999,1233.146591625,-0.6265106201171875,0.787628173828125,0.054443359375,1233.141553625,-1.268320933711479,-1.602096883719626,-0.8962554949384801,0.3547746539115906,-0.5749139785766602,0.1551889479160309,0.004359841346740723,0.04070717096328735,0.03236520290374756,XArbitraryZVertical,0.6263696512381921,0.3426859621100448,0.1209998907726446,-0.6896277046823532,-0.6242327690124512,0.7809938192367554,0.01954521797597408,0,0,0,-1,-1,1210.234274541667,unknown,2,2025-04-28T22:41:39.514+03:00,2025-04-28T22:17:59.397+03:00,11,0.7499527,0,0,8.86931,0,0,2025-04-28T22:41:39.514+03:00,767562151.2044723,0,-0.7300001,100.8054,1,0.35,2025-04-28T22:30:20.081+03:00,89,1.483333333333333,2025-04-22T14:20:19.516+03:00,0.02197104130929222,0
2025-04-28T22:42:31.899+03:00,1745869351.133383,40.98570378094778,29.13752618574849,129.2685,-1,-1,-1,-1,30.72688367416445,29.72613821890759,-9999,1233.156669625,-0.62298583984375,0.785980224609375,0.0784454345703125,1233.151630625,-1.263062228706191,-1.603634289899148,-0.8978438029775982,0.3026456832885742,-0.5505601763725281,0.1403380930423737,-0.002008020877838135,0.01331847906112671,0.02605986408889294,XArbitraryZVertical,0.6258134365443354,0.3443684242180245,0.1181488998946604,-0.6897888625681864,-0.6229613423347473,0.7819847464561462,0.02046413719654083,0,0,0,-1,-1,1210.234274541667,unknown,2,2025-04-28T22:41:39.514+03:00,2025-04-28T22:17:59.397+03:00,11,0.7499527,0,0,8.86931,0,0,2025-04-28T22:41:39.514+03:00,767562151.2044723,0,-0.7300001,100.8054,1,0.35,2025-04-28T22:30:20.081+03:00,89,1.483333333333333,2025-04-22T14:20:19.516+03:00,0.02197104130929222,0
2025-04-28T22:42:31.909+03:00,1745869351.133383,40.98570378094778,29.13752618574849,129.2685,-1,-1,-1,-1,30.72688367416445,29.72613821890759,-9999,1233.166746625,-0.6235198974609375,0.779815673828125,0.0884552001953125,1233.161707625,-1.258558220054131,-1.605599933107412,-0.8993335592186302,0.2598870396614075,-0.5446820259094238,0.1360918134450912,-0.003718078136444092,0.003250718116760254,0.04466664791107178,XArbitraryZVertical,0.6253905004653573,0.3459924102526145,0.1154583493711164,-0.6898153185840443,-0.6217548251152039,0.7829124927520752,0.02164805121719837,0,0,0,-1,-1,1210.234274541667,unknown,2,2025-04-28T22:41:39.514+03:00,2025-04-28T22:17:59.397+03:00,11,0.7499527,0,0,8.86931,0,0,2025-04-28T22:41:39.514+03:00,767562151.2044723,0,-0.7300001,100.8054,1,0.35,2025-04-28T22:30:20.081+03:00,89,1.483333333333333,2025-04-22T14:20:19.516+03:00,0.02197104130929222,0
2025-04-28T22:42:31.919+03:00,1745869351.133383,40.98570378094778,29.13752618574849,129.2685,-1,-1,-1,-1,30.72688367416445,29.72613821890759,-9999,1233.176823625,-0.6359710693359375,0.7816162109375,0.0811309814453125,1233.171785625,-1.254427421902492,-1.607828702258424,-0.9007739177602362,0.2549812197685242,-0.5417855381965637,0.1312187612056732,-0.0009889602661132812,6.67572021484375e-05,0.06389153003692627,XArbitraryZVertical,0.6250331453387559,0.3476054613128854,0.1128315776776378,-0.6897630162787678,-0.6205777525901794,0.7838077545166016,0.0229919794946909,0,0,0,-1,-1,1210.234274541667,unknown,2,2025-04-28T22:41:39.514+03:00,2025-04-28T22:17:59.397+03:00,11,0.7499527,0,0,8.86931,0,0,2025-04-28T22:41:39.514+03:00,767562151.2044723,0,-0.7300001,100.8054,1,0.35,2025-04-28T22:30:20.081+03:00,89,1.483333333333333,2025-04-22T14:20:19.516+03:00,0.02197104130929222,0
2025-04-28T22:42:31.929+03:00,1745869351.133383,40.98570378094778,29.13752618574849,129.2685,-1,-1,-1,-1,30.72688367416445,29.72613821890759,-9999,1233.186901625,-0.6525726318359375,0.7890472412109375,0.0764312744140625,1233.181862625,-1.250574032210186,-1.610163488064797,-0.902063099618415,0.2214911133050919,-0.5248921513557434,0.1032715141773224,-0.009165108203887939,-0.00479203462600708,0.06078875064849854,XArbitraryZVertical,0.6246995576614964,0.3492148099893498,0.110320414729524,-0.6896585084029178,-0.619512140750885,0.7846077084541321,0.02440104261040688,0,0,0,-1,-1,1210.234274541667,unknown,2,2025-04-28T22:41:39.514+03:00,2025-04-28T22:17:59.397+03:00,11,0.7499527,0,0,8.86931,0,0,2025-04-28T22:41:39.514+03:00,767562151.2044723,0,-0.7300001,100.8054,1,0.35,2025-04-28T22:30:20.081+03:00,89,1.483333333333333,2025-04-22T14:20:19.516+03:00,0.02197104130929222,0
2025-04-28T22:42:31.940+03:00,1745869351.133383,40.98570378094778,29.13752618574849,129.2685,-1,-1,-1,-1,30.72688367416445,29.72613821890759,-9999,1233.196978625,-0.667449951171875,0.796142578125,0.0873565673828125,1233.191939625,-1.247452457599112,-1.612826779194914,-0.9030506221093283,0.1550460457801819,-0.4885695576667786,0.07117562741041183,-0.02564698457717896,8.922815322875977e-05,0.05274760723114014,XArbitraryZVertical,0.6244574930769862,0.3508019426494973,0.108065257254701,-0.6894292828314869,-0.6186705827713013,0.7852195501327515,0.02601832710206509,0,0,0,-1,-1,1210.234274541667,unknown,2,2025-04-28T22:41:39.514+03:00,2025-04-28T22:17:59.397+03:00,11,0.7499527,0,0,8.86931,0,0,2025-04-28T22:41:39.514+03:00,767562151.2044723,0,-0.7300001,100.8054,1,0.35,2025-04-28T22:30:20.081+03:00,89,1.483333333333333,2025-04-22T14:20:19.516+03:00,0.02197104130929222,0
2025-04-28T22:42:31.950+03:00,1745869351.133383,40.98570378094778,29.13752618574849,129.2685,-1,-1,-1,-1,30.72688367416445,29.72613821890759,-9999,1233.207055625,-0.667083740234375,0.7958526611328125,0.1246795654296875,1233.202017625,-1.245757545202606,-1.616083178231419,-0.9035603344448896,0.05541038513183594,-0.4256956577301025,0.02262813411653042,-0.0428127646446228,0.007021725177764893,0.0498967170715332,XArbitraryZVertical,0.6244159186760202,0.3522954877854456,0.1062850812658008,-0.6889819453529297,-0.6181826591491699,0.7855350971221924,0.02801470085978508,0,0,0,-1,-1,1210.234274541667,unknown,2,2025-04-28T22:41:39.514+03:00,2025-04-28T22:17:59.397+03:00,11,0.7499527,0,0,8.86931,0,0,2025-04-28T22:41:39.514+03:00,767562151.2044723,0,-0.7300001,100.8054,1,0.35,2025-04-28T22:30:20.081+03:00,89,1.483333333333333,2025-04-22T14:20:19.516+03:00,0.02197104130929222,0
2025-04-28T22:42:31.960+03:00,1745869351.133383,40.98570378094778,29.13752618574849,129.2685,-1,-1,-1,-1,30.72688367416445,29.72613821890759,-9999,1233.217133625,-0.65472412109375,0.7943878173828125,0.1487579345703125,1233.212094625,-1.24565344739019,-1.620043162158281,-0.9034408378679102,-0.05373048037290573,-0.379934549331665,-0.0472382977604866,-0.05095255374908447,0.0114138126373291,0.07416248321533203,XArbitraryZVertical,0.6245876639051554,0.3537284146737174,0.1050547907319161,-0.6882803698572009,-0.6181604862213135,0.7854611277580261,0.03046708181500435,0,0,0,-1,-1,1210.234274541667,unknown,2,2025-04-28T22:41:39.514+03:00,2025-04-28T22:17:59.397+03:00,11,0.7499527,0,0,8.86931,0,0,2025-04-28T22:41:39.514+03:00,767562151.2044723,0,-0.7300001,100.8054,1,0.35,2025-04-28T22:30:20.081+03:00,89,1.483333333333333,2025-04-22T14:20:19.516+03:00,0.02197104130929222,0
2025-04-28T22:42:31.970+03:00,1745869351.133383,40.98570378094778,29.13752618574849,129.2685,-1,-1,-1,-1,30.72688367416445,29.72613821890759,-9999,1233.227210625,-0.6461334228515625,0.8037567138671875,0.1611480712890625,1233.222171625,-1.247232164801912,-1.624791937108301,-0.9026070344409237,-0.1412184536457062,-0.3205521106719971,-0.1051056906580925,-0.04300409555435181,0.008496940135955811,0.1056157350540161,XArbitraryZVertical,0.6249833225554272,0.3551262212012669,0.1044082352943537,-0.6872991466479541,-0.6186627149581909,0.7849448323249817,0.0334375724196434,0,0,0,-1,-1,1210.234274541667,unknown,2,2025-04-28T22:41:39.514+03:00,2025-04-28T22:17:59.397+03:00,11,0.7499527,0,0,8.86931,0,0,2025-04-28T22:41:39.514+03:00,767562151.2044723,0,-0.7300001,100.8054,1,0.35,2025-04-28T22:30:20.081+03:00,89,1.483333333333333,2025-04-22T14:20:19.516+03:00,0.02197104130929222,0
2025-04-28T22:42:31.980+03:00,1745869351.133383,40.98570378094778,29.13752618574849,129.2685,-1,-1,-1,-1,30.72688367416445,29.72613821890759,-9999,1233.237287625,-0.646209716796875,0.81134033203125,0.16741943359375,1233.232249625,-1.249494142992889,-1.629486554715512,-0.9012238695920026,-0.1522844284772873,-0.2659892737865448,-0.1544114500284195,-0.02911484241485596,0.01449674367904663,0.1197990104556084,XArbitraryZVertical,0.6254116784032459,0.3564587468859972,0.1042054238587019,-0.6862495469595846,-0.6195818781852722,0.7840871214866638,0.03640521317720413,0,0,0,-1,-1,1210.234274541667,unknown,2,2025-04-28T22:41:39.514+03:00,2025-04-28T22:17:59.397+03:00,11,0.7499527,0,0,8.86931,0,0,2025-04-28T22:41:39.514+03:00,767562151.2044723,0,-0.7300001,100.8054,1,0.35,2025-04-28T22:30:20.081+03:00,89,1.483333333333333,2025-04-22T14:20:19.516+03:00,0.02197104130929222,0
2025-04-28T22:42:31.990+03:00,1745869351.133383,40.98570378094778,29.13752618574849,129.2685,-1,-1,-1,-1,30.72688367416445,29.72613821890759,-9999,1233.247365625,-0.649566650390625,0.82086181640625,0.175537109375,1233.242326625,-1.251509052696239,-1.63341947079649,-0.8993557510740965,-0.1147775277495384,-0.20539490878582,-0.2002612352371216,-0.02484172582626343,0.02406519651412964,0.1259684562683105,XArbitraryZVertical,0.6256823487295825,0.3577544495183047,0.1043258410913342,-0.6853096822851545,-0.6208948493003845,0.7829262614250183,0.03893329575657845,0,0,0,-1,-1,1210.234274541667,unknown,2,2025-04-28T22:41:39.514+03:00,2025-04-28T22:17:59.397+03:00,11,0.7499527,0,0,8.86931,0,0,2025-04-28T22:41:39.514+03:00,767562151.2044723,0,-0.7300001,100.8054,1,0.35,2025-04-28T22:30:20.081+03:00,89,1.483333333333333,2025-04-22T14:20:19.516+03:00,0.02197104130929222,0
2025-04-28T22:42:32.000+03:00,1745869351.133383,40.98570378094778,29.13752618574849,129.2685,-1,-1,-1,-1,30.72688367416445,29.72613821890759,-9999,1233.257442625,-0.65533447265625,0.817901611328125,0.193328857421875,1233.252403625,-1.252800752184061,-1.636125435055918,-0.8970239196411841,-0.08588915318250656,-0.1345364451408386,-0.2512035071849823,-0.0247465968132019,0.03528374433517456,0.1303339004516602,XArbitraryZVertical,0.6256892908332017,0.3589973374458552,0.1047453957327099,-0.6845890852420676,-0.6226074695587158,0.7814734578132629,0.04073235392570496,0,0,0,-1,-1,1210.234274541667,unknown,2,2025-04-28T22:41:39.514+03:00,2025-04-28T22:17:59.397+03:00,11,0.7499527,0,0,8.86931,0,0,2025-04-28T22:41:39.514+03:00,767562151.2044723,0,-0.7300001,100.8054,1,0.35,2025-04-28T22:30:20.081+03:00,89,1.483333333333333,2025-04-22T14:20:19.516+03:00,0.02197104130929222,0
2025-04-28T22:42:32.010+03:00,1745869351.133383,40.98570378094778,29.13752618574849,129.2685,-1,-1,-1,-1,30.72688367416445,29.72613821890759,-9999,1233.267519625,-0.64886474609375,0.807159423828125,0.2071990966796875,1233.262481625,-1.253782216801816,-1.637832469768849,-0.8942399151772319,-0.08088281005620956,-0.05793687328696251,-0.2904160916805267,-0.02785199880599976,0.04150980710983276,0.1418209075927734,XArbitraryZVertical,0.6255190719030863,0.3601336239994569,0.1055307853885563,-0.6840269268291208,-0.6247052550315857,0.779733419418335,0.04194067418575287,0,0,0,-1,-1,1210.234274541667,unknown,2,2025-04-28T22:41:39.514+03:00,2025-04-28T22:17:59.397+03:00,11,0.7499527,0,0,8.86931,0,0,2025-04-28T22:41:39.514+03:00,767562151.2044723,0,-0.7300001,100.8054,1,0.35,2025-04-28T22:30:20.081+03:00,89,1.483333333333333,2025-04-22T14:20:19.516+03:00,0.02197104130929222,0
2025-04-28T22:42:32.020+03:00,1745869351.133383,40.98570378094778,29.13752618574849,129.2685,-1,-1,-1,-1,30.72688367416445,29.72613821890759,-9999,1233.277597625,-0.634429931640625,0.79718017578125,0.2116241455078125,1233.272558625,-1.25473612003034,-1.63873853157853,-0.8910650026229949,-0.08093953132629395,0.02018243074417114,-0.3282143473625183,-0.02713251113891602,0.03465163707733154,0.1593976020812988,XArbitraryZVertical,0.6252411527693775,0.3611243142707256,0.1066952901303389,-0.6835779725570047,-0.627133846282959,0.7777416110038757,0.04267453774809837,0,0,0,-1,-1,1210.234274541667,unknown,2,2025-04-28T22:41:39.514+03:00,2025-04-28T22:17:59.397+03:00,11,0.7499527,0,0,8.86931,0,0,2025-04-28T22:41:39.514+03:00,767562151.2044723,0,-0.7300001,100.8054,1,0.35,2025-04-28T22:30:20.081+03:00,89,1.483333333333333,2025-04-22T14:20:19.516+03:00,0.02197104130929222,0
2025-04-28T22:42:32.030+03:00,1745869351.133383,40.98570378094778,29.13752618574849,129.2685,-1,-1,-1,-1,30.72688367416445,29.72613821890759,-9999,1233.287674625,-0.6286163330078125,0.7823638916015625,0.2190704345703125,1233.282635625,-1.255555306712953,-1.638739852482966,-0.8874913021194774,-0.07652847468852997,0.09914468973875046,-0.3712760210037231,-0.01116478443145752,0.027396559715271,0.1660290956497192,XArbitraryZVertical,0.6248276999830779,0.3619699382445724,0.1082369732701603,-0.6832662511404437,-0.6299026012420654,0.7754902839660645,0.04286378249526024,0,0,0,-1,-1,1210.234274541667,unknown,2,2025-04-28T22:41:39.514+03:00,2025-04-28T22:17:59.397+03:00,11,0.7499527,0,0,8.86931,0,0,2025-04-28T22:41:39.514+03:00,767562151.2044723,0,-0.7300001,100.8054,1,0.35,2025-04-28T22:30:20.081+03:00,89,1.483333333333333,2025-04-22T14:20:19.516+03:00,0.02197104130929222,0
2025-04-28T22:42:32.040+03:00,1745869351.133383,40.98570378094778,29.13752618574849,129.2685,-1,-1,-1,-1,30.72688367416445,29.72613821890759,-9999,1233.297751625,-0.6285858154296875,0.76934814453125,0.2225341796875,1233.292713625,-1.256236115861828,-1.637819125910196,-0.8835066330892375,-0.06836854666471481,0.185769334435463,-0.4115467667579651,0.00312197208404541,0.01743680238723755,0.1736046075820923,XArbitraryZVertical,0.6242723322781794,0.3626696276938939,0.110163745155327,-0.6830948896080024,-0.6330199241638184,0.7729684114456177,0.0424904078245163,0,0,0,-1,-1,1210.234274541667,unknown,2,2025-04-28T22:41:39.514+03:00,2025-04-28T22:17:59.397+03:00,11,0.7499527,0,0,8.86931,0,0,2025-04-28T22:41:39.514+03:00,767562151.2044723,0,-0.7300001,100.8054,1,0.35,2025-04-28T22:30:20.081+03:00,89,1.483333333333333,2025-04-22T14:20:19.516+03:00,0.02197104130929222,0
2025-04-28T22:42:32.050+03:00,1745869351.133383,40.98570378094778,29.13752618574849,129.2685,-1,-1,-1,-1,30.72688367416445,29.72613821890759,-9999,1233.307829625,-0.6291351318359375,0.758880615234375,0.2390594482421875,1233.302790625,-1.256856772671287,-1.635952206987921,-0.8791427223526447,-0.07491373270750046,0.2736206948757172,-0.4457708597183228,0.008162379264831543,0.004542052745819092,0.1784429550170898,XArbitraryZVertical,0.6235893014665598,0.3631807668229334,0.112497649286752,-0.6830668385252318,-0.636458158493042,0.7701923847198486,0.04152777418494225,0,0,0,-1,-1,1210.234274541667,unknown,2,2025-04-28T22:41:39.514+03:00,2025-04-28T22:17:59.397+03:00,11,0.7499527,0,0,8.86931,0,0,2025-04-28T22:41:39.514+03:00,767562151.2044723,0,-0.7300001,100.8054,1,0.35,2025-04-28T22:30:20.081+03:00,89,1.483333333333333,2025-04-22T14:20:19.516+03:00,0.02197104130929222,0
2025-04-28T22:42:32.060+03:00,1745869351.133383,40.98570378094778,29.13752618574849,129.2685,-1,-1,-1,-1,30.72688367416445,29.72613821890759,-9999,1233.317906625,-0.6354827880859375,0.7376251220703125,0.2523040771484375,1233.312867625,-1.257669438564268,-1.63340995807014,-0.8744558520770688,-0.0977117195725441,0.3505442440509796,-0.4725705087184906,0.01192253828048706,-0.003553330898284912,0.1893419027328491,XArbitraryZVertical,0.6228446946694935,0.3634996606269666,0.115219252885309,-0.6831228695021446,-0.6401572823524475,0.7671945691108704,0.04013503342866898,0,0,0,-1,-1,1210.234274541667,unknown,2,2025-04-28T22:41:39.514+03:00,2025-04-28T22:17:59.397+03:00,11,0.7499527,0,0,8.86931,0,0,2025-04-28T22:41:39.514+03:00,767562151.2044723,0,-0.7300001,100.8054,1,0.35,2025-04-28T22:30:20.081+03:00,89,1.483333333333333,2025-04-22T14:20:19.516+03:00,0.02197104130929222,0
2025-04-28T22:42:32.071+03:00,1745869351.133383,40.98570378094778,29.13752618574849,129.2685,-1,-1,-1,-1,30.72688367416445,29.72613821890759,-9999,1233.327983625,-0.64947509765625,0.70526123046875,0.2584228515625,1233.322945625,-1.259148805230207,-1.630492842233235,-0.8695538397295594,-0.1601272374391556,0.4542087614536285,-0.4871037006378174,0.01279270648956299,-0.01330876350402832,0.2080906629562378,XArbitraryZVertical,0.6221562138653555,0.3635482562342595,0.1183583297159917,-0.6831878190620684,-0.6440182328224182,0.7640411853790283,0.0384913794696331,0,0,0,-1,-1,1210.234274541667,unknown,2,2025-04-28T22:41:39.514+03:00,2025-04-28T22:17:59.397+03:00,11,0.7499527,0,0,8.86931,0,0,2025-04-28T22:41:39.514+03:00,767562151.2044723,0,-0.7300001,100.8054,1,0.35,2025-04-28T22:30:20.081+03:00,89,1.483333333333333,2025-04-22T14:20:19.516+03:00,0.02197104130929222,0
2025-04-28T22:42:32.081+03:00,1745869351.133383,40.98570378094778,29.13752618574849,129.2685,-1,-1,-1,-1,30.72688367416445,29.72613821890759,-9999,1233.338061625,-0.6509857177734375,0.69476318359375,0.2861175537109375,1233.333022625,-1.261945804734485,-1.627448002471752,-0.8643432554528915,-0.2644741535186768,0.5670405626296997,-0.525010347366333,0.005474567413330078,-0.03935563564300537,0.2188447713851929,XArbitraryZVertical,0.6216397292068474,0.3632377196707494,0.1220924508074976,-0.6831660169082627,-0.648098349571228,0.7606691122055054,0.03675518929958344,0,0,0,-1,-1,1210.234274541667,unknown,2,2025-04-28T22:41:39.514+03:00,2025-04-28T22:17:59.397+03:00,11,0.7499527,0,0,8.86931,0,0,2025-04-28T22:41:39.514+03:00,767562151.2044723,0,-0.7300001,100.8054,1,0.35,2025-04-28T22:30:20.081+03:00,89,1.483333333333333,2025-04-22T14:20:19.516+03:00,0.02197104130929222,0
2025-04-28T22:42:32.091+03:00,1745869351.133383,40.98570378094778,29.13752618574849,129.2685,-1,-1,-1,-1,30.72688367416445,29.72613821890759,-9999,1233.348138625,-0.6457977294921875,0.708038330078125,0.358795166015625,1233.343099625,-1.266472930001501,-1.624503363257948,-0.8586043074877646,-0.3805825114250183,0.6982316970825195,-0.5779207944869995,-0.0001118183135986328,-0.06056582927703857,0.2306666374206543,XArbitraryZVertical,0.6213464555432096,0.3625862316627001,0.1265681656715845,-0.6829643622221061,-0.6525523066520691,0.7569312453269958,0.03508038818836212,0,0,0,-1,-1,1210.234274541667,unknown,2,2025-04-28T22:41:39.514+03:00,2025-04-28T22:17:59.397+03:00,11,0.7499527,0,0,8.86931,0,0,2025-04-28T22:41:39.514+03:00,767562151.2044723,0,-0.7300001,100.8054,1,0.35,2025-04-28T22:30:20.081+03:00,89,1.483333333333333,2025-04-22T14:20:19.516+03:00,0.02197104130929222,0
2025-04-28T22:42:32.101+03:00,1745869351.133383,40.98570378094778,29.13752618574849,129.2685,-1,-1,-1,-1,30.72688367416445,29.72613821890759,-9999,1233.358215625,-0.6469879150390625,0.7284698486328125,0.4140777587890625,1233.353177625,-1.272514516661443,-1.621291759182708,-0.8522920330306771,-0.4646697044372559,0.8428424000740051,-0.632659375667572,0.009410321712493896,-0.05398428440093994,0.2865687608718872,XArbitraryZVertical,0.6212037356752146,0.3615500085401287,0.1318400906832173,-0.6826461728338938,-0.6574205756187439,0.7527911067008972,0.03322498127818108,0,0,0,-1,-1,1210.234274541667,unknown,2,2025-04-28T22:41:39.514+03:00,2025-04-28T22:17:59.397+03:00,11,0.7499527,0,0,8.86931,0,0,2025-04-28T22:41:39.514+03:00,767562151.2044723,0,-0.7300001,100.8054,1,0.35,2025-04-28T22:30:20.081+03:00,89,1.483333333333333,2025-04-22T14:20:19.516+03:00,0.02197104130929222,0
2025-04-28T22:42:32.111+03:00,1745869351.133383,40.98570378094778,29.13752618574849,129.2685,-1,-1,-1,-1,30.72688367416445,29.72613821890759,-9999,1233.368293625,-0.651397705078125,0.7386322021484375,0.42767333984375,1233.363254625,-1.279224718231529,-1.617021508911348,-0.8455371393299239,-0.47331303358078,1.003246426582336,-0.6625794768333435,0.01746416091918945,-0.02979099750518799,0.3607211112976074,XArbitraryZVertical,0.6210206432780712,0.3600821694091229,0.1378176547339475,-0.682407976132132,-0.6626210808753967,0.7483274936676025,0.03065161593258381,0,0,0,-1,-1,1210.234274541667,unknown,2,2025-04-28T22:41:39.514+03:00,2025-04-28T22:17:59.397+03:00,11,0.7499527,0,0,8.86931,0,0,2025-04-28T22:41:39.514+03:00,767562151.2044723,0,-0.7300001,100.8054,1,0.35,2025-04-28T22:30:20.081+03:00,89,1.483333333333333,2025-04-22T14:20:19.516+03:00,0.02197104130929222,0
2025-04-28T22:42:32.121+03:00,1745869351.133383,40.98570378094778,29.13752618574849,129.2685,-1,-1,-1,-1,30.72688367416445,29.72613821890759,-9999,1233.378370625,-0.6474456787109375,0.7462158203125,0.41131591796875,1233.373331625,-1.285822400236871,-1.611031431331045,-0.838434196311877,-0.4523025751113892,1.160165429115295,-0.7103360295295715,0.0184745192527771,-0.009389936923980713,0.3990082740783691,XArbitraryZVertical,0.620613250527418,0.3581713594873847,0.1444046003135713,-0.682422003646279,-0.6680868268013,0.7435970902442932,0.0268950592726469,0,0,0,-1,-1,1210.234274541667,unknown,2,2025-04-28T22:41:39.514+03:00,2025-04-28T22:17:59.397+03:00,11,0.7499527,0,0,8.86931,0,0,2025-04-28T22:41:39.514+03:00,767562151.2044723,0,-0.7300001,100.8054,1,0.35,2025-04-28T22:30:20.081+03:00,89,1.483333333333333,2025-04-22T14:20:19.516+03:00,0.02197104130929222,0
2025-04-28T22:42:32.131+03:00,1745869351.133383,40.98570378094778,29.13752618574849,129.2685,-1,-1,-1,-1,30.72688367416445,29.72613821890759,-9999,1233.388447625,-0.6376190185546875,0.7456512451171875,0.3998565673828125,1233.383409625,-1.291631594697535,-1.602944530349791,-0.8309258007947298,-0.3725838363170624,1.295125365257263,-0.7462031841278076,0.0228276252746582,0.004058837890625,0.3975496292114258,XArbitraryZVertical,0.619805288619238,0.3559165220678642,0.1515045523935547,-0.6827965310758486,-0.6738438010215759,0.7385558485984802,0.02167033217847347,0,0,0,-1,-1,1210.234274541667,unknown,2,2025-04-28T22:41:39.514+03:00,2025-04-28T22:17:59.397+03:00,11,0.7499527,0,0,8.86931,0,0,2025-04-28T22:41:39.514+03:00,767562151.2044723,0,-0.7300001,100.8054,1,0.35,2025-04-28T22:30:20.081+03:00,89,1.483333333333333,2025-04-22T14:20:19.516+03:00,0.02197104130929222,0
2025-04-28T22:42:32.141+03:00,1745869351.133383,40.98570378094778,29.13752618574849,129.2685,-1,-1,-1,-1,30.72688367416445,29.72613821890759,-9999,1233.398525625,-0.6333770751953125,0.7367706298828125,0.365631103515625,1233.393486625,-1.296102159038207,-1.592502350305024,-0.8232019103467197,-0.2690502405166626,1.436436891555786,-0.7691583037376404,0.03701621294021606,0.01414042711257935,0.3918142318725586,XArbitraryZVertical,0.6184895567575553,0.3533394896398697,0.1589388264048849,-0.6836374257048344,-0.6797162294387817,0.7333264946937561,0.01475625392049551,0,0,0,-1,-1,1210.234274541667,unknown,2,2025-04-28T22:41:39.514+03:00,2025-04-28T22:17:59.397+03:00,11,0.7499527,0,0,8.86931,0,0,2025-04-28T22:41:39.514+03:00,767562151.2044723,0,-0.7300001,100.8054,1,0.35,2025-04-28T22:30:20.081+03:00,89,1.483333333333333,2025-04-22T14:20:19.516+03:00,0.02197104130929222,0
2025-04-28T22:42:32.151+03:00,1745869351.133383,40.98570378094778,29.13752618574849,129.2685,-1,-1,-1,-1,30.72688367416445,29.72613821890759,-9999,1233.408602625,-0.6454010009765625,0.7153778076171875,0.3760528564453125,1233.403563625,-1.298964833583633,-1.57922635542563,-0.8152353438112079,-0.1392837911844254,1.608034729957581,-0.8003745675086975,0.05282974243164062,0.01402580738067627,0.3771694898605347,XArbitraryZVertical,0.6165518353531371,0.3503627017733905,0.1667643124748891,-0.6850543093419976,-0.6856726408004761,0.727886974811554,0.005780376959592104,0,0,0,-1,-1,1210.234274541667,unknown,2,2025-04-28T22:41:39.514+03:00,2025-04-28T22:17:59.397+03:00,11,0.7499527,0,0,8.86931,0,0,2025-04-28T22:41:39.514+03:00,767562151.2044723,0,-0.7300001,100.8054,1,0.35,2025-04-28T22:30:20.081+03:00,89,1.483333333333333,2025-04-22T14:20:19.516+03:00,0.02197104130929222,0
2025-04-28T22:42:32.161+03:00,1745869351.133383,40.98570378094778,29.13752618574849,129.2685,-1,-1,-1,-1,30.72688367416445,29.72613821890759,-9999,1233.418679625,-0.64990234375,0.691864013671875,0.37677001953125,1233.413641625,-1.299571608093491,-1.562758388795282,-0.8072078603722973,0.05492908880114555,1.743957161903381,-0.7881096601486206,0.05293065309524536,0.004630506038665771,0.369373619556427,XArbitraryZVertical,0.6138524486094012,0.3469956948384282,0.1747922732820033,-0.6871875417612803,-0.6914955377578735,0.7223591804504395,-0.005558317992836237,0,0,0,-1,-1,1210.234274541667,unknown,2,2025-04-28T22:41:39.514+03:00,2025-04-28T22:17:59.397+03:00,11,0.7499527,0,0,8.86931,0,0,2025-04-28T22:41:39.514+03:00,767562151.2044723,0,-0.7300001,100.8054,1,0.35,2025-04-28T22:30:20.081+03:00,89,1.483333333333333,2025-04-22T14:20:19.516+03:00,0.02197104130929222,0
2025-04-28T22:42:32.171+03:00,1745869351.133383,40.98570378094778,29.13752618574849,129.2685,-1,-1,-1,-1,30.72688367416445,29.72613821890759,-9999,1233.428757625,-0.654876708984375,0.6568603515625,0.362396240234375,1233.423718625,-1.298532377081048,-1.543889571028871,-0.7991740281244194,0.1082729324698448,1.862156987190247,-0.8022826313972473,0.04776984453201294,-0.01386904716491699,0.4022436738014221,XArbitraryZVertical,0.6105509868795959,0.3432893807959179,0.182951453826732,-0.6898612784346136,-0.6970464587211609,0.7167803645133972,-0.01875978708267212,0,0,0,-1,-1,1210.234274541667,unknown,2,2025-04-28T22:41:39.514+03:00,2025-04-28T22:17:59.397+03:00,11,0.7499527,0,0,8.86931,0,0,2025-04-28T22:41:39.514+03:00,767562151.2044723,0,-0.7300001,100.8054,1,0.35,2025-04-28T22:30:20.081+03:00,89,1.483333333333333,2025-04-22T14:20:19.516+03:00,0.02197104130929222,0
2025-04-28T22:42:32.181+03:00,1745869351.133383,40.98570378094778,29.13752618574849,129.2685,-1,-1,-1,-1,30.72688367416445,29.72613821890759,-9999,1233.438834625,-0.661865234375,0.6033782958984375,0.36993408203125,1233.433795625,-1.29722163713482,-1.523403196082838,-0.7912265842669258,0.1233442947268486,2.011991739273071,-0.7528791427612305,0.05208343267440796,-0.03389376401901245,0.3995909094810486,XArbitraryZVertical,0.606953102479887,0.3390517850785428,0.1914289685408034,-0.69282513507884,-0.7021840214729309,0.7112160921096802,-0.0333036370575428,0,0,0,-1,-1,1210.234274541667,unknown,2,2025-04-28T22:41:39.514+03:00,2025-04-28T22:17:59.397+03:00,11,0.7499527,0,0,8.86931,0,0,2025-04-28T22:41:39.514+03:00,767562151.2044723,0,-0.7300001,100.8054,1,0.35,2025-04-28T22:30:20.081+03:00,89,1.483333333333333,2025-04-22T14:20:19.516+03:00,0.02197104130929222,0
2025-04-28T22:42:32.191+03:00,1745869351.133383,40.98570378094778,29.13752618574849,129.2685,-1,-1,-1,-1,30.72688367416445,29.72613821890759,-9999,1233.448912625,-0.63507080078125,0.5382537841796875,0.33294677734375,1233.443873625,-1.296486095212525,-1.502274636646673,-0.7841015155130008,0.04771684855222702,2.068268537521362,-0.6594288349151611,0.04464882612228394,-0.07456707954406738,0.4153135418891907,XArbitraryZVertical,0.603421476443846,0.3341317700214883,0.1999670901795671,-0.6958817898135281,-0.7063612937927246,0.7061893343925476,-0.04847696423530579,0,0,0,-1,-1,1210.234274541667,unknown,2,2025-04-28T22:41:39.514+03:00,2025-04-28T22:17:59.397+03:00,11,0.7499527,0,0,8.86931,0,0,2025-04-28T22:41:39.514+03:00,767562151.2044723,0,-0.7300001,100.8054,1,0.35,2025-04-28T22:30:20.081+03:00,89,1.483333333333333,2025-04-22T14:20:19.516+03:00,0.02197104130929222,0
2025-04-28T22:42:32.202+03:00,1745869351.133383,40.98570378094778,29.13752618574849,129.2685,-1,-1,-1,-1,30.72688367416445,29.72613821890759,-9999,1233.458989625,-0.614654541015625,0.4744415283203125,0.328369140625,1233.453950625,-1.297476264473898,-1.481599275964882,-0.7782131726273255,-0.09287941455841064,2.198569297790527,-0.4861901998519897,0.05716204643249512,-0.1299865245819092,0.4209221005439758,XArbitraryZVertical,0.6003400177090541,0.3284391476332295,0.2085043415945071,-0.6987456850475809,-0.7093378901481628,0.7020080089569092,-0.06343917548656464,0,0,0,-1,-1,1210.234274541667,unknown,2,2025-04-28T22:41:39.514+03:00,2025-04-28T22:17:59.397+03:00,11,0.7499527,0,0,8.86931,0,0,2025-04-28T22:41:39.514+03:00,767562151.2044723,0,-0.7300001,100.8054,1,0.35,2025-04-28T22:30:20.081+03:00,89,1.483333333333333,2025-04-22T14:20:19.516+03:00,0.02197104130929222,0
2025-04-28T22:42:32.212+03:00,1745869351.133383,40.98570378094778,29.13752618574849,129.2685,-1,-1,-1,-1,30.72688367416445,29.72613821890759,-9999,1233.469066625,-0.634796142578125,0.4878997802734375,0.383941650390625,1233.464028625,-1.299193154036175,-1.459313561557094,-0.7756084893515121,-0.04584120213985443,2.469948530197144,-0.01693528518080711,0.08997976779937744,-0.195740818977356,0.3965110778808594,XArbitraryZVertical,0.5977379147391642,0.3209247493224192,0.2166458707225473,-0.7019838345424834,-0.7095628976821899,0.7001506686210632,-0.0794333815574646,0,0,0,-1,-1,1210.234274541667,unknown,2,2025-04-28T22:41:39.514+03:00,2025-04-28T22:17:59.397+03:00,11,0.7499527,0,0,8.86931,0,0,2025-04-28T22:41:39.514+03:00,767562151.2044723,0,-0.7300001,100.8054,1,0.35,2025-04-28T22:30:20.081+03:00,89,1.483333333333333,2025-04-22T14:20:19.516+03:00,0.02197104130929222,0
2025-04-28T22:42:32.222+03:00,1745869351.133383,40.98570378094778,29.13752618574849,129.2685,-1,-1,-1,-1,30.72688367416445,29.72613821890759,-9999,1233.479144625,-0.6444091796875,0.6502838134765625,0.49169921875,1233.474105625,-1.295591421668695,-1.430833690466823,-0.7771225322228951,0.6196998357772827,2.666099071502686,0.3127693831920624,0.0826258659362793,-0.2376383543014526,0.4579029083251953,XArbitraryZVertical,0.594339904743846,0.3114975680585139,0.223365684276416,-0.7069915782917697,-0.705962598323822,0.7012308835983276,-0.09945868700742722,0,0,0,-1,-1,1210.234274541667,unknown,2,2025-04-28T22:41:39.514+03:00,2025-04-28T22:17:59.397+03:00,11,0.7499527,0,0,8.86931,0,0,2025-04-28T22:41:39.514+03:00,767562151.2044723,0,-0.7300001,100.8054,1,0.35,2025-04-28T22:30:20.081+03:00,89,1.483333333333333,2025-04-22T14:20:19.516+03:00,0.02197104130929222,0
2025-04-28T22:42:32.232+03:00,1745869351.133383,40.98570378094778,29.13752618574849,129.2685,-1,-1,-1,-1,30.72688367416445,29.72613821890759,-9999,1233.489221625,-0.707733154296875,0.78253173828125,0.7863006591796875,1233.484182625,-1.278949702307575,-1.390378794024053,-0.777660156475975,1.69878077507019,3.116386651992798,0.1373395323753357,0.06044286489486694,-0.1478269100189209,0.541679859161377,XArbitraryZVertical,0.5873220747048303,0.3018642726894624,0.2292245088352413,-0.715113124946506,-0.7009914517402649,0.7016140818595886,-0.1278614848852158,0,0,0,-1,-1,1210.234274541667,unknown,2,2025-04-28T22:41:39.514+03:00,2025-04-28T22:17:59.397+03:00,11,0.7499527,0,0,8.86931,0,0,2025-04-28T22:41:39.514+03:00,767562151.2044723,0,-0.7300001,100.8054,1,0.35,2025-04-28T22:30:20.081+03:00,89,1.483333333333333,2025-04-22T14:20:19.516+03:00,0.02197104130929222,0
2025-04-28T22:42:32.242+03:00,1745869351.133383,40.98570378094778,29.13752618574849,129.2685,-1,-1,-1,-1,30.72688367416445,29.72613821890759,-9999,1233.499298625,-0.7488250732421875,0.70758056640625,0.9593353271484375,1233.494260625,-1.248473930467634,-1.33415868503711,-0.7732002885118882,2.671497821807861,3.800191879272461,-0.08373159915208817,0.03037494421005249,0.04163730144500732,0.800699770450592,XArbitraryZVertical,0.5752773190151735,0.291831780150846,0.2360150457830044,-0.7267647666519422,-0.6957343220710754,0.6984291672706604,-0.1677804440259933,0,0,0,-1,-1,1210.234274541667,unknown,2,2025-04-28T22:41:39.514+03:00,2025-04-28T22:17:59.397+03:00,11,0.7499527,0,0,8.86931,0,0,2025-04-28T22:41:39.514+03:00,767562151.2044723,0,-0.7300001,100.8054,1,0.35,2025-04-28T22:30:20.081+03:00,89,1.483333333333333,2025-04-22T14:20:19.516+03:00,0.02197104130929222,0
2025-04-28T22:42:32.252+03:00,1745869351.133383,40.98570378094778,29.13752618574849,129.2685,-1,-1,-1,-1,30.72688367416445,29.72613821890759,-9999,1233.509376625,-0.626190185546875,0.5859527587890625,0.8553314208984375,1233.504337625,-1.207325759814525,-1.265010853053079,-0.764735320814699,3.453335523605347,4.163443565368652,0.1042140796780586,-0.05731439590454102,0.07097482681274414,1.115567684173584,XArbitraryZVertical,0.5590994736062267,0.2807078813345665,0.2431917555700709,-0.7412614064855159,-0.6880925893783569,0.6923460364341736,-0.2172217220067978,0,0,0,-1,-1,1210.234274541667,unknown,2,2025-04-28T22:41:39.514+03:00,2025-04-28T22:17:59.397+03:00,11,0.7499527,0,0,8.86931,0,0,2025-04-28T22:41:39.514+03:00,767562151.2044723,0,-0.7300001,100.8054,1,0.35,2025-04-28T22:30:20.081+03:00,89,1.483333333333333,2025-04-22T14:20:19.516+03:00,0.02197104130929222,0
2025-04-28T22:42:32.262+03:00,1745869351.133383,40.98570378094778,29.13752618574849,129.2685,-1,-1,-1,-1,30.72688367416445,29.72613821890759,-9999,1233.519453625,-0.4122314453125,0.5066070556640625,0.1595916748046875,1233.514414625,-1.146394058507774,-1.189417957342626,-0.7485912034430044,5.843182563781738,1.568508625030518,-0.8196471333503723,-0.02906638383865356,-0.03476381301879883,1.231859445571899,XArbitraryZVertical,0.5372498280692646,0.2738917325120687,0.2460061714493211,-0.7588326264545656,-0.6800094842910767,0.6806072592735291,-0.2726918756961823,0,0,0,-1,-1,1210.234274541667,unknown,2,2025-04-28T22:41:39.514+03:00,2025-04-28T22:17:59.397+03:00,11,0.7499527,0,0,8.86931,0,0,2025-04-28T22:41:39.514+03:00,767562151.2044723,0,-0.7300001,100.8054,1,0.35,2025-04-28T22:30:20.081+03:00,89,1.483333333333333,2025-04-22T14:20:19.516+03:00,0.02197104130929222,0
2025-04-28T22:42:32.272+03:00,1745869351.133383,40.98570378094778,29.13752618574849,129.2685,-1,-1,-1,-1,30.72688367416445,29.72613821890759,-9999,1233.529530625,-0.5751495361328125,0.64044189453125,-2.276611328125,1233.524492625,-1.071554697149527,-1.102874158979029,-0.7262196097857224,3.665107011795044,4.32228946685791,1.969656705856323,0.1571871638298035,-0.136292040348053,0.9508039951324463,XArbitraryZVertical,0.5101641017472054,0.26667622036294,0.2464763101329384,-0.7796575311091597,-0.6673189997673035,0.6640478372573853,-0.337232768535614,0,0,0,-1,-1,1210.234274541667,unknown,2,2025-04-28T22:41:39.514+03:00,2025-04-28T22:17:59.397+03:00,11,0.7499527,0,0,8.86931,0,0,2025-04-28T22:41:39.514+03:00,767562151.2044723,0,-0.7300001,100.8054,1,0.35,2025-04-28T22:30:20.081+03:00,89,1.483333333333333,2025-04-22T14:20:19.516+03:00,0.02197104130929222,0
2025-04-28T22:42:32.282+03:00,1745869351.133383,40.98570378094778,29.13752618574849,129.2685,-1,-1,-1,-1,30.72688367416445,29.72613821890759,-9999,1233.539608625,0.1396331787109375,0.804412841796875,-2.98065185546875,1233.534569625,-1.033520994461134,-1.028503729769975,-0.7330448858276833,2.845191478729248,3.649818658828735,1.222538352012634,0.1728973388671875,-0.1081308126449585,-0.3613832592964172,XArbitraryZVertical,0.4981587406587669,0.2450919890468755,0.2483330137474983,-0.7937875130100763,-0.6365204453468323,0.6691355109214783,-0.3835355639457703,0,0,0,-1,-1,1210.234274541667,unknown,2,2025-04-28T22:41:39.514+03:00,2025-04-28T22:17:59.397+03:00,11,0.7499527,0,0,8.86931,0,0,2025-04-28T22:41:39.514+03:00,767562151.2044723,0,-0.7300001,100.8054,1,0.35,2025-04-28T22:30:20.081+03:00,89,1.483333333333333,2025-04-22T14:20:19.516+03:00,0.02197104130929222,0
2025-04-28T22:42:32.293+03:00,1745869351.133383,40.98570378094778,29.13752618574849,129.2685,-1,-1,-1,-1,30.72688367416445,29.72613821890759,-9999,1233.549685625,1.345230102539062,1.038192749023438,-2.047576904296875,1233.544646625,-0.9918894560892098,-0.9967242942320127,-0.7121798758808384,2.933256149291992,-1.628121018409729,-1.025606155395508,0.2367040514945984,0.08265972137451172,-3.003673553466797,XArbitraryZVertical,0.4825044603561024,0.2483129392601407,0.24520443350131,-0.8033710428259855,-0.6355993151664734,0.6534853577613831,-0.4110602736473083,0,0,0,-1,-1,1210.234274541667,unknown,2,2025-04-28T22:41:39.514+03:00,2025-04-28T22:17:59.397+03:00,11,0.7499527,0,0,8.86931,0,0,2025-04-28T22:41:39.514+03:00,767562151.2044723,0,-0.7300001,100.8054,1,0.35,2025-04-28T22:30:20.081+03:00,89,1.483333333333333,2025-04-22T14:20:19.516+03:00,0.02197104130929222,0
2025-04-28T22:42:32.302+03:00,1745869351.133383,40.98570378094778,29.13752618574849,129.2685,-1,-1,-1,-1,30.72688367416445,29.72613821890759,-9999,1233.559762625,0.750457763671875,1.88836669921875,-2.141433715820312,1233.554724625,-0.9919112462943372,-1.006487479880036,-0.708737595286023,-1.837369203567505,0.1310821920633316,0.1186449751257896,1.455382943153381,0.1658050417900085,-1.657501697540283,XArbitraryZVertical,0.4825925530953089,0.2531530257605327,0.2437888687287541,-0.8022374846344894,-0.6414790749549866,0.6508758664131165,-0.4060359597206116,0,0,0,-1,-1,1210.234274541667,unknown,2,2025-04-28T22:41:39.514+03:00,2025-04-28T22:17:59.397+03:00,11,0.7499527,0,0,8.86931,0,0,2025-04-28T22:41:39.514+03:00,767562151.2044723,0,-0.7300001,100.8054,1,0.35,2025-04-28T22:30:20.081+03:00,89,1.483333333333333,2025-04-22T14:20:19.516+03:00,0.02197104130929222,0
2025-04-28T22:42:32.313+03:00,1745869351.133383,40.98570378094778,29.13752618574849,129.2685,-1,-1,-1,-1,30.72688367416445,29.72613821890759,-9999,1233.569840625,-2.04205322265625,-0.8498992919921875,-1.392486572265625,1233.564801625,-1.016385289369927,-1.012345229571767,-0.718885805212144,-2.46563196182251,1.35212504863739,0.04477594792842865,2.064374446868896,0.9499586224555969,-1.965064525604248,XArbitraryZVertical,0.4896092895038578,0.2467941497352913,0.2493956348322361,-0.7982338048715147,-0.638211727142334,0.6585466265678406,-0.3987507820129395,0,0,0,-1,-1,1210.234274541667,unknown,2,2025-04-28T22:41:39.514+03:00,2025-04-28T22:17:59.397+03:00,11,0.7499527,0,0,8.86931,0,0,2025-04-28T22:41:39.514+03:00,767562151.2044723,0,-0.7300001,100.8054,1,0.35,2025-04-28T22:30:20.081+03:00,89,1.483333333333333,2025-04-22T14:20:19.516+03:00,0.02197104130929222,0
2025-04-28T22:42:32.322+03:00,1745869351.133383,40.98570378094778,29.13752618574849,129.2685,-1,-1,-1,-1,30.72688367416445,29.72613821890759,-9999,1233.579917625,-1.172927856445312,-2.31402587890625,-0.8211517333984375,1233.574878625,-1.04471751143999,-1.026838353784635,-0.7397700761537258,-2.900359392166138,-0.2565851211547852,1.220611333847046,-0.02913224697113037,0.3246611952781677,-1.273397445678711,XArbitraryZVertical,0.5013841342959227,0.2397607897440802,0.2513273528088039,-0.7924413010979041,-0.6320158243179321,0.6741181015968323,-0.3822574317455292,0,0,0,-1,-1,1210.234274541667,unknown,2,2025-04-28T22:41:39.514+03:00,2025-04-28T22:17:59.397+03:00,11,0.7499527,0,0,8.86931,0,0,2025-04-28T22:41:39.514+03:00,767562151.2044723,0,-0.7300001,100.8054,1,0.35,2025-04-28T22:30:20.081+03:00,89,1.483333333333333,2025-04-22T14:20:19.516+03:00,0.02197104130929222,0
2025-04-28T22:42:32.333+03:00,1745869351.133383,40.98570378094778,29.13752618574849,129.2685,-1,-1,-1,-1,30.72688367416445,29.72613821890759,-9999,1233.589994625,0.23822021484375,0.38446044921875,-0.38665771484375,1233.584956625,-1.056437805894868,-1.036283210669485,-0.7594430855458857,-0.3363036513328552,0.1438228785991669,1.156949996948242,-1.644353747367859,-2.993632555007935,-0.8289365768432617,XArbitraryZVertical,0.5099531850362816,0.2350028328387958,0.248097352199507,-0.7894105296748964,-0.6240634918212891,0.688517689704895,-0.3694428205490112,0,0,0,-1,-1,1210.234274541667,unknown,2,2025-04-28T22:41:39.514+03:00,2025-04-28T22:17:59.397+03:00,11,0.7499527,0,0,8.86931,0,0,2025-04-28T22:41:39.514+03:00,767562151.2044723,0,-0.7300001,100.8054,1,0.35,2025-04-28T22:30:20.081+03:00,89,1.483333333333333,2025-04-22T14:20:19.516+03:00,0.02197104130929222,0
2025-04-28T22:42:32.345+03:00,1745869351.133383,40.98570378094778,29.13752618574849,129.2685,-1,-1,-1,-1,30.72688367416445,29.72613821890759,-9999,1233.600072625,-1.454559326171875,2.027511596679688,-0.541595458984375,1233.595033625,-1.042102189963399,-1.019737859485836,-0.7628125909928516,1.546970367431641,0.9622679352760315,0.4477812647819519,0.6794387102127075,-1.780053377151489,-0.07882076501846313,XArbitraryZVertical,0.5072647225421504,0.23115435056114,0.2456949794888293,-0.7930221399518173,-0.615885853767395,0.6909573674201965,-0.3785003423690796,0,0,0,-1,-1,1210.234274541667,unknown,2,2025-04-28T22:41:39.514+03:00,2025-04-28T22:17:59.397+03:00,11,0.7499527,0,0,8.86931,0,0,2025-04-28T22:41:39.514+03:00,767562151.2044723,0,-0.7300001,100.8054,1,0.35,2025-04-28T22:30:20.081+03:00,89,1.483333333333333,2025-04-22T14:20:19.516+03:00,0.02197104130929222,0
2025-04-28T22:42:32.353+03:00,1745869351.133383,40.98570378094778,29.13752618574849,129.2685,-1,-1,-1,-1,30.72688367416445,29.72613821890759,-9999,1233.610149625,-1.203094482421875,2.41387939453125,-0.3243865966796875,1233.605110625,-1.020047203542958,-0.9955045992752432,-0.7541116572988339,1.934994459152222,0.8617162704467773,-0.1480096727609634,0.01235753297805786,0.7447257041931152,-0.106269359588623,XArbitraryZVertical,0.4990533558221046,0.2294806119776795,0.2454075931833559,-0.7987863458567371,-0.6115549206733704,0.684641420841217,-0.3965688049793243,0,0,0,-1,-1,1210.234274541667,unknown,2,2025-04-28T22:41:39.514+03:00,2025-04-28T22:17:59.397+03:00,11,0.7499527,0,0,8.86931,0,0,2025-04-28T22:41:39.514+03:00,767562151.2044723,0,-0.7300001,100.8054,1,0.35,2025-04-28T22:30:20.081+03:00,89,1.483333333333333,2025-04-22T14:20:19.516+03:00,0.02197104130929222,0
2025-04-28T22:42:32.363+03:00,1745869351.133383,40.98570378094778,29.13752618574849,129.2685,-1,-1,-1,-1,30.72688367416445,29.72613821890759,-9999,1233.620226625,-0.7883758544921875,1.720626831054688,-0.2676544189453125,1233.615188625,-1.000876232553489,-0.9737409891177017,-0.7410982814581102,1.772262334823608,0.8692823052406311,-0.4368244409561157,-0.9932357668876648,1.68166720867157,-0.03205025196075439,XArbitraryZVertical,0.4900507967642103,0.2290664652515722,0.2466259028353072,-0.8040860293746119,-0.6100967526435852,0.6750985383987427,-0.4147575497627258,0,0,0,-1,-1,1210.234274541667,unknown,2,2025-04-28T22:41:39.514+03:00,2025-04-28T22:17:59.397+03:00,11,0.7499527,0,0,8.86931,0,0,2025-04-28T22:41:39.514+03:00,767562151.2044723,0,-0.7300001,100.8054,1,0.35,2025-04-28T22:30:20.081+03:00,89,1.483333333333333,2025-04-22T14:20:19.516+03:00,0.02197104130929222,0
2025-04-28T22:42:32.373+03:00,1745869351.133383,40.98570378094778,29.13752618574849,129.2685,-1,-1,-1,-1,30.72688367416445,29.72613821890759,-9999,1233.630304625,-0.8612060546875,0.9517059326171875,-0.374420166015625,1233.625265625,-0.9859400825435618,-0.9548893124723289,-0.7279133753810216,1.525360465049744,0.8612861633300781,-0.4028275907039642,-0.2271801233291626,1.490128040313721,0.1727446615695953,XArbitraryZVertical,0.4817374433145331,0.2286575733879833,0.2486918154443911,-0.8085771928221496,-0.6093829274177551,0.6653133034706116,-0.4312894940376282,0,0,0,-1,-1,1210.234274541667,unknown,2,2025-04-28T22:41:39.514+03:00,2025-04-28T22:17:59.397+03:00,11,0.7499527,0,0,8.86931,0,0,2025-04-28T22:41:39.514+03:00,767562151.2044723,0,-0.7300001,100.8054,1,0.35,2025-04-28T22:30:20.081+03:00,89,1.483333333333333,2025-04-22T14:20:19.516+03:00,0.02197104130929222,0
2025-04-28T22:42:32.383+03:00,1745869351.133383,40.98570378094778,29.13752618574849,129.2685,-1,-1,-1,-1,30.72688367416445,29.72613821890759,-9999,1233.640381625,-0.47723388671875,0.2722320556640625,-0.4408416748046875,1233.635342625,-0.9727365095326025,-0.9381603383017486,-0.7174406039600814,1.277101159095764,0.7010450959205627,-0.1354986876249313,-0.2747771739959717,0.647976815700531,0.1267777383327484,XArbitraryZVertical,0.4746938308245292,0.22782998265345,0.2500859562266184,-0.8125368962696893,-0.6076690554618835,0.6574583649635315,-0.4455185234546661,0,0,0,-1,-1,1210.234274541667,unknown,2,2025-04-28T22:41:39.514+03:00,2025-04-28T22:17:59.397+03:00,11,0.7499527,0,0,8.86931,0,0,2025-04-28T22:41:39.514+03:00,767562151.2044723,0,-0.7300001,100.8054,1,0.35,2025-04-28T22:30:20.081+03:00,89,1.483333333333333,2025-04-22T14:20:19.516+03:00,0.02197104130929222,0
2025-04-28T22:42:32.393+03:00,1745869351.133383,40.98570378094778,29.13752618574849,129.2685,-1,-1,-1,-1,30.72688367416445,29.72613821890759,-9999,1233.650458625,-0.4001617431640625,0.05224609375,-0.4638214111328125,1233.645420625,-0.9610100620819449,-0.9244382398570062,-0.7102841463153017,0.9793549180030823,0.504070520401001,0.009973825886845589,-0.07617253065109253,-0.05218046903610229,0.04315435886383057,XArbitraryZVertical,0.4692522004423263,0.2269005789731369,0.2504025286039283,-0.8158535933859346,-0.6052391529083252,0.6520492434501648,-0.4566369950771332,0,0,0,-1,-1,1210.234274541667,unknown,2,2025-04-28T22:41:39.514+03:00,2025-04-28T22:17:59.397+03:00,11,0.7499527,0,0,8.86931,0,0,2025-04-28T22:41:39.514+03:00,767562151.2044723,0,-0.7300001,100.8054,1,0.35,2025-04-28T22:30:20.081+03:00,89,1.483333333333333,2025-04-22T14:20:19.516+03:00,0.02197104130929222,0
2025-04-28T22:42:32.403+03:00,1745869351.133383,40.98570378094778,29.13752618574849,129.2685,-1,-1,-1,-1,30.72688367416445,29.72613821890759,-9999,1233.660536625,-0.5276031494140625,0.24481201171875,-0.331329345703125,1233.655497625,-0.9521066438866991,-0.9146509585737629,-0.7053938893471126,0.6804606318473816,0.2757513523101807,0.04052054882049561,0.2287792563438416,-0.5754729509353638,0.0005655288696289062,XArbitraryZVertical,0.4653666387374032,0.2262623312866476,0.2503051244263771,-0.8182827780388617,-0.6032604575157166,0.6483337879180908,-0.4644784927368164,0,0,0,-1,-1,1210.234274541667,unknown,2,2025-04-28T22:41:39.514+03:00,2025-04-28T22:17:59.397+03:00,11,0.7499527,0,0,8.86931,0,0,2025-04-28T22:41:39.514+03:00,767562151.2044723,0,-0.7300001,100.8054,1,0.35,2025-04-28T22:30:20.081+03:00,89,1.483333333333333,2025-04-22T14:20:19.516+03:00,0.02197104130929222,0
2025-04-28T22:42:32.413+03:00,1745869351.133383,40.98570378094778,29.13752618574849,129.2685,-1,-1,-1,-1,30.72688367416445,29.72613821890759,-9999,1233.670613625,-0.3971099853515625,0.377197265625,-0.263214111328125,1233.665574625,-0.9457061634979658,-0.9081768123066026,-0.7024672011802527,0.4456388354301453,0.2123924195766449,0.06417278200387955,0.1150855422019958,-0.5042570233345032,0.05616378784179688,XArbitraryZVertical,0.4628377692030678,0.2258570381629326,0.2499308039611106,-0.8199417343707371,-0.6017340421676636,0.6461027264595032,-0.4695395827293396,0,0,0,-1,-1,1210.234274541667,unknown,2,2025-04-28T22:41:39.514+03:00,2025-04-28T22:17:59.397+03:00,11,0.7499527,0,0,8.86931,0,0,2025-04-28T22:41:39.514+03:00,767562151.2044723,0,-0.7300001,100.8054,1,0.35,2025-04-28T22:30:20.081+03:00,89,1.483333333333333,2025-04-22T14:20:19.516+03:00,0.02197104130929222,0
2025-04-28T22:42:32.423+03:00,1745869351.133383,40.98570378094778,29.13752618574849,129.2685,-1,-1,-1,-1,30.72688367416445,29.72613821890759,-9999,1233.680690625,-0.388336181640625,0.5108184814453125,-0.318756103515625,1233.675652625,-0.9415700935456693,-0.9034100224073012,-0.7003303255743367,0.3209560513496399,0.2109708338975906,-0.003382292576134205,0.1227125525474548,-0.3253327012062073,0.2017564177513123,XArbitraryZVertical,0.4610448534738316,0.225409886366089,0.2498760472292867,-0.8210907855704783,-0.6005721092224121,0.6444702744483948,-0.4732560515403748,0,0,0,-1,-1,1210.234274541667,unknown,2,2025-04-28T22:41:39.514+03:00,2025-04-28T22:17:59.397+03:00,11,0.7499527,0,0,8.86931,0,0,2025-04-28T22:41:39.514+03:00,767562151.2044723,0,-0.7300001,100.8054,1,0.35,2025-04-28T22:30:20.081+03:00,89,1.483333333333333,2025-04-22T14:20:19.516+03:00,0.02197104130929222,0
2025-04-28T22:42:32.433+03:00,1745869351.133383,40.98570378094778,29.13752618574849,129.2685,-1,-1,-1,-1,30.72688367416445,29.72613821890759,-9999,1233.690768625,-0.41229248046875,0.6117401123046875,-0.37078857421875,1233.685729625,-0.9388120196645058,-0.8991579173986662,-0.6987017965628469,0.2018493562936783,0.2718650698661804,0.01584865897893906,0.2308295369148254,-0.2039694786071777,0.1878073811531067,XArbitraryZVertical,0.459644162685378,0.224718314427773,0.2501326117785757,-0.821986922764085,-0.5993750095367432,0.6432242393493652,-0.4764578342437744,0,0,0,-1,-1,1210.234274541667,unknown,2,2025-04-28T22:41:39.514+03:00,2025-04-28T22:17:59.397+03:00,11,0.7499527,0,0,8.86931,0,0,2025-04-28T22:41:39.514+03:00,767562151.2044723,0,-0.7300001,100.8054,1,0.35,2025-04-28T22:30:20.081+03:00,89,1.483333333333333,2025-04-22T14:20:19.516+03:00,0.02197104130929222,0
2025-04-28T22:42:32.443+03:00,1745869351.133383,40.98570378094778,29.13752618574849,129.2685,-1,-1,-1,-1,30.72688367416445,29.72613821890759,-9999,1233.700847125,-0.4728546142578125,0.5679931640625,-0.4451141357421875,1233.695807625,-0.9368349194384236,-0.8953620238673097,-0.6981241467689921,0.1153181940317154,0.2122145146131516,0.09231707453727722,0.1914189457893372,-0.06859362125396729,0.133899599313736,XArbitraryZVertical,0.4587487975391604,0.2237602424160194,0.2503364624037847,-0.8226860996928347,-0.5978519916534424,0.6427817940711975,-0.4789617955684662,0,0,0,-1,-1,1210.234274541667,unknown,2,2025-04-28T22:41:39.514+03:00,2025-04-28T22:17:59.397+03:00,11,0.7499527,0,0,8.86931,0,0,2025-04-28T22:41:39.514+03:00,767562151.2044723,0,-0.7300001,100.8054,1,0.35,2025-04-28T22:30:20.081+03:00,89,1.483333333333333,2025-04-22T14:20:19.516+03:00,0.02197104130929222,0
2025-04-28T22:42:32.454+03:00,1745869351.133383,40.98570378094778,29.13752618574849,129.2685,-1,-1,-1,-1,30.72688367416445,29.72613821890759,-9999,1233.710925125,-0.556640625,0.5008697509765625,-0.519256591796875,1233.705886125,-0.934904294646267,-0.8925955597937442,-0.6987140128353942,0.04110461845993996,0.08359895646572113,0.1649278551340103,0.1650923490524292,-0.03576594591140747,0.07733038067817688,XArbitraryZVertical,0.4583904763227078,0.2229129466229468,0.2500284270680708,-0.8232094288588152,-0.5962293744087219,0.643233597278595,-0.4803759753704071,0,0,0,-1,-1,1210.234274541667,unknown,2,2025-04-28T22:41:39.514+03:00,2025-04-28T22:17:59.397+03:00,11,0.7499527,0,0,8.86931,0,0,2025-04-28T22:41:39.514+03:00,767562151.2044723,0,-0.7300001,100.8054,1,0.35,2025-04-28T22:30:20.081+03:00,89,1.483333333333333,2025-04-22T14:20:19.516+03:00,0.02197104130929222,0
2025-04-28T22:42:32.464+03:00,1745869351.133383,40.98570378094778,29.13752618574849,129.2685,-1,-1,-1,-1,30.72688367416445,29.72613821890759,-9999,1233.721002125,-0.6368865966796875,0.5368194580078125,-0.5009613037109375,1233.715963125,-0.9335919693182859,-0.8915516575461484,-0.7000468108924162,-0.05032409727573395,-0.02013969235122204,0.182248517870903,0.07739037275314331,-0.1225860118865967,-0.008264601230621338,XArbitraryZVertical,0.458573999158898,0.2224417547610987,0.249393590603887,-0.8234271750061822,-0.5950599908828735,0.6442534923553467,-0.4804590940475464,0,0,0,-1,-1,1210.234274541667,unknown,2,2025-04-28T22:41:39.514+03:00,2025-04-28T22:17:59.397+03:00,11,0.7499527,0,0,8.86931,0,0,2025-04-28T22:41:39.514+03:00,767562151.2044723,0,-0.7300001,100.8054,1,0.35,2025-04-28T22:30:20.081+03:00,89,1.483333333333333,2025-04-22T14:20:19.516+03:00,0.02197104130929222,0
2025-04-28T22:42:32.474+03:00,1745869351.133383,40.98570378094778,29.13752618574849,129.2685,-1,-1,-1,-1,30.72688367416445,29.72613821890759,-9999,1233.731079125,-0.645904541015625,0.5828399658203125,-0.460693359375,1233.726041125,-0.9325783468989135,-0.8912312417548399,-0.7021988363148941,-0.07888190448284149,-0.04455175995826721,0.2356365472078323,-0.00152587890625,-0.1340570449829102,-0.04202741384506226,XArbitraryZVertical,0.4591641970762457,0.2219899859224216,0.2485107241152869,-0.8234871974044559,-0.5938262939453125,0.6458978652954102,-0.4797773659229279,0,0,0,-1,-1,1210.234274541667,unknown,2,2025-04-28T22:41:39.514+03:00,2025-04-28T22:17:59.397+03:00,11,0.7499527,0,0,8.86931,0,0,2025-04-28T22:41:39.514+03:00,767562151.2044723,0,-0.7300001,100.8054,1,0.35,2025-04-28T22:30:20.081+03:00,89,1.483333333333333,2025-04-22T14:20:19.516+03:00,0.02197104130929222,0
2025-04-28T22:42:32.484+03:00,1745869351.133383,40.98570378094778,29.13752618574849,129.2685,-1,-1,-1,-1,30.72688367416445,29.72613821890759,-9999,1233.741157125,-0.6040496826171875,0.6892547607421875,-0.471282958984375,1233.736118125,-0.9312000290767046,-0.89069187078253,-0.7039589356666454,0.03405529633164406,-0.01415710151195526,0.1674050390720367,-0.06539851427078247,-0.08770078420639038,0.003872275352478027,XArbitraryZVertical,0.4595519121158279,0.2216328110866082,0.2476261061957057,-0.8236335351385159,-0.5926825404167175,0.6472405791282654,-0.4793818891048431,0,0,0,-1,-1,1210.234274541667,unknown,2,2025-04-28T22:41:39.514+03:00,2025-04-28T22:17:59.397+03:00,11,0.7499527,0,0,8.86931,0,0,2025-04-28T22:41:39.514+03:00,767562151.2044723,0,-0.7300001,100.8054,1,0.35,2025-04-28T22:30:20.081+03:00,89,1.483333333333333,2025-04-22T14:20:19.516+03:00,0.02197104130929222,0
2025-04-28T22:42:32.494+03:00,1745869351.133383,40.98570378094778,29.13752618574849,129.2685,-1,-1,-1,-1,30.72688367416445,29.72613821890759,-9999,1233.751234125,-0.611602783203125,0.8048095703125,-0.49700927734375,1233.746195125,-0.9287130738316449,-0.8889914014801168,-0.7042602015579319,0.2227493822574615,0.02994890883564949,0.1206587329506874,-0.02715086936950684,-0.02359938621520996,0.01746705174446106,XArbitraryZVertical,0.4591702882120148,0.2214263052420099,0.2469167723128436,-0.8241146801446768,-0.5917150378227234,0.647470235824585,-0.4802660644054413,0,0,0,-1,-1,1210.234274541667,unknown,2,2025-04-28T22:41:39.514+03:00,2025-04-28T22:17:59.397+03:00,11,0.7499527,0,0,8.86931,0,0,2025-04-28T22:41:39.514+03:00,767562151.2044723,0,-0.7300001,100.8054,1,0.35,2025-04-28T22:30:20.081+03:00,89,1.483333333333333,2025-04-22T14:20:19.516+03:00,0.02197104130929222,0
2025-04-28T22:42:32.504+03:00,1745869351.133383,40.98570378094778,29.13752618574849,129.2685,-1,-1,-1,-1,30.72688367416445,29.72613821890759,-9999,1233.761311125,-0.6472015380859375,0.7914886474609375,-0.523345947265625,1233.756273125,-0.9247120402905096,-0.8858526317663157,-0.7029719125273878,0.3993246853351593,0.08388164639472961,0.0678304061293602,-0.0145573616027832,0.114315390586853,0.001218318939208984,XArbitraryZVertical,0.4578943080245768,0.2213789171959996,0.2463086782009827,-0.8250189691514301,-0.590850293636322,0.6464878916740417,-0.4826483428478241,0,0,0,-1,-1,1210.234274541667,unknown,2,2025-04-28T22:41:39.514+03:00,2025-04-28T22:17:59.397+03:00,11,0.7499527,0,0,8.86931,0,0,2025-04-28T22:41:39.514+03:00,767562151.2044723,0,-0.7300001,100.8054,1,0.35,2025-04-28T22:30:20.081+03:00,89,1.483333333333333,2025-04-22T14:20:19.516+03:00,0.02197104130929222,0
2025-04-28T22:42:32.514+03:00,1745869351.133383,40.98570378094778,29.13752618574849,129.2685,-1,-1,-1,-1,30.72688367416445,29.72613821890759,-9999,1233.771389125,-0.67022705078125,0.7501068115234375,-0.518798828125,1233.766350125,-0.9195846781100057,-0.8816065830730941,-0.7003952076618252,0.520803689956665,0.0796152651309967,0.02059191651642323,-0.03478342294692993,0.1649588942527771,-0.02929246425628662,XArbitraryZVertical,0.4559090741590577,0.2214535826985087,0.2458034522527854,-0.8262481066911997,-0.5900792479515076,0.6445199251174927,-0.4862104654312134,0,0,0,-1,-1,1210.234274541667,unknown,2,2025-04-28T22:41:39.514+03:00,2025-04-28T22:17:59.397+03:00,11,0.7499527,0,0,8.86931,0,0,2025-04-28T22:41:39.514+03:00,767562151.2044723,0,-0.7300001,100.8054,1,0.35,2025-04-28T22:30:20.081+03:00,89,1.483333333333333,2025-04-22T14:20:19.516+03:00,0.02197104130929222,0
2025-04-28T22:42:32.524+03:00,1745869351.133383,40.98570378094778,29.13752618574849,129.2685,-1,-1,-1,-1,30.72688367416445,29.72613821890759,-9999,1233.781466125,-0.6638336181640625,0.7021484375,-0.5271759033203125,1233.776427125,-0.9138188323358133,-0.8769657650874022,-0.6969536368278287,0.5763340592384338,0.1308763176202774,0.07211529463529587,-0.07651251554489136,0.1286535859107971,-0.03094199299812317,XArbitraryZVertical,0.453499325401705,0.221717768720729,0.2453274659575557,-0.8276436029394001,-0.5895182490348816,0.6418847441673279,-0.4903591871261597,0,0,0,-1,-1,1210.234274541667,unknown,2,2025-04-28T22:41:39.514+03:00,2025-04-28T22:17:59.397+03:00,11,0.7499527,0,0,8.86931,0,0,2025-04-28T22:41:39.514+03:00,767562151.2044723,0,-0.7300001,100.8054,1,0.35,2025-04-28T22:30:20.081+03:00,89,1.483333333333333,2025-04-22T14:20:19.516+03:00,0.02197104130929222,0
2025-04-28T22:42:32.534+03:00,1745869351.133383,40.98570378094778,29.13752618574849,129.2685,-1,-1,-1,-1,30.72688367416445,29.72613821890759,-9999,1233.791543125,-0.5713958740234375,0.6621246337890625,-0.4995269775390625,1233.786505125,-0.9078093303973446,-0.8717722801113279,-0.6939932840866725,0.5002104043960571,0.1303422302007675,0.04657777771353722,-0.07900369167327881,0.08574515581130981,-0.02871111035346985,XArbitraryZVertical,0.4511585959835105,0.2216721158951043,0.2447431087963242,-0.8291068323704927,-0.5884156227111816,0.6396118998527527,-0.4946347773075104,0,0,0,-1,-1,1210.234274541667,unknown,2,2025-04-28T22:41:39.514+03:00,2025-04-28T22:17:59.397+03:00,11,0.7499527,0,0,8.86931,0,0,2025-04-28T22:41:39.514+03:00,767562151.2044723,0,-0.7300001,100.8054,1,0.35,2025-04-28T22:30:20.081+03:00,89,1.483333333333333,2025-04-22T14:20:19.516+03:00,0.02197104130929222,0
2025-04-28T22:42:32.544+03:00,1745869351.133383,40.98570378094778,29.13752618574849,129.2685,-1,-1,-1,-1,30.72688367416445,29.72613821890759,-9999,1233.801621125,-0.5688323974609375,0.6155548095703125,-0.470794677734375,1233.796582125,-0.9027645899435491,-0.8671738278840572,-0.6915448525073116,0.4006026089191437,0.1375045329332352,0.0726274847984314,-0.03788632154464722,0.04650676250457764,-0.02132141590118408,XArbitraryZVertical,0.4491747737499849,0.2215140474414899,0.2442862604917439,-0.8303600332252126,-0.5873273015022278,0.6377278566360474,-0.4983471035957336,0,0,0,-1,-1,1210.234274541667,unknown,2,2025-04-28T22:41:39.514+03:00,2025-04-28T22:17:59.397+03:00,11,0.7499527,0,0,8.86931,0,0,2025-04-28T22:41:39.514+03:00,767562151.2044723,0,-0.7300001,100.8054,1,0.35,2025-04-28T22:30:20.081+03:00,89,1.483333333333333,2025-04-22T14:20:19.516+03:00,0.02197104130929222,0
2025-04-28T22:42:32.554+03:00,1745869351.133383,40.98570378094778,29.13752618574849,129.2685,-1,-1,-1,-1,30.72688367416445,29.72613821890759,-9999,1233.811698125,-0.524627685546875,0.6045684814453125,-0.4756927490234375,1233.806659125,-0.8986063578462022,-0.8630682132699891,-0.6899229173012928,0.2998733818531036,0.1513114869594574,0.08674480020999908,0.02679640054702759,-0.0009491443634033203,0.022635817527771,XArbitraryZVertical,0.4476399105194115,0.2211458701877895,0.2438757395327628,-0.8314070510562787,-0.5860614776611328,0.6364777088165283,-0.5014260411262512,0,0,0,-1,-1,1210.234274541667,unknown,2,2025-04-28T22:41:39.514+03:00,2025-04-28T22:17:59.397+03:00,11,0.7499527,0,0,8.86931,0,0,2025-04-28T22:41:39.514+03:00,767562151.2044723,0,-0.7300001,100.8054,1,0.35,2025-04-28T22:30:20.081+03:00,89,1.483333333333333,2025-04-22T14:20:19.516+03:00,0.02197104130929222,0
2025-04-28T22:42:32.564+03:00,1745869351.133383,40.98570378094778,29.13752618574849,129.2685,-1,-1,-1,-1,30.72688367416445,29.72613821890759,-9999,1233.821775125,-0.5214080810546875,0.6130523681640625,-0.486114501953125,1233.816737125,-0.8952930758220063,-0.8593213116628909,-0.6888126562480676,0.2295579463243484,0.1717078387737274,0.07591612637042999,0.03022432327270508,-0.02839744091033936,0.03227776288986206,XArbitraryZVertical,0.4464235010903124,0.2206044272223249,0.2436055836811328,-0.8322836256459458,-0.5847133994102478,0.6356210112571716,-0.5040794610977173,0,0,0,-1,-1,1210.234274541667,unknown,2,2025-04-28T22:41:39.514+03:00,2025-04-28T22:17:59.397+03:00,11,0.7499527,0,0,8.86931,0,0,2025-04-28T22:41:39.514+03:00,767562151.2044723,0,-0.7300001,100.8054,1,0.35,2025-04-28T22:30:20.081+03:00,89,1.483333333333333,2025-04-22T14:20:19.516+03:00,0.02197104130929222,0
2025-04-28T22:42:32.574+03:00,1745869351.133383,40.98570378094778,29.13752618574849,129.2685,-1,-1,-1,-1,30.72688367416445,29.72613821890759,-9999,1233.831853125,-0.5220794677734375,0.630462646484375,-0.4997100830078125,1233.826814125,-0.8927088701486402,-0.8560059582518454,-0.6879470226799371,0.1864427030086517,0.1615540087223053,0.05376368388533592,0.07152199745178223,-0.02754586935043335,0.02515929937362671,XArbitraryZVertical,0.4454272585581615,0.2200152725680565,0.2434790936497245,-0.8330100093740026,-0.5834543108940125,0.6349524855613708,-0.5063756704330444,0,0,0,-1,-1,1210.234274541667,unknown,2,2025-04-28T22:41:39.514+03:00,2025-04-28T22:17:59.397+03:00,11,0.7499527,0,0,8.86931,0,0,2025-04-28T22:41:39.514+03:00,767562151.2044723,0,-0.7300001,100.8054,1,0.35,2025-04-28T22:30:20.081+03:00,89,1.483333333333333,2025-04-22T14:20:19.516+03:00,0.02197104130929222,0
2025-04-28T22:42:32.584+03:00,1745869351.133383,40.98570378094778,29.13752618574849,129.2685,-1,-1,-1,-1,30.72688367416445,29.72613821890759,-9999,1233.841930125,-0.53668212890625,0.6334991455078125,-0.5101470947265625,1233.836891125,-0.8906734719130724,-0.8532214708136513,-0.6869865212001504,0.1750278621912003,0.124969094991684,0.009277708828449249,0.05471509695053101,-0.01331478357315063,0.01615065336227417,XArbitraryZVertical,0.4445222501069431,0.2195459122910763,0.2434831275087816,-0.8336158792345884,-0.582501232624054,0.6342101693153381,-0.5083991289138794,0,0,0,-1,-1,1210.234274541667,unknown,2,2025-04-28T22:41:39.514+03:00,2025-04-28T22:17:59.397+03:00,11,0.7499527,0,0,8.86931,0,0,2025-04-28T22:41:39.514+03:00,767562151.2044723,0,-0.7300001,100.8054,1,0.35,2025-04-28T22:30:20.081+03:00,89,1.483333333333333,2025-04-22T14:20:19.516+03:00,0.02197104130929222,0
2025-04-28T22:42:32.595+03:00,1745869351.133383,40.98570378094778,29.13752618574849,129.2685,-1,-1,-1,-1,30.72688367416445,29.72613821890759,-9999,1233.852007125,-0.546173095703125,0.632965087890625,-0.5066986083984375,1233.846969125,-0.8890465029445102,-0.8512298067224912,-0.6858406552491831,0.1619002670049667,0.0662311464548111,-0.01983946189284325,0.05969494581222534,0.002387881278991699,0.003139972686767578,XArbitraryZVertical,0.4436920625837273,0.2193601928776075,0.2435239162589712,-0.8340950585107723,-0.5820337533950806,0.6333237886428833,-0.5100369453430176,0,0,0,-1,-1,1210.234274541667,unknown,2,2025-04-28T22:41:39.514+03:00,2025-04-28T22:17:59.397+03:00,11,0.7499527,0,0,8.86931,0,0,2025-04-28T22:41:39.514+03:00,767562151.2044723,0,-0.7300001,100.8054,1,0.35,2025-04-28T22:30:20.081+03:00,89,1.483333333333333,2025-04-22T14:20:19.516+03:00,0.02197104130929222,0
2025-04-28T22:42:32.605+03:00,1745869351.133383,40.98570378094778,29.13752618574849,129.2685,-1,-1,-1,-1,30.72688367416445,29.72613821890759,-9999,1233.862085125,-0.5334625244140625,0.621307373046875,-0.5139617919921875,1233.857046125,-0.8879401079984911,-0.8501420404816815,-0.684643971329157,0.1151679307222366,0.01341374032199383,-0.04517731070518494,0.03248715400695801,-0.001156389713287354,0.002426266670227051,XArbitraryZVertical,0.4430103536668806,0.2194472360398655,0.2435922064605546,-0.8344145038353662,-0.5820476412773132,0.6323972344398499,-0.5111694931983948,0,0,0,-1,-1,1210.234274541667,unknown,2,2025-04-28T22:41:39.514+03:00,2025-04-28T22:17:59.397+03:00,11,0.7499527,0,0,8.86931,0,0,2025-04-28T22:41:39.514+03:00,767562151.2044723,0,-0.7300001,100.8054,1,0.35,2025-04-28T22:30:20.081+03:00,89,1.483333333333333,2025-04-22T14:20:19.516+03:00,0.02197104130929222,0
2025-04-28T22:42:32.614+03:00,1745869351.133383,40.98570378094778,29.13752618574849,129.2685,-1,-1,-1,-1,30.72688367416445,29.72613821890759,-9999,1233.872162125,-0.5450897216796875,0.595367431640625,-0.511627197265625,1233.867124125,-0.8876733830364734,-0.8500607572205729,-0.6837721206230076,0.03214048594236374,-0.03104527108371258,-0.05267687141895294,0.04627203941345215,-0.001579403877258301,0.002165794372558594,XArbitraryZVertical,0.4426592096726945,0.2196875111448248,0.2437090651884341,-0.8345034977779717,-0.5824201107025146,0.6317216157913208,-0.5115804672241211,0,0,0,-1,-1,1210.234274541667,unknown,2,2025-04-28T22:41:39.514+03:00,2025-04-28T22:17:59.397+03:00,11,0.7499527,0,0,8.86931,0,0,2025-04-28T22:41:39.514+03:00,767562151.2044723,0,-0.7300001,100.8054,1,0.35,2025-04-28T22:30:20.081+03:00,89,1.483333333333333,2025-04-22T14:20:19.516+03:00,0.02197104130929222,0
2025-04-28T22:42:32.625+03:00,1745869351.133383,40.98570378094778,29.13752618574849,129.2685,-1,-1,-1,-1,30.72688367416445,29.72613821890759,-9999,1233.882240125,-0.5655975341796875,0.5563507080078125,-0.5006103515625,1233.877201125,-0.8880014702915372,-0.8507478379851224,-0.6833666942594891,-0.0147191658616066,-0.06102900579571724,-0.03833175450563431,0.04553419351577759,-0.02139139175415039,-0.003833472728729248,XArbitraryZVertical,0.442633898165181,0.2200016135200826,0.2437916274566314,-0.8344101197231637,-0.5829640030860901,0.6314073204994202,-0.5113490223884583,0,0,0,-1,-1,1210.234274541667,unknown,2,2025-04-28T22:41:39.514+03:00,2025-04-28T22:17:59.397+03:00,11,0.7499527,0,0,8.86931,0,0,2025-04-28T22:41:39.514+03:00,767562151.2044723,0,-0.7300001,100.8054,1,0.35,2025-04-28T22:30:20.081+03:00,89,1.483333333333333,2025-04-22T14:20:19.516+03:00,0.02197104130929222,0
2025-04-28T22:42:32.635+03:00,1745869351.133383,40.98570378094778,29.13752618574849,129.2685,-1,-1,-1,-1,30.72688367416445,29.72613821890759,-9999,1233.892317125,-0.571624755859375,0.5517120361328125,-0.48907470703125,1233.887278125,-0.8883744959392261,-0.8517708341906891,-0.6833229135362235,-0.01567411050200462,-0.09463802725076675,-0.0121987871825695,0.02611929178237915,-0.05620861053466797,0.005750477313995361,XArbitraryZVertical,0.44278405088121,0.2203565796895236,0.2437313313297924,-0.8342542581308975,-0.5835075378417969,0.6313733458518982,-0.5107704997062683,0,0,0,-1,-1,1210.234274541667,unknown,2,2025-04-28T22:41:39.514+03:00,2025-04-28T22:17:59.397+03:00,11,0.7499527,0,0,8.86931,0,0,2025-04-28T22:41:39.514+03:00,767562151.2044723,0,-0.7300001,100.8054,1,0.35,2025-04-28T22:30:20.081+03:00,89,1.483333333333333,2025-04-22T14:20:19.516+03:00,0.02197104130929222,0
2025-04-28T22:42:32.645+03:00,1745869351.133383,40.98570378094778,29.13752618574849,129.2685,-1,-1,-1,-1,30.72688367416445,29.72613821890759,-9999,1233.902394125,-0.6100006103515625,0.57049560546875,-0.4745330810546875,1233.897356125,-0.8885929231852914,-0.8528115462627013,-0.6832754762176005,-0.01146258600056171,-0.0817352831363678,-0.01588753238320351,0.01736527681350708,-0.08414113521575928,0.01463836431503296,XArbitraryZVertical,0.4429179543824362,0.2207540058297326,0.2436034525746366,-0.8341154789548026,-0.584061324596405,0.6313365697860718,-0.5101827383041382,0,0,0,-1,-1,1210.234274541667,unknown,2,2025-04-28T22:41:39.514+03:00,2025-04-28T22:17:59.397+03:00,11,0.7499527,0,0,8.86931,0,0,2025-04-28T22:41:39.514+03:00,767562151.2044723,0,-0.7300001,100.8054,1,0.35,2025-04-28T22:30:20.081+03:00,89,1.483333333333333,2025-04-22T14:20:19.516+03:00,0.02197104130929222,0
2025-04-28T22:42:32.655+03:00,1745869351.133383,40.98570378094778,29.13752618574849,129.2685,-1,-1,-1,-1,30.72688367416445,29.72613821890759,-9999,1233.912472125,-0.6053009033203125,0.5950775146484375,-0.47344970703125,1233.907433125,-0.8888975993576987,-0.8536671069483603,-0.6832689778395376,-0.02107533253729343,-0.04648841172456741,-0.01714763976633549,-0.005510807037353516,-0.06988430023193359,0.02779775857925415,XArbitraryZVertical,0.4430534232771501,0.2210449410623162,0.2435426010057594,-0.8339843557422889,-0.584500789642334,0.6313315033912659,-0.5096855759620667,0,0,0,-1,-1,1210.234274541667,unknown,2,2025-04-28T22:41:39.514+03:00,2025-04-28T22:17:59.397+03:00,11,0.7499527,0,0,8.86931,0,0,2025-04-28T22:41:39.514+03:00,767562151.2044723,0,-0.7300001,100.8054,1,0.35,2025-04-28T22:30:20.081+03:00,89,1.483333333333333,2025-04-22T14:20:19.516+03:00,0.02197104130929222,0
