loggingTime(txt),locationTimestamp_since1970(s),locationLatitude(WGS84),locationLongitude(WGS84),locationAltitude(m),locationSpeed(m/s),locationSpeedAccuracy(m/s),locationCourse(°),locationCourseAccuracy(°),locationVerticalAccuracy(m),locationHorizontalAccuracy(m),locationFloor(Z),accelerometerTimestamp_sinceReboot(s),accelerometerAccelerationX(G),accelerometerAccelerationY(G),accelerometerAccelerationZ(G),motionTimestamp_sinceReboot(s),motionYaw(rad),motionRoll(rad),motionPitch(rad),motionRotationRateX(rad/s),motionRotationRateY(rad/s),motionRotationRateZ(rad/s),motionUserAccelerationX(G),motionUserAccelerationY(G),motionUserAccelerationZ(G),motionAttitudeReferenceFrame(txt),motionQuaternionX(R),motionQuaternionY(R),motionQuaternionZ(R),motionQuaternionW(R),motionGravityX(G),motionGravityY(G),motionGravityZ(G),motionMagneticFieldX(µT),motionMagneticFieldY(µT),motionMagneticFieldZ(µT),motionHeading(°),motionMagneticFieldCalibrationAccuracy(Z),activityTimestamp_sinceReboot(s),activity(txt),activityActivityConfidence(Z),activityActivityStartDate(txt),pedometerStartDate(txt),pedometerNumberofSteps(N),pedometerAverageActivePace(s/m),pedometerCurrentPace(s/m),pedometerCurrentCadence(steps/s),pedometerDistance(m),pedometerFloorAscended(N),pedometerFloorDescended(N),pedometerEndDate(txt),altimeterTimestamp_sinceReboot(s),altimeterReset(bool),altimeterRelativeAltitude(m),altimeterPressure(kPa),batteryState(N),batteryLevel(R),heartRateBPMTimestamp(txt),heartRateBPM(N),heartRateBPS(R),heartRateVariabilityTimestamp(txt),heartRateVariability(ms),label
2025-04-22T12:42:55.466+03:00,1745314974.999192,40.95227984194496,29.14025968887145,76.43295,-1,-1,-1,-1,30,38.06994086312898,-9999,31142.122200375,-0.58648681640625,0.6394500732421875,-0.548736572265625,31142.112124375,-0.01280223379687173,-0.7555036756688661,-0.6578449409835582,-0.003261150792241096,0.1469112932682037,0.01704285107553005,-0.01186096668243408,-0.02864933013916016,0.02474713325500488,XArbitraryZVertical,-0.3024772543094279,-0.3471299501873189,0.1135080359982494,0.8804114430348056,-0.5425671339035034,0.6114129424095154,-0.5760166049003601,0,0,0,-1,-1,31128.3166065,unknown,2,2025-04-22T12:42:28.008+03:00,2025-04-21T17:08:51.449+03:00,7356,0.9877701,0,0,6130.366,5,20,2025-04-22T12:42:48.644+03:00,767007742.9520817,0,-21.86,100.4651,1,0.8,2025-04-22T12:41:30.631+03:00,75,1.25,2025-04-22T09:54:17.825+03:00,0.02225348692287972,0
2025-04-22T12:42:55.467+03:00,1745314974.999192,40.95227984194496,29.14025968887145,76.43295,-1,-1,-1,-1,30,38.06994086312898,-9999,31142.132276375,-0.4586029052734375,0.6541290283203125,-0.563232421875,31142.122200375,-0.01281800492019577,-0.7550415845433271,-0.6577639178962321,0.01511279586702585,-0.03115643560886383,-0.01172168646007776,-0.06479716300964355,-0.04642283916473389,0.02997761964797974,XArbitraryZVertical,-0.3024706368396964,-0.3469292341374171,0.1134170474125837,0.8805044018736379,-0.5423347949981689,0.6113488078117371,-0.576303243637085,0,0,0,-1,-1,31128.3166065,unknown,2,2025-04-22T12:42:28.008+03:00,2025-04-21T17:08:51.449+03:00,7356,0.9877701,0,0,6130.366,5,20,2025-04-22T12:42:48.644+03:00,767007742.9520817,0,-21.86,100.4651,1,0.8,2025-04-22T12:41:30.631+03:00,75,1.25,2025-04-22T09:54:17.825+03:00,0.02225348692287972,0
2025-04-22T12:42:55.469+03:00,1745314974.999192,40.95227984194496,29.14025968887145,76.43295,-1,-1,-1,-1,30,38.06994086312898,-9999,31142.142352375,-0.520172119140625,0.5923004150390625,-0.5558624267578125,31142.132276375,-0.0128330212319182,-0.7556127100999019,-0.6575179731813229,0.01647919788956642,-0.07039924710988998,-0.02438811212778091,-0.02580606937408447,0.04077750444412231,0.0249859094619751,XArbitraryZVertical,-0.3023327582564799,-0.3471937251808199,0.113453631356649,0.8804428087789499,-0.5427669286727905,0.6111541986465454,-0.5761028528213501,0,0,0,-1,-1,31128.3166065,unknown,2,2025-04-22T12:42:28.008+03:00,2025-04-21T17:08:51.449+03:00,7356,0.9877701,0,0,6130.366,5,20,2025-04-22T12:42:48.644+03:00,767007742.9520817,0,-21.86,100.4651,1,0.8,2025-04-22T12:41:30.631+03:00,75,1.25,2025-04-22T09:54:17.825+03:00,0.02225348692287972,0
2025-04-22T12:42:55.484+03:00,1745314974.999192,40.95227984194496,29.14025968887145,76.43295,-1,-1,-1,-1,30,38.06994086312898,-9999,31142.152428375,-0.5986175537109375,0.608245849609375,-0.560333251953125,31142.142352375,-0.01277551519365101,-0.7557171185851737,-0.6573814794949006,0.02456295676529408,0.03184110298752785,-0.009037120267748833,0.08669227361679077,0.0336529016494751,0.0133170485496521,XArbitraryZVertical,-0.3022568452726631,-0.3472568669359717,0.1134707361875606,0.8804418579219881,-0.542884349822998,0.6110461354255676,-0.5761069059371948,0,0,0,-1,-1,31128.3166065,unknown,2,2025-04-22T12:42:28.008+03:00,2025-04-21T17:08:51.449+03:00,7356,0.9877701,0,0,6130.366,5,20,2025-04-22T12:42:48.644+03:00,767007742.9520817,0,-21.86,100.4651,1,0.8,2025-04-22T12:41:30.631+03:00,75,1.25,2025-04-22T09:54:17.825+03:00,0.02225348692287972,0
2025-04-22T12:42:55.489+03:00,1745314974.999192,40.95227984194496,29.14025968887145,76.43295,-1,-1,-1,-1,30,38.06994086312898,-9999,31142.162504375,-0.5761260986328125,0.6151275634765625,-0.5608978271484375,31142.152428375,-0.01266012339199238,-0.7550884135863488,-0.6571971586486571,0.01497464440762997,0.06438213586807251,-0.0009787272429093719,0.008617818355560303,-0.01902711391448975,0.0203014612197876,XArbitraryZVertical,-0.3021914946633424,-0.347009030826763,0.1133942295288329,0.880571739609518,-0.5425991415977478,0.6109002232551575,-0.5765300393104553,0,0,0,-1,-1,31128.3166065,unknown,2,2025-04-22T12:42:28.008+03:00,2025-04-21T17:08:51.449+03:00,7356,0.9877701,0,0,6130.366,5,20,2025-04-22T12:42:48.644+03:00,767007742.9520817,0,-21.86,100.4651,1,0.8,2025-04-22T12:41:30.631+03:00,75,1.25,2025-04-22T09:54:17.825+03:00,0.02225348692287972,0
2025-04-22T12:42:55.499+03:00,1745314974.999192,40.95227984194496,29.14025968887145,76.43295,-1,-1,-1,-1,30,38.06994086312898,-9999,31142.172581375,-0.5284881591796875,0.5959320068359375,-0.5602569580078125,31142.162504375,-0.01267067818081486,-0.7547701322437823,-0.6571071589722561,-0.002588103758171201,0.002290534786880016,-0.006727160420268774,-0.05913972854614258,0.0005448460578918457,0.01602816581726074,XArbitraryZVertical,-0.3021717917553149,-0.346872882174673,0.1133256886291644,0.8806410224637575,-0.5424533486366272,0.6108289957046509,-0.5767428278923035,0,0,0,-1,-1,31128.3166065,unknown,2,2025-04-22T12:42:28.008+03:00,2025-04-21T17:08:51.449+03:00,7356,0.9877701,0,0,6130.366,5,20,2025-04-22T12:42:48.644+03:00,767007742.9520817,0,-21.86,100.4651,1,0.8,2025-04-22T12:41:30.631+03:00,75,1.25,2025-04-22T09:54:17.825+03:00,0.02225348692287972,0
2025-04-22T12:42:55.509+03:00,1745314974.999192,40.95227984194496,29.14025968887145,76.43295,-1,-1,-1,-1,30,38.06994086312898,-9999,31142.182657375,-0.537994384765625,0.598388671875,-0.5612640380859375,31142.172581375,-0.0128504138512522,-0.7550750529747218,-0.6570915196541562,-0.01185630355030298,-0.02153903059661388,-0.009490789845585823,-0.02674597501754761,0.002128899097442627,0.01608330011367798,XArbitraryZVertical,-0.3021788058399762,-0.3469809441451056,0.113289855772069,0.8806007114962112,-0.5426357388496399,0.6108165979385376,-0.5765843987464905,0,0,0,-1,-1,31128.3166065,unknown,2,2025-04-22T12:42:28.008+03:00,2025-04-21T17:08:51.449+03:00,7356,0.9877701,0,0,6130.366,5,20,2025-04-22T12:42:48.644+03:00,767007742.9520817,0,-21.86,100.4651,1,0.8,2025-04-22T12:41:30.631+03:00,75,1.25,2025-04-22T09:54:17.825+03:00,0.02225348692287972,0
2025-04-22T12:42:55.519+03:00,1745314974.999192,40.95227984194496,29.14025968887145,76.43295,-1,-1,-1,-1,30,38.06994086312898,-9999,31142.192733375,-0.5663299560546875,0.6155242919921875,-0.5634918212890625,31142.182657375,-0.01303806569575017,-0.7553079457117275,-0.6571043660039222,-0.005011979956179857,0.007940031588077545,-0.003134356578812003,0.01632112264633179,-0.01684796810150146,0.01601225137710571,XArbitraryZVertical,-0.3022038231215783,-0.3470543324665447,0.1132446789630747,0.8805690113168068,-0.5427646040916443,0.6108267307281494,-0.5764522552490234,0,0,0,-1,-1,31128.3166065,unknown,2,2025-04-22T12:42:28.008+03:00,2025-04-21T17:08:51.449+03:00,7356,0.9877701,0,0,6130.366,5,20,2025-04-22T12:42:48.644+03:00,767007742.9520817,0,-21.86,100.4651,1,0.8,2025-04-22T12:41:30.631+03:00,75,1.25,2025-04-22T09:54:17.825+03:00,0.02225348692287972,0
2025-04-22T12:42:55.529+03:00,1745314974.999192,40.95227984194496,29.14025968887145,76.43295,-1,-1,-1,-1,30,38.06994086312898,-9999,31142.202809375,-0.5625,0.618377685546875,-0.5656585693359375,31142.192733375,-0.01304103579684615,-0.7551336706699149,-0.6570550836107159,0.01091365609318018,0.02872353978455067,0.001382597838528454,0.0008603930473327637,-0.01046127080917358,0.0146181583404541,XArbitraryZVertical,-0.3021925477666319,-0.3469802280987501,0.1132083962063324,0.8806067344924746,-0.54268479347229,0.6107877492904663,-0.5765687823295593,0,0,0,-1,-1,31128.3166065,unknown,2,2025-04-22T12:42:28.008+03:00,2025-04-21T17:08:51.449+03:00,7356,0.9877701,0,0,6130.366,5,20,2025-04-22T12:42:48.644+03:00,767007742.9520817,0,-21.86,100.4651,1,0.8,2025-04-22T12:41:30.631+03:00,75,1.25,2025-04-22T09:54:17.825+03:00,0.02225348692287972,0
2025-04-22T12:42:55.539+03:00,1745314974.999192,40.95227984194496,29.14025968887145,76.43295,-1,-1,-1,-1,30,38.06994086312898,-9999,31142.212885375,-0.5426788330078125,0.614990234375,-0.562042236328125,31142.202809375,-0.01301995850257174,-0.7550001753905904,-0.6569104665044377,0.00928966049104929,0.0120628047734499,0.001873951056040823,-0.02495867013931274,0.006788790225982666,0.01205402612686157,XArbitraryZVertical,-0.3021329125500696,-0.3469336805725093,0.1131721818450386,0.8806500665023812,-0.5426682829856873,0.6106732487678528,-0.5767054557800293,0,0,0,-1,-1,31128.3166065,unknown,2,2025-04-22T12:42:28.008+03:00,2025-04-21T17:08:51.449+03:00,7356,0.9877701,0,0,6130.366,5,20,2025-04-22T12:42:48.644+03:00,767007742.9520817,0,-21.86,100.4651,1,0.8,2025-04-22T12:41:30.631+03:00,75,1.25,2025-04-22T09:54:17.825+03:00,0.02225348692287972,0
2025-04-22T12:42:55.549+03:00,1745314974.999192,40.95227984194496,29.14025968887145,76.43295,-1,-1,-1,-1,30,38.06994086312898,-9999,31142.222961375,-0.5445709228515625,0.608154296875,-0.5599212646484375,31142.212885375,-0.01303713764539386,-0.755008430236485,-0.656940133801217,0.000240572786424309,-0.0004294845275580883,-0.003067644312977791,-0.01719957590103149,0.007146835327148438,0.01160913705825806,XArbitraryZVertical,-0.3021484437246899,-0.3469328469920734,0.1131710374347209,0.8806453013509035,-0.542660653591156,0.6106967329978943,-0.5766878128051758,0,0,0,-1,-1,31128.3166065,unknown,2,2025-04-22T12:42:28.008+03:00,2025-04-21T17:08:51.449+03:00,7356,0.9877701,0,0,6130.366,5,20,2025-04-22T12:42:48.644+03:00,767007742.9520817,0,-21.86,100.4651,1,0.8,2025-04-22T12:41:30.631+03:00,75,1.25,2025-04-22T09:54:17.825+03:00,0.02225348692287972,0
2025-04-22T12:42:55.559+03:00,1745314974.999192,40.95227984194496,29.14025968887145,76.43295,-1,-1,-1,-1,30,38.06994086312898,-9999,31142.233037375,-0.5594635009765625,0.6049041748046875,-0.56292724609375,31142.222961375,-0.01296454631250638,-0.7548231357391713,-0.6571380644758412,-0.004483608528971672,0.009677211754024029,-0.0004058147897012532,0.0001887679100036621,0.002549827098846436,0.01499378681182861,XArbitraryZVertical,-0.3022333593497608,-0.3468499131549683,0.1132097473578207,0.8806437786625112,-0.5424709320068359,0.6108534336090088,-0.5767002701759338,0,0,0,-1,-1,31128.3166065,unknown,2,2025-04-22T12:42:28.008+03:00,2025-04-21T17:08:51.449+03:00,7356,0.9877701,0,0,6130.366,5,20,2025-04-22T12:42:48.644+03:00,767007742.9520817,0,-21.86,100.4651,1,0.8,2025-04-22T12:41:30.631+03:00,75,1.25,2025-04-22T09:54:17.825+03:00,0.02225348692287972,0
2025-04-22T12:42:55.570+03:00,1745314974.999192,40.95227984194496,29.14025968887145,76.43295,-1,-1,-1,-1,30,38.06994086312898,-9999,31142.243113375,-0.559600830078125,0.608978271484375,-0.5658416748046875,31142.233037375,-0.01302524424732205,-0.7546841896717212,-0.6572086609507418,-0.008994803763926029,0.02473758719861507,0.003275173250585794,-0.004590034484863281,-0.003487527370452881,0.01720452308654785,XArbitraryZVertical,-0.3022827636572662,-0.346775141727156,0.1131743785902868,0.8806608774329823,-0.5423612594604492,0.6109093427658081,-0.5767442584037781,0,0,0,-1,-1,31128.3166065,unknown,2,2025-04-22T12:42:28.008+03:00,2025-04-21T17:08:51.449+03:00,7356,0.9877701,0,0,6130.366,5,20,2025-04-22T12:42:48.644+03:00,767007742.9520817,0,-21.86,100.4651,1,0.8,2025-04-22T12:41:30.631+03:00,75,1.25,2025-04-22T09:54:17.825+03:00,0.02225348692287972,0
2025-04-22T12:42:55.580+03:00,1745314974.999192,40.95227984194496,29.14025968887145,76.43295,-1,-1,-1,-1,30,38.06994086312898,-9999,31142.253189375,-0.547760009765625,0.6064453125,-0.566741943359375,31142.243113375,-0.01319288154309823,-0.7546708819411682,-0.6572568340947091,-0.007701039779931307,0.0145225003361702,0.002448794431984425,-0.01839655637741089,-0.005570352077484131,0.01387917995452881,XArbitraryZVertical,-0.3023337466358387,-0.3467409296069861,0.1131069848330002,0.8806655424535614,-0.5423334836959839,0.6109474897384644,-0.5767300724983215,0,0,0,-1,-1,31128.3166065,unknown,2,2025-04-22T12:42:28.008+03:00,2025-04-21T17:08:51.449+03:00,7356,0.9877701,0,0,6130.366,5,20,2025-04-22T12:42:48.644+03:00,767007742.9520817,0,-21.86,100.4651,1,0.8,2025-04-22T12:41:30.631+03:00,75,1.25,2025-04-22T09:54:17.825+03:00,0.02225348692287972,0
2025-04-22T12:42:55.590+03:00,1745314974.999192,40.95227984194496,29.14025968887145,76.43295,-1,-1,-1,-1,30,38.06994086312898,-9999,31142.263266375,-0.5425872802734375,0.6072540283203125,-0.5635528564453125,31142.253189375,-0.01330487426421437,-0.7546948281905761,-0.6572963547615015,-0.006168457679450512,0.007990231737494469,-0.001916426233947277,-0.01566791534423828,-0.001695394515991211,0.01064425706863403,XArbitraryZVertical,-0.3023691687114817,-0.3467320661883346,0.1130682055200727,0.8806618945666483,-0.5423307418823242,0.6109787821769714,-0.5766994953155518,0,0,0,-1,-1,31128.3166065,unknown,2,2025-04-22T12:42:28.008+03:00,2025-04-21T17:08:51.449+03:00,7356,0.9877701,0,0,6130.366,5,20,2025-04-22T12:42:48.644+03:00,767007742.9520817,0,-21.86,100.4651,1,0.8,2025-04-22T12:41:30.631+03:00,75,1.25,2025-04-22T09:54:17.825+03:00,0.02225348692287972,0
2025-04-22T12:42:55.600+03:00,1745314974.999192,40.95227984194496,29.14025968887145,76.43295,-1,-1,-1,-1,30,38.06994086312898,-9999,31142.273342375,-0.5472564697265625,0.6094818115234375,-0.5604400634765625,31142.263266375,-0.01341373700461159,-0.7546552518148317,-0.6573736813229392,-0.0158035084605217,0.01424599811434746,-0.0006743279518559575,-0.004553735256195068,-0.004915237426757812,0.010387122631073,XArbitraryZVertical,-0.302424297195947,-0.3466933891694214,0.1130278909012848,0.880663240866958,-0.5422754883766174,0.6110399961471558,-0.5766865015029907,0,0,0,-1,-1,31128.3166065,unknown,2,2025-04-22T12:42:28.008+03:00,2025-04-21T17:08:51.449+03:00,7356,0.9877701,0,0,6130.366,5,20,2025-04-22T12:42:48.644+03:00,767007742.9520817,0,-21.86,100.4651,1,0.8,2025-04-22T12:41:30.631+03:00,75,1.25,2025-04-22T09:54:17.825+03:00,0.02225348692287972,0
2025-04-22T12:42:55.610+03:00,1745314974.999192,40.95227984194496,29.14025968887145,76.43295,-1,-1,-1,-1,30,38.06994086312898,-9999,31142.283418375,-0.54644775390625,0.6026458740234375,-0.561676025390625,31142.273342375,-0.01361180219437613,-0.7546618383451245,-0.6574911281028075,-0.02257306315004826,0.01207971572875977,-0.000740008195862174,-0.0005097389221191406,-0.002963483333587646,0.01289480924606323,XArbitraryZVertical,-0.3025098727126445,-0.3466589955340272,0.1129622612383887,0.8806558317021359,-0.5422301292419434,0.6111329197883606,-0.5766306519508362,0,0,0,-1,-1,31128.3166065,unknown,2,2025-04-22T12:42:28.008+03:00,2025-04-21T17:08:51.449+03:00,7356,0.9877701,0,0,6130.366,5,20,2025-04-22T12:42:48.644+03:00,767007742.9520817,0,-21.86,100.4651,1,0.8,2025-04-22T12:41:30.631+03:00,75,1.25,2025-04-22T09:54:17.825+03:00,0.02225348692287972,0
2025-04-22T12:42:55.620+03:00,1745314974.999192,40.95227984194496,29.14025968887145,76.43295,-1,-1,-1,-1,30,38.06994086312898,-9999,31142.293494375,-0.5408477783203125,0.60723876953125,-0.560760498046875,31142.283418375,-0.01395574554429582,-0.7548379759509933,-0.6577217804801283,-0.03613121807575226,0.007990698330104351,-0.0005996595718897879,-0.005418062210083008,-0.002901911735534668,0.01600772142410278,XArbitraryZVertical,-0.3026609228207356,-0.3466701026538317,0.1128779328328765,0.8806103420790674,-0.5422350764274597,0.6113154888153076,-0.5764324069023132,0,0,0,-1,-1,31128.3166065,unknown,2,2025-04-22T12:42:28.008+03:00,2025-04-21T17:08:51.449+03:00,7356,0.9877701,0,0,6130.366,5,20,2025-04-22T12:42:48.644+03:00,767007742.9520817,0,-21.86,100.4651,1,0.8,2025-04-22T12:41:30.631+03:00,75,1.25,2025-04-22T09:54:17.825+03:00,0.02225348692287972,0
2025-04-22T12:42:55.630+03:00,1745314974.999192,40.95227984194496,29.14025968887145,76.43295,-1,-1,-1,-1,30,38.06994086312898,-9999,31142.303570375,-0.54150390625,0.6123046875,-0.559814453125,31142.293494375,-0.01435676474032998,-0.7551032693946719,-0.6579917176100583,-0.03945770487189293,0.001174137927591801,-0.003421511733904481,-0.003257334232330322,-0.009585201740264893,0.01427876949310303,XArbitraryZVertical,-0.3028340819677686,-0.3467092822655081,0.1127888764749612,0.8805468407930968,-0.5422748923301697,0.6115291118621826,-0.5761683583259583,0,0,0,-1,-1,31128.3166065,unknown,2,2025-04-22T12:42:28.008+03:00,2025-04-21T17:08:51.449+03:00,7356,0.9877701,0,0,6130.366,5,20,2025-04-22T12:42:48.644+03:00,767007742.9520817,0,-21.86,100.4651,1,0.8,2025-04-22T12:41:30.631+03:00,75,1.25,2025-04-22T09:54:17.825+03:00,0.02225348692287972,0
2025-04-22T12:42:55.640+03:00,1745314974.999192,40.95227984194496,29.14025968887145,76.43295,-1,-1,-1,-1,30,38.06994086312898,-9999,31142.313646375,-0.546356201171875,0.6153717041015625,-0.5580902099609375,31142.303570375,-0.01477748399381076,-0.7553924269498976,-0.6582970698800255,-0.03288742154836655,0.002602657536044717,-0.004561877343803644,0.001572489738464355,-0.002853512763977051,0.01549661159515381,XArbitraryZVertical,-0.3030248774384759,-0.3467536801054641,0.1127010407351001,0.8804750047343595,-0.5423134565353394,0.6117706894874573,-0.5758756399154663,0,0,0,-1,-1,31128.3166065,unknown,2,2025-04-22T12:42:28.008+03:00,2025-04-21T17:08:51.449+03:00,7356,0.9877701,0,0,6130.366,5,20,2025-04-22T12:42:48.644+03:00,767007742.9520817,0,-21.86,100.4651,1,0.8,2025-04-22T12:41:30.631+03:00,75,1.25,2025-04-22T09:54:17.825+03:00,0.02225348692287972,0
2025-04-22T12:42:55.650+03:00,1745314974.999192,40.95227984194496,29.14025968887145,76.43295,-1,-1,-1,-1,30,38.06994086312898,-9999,31142.323722375,-0.5507659912109375,0.6168365478515625,-0.562255859375,31142.313646375,-0.0151861095050928,-0.7556615416479883,-0.6585071063351514,-0.03001966141164303,0.01041324250400066,-0.0047730328515172,0.0003575682640075684,0.001054465770721436,0.01617264747619629,XArbitraryZVertical,-0.3031728454001575,-0.3467970094001258,0.1125988284285905,0.8804200787688372,-0.5423802733421326,0.6119368076324463,-0.5756361484527588,0,0,0,-1,-1,31128.3166065,unknown,2,2025-04-22T12:42:28.008+03:00,2025-04-21T17:08:51.449+03:00,7356,0.9877701,0,0,6130.366,5,20,2025-04-22T12:42:48.644+03:00,767007742.9520817,0,-21.86,100.4651,1,0.8,2025-04-22T12:41:30.631+03:00,75,1.25,2025-04-22T09:54:17.825+03:00,0.02225348692287972,0
2025-04-22T12:42:55.660+03:00,1745314974.999192,40.95227984194496,29.14025968887145,76.43295,-1,-1,-1,-1,30,38.06994086312898,-9999,31142.333798375,-0.5524444580078125,0.6142425537109375,-0.5640106201171875,31142.323722375,-0.01562509309156872,-0.7559548695024549,-0.6586324479368288,-0.03015734627842903,0.008423062041401863,-0.007372810505330563,-0.00404280424118042,0.003793478012084961,0.01701056957244873,XArbitraryZVertical,-0.3032875156769906,-0.3468516627018954,0.1124720730872797,0.8803752953222085,-0.5424965023994446,0.6120359301567078,-0.5754212141036987,0,0,0,-1,-1,31128.3166065,unknown,2,2025-04-22T12:42:28.008+03:00,2025-04-21T17:08:51.449+03:00,7356,0.9877701,0,0,6130.366,5,20,2025-04-22T12:42:48.644+03:00,767007742.9520817,0,-21.86,100.4651,1,0.8,2025-04-22T12:41:30.631+03:00,75,1.25,2025-04-22T09:54:17.825+03:00,0.02225348692287972,0
2025-04-22T12:42:55.670+03:00,1745314974.999192,40.95227984194496,29.14025968887145,76.43295,-1,-1,-1,-1,30,38.06994086312898,-9999,31142.343874375,-0.551483154296875,0.611083984375,-0.566314697265625,31142.333798375,-0.01604589301364362,-0.756213004728193,-0.6587568662194082,-0.03327164798974991,0.01158423535525799,-0.006885851267725229,-0.008188545703887939,0.004870057106018066,0.01252740621566772,XArbitraryZVertical,-0.303400639806431,-0.3468936074995349,0.1123478759200557,0.8803356394411114,-0.5425927639007568,0.6121343374252319,-0.5752257704734802,0,0,0,-1,-1,31128.3166065,unknown,2,2025-04-22T12:42:28.008+03:00,2025-04-21T17:08:51.449+03:00,7356,0.9877701,0,0,6130.366,5,20,2025-04-22T12:42:48.644+03:00,767007742.9520817,0,-21.86,100.4651,1,0.8,2025-04-22T12:41:30.631+03:00,75,1.25,2025-04-22T09:54:17.825+03:00,0.02225348692287972,0
2025-04-22T12:42:55.680+03:00,1745314974.999192,40.95227984194496,29.14025968887145,76.43295,-1,-1,-1,-1,30,38.06994086312898,-9999,31142.353951375,-0.549346923828125,0.608642578125,-0.5698089599609375,31142.343874375,-0.01647363871169503,-0.7564471588433053,-0.6589522484122869,-0.03778517246246338,0.004451490473002195,-0.005563592072576284,-0.01016539335250854,0.001267015933990479,0.01028388738632202,XArbitraryZVertical,-0.3035475270448461,-0.346919434273473,0.1122295415650497,0.8802897968582934,-0.542645275592804,0.612288773059845,-0.5750116109848022,0,0,0,-1,-1,31128.3166065,unknown,2,2025-04-22T12:42:28.008+03:00,2025-04-21T17:08:51.449+03:00,7356,0.9877701,0,0,6130.366,5,20,2025-04-22T12:42:48.644+03:00,767007742.9520817,0,-21.86,100.4651,1,0.8,2025-04-22T12:41:30.631+03:00,75,1.25,2025-04-22T09:54:17.825+03:00,0.02225348692287972,0
2025-04-22T12:42:55.691+03:00,1745314974.999192,40.95227984194496,29.14025968887145,76.43295,-1,-1,-1,-1,30,38.06994086312898,-9999,31142.364027375,-0.54803466796875,0.60546875,-0.5674896240234375,31142.353951375,-0.01693930006770115,-0.7567752792488632,-0.6592352113978199,-0.04687228053808212,-0.001269378699362278,-0.006533182226121426,-0.008173108100891113,-0.002298414707183838,0.007477402687072754,XArbitraryZVertical,-0.3037341632335668,-0.3469752058035403,0.112124208445117,0.8802168471555475,-0.5427149534225464,0.612512469291687,-0.5747075080871582,0,0,0,-1,-1,31128.3166065,unknown,2,2025-04-22T12:42:28.008+03:00,2025-04-21T17:08:51.449+03:00,7356,0.9877701,0,0,6130.366,5,20,2025-04-22T12:42:48.644+03:00,767007742.9520817,0,-21.86,100.4651,1,0.8,2025-04-22T12:41:30.631+03:00,75,1.25,2025-04-22T09:54:17.825+03:00,0.02225348692287972,0
2025-04-22T12:42:55.701+03:00,1745314974.999192,40.95227984194496,29.14025968887145,76.43295,-1,-1,-1,-1,30,38.06994086312898,-9999,31142.374103375,-0.548675537109375,0.6002197265625,-0.5668792724609375,31142.364027375,-0.01762223304580818,-0.7572794268668187,-0.6596415913945307,-0.07305328547954559,0.001311490312218666,-0.007141448557376862,-0.006375968456268311,-0.003779232501983643,0.00444406270980835,XArbitraryZVertical,-0.3040028248003558,-0.3470674455251404,0.1119718129558861,0.8801071680017466,-0.5428336262702942,0.6128336787223816,-0.5742529630661011,0,0,0,-1,-1,31128.3166065,unknown,2,2025-04-22T12:42:28.008+03:00,2025-04-21T17:08:51.449+03:00,7356,0.9877701,0,0,6130.366,5,20,2025-04-22T12:42:48.644+03:00,767007742.9520817,0,-21.86,100.4651,1,0.8,2025-04-22T12:41:30.631+03:00,75,1.25,2025-04-22T09:54:17.825+03:00,0.02225348692287972,0
2025-04-22T12:42:55.711+03:00,1745314974.999192,40.95227984194496,29.14025968887145,76.43295,-1,-1,-1,-1,30,38.06994086312898,-9999,31142.384179375,-0.548309326171875,0.6007537841796875,-0.56463623046875,31142.374103375,-0.01851569520322247,-0.7578922612623992,-0.6602113865593955,-0.09931910783052444,-0.003202434629201889,-0.005534164141863585,-0.004326403141021729,-0.008822202682495117,0.006161630153656006,XArbitraryZVertical,-0.3043737071595929,-0.3471648066056039,0.1117723109061992,0.8799659662020626,-0.5429453253746033,0.6132838129997253,-0.573666512966156,0,0,0,-1,-1,31128.3166065,unknown,2,2025-04-22T12:42:28.008+03:00,2025-04-21T17:08:51.449+03:00,7356,0.9877701,0,0,6130.366,5,20,2025-04-22T12:42:48.644+03:00,767007742.9520817,0,-21.86,100.4651,1,0.8,2025-04-22T12:41:30.631+03:00,75,1.25,2025-04-22T09:54:17.825+03:00,0.02225348692287972,0
2025-04-22T12:42:55.721+03:00,1745314974.999192,40.95227984194496,29.14025968887145,76.43295,-1,-1,-1,-1,30,38.06994086312898,-9999,31142.394255375,-0.5471038818359375,0.6025848388671875,-0.5637664794921875,31142.384179375,-0.01957225240410551,-0.7586246912037413,-0.6609885761965374,-0.1163444295525551,-0.005604339763522148,-0.01089883595705032,-0.005500972270965576,-0.01384568214416504,0.006119608879089355,XArbitraryZVertical,-0.3048572848506974,-0.3472762291356338,0.1115562264861286,0.8797819423747011,-0.5430372357368469,0.6138975024223328,-0.5729225277900696,0,0,0,-1,-1,31128.3166065,unknown,2,2025-04-22T12:42:28.008+03:00,2025-04-21T17:08:51.449+03:00,7356,0.9877701,0,0,6130.366,5,20,2025-04-22T12:42:48.644+03:00,767007742.9520817,0,-21.86,100.4651,1,0.8,2025-04-22T12:41:30.631+03:00,75,1.25,2025-04-22T09:54:17.825+03:00,0.02225348692287972,0
2025-04-22T12:42:55.731+03:00,1745314974.999192,40.95227984194496,29.14025968887145,76.43295,-1,-1,-1,-1,30,38.06994086312898,-9999,31142.404331375,-0.551239013671875,0.6079559326171875,-0.5704498291015625,31142.394255375,-0.02093303819525769,-0.7594893799839519,-0.6618863233352645,-0.1475416868925095,0.0127590224146843,-0.0191736426204443,-0.004744589328765869,-0.01340973377227783,0.008164405822753906,XArbitraryZVertical,-0.3054391996903389,-0.3473909243987643,0.1112482586342346,0.8795738575881979,-0.5431528091430664,0.6146059632301331,-0.5720528960227966,0,0,0,-1,-1,31128.3166065,unknown,2,2025-04-22T12:42:28.008+03:00,2025-04-21T17:08:51.449+03:00,7356,0.9877701,0,0,6130.366,5,20,2025-04-22T12:42:48.644+03:00,767007742.9520817,0,-21.86,100.4651,1,0.8,2025-04-22T12:41:30.631+03:00,75,1.25,2025-04-22T09:54:17.825+03:00,0.02225348692287972,0
2025-04-22T12:42:55.741+03:00,1745314974.999192,40.95227984194496,29.14025968887145,76.43295,-1,-1,-1,-1,30,38.06994086312898,-9999,31142.414407375,-0.5567169189453125,0.60687255859375,-0.5816650390625,31142.404331375,-0.02265771782739034,-0.7603720305316614,-0.6629826664598313,-0.1844163537025452,0.03214150667190552,-0.0247883852571249,-0.003972113132476807,-0.01140552759170532,0.006799459457397461,XArbitraryZVertical,-0.3061704357171053,-0.3474439779357195,0.1108188602695653,0.8793528872779474,-0.5431928038597107,0.6154704093933105,-0.5710846781730652,0,0,0,-1,-1,31128.3166065,unknown,2,2025-04-22T12:42:28.008+03:00,2025-04-21T17:08:51.449+03:00,7356,0.9877701,0,0,6130.366,5,20,2025-04-22T12:42:48.644+03:00,767007742.9520817,0,-21.86,100.4651,1,0.8,2025-04-22T12:41:30.631+03:00,75,1.25,2025-04-22T09:54:17.825+03:00,0.02225348692287972,0
2025-04-22T12:42:55.752+03:00,1745314974.999192,40.95227984194496,29.14025968887145,76.43295,-1,-1,-1,-1,30,38.06994086312898,-9999,31142.424483375,-0.5557098388671875,0.59393310546875,-0.5960235595703125,31142.414407375,-0.02467390659758904,-0.7613348722547262,-0.6641774641814939,-0.1891041249036789,0.03535108268260956,-0.03707478195428848,-0.008889317512512207,-0.008226931095123291,-0.001657068729400635,XArbitraryZVertical,-0.3069910229769477,-0.347479732997747,0.1102919397424898,0.8791189137023351,-0.5432347655296326,0.6164116859436035,-0.5700287222862244,0,0,0,-1,-1,31128.3166065,unknown,2,2025-04-22T12:42:28.008+03:00,2025-04-21T17:08:51.449+03:00,7356,0.9877701,0,0,6130.366,5,20,2025-04-22T12:42:48.644+03:00,767007742.9520817,0,-21.86,100.4651,1,0.8,2025-04-22T12:41:30.631+03:00,75,1.25,2025-04-22T09:54:17.825+03:00,0.02225348692287972,0
2025-04-22T12:42:55.761+03:00,1745314974.999192,40.95227984194496,29.14025968887145,76.43295,-1,-1,-1,-1,30,38.06994086312898,-9999,31142.434560375,-0.5555572509765625,0.592803955078125,-0.61505126953125,31142.424483375,-0.02684321218773659,-0.7622784011001978,-0.6652462067718911,-0.1905209124088287,0.05239797756075859,-0.05279755219817162,-0.01405602693557739,-0.0117078423500061,-0.01392298936843872,XArbitraryZVertical,-0.3077840892202897,-0.3474901627249355,0.1096733806588206,0.8789148553005292,-0.5433170795440674,0.6172528862953186,-0.5690391063690186,0,0,0,-1,-1,31128.3166065,unknown,2,2025-04-22T12:42:28.008+03:00,2025-04-21T17:08:51.449+03:00,7356,0.9877701,0,0,6130.366,5,20,2025-04-22T12:42:48.644+03:00,767007742.9520817,0,-21.86,100.4651,1,0.8,2025-04-22T12:41:30.631+03:00,75,1.25,2025-04-22T09:54:17.825+03:00,0.02225348692287972,0
2025-04-22T12:42:55.772+03:00,1745314974.999192,40.95227984194496,29.14025968887145,76.43295,-1,-1,-1,-1,30,38.06994086312898,-9999,31142.444636375,-0.5515594482421875,0.616363525390625,-0.6399688720703125,31142.434560375,-0.02891735071017863,-0.7629828792284439,-0.6660872156535518,-0.1541888117790222,0.07197374105453491,-0.05230676382780075,-0.01213735342025757,-0.02533930540084839,-0.02990949153900146,XArbitraryZVertical,-0.3084740459402479,-0.3474239130174047,0.1090201549460098,0.8787804121445921,-0.5433588624000549,0.6179143190383911,-0.5682807564735413,0,0,0,-1,-1,31128.3166065,unknown,2,2025-04-22T12:42:28.008+03:00,2025-04-21T17:08:51.449+03:00,7356,0.9877701,0,0,6130.366,5,20,2025-04-22T12:42:48.644+03:00,767007742.9520817,0,-21.86,100.4651,1,0.8,2025-04-22T12:41:30.631+03:00,75,1.25,2025-04-22T09:54:17.825+03:00,0.02225348692287972,0
2025-04-22T12:42:55.781+03:00,1745314974.999192,40.95227984194496,29.14025968887145,76.43295,-1,-1,-1,-1,30,38.06994086312898,-9999,31142.454712375,-0.547515869140625,0.62640380859375,-0.655242919921875,31142.444636375,-0.03067248797352378,-0.7632782482606308,-0.666631653471587,-0.1153998672962189,0.08620088547468185,-0.06213489174842834,-0.01137822866439819,-0.02355474233627319,-0.05088198184967041,XArbitraryZVertical,-0.3090010272824463,-0.3472460463835013,0.108391586064448,0.8787433355781444,-0.5432940721511841,0.6183422803878784,-0.5678771138191223,0,0,0,-1,-1,31128.3166065,unknown,2,2025-04-22T12:42:28.008+03:00,2025-04-21T17:08:51.449+03:00,7356,0.9877701,0,0,6130.366,5,20,2025-04-22T12:42:48.644+03:00,767007742.9520817,0,-21.86,100.4651,1,0.8,2025-04-22T12:41:30.631+03:00,75,1.25,2025-04-22T09:54:17.825+03:00,0.02225348692287972,0
2025-04-22T12:42:55.792+03:00,1745314974.999192,40.95227984194496,29.14025968887145,76.43295,-1,-1,-1,-1,30,38.06994086312898,-9999,31142.464788375,-0.5437469482421875,0.61083984375,-0.654632568359375,31142.454712375,-0.03222415257479428,-0.7633985170176018,-0.6668092376208846,-0.09787408262491226,0.07837258279323578,-0.08273374289274216,-0.006716668605804443,0.0001856684684753418,-0.07486093044281006,XArbitraryZVertical,-0.3093415442753293,-0.3470469820331438,0.1077600805741544,0.8787798309813655,-0.5432864427566528,0.6184818148612976,-0.5677323937416077,0,0,0,-1,-1,31128.3166065,unknown,2,2025-04-22T12:42:28.008+03:00,2025-04-21T17:08:51.449+03:00,7356,0.9877701,0,0,6130.366,5,20,2025-04-22T12:42:48.644+03:00,767007742.9520817,0,-21.86,100.4651,1,0.8,2025-04-22T12:41:30.631+03:00,75,1.25,2025-04-22T09:54:17.825+03:00,0.02225348692287972,0
2025-04-22T12:42:55.801+03:00,1745314974.999192,40.95227984194496,29.14025968887145,76.43295,-1,-1,-1,-1,30,38.06994086312898,-9999,31142.474864375,-0.5325469970703125,0.6222381591796875,-0.6712646484375,31142.464788375,-0.03456845820605475,-0.7641020216900516,-0.6671994280101282,-0.219616487622261,0.06357339769601822,-0.1067128404974937,-0.003981947898864746,0.006348848342895508,-0.08821976184844971,XArbitraryZVertical,-0.3098811881525467,-0.3469665288874802,0.1069086445008212,0.8787254339496738,-0.5435186624526978,0.6187884211540222,-0.5671757459640503,0,0,0,-1,-1,31128.3166065,unknown,2,2025-04-22T12:42:28.008+03:00,2025-04-21T17:08:51.449+03:00,7356,0.9877701,0,0,6130.366,5,20,2025-04-22T12:42:48.644+03:00,767007742.9520817,0,-21.86,100.4651,1,0.8,2025-04-22T12:41:30.631+03:00,75,1.25,2025-04-22T09:54:17.825+03:00,0.02225348692287972,0
2025-04-22T12:42:55.812+03:00,1745314974.999192,40.95227984194496,29.14025968887145,76.43295,-1,-1,-1,-1,30,38.06994086312898,-9999,31142.484940375,-0.5224456787109375,0.598480224609375,-0.6909332275390625,31142.474864375,-0.03774561129106109,-0.765708413685811,-0.668259349447581,-0.2801486551761627,0.002366368658840656,-0.1068046540021896,0.002531349658966064,-0.008460462093353271,-0.09016180038452148,XArbitraryZVertical,-0.3108102745047843,-0.3471060046102492,0.1059519444415311,0.8784580496846226,-0.5439742207527161,0.619620680809021,-0.565828800201416,0,0,0,-1,-1,31128.3166065,unknown,2,2025-04-22T12:42:28.008+03:00,2025-04-21T17:08:51.449+03:00,7356,0.9877701,0,0,6130.366,5,20,2025-04-22T12:42:48.644+03:00,767007742.9520817,0,-21.86,100.4651,1,0.8,2025-04-22T12:41:30.631+03:00,75,1.25,2025-04-22T09:54:17.825+03:00,0.02225348692287972,0
2025-04-22T12:42:55.822+03:00,1745314974.999192,40.95227984194496,29.14025968887145,76.43295,-1,-1,-1,-1,30,38.06994086312898,-9999,31142.495016375,-0.5184478759765625,0.571868896484375,-0.7011871337890625,31142.484940375,-0.04145493222472533,-0.7686024475040364,-0.669811974001323,-0.3513466715812683,-0.1039187908172607,-0.08934683352708817,0.01286602020263672,0.001689434051513672,-0.1105276346206665,XArbitraryZVertical,-0.31197990190091,-0.3476904110522726,0.1050528605468056,0.8779200989224794,-0.5449400544166565,0.6208385825157166,-0.5635598301887512,0,0,0,-1,-1,31128.3166065,unknown,2,2025-04-22T12:42:28.008+03:00,2025-04-21T17:08:51.449+03:00,7356,0.9877701,0,0,6130.366,5,20,2025-04-22T12:42:48.644+03:00,767007742.9520817,0,-21.86,100.4651,1,0.8,2025-04-22T12:41:30.631+03:00,75,1.25,2025-04-22T09:54:17.825+03:00,0.02225348692287972,0
2025-04-22T12:42:55.832+03:00,1745314974.999192,40.95227984194496,29.14025968887145,76.43295,-1,-1,-1,-1,30,38.06994086312898,-9999,31142.505092375,-0.5259857177734375,0.582122802734375,-0.6898193359375,31142.495016375,-0.04586931411504707,-0.772846103998838,-0.6719833954753359,-0.4108195602893829,-0.1977512091398239,-0.09676783531904221,0.02512866258621216,-0.0291861891746521,-0.132396936416626,XArbitraryZVertical,-0.3134733312804006,-0.3487070294816181,0.104172099958623,0.8770894538605768,-0.5463841557502747,0.6225394010543823,-0.5602757334709167,0,0,0,-1,-1,31128.3166065,unknown,2,2025-04-22T12:42:28.008+03:00,2025-04-21T17:08:51.449+03:00,7356,0.9877701,0,0,6130.366,5,20,2025-04-22T12:42:48.644+03:00,767007742.9520817,0,-21.86,100.4651,1,0.8,2025-04-22T12:41:30.631+03:00,75,1.25,2025-04-22T09:54:17.825+03:00,0.02225348692287972,0
2025-04-22T12:42:55.843+03:00,1745314974.999192,40.95227984194496,29.14025968887145,76.43295,-1,-1,-1,-1,30,38.06994086312898,-9999,31142.515169375,-0.517181396484375,0.6313629150390625,-0.7237396240234375,31142.505092375,-0.04968877206507028,-0.7775720193591857,-0.6737650952758174,-0.2017832249403,-0.2562933564186096,-0.05580655485391617,0.02903604507446289,-0.05261325836181641,-0.1432839632034302,XArbitraryZVertical,-0.3146707473082881,-0.3500489717036984,0.1035643177405883,0.8761977092660084,-0.5482469201087952,0.6239327192306519,-0.5568960905075073,0,0,0,-1,-1,31128.3166065,unknown,2,2025-04-22T12:42:28.008+03:00,2025-04-21T17:08:51.449+03:00,7356,0.9877701,0,0,6130.366,5,20,2025-04-22T12:42:48.644+03:00,767007742.9520817,0,-21.86,100.4651,1,0.8,2025-04-22T12:41:30.631+03:00,75,1.25,2025-04-22T09:54:17.825+03:00,0.02225348692287972,0
2025-04-22T12:42:55.853+03:00,1745314974.999192,40.95227984194496,29.14025968887145,76.43295,-1,-1,-1,-1,30,38.06994086312898,-9999,31142.525245375,-0.46917724609375,0.694580078125,-0.769134521484375,31142.515169375,-0.05032281936067347,-0.781149930676743,-0.6740455836118467,0.06682738661766052,-0.381287544965744,0.02750055119395256,0.02301305532455444,-0.03946578502655029,-0.135348379611969,XArbitraryZVertical,-0.3147183539429069,-0.3514954661409512,0.1039009833555506,0.875561365679649,-0.5501126050949097,0.624151885509491,-0.5548065900802612,0,0,0,-1,-1,31128.3166065,unknown,2,2025-04-22T12:42:28.008+03:00,2025-04-21T17:08:51.449+03:00,7356,0.9877701,0,0,6130.366,5,20,2025-04-22T12:42:48.644+03:00,767007742.9520817,0,-21.86,100.4651,1,0.8,2025-04-22T12:41:30.631+03:00,75,1.25,2025-04-22T09:54:17.825+03:00,0.02225348692287972,0
2025-04-22T12:42:55.862+03:00,1745314974.999192,40.95227984194496,29.14025968887145,76.43295,-1,-1,-1,-1,30,38.06994086312898,-9999,31142.535321375,-0.449981689453125,0.656036376953125,-0.7684173583984375,31142.525245375,-0.04869860748443144,-0.7849271060000668,-0.6736359108246242,0.1316758990287781,-0.5777177810668945,0.1042552515864372,0.03939974308013916,0.01746451854705811,-0.178463339805603,XArbitraryZVertical,-0.3140567131959393,-0.3534339441596189,0.1051301812141268,0.8748716545267625,-0.5523849725723267,0.6238318085670471,-0.5529056787490845,0,0,0,-1,-1,31128.3166065,unknown,2,2025-04-22T12:42:28.008+03:00,2025-04-21T17:08:51.449+03:00,7356,0.9877701,0,0,6130.366,5,20,2025-04-22T12:42:48.644+03:00,767007742.9520817,0,-21.86,100.4651,1,0.8,2025-04-22T12:41:30.631+03:00,75,1.25,2025-04-22T09:54:17.825+03:00,0.02225348692287972,0
2025-04-22T12:42:55.872+03:00,1745314974.999192,40.95227984194496,29.14025968887145,76.43295,-1,-1,-1,-1,30,38.06994086312898,-9999,31142.545397375,-0.4408721923828125,0.61846923828125,-0.778472900390625,31142.535321375,-0.04595752413973819,-0.7897719653763566,-0.6739357244651109,0.05553065612912178,-0.7924160957336426,0.1616963744163513,0.09005016088485718,0.07211613655090332,-0.2202486395835876,XArbitraryZVertical,-0.3134436312708714,-0.3559598894547784,0.1071438661762906,0.873822568878984,-0.5549244284629822,0.6240660548210144,-0.5500912666320801,0,0,0,-1,-1,31128.3166065,unknown,2,2025-04-22T12:42:28.008+03:00,2025-04-21T17:08:51.449+03:00,7356,0.9877701,0,0,6130.366,5,20,2025-04-22T12:42:48.644+03:00,767007742.9520817,0,-21.86,100.4651,1,0.8,2025-04-22T12:41:30.631+03:00,75,1.25,2025-04-22T09:54:17.825+03:00,0.02225348692287972,0
2025-04-22T12:42:55.882+03:00,1745314974.999192,40.95227984194496,29.14025968887145,76.43295,-1,-1,-1,-1,30,38.06994086312898,-9999,31142.555473375,-0.496917724609375,0.585662841796875,-0.75604248046875,31142.545397375,-0.04542402513141734,-0.7980245382169914,-0.6748619564549863,-0.1337809413671494,-0.889740526676178,0.05369187518954277,0.1103615760803223,0.02387672662734985,-0.2236942648887634,XArbitraryZVertical,-0.3133042176323843,-0.3595773488296635,0.1088420072434723,0.8721799255321603,-0.5590309500694275,0.6247895359992981,-0.5450891852378845,0,0,0,-1,-1,31128.3166065,unknown,2,2025-04-22T12:42:28.008+03:00,2025-04-21T17:08:51.449+03:00,7356,0.9877701,0,0,6130.366,5,20,2025-04-22T12:42:48.644+03:00,767007742.9520817,0,-21.86,100.4651,1,0.8,2025-04-22T12:41:30.631+03:00,75,1.25,2025-04-22T09:54:17.825+03:00,0.02225348692287972,0
2025-04-22T12:42:55.892+03:00,1745314974.999192,40.95227984194496,29.14025968887145,76.43295,-1,-1,-1,-1,30,38.06994086312898,-9999,31142.565549375,-0.530975341796875,0.614288330078125,-0.7225341796875,31142.555473375,-0.04781800261275027,-0.8089456536813009,-0.6773431891531584,-0.481227844953537,-0.9751403331756592,0.04666299372911453,0.1200557351112366,-0.01197892427444458,-0.2398605942726135,XArbitraryZVertical,-0.3142128621127944,-0.3637723799163198,0.1099789752587262,0.8699680732137479,-0.5638270974159241,0.6267249584197998,-0.5378798842430115,0,0,0,-1,-1,31128.3166065,unknown,2,2025-04-22T12:42:28.008+03:00,2025-04-21T17:08:51.449+03:00,7356,0.9877701,0,0,6130.366,5,20,2025-04-22T12:42:48.644+03:00,767007742.9520817,0,-21.86,100.4651,1,0.8,2025-04-22T12:41:30.631+03:00,75,1.25,2025-04-22T09:54:17.825+03:00,0.02225348692287972,0
2025-04-22T12:42:55.902+03:00,1745314974.999192,40.95227984194496,29.14025968887145,76.43295,-1,-1,-1,-1,30,38.06994086312898,-9999,31142.575625375,-0.533843994140625,0.687225341796875,-0.7254791259765625,31142.565549375,-0.0531163444157513,-0.8224261307626001,-0.6816800698499578,-0.6996246576309204,-1.05375874042511,0.01356070023030043,0.06422287225723267,-0.04609894752502441,-0.224172055721283,XArbitraryZVertical,-0.3163082589475943,-0.3684576167419816,0.1106303052486557,0.8671499079110314,-0.5690293908119202,0.6300985217094421,-0.5283761620521545,0,0,0,-1,-1,31128.3166065,unknown,2,2025-04-22T12:42:28.008+03:00,2025-04-21T17:08:51.449+03:00,7356,0.9877701,0,0,6130.366,5,20,2025-04-22T12:42:48.644+03:00,767007742.9520817,0,-21.86,100.4651,1,0.8,2025-04-22T12:41:30.631+03:00,75,1.25,2025-04-22T09:54:17.825+03:00,0.02225348692287972,0
2025-04-22T12:42:55.912+03:00,1745314974.999192,40.95227984194496,29.14025968887145,76.43295,-1,-1,-1,-1,30,38.06994086312898,-9999,31142.585701375,-0.5249786376953125,0.724884033203125,-0.72552490234375,31142.575625375,-0.0609250409390945,-0.8387453922199113,-0.6867826273654082,-0.8545970320701599,-1.216697454452515,-0.08098714798688889,0.04324036836624146,-0.009632408618927002,-0.2030453681945801,XArbitraryZVertical,-0.3190423193482665,-0.3738714176861534,0.1108349015884245,0.8637984197261647,-0.575177013874054,0.6340525150299072,-0.5168642997741699,0,0,0,-1,-1,31128.3166065,unknown,2,2025-04-22T12:42:28.008+03:00,2025-04-21T17:08:51.449+03:00,7356,0.9877701,0,0,6130.366,5,20,2025-04-22T12:42:48.644+03:00,767007742.9520817,0,-21.86,100.4651,1,0.8,2025-04-22T12:41:30.631+03:00,75,1.25,2025-04-22T09:54:17.825+03:00,0.02225348692287972,0
2025-04-22T12:42:55.922+03:00,1745314974.999192,40.95227984194496,29.14025968887145,76.43295,-1,-1,-1,-1,30,38.06994086312898,-9999,31142.595778375,-0.52606201171875,0.740509033203125,-0.697784423828125,31142.585701375,-0.07031290225234264,-0.8578191526033327,-0.6916182127864229,-0.8486472368240356,-1.38083815574646,-0.1487395465373993,0.04941642284393311,0.05528497695922852,-0.22327721118927,XArbitraryZVertical,-0.3218171233856553,-0.3801832887215448,0.1108054849017758,0.8600095533733257,-0.5826042890548706,0.6377843618392944,-0.5037888288497925,0,0,0,-1,-1,31128.3166065,unknown,2,2025-04-22T12:42:28.008+03:00,2025-04-21T17:08:51.449+03:00,7356,0.9877701,0,0,6130.366,5,20,2025-04-22T12:42:48.644+03:00,767007742.9520817,0,-21.86,100.4651,1,0.8,2025-04-22T12:41:30.631+03:00,75,1.25,2025-04-22T09:54:17.825+03:00,0.02225348692287972,0
2025-04-22T12:42:55.932+03:00,1745314974.999192,40.95227984194496,29.14025968887145,76.43295,-1,-1,-1,-1,30,38.06994086312898,-9999,31142.605854375,-0.5594940185546875,0.76611328125,-0.6537322998046875,31142.595778375,-0.07992872444001445,-0.8784926143496532,-0.6955578881906815,-0.7483243942260742,-1.493382811546326,-0.1992731988430023,0.06756359338760376,0.08626741170883179,-0.2327789068222046,XArbitraryZVertical,-0.3241853916608018,-0.3871548546068862,0.110820399686734,0.8559986519484231,-0.590955376625061,0.6408138275146484,-0.490029901266098,0,0,0,-1,-1,31128.3166065,unknown,2,2025-04-22T12:42:28.008+03:00,2025-04-21T17:08:51.449+03:00,7356,0.9877701,0,0,6130.366,5,20,2025-04-22T12:42:48.644+03:00,767007742.9520817,0,-21.86,100.4651,1,0.8,2025-04-22T12:41:30.631+03:00,75,1.25,2025-04-22T09:54:17.825+03:00,0.02225348692287972,0
2025-04-22T12:42:55.943+03:00,1745314974.999192,40.95227984194496,29.14025968887145,76.43295,-1,-1,-1,-1,30,38.06994086312898,-9999,31142.615930375,-0.588836669921875,0.7930908203125,-0.619384765625,31142.605854375,-0.08837605001269289,-0.8992391352442046,-0.6981334194676651,-0.5911768674850464,-1.544708847999573,-0.2164303511381149,0.07112014293670654,0.09991729259490967,-0.2163107395172119,XArbitraryZVertical,-0.3257687134655182,-0.3944064473850488,0.1111209547545834,0.852038979385173,-0.599699854850769,0.6427889466285706,-0.4766365885734558,0,0,0,-1,-1,31128.3166065,unknown,2,2025-04-22T12:42:28.008+03:00,2025-04-21T17:08:51.449+03:00,7356,0.9877701,0,0,6130.366,5,20,2025-04-22T12:42:48.644+03:00,767007742.9520817,0,-21.86,100.4651,1,0.8,2025-04-22T12:41:30.631+03:00,75,1.25,2025-04-22T09:54:17.825+03:00,0.02225348692287972,0
2025-04-22T12:42:55.953+03:00,1745314974.999192,40.95227984194496,29.14025968887145,76.43295,-1,-1,-1,-1,30,38.06994086312898,-9999,31142.626006375,-0.6092987060546875,0.7733306884765625,-0.58197021484375,31142.615930375,-0.09590201490263341,-0.9195430408291059,-0.6995663494908446,-0.4906953275203705,-1.52466607093811,-0.2546418309211731,0.04524177312850952,0.1259503364562988,-0.1847096979618073,XArbitraryZVertical,-0.3267355456241332,-0.4016738190267249,0.1115395321715552,0.8482103342816459,-0.6085199117660522,0.6438859701156616,-0.4638040661811829,0,0,0,-1,-1,31128.3166065,unknown,2,2025-04-22T12:42:28.008+03:00,2025-04-21T17:08:51.449+03:00,7356,0.9877701,0,0,6130.366,5,20,2025-04-22T12:42:48.644+03:00,767007742.9520817,0,-21.86,100.4651,1,0.8,2025-04-22T12:41:30.631+03:00,75,1.25,2025-04-22T09:54:17.825+03:00,0.02225348692287972,0
2025-04-22T12:42:55.963+03:00,1745314974.999192,40.95227984194496,29.14025968887145,76.43295,-1,-1,-1,-1,30,38.06994086312898,-9999,31142.636082375,-0.6095123291015625,0.712860107421875,-0.530517578125,31142.626006375,-0.1031578670018418,-0.9392838910796358,-0.7004753987460131,-0.5192148685455322,-1.458834052085876,-0.2568221688270569,0.02524137496948242,0.1498675346374512,-0.1643055081367493,XArbitraryZVertical,-0.3274806809761944,-0.4087522083210613,0.1118957143894554,0.8444864244775928,-0.6170840263366699,0.6445811986923218,-0.4513560831546783,0,0,0,-1,-1,31128.3166065,unknown,2,2025-04-22T12:42:28.008+03:00,2025-04-21T17:08:51.449+03:00,7356,0.9877701,0,0,6130.366,5,20,2025-04-22T12:42:48.644+03:00,767007742.9520817,0,-21.86,100.4651,1,0.8,2025-04-22T12:41:30.631+03:00,75,1.25,2025-04-22T09:54:17.825+03:00,0.02225348692287972,0
2025-04-22T12:42:55.973+03:00,1745314974.999192,40.95227984194496,29.14025968887145,76.43295,-1,-1,-1,-1,30,38.06994086312898,-9999,31142.646158375,-0.588653564453125,0.6713714599609375,-0.4769744873046875,31142.636082375,-0.1115600663212576,-0.959061867389114,-0.7018605127302855,-0.682074248790741,-1.392386555671692,-0.2629461884498596,0.01422673463821411,0.1206719875335693,-0.1379567980766296,XArbitraryZVertical,-0.3286775311465211,-0.4155667259492858,0.1119084082969985,0.8406853161651469,-0.6251581311225891,0.6456395983695984,-0.438550740480423,0,0,0,-1,-1,31128.3166065,unknown,2,2025-04-22T12:42:28.008+03:00,2025-04-21T17:08:51.449+03:00,7356,0.9877701,0,0,6130.366,5,20,2025-04-22T12:42:48.644+03:00,767007742.9520817,0,-21.86,100.4651,1,0.8,2025-04-22T12:41:30.631+03:00,75,1.25,2025-04-22T09:54:17.825+03:00,0.02225348692287972,0
2025-04-22T12:42:56.000+03:00,1745314974.999192,40.95227984194496,29.14025968887145,76.43295,-1,-1,-1,-1,30,38.06994086312898,-9999,31142.656234375,-0.570037841796875,0.6586761474609375,-0.4512939453125,31142.646158375,-0.1217031517835511,-0.9794939830671222,-0.7039096380526583,-0.8154411315917969,-1.368993878364563,-0.2738081514835358,0.02529817819595337,0.05857694149017334,-0.09853482246398926,XArbitraryZVertical,-0.3305011173808428,-0.4222496757423159,0.1114875852912012,0.8366867608967788,-0.6328878998756409,0.6472030282020569,-0.4249484539031982,0,0,0,-1,-1,31128.3166065,unknown,2,2025-04-22T12:42:28.008+03:00,2025-04-21T17:08:51.449+03:00,7356,0.9877701,0,0,6130.366,5,20,2025-04-22T12:42:48.644+03:00,767007742.9520817,0,-21.86,100.4651,1,0.8,2025-04-22T12:41:30.631+03:00,75,1.25,2025-04-22T09:54:17.825+03:00,0.02225348692287972,0
2025-04-22T12:42:56.003+03:00,1745314974.999192,40.95227984194496,29.14025968887145,76.43295,-1,-1,-1,-1,30,38.06994086312898,-9999,31142.666311375,-0.57061767578125,0.668212890625,-0.4264984130859375,31142.656234375,-0.1331048389603726,-1.000862126949736,-0.7061933763979173,-0.853602409362793,-1.416639685630798,-0.2997620105743408,0.05500560998916626,0.01919424533843994,-0.0615614652633667,XArbitraryZVertical,-0.3326693635785408,-0.4290291308355961,0.1108026479178468,0.8324588770415532,-0.6405768990516663,0.648942232131958,-0.4105302095413208,0,0,0,-1,-1,31128.3166065,unknown,2,2025-04-22T12:42:28.008+03:00,2025-04-21T17:08:51.449+03:00,7356,0.9877701,0,0,6130.366,5,20,2025-04-22T12:42:48.644+03:00,767007742.9520817,0,-21.86,100.4651,1,0.8,2025-04-22T12:41:30.631+03:00,75,1.25,2025-04-22T09:54:17.825+03:00,0.02225348692287972,0
2025-04-22T12:42:56.004+03:00,1745314974.999192,40.95227984194496,29.14025968887145,76.43295,-1,-1,-1,-1,30,38.06994086312898,-9999,31142.676387375,-0.6100311279296875,0.6828460693359375,-0.3741302490234375,31142.666311375,-0.1445314390634021,-1.022903644053849,-0.7078766247410779,-0.7837564945220947,-1.476504325866699,-0.3307830393314362,0.08010029792785645,0.008942246437072754,-0.05341491103172302,XArbitraryZVertical,-0.334602528907282,-0.436084586903185,0.1101352946316883,0.8280950667086603,-0.6485359072685242,0.6502220034599304,-0.3957427740097046,0,0,0,-1,-1,31128.3166065,unknown,2,2025-04-22T12:42:28.008+03:00,2025-04-21T17:08:51.449+03:00,7356,0.9877701,0,0,6130.366,5,20,2025-04-22T12:42:48.644+03:00,767007742.9520817,0,-21.86,100.4651,1,0.8,2025-04-22T12:41:30.631+03:00,75,1.25,2025-04-22T09:54:17.825+03:00,0.02225348692287972,0
2025-04-22T12:42:56.013+03:00,1745314974.999192,40.95227984194496,29.14025968887145,76.43295,-1,-1,-1,-1,30,38.06994086312898,-9999,31142.686463375,-0.6744842529296875,0.68609619140625,-0.326995849609375,31142.676387375,-0.1551404754295514,-1.044715561376208,-0.7086394404256369,-0.667410671710968,-1.468923568725586,-0.3547169864177704,0.08343321084976196,0.01916617155075073,-0.04016238451004028,XArbitraryZVertical,-0.3360417753434857,-0.4432251320669022,0.1095958920097702,0.8237816020504612,-0.656583845615387,0.6508013606071472,-0.3812548220157623,0,0,0,-1,-1,31128.3166065,unknown,2,2025-04-22T12:42:28.008+03:00,2025-04-21T17:08:51.449+03:00,7356,0.9877701,0,0,6130.366,5,20,2025-04-22T12:42:48.644+03:00,767007742.9520817,0,-21.86,100.4651,1,0.8,2025-04-22T12:41:30.631+03:00,75,1.25,2025-04-22T09:54:17.825+03:00,0.02225348692287972,0
2025-04-22T12:42:56.023+03:00,1745314974.999192,40.95227984194496,29.14025968887145,76.43295,-1,-1,-1,-1,30,38.06994086312898,-9999,31142.696539375,-0.71478271484375,0.6693572998046875,-0.3084716796875,31142.686463375,-0.1647588330100013,-1.065403499157379,-0.708578998408734,-0.5988848805427551,-1.398857951164246,-0.3708570897579193,0.04645979404449463,0.03376895189285278,0.000727534294128418,XArbitraryZVertical,-0.337034822921462,-0.450114007936504,0.1091101791684276,0.8196948833829816,-0.6643644571304321,0.6507554650306702,-0.367609828710556,0,0,0,-1,-1,31128.3166065,unknown,2,2025-04-22T12:42:28.008+03:00,2025-04-21T17:08:51.449+03:00,7356,0.9877701,0,0,6130.366,5,20,2025-04-22T12:42:48.644+03:00,767007742.9520817,0,-21.86,100.4651,1,0.8,2025-04-22T12:41:30.631+03:00,75,1.25,2025-04-22T09:54:17.825+03:00,0.02225348692287972,0
2025-04-22T12:42:56.033+03:00,1745314974.999192,40.95227984194496,29.14025968887145,76.43295,-1,-1,-1,-1,30,38.06994086312898,-9999,31142.706615375,-0.7050933837890625,0.6443939208984375,-0.29510498046875,31142.696539375,-0.173849208180434,-1.085024062338622,-0.7082098592958318,-0.5851573348045349,-1.327641248703003,-0.3392845094203949,-0.01062023639678955,0.03375935554504395,0.03071856498718262,XArbitraryZVertical,-0.3378822122065417,-0.4566477745099268,0.1086109045987895,0.8157891673321398,-0.6716612577438354,0.6504751443862915,-0.3546168506145477,0,0,0,-1,-1,31128.3166065,unknown,2,2025-04-22T12:42:28.008+03:00,2025-04-21T17:08:51.449+03:00,7356,0.9877701,0,0,6130.366,5,20,2025-04-22T12:42:48.644+03:00,767007742.9520817,0,-21.86,100.4651,1,0.8,2025-04-22T12:41:30.631+03:00,75,1.25,2025-04-22T09:54:17.825+03:00,0.02225348692287972,0
2025-04-22T12:42:56.043+03:00,1745314974.999192,40.95227984194496,29.14025968887145,76.43295,-1,-1,-1,-1,30,38.06994086312898,-9999,31142.716691375,-0.667083740234375,0.6136932373046875,-0.2982940673828125,31142.706615375,-0.1828153347805866,-1.103870281283302,-0.7081676421886952,-0.6152271032333374,-1.262094497680664,-0.2878138720989227,-0.0372658371925354,0.01693040132522583,0.03568008542060852,XArbitraryZVertical,-0.3389055074181015,-0.4628052728327078,0.1081401564537017,0.8119481772132565,-0.678249180316925,0.6504430770874023,-0.3419086635112762,0,0,0,-1,-1,31128.3166065,unknown,2,2025-04-22T12:42:28.008+03:00,2025-04-21T17:08:51.449+03:00,7356,0.9877701,0,0,6130.366,5,20,2025-04-22T12:42:48.644+03:00,767007742.9520817,0,-21.86,100.4651,1,0.8,2025-04-22T12:41:30.631+03:00,75,1.25,2025-04-22T09:54:17.825+03:00,0.02225348692287972,0
2025-04-22T12:42:56.053+03:00,1745314974.999192,40.95227984194496,29.14025968887145,76.43295,-1,-1,-1,-1,30,38.06994086312898,-9999,31142.726767375,-0.6257781982421875,0.5865020751953125,-0.3141632080078125,31142.716691375,-0.1920833770107446,-1.122393906311388,-0.7085627924653295,-0.6859588027000427,-1.224015355110168,-0.2626945376396179,-0.0173494815826416,-0.01014876365661621,0.03529149293899536,XArbitraryZVertical,-0.3402178151078409,-0.4686832314337873,0.107634280372368,0.8080858580873893,-0.6842343807220459,0.6507431864738464,-0.329175740480423,0,0,0,-1,-1,31128.3166065,unknown,2,2025-04-22T12:42:28.008+03:00,2025-04-21T17:08:51.449+03:00,7356,0.9877701,0,0,6130.366,5,20,2025-04-22T12:42:48.644+03:00,767007742.9520817,0,-21.86,100.4651,1,0.8,2025-04-22T12:41:30.631+03:00,75,1.25,2025-04-22T09:54:17.825+03:00,0.02225348692287972,0
2025-04-22T12:42:56.063+03:00,1745314974.999192,40.95227984194496,29.14025968887145,76.43295,-1,-1,-1,-1,30,38.06994086312898,-9999,31142.736844375,-0.606231689453125,0.5696868896484375,-0.3063812255859375,31142.726767375,-0.2026566134839942,-1.141579879493139,-0.7094064658143792,-0.8312923312187195,-1.23203432559967,-0.2682754695415497,0.02918809652328491,-0.04182547330856323,0.01561930775642395,XArbitraryZVertical,-0.3420066800264429,-0.4745014070883219,0.106868470198996,0.8040267861529077,-0.6899242401123047,0.6513835191726685,-0.315759688615799,0,0,0,-1,-1,31128.3166065,unknown,2,2025-04-22T12:42:28.008+03:00,2025-04-21T17:08:51.449+03:00,7356,0.9877701,0,0,6130.366,5,20,2025-04-22T12:42:48.644+03:00,767007742.9520817,0,-21.86,100.4651,1,0.8,2025-04-22T12:41:30.631+03:00,75,1.25,2025-04-22T09:54:17.825+03:00,0.02225348692287972,0
2025-04-22T12:42:56.074+03:00,1745314974.999192,40.95227984194496,29.14025968887145,76.43295,-1,-1,-1,-1,30,38.06994086312898,-9999,31142.746920375,-0.61444091796875,0.558349609375,-0.2700958251953125,31142.736844375,-0.2151108946958215,-1.162465315092998,-0.7105998340837156,-0.969344437122345,-1.298206448554993,-0.272466629743576,0.07423979043960571,-0.06906723976135254,-0.0147918164730072,XArbitraryZVertical,-0.3443250603721689,-0.4805762093827052,0.1057803881466274,0.7995605497169674,-0.6956538558006287,0.652288556098938,-0.300973504781723,0,0,0,-1,-1,31128.3166065,unknown,2,2025-04-22T12:42:28.008+03:00,2025-04-21T17:08:51.449+03:00,7356,0.9877701,0,0,6130.366,5,20,2025-04-22T12:42:48.644+03:00,767007742.9520817,0,-21.86,100.4651,1,0.8,2025-04-22T12:41:30.631+03:00,75,1.25,2025-04-22T09:54:17.825+03:00,0.02225348692287972,0
2025-04-22T12:42:56.084+03:00,1745314974.999192,40.95227984194496,29.14025968887145,76.43295,-1,-1,-1,-1,30,38.06994086312898,-9999,31142.756996375,-0.6539459228515625,0.5645751953125,-0.23358154296875,31142.746920375,-0.2284331225013757,-1.184412022145472,-0.7120820696955257,-0.9748489260673523,-1.323667645454407,-0.2278570830821991,0.09565001726150513,-0.0856623649597168,-0.01665526628494263,XArbitraryZVertical,-0.3469515969014688,-0.4868155795025557,0.1046690513227108,0.7947827225485841,-0.7011950612068176,0.653411328792572,-0.2852703630924225,0,0,0,-1,-1,31128.3166065,unknown,2,2025-04-22T12:42:28.008+03:00,2025-04-21T17:08:51.449+03:00,7356,0.9877701,0,0,6130.366,5,20,2025-04-22T12:42:48.644+03:00,767007742.9520817,0,-21.86,100.4651,1,0.8,2025-04-22T12:41:30.631+03:00,75,1.25,2025-04-22T09:54:17.825+03:00,0.02225348692287972,0
2025-04-22T12:42:56.094+03:00,1745314974.999192,40.95227984194496,29.14025968887145,76.43295,-1,-1,-1,-1,30,38.06994086312898,-9999,31142.767072375,-0.718902587890625,0.569244384765625,-0.1810455322265625,31142.756996375,-0.2408487613426564,-1.205779213291075,-0.7134804150389371,-0.8423163890838623,-1.303749442100525,-0.2032202482223511,0.08858466148376465,-0.09630274772644043,0.003921478986740112,XArbitraryZVertical,-0.3494006882121461,-0.4929203398986908,0.1038593242586684,0.7900392066256776,-0.7062757611274719,0.6544692516326904,-0.2698974013328552,0,0,0,-1,-1,31128.3166065,unknown,2,2025-04-22T12:42:28.008+03:00,2025-04-21T17:08:51.449+03:00,7356,0.9877701,0,0,6130.366,5,20,2025-04-22T12:42:48.644+03:00,767007742.9520817,0,-21.86,100.4651,1,0.8,2025-04-22T12:41:30.631+03:00,75,1.25,2025-04-22T09:54:17.825+03:00,0.02225348692287972,0
2025-04-22T12:42:56.104+03:00,1745314974.999192,40.95227984194496,29.14025968887145,76.43295,-1,-1,-1,-1,30,38.06994086312898,-9999,31142.777148375,-0.761871337890625,0.554473876953125,-0.1058349609375,31142.767072375,-0.2507894595278343,-1.225148482241564,-0.7141835209979021,-0.6098682284355164,-1.249099731445312,-0.1838718503713608,0.0492706298828125,-0.08850300312042236,0.02690091729164124,XArbitraryZVertical,-0.3511206392048222,-0.4987068390564358,0.10353456096533,0.7856756789420295,-0.7109374403953552,0.6550006866455078,-0.256011575460434,0,0,0,-1,-1,31128.3166065,unknown,2,2025-04-22T12:42:28.008+03:00,2025-04-21T17:08:51.449+03:00,7356,0.9877701,0,0,6130.366,5,20,2025-04-22T12:42:48.644+03:00,767007742.9520817,0,-21.86,100.4651,1,0.8,2025-04-22T12:41:30.631+03:00,75,1.25,2025-04-22T09:54:17.825+03:00,0.02225348692287972,0
2025-04-22T12:42:56.114+03:00,1745314974.999192,40.95227984194496,29.14025968887145,76.43295,-1,-1,-1,-1,30,38.06994086312898,-9999,31142.787224375,-0.76702880859375,0.5614013671875,-0.0670013427734375,31142.777148375,-0.2583052696224816,-1.242353667650681,-0.7144742704397883,-0.5010160207748413,-1.183838367462158,-0.1321683079004288,-0.01152139902114868,-0.08725786209106445,0.07192811369895935,XArbitraryZVertical,-0.3522199813860314,-0.504083909316921,0.1036981952869662,0.7817205113811817,-0.715056300163269,0.6552203297615051,-0.2436809986829758,0,0,0,-1,-1,31128.3166065,unknown,2,2025-04-22T12:42:28.008+03:00,2025-04-21T17:08:51.449+03:00,7356,0.9877701,0,0,6130.366,5,20,2025-04-22T12:42:48.644+03:00,767007742.9520817,0,-21.86,100.4651,1,0.8,2025-04-22T12:41:30.631+03:00,75,1.25,2025-04-22T09:54:17.825+03:00,0.02225348692287972,0
2025-04-22T12:42:56.124+03:00,1745314974.999192,40.95227984194496,29.14025968887145,76.43295,-1,-1,-1,-1,30,38.06994086312898,-9999,31142.797300375,-0.7338104248046875,0.5748443603515625,-0.075775146484375,31142.787224375,-0.2649674278949409,-1.258190343618695,-0.7151598176704415,-0.4867928624153137,-1.099602222442627,-0.04736074060201645,-0.04672330617904663,-0.102164626121521,0.1344103366136551,XArbitraryZVertical,-0.3533336168064606,-0.5089803952770919,0.1040928047457774,0.7779838453041146,-0.7183980941772461,0.6557381153106689,-0.2321886271238327,0,0,0,-1,-1,31128.3166065,unknown,2,2025-04-22T12:42:28.008+03:00,2025-04-21T17:08:51.449+03:00,7356,0.9877701,0,0,6130.366,5,20,2025-04-22T12:42:48.644+03:00,767007742.9520817,0,-21.86,100.4651,1,0.8,2025-04-22T12:41:30.631+03:00,75,1.25,2025-04-22T09:54:17.825+03:00,0.02225348692287972,0
2025-04-22T12:42:56.134+03:00,1745314974.999192,40.95227984194496,29.14025968887145,76.43295,-1,-1,-1,-1,30,38.06994086312898,-9999,31142.807377375,-0.683990478515625,0.5531768798828125,-0.102569580078125,31142.797300375,-0.2716181485769968,-1.273331090910588,-0.7167024662926635,-0.5694926381111145,-1.035621762275696,0.01945830509066582,-0.0438157320022583,-0.09331870079040527,0.1558183431625366,XArbitraryZVertical,-0.3547993854462493,-0.5134423911967075,0.1046448297466027,0.7743020789556808,-0.7208631634712219,0.656902015209198,-0.2209886163473129,0,0,0,-1,-1,31128.3166065,unknown,2,2025-04-22T12:42:28.008+03:00,2025-04-21T17:08:51.449+03:00,7356,0.9877701,0,0,6130.366,5,20,2025-04-22T12:42:48.644+03:00,767007742.9520817,0,-21.86,100.4651,1,0.8,2025-04-22T12:41:30.631+03:00,75,1.25,2025-04-22T09:54:17.825+03:00,0.02225348692287972,0
2025-04-22T12:42:56.144+03:00,1745314974.999192,40.95227984194496,29.14025968887145,76.43295,-1,-1,-1,-1,30,38.06994086312898,-9999,31142.817453375,-0.66015625,0.5350494384765625,-0.096923828125,31142.807377375,-0.279746442446162,-1.288615832127372,-0.7186184469246157,-0.7116186022758484,-0.9458812475204468,0.005128900054842234,-0.004638314247131348,-0.08467596769332886,0.1299738585948944,XArbitraryZVertical,-0.3567790139979039,-0.5176018083948627,0.1047925106918598,0.7705943677326816,-0.7229465246200562,0.6583454012870789,-0.2095942050218582,0,0,0,-1,-1,31128.3166065,unknown,2,2025-04-22T12:42:28.008+03:00,2025-04-21T17:08:51.449+03:00,7356,0.9877701,0,0,6130.366,5,20,2025-04-22T12:42:48.644+03:00,767007742.9520817,0,-21.86,100.4651,1,0.8,2025-04-22T12:41:30.631+03:00,75,1.25,2025-04-22T09:54:17.825+03:00,0.02225348692287972,0
2025-04-22T12:42:56.155+03:00,1745314974.999192,40.95227984194496,29.14025968887145,76.43295,-1,-1,-1,-1,30,38.06994086312898,-9999,31142.827529375,-0.6488494873046875,0.5563507080078125,-0.07318115234375,31142.817453375,-0.2903456212844037,-1.304829201652543,-0.72089374854776,-0.9247891902923584,-0.896648645401001,0.001526874490082264,0.04644227027893066,-0.1107248067855835,0.09398165345191956,XArbitraryZVertical,-0.3594909082342529,-0.521575070347061,0.1043041388279844,0.7667112631876045,-0.7248021960258484,0.6600563526153564,-0.1974514722824097,0,0,0,-1,-1,31128.3166065,unknown,2,2025-04-22T12:42:28.008+03:00,2025-04-21T17:08:51.449+03:00,7356,0.9877701,0,0,6130.366,5,20,2025-04-22T12:42:48.644+03:00,767007742.9520817,0,-21.86,100.4651,1,0.8,2025-04-22T12:41:30.631+03:00,75,1.25,2025-04-22T09:54:17.825+03:00,0.02225348692287972,0
2025-04-22T12:42:56.165+03:00,1745314974.999192,40.95227984194496,29.14025968887145,76.43295,-1,-1,-1,-1,30,38.06994086312898,-9999,31142.837605375,-0.657073974609375,0.58984375,-0.0377960205078125,31142.827529375,-0.3036289967886249,-1.322631534827872,-0.7234280815687735,-1.112693548202515,-0.893810510635376,-0.02213477902114391,0.0681312084197998,-0.1261763572692871,0.08950175344944,XArbitraryZVertical,-0.3629328402374221,-0.5255726783710422,0.1032093926802263,0.7624964023385591,-0.726578414440155,0.6619580388069153,-0.1841062307357788,0,0,0,-1,-1,31128.3166065,unknown,2,2025-04-22T12:42:28.008+03:00,2025-04-21T17:08:51.449+03:00,7356,0.9877701,0,0,6130.366,5,20,2025-04-22T12:42:48.644+03:00,767007742.9520817,0,-21.86,100.4651,1,0.8,2025-04-22T12:41:30.631+03:00,75,1.25,2025-04-22T09:54:17.825+03:00,0.02225348692287972,0
2025-04-22T12:42:56.174+03:00,1745314974.999192,40.95227984194496,29.14025968887145,76.43295,-1,-1,-1,-1,30,38.06994086312898,-9999,31142.847681375,-0.6835784912109375,0.6091461181640625,-0.0096282958984375,31142.837605375,-0.3186587188475464,-1.341528601296744,-0.7259194096988972,-1.153026819229126,-0.8797398805618286,-0.02442493103444576,0.08070582151412964,-0.1040853261947632,0.1010447889566422,XArbitraryZVertical,-0.3667921165629443,-0.5296028861041377,0.1017081914403314,0.7580498753246721,-0.7283192873001099,0.6638233661651611,-0.1699686497449875,0,0,0,-1,-1,31128.3166065,unknown,2,2025-04-22T12:42:28.008+03:00,2025-04-21T17:08:51.449+03:00,7356,0.9877701,0,0,6130.366,5,20,2025-04-22T12:42:48.644+03:00,767007742.9520817,0,-21.86,100.4651,1,0.8,2025-04-22T12:41:30.631+03:00,75,1.25,2025-04-22T09:54:17.825+03:00,0.02225348692287972,0
2025-04-22T12:42:56.185+03:00,1745314974.999192,40.95227984194496,29.14025968887145,76.43295,-1,-1,-1,-1,30,38.06994086312898,-9999,31142.857757375,-0.7123870849609375,0.630950927734375,0.029754638671875,31142.847681375,-0.3331219742372339,-1.35988010392235,-0.7280282971226377,-1.011777877807617,-0.8503170609474182,-0.04053066298365593,0.07050615549087524,-0.07247310876846313,0.122422382235527,XArbitraryZVertical,-0.3704305316132006,-0.533517013340115,0.100279560802825,0.7537140245819384,-0.7299453020095825,0.6653990745544434,-0.1562816351652145,0,0,0,-1,-1,31128.3166065,unknown,2,2025-04-22T12:42:28.008+03:00,2025-04-21T17:08:51.449+03:00,7356,0.9877701,0,0,6130.366,5,20,2025-04-22T12:42:48.644+03:00,767007742.9520817,0,-21.86,100.4651,1,0.8,2025-04-22T12:41:30.631+03:00,75,1.25,2025-04-22T09:54:17.825+03:00,0.02225348692287972,0
2025-04-22T12:42:56.194+03:00,1745314974.999192,40.95227984194496,29.14025968887145,76.43295,-1,-1,-1,-1,30,38.06994086312898,-9999,31142.867834375,-0.7397003173828125,0.661102294921875,0.0600433349609375,31142.857757375,-0.3452346941667782,-1.376320917843182,-0.729335945385173,-0.7906659245491028,-0.8110878467559814,-0.06314902752637863,0.04377162456512451,-0.05461937189102173,0.1387208104133606,XArbitraryZVertical,-0.3732949278447273,-0.537219656133093,0.09919446937882356,0.7498042061234985,-0.731561541557312,0.6663746237754822,-0.1440918743610382,0,0,0,-1,-1,31128.3166065,unknown,2,2025-04-22T12:42:28.008+03:00,2025-04-21T17:08:51.449+03:00,7356,0.9877701,0,0,6130.366,5,20,2025-04-22T12:42:48.644+03:00,767007742.9520817,0,-21.86,100.4651,1,0.8,2025-04-22T12:41:30.631+03:00,75,1.25,2025-04-22T09:54:17.825+03:00,0.02225348692287972,0
2025-04-22T12:42:56.205+03:00,1745314974.999192,40.95227984194496,29.14025968887145,76.43295,-1,-1,-1,-1,30,38.06994086312898,-9999,31142.877910375,-0.7512359619140625,0.6723175048828125,0.0550689697265625,31142.867834375,-0.3549257666535396,-1.390646249639166,-0.7299376435720527,-0.6483055949211121,-0.7496076822280884,-0.08943149447441101,0.01724404096603394,-0.03248488903045654,0.1687124967575073,XArbitraryZVertical,-0.3753998426087879,-0.540658956817579,0.09844184357113689,0.7463725004441955,-0.7331558465957642,0.666823148727417,-0.1335256993770599,0,0,0,-1,-1,31128.3166065,unknown,2,2025-04-22T12:42:28.008+03:00,2025-04-21T17:08:51.449+03:00,7356,0.9877701,0,0,6130.366,5,20,2025-04-22T12:42:48.644+03:00,767007742.9520817,0,-21.86,100.4651,1,0.8,2025-04-22T12:41:30.631+03:00,75,1.25,2025-04-22T09:54:17.825+03:00,0.02225348692287972,0
2025-04-22T12:42:56.215+03:00,1745314974.999192,40.95227984194496,29.14025968887145,76.43295,-1,-1,-1,-1,30,38.06994086312898,-9999,31142.887986375,-0.739044189453125,0.663055419921875,0.0225067138671875,31142.877910375,-0.3636293997507341,-1.403794626420007,-0.730059915121599,-0.6340255737304688,-0.7140545845031738,-0.0990949422121048,-0.006900966167449951,-0.002531528472900391,0.1846368312835693,XArbitraryZVertical,-0.3771555019169684,-0.5438963072188503,0.09771344986761486,0.7432243584873259,-0.7347676157951355,0.6669142842292786,-0.1238610669970512,0,0,0,-1,-1,31128.3166065,unknown,2,2025-04-22T12:42:28.008+03:00,2025-04-21T17:08:51.449+03:00,7356,0.9877701,0,0,6130.366,5,20,2025-04-22T12:42:48.644+03:00,767007742.9520817,0,-21.86,100.4651,1,0.8,2025-04-22T12:41:30.631+03:00,75,1.25,2025-04-22T09:54:17.825+03:00,0.02225348692287972,0
2025-04-22T12:42:56.225+03:00,1745314974.999192,40.95227984194496,29.14025968887145,76.43295,-1,-1,-1,-1,30,38.06994086312898,-9999,31142.898062375,-0.7236328125,0.6371612548828125,-0.0281982421875,31142.887986375,-0.3724840399211631,-1.416810021471423,-0.7301112766756377,-0.6586089134216309,-0.6956284046173096,-0.106845535337925,-0.01516580581665039,0.005624234676361084,0.1669098734855652,XArbitraryZVertical,-0.3789540789701064,-0.5470398941569864,0.09690664982147974,0.7401014735170348,-0.7362837195396423,0.6669525504112244,-0.1142823174595833,0,0,0,-1,-1,31128.3166065,unknown,2,2025-04-22T12:42:28.008+03:00,2025-04-21T17:08:51.449+03:00,7356,0.9877701,0,0,6130.366,5,20,2025-04-22T12:42:48.644+03:00,767007742.9520817,0,-21.86,100.4651,1,0.8,2025-04-22T12:41:30.631+03:00,75,1.25,2025-04-22T09:54:17.825+03:00,0.02225348692287972,0
2025-04-22T12:42:56.235+03:00,1745314974.999192,40.95227984194496,29.14025968887145,76.43295,-1,-1,-1,-1,30,38.06994086312898,-9999,31142.908138375,-0.7233123779296875,0.628021240234375,-0.025360107421875,31142.898062375,-0.3816079539484855,-1.429723030949702,-0.7297836981268364,-0.6637670993804932,-0.6592879295349121,-0.159463182091713,0.002272903919219971,-0.005758762359619141,0.1214587539434433,XArbitraryZVertical,-0.3807276875727511,-0.5501348519269262,0.09588330968827502,0.7370240651635844,-0.7379143834114075,0.6667084097862244,-0.1047961488366127,0,0,0,-1,-1,31128.3166065,unknown,2,2025-04-22T12:42:28.008+03:00,2025-04-21T17:08:51.449+03:00,7356,0.9877701,0,0,6130.366,5,20,2025-04-22T12:42:48.644+03:00,767007742.9520817,0,-21.86,100.4651,1,0.8,2025-04-22T12:41:30.631+03:00,75,1.25,2025-04-22T09:54:17.825+03:00,0.02225348692287972,0
2025-04-22T12:42:56.245+03:00,1745314974.999192,40.95227984194496,29.14025968887145,76.43295,-1,-1,-1,-1,30,38.06994086312898,-9999,31142.918214375,-0.7193603515625,0.6595916748046875,0.05938720703125,31142.908138375,-0.3909875051262446,-1.442411527167213,-0.7288462017603597,-0.6983857750892639,-0.616407036781311,-0.2108131945133209,0.01698017120361328,-0.03226613998413086,0.06254594027996063,XArbitraryZVertical,-0.3824082272435879,-0.5531830468914177,0.09454763042515636,0.7340390162266622,-0.7398042678833008,0.6660094261169434,-0.09550493210554123,0,0,0,-1,-1,31128.3166065,unknown,2,2025-04-22T12:42:28.008+03:00,2025-04-21T17:08:51.449+03:00,7356,0.9877701,0,0,6130.366,5,20,2025-04-22T12:42:48.644+03:00,767007742.9520817,0,-21.86,100.4651,1,0.8,2025-04-22T12:41:30.631+03:00,75,1.25,2025-04-22T09:54:17.825+03:00,0.02225348692287972,0
2025-04-22T12:42:56.255+03:00,1745314974.999192,40.95227984194496,29.14025968887145,76.43295,-1,-1,-1,-1,30,38.06994086312898,-9999,31142.928291375,-0.7146453857421875,0.67608642578125,0.137481689453125,31142.918214375,-0.4013792916149382,-1.455196170639551,-0.7274446028986444,-0.7898483872413635,-0.5479469895362854,-0.2519085705280304,0.01892971992492676,-0.03498899936676025,0.06803464889526367,XArbitraryZVertical,-0.3842433672586814,-0.5561327451971105,0.09272943955152264,0.7310776652744382,-0.741891086101532,0.6649632453918457,-0.08614680916070938,0,0,0,-1,-1,31128.3166065,unknown,2,2025-04-22T12:42:28.008+03:00,2025-04-21T17:08:51.449+03:00,7356,0.9877701,0,0,6130.366,5,20,2025-04-22T12:42:48.644+03:00,767007742.9520817,0,-21.86,100.4651,1,0.8,2025-04-22T12:41:30.631+03:00,75,1.25,2025-04-22T09:54:17.825+03:00,0.02225348692287972,0
2025-04-22T12:42:56.265+03:00,1745314974.999192,40.95227984194496,29.14025968887145,76.43295,-1,-1,-1,-1,30,38.06994086312898,-9999,31142.938367375,-0.7202911376953125,0.63909912109375,0.1703643798828125,31142.928291375,-0.4128974564869248,-1.468048137441795,-0.7256856409101474,-0.8730050325393677,-0.484111875295639,-0.2761792838573456,0.02570027112960815,0.0006427168846130371,0.1484108567237854,XArbitraryZVertical,-0.3863084815024815,-0.558930439862956,0.09041888325467867,0.7281392761686132,-0.7440992593765259,0.6636484861373901,-0.07672504335641861,0,0,0,-1,-1,31128.3166065,unknown,2,2025-04-22T12:42:28.008+03:00,2025-04-21T17:08:51.449+03:00,7356,0.9877701,0,0,6130.366,5,20,2025-04-22T12:42:48.644+03:00,767007742.9520817,0,-21.86,100.4651,1,0.8,2025-04-22T12:41:30.631+03:00,75,1.25,2025-04-22T09:54:17.825+03:00,0.02225348692287972,0
2025-04-22T12:42:56.276+03:00,1745314974.999192,40.95227984194496,29.14025968887145,76.43295,-1,-1,-1,-1,30,38.06994086312898,-9999,31142.948443375,-0.7357940673828125,0.607818603515625,0.1967010498046875,31142.938367375,-0.425228333608492,-1.480756744905626,-0.7236999365282015,-0.9021456241607666,-0.4138550162315369,-0.2918799519538879,0.03099322319030762,0.01181876659393311,0.2109814882278442,XArbitraryZVertical,-0.3885734801993808,-0.5615337512388352,0.08773574482148487,0.7252535886807424,-0.7463251948356628,0.6621617674827576,-0.06738099455833435,0,0,0,-1,-1,31128.3166065,unknown,2,2025-04-22T12:42:28.008+03:00,2025-04-21T17:08:51.449+03:00,7356,0.9877701,0,0,6130.366,5,20,2025-04-22T12:42:48.644+03:00,767007742.9520817,0,-21.86,100.4651,1,0.8,2025-04-22T12:41:30.631+03:00,75,1.25,2025-04-22T09:54:17.825+03:00,0.02225348692287972,0
2025-04-22T12:42:56.285+03:00,1745314974.999192,40.95227984194496,29.14025968887145,76.43295,-1,-1,-1,-1,30,38.06994086312898,-9999,31142.958519375,-0.751922607421875,0.6113433837890625,0.222381591796875,31142.948443375,-0.4375792723564193,-1.492660414075327,-0.7215074161770733,-0.8856838345527649,-0.3233815729618073,-0.2928165793418884,0.02723711729049683,-0.02636206150054932,0.2319912314414978,XArbitraryZVertical,-0.390853469547526,-0.5638534919292607,0.08484572334224401,0.7225675806201676,-0.7485200166702271,0.6605172157287598,-0.0586056113243103,0,0,0,-1,-1,31128.3166065,unknown,2,2025-04-22T12:42:28.008+03:00,2025-04-21T17:08:51.449+03:00,7356,0.9877701,0,0,6130.366,5,20,2025-04-22T12:42:48.644+03:00,767007742.9520817,0,-21.86,100.4651,1,0.8,2025-04-22T12:41:30.631+03:00,75,1.25,2025-04-22T09:54:17.825+03:00,0.02225348692287972,0
2025-04-22T12:42:56.295+03:00,1745314974.999192,40.95227984194496,29.14025968887145,76.43295,-1,-1,-1,-1,30,38.06994086312898,-9999,31142.968595375,-0.7519378662109375,0.6116790771484375,0.243804931640625,31142.958519375,-0.4495284143917039,-1.503263628212778,-0.7192958757801329,-0.8643453121185303,-0.2134716510772705,-0.2739816606044769,0.01253312826156616,-0.05263888835906982,0.2506848573684692,XArbitraryZVertical,-0.3931051250120465,-0.5657616670696273,0.08186375800626362,0.7201946190760876,-0.7505549192428589,0.658855140209198,-0.05076419189572334,0,0,0,-1,-1,31128.3166065,unknown,2,2025-04-22T12:42:28.008+03:00,2025-04-21T17:08:51.449+03:00,7356,0.9877701,0,0,6130.366,5,20,2025-04-22T12:42:48.644+03:00,767007742.9520817,0,-21.86,100.4651,1,0.8,2025-04-22T12:41:30.631+03:00,75,1.25,2025-04-22T09:54:17.825+03:00,0.02225348692287972,0
2025-04-22T12:42:56.305+03:00,1745314974.999192,40.95227984194496,29.14025968887145,76.43295,-1,-1,-1,-1,30,38.06994086312898,-9999,31142.978671375,-0.7409210205078125,0.5684967041015625,0.2498626708984375,31142.968595375,-0.4612202285508621,-1.51247570043827,-0.7171836863002717,-0.8520124554634094,-0.09047248959541321,-0.2514875531196594,-0.0005207657814025879,-0.0443650484085083,0.2697895765304565,XArbitraryZVertical,-0.3954019297506008,-0.5671797046162789,0.07875499565918168,0.718165777555186,-0.7523783445358276,0.6572647094726562,-0.04392899200320244,0,0,0,-1,-1,31128.3166065,unknown,2,2025-04-22T12:42:28.008+03:00,2025-04-21T17:08:51.449+03:00,7356,0.9877701,0,0,6130.366,5,20,2025-04-22T12:42:48.644+03:00,767007742.9520817,0,-21.86,100.4651,1,0.8,2025-04-22T12:41:30.631+03:00,75,1.25,2025-04-22T09:54:17.825+03:00,0.02225348692287972,0
2025-04-22T12:42:56.315+03:00,1745314974.999192,40.95227984194496,29.14025968887145,76.43295,-1,-1,-1,-1,30,38.06994086312898,-9999,31142.988748375,-0.7256011962890625,0.52508544921875,0.2702789306640625,31142.978671375,-0.4727358977551554,-1.520325339215897,-0.7153382685846172,-0.8474456667900085,0.03686202690005302,-0.2061781287193298,0.0036965012550354,-0.04694044589996338,0.2827118635177612,XArbitraryZVertical,-0.3978084670899673,-0.5680730222608855,0.07554894559834974,0.7164731459401472,-0.7539101243019104,0.6558728218078613,-0.03808293119072914,0,0,0,-1,-1,31128.3166065,unknown,2,2025-04-22T12:42:28.008+03:00,2025-04-21T17:08:51.449+03:00,7356,0.9877701,0,0,6130.366,5,20,2025-04-22T12:42:48.644+03:00,767007742.9520817,0,-21.86,100.4651,1,0.8,2025-04-22T12:41:30.631+03:00,75,1.25,2025-04-22T09:54:17.825+03:00,0.02225348692287972,0
2025-04-22T12:42:56.326+03:00,1745314974.999192,40.95227984194496,29.14025968887145,76.43295,-1,-1,-1,-1,30,38.06994086312898,-9999,31142.998824375,-0.724090576171875,0.5230560302734375,0.2886962890625,31142.988748375,-0.4836365935374324,-1.52631198539841,-0.7138782965415965,-0.7714467644691467,0.195662334561348,-0.1654783636331558,0.0162804126739502,-0.0927889347076416,0.2841455340385437,XArbitraryZVertical,-0.4002449161865042,-0.5683293875858508,0.07233937385687206,0.7152431005120553,-0.7550804018974304,0.6547700166702271,-0.03361142799258232,0,0,0,-1,-1,31128.3166065,unknown,2,2025-04-22T12:42:28.008+03:00,2025-04-21T17:08:51.449+03:00,7356,0.9877701,0,0,6130.366,5,20,2025-04-22T12:42:48.644+03:00,767007742.9520817,0,-21.86,100.4651,1,0.8,2025-04-22T12:41:30.631+03:00,75,1.25,2025-04-22T09:54:17.825+03:00,0.02225348692287972,0
2025-04-22T12:42:56.336+03:00,1745314974.999192,40.95227984194496,29.14025968887145,76.43295,-1,-1,-1,-1,30,38.06994086312898,-9999,31143.008900375,-0.7288818359375,0.548431396484375,0.2919769287109375,31142.998824375,-0.493528464006123,-1.530058975797681,-0.7127360271426705,-0.700905978679657,0.3483458757400513,-0.1210720092058182,0.03199458122253418,-0.1315522789955139,0.3047534227371216,XArbitraryZVertical,-0.4025807149510451,-0.5679107255146656,0.06916143860090476,0.714578667623067,-0.7559476494789124,0.6539062261581421,-0.03081235103309155,0,0,0,-1,-1,31128.3166065,unknown,2,2025-04-22T12:42:28.008+03:00,2025-04-21T17:08:51.449+03:00,7356,0.9877701,0,0,6130.366,5,20,2025-04-22T12:42:48.644+03:00,767007742.9520817,0,-21.86,100.4651,1,0.8,2025-04-22T12:41:30.631+03:00,75,1.25,2025-04-22T09:54:17.825+03:00,0.02225348692287972,0
2025-04-22T12:42:56.346+03:00,1745314974.999192,40.95227984194496,29.14025968887145,76.43295,-1,-1,-1,-1,30,38.06994086312898,-9999,31143.018976375,-0.7185516357421875,0.562286376953125,0.315521240234375,31143.008900375,-0.5021371951808732,-1.531337572204367,-0.7120386499027156,-0.5734023451805115,0.5168613791465759,-0.07260274142026901,0.03120714426040649,-0.1280642151832581,0.318865180015564,XArbitraryZVertical,-0.4047718445285444,-0.566769682108697,0.06610272237109875,0.7145363736439619,-0.7564420700073242,0.653378427028656,-0.0298637617379427,0,0,0,-1,-1,31128.3166065,unknown,2,2025-04-22T12:42:28.008+03:00,2025-04-21T17:08:51.449+03:00,7356,0.9877701,0,0,6130.366,5,20,2025-04-22T12:42:48.644+03:00,767007742.9520817,0,-21.86,100.4651,1,0.8,2025-04-22T12:41:30.631+03:00,75,1.25,2025-04-22T09:54:17.825+03:00,0.02225348692287972,0
2025-04-22T12:42:56.355+03:00,1745314974.999192,40.95227984194496,29.14025968887145,76.43295,-1,-1,-1,-1,30,38.06994086312898,-9999,31143.029052375,-0.711395263671875,0.5554962158203125,0.347259521484375,31143.018976375,-0.5087302277297683,-1.529711658945079,-0.7116711296828688,-0.4128706455230713,0.6544537544250488,-0.04187219962477684,0.02886444330215454,-0.1018308401107788,0.3247894048690796,XArbitraryZVertical,-0.4065805953546344,-0.5649251941611834,0.06328925341822642,0.7152244848711397,-0.7566322684288025,0.6531001925468445,-0.03110348805785179,0,0,0,-1,-1,31128.3166065,unknown,2,2025-04-22T12:42:28.008+03:00,2025-04-21T17:08:51.449+03:00,7356,0.9877701,0,0,6130.366,5,20,2025-04-22T12:42:48.644+03:00,767007742.9520817,0,-21.86,100.4651,1,0.8,2025-04-22T12:41:30.631+03:00,75,1.25,2025-04-22T09:54:17.825+03:00,0.02225348692287972,0
2025-04-22T12:42:56.366+03:00,1745314974.999192,40.95227984194496,29.14025968887145,76.43295,-1,-1,-1,-1,30,38.06994086312898,-9999,31143.039128375,-0.7232666015625,0.5395050048828125,0.37481689453125,31143.029052375,-0.5133308667534447,-1.525586088034477,-0.7115411507726087,-0.2767796516418457,0.7667672038078308,-0.01214306522160769,0.03940409421920776,-0.09047132730484009,0.3542664647102356,XArbitraryZVertical,-0.4079666823761163,-0.5625378997939244,0.06075746264775159,0.7165352231407117,-0.7565823793411255,0.6530017256736755,-0.03422859311103821,0,0,0,-1,-1,31128.3166065,unknown,2,2025-04-22T12:42:28.008+03:00,2025-04-21T17:08:51.449+03:00,7356,0.9877701,0,0,6130.366,5,20,2025-04-22T12:42:48.644+03:00,767007742.9520817,0,-21.86,100.4651,1,0.8,2025-04-22T12:41:30.631+03:00,75,1.25,2025-04-22T09:54:17.825+03:00,0.02225348692287972,0
2025-04-22T12:42:56.376+03:00,1745314974.999192,40.95227984194496,29.14025968887145,76.43295,-1,-1,-1,-1,30,38.06994086312898,-9999,31143.049204375,-0.7500152587890625,0.489166259765625,0.3980712890625,31143.039128375,-0.5168747600955438,-1.519476279982333,-0.711769568401791,-0.2953315675258636,0.9134913682937622,0.03475996479392052,0.04443353414535522,-0.09908241033554077,0.3899170756340027,XArbitraryZVertical,-0.4092106722904516,-0.5595759105087773,0.05831672377904943,0.7183457020602853,-0.7562102675437927,0.6531746983528137,-0.03884285315871239,0,0,0,-1,-1,31128.3166065,unknown,2,2025-04-22T12:42:28.008+03:00,2025-04-21T17:08:51.449+03:00,7356,0.9877701,0,0,6130.366,5,20,2025-04-22T12:42:48.644+03:00,767007742.9520817,0,-21.86,100.4651,1,0.8,2025-04-22T12:41:30.631+03:00,75,1.25,2025-04-22T09:54:17.825+03:00,0.02225348692287972,0
2025-04-22T12:42:56.386+03:00,1745314974.999192,40.95227984194496,29.14025968887145,76.43295,-1,-1,-1,-1,30,38.06994086312898,-9999,31143.059281375,-0.7569580078125,0.41595458984375,0.409088134765625,31143.049204375,-0.5215011820893792,-1.512163805480566,-0.7127579843748851,-0.3998308181762695,1.139467239379883,0.1319176703691483,0.02958357334136963,-0.1184005737304688,0.4225075244903564,XArbitraryZVertical,-0.4110035513628979,-0.5557960489993906,0.05549302861149565,0.72047701952216,-0.7552608847618103,0.6539228558540344,-0.04433366656303406,0,0,0,-1,-1,31128.3166065,unknown,2,2025-04-22T12:42:28.008+03:00,2025-04-21T17:08:51.449+03:00,7356,0.9877701,0,0,6130.366,5,20,2025-04-22T12:42:48.644+03:00,767007742.9520817,0,-21.86,100.4651,1,0.8,2025-04-22T12:41:30.631+03:00,75,1.25,2025-04-22T09:54:17.825+03:00,0.02225348692287972,0
2025-04-22T12:42:56.396+03:00,1745314974.999192,40.95227984194496,29.14025968887145,76.43295,-1,-1,-1,-1,30,38.06994086312898,-9999,31143.069357375,-0.7342681884765625,0.4069061279296875,0.4182586669921875,31143.059281375,-0.5277564527750503,-1.503787429355131,-0.7150960594731638,-0.5807654857635498,1.329549551010132,0.2691712379455566,7.027387619018555e-05,-0.1747788786888123,0.4512822031974792,XArbitraryZVertical,-0.4136587855419364,-0.5510067801364946,0.05231033934431098,0.7228702316182259,-0.7533355355262756,0.6556899547576904,-0.05055587366223335,0,0,0,-1,-1,31128.3166065,unknown,2,2025-04-22T12:42:28.008+03:00,2025-04-21T17:08:51.449+03:00,7356,0.9877701,0,0,6130.366,5,20,2025-04-22T12:42:48.644+03:00,767007742.9520817,0,-21.86,100.4651,1,0.8,2025-04-22T12:41:30.631+03:00,75,1.25,2025-04-22T09:54:17.825+03:00,0.02225348692287972,0
2025-04-22T12:42:56.406+03:00,1745314974.999192,40.95227984194496,29.14025968887145,76.43295,-1,-1,-1,-1,30,38.06994086312898,-9999,31143.079433375,-0.709320068359375,0.4663543701171875,0.4229736328125,31143.069357375,-0.5356482157325618,-1.494504671731009,-0.7187856324554764,-0.6011501550674438,1.546958565711975,0.3764223158359528,-0.005320608615875244,-0.2499020099639893,0.4666941165924072,XArbitraryZVertical,-0.4171604664980711,-0.5452487635329931,0.04878484293986513,0.7254659963610597,-0.75041663646698,0.6584712266921997,-0.05736186355352402,0,0,0,-1,-1,31128.3166065,unknown,2,2025-04-22T12:42:28.008+03:00,2025-04-21T17:08:51.449+03:00,7356,0.9877701,0,0,6130.366,5,20,2025-04-22T12:42:48.644+03:00,767007742.9520817,0,-21.86,100.4651,1,0.8,2025-04-22T12:41:30.631+03:00,75,1.25,2025-04-22T09:54:17.825+03:00,0.02225348692287972,0
2025-04-22T12:42:56.416+03:00,1745314974.999192,40.95227984194496,29.14025968887145,76.43295,-1,-1,-1,-1,30,38.06994086312898,-9999,31143.089510125,-0.696685791015625,0.529754638671875,0.39703369140625,31143.079433375,-0.5420507550416844,-1.482019749275203,-0.7233755656920439,-0.4232216775417328,1.760663151741028,0.4505362212657928,0.01618540287017822,-0.2493059635162354,0.4868522882461548,XArbitraryZVertical,-0.4205659088054496,-0.538419571504326,0.04540292983758322,0.7288120782376856,-0.7466235160827637,0.6619186997413635,-0.0664573609828949,0,0,0,-1,-1,31128.3166065,unknown,2,2025-04-22T12:42:28.008+03:00,2025-04-21T17:08:51.449+03:00,7356,0.9877701,0,0,6130.366,5,20,2025-04-22T12:42:48.644+03:00,767007742.9520817,0,-21.86,100.4651,1,0.8,2025-04-22T12:41:30.631+03:00,75,1.25,2025-04-22T09:54:17.825+03:00,0.02225348692287972,0
2025-04-22T12:42:56.426+03:00,1745314974.999192,40.95227984194496,29.14025968887145,76.43295,-1,-1,-1,-1,30,38.06994086312898,-9999,31143.099586125,-0.6963958740234375,0.6316070556640625,0.3659820556640625,31143.089510125,-0.5456267301608468,-1.465713995706554,-0.7284215905783245,-0.1914036273956299,1.952960968017578,0.4962712228298187,0.03594815731048584,-0.1930975914001465,0.4982385635375977,XArbitraryZVertical,-0.4234002573572606,-0.5306569200050054,0.04236062236047523,0.7330353358486797,-0.7421095371246338,0.6656926274299622,-0.07827091217041016,0,0,0,-1,-1,31128.3166065,unknown,2,2025-04-22T12:42:28.008+03:00,2025-04-21T17:08:51.449+03:00,7356,0.9877701,0,0,6130.366,5,20,2025-04-22T12:42:48.644+03:00,767007742.9520817,0,-21.86,100.4651,1,0.8,2025-04-22T12:41:30.631+03:00,75,1.25,2025-04-22T09:54:17.825+03:00,0.02225348692287972,0
2025-04-22T12:42:56.436+03:00,1745314974.999192,40.95227984194496,29.14025968887145,76.43295,-1,-1,-1,-1,30,38.06994086312898,-9999,31143.109663125,-0.684295654296875,0.669403076171875,0.310394287109375,31143.099586125,-0.5452101461002182,-1.444859974751784,-0.7336625882196598,0.1367452293634415,2.122994899749756,0.5403912663459778,0.04086101055145264,-0.1282432079315186,0.4876221418380737,XArbitraryZVertical,-0.4253114247868232,-0.5219823368940252,0.03984503972832748,0.7382797316439351,-0.7368448376655579,0.669594407081604,-0.09328926354646683,0,0,0,-1,-1,31128.3166065,unknown,2,2025-04-22T12:42:28.008+03:00,2025-04-21T17:08:51.449+03:00,7356,0.9877701,0,0,6130.366,5,20,2025-04-22T12:42:48.644+03:00,767007742.9520817,0,-21.86,100.4651,1,0.8,2025-04-22T12:41:30.631+03:00,75,1.25,2025-04-22T09:54:17.825+03:00,0.02225348692287972,0
2025-04-22T12:42:56.446+03:00,1745314974.999192,40.95227984194496,29.14025968887145,76.43295,-1,-1,-1,-1,30,38.06994086312898,-9999,31143.119739125,-0.6561126708984375,0.6037445068359375,0.3566741943359375,31143.109663125,-0.5407780230560296,-1.419769740073498,-0.7387270768888613,0.3656918406486511,2.270663499832153,0.5453032255172729,0.03544551134109497,-0.03083038330078125,0.4708835482597351,XArbitraryZVertical,-0.4262087974315466,-0.5125710643632432,0.0378253122421765,0.7444368049341914,-0.7309105396270752,0.6733473539352417,-0.1112339273095131,0,0,0,-1,-1,31128.3166065,unknown,2,2025-04-22T12:42:28.008+03:00,2025-04-21T17:08:51.449+03:00,7356,0.9877701,0,0,6130.366,5,20,2025-04-22T12:42:48.644+03:00,767007742.9520817,0,-21.86,100.4651,1,0.8,2025-04-22T12:41:30.631+03:00,75,1.25,2025-04-22T09:54:17.825+03:00,0.02225348692287972,0
2025-04-22T12:42:56.457+03:00,1745314974.999192,40.95227984194496,29.14025968887145,76.43295,-1,-1,-1,-1,30,38.06994086312898,-9999,31143.129815125,-0.6380767822265625,0.473236083984375,0.462554931640625,31143.119739125,-0.533203060548711,-1.390873181564716,-0.7436713094536043,0.533972442150116,2.455783605575562,0.6113453507423401,0.04271084070205688,-0.01102471351623535,0.4405153393745422,XArbitraryZVertical,-0.4263628500700841,-0.5023551810507828,0.03611597867232422,0.751365192616651,-0.7241073846817017,0.6769945025444031,-0.1317079812288284,0,0,0,-1,-1,31128.3166065,unknown,2,2025-04-22T12:42:28.008+03:00,2025-04-21T17:08:51.449+03:00,7356,0.9877701,0,0,6130.366,5,20,2025-04-22T12:42:48.644+03:00,767007742.9520817,0,-21.86,100.4651,1,0.8,2025-04-22T12:41:30.631+03:00,75,1.25,2025-04-22T09:54:17.825+03:00,0.02225348692287972,0
2025-04-22T12:42:56.466+03:00,1745314974.999192,40.95227984194496,29.14025968887145,76.43295,-1,-1,-1,-1,30,38.06994086312898,-9999,31143.139891125,-0.6409759521484375,0.2978973388671875,0.564483642578125,31143.129815125,-0.526475220276319,-1.360270075329814,-0.7490593337187638,0.1641406267881393,2.729366064071655,0.6277549266815186,0.06285542249679565,-0.0909082293510437,0.5228502154350281,XArbitraryZVertical,-0.4269346631355274,-0.4911289837728747,0.03386299551473523,0.758532911800098,-0.7161604166030884,0.6809501647949219,-0.1530382335186005,0,0,0,-1,-1,31128.3166065,unknown,2,2025-04-22T12:42:28.008+03:00,2025-04-21T17:08:51.449+03:00,7356,0.9877701,0,0,6130.366,5,20,2025-04-22T12:42:48.644+03:00,767007742.9520817,0,-21.86,100.4651,1,0.8,2025-04-22T12:41:30.631+03:00,75,1.25,2025-04-22T09:54:17.825+03:00,0.02225348692287972,0
2025-04-22T12:42:56.490+03:00,1745314974.999192,40.95227984194496,29.14025968887145,76.43295,-1,-1,-1,-1,30,38.06994086312898,-9999,31143.149967125,-0.6154022216796875,0.0985107421875,0.5658416748046875,31143.139891125,-0.5259526343205386,-1.330582704064735,-0.7563513248171837,-0.4391734898090363,3.088301658630371,0.8297738432884216,0.06977242231369019,-0.2331625819206238,0.6472401022911072,XArbitraryZVertical,-0.4296257895855971,-0.478435314900286,0.0300174714209012,0.7652582238174706,-0.7064605355262756,0.686272144317627,-0.1730426549911499,0,0,0,-1,-1,31128.3166065,unknown,2,2025-04-22T12:42:28.008+03:00,2025-04-21T17:08:51.449+03:00,7356,0.9877701,0,0,6130.366,5,20,2025-04-22T12:42:48.644+03:00,767007742.9520817,0,-21.86,100.4651,1,0.8,2025-04-22T12:41:30.631+03:00,75,1.25,2025-04-22T09:54:17.825+03:00,0.02225348692287972,0
2025-04-22T12:42:56.491+03:00,1745314974.999192,40.95227984194496,29.14025968887145,76.43295,-1,-1,-1,-1,30,38.06994086312898,-9999,31143.160043125,-0.533416748046875,-0.003326416015625,0.471282958984375,31143.149967125,-0.5325721447398464,-1.302232047923988,-0.7678880241487314,-1.009384393692017,3.456360101699829,1.159119725227356,0.0525849461555481,-0.4223703145980835,0.7646311521530151,XArbitraryZVertical,-0.4353200415928574,-0.4637388917893742,0.02494938735526652,0.7712457624041411,-0.6935913562774658,0.6946174502372742,-0.1908854097127914,0,0,0,-1,-1,31128.3166065,unknown,2,2025-04-22T12:42:28.008+03:00,2025-04-21T17:08:51.449+03:00,7356,0.9877701,0,0,6130.366,5,20,2025-04-22T12:42:48.644+03:00,767007776.4722543,0,-21.93,100.465,1,0.8,2025-04-22T12:41:30.631+03:00,75,1.25,2025-04-22T09:54:17.825+03:00,0.02225348692287972,0
2025-04-22T12:42:56.498+03:00,1745314974.999192,40.95227984194496,29.14025968887145,76.43295,-1,-1,-1,-1,30,38.06994086312898,-9999,31143.170120125,-0.43902587890625,0.142333984375,0.316253662109375,31143.160043125,-0.5425137301540722,-1.2727856428472,-0.78429486266417,-1.1815345287323,3.742549419403076,1.579360961914062,0.06888115406036377,-0.6291016340255737,0.7633299827575684,XArbitraryZVertical,-0.4432726737243828,-0.4467491964598511,0.0196868243202412,0.7768762823402334,-0.6766844391822815,0.7063261866569519,-0.2078489810228348,0,0,0,-1,-1,31128.3166065,unknown,2,2025-04-22T12:42:28.008+03:00,2025-04-21T17:08:51.449+03:00,7356,0.9877701,0,0,6130.366,5,20,2025-04-22T12:42:48.644+03:00,767007776.4722543,0,-21.93,100.465,1,0.8,2025-04-22T12:41:30.631+03:00,75,1.25,2025-04-22T09:54:17.825+03:00,0.02225348692287972,0
2025-04-22T12:42:56.507+03:00,1745314974.999192,40.95227984194496,29.14025968887145,76.43295,-1,-1,-1,-1,30,38.06994086312898,-9999,31143.180196125,-0.409820556640625,0.488861083984375,-0.058258056640625,31143.170120125,-0.5473776921983767,-1.237933891372069,-0.8040164315080938,-0.5748339891433716,3.849789142608643,1.918464422225952,0.1353052258491516,-0.7212320566177368,0.6846064329147339,XArbitraryZVertical,-0.4511332637538435,-0.4279323105506772,0.01597085694491208,0.78300553007576,-0.6557367444038391,0.7201485633850098,-0.2267054319381714,0,0,0,-1,-1,31128.3166065,unknown,2,2025-04-22T12:42:28.008+03:00,2025-04-21T17:08:51.449+03:00,7356,0.9877701,0,0,6130.366,5,20,2025-04-22T12:42:48.644+03:00,767007776.4722543,0,-21.93,100.465,1,0.8,2025-04-22T12:41:30.631+03:00,75,1.25,2025-04-22T09:54:17.825+03:00,0.02225348692287972,0
2025-04-22T12:42:56.517+03:00,1745314974.999192,40.95227984194496,29.14025968887145,76.43295,-1,-1,-1,-1,30,38.06994086312898,-9999,31143.190272125,-0.5073699951171875,0.712005615234375,-0.57501220703125,31143.180196125,-0.5357721320237439,-1.189903699315697,-0.8226881207518181,0.8993120193481445,4.036348819732666,2.103637218475342,0.2018751502037048,-0.5518401265144348,0.5362240672111511,XArbitraryZVertical,-0.4553057303751649,-0.4077436348442062,0.01517893086384687,0.7913351468214699,-0.6315016150474548,0.7329770922660828,-0.252883642911911,0,0,0,-1,-1,31128.3166065,unknown,2,2025-04-22T12:42:28.008+03:00,2025-04-21T17:08:51.449+03:00,7356,0.9877701,0,0,6130.366,5,20,2025-04-22T12:42:48.644+03:00,767007776.4722543,0,-21.93,100.465,1,0.8,2025-04-22T12:41:30.631+03:00,75,1.25,2025-04-22T09:54:17.825+03:00,0.02225348692287972,0
2025-04-22T12:42:56.527+03:00,1745314974.999192,40.95227984194496,29.14025968887145,76.43295,-1,-1,-1,-1,30,38.06994086312898,-9999,31143.200348125,-0.604766845703125,0.799224853515625,-1.316741943359375,31143.190272125,-0.4913871528932227,-1.113347788772681,-0.8348511786896728,3.867978096008301,4.821797847747803,2.796201705932617,0.1865572333335876,-0.212403416633606,0.176684558391571,XArbitraryZVertical,-0.4513411167299354,-0.3847733483834513,0.01899669614931961,0.804909796906672,-0.6022676825523376,0.7411966323852539,-0.2964813411235809,0,0,0,-1,-1,31128.3166065,unknown,2,2025-04-22T12:42:28.008+03:00,2025-04-21T17:08:51.449+03:00,7356,0.9877701,0,0,6130.366,5,20,2025-04-22T12:42:48.644+03:00,767007776.4722543,0,-21.93,100.465,1,0.8,2025-04-22T12:41:30.631+03:00,75,1.25,2025-04-22T09:54:17.825+03:00,0.02225348692287972,0
2025-04-22T12:42:56.537+03:00,1745314974.999192,40.95227984194496,29.14025968887145,76.43295,-1,-1,-1,-1,30,38.06994086312898,-9999,31143.210424125,-0.52532958984375,1.298309326171875,-3.0625,31143.200348125,-0.3990149837878262,-1.00127238466563,-0.8316781281697502,6.907876014709473,4.608958721160889,3.499015092849731,0.04188692569732666,-0.01277518272399902,-0.2771656215190887,XArbitraryZVertical,-0.4343729744002962,-0.3601350633617744,0.03099965405710992,0.8250222470523827,-0.5673080682754517,0.7390628457069397,-0.3632456958293915,0,0,0,-1,-1,31128.3166065,unknown,2,2025-04-22T12:42:28.008+03:00,2025-04-21T17:08:51.449+03:00,7356,0.9877701,0,0,6130.366,5,20,2025-04-22T12:42:48.644+03:00,767007776.4722543,0,-21.93,100.465,1,0.8,2025-04-22T12:41:30.631+03:00,75,1.25,2025-04-22T09:54:17.825+03:00,0.02225348692287972,0
2025-04-22T12:42:56.547+03:00,1745314974.999192,40.95227984194496,29.14025968887145,76.43295,-1,-1,-1,-1,30,38.06994086312898,-9999,31143.220500125,0.220062255859375,3.96466064453125,-3.565673828125,31143.210424125,-0.2604142821598321,-0.8686857543727341,-0.8051362131789175,10.56388854980469,0.5157536864280701,2.168129682540894,-0.0760766863822937,0.09328383207321167,-1.040559649467468,XArbitraryZVertical,-0.4026661068133182,-0.3377506623761754,0.0551044196324173,0.848968819533503,-0.5291022062301636,0.7209250330924988,-0.4475689828395844,0,0,0,-1,-1,31128.3166065,unknown,2,2025-04-22T12:42:28.008+03:00,2025-04-21T17:08:51.449+03:00,7356,0.9877701,0,0,6130.366,5,20,2025-04-22T12:42:48.644+03:00,767007776.4722543,0,-21.93,100.465,1,0.8,2025-04-22T12:41:30.631+03:00,75,1.25,2025-04-22T09:54:17.825+03:00,0.02225348692287972,0
2025-04-22T12:42:56.557+03:00,1745314974.999192,40.95227984194496,29.14025968887145,76.43295,-1,-1,-1,-1,30,38.06994086312898,-9999,31143.230577125,0.4319915771484375,5.451568603515625,-1.513809204101562,31143.220500125,-0.1675899468803563,-0.8072895182671601,-0.7391915800934622,7.742231845855713,-0.2966558933258057,-2.050728797912598,0.05818206071853638,0.8160399794578552,-2.756061792373657,XArbitraryZVertical,-0.3616962411843622,-0.3371603649379991,0.06961376323434974,0.866402002113844,-0.5338747501373291,0.6736906766891479,-0.5109974145889282,0,0,0,-1,-1,31128.3166065,unknown,2,2025-04-22T12:42:28.008+03:00,2025-04-21T17:08:51.449+03:00,7356,0.9877701,0,0,6130.366,5,20,2025-04-22T12:42:48.644+03:00,767007776.4722543,0,-21.93,100.465,1,0.8,2025-04-22T12:41:30.631+03:00,75,1.25,2025-04-22T09:54:17.825+03:00,0.02225348692287972,0
2025-04-22T12:42:56.567+03:00,1745314974.999192,40.95227984194496,29.14025968887145,76.43295,-1,-1,-1,-1,30,38.06994086312898,-9999,31143.240653125,-0.03729248046875,0.6446990966796875,-0.828277587890625,31143.230577125,-0.1365939288807909,-0.790380118216782,-0.6885111515316487,2.774823665618896,-0.3675108850002289,-1.843142986297607,0.8609768152236938,3.746890068054199,-2.838997840881348,XArbitraryZVertical,-0.3354881141442412,-0.3402937938629078,0.07033913800667396,0.8756141271081408,-0.5487362146377563,0.635388195514679,-0.5432957410812378,0,0,0,-1,-1,31128.3166065,unknown,2,2025-04-22T12:42:28.008+03:00,2025-04-21T17:08:51.449+03:00,7356,0.9877701,0,0,6130.366,5,20,2025-04-22T12:42:48.644+03:00,767007776.4722543,0,-21.93,100.465,1,0.8,2025-04-22T12:41:30.631+03:00,75,1.25,2025-04-22T09:54:17.825+03:00,0.02225348692287972,0
2025-04-22T12:42:56.577+03:00,1745314974.999192,40.95227984194496,29.14025968887145,76.43295,-1,-1,-1,-1,30,38.06994086312898,-9999,31143.250729125,-0.5450286865234375,-3.462417602539062,-0.3851318359375,31143.240653125,-0.1336605825827293,-0.7933306452130626,-0.6696837589049865,-0.05296665802598,-0.793540894985199,-0.2470483183860779,0.9521971940994263,4.549214363098145,-0.7821991443634033,XArbitraryZVertical,-0.3267947649817546,-0.3438320362319228,0.0685026444089092,0.8776628841807103,-0.558764636516571,0.6207380890846252,-0.5499694347381592,0,0,0,-1,-1,31128.3166065,unknown,2,2025-04-22T12:42:28.008+03:00,2025-04-21T17:08:51.449+03:00,7356,0.9877701,0,0,6130.366,5,20,2025-04-22T12:42:48.644+03:00,767007776.4722543,0,-21.93,100.465,1,0.8,2025-04-22T12:41:30.631+03:00,75,1.25,2025-04-22T09:54:17.825+03:00,0.02225348692287972,0
2025-04-22T12:42:56.587+03:00,1745314974.999192,40.95227984194496,29.14025968887145,76.43295,-1,-1,-1,-1,30,38.06994086312898,-9999,31143.260805125,-0.5180816650390625,-2.108688354492188,-0.2081756591796875,31143.250729125,-0.1472897664026224,-0.8125423771388057,-0.683943703575245,-2.930365324020386,-1.181904435157776,0.3660294711589813,0.4432660341262817,-0.754260778427124,-0.2456942796707153,XArbitraryZVertical,-0.3346070897646242,-0.3486287738628803,0.06848952197475276,0.8728144506970696,-0.562742292881012,0.6318546533584595,-0.5329921245574951,0,0,0,-1,-1,31128.3166065,unknown,2,2025-04-22T12:42:28.008+03:00,2025-04-21T17:08:51.449+03:00,7356,0.9877701,0,0,6130.366,5,20,2025-04-22T12:42:48.644+03:00,767007776.4722543,0,-21.93,100.465,1,0.8,2025-04-22T12:41:30.631+03:00,75,1.25,2025-04-22T09:54:17.825+03:00,0.02225348692287972,0
2025-04-22T12:42:56.598+03:00,1745314974.999192,40.95227984194496,29.14025968887145,76.43295,-1,-1,-1,-1,30,38.06994086312898,-9999,31143.270881125,-0.601715087890625,0.1036529541015625,-0.2532958984375,31143.260805125,-0.1733888196053402,-0.8405125148887441,-0.7047995397395267,-2.544469356536865,-1.053257465362549,0.07881700247526169,0.008052945137023926,-4.187202930450439,0.1634625196456909,XArbitraryZVertical,-0.3470897791184008,-0.3541991918488259,0.06609730896075329,0.8658536681176493,-0.5674859285354614,0.6478811502456665,-0.5081432461738586,0,0,0,-1,-1,31128.3166065,unknown,2,2025-04-22T12:42:28.008+03:00,2025-04-21T17:08:51.449+03:00,7356,0.9877701,0,0,6130.366,5,20,2025-04-22T12:42:48.644+03:00,767007776.4722543,0,-21.93,100.465,1,0.8,2025-04-22T12:41:30.631+03:00,75,1.25,2025-04-22T09:54:17.825+03:00,0.02225348692287972,0
2025-04-22T12:42:56.608+03:00,1745314974.999192,40.95227984194496,29.14025968887145,76.43295,-1,-1,-1,-1,30,38.06994086312898,-9999,31143.280958125,-0.634674072265625,1.470977783203125,-0.453826904296875,31143.270881125,-0.1890840756233452,-0.8581780528199228,-0.719626369592278,-1.149788975715637,-0.2934285402297974,0.6164751648902893,0.04706943035125732,-2.445251941680908,0.287725031375885,XArbitraryZVertical,-0.3555099043284938,-0.3574359579209748,0.06548802236479564,0.8611408191508172,-0.5690420866012573,0.6591037511825562,-0.4917044937610626,0,0,0,-1,-1,31128.3166065,unknown,2,2025-04-22T12:42:28.008+03:00,2025-04-21T17:08:51.449+03:00,7356,0.9877701,0,0,6130.366,5,20,2025-04-22T12:42:48.644+03:00,767007776.4722543,0,-21.93,100.465,1,0.8,2025-04-22T12:41:30.631+03:00,75,1.25,2025-04-22T09:54:17.825+03:00,0.02225348692287972,0
2025-04-22T12:42:56.618+03:00,1745314974.999192,40.95227984194496,29.14025968887145,76.43295,-1,-1,-1,-1,30,38.06994086312898,-9999,31143.291034125,-0.756805419921875,1.953567504882812,-0.75006103515625,31143.280958125,-0.1871084948224357,-0.8546663197545949,-0.7293870586710347,0.06693091988563538,0.6603854894638062,0.9275816082954407,-0.045249342918396,-0.355530321598053,0.2204863727092743,XArbitraryZVertical,-0.3593407209683484,-0.3551728468886562,0.06774507079123228,0.8603121023912594,-0.5624318718910217,0.6664127707481384,-0.489452987909317,0,0,0,-1,-1,31128.3166065,unknown,2,2025-04-22T12:42:28.008+03:00,2025-04-21T17:08:51.449+03:00,7356,0.9877701,0,0,6130.366,5,20,2025-04-22T12:42:48.644+03:00,767007776.4722543,0,-21.93,100.465,1,0.8,2025-04-22T12:41:30.631+03:00,75,1.25,2025-04-22T09:54:17.825+03:00,0.02225348692287972,0
2025-04-22T12:42:56.628+03:00,1745314974.999192,40.95227984194496,29.14025968887145,76.43295,-1,-1,-1,-1,30,38.06994086312898,-9999,31143.301110125,-0.752777099609375,1.582534790039062,-0.774322509765625,31143.291034125,-0.1745702027225639,-0.8388817159056158,-0.7315993812550128,0.9914664626121521,0.7097245454788208,0.6139605641365051,-0.09241205453872681,0.9213100671768188,0.005202293395996094,XArbitraryZVertical,-0.358599125256839,-0.3503786267729361,0.07076707734604901,0.8623418369022418,-0.5535382628440857,0.6680606007575989,-0.4972829818725586,0,0,0,-1,-1,31128.3166065,unknown,2,2025-04-22T12:42:28.008+03:00,2025-04-21T17:08:51.449+03:00,7356,0.9877701,0,0,6130.366,5,20,2025-04-22T12:42:48.644+03:00,767007776.4722543,0,-21.93,100.465,1,0.8,2025-04-22T12:41:30.631+03:00,75,1.25,2025-04-22T09:54:17.825+03:00,0.02225348692287972,0
2025-04-22T12:42:56.638+03:00,1745314974.999192,40.95227984194496,29.14025968887145,76.43295,-1,-1,-1,-1,30,38.06994086312898,-9999,31143.311186125,-0.667694091796875,1.038848876953125,-0.496307373046875,31143.301110125,-0.1590936464284445,-0.8225002381936323,-0.7269492458957758,1.215002179145813,0.5234397053718567,0.2341012954711914,-0.2196230888366699,1.276126384735107,-0.265778124332428,XArbitraryZVertical,-0.3545409793195672,-0.3465613942275637,0.07359449188259304,0.8653205238838008,-0.5475888252258301,0.6645932197570801,-0.508391797542572,0,0,0,-1,-1,31128.3166065,unknown,2,2025-04-22T12:42:28.008+03:00,2025-04-21T17:08:51.449+03:00,7356,0.9877701,0,0,6130.366,5,20,2025-04-22T12:42:48.644+03:00,767007776.4722543,0,-21.93,100.465,1,0.8,2025-04-22T12:41:30.631+03:00,75,1.25,2025-04-22T09:54:17.825+03:00,0.02225348692287972,0
2025-04-22T12:42:56.648+03:00,1745314974.999192,40.95227984194496,29.14025968887145,76.43295,-1,-1,-1,-1,30,38.06994086312898,-9999,31143.321262125,-0.6175689697265625,0.6208648681640625,-0.3240203857421875,31143.311186125,-0.1466025521620952,-0.8092387277646858,-0.7200185454388289,1.088815808296204,0.4503639340400696,0.09547923505306244,-0.1972439885139465,0.8533576130867004,-0.232278048992157,XArbitraryZVertical,-0.3499496743320547,-0.3437264295117772,0.07530418648733726,0.8681684549183484,-0.5441195368766785,0.65939861536026,-0.5187747478485107,0,0,0,-1,-1,31128.3166065,unknown,2,2025-04-22T12:42:28.008+03:00,2025-04-21T17:08:51.449+03:00,7356,0.9877701,0,0,6130.366,5,20,2025-04-22T12:42:48.644+03:00,767007776.4722543,0,-21.93,100.465,1,0.8,2025-04-22T12:41:30.631+03:00,75,1.25,2025-04-22T09:54:17.825+03:00,0.02225348692287972,0
2025-04-22T12:42:56.658+03:00,1745314974.999192,40.95227984194496,29.14025968887145,76.43295,-1,-1,-1,-1,30,38.06994086312898,-9999,31143.331338125,-0.493682861328125,0.4091644287109375,-0.3709564208984375,31143.321262125,-0.1356547120251111,-0.7982571936512253,-0.7140301029865133,0.8874982595443726,0.3179053366184235,0.1713780611753464,-0.1213589906692505,0.323829174041748,0.0682978630065918,XArbitraryZVertical,-0.3459473399496539,-0.3414495248003546,0.07699023103607704,0.8705200482930252,-0.5412082076072693,0.6548847556114197,-0.5274653434753418,0,0,0,-1,-1,31128.3166065,unknown,2,2025-04-22T12:42:28.008+03:00,2025-04-21T17:08:51.449+03:00,7356,0.9877701,0,0,6130.366,5,20,2025-04-22T12:42:48.644+03:00,767007776.4722543,0,-21.93,100.465,1,0.8,2025-04-22T12:41:30.631+03:00,75,1.25,2025-04-22T09:54:17.825+03:00,0.02225348692287972,0
2025-04-22T12:42:56.668+03:00,1745314974.999192,40.95227984194496,29.14025968887145,76.43295,-1,-1,-1,-1,30,38.06994086312898,-9999,31143.341415125,-0.4485626220703125,0.4494476318359375,-0.4111175537109375,31143.331338125,-0.1274143390622599,-0.7899628235077276,-0.7100879569137613,0.5507825613021851,0.272699773311615,0.1344123184680939,-0.06638205051422119,-0.0719597339630127,0.2089810371398926,XArbitraryZVertical,-0.343183852870562,-0.3396325813472725,0.07839691268707169,0.8721974752186328,-0.5386442542076111,0.6519004702568054,-0.5337491035461426,0,0,0,-1,-1,31128.3166065,unknown,2,2025-04-22T12:42:28.008+03:00,2025-04-21T17:08:51.449+03:00,7356,0.9877701,0,0,6130.366,5,20,2025-04-22T12:42:48.644+03:00,767007776.4722543,0,-21.93,100.465,1,0.8,2025-04-22T12:41:30.631+03:00,75,1.25,2025-04-22T09:54:17.825+03:00,0.02225348692287972,0
2025-04-22T12:42:56.678+03:00,1745314974.999192,40.95227984194496,29.14025968887145,76.43295,-1,-1,-1,-1,30,38.06994086312898,-9999,31143.351491125,-0.4609222412109375,0.508819580078125,-0.4764251708984375,31143.341415125,-0.1223541694367562,-0.784159837381345,-0.7080050956805743,0.3030098974704742,0.2192066013813019,0.1146767660975456,0.05520284175872803,-0.2478386163711548,0.160674512386322,XArbitraryZVertical,-0.3416634707167362,-0.3381613254490717,0.07921688804440623,0.8732912515353792,-0.5364956259727478,0.6503196358680725,-0.5378260016441345,0,0,0,-1,-1,31128.3166065,unknown,2,2025-04-22T12:42:28.008+03:00,2025-04-21T17:08:51.449+03:00,7356,0.9877701,0,0,6130.366,5,20,2025-04-22T12:42:48.644+03:00,767007776.4722543,0,-21.93,100.465,1,0.8,2025-04-22T12:41:30.631+03:00,75,1.25,2025-04-22T09:54:17.825+03:00,0.02225348692287972,0
2025-04-22T12:42:56.688+03:00,1745314974.999192,40.95227984194496,29.14025968887145,76.43295,-1,-1,-1,-1,30,38.06994086312898,-9999,31143.361567125,-0.4506378173828125,0.5134429931640625,-0.5374908447265625,31143.351491125,-0.1193542822634385,-0.7805635527623587,-0.7071503499133955,0.145039439201355,0.09939763695001602,0.08011825382709503,0.08528769016265869,-0.1882290840148926,0.1227730512619019,XArbitraryZVertical,-0.3409333607513744,-0.3371811224465338,0.07975267659783095,0.8739066573195593,-0.5349489450454712,0.6496700644493103,-0.5401466488838196,0,0,0,-1,-1,31128.3166065,unknown,2,2025-04-22T12:42:28.008+03:00,2025-04-21T17:08:51.449+03:00,7356,0.9877701,0,0,6130.366,5,20,2025-04-22T12:42:48.644+03:00,767007776.4722543,0,-21.93,100.465,1,0.8,2025-04-22T12:41:30.631+03:00,75,1.25,2025-04-22T09:54:17.825+03:00,0.02225348692287972,0
2025-04-22T12:42:56.698+03:00,1745314974.999192,40.95227984194496,29.14025968887145,76.43295,-1,-1,-1,-1,30,38.06994086312898,-9999,31143.371643125,-0.4284515380859375,0.54498291015625,-0.5373382568359375,31143.361567125,-0.1178269342452618,-0.7794468248218829,-0.7068669814124682,0.05500262230634689,-0.07158089429140091,0.04769114032387733,0.07401031255722046,-0.1395517587661743,0.0550042986869812,XArbitraryZVertical,-0.340598969771663,-0.3369792520636066,0.08017671340162526,0.8740760967216357,-0.534474790096283,0.6494545936584473,-0.5408746600151062,0,0,0,-1,-1,31128.3166065,unknown,2,2025-04-22T12:42:28.008+03:00,2025-04-21T17:08:51.449+03:00,7356,0.9877701,0,0,6130.366,5,20,2025-04-22T12:42:48.644+03:00,767007776.4722543,0,-21.93,100.465,1,0.8,2025-04-22T12:41:30.631+03:00,75,1.25,2025-04-22T09:54:17.825+03:00,0.02225348692287972,0
2025-04-22T12:42:56.708+03:00,1745314974.999192,40.95227984194496,29.14025968887145,76.43295,-1,-1,-1,-1,30,38.06994086312898,-9999,31143.381719125,-0.4405059814453125,0.5506134033203125,-0.5102386474609375,31143.371643125,-0.1175180962729536,-0.7804776078673417,-0.7071814174377895,-0.06444627791643143,-0.157359704375267,0.03287996724247932,0.08745485544204712,-0.1324665546417236,-0.0008983016014099121,XArbitraryZVertical,-0.3406404392108011,-0.3374535970650879,0.08054614847663112,0.8738429667808301,-0.5348883271217346,0.6496936678886414,-0.5401782989501953,0,0,0,-1,-1,31128.3166065,unknown,2,2025-04-22T12:42:28.008+03:00,2025-04-21T17:08:51.449+03:00,7356,0.9877701,0,0,6130.366,5,20,2025-04-22T12:42:48.644+03:00,767007776.4722543,0,-21.93,100.465,1,0.8,2025-04-22T12:41:30.631+03:00,75,1.25,2025-04-22T09:54:17.825+03:00,0.02225348692287972,0
2025-04-22T12:42:56.718+03:00,1745314974.999192,40.95227984194496,29.14025968887145,76.43295,-1,-1,-1,-1,30,38.06994086312898,-9999,31143.391796125,-0.48138427734375,0.5759124755859375,-0.5073699951171875,31143.381719125,-0.1179335194212211,-0.7823501405449126,-0.70819945116441,-0.1118934229016304,-0.1568387895822525,0.0645713210105896,0.1080641150474548,-0.1034550070762634,0.004740297794342041,XArbitraryZVertical,-0.341071832424569,-0.3381077183767473,0.08087496314093531,0.8733913099685363,-0.5354323387145996,0.6504672765731812,-0.538706362247467,0,0,0,-1,-1,31128.3166065,unknown,2,2025-04-22T12:42:28.008+03:00,2025-04-21T17:08:51.449+03:00,7356,0.9877701,0,0,6130.366,5,20,2025-04-22T12:42:48.644+03:00,767007776.4722543,0,-21.93,100.465,1,0.8,2025-04-22T12:41:30.631+03:00,75,1.25,2025-04-22T09:54:17.825+03:00,0.02225348692287972,0
2025-04-22T12:42:56.729+03:00,1745314974.999192,40.95227984194496,29.14025968887145,76.43295,-1,-1,-1,-1,30,38.06994086312898,-9999,31143.401872125,-0.5137786865234375,0.647674560546875,-0.5226898193359375,31143.391796125,-0.1183450418884715,-0.7839299008058409,-0.7095627975865926,-0.1169126778841019,-0.09975473582744598,0.07752147316932678,0.09020620584487915,-0.1004616022109985,0.02867114543914795,XArbitraryZVertical,-0.3416619826843689,-0.3386021529044745,0.08122140157531875,0.8729368476041373,-0.5356560349464417,0.6515021324157715,-0.5372313261032104,0,0,0,-1,-1,31128.3166065,unknown,2,2025-04-22T12:42:28.008+03:00,2025-04-21T17:08:51.449+03:00,7356,0.9877701,0,0,6130.366,5,20,2025-04-22T12:42:48.644+03:00,767007776.4722543,0,-21.93,100.465,1,0.8,2025-04-22T12:41:30.631+03:00,75,1.25,2025-04-22T09:54:17.825+03:00,0.02225348692287972,0
2025-04-22T12:42:56.739+03:00,1745314974.999192,40.95227984194496,29.14025968887145,76.43295,-1,-1,-1,-1,30,38.06994086312898,-9999,31143.411948125,-0.5329742431640625,0.675933837890625,-0.5448150634765625,31143.401872125,-0.1184313661597719,-0.7848526838262896,-0.7107295826768593,-0.05057720094919205,-0.0782112330198288,0.08014955371618271,0.04988092184066772,-0.06847888231277466,0.02737909555435181,XArbitraryZVertical,-0.3421390441048963,-0.3388827939823352,0.08156127263968622,0.8726093551143131,-0.535614013671875,0.6523869037628174,-0.5361986756324768,0,0,0,-1,-1,31128.3166065,unknown,2,2025-04-22T12:42:28.008+03:00,2025-04-21T17:08:51.449+03:00,7356,0.9877701,0,0,6130.366,5,20,2025-04-22T12:42:48.644+03:00,767007776.4722543,0,-21.93,100.465,1,0.8,2025-04-22T12:41:30.631+03:00,75,1.25,2025-04-22T09:54:17.825+03:00,0.02225348692287972,0
2025-04-22T12:42:56.749+03:00,1745314974.999192,40.95227984194496,29.14025968887145,76.43295,-1,-1,-1,-1,30,38.06994086312898,-9999,31143.422024125,-0.5461273193359375,0.69158935546875,-0.55462646484375,31143.411948125,-0.1178330241220594,-0.7851876236613863,-0.7114056652193929,0.02064318396151066,-0.06327515840530396,0.07877429574728012,0.01807129383087158,0.001687586307525635,0.01080477237701416,XArbitraryZVertical,-0.3423135803982619,-0.3390690912031313,0.08200705412778871,0.8724267005128977,-0.5354815721511841,0.6528991460800171,-0.5357071161270142,0,0,0,-1,-1,31128.3166065,unknown,2,2025-04-22T12:42:28.008+03:00,2025-04-21T17:08:51.449+03:00,7356,0.9877701,0,0,6130.366,5,20,2025-04-22T12:42:48.644+03:00,767007776.4722543,0,-21.93,100.465,1,0.8,2025-04-22T12:41:30.631+03:00,75,1.25,2025-04-22T09:54:17.825+03:00,0.02225348692287972,0
2025-04-22T12:42:56.759+03:00,1745314974.999192,40.95227984194496,29.14025968887145,76.43295,-1,-1,-1,-1,30,38.06994086312898,-9999,31143.432100125,-0.5565032958984375,0.6927490234375,-0.5588226318359375,31143.422024125,-0.1167399622390411,-0.785038323220518,-0.7117122529104426,0.04719969257712364,-0.05456316098570824,0.08458317816257477,0.001110851764678955,0.02342802286148071,-0.01101595163345337,XArbitraryZVertical,-0.342265743108747,-0.3391628809786812,0.08251608386741816,0.8723609486932741,-0.535260021686554,0.6531313061714172,-0.5356454253196716,0,0,0,-1,-1,31128.3166065,unknown,2,2025-04-22T12:42:28.008+03:00,2025-04-21T17:08:51.449+03:00,7356,0.9877701,0,0,6130.366,5,20,2025-04-22T12:42:48.644+03:00,767007776.4722543,0,-21.93,100.465,1,0.8,2025-04-22T12:41:30.631+03:00,75,1.25,2025-04-22T09:54:17.825+03:00,0.02225348692287972,0
2025-04-22T12:42:56.769+03:00,1745314974.999192,40.95227984194496,29.14025968887145,76.43295,-1,-1,-1,-1,30,38.06994086312898,-9999,31143.442177125,-0.54290771484375,0.66680908203125,-0.55450439453125,31143.432100125,-0.1155483776423627,-0.7849457969316673,-0.7120054405175618,0.03478137031197548,-0.08208479732275009,0.08251310139894485,-0.01270008087158203,0.03970080614089966,-0.01917374134063721,XArbitraryZVertical,-0.3421930392001861,-0.3392995251771808,0.08307514524710992,0.8722833690428253,-0.5350751876831055,0.6533533334732056,-0.5355595350265503,0,0,0,-1,-1,31128.3166065,unknown,2,2025-04-22T12:42:28.008+03:00,2025-04-21T17:08:51.449+03:00,7356,0.9877701,0,0,6130.366,5,20,2025-04-22T12:42:48.644+03:00,767007776.4722543,0,-21.93,100.465,1,0.8,2025-04-22T12:41:30.631+03:00,75,1.25,2025-04-22T09:54:17.825+03:00,0.02225348692287972,0
2025-04-22T12:42:56.779+03:00,1745314974.999192,40.95227984194496,29.14025968887145,76.43295,-1,-1,-1,-1,30,38.06994086312898,-9999,31143.452253125,-0.53955078125,0.653045654296875,-0.53851318359375,31143.442177125,-0.1146102414348606,-0.7851960017640477,-0.7124358022059611,0.0009691470768302679,-0.08571568876504898,0.07757936418056488,-0.02053171396255493,0.03620123863220215,-0.02385532855987549,XArbitraryZVertical,-0.3422078076940674,-0.3395298054355147,0.08360811327380002,0.8721369716475736,-0.5350102782249451,0.6536790728569031,-0.5352266430854797,0,0,0,-1,-1,31128.3166065,unknown,2,2025-04-22T12:42:28.008+03:00,2025-04-21T17:08:51.449+03:00,7356,0.9877701,0,0,6130.366,5,20,2025-04-22T12:42:48.644+03:00,767007776.4722543,0,-21.93,100.465,1,0.8,2025-04-22T12:41:30.631+03:00,75,1.25,2025-04-22T09:54:17.825+03:00,0.02225348692287972,0
2025-04-22T12:42:56.789+03:00,1745314974.999192,40.95227984194496,29.14025968887145,76.43295,-1,-1,-1,-1,30,38.06994086312898,-9999,31143.462329125,-0.547576904296875,0.6558380126953125,-0.54193115234375,31143.452253125,-0.1141101020375721,-0.7857741323677516,-0.7131011165337945,-0.0424417108297348,-0.09496191889047623,0.06671952456235886,-0.006476819515228271,0.009468019008636475,-0.01748371124267578,XArbitraryZVertical,-0.3423836450154069,-0.3398066705451578,0.08405037643358072,0.8719175886952636,-0.535011887550354,0.6541823744773865,-0.5346097350120544,0,0,0,-1,-1,31128.3166065,unknown,2,2025-04-22T12:42:28.008+03:00,2025-04-21T17:08:51.449+03:00,7356,0.9877701,0,0,6130.366,5,20,2025-04-22T12:42:48.644+03:00,767007776.4722543,0,-21.93,100.465,1,0.8,2025-04-22T12:41:30.631+03:00,75,1.25,2025-04-22T09:54:17.825+03:00,0.02225348692287972,0
2025-04-22T12:42:56.799+03:00,1745314974.999192,40.95227984194496,29.14025968887145,76.43295,-1,-1,-1,-1,30,38.06994086312898,-9999,31143.472405125,-0.54595947265625,0.6544647216796875,-0.550079345703125,31143.462329125,-0.1141679058713235,-0.7868391415514517,-0.7139785666885727,-0.08787623792886734,-0.1056070327758789,0.05281146615743637,-0.005444645881652832,-0.001922369003295898,-0.003978729248046875,XArbitraryZVertical,-0.3427244000584769,-0.3401807257248465,0.08437290681861322,0.8716066378437715,-0.5351742506027222,0.6548457741737366,-0.5336341261863708,0,0,0,-1,-1,31128.3166065,unknown,2,2025-04-22T12:42:28.008+03:00,2025-04-21T17:08:51.449+03:00,7356,0.9877701,0,0,6130.366,5,20,2025-04-22T12:42:48.644+03:00,767007776.4722543,0,-21.93,100.465,1,0.8,2025-04-22T12:41:30.631+03:00,75,1.25,2025-04-22T09:54:17.825+03:00,0.02225348692287972,0
2025-04-22T12:42:56.809+03:00,1745314974.999192,40.95227984194496,29.14025968887145,76.43295,-1,-1,-1,-1,30,38.06994086312898,-9999,31143.482481125,-0.545196533203125,0.6504058837890625,-0.5511016845703125,31143.472405125,-0.114717032750557,-0.7883289528141516,-0.7150629603053305,-0.1200813129544258,-0.1167579591274261,0.04606195166707039,-0.01263093948364258,0.0007070302963256836,-0.01034343242645264,XArbitraryZVertical,-0.3432190569338216,-0.3406361952914789,0.08459369360195576,0.8712127085436853,-0.5354648232460022,0.6556649804115295,-0.5323353409767151,0,0,0,-1,-1,31128.3166065,unknown,2,2025-04-22T12:42:28.008+03:00,2025-04-21T17:08:51.449+03:00,7356,0.9877701,0,0,6130.366,5,20,2025-04-22T12:42:48.644+03:00,767007776.4722543,0,-21.93,100.465,1,0.8,2025-04-22T12:41:30.631+03:00,75,1.25,2025-04-22T09:54:17.825+03:00,0.02225348692287972,0
2025-04-22T12:42:56.819+03:00,1745314974.999192,40.95227984194496,29.14025968887145,76.43295,-1,-1,-1,-1,30,38.06994086312898,-9999,31143.492558125,-0.5518035888671875,0.6404266357421875,-0.5433349609375,31143.482481125,-0.1154595394284225,-0.7900243046892307,-0.7163245145295515,-0.137652650475502,-0.1244037002325058,0.05552027001976967,-0.009219706058502197,-0.002167582511901855,-0.01975399255752563,XArbitraryZVertical,-0.3438134605053446,-0.3411308289520594,0.08480002532853299,0.8707645805015928,-0.5357785224914551,0.6566169857978821,-0.5308441519737244,0,0,0,-1,-1,31128.3166065,unknown,2,2025-04-22T12:42:28.008+03:00,2025-04-21T17:08:51.449+03:00,7356,0.9877701,0,0,6130.366,5,20,2025-04-22T12:42:48.644+03:00,767007776.4722543,0,-21.93,100.465,1,0.8,2025-04-22T12:41:30.631+03:00,75,1.25,2025-04-22T09:54:17.825+03:00,0.02225348692287972,0
2025-04-22T12:42:56.829+03:00,1745314974.999192,40.95227984194496,29.14025968887145,76.43295,-1,-1,-1,-1,30,38.06994086312898,-9999,31143.502634125,-0.565643310546875,0.630828857421875,-0.528717041015625,31143.492558125,-0.1162032969035225,-0.7917095533482468,-0.7178927775146335,-0.1607316136360168,-0.1108402162790298,0.08854666352272034,-0.00944066047668457,-0.008003532886505127,-0.02248048782348633,XArbitraryZVertical,-0.3445391592539306,-0.341591308177714,0.08506336636360641,0.8702714306208515,-0.5359389781951904,0.6577990055084229,-0.5292162895202637,0,0,0,-1,-1,31128.3166065,unknown,2,2025-04-22T12:42:28.008+03:00,2025-04-21T17:08:51.449+03:00,7356,0.9877701,0,0,6130.366,5,20,2025-04-22T12:42:48.644+03:00,767007776.4722543,0,-21.93,100.465,1,0.8,2025-04-22T12:41:30.631+03:00,75,1.25,2025-04-22T09:54:17.825+03:00,0.02225348692287972,0
2025-04-22T12:42:56.839+03:00,1745314974.999192,40.95227984194496,29.14025968887145,76.43295,-1,-1,-1,-1,30,38.06994086312898,-9999,31143.512710125,-0.575439453125,0.63226318359375,-0.515106201171875,31143.502634125,-0.1166521633667031,-0.7929268464117564,-0.7198750458473181,-0.1642690896987915,-0.07201159000396729,0.1428883224725723,-0.01859217882156372,-0.01999330520629883,-0.01327657699584961,XArbitraryZVertical,-0.3454106106141028,-0.3418593149090564,0.0854541809233115,0.8697823570254539,-0.5356528162956238,0.6592907309532166,-0.5276474356651306,0,0,0,-1,-1,31128.3166065,unknown,2,2025-04-22T12:42:28.008+03:00,2025-04-21T17:08:51.449+03:00,7356,0.9877701,0,0,6130.366,5,20,2025-04-22T12:42:48.644+03:00,767007776.4722543,0,-21.93,100.465,1,0.8,2025-04-22T12:41:30.631+03:00,75,1.25,2025-04-22T09:54:17.825+03:00,0.02225348692287972,0
