loggingTime(txt),locationTimestamp_since1970(s),locationLatitude(WGS84),locationLongitude(WGS84),locationAltitude(m),locationSpeed(m/s),locationSpeedAccuracy(m/s),locationCourse(°),locationCourseAccuracy(°),locationVerticalAccuracy(m),locationHorizontalAccuracy(m),locationFloor(Z),accelerometerTimestamp_sinceReboot(s),accelerometerAccelerationX(G),accelerometerAccelerationY(G),accelerometerAccelerationZ(G),motionTimestamp_sinceReboot(s),motionYaw(rad),motionRoll(rad),motionPitch(rad),motionRotationRateX(rad/s),motionRotationRateY(rad/s),motionRotationRateZ(rad/s),motionUserAccelerationX(G),motionUserAccelerationY(G),motionUserAccelerationZ(G),motionAttitudeReferenceFrame(txt),motionQuaternionX(R),motionQuaternionY(R),motionQuaternionZ(R),motionQuaternionW(R),motionGravityX(G),motionGravityY(G),motionGravityZ(G),motionMagneticFieldX(µT),motionMagneticFieldY(µT),motionMagneticFieldZ(µT),motionHeading(°),motionMagneticFieldCalibrationAccuracy(Z),activityTimestamp_sinceReboot(s),activity(txt),activityActivityConfidence(Z),activityActivityStartDate(txt),pedometerStartDate(txt),pedometerNumberofSteps(N),pedometerAverageActivePace(s/m),pedometerCurrentPace(s/m),pedometerCurrentCadence(steps/s),pedometerDistance(m),pedometerFloorAscended(N),pedometerFloorDescended(N),pedometerEndDate(txt),altimeterTimestamp_sinceReboot(s),altimeterReset(bool),altimeterRelativeAltitude(m),altimeterPressure(kPa),batteryState(N),batteryLevel(R),heartRateBPMTimestamp(txt),heartRateBPM(N),heartRateBPS(R),heartRateVariabilityTimestamp(txt),heartRateVariability(ms),label
2025-04-22T13:03:32.498+03:00,1745316208.34092,40.95215778104961,29.14023037110555,75.7112,-1,-1,-1,-1,30,16.89288593580454,-9999,32017.99295066667,-0.5846099853515625,0.83074951171875,-0.0309295654296875,32017.99044866667,-0.715464205223739,-1.522110974691792,-0.9267893717278887,-0.02867805771529675,-0.1815363019704819,-0.07769784331321716,0.007758796215057373,0.03093093633651733,-0.007890045642852783,XArbitraryZVertical,0.5192033027432371,0.4645624313581258,-0.06195663291270553,-0.7146824162385574,-0.5996930003166199,0.7996963858604431,-0.02921935543417931,0,0,0,-1,-1,32017.52062666667,unknown,2,2025-04-22T13:03:32.007+03:00,2025-04-21T17:08:51.449+03:00,7397,0.9991471,0,0,6162.221,5,20,2025-04-22T12:58:04.401+03:00,767009012.1094084,0,-21.82,100.4637,1,0.75,2025-04-22T13:03:28.830+03:00,103,1.716666666666667,2025-04-22T09:54:17.825+03:00,0.02225348692287972,0
2025-04-22T13:03:32.499+03:00,1745316208.34092,40.95215778104961,29.14023037110555,75.7112,-1,-1,-1,-1,30,16.89288593580454,-9999,32018.00302666667,-0.5620574951171875,0.829498291015625,-0.0268402099609375,32018.00052466667,-0.7157227624741636,-1.524176440558933,-0.92599650362305,-0.0003101310867350549,-0.1885908246040344,-0.0764634981751442,0.01966637372970581,0.02953040599822998,-0.002598941326141357,XArbitraryZVertical,0.519001701598902,0.4654375756214501,-0.06212619455676363,-0.7142446391699718,-0.6003853678703308,0.799220085144043,-0.02801019325852394,0,0,0,-1,-1,32017.52062666667,unknown,2,2025-04-22T13:03:32.007+03:00,2025-04-21T17:08:51.449+03:00,7397,0.9991471,0,0,6162.221,5,20,2025-04-22T12:58:04.401+03:00,767009012.1094084,0,-21.82,100.4637,1,0.75,2025-04-22T13:03:28.830+03:00,103,1.716666666666667,2025-04-22T09:54:17.825+03:00,0.02225348692287972,0
2025-04-22T13:03:32.504+03:00,1745316208.34092,40.95215778104961,29.14023037110555,75.7112,-1,-1,-1,-1,30,16.89288593580454,-9999,32018.01310366667,-0.5801239013671875,0.8485565185546875,-0.0269317626953125,32018.01060166667,-0.7152719573551862,-1.525540083857497,-0.925348867113309,0.0542905293405056,-0.1574739217758179,-0.05656516179442406,0.03871458768844604,0.03284949064254761,3.892183303833008e-05,XArbitraryZVertical,0.5186929449748335,0.4662083172751708,-0.062416850270006,-0.713940851325884,-0.6009399890899658,0.7988306879997253,-0.02721486799418926,0,0,0,-1,-1,32017.52062666667,unknown,2,2025-04-22T13:03:32.007+03:00,2025-04-21T17:08:51.449+03:00,7397,0.9991471,0,0,6162.221,5,20,2025-04-22T12:58:04.401+03:00,767009012.1094084,0,-21.82,100.4637,1,0.75,2025-04-22T13:03:28.830+03:00,103,1.716666666666667,2025-04-22T09:54:17.825+03:00,0.02225348692287972,0
2025-04-22T13:03:32.517+03:00,1745316208.34092,40.95215778104961,29.14023037110555,75.7112,-1,-1,-1,-1,30,16.89288593580454,-9999,32018.02317966667,-0.6106719970703125,0.8454132080078125,-0.029144287109375,32018.02067766667,-0.7120618371140441,-1.525059652259253,-0.9249586609281258,0.3578060865402222,-0.2439562231302261,-0.03064760752022266,0.01705527305603027,0.0503266453742981,0.0003724116832017899,XArbitraryZVertical,0.5178618978562641,0.4669691067418604,-0.06330333373798554,-0.7139688050764736,-0.601237952709198,0.7985959053039551,-0.02751781605184078,0,0,0,-1,-1,32017.52062666667,unknown,2,2025-04-22T13:03:32.007+03:00,2025-04-21T17:08:51.449+03:00,7397,0.9991471,0,0,6162.221,5,20,2025-04-22T12:58:04.401+03:00,767009012.1094084,0,-21.82,100.4637,1,0.75,2025-04-22T13:03:28.830+03:00,103,1.716666666666667,2025-04-22T09:54:17.825+03:00,0.02225348692287972,0
2025-04-22T13:03:32.525+03:00,1745316208.34092,40.95215778104961,29.14023037110555,75.7112,-1,-1,-1,-1,30,16.89288593580454,-9999,32018.03325666667,-0.6142578125,0.829986572265625,-0.0333709716796875,32018.03075366667,-0.7075280921228985,-1.523224417229451,-0.9241165409973598,0.2173211276531219,-0.1517216265201569,-0.09159671515226364,-0.01151472330093384,0.04619514942169189,-0.0008726119995117188,XArbitraryZVertical,0.5166503909436764,0.4677026789721668,-0.06415632910502916,-0.714290160584782,-0.6018580794334412,0.7980887293815613,-0.02865315601229668,0,0,0,-1,-1,32017.52062666667,unknown,2,2025-04-22T13:03:32.007+03:00,2025-04-21T17:08:51.449+03:00,7397,0.9991471,0,0,6162.221,5,20,2025-04-22T12:58:04.401+03:00,767009012.1094084,0,-21.82,100.4637,1,0.75,2025-04-22T13:03:28.830+03:00,103,1.716666666666667,2025-04-22T09:54:17.825+03:00,0.02225348692287972,0
2025-04-22T13:03:32.535+03:00,1745316208.34092,40.95215778104961,29.14023037110555,75.7112,-1,-1,-1,-1,30,16.89288593580454,-9999,32018.04333266667,-0.6143646240234375,0.781494140625,-0.01312255859375,32018.04083066667,-0.7037084262722564,-1.521448324424392,-0.923427770735031,0.21010522544384,-0.09085700660943985,-0.04225436225533485,-0.01185697317123413,0.02828454971313477,-0.001897573471069336,XArbitraryZVertical,0.5156410418452223,0.4682304245085901,-0.06482451657271762,-0.7146133384851429,-0.6023550629615784,0.7976735830307007,-0.02974917180836201,0,0,0,-1,-1,32017.52062666667,unknown,2,2025-04-22T13:03:32.007+03:00,2025-04-21T17:08:51.449+03:00,7397,0.9991471,0,0,6162.221,5,20,2025-04-22T12:58:04.401+03:00,767009012.1094084,0,-21.82,100.4637,1,0.75,2025-04-22T13:03:28.830+03:00,103,1.716666666666667,2025-04-22T09:54:17.825+03:00,0.02225348692287972,0
2025-04-22T13:03:32.545+03:00,1745316208.34092,40.95215778104961,29.14023037110555,75.7112,-1,-1,-1,-1,30,16.89288593580454,-9999,32018.05340866667,-0.616546630859375,0.754730224609375,-0.0258636474609375,32018.05090666667,-0.7005438444545987,-1.519457770577212,-0.922682829251558,0.1779922842979431,-0.03578922525048256,-0.0838761106133461,-0.01162928342819214,-0.02268809080123901,0.01874107122421265,XArbitraryZVertical,0.5147769958794868,0.4685246381589035,-0.06518565134909222,-0.7150104855063016,-0.6028879284858704,0.7972240447998047,-0.03097861632704735,0,0,0,-1,-1,32017.52062666667,unknown,2,2025-04-22T13:03:32.007+03:00,2025-04-21T17:08:51.449+03:00,7397,0.9991471,0,0,6162.221,5,20,2025-04-22T12:58:04.401+03:00,767009012.1094084,0,-21.82,100.4637,1,0.75,2025-04-22T13:03:28.830+03:00,103,1.716666666666667,2025-04-22T09:54:17.825+03:00,0.02225348692287972,0
2025-04-22T13:03:32.555+03:00,1745316208.34092,40.95215778104961,29.14023037110555,75.7112,-1,-1,-1,-1,30,16.89288593580454,-9999,32018.06348566667,-0.616180419921875,0.7733001708984375,-0.027130126953125,32018.06098366667,-0.6980607337021139,-1.517733771771333,-0.9219426133261941,0.1294646412134171,-0.01986146159470081,-0.05564410611987114,-0.01402407884597778,-0.04012429714202881,0.005254805088043213,XArbitraryZVertical,0.5140644041864899,0.4687357119034364,-0.06537485696977176,-0.7153674969248969,-0.6034228205680847,0.7967770099639893,-0.03204924240708351,0,0,0,-1,-1,32017.52062666667,unknown,2,2025-04-22T13:03:32.007+03:00,2025-04-21T17:08:51.449+03:00,7397,0.9991471,0,0,6162.221,5,20,2025-04-22T12:58:04.401+03:00,767009012.1094084,0,-21.82,100.4637,1,0.75,2025-04-22T13:03:28.830+03:00,103,1.716666666666667,2025-04-22T09:54:17.825+03:00,0.02225348692287972,0
2025-04-22T13:03:32.565+03:00,1745316208.34092,40.95215778104961,29.14023037110555,75.7112,-1,-1,-1,-1,30,16.89288593580454,-9999,32018.07356166667,-0.598541259765625,0.78057861328125,-0.0314788818359375,32018.07105966667,-0.6961360501964153,-1.51633748090616,-0.9214545922260258,0.1034412980079651,-0.004634570796042681,-0.03809680417180061,-0.01082795858383179,-0.02002352476119995,0.005553904920816422,XArbitraryZVertical,0.5135353873177575,0.4688549336716413,-0.06553658192608389,-0.7156543813161294,-0.6037654876708984,0.7964820265769958,-0.03291291370987892,0,0,0,-1,-1,32017.52062666667,unknown,2,2025-04-22T13:03:32.007+03:00,2025-04-21T17:08:51.449+03:00,7397,0.9991471,0,0,6162.221,5,20,2025-04-22T12:58:04.401+03:00,767009012.1094084,0,-21.82,100.4637,1,0.75,2025-04-22T13:03:28.830+03:00,103,1.716666666666667,2025-04-22T09:54:17.825+03:00,0.02225348692287972,0
2025-04-22T13:03:32.575+03:00,1745316208.34092,40.95215778104961,29.14023037110555,75.7112,-1,-1,-1,-1,30,16.89288593580454,-9999,32018.08363866667,-0.60443115234375,0.763214111328125,-0.0385284423828125,32018.08113666667,-0.6946343041860665,-1.515132557836933,-0.9211298533160632,0.07793586701154709,0.006641186308115721,-0.02619969844818115,0.006052672863006592,-0.01759934425354004,0.0005736984312534332,XArbitraryZVertical,0.5131404360167473,0.4688917884592112,-0.06565293050840547,-0.7159028098424809,-0.6039835214614868,0.7962856292724609,-0.03365476801991463,0,0,0,-1,-1,32017.52062666667,unknown,2,2025-04-22T13:03:32.007+03:00,2025-04-21T17:08:51.449+03:00,7397,0.9991471,0,0,6162.221,5,20,2025-04-22T12:58:04.401+03:00,767009012.1094084,0,-21.82,100.4637,1,0.75,2025-04-22T13:03:28.830+03:00,103,1.716666666666667,2025-04-22T09:54:17.825+03:00,0.02225348692287972,0
2025-04-22T13:03:32.585+03:00,1745316208.34092,40.95215778104961,29.14023037110555,75.7112,-1,-1,-1,-1,30,16.89288593580454,-9999,32018.09371466667,-0.6029815673828125,0.7617950439453125,-0.0429229736328125,32018.09121266667,-0.6935295973900916,-1.514206319173106,-0.9209778803578885,0.05324943363666534,3.042165189981461e-05,-0.009605273604393005,-0.0009225606918334961,-0.03346794843673706,-0.005131423473358154,XArbitraryZVertical,0.5128732132017182,0.4688822307288612,-0.06575844722690273,-0.7160909416004362,-0.604073166847229,0.7961936593055725,-0.03422104194760323,0,0,0,-1,-1,32017.52062666667,unknown,2,2025-04-22T13:03:32.007+03:00,2025-04-21T17:08:51.449+03:00,7397,0.9991471,0,0,6162.221,5,20,2025-04-22T12:58:04.401+03:00,767009012.1094084,0,-21.82,100.4637,1,0.75,2025-04-22T13:03:28.830+03:00,103,1.716666666666667,2025-04-22T09:54:17.825+03:00,0.02225348692287972,0
2025-04-22T13:03:32.595+03:00,1745316208.34092,40.95215778104961,29.14023037110555,75.7112,-1,-1,-1,-1,30,16.89288593580454,-9999,32018.10379075,-0.594329833984375,0.7642974853515625,-0.04730224609375,32018.10128775,-0.6928978837158883,-1.513791021754172,-0.9209506180300906,0.02373295463621616,-0.01428713090717793,-0.002814413048326969,0.002365589141845703,-0.03476369380950928,-0.009426414966583252,XArbitraryZVertical,0.512731816762192,0.468902449616716,-0.06586873430035491,-0.7161688803861496,-0.6040806770324707,0.7961771488189697,-0.03447315469384193,0,0,0,-1,-1,32017.52062666667,unknown,2,2025-04-22T13:03:32.007+03:00,2025-04-21T17:08:51.449+03:00,7397,0.9991471,0,0,6162.221,5,20,2025-04-22T12:58:04.401+03:00,767009012.1094084,0,-21.82,100.4637,1,0.75,2025-04-22T13:03:28.830+03:00,103,1.716666666666667,2025-04-22T09:54:17.825+03:00,0.02225348692287972,0
2025-04-22T13:03:32.605+03:00,1745316208.34092,40.95215778104961,29.14023037110555,75.7112,-1,-1,-1,-1,30,16.89288593580454,-9999,32018.11386675,-0.5936431884765625,0.7689666748046875,-0.045623779296875,32018.11136475,-0.6926903233456113,-1.513823814077929,-0.9209836586909336,0.002037245547398925,-0.0225735567510128,0.008004412055015564,0.01056480407714844,-0.03107589483261108,-0.01249944791197777,XArbitraryZVertical,0.5126905162286806,0.4689589722410225,-0.06596289948736908,-0.7161526739357961,-0.6040553450584412,0.7961971759796143,-0.03445183485746384,0,0,0,-1,-1,32017.52062666667,unknown,2,2025-04-22T13:03:32.007+03:00,2025-04-21T17:08:51.449+03:00,7397,0.9991471,0,0,6162.221,5,20,2025-04-22T12:58:04.401+03:00,767009012.1094084,0,-21.82,100.4637,1,0.75,2025-04-22T13:03:28.830+03:00,103,1.716666666666667,2025-04-22T09:54:17.825+03:00,0.02225348692287972,0
2025-04-22T13:03:32.615+03:00,1745316208.34092,40.95215778104961,29.14023037110555,75.7112,-1,-1,-1,-1,30,16.89288593580454,-9999,32018.12394275,-0.59716796875,0.7766571044921875,-0.0423736572265625,32018.12144075,-0.6927747865239965,-1.514109905241962,-0.9211025060458543,-0.01581212505698204,-0.02243833616375923,0.01127647142857313,0.009183108806610107,-0.02576148509979248,-0.01096862182021141,XArbitraryZVertical,0.5127311275304713,0.469009556209606,-0.0660469111414327,-0.7160827111489071,-0.6039706468582153,0.7962690591812134,-0.0342736542224884,0,0,0,-1,-1,32017.52062666667,unknown,2,2025-04-22T13:03:32.007+03:00,2025-04-21T17:08:51.449+03:00,7397,0.9991471,0,0,6162.221,5,20,2025-04-22T12:58:04.401+03:00,767009012.1094084,0,-21.82,100.4637,1,0.75,2025-04-22T13:03:28.830+03:00,103,1.716666666666667,2025-04-22T09:54:17.825+03:00,0.02225348692287972,0
2025-04-22T13:03:32.626+03:00,1745316208.34092,40.95215778104961,29.14023037110555,75.7112,-1,-1,-1,-1,30,16.89288593580454,-9999,32018.13401975,-0.6019287109375,0.7847442626953125,-0.046051025390625,32018.13151775,-0.6931412417489814,-1.514653911568636,-0.9212190460926239,-0.02532040886580944,-0.02468124777078629,0.01170950196683407,0.005736887454986572,-0.01830935478210449,-0.008586402982473373,XArbitraryZVertical,0.5128287274570633,0.4690807559389659,-0.06609529042594633,-0.7159617377856278,-0.6038966178894043,0.7963395714759827,-0.03393988311290741,0,0,0,-1,-1,32017.52062666667,unknown,2,2025-04-22T13:03:32.007+03:00,2025-04-21T17:08:51.449+03:00,7397,0.9991471,0,0,6162.221,5,20,2025-04-22T12:58:04.401+03:00,767009012.1094084,0,-21.82,100.4637,1,0.75,2025-04-22T13:03:28.830+03:00,103,1.716666666666667,2025-04-22T09:54:17.825+03:00,0.02225348692287972,0
2025-04-22T13:03:32.636+03:00,1745316208.34092,40.95215778104961,29.14023037110555,75.7112,-1,-1,-1,-1,30,16.89288593580454,-9999,32018.14409575,-0.600372314453125,0.7960968017578125,-0.0490570068359375,32018.14159375,-0.6935986044433947,-1.515332276116763,-0.921264477169073,-0.02656730078160763,-0.03566119819879532,0.003162353066727519,0.00250399112701416,-0.01031064987182617,-0.01307213306427002,XArbitraryZVertical,0.5129251310666904,0.4691947424245719,-0.06612117430959137,-0.7158155940996036,-0.6038833856582642,0.7963670492172241,-0.03352820873260498,0,0,0,-1,-1,32017.52062666667,unknown,2,2025-04-22T13:03:32.007+03:00,2025-04-21T17:08:51.449+03:00,7397,0.9991471,0,0,6162.221,5,20,2025-04-22T12:58:04.401+03:00,767009012.1094084,0,-21.82,100.4637,1,0.75,2025-04-22T13:03:28.830+03:00,103,1.716666666666667,2025-04-22T09:54:17.825+03:00,0.02225348692287972,0
2025-04-22T13:03:32.646+03:00,1745316208.34092,40.95215778104961,29.14023037110555,75.7112,-1,-1,-1,-1,30,16.89288593580454,-9999,32018.15417275,-0.596832275390625,0.8058624267578125,-0.0540313720703125,32018.15166975,-0.6939834376949513,-1.516024643562984,-0.921256755412835,-0.01711387746036053,-0.0421137697994709,-0.001266217557713389,0.004226982593536377,0.001183807849884033,-0.01675533875823021,XArbitraryZVertical,0.5129905745576088,0.4693457766374529,-0.0661583821741496,-0.7156662141452634,-0.6039125919342041,0.7963623404502869,-0.03311042487621307,0,0,0,-1,-1,32017.52062666667,unknown,2,2025-04-22T13:03:32.007+03:00,2025-04-21T17:08:51.449+03:00,7397,0.9991471,0,0,6162.221,5,20,2025-04-22T12:58:04.401+03:00,767009012.1094084,0,-21.82,100.4637,1,0.75,2025-04-22T13:03:28.830+03:00,103,1.716666666666667,2025-04-22T09:54:17.825+03:00,0.02225348692287972,0
2025-04-22T13:03:32.656+03:00,1745316208.34092,40.95215778104961,29.14023037110555,75.7112,-1,-1,-1,-1,30,16.89288593580454,-9999,32018.16424875,-0.595184326171875,0.8151702880859375,-0.059906005859375,32018.16174675,-0.694146264506438,-1.516631840412936,-0.9211447803653132,0.0009675870533101261,-0.0549611933529377,-0.01937028765678406,0.007265746593475342,0.009781241416931152,-0.02125233039259911,XArbitraryZVertical,0.5129802598664893,0.4695497573258446,-0.06621726566798117,-0.7155343830570899,-0.6040216684341431,0.796294629573822,-0.03274855762720108,0,0,0,-1,-1,32017.52062666667,unknown,2,2025-04-22T13:03:32.007+03:00,2025-04-21T17:08:51.449+03:00,7397,0.9991471,0,0,6162.221,5,20,2025-04-22T12:58:04.401+03:00,767009012.1094084,0,-21.82,100.4637,1,0.75,2025-04-22T13:03:28.830+03:00,103,1.716666666666667,2025-04-22T09:54:17.825+03:00,0.02225348692287972,0
2025-04-22T13:03:32.666+03:00,1745316208.34092,40.95215778104961,29.14023037110555,75.7112,-1,-1,-1,-1,30,16.89288593580454,-9999,32018.17432475,-0.594970703125,0.8219757080078125,-0.0621337890625,32018.17182275,-0.6939999316517588,-1.517172864744102,-0.9208269949274432,0.01631804741919041,-0.07618525624275208,-0.03615326061844826,0.009534955024719238,0.02021223306655884,-0.02832514047622681,XArbitraryZVertical,0.5128473147853271,0.469861649069751,-0.06629885435207745,-0.7154173950819496,-0.6042920351028442,0.7961023449897766,-0.03243532404303551,0,0,0,-1,-1,32017.52062666667,unknown,2,2025-04-22T13:03:32.007+03:00,2025-04-21T17:08:51.449+03:00,7397,0.9991471,0,0,6162.221,5,20,2025-04-22T12:58:04.401+03:00,767009012.1094084,0,-21.82,100.4637,1,0.75,2025-04-22T13:03:28.830+03:00,103,1.716666666666667,2025-04-22T09:54:17.825+03:00,0.02225348692287972,0
2025-04-22T13:03:32.676+03:00,1745316208.34092,40.95215778104961,29.14023037110555,75.7112,-1,-1,-1,-1,30,16.89288593580454,-9999,32018.18440175,-0.597320556640625,0.8167572021484375,-0.0566864013671875,32018.18189975,-0.6937641562086526,-1.51778319978482,-0.9203800238929692,0.01187209971249104,-0.08229833841323853,-0.04486516118049622,0.008948624134063721,0.02554869651794434,-0.0299416184425354,XArbitraryZVertical,0.5126582256380664,0.4702540455881876,-0.06638560257487197,-0.7152870622952004,-0.6046670079231262,0.7958317995071411,-0.0320853516459465,0,0,0,-1,-1,32017.52062666667,unknown,2,2025-04-22T13:03:32.007+03:00,2025-04-21T17:08:51.449+03:00,7397,0.9991471,0,0,6162.221,5,20,2025-04-22T12:58:04.401+03:00,767009012.1094084,0,-21.82,100.4637,1,0.75,2025-04-22T13:03:28.830+03:00,103,1.716666666666667,2025-04-22T09:54:17.825+03:00,0.02225348692287972,0
2025-04-22T13:03:32.686+03:00,1745316208.34092,40.95215778104961,29.14023037110555,75.7112,-1,-1,-1,-1,30,16.89288593580454,-9999,32018.19447775,-0.601898193359375,0.8133697509765625,-0.0583953857421875,32018.19197575,-0.6936032112762254,-1.518475195725231,-0.9198867301612016,0.002945716492831707,-0.08409890532493591,-0.0508066713809967,0.007333219051361084,0.02040010690689087,-0.02531939744949341,XArbitraryZVertical,0.5124722274664413,0.4706681362096922,-0.06645046019737363,-0.7151419394004842,-0.6050810217857361,0.7955330014228821,-0.03168744221329689,0,0,0,-1,-1,32017.52062666667,unknown,2,2025-04-22T13:03:32.007+03:00,2025-04-21T17:08:51.449+03:00,7397,0.9991471,0,0,6162.221,5,20,2025-04-22T12:58:04.401+03:00,767009012.1094084,0,-21.82,100.4637,1,0.75,2025-04-22T13:03:28.830+03:00,103,1.716666666666667,2025-04-22T09:54:17.825+03:00,0.02225348692287972,0
2025-04-22T13:03:32.696+03:00,1745316208.34092,40.95215778104961,29.14023037110555,75.7112,-1,-1,-1,-1,30,16.89288593580454,-9999,32018.20455475,-0.6043243408203125,0.8130950927734375,-0.0579376220703125,32018.20205275,-0.6936418225391163,-1.519379066278494,-0.9192921134879898,-0.01068807020783424,-0.09266336262226105,-0.06201871484518051,0.003012001514434814,0.01810538768768311,-0.02739840373396873,XArbitraryZVertical,0.5123004835879077,0.4711324751596698,-0.06646323631849738,-0.7149579340792119,-0.605581521987915,0.7951725721359253,-0.03116481006145477,0,0,0,-1,-1,32017.52062666667,unknown,2,2025-04-22T13:03:32.007+03:00,2025-04-21T17:08:51.449+03:00,7397,0.9991471,0,0,6162.221,5,20,2025-04-22T12:58:04.401+03:00,767009012.1094084,0,-21.82,100.4637,1,0.75,2025-04-22T13:03:28.830+03:00,103,1.716666666666667,2025-04-22T09:54:17.825+03:00,0.02225348692287972,0
2025-04-22T13:03:32.706+03:00,1745316208.34092,40.95215778104961,29.14023037110555,75.7112,-1,-1,-1,-1,30,16.89288593580454,-9999,32018.21463075,-0.60516357421875,0.807830810546875,-0.0585174560546875,32018.21212875,-0.6939512233249204,-1.520617497671153,-0.9186072110406549,-0.02604838460683823,-0.1074337884783745,-0.0747653990983963,0.001228809356689453,0.01783430576324463,-0.027220843359828,XArbitraryZVertical,0.5121586070402262,0.4716699036905348,-0.06643354362096163,-0.7147079563820751,-0.6061634421348572,0.794757068157196,-0.03044212609529495,0,0,0,-1,-1,32017.52062666667,unknown,2,2025-04-22T13:03:32.007+03:00,2025-04-21T17:08:51.449+03:00,7397,0.9991471,0,0,6162.221,5,20,2025-04-22T12:58:04.401+03:00,767009012.1094084,0,-21.82,100.4637,1,0.75,2025-04-22T13:03:28.830+03:00,103,1.716666666666667,2025-04-22T09:54:17.825+03:00,0.02225348692287972,0
2025-04-22T13:03:32.716+03:00,1745316208.34092,40.95215778104961,29.14023037110555,75.7112,-1,-1,-1,-1,30,16.89288593580454,-9999,32018.22470775,-0.6029052734375,0.8077850341796875,-0.0601806640625,32018.22220475,-0.6945340383583291,-1.52220200436421,-0.9177587703712958,-0.04050428792834282,-0.1203178912401199,-0.09366212785243988,0.002651572227478027,0.01284116506576538,-0.0285910964012146,XArbitraryZVertical,0.5120285801061384,0.4723023905800606,-0.06633810770090809,-0.7143922972354532,-0.6068843603134155,0.7942418456077576,-0.02951437048614025,0,0,0,-1,-1,32017.52062666667,unknown,2,2025-04-22T13:03:32.007+03:00,2025-04-21T17:08:51.449+03:00,7397,0.9991471,0,0,6162.221,5,20,2025-04-22T12:58:04.401+03:00,767009012.1094084,0,-21.82,100.4637,1,0.75,2025-04-22T13:03:28.830+03:00,103,1.716666666666667,2025-04-22T09:54:17.825+03:00,0.02225348692287972,0
2025-04-22T13:03:32.726+03:00,1745316208.34092,40.95215778104961,29.14023037110555,75.7112,-1,-1,-1,-1,30,16.89288593580454,-9999,32018.23478375,-0.6051483154296875,0.82196044921875,-0.0789031982421875,32018.23228175,-0.6952852115030539,-1.524016373416184,-0.9167519680726642,-0.04548067227005959,-0.1287752985954285,-0.1161040589213371,0.004570662975311279,0.01571160554885864,-0.03287452459335327,XArbitraryZVertical,0.5118911925809505,0.4730138614932041,-0.06618652528717189,-0.7140339845559285,-0.6077353358268738,0.7936297059059143,-0.02845058776438236,0,0,0,-1,-1,32017.52062666667,unknown,2,2025-04-22T13:03:32.007+03:00,2025-04-21T17:08:51.449+03:00,7397,0.9991471,0,0,6162.221,5,20,2025-04-22T12:58:04.401+03:00,767009012.1094084,0,-21.82,100.4637,1,0.75,2025-04-22T13:03:28.830+03:00,103,1.716666666666667,2025-04-22T09:54:17.825+03:00,0.02225348692287972,0
2025-04-22T13:03:32.736+03:00,1745316208.34092,40.95215778104961,29.14023037110555,75.7112,-1,-1,-1,-1,30,16.89288593580454,-9999,32018.24485975,-0.606109619140625,0.8491363525390625,-0.1016845703125,32018.24235775,-0.6959578405785608,-1.525951030696703,-0.9155154965477288,-0.03402554988861084,-0.156733363866806,-0.1373143792152405,0.003132522106170654,0.03202837705612183,-0.05414789915084839,XArbitraryZVertical,0.5116738821761661,0.473846457833456,-0.06601406188250362,-0.713653552732089,-0.6087690591812134,0.7928768396377563,-0.02731874585151672,0,0,0,-1,-1,32017.52062666667,unknown,2,2025-04-22T13:03:32.007+03:00,2025-04-21T17:08:51.449+03:00,7397,0.9991471,0,0,6162.221,5,20,2025-04-22T12:58:04.401+03:00,767009012.1094084,0,-21.82,100.4637,1,0.75,2025-04-22T13:03:28.830+03:00,103,1.716666666666667,2025-04-22T09:54:17.825+03:00,0.02225348692287972,0
2025-04-22T13:03:32.747+03:00,1745316208.34092,40.95215778104961,29.14023037110555,75.7112,-1,-1,-1,-1,30,16.89288593580454,-9999,32018.25493675,-0.604705810546875,0.8759765625,-0.1142578125,32018.25243475,-0.6967328477088641,-1.528382795976418,-0.9139957096612125,-0.05792955309152603,-0.211467981338501,-0.1745573431253433,0.003606855869293213,0.06032967567443848,-0.07754999399185181,XArbitraryZVertical,0.5113937866210678,0.4749018044316698,-0.06583372255491352,-0.7131692761240118,-0.6100368499755859,0.7919498085975647,-0.02588934265077114,0,0,0,-1,-1,32017.52062666667,unknown,2,2025-04-22T13:03:32.007+03:00,2025-04-21T17:08:51.449+03:00,7397,0.9991471,0,0,6162.221,5,20,2025-04-22T12:58:04.401+03:00,767009012.1094084,0,-21.82,100.4637,1,0.75,2025-04-22T13:03:28.830+03:00,103,1.716666666666667,2025-04-22T09:54:17.825+03:00,0.02225348692287972,0
2025-04-22T13:03:32.757+03:00,1745316208.34092,40.95215778104961,29.14023037110555,75.7112,-1,-1,-1,-1,30,16.89288593580454,-9999,32018.26501275,-0.60675048828125,0.88934326171875,-0.1218719482421875,32018.26251075,-0.6982919280481014,-1.531973528925058,-0.9121807366181993,-0.1305809915065765,-0.2615773379802704,-0.2027862519025803,0.006367146968841553,0.0878826379776001,-0.09146463871002197,XArbitraryZVertical,0.5111890662315085,0.4762441735740628,-0.0655672019714769,-0.7124450926835898,-0.6115611791610718,0.7908402681350708,-0.02375445142388344,0,0,0,-1,-1,32017.52062666667,unknown,2,2025-04-22T13:03:32.007+03:00,2025-04-21T17:08:51.449+03:00,7397,0.9991471,0,0,6162.221,5,20,2025-04-22T12:58:04.401+03:00,767009012.1094084,0,-21.82,100.4637,1,0.75,2025-04-22T13:03:28.830+03:00,103,1.716666666666667,2025-04-22T09:54:17.825+03:00,0.02225348692287972,0
2025-04-22T13:03:32.767+03:00,1745316208.34092,40.95215778104961,29.14023037110555,75.7112,-1,-1,-1,-1,30,16.89288593580454,-9999,32018.27508975,-0.61773681640625,0.87359619140625,-0.125946044921875,32018.27258675,-0.7012159448317945,-1.537092658367218,-0.9099824478930609,-0.2191822230815887,-0.3005279302597046,-0.2431091666221619,0.006202757358551025,0.1000332832336426,-0.101220428943634,XArbitraryZVertical,0.511166923150445,0.4778779761774292,-0.06507169653360116,-0.7114117451721673,-0.613411009311676,0.7894929647445679,-0.02068203315138817,0,0,0,-1,-1,32017.52062666667,unknown,2,2025-04-22T13:03:32.007+03:00,2025-04-21T17:08:51.449+03:00,7397,0.9991471,0,0,6162.221,5,20,2025-04-22T12:58:04.401+03:00,767009012.1094084,0,-21.82,100.4637,1,0.75,2025-04-22T13:03:28.830+03:00,103,1.716666666666667,2025-04-22T09:54:17.825+03:00,0.02225348692287972,0
2025-04-22T13:03:32.777+03:00,1745316208.34092,40.95215778104961,29.14023037110555,75.7112,-1,-1,-1,-1,30,16.89288593580454,-9999,32018.28516575,-0.6313018798828125,0.8636627197265625,-0.139190673828125,32018.28266375,-0.7054120475826481,-1.543595508567545,-0.9074900219556475,-0.2706467509269714,-0.336208701133728,-0.2729760110378265,-0.003795623779296875,0.08343803882598877,-0.1108630895614624,XArbitraryZVertical,0.5113376727292662,0.4797506649282688,-0.064375650061522,-0.7100906924181086,-0.6154975891113281,0.7879607677459717,-0.0167461670935154,0,0,0,-1,-1,32017.52062666667,unknown,2,2025-04-22T13:03:32.007+03:00,2025-04-21T17:08:51.449+03:00,7397,0.9991471,0,0,6162.221,5,20,2025-04-22T12:58:04.401+03:00,767009012.1094084,0,-21.82,100.4637,1,0.75,2025-04-22T13:03:28.830+03:00,103,1.716666666666667,2025-04-22T09:54:17.825+03:00,0.02225348692287972,0
2025-04-22T13:03:32.787+03:00,1745316208.34092,40.95215778104961,29.14023037110555,75.7112,-1,-1,-1,-1,30,16.89288593580454,-9999,32018.29524175,-0.6345977783203125,0.8882293701171875,-0.16290283203125,32018.29273975,-0.7098672286234556,-1.550687761649804,-0.9046773788293233,-0.2605823874473572,-0.3770535886287689,-0.3011059165000916,-0.01406735181808472,0.07873386144638062,-0.1292070746421814,XArbitraryZVertical,0.5114821396795932,0.4818438570290389,-0.06362761800807484,-0.7086353809820818,-0.6178144216537476,0.7862258553504944,-0.01242503616958857,0,0,0,-1,-1,32017.52062666667,unknown,2,2025-04-22T13:03:32.007+03:00,2025-04-21T17:08:51.449+03:00,7397,0.9991471,0,0,6162.221,5,20,2025-04-22T12:58:04.401+03:00,767009012.1094084,0,-21.82,100.4637,1,0.75,2025-04-22T13:03:28.830+03:00,103,1.716666666666667,2025-04-22T09:54:17.825+03:00,0.02225348692287972,0
2025-04-22T13:03:32.797+03:00,1745316208.34092,40.95215778104961,29.14023037110555,75.7112,-1,-1,-1,-1,30,16.89288593580454,-9999,32018.30531875,-0.63616943359375,0.92724609375,-0.1870574951171875,32018.30281675,-0.7138059238479361,-1.557909343004725,-0.9014494696634295,-0.2181337922811508,-0.4439725279808044,-0.3476485311985016,-0.0146944522857666,0.108244001865387,-0.1586607098579407,XArbitraryZVertical,0.511406619152634,0.4842162373264835,-0.06295092158387994,-0.7071314169346368,-0.6204220056533813,0.7842270731925964,-0.007995810359716415,0,0,0,-1,-1,32017.52062666667,unknown,2,2025-04-22T13:03:32.007+03:00,2025-04-21T17:08:51.449+03:00,7397,0.9991471,0,0,6162.221,5,20,2025-04-22T12:58:04.401+03:00,767009012.1094084,0,-21.82,100.4637,1,0.75,2025-04-22T13:03:28.830+03:00,103,1.716666666666667,2025-04-22T09:54:17.825+03:00,0.02225348692287972,0
2025-04-22T13:03:32.807+03:00,1745316208.34092,40.95215778104961,29.14023037110555,75.7112,-1,-1,-1,-1,30,16.89288593580454,-9999,32018.31539475,-0.64019775390625,0.935760498046875,-0.204742431640625,32018.31289275,-0.7171624326136551,-1.565368787188352,-0.897797669871548,-0.1992466598749161,-0.5154038667678833,-0.3787174820899963,-0.01293683052062988,0.1487841010093689,-0.1860700249671936,XArbitraryZVertical,0.5110893966363015,0.4869251009217518,-0.0623907518951102,-0.7055485587503117,-0.6233240962028503,0.7819560170173645,-0.003383149392902851,0,0,0,-1,-1,32017.52062666667,unknown,2,2025-04-22T13:03:32.007+03:00,2025-04-21T17:08:51.449+03:00,7397,0.9991471,0,0,6162.221,5,20,2025-04-22T12:58:04.401+03:00,767009012.1094084,0,-21.82,100.4637,1,0.75,2025-04-22T13:03:28.830+03:00,103,1.716666666666667,2025-04-22T09:54:17.825+03:00,0.02225348692287972,0
2025-04-22T13:03:32.817+03:00,1745316208.34092,40.95215778104961,29.14023037110555,75.7112,-1,-1,-1,-1,30,16.89288593580454,-9999,32018.32547175,-0.6487884521484375,0.9109344482421875,-0.2132720947265625,32018.32296975,-0.7207202751858581,-1.573659806791538,-0.893837871447936,-0.2531681656837463,-0.5748007893562317,-0.4103302657604218,-0.01478248834609985,0.1532116532325745,-0.2080315351486206,XArbitraryZVertical,0.5107318878331856,0.4899487881737156,-0.0618612792710941,-0.7037585871396423,-0.6264222860336304,0.7794816493988037,0.001793752540834248,0,0,0,-1,-1,32017.52062666667,unknown,2,2025-04-22T13:03:32.007+03:00,2025-04-21T17:08:51.449+03:00,7397,0.9991471,0,0,6162.221,5,20,2025-04-22T12:58:04.401+03:00,767009012.1094084,0,-21.82,100.4637,1,0.75,2025-04-22T13:03:28.830+03:00,103,1.716666666666667,2025-04-22T09:54:17.825+03:00,0.02225348692287972,0
2025-04-22T13:03:32.827+03:00,1745316208.34092,40.95215778104961,29.14023037110555,75.7112,-1,-1,-1,-1,30,16.89288593580454,-9999,32018.33554775,-0.662017822265625,0.8939971923828125,-0.21722412109375,32018.33304575,-0.725431661384595,-1.583397457898184,-0.8896885069139266,-0.3345533013343811,-0.6281929016113281,-0.4089968204498291,-0.0206952691078186,0.1311288475990295,-0.2223200798034668,XArbitraryZVertical,0.5105816952413093,0.493227535892747,-0.06122653362764679,-0.7016295672068036,-0.6296037435531616,0.7768756747245789,0.007934139110147953,0,0,0,-1,-1,32017.52062666667,unknown,2,2025-04-22T13:03:32.007+03:00,2025-04-21T17:08:51.449+03:00,7397,0.9991471,0,0,6162.221,5,20,2025-04-22T12:58:04.401+03:00,767009012.1094084,0,-21.82,100.4637,1,0.75,2025-04-22T13:03:28.830+03:00,103,1.716666666666667,2025-04-22T09:54:17.825+03:00,0.02225348692287972,0
2025-04-22T13:03:32.837+03:00,1745316208.34092,40.95215778104961,29.14023037110555,75.7112,-1,-1,-1,-1,30,16.89288593580454,-9999,32018.34562475,-0.660675048828125,0.877349853515625,-0.2156829833984375,32018.34312175,-0.7312182828996382,-1.59453028975535,-0.885581155940768,-0.4003425538539886,-0.6929565668106079,-0.3936436176300049,-0.03062307834625244,0.1174253225326538,-0.2326849699020386,XArbitraryZVertical,0.5106845378057566,0.4966995989942325,-0.06058581017321562,-0.6991566694051327,-0.6326612234115601,0.7742828726768494,0.01501837745308876,0,0,0,-1,-1,32017.52062666667,unknown,2,2025-04-22T13:03:32.007+03:00,2025-04-21T17:08:51.449+03:00,7397,0.9991471,0,0,6162.221,5,20,2025-04-22T12:58:04.401+03:00,767009012.1094084,0,-21.82,100.4637,1,0.75,2025-04-22T13:03:28.830+03:00,103,1.716666666666667,2025-04-22T09:54:17.825+03:00,0.02225348692287972,0
2025-04-22T13:03:32.848+03:00,1745316208.34092,40.95215778104961,29.14023037110555,75.7112,-1,-1,-1,-1,30,16.89288593580454,-9999,32018.35570075,-0.6529693603515625,0.8611297607421875,-0.19610595703125,32018.35319875,-0.7375507871342748,-1.606764520081102,-0.8816490028749655,-0.4212872385978699,-0.7674300074577332,-0.3593516945838928,-0.02391016483306885,0.1032418012619019,-0.2378933429718018,XArbitraryZVertical,0.5109551214277326,0.5003579817557374,-0.06010069110129614,-0.6963867703286236,-0.6354678273200989,0.771788477897644,0.02286649122834206,0,0,0,-1,-1,32017.52062666667,unknown,2,2025-04-22T13:03:32.007+03:00,2025-04-21T17:08:51.449+03:00,7397,0.9991471,0,0,6162.221,5,20,2025-04-22T12:58:04.401+03:00,767009012.1094084,0,-21.82,100.4637,1,0.75,2025-04-22T13:03:28.830+03:00,103,1.716666666666667,2025-04-22T09:54:17.825+03:00,0.02225348692287972,0
2025-04-22T13:03:32.857+03:00,1745316208.34092,40.95215778104961,29.14023037110555,75.7112,-1,-1,-1,-1,30,16.89288593580454,-9999,32018.36577675,-0.655120849609375,0.84674072265625,-0.1635589599609375,32018.36327475,-0.7439648371693142,-1.619822527470176,-0.8779839562925424,-0.4151462614536285,-0.8378708958625793,-0.3297080397605896,-0.01442289352416992,0.09018146991729736,-0.2242175340652466,XArbitraryZVertical,0.5113086951557385,0.5041961432181927,-0.05989800504894749,-0.6933698853160096,-0.6379361152648926,0.7694528102874756,0.03130066394805908,0,0,0,-1,-1,32017.52062666667,unknown,2,2025-04-22T13:03:32.007+03:00,2025-04-21T17:08:51.449+03:00,7397,0.9991471,0,0,6162.221,5,20,2025-04-22T12:58:04.401+03:00,767009012.1094084,0,-21.82,100.4637,1,0.75,2025-04-22T13:03:28.830+03:00,103,1.716666666666667,2025-04-22T09:54:17.825+03:00,0.02225348692287972,0
2025-04-22T13:03:32.867+03:00,1745316208.34092,40.95215778104961,29.14023037110555,75.7112,-1,-1,-1,-1,30,16.89288593580454,-9999,32018.37585375,-0.6645965576171875,0.8315582275390625,-0.134490966796875,32018.37335175,-0.7501667555484067,-1.633234604251283,-0.8747345552014171,-0.406142920255661,-0.8752933740615845,-0.2640571296215057,-0.01581060886383057,0.07746005058288574,-0.1999826431274414,XArbitraryZVertical,0.5117176805083548,0.5080843850293265,-0.0600149225584453,-0.6902126531685134,-0.6399511694908142,0.7673733234405518,0.04000945389270782,0,0,0,-1,-1,32017.52062666667,unknown,2,2025-04-22T13:03:32.007+03:00,2025-04-21T17:08:51.449+03:00,7397,0.9991471,0,0,6162.221,5,20,2025-04-22T12:58:04.401+03:00,767009012.1094084,0,-21.82,100.4637,1,0.75,2025-04-22T13:03:28.830+03:00,103,1.716666666666667,2025-04-22T09:54:17.825+03:00,0.02225348692287972,0
2025-04-22T13:03:32.878+03:00,1745316208.34092,40.95215778104961,29.14023037110555,75.7112,-1,-1,-1,-1,30,16.89288593580454,-9999,32018.38592975,-0.6714935302734375,0.81689453125,-0.1139678955078125,32018.38342775,-0.7561545002808088,-1.6467573209012,-0.8721371849893177,-0.3863122165203094,-0.8924158811569214,-0.194603756070137,-0.02428197860717773,0.06422024965286255,-0.1799445152282715,XArbitraryZVertical,0.5122382578194095,0.5118761789856962,-0.06047705202154818,-0.6869769767113232,-0.641336977481842,0.7657052874565125,0.04881051182746887,0,0,0,-1,-1,32017.52062666667,unknown,2,2025-04-22T13:03:32.007+03:00,2025-04-21T17:08:51.449+03:00,7397,0.9991471,0,0,6162.221,5,20,2025-04-22T12:58:04.401+03:00,767009012.1094084,0,-21.82,100.4637,1,0.75,2025-04-22T13:03:28.830+03:00,103,1.716666666666667,2025-04-22T09:54:17.825+03:00,0.02225348692287972,0
2025-04-22T13:03:32.888+03:00,1745316208.34092,40.95215778104961,29.14023037110555,75.7112,-1,-1,-1,-1,30,16.89288593580454,-9999,32018.39600675,-0.67486572265625,0.79974365234375,-0.1093597412109375,32018.39350375,-0.7616791884837796,-1.659947400740215,-0.870308988246878,-0.3423234522342682,-0.8896267414093018,-0.1121288537979126,-0.02952420711517334,0.04990959167480469,-0.1701828241348267,XArbitraryZVertical,0.5128393795355805,0.5154519190531329,-0.06130099315839931,-0.6837742412336135,-0.6420303583145142,0.7645281553268433,0.05738982185721397,0,0,0,-1,-1,32017.52062666667,unknown,2,2025-04-22T13:03:32.007+03:00,2025-04-21T17:08:51.449+03:00,7397,0.9991471,0,0,6162.221,5,20,2025-04-22T12:58:04.401+03:00,767009012.1094084,0,-21.82,100.4637,1,0.75,2025-04-22T13:03:28.830+03:00,103,1.716666666666667,2025-04-22T09:54:17.825+03:00,0.02225348692287972,0
2025-04-22T13:03:32.898+03:00,1745316208.34092,40.95215778104961,29.14023037110555,75.7112,-1,-1,-1,-1,30,16.89288593580454,-9999,32018.40608275,-0.6742401123046875,0.7924957275390625,-0.1030120849609375,32018.40358075,-0.7663593530922349,-1.672593650418468,-0.8691356405736567,-0.2676806449890137,-0.904013454914093,-0.05632870271801949,-0.03305619955062866,0.0344921350479126,-0.1751840114593506,XArbitraryZVertical,0.5133942487644942,0.5188680433787943,-0.06252171940412564,-0.6806564807834565,-0.6421452164649963,0.7637712955474854,0.06559540331363678,0,0,0,-1,-1,32017.52062666667,unknown,2,2025-04-22T13:03:32.007+03:00,2025-04-21T17:08:51.449+03:00,7397,0.9991471,0,0,6162.221,5,20,2025-04-22T12:58:04.401+03:00,767009012.1094084,0,-21.82,100.4637,1,0.75,2025-04-22T13:03:28.830+03:00,103,1.716666666666667,2025-04-22T09:54:17.825+03:00,0.02225348692287972,0
2025-04-22T13:03:32.911+03:00,1745316208.34092,40.95215778104961,29.14023037110555,75.7112,-1,-1,-1,-1,30,16.89288593580454,-9999,32018.41615975,-0.667816162109375,0.784271240234375,-0.097747802734375,32018.41365675,-0.7701307568038335,-1.684677149470405,-0.868653572884057,-0.22614386677742,-0.9252987504005432,0.008484647609293461,-0.03247702121734619,0.02807426452636719,-0.1756865978240967,XArbitraryZVertical,0.5138859284439735,0.5221274396630649,-0.06416807679387766,-0.6776330764169175,-0.6416714787483215,0.7634600400924683,0.0733916237950325,0,0,0,-1,-1,32017.52062666667,unknown,2,2025-04-22T13:03:32.007+03:00,2025-04-21T17:08:51.449+03:00,7397,0.9991471,0,0,6162.221,5,20,2025-04-22T12:58:04.401+03:00,767009012.1094084,0,-21.82,100.4637,1,0.75,2025-04-22T13:03:28.830+03:00,103,1.716666666666667,2025-04-22T09:54:17.825+03:00,0.02225348692287972,0
2025-04-22T13:03:32.918+03:00,1745316208.34092,40.95215778104961,29.14023037110555,75.7112,-1,-1,-1,-1,30,16.89288593580454,-9999,32018.42623575,-0.657928466796875,0.791778564453125,-0.1019287109375,32018.42373375,-0.7731709902791736,-1.696572925675585,-0.8687989190096113,-0.1581094115972519,-0.9775875210762024,0.06713464111089706,-0.02666950225830078,0.020183265209198,-0.1791195869445801,XArbitraryZVertical,0.5143260933020538,0.5253298339730903,-0.06625142471888407,-0.6746169464625922,-0.6406431198120117,0.7635539174079895,0.0810055285692215,0,0,0,-1,-1,32017.52062666667,unknown,2,2025-04-22T13:03:32.007+03:00,2025-04-21T17:08:51.449+03:00,7397,0.9991471,0,0,6162.221,5,20,2025-04-22T12:58:04.401+03:00,767009012.1094084,0,-21.82,100.4637,1,0.75,2025-04-22T13:03:28.830+03:00,103,1.716666666666667,2025-04-22T09:54:17.825+03:00,0.02225348692287972,0
2025-04-22T13:03:32.928+03:00,1745316208.34092,40.95215778104961,29.14023037110555,75.7112,-1,-1,-1,-1,30,16.89288593580454,-9999,32018.43631175,-0.6430511474609375,0.81494140625,-0.09625244140625,32018.43380975,-0.775593431595818,-1.708510689611921,-0.8695996586366169,-0.1405884772539139,-1.023514747619629,0.1271551102399826,-0.01717972755432129,0.02973711490631104,-0.1908888816833496,XArbitraryZVertical,0.514735024547176,0.5285163857982114,-0.06880226300333236,-0.6715537561255733,-0.6390244364738464,0.7640707492828369,0.08856343477964401,0,0,0,-1,-1,32017.52062666667,unknown,2,2025-04-22T13:03:32.007+03:00,2025-04-21T17:08:51.449+03:00,7397,0.9991471,0,0,6162.221,5,20,2025-04-22T12:58:04.401+03:00,767009012.1094084,0,-21.82,100.4637,1,0.75,2025-04-22T13:03:28.830+03:00,103,1.716666666666667,2025-04-22T09:54:17.825+03:00,0.02225348692287972,0
2025-04-22T13:03:32.938+03:00,1745316208.34092,40.95215778104961,29.14023037110555,75.7112,-1,-1,-1,-1,30,16.89288593580454,-9999,32018.44638875,-0.637298583984375,0.8387451171875,-0.06634521484375,32018.44388675,-0.7780498317660555,-1.720839934508646,-0.8709356691400133,-0.1422867774963379,-1.052836179733276,0.1801622658967972,-0.004834175109863281,0.05394607782363892,-0.1901240348815918,XArbitraryZVertical,0.5152394426329489,0.53166679389177,-0.07164778596409117,-0.6683751207368418,-0.6368741989135742,0.7649319171905518,0.09628252685070038,0,0,0,-1,-1,32017.52062666667,unknown,2,2025-04-22T13:03:32.007+03:00,2025-04-21T17:08:51.449+03:00,7397,0.9991471,0,0,6162.221,5,20,2025-04-22T12:58:04.401+03:00,767009012.1094084,0,-21.82,100.4637,1,0.75,2025-04-22T13:03:28.830+03:00,103,1.716666666666667,2025-04-22T09:54:17.825+03:00,0.02225348692287972,0
2025-04-22T13:03:32.948+03:00,1745316208.34092,40.95215778104961,29.14023037110555,75.7112,-1,-1,-1,-1,30,16.89288593580454,-9999,32018.45646475,-0.640838623046875,0.837158203125,-0.0219573974609375,32018.45396275,-0.7811614923615126,-1.73395628494498,-0.872485354767038,-0.1955534517765045,-1.075072765350342,0.1773438453674316,-0.003095746040344238,0.0737311840057373,-0.1660802513360977,XArbitraryZVertical,0.5159172486395814,0.5348334001717959,-0.07456656191683408,-0.6649979464687511,-0.634385883808136,0.7659292221069336,0.1044347435235977,0,0,0,-1,-1,32017.52062666667,unknown,2,2025-04-22T13:03:32.007+03:00,2025-04-21T17:08:51.449+03:00,7397,0.9991471,0,0,6162.221,5,20,2025-04-22T12:58:04.401+03:00,767009012.1094084,0,-21.82,100.4637,1,0.75,2025-04-22T13:03:28.830+03:00,103,1.716666666666667,2025-04-22T09:54:17.825+03:00,0.02225348692287972,0
2025-04-22T13:03:32.964+03:00,1745316208.34092,40.95215778104961,29.14023037110555,75.7112,-1,-1,-1,-1,30,16.89288593580454,-9999,32018.46654175,-0.64190673828125,0.807281494140625,0.0342559814453125,32018.46403875,-0.7845454518954581,-1.747448741164409,-0.8738190193554651,-0.1809940934181213,-1.089462161064148,0.1564280986785889,-0.009474813938140869,0.06783908605575562,-0.1269650459289551,XArbitraryZVertical,0.5165900356869281,0.5380865566476929,-0.07742348548091128,-0.6615157490949589,-0.6319130659103394,0.7667859792709351,0.1128048151731491,0,0,0,-1,-1,32017.52062666667,unknown,2,2025-04-22T13:03:32.007+03:00,2025-04-21T17:08:51.449+03:00,7397,0.9991471,0,0,6162.221,5,20,2025-04-22T12:58:04.401+03:00,767009012.1094084,0,-21.82,100.4637,1,0.75,2025-04-22T13:03:28.830+03:00,103,1.716666666666667,2025-04-22T09:54:17.825+03:00,0.02225348692287972,0
2025-04-22T13:03:32.968+03:00,1745316208.34092,40.95215778104961,29.14023037110555,75.7112,-1,-1,-1,-1,30,16.89288593580454,-9999,32018.47661775,-0.629364013671875,0.7875823974609375,0.061492919921875,32018.47411575,-0.7872033724622929,-1.760552583271691,-0.8749380498142553,-0.1032140776515007,-1.111582159996033,0.1194567680358887,-0.01143831014633179,0.03463536500930786,-0.08146953582763672,XArbitraryZVertical,0.5170201934554154,0.5414303731121426,-0.08035071929019363,-0.6580933971752333,-0.6295376420021057,0.7675037980079651,0.1209134608507156,0,0,0,-1,-1,32017.52062666667,unknown,2,2025-04-22T13:03:32.007+03:00,2025-04-21T17:08:51.449+03:00,7397,0.9991471,0,0,6162.221,5,20,2025-04-22T12:58:04.401+03:00,767009012.1094084,0,-21.82,100.4637,1,0.75,2025-04-22T13:03:28.830+03:00,103,1.716666666666667,2025-04-22T09:54:17.825+03:00,0.02225348692287972,0
2025-04-22T13:03:32.979+03:00,1745316208.34092,40.95215778104961,29.14023037110555,75.7112,-1,-1,-1,-1,30,16.89288593580454,-9999,32018.48669375,-0.6104583740234375,0.8140716552734375,0.0690155029296875,32018.48419175,-0.7884872940861306,-1.772997695201641,-0.8756300867246651,-0.04117613658308983,-1.165036559104919,0.04559087008237839,0.0008156895637512207,0.02039790153503418,-0.0657503753900528,XArbitraryZVertical,0.5169995736751394,0.5450021676191376,-0.08340585962510529,-0.6547727690284535,-0.6274635791778564,0.767947256565094,0.1286318451166153,0,0,0,-1,-1,32017.52062666667,unknown,2,2025-04-22T13:03:32.007+03:00,2025-04-21T17:08:51.449+03:00,7397,0.9991471,0,0,6162.221,5,20,2025-04-22T12:58:04.401+03:00,767009012.1094084,0,-21.82,100.4637,1,0.75,2025-04-22T13:03:28.830+03:00,103,1.716666666666667,2025-04-22T09:54:17.825+03:00,0.02225348692287972,0
2025-04-22T13:03:32.988+03:00,1745316208.34092,40.95215778104961,29.14023037110555,75.7112,-1,-1,-1,-1,30,16.89288593580454,-9999,32018.49677075,-0.596221923828125,0.8389129638671875,0.074859619140625,32018.49426875,-0.7888681368658357,-1.785305468736367,-0.8757804390175706,-0.01136497966945171,-1.217543721199036,-0.002795570995658636,0.01742851734161377,0.04988837242126465,-0.06759442389011383,XArbitraryZVertical,0.5166109536884571,0.5488835213280325,-0.08651841907701031,-0.6514248812795327,-0.6257200241088867,0.7680435180664062,0.1363199949264526,0,0,0,-1,-1,32017.52062666667,unknown,2,2025-04-22T13:03:32.007+03:00,2025-04-21T17:08:51.449+03:00,7397,0.9991471,0,0,6162.221,5,20,2025-04-22T12:58:04.401+03:00,767009012.1094084,0,-21.82,100.4637,1,0.75,2025-04-22T13:03:28.830+03:00,103,1.716666666666667,2025-04-22T09:54:17.825+03:00,0.02225348692287972,0
2025-04-22T13:03:32.998+03:00,1745316208.34092,40.95215778104961,29.14023037110555,75.7112,-1,-1,-1,-1,30,16.89288593580454,-9999,32018.50684675,-0.584075927734375,0.8188934326171875,0.0942535400390625,32018.50434475,-0.7894025461208575,-1.798172414441706,-0.8755134351207892,-0.07512538135051727,-1.257458329200745,-0.02903160266578197,0.02958589792251587,0.07090288400650024,-0.06756260991096497,XArbitraryZVertical,0.5161390029981893,0.5529949614760016,-0.08956619957012664,-0.6479002684411692,-0.6241139769554138,0.7678725123405457,0.144405797123909,0,0,0,-1,-1,32017.52062666667,unknown,2,2025-04-22T13:03:32.007+03:00,2025-04-21T17:08:51.449+03:00,7397,0.9991471,0,0,6162.221,5,20,2025-04-22T12:58:04.401+03:00,767009012.1094084,0,-21.82,100.4637,1,0.75,2025-04-22T13:03:28.830+03:00,103,1.716666666666667,2025-04-22T09:54:17.825+03:00,0.02225348692287972,0
2025-04-22T13:03:33.009+03:00,1745316208.34092,40.95215778104961,29.14023037110555,75.7112,-1,-1,-1,-1,30,16.89288593580454,-9999,32018.51692375,-0.58282470703125,0.7706756591796875,0.132568359375,32018.51442175,-0.7912066287575766,-1.812401404185317,-0.874891772459325,-0.1849418878555298,-1.293169498443604,-0.03621148690581322,0.03955864906311035,0.04572755098342896,-0.05563786625862122,XArbitraryZVertical,0.5158712138043738,0.5572877892833229,-0.09241924605522103,-0.6440230350173327,-0.6224594712257385,0.7674741148948669,0.1533855795860291,0,0,0,-1,-1,32017.52062666667,unknown,2,2025-04-22T13:03:32.007+03:00,2025-04-21T17:08:51.449+03:00,7397,0.9991471,0,0,6162.221,5,20,2025-04-22T12:58:04.401+03:00,767009012.1094084,0,-21.82,100.4637,1,0.75,2025-04-22T13:03:28.830+03:00,103,1.716666666666667,2025-04-22T09:54:17.825+03:00,0.02225348692287972,0
2025-04-22T13:03:33.019+03:00,1745316208.34092,40.95215778104961,29.14023037110555,75.7112,-1,-1,-1,-1,30,16.89288593580454,-9999,32018.52699975,-0.58282470703125,0.7439117431640625,0.168701171875,32018.52449775,-0.7948706324652514,-1.828392248373414,-0.8738958563931764,-0.3108559548854828,-1.320700287818909,-0.04346410185098648,0.03727710247039795,-0.001530826091766357,-0.02598655223846436,XArbitraryZVertical,0.5159559746368441,0.5617351632702881,-0.09498967601901245,-0.6397030289819409,-0.6206663846969604,0.7668352723121643,0.1635139286518097,0,0,0,-1,-1,32017.52062666667,unknown,2,2025-04-22T13:03:32.007+03:00,2025-04-21T17:08:51.449+03:00,7397,0.9991471,0,0,6162.221,5,20,2025-04-22T12:58:04.401+03:00,767009012.1094084,0,-21.82,100.4637,1,0.75,2025-04-22T13:03:28.830+03:00,103,1.716666666666667,2025-04-22T09:54:17.825+03:00,0.02225348692287972,0
2025-04-22T13:03:33.029+03:00,1745316208.34092,40.95215778104961,29.14023037110555,75.7112,-1,-1,-1,-1,30,16.89288593580454,-9999,32018.53707675,-0.578094482421875,0.741943359375,0.1977691650390625,32018.53457375,-0.8001064347210602,-1.845733191372426,-0.8723958635585136,-0.408379852771759,-1.319190502166748,-0.06919609755277634,0.03589743375778198,-0.02221930027008057,-0.00166650116443634,XArbitraryZVertical,0.5163169004521966,0.5663027426197833,-0.09722371233589144,-0.6350320392643564,-0.6188442707061768,0.7658716440200806,0.1745638698339462,0,0,0,-1,-1,32017.52062666667,unknown,2,2025-04-22T13:03:32.007+03:00,2025-04-21T17:08:51.449+03:00,7397,0.9991471,0,0,6162.221,5,20,2025-04-22T12:58:04.401+03:00,767009012.1094084,0,-21.82,100.4637,1,0.75,2025-04-22T13:03:28.830+03:00,103,1.716666666666667,2025-04-22T09:54:17.825+03:00,0.02225348692287972,0
2025-04-22T13:03:33.039+03:00,1745316208.34092,40.95215778104961,29.14023037110555,75.7112,-1,-1,-1,-1,30,16.89288593580454,-9999,32018.54715275,-0.5741119384765625,0.710784912109375,0.2228851318359375,32018.54465075,-0.8068034429220301,-1.864008283841158,-0.8702305926522816,-0.5400386452674866,-1.286058783531189,-0.1036649271845818,0.03949987888336182,-0.02401465177536011,0.01448340713977814,XArbitraryZVertical,0.5169255179106864,0.5709195402654507,-0.09899638794988234,-0.6301097951282968,-0.6171364784240723,0.7644776105880737,0.1863222271203995,0,0,0,-1,-1,32017.52062666667,unknown,2,2025-04-22T13:03:32.007+03:00,2025-04-21T17:08:51.449+03:00,7397,0.9991471,0,0,6162.221,5,20,2025-04-22T12:58:04.401+03:00,767009012.1094084,0,-21.82,100.4637,1,0.75,2025-04-22T13:03:28.830+03:00,103,1.716666666666667,2025-04-22T09:54:17.825+03:00,0.02225348692287972,0
2025-04-22T13:03:33.049+03:00,1745316208.34092,40.95215778104961,29.14023037110555,75.7112,-1,-1,-1,-1,30,16.89288593580454,-9999,32018.55722875,-0.564483642578125,0.6582489013671875,0.2678680419921875,32018.55472675,-0.8149563844718151,-1.882970293518667,-0.8674233759582215,-0.6141430139541626,-1.242194890975952,-0.1178124397993088,0.04132956266403198,-0.05773937702178955,0.02803590893745422,XArbitraryZVertical,0.51781216138163,0.5754953495286165,-0.1002625743393895,-0.6249984877132742,-0.6155331134796143,0.7626649141311646,0.1986486613750458,0,0,0,-1,-1,32017.52062666667,unknown,2,2025-04-22T13:03:32.007+03:00,2025-04-21T17:08:51.449+03:00,7397,0.9991471,0,0,6162.221,5,20,2025-04-22T12:58:04.401+03:00,767009012.1094084,0,-21.82,100.4637,1,0.75,2025-04-22T13:03:28.830+03:00,103,1.716666666666667,2025-04-22T09:54:17.825+03:00,0.02225348692287972,0
2025-04-22T13:03:33.059+03:00,1745316208.34092,40.95215778104961,29.14023037110555,75.7112,-1,-1,-1,-1,30,16.89288593580454,-9999,32018.56730575,-0.547882080078125,0.6005401611328125,0.335418701171875,32018.56480375,-0.8239368717848701,-1.902094110241835,-0.8640379883665721,-0.6982225179672241,-1.192609071731567,-0.1579818725585938,0.0516664981842041,-0.1086155772209167,0.06403172016143799,XArbitraryZVertical,0.5188490543224662,0.5800055275821482,-0.1011153359077036,-0.6198103276363298,-0.6140596270561218,0.7604709267616272,0.2112215012311935,0,0,0,-1,-1,32017.52062666667,unknown,2,2025-04-22T13:03:32.007+03:00,2025-04-21T17:08:51.449+03:00,7397,0.9991471,0,0,6162.221,5,20,2025-04-22T12:58:04.401+03:00,767009012.1094084,0,-21.82,100.4637,1,0.75,2025-04-22T13:03:28.830+03:00,103,1.716666666666667,2025-04-22T09:54:17.825+03:00,0.02225348692287972,0
2025-04-22T13:03:33.069+03:00,1745316208.34092,40.95215778104961,29.14023037110555,75.7112,-1,-1,-1,-1,30,16.89288593580454,-9999,32018.57738175,-0.5399017333984375,0.561737060546875,0.417755126953125,32018.57487975,-0.8337548102397111,-1.921343653452829,-0.8599147179351083,-0.7630912661552429,-1.148157477378845,-0.1816291362047195,0.0669521689414978,-0.1647847294807434,0.1208479404449463,XArbitraryZVertical,0.5200264451110107,0.5844749611054753,-0.1014845002537201,-0.6145424201564362,-0.6128200888633728,0.7577869296073914,0.224076971411705,0,0,0,-1,-1,32017.52062666667,unknown,2,2025-04-22T13:03:32.007+03:00,2025-04-21T17:08:51.449+03:00,7397,0.9991471,0,0,6162.221,5,20,2025-04-22T12:58:04.401+03:00,767009012.1094084,0,-21.82,100.4637,1,0.75,2025-04-22T13:03:28.830+03:00,103,1.716666666666667,2025-04-22T09:54:17.825+03:00,0.02225348692287972,0
2025-04-22T13:03:33.079+03:00,1745316208.34092,40.95215778104961,29.14023037110555,75.7112,-1,-1,-1,-1,30,16.89288593580454,-9999,32018.58745875,-0.5382537841796875,0.5677947998046875,0.4923095703125,32018.58495575,-0.8440713840467612,-1.940354162763908,-0.8554218769048041,-0.7999724745750427,-1.069095373153687,-0.1815225630998611,0.07304394245147705,-0.1939043402671814,0.1912179738283157,XArbitraryZVertical,0.5213386880242313,0.5887805089854998,-0.1015265199570499,-0.6092910758520401,-0.6116180419921875,0.7548477053642273,0.2369130253791809,0,0,0,-1,-1,32017.52062666667,unknown,2,2025-04-22T13:03:32.007+03:00,2025-04-21T17:08:51.449+03:00,7397,0.9991471,0,0,6162.221,5,20,2025-04-22T12:58:04.401+03:00,767009012.1094084,0,-21.82,100.4637,1,0.75,2025-04-22T13:03:28.830+03:00,103,1.716666666666667,2025-04-22T09:54:17.825+03:00,0.02225348692287972,0
2025-04-22T13:03:33.089+03:00,1745316208.34092,40.95215778104961,29.14023037110555,75.7112,-1,-1,-1,-1,30,16.89288593580454,-9999,32018.59753475,-0.54730224609375,0.57666015625,0.5540771484375,32018.59503275,-0.8542812204312719,-1.958214129661256,-0.8507539057322329,-0.7822174429893494,-0.947361171245575,-0.1887330859899521,0.07180356979370117,-0.1819078922271729,0.251559853553772,XArbitraryZVertical,0.5226911257198326,0.5927540618354014,-0.1012647884928225,-0.6043029010641027,-0.6105455756187439,0.7517777681350708,0.2491267770528793,0,0,0,-1,-1,32017.52062666667,unknown,2,2025-04-22T13:03:32.007+03:00,2025-04-21T17:08:51.449+03:00,7397,0.9991471,0,0,6162.221,5,20,2025-04-22T12:58:04.401+03:00,767009012.1094084,0,-21.82,100.4637,1,0.75,2025-04-22T13:03:28.830+03:00,103,1.716666666666667,2025-04-22T09:54:17.825+03:00,0.02225348692287972,0
2025-04-22T13:03:33.099+03:00,1745316208.34092,40.95215778104961,29.14023037110555,75.7112,-1,-1,-1,-1,30,16.89288593580454,-9999,32018.60761075,-0.5550994873046875,0.561737060546875,0.5941619873046875,32018.60510875,-0.8639287011995569,-1.974200383834357,-0.8460349921955513,-0.7400229573249817,-0.790220320224762,-0.1838817745447159,0.0604248046875,-0.1728826761245728,0.3007142543792725,XArbitraryZVertical,0.5240044633366806,0.5962731070178763,-0.1006926185526142,-0.5997821689287171,-0.6097412109375,0.7486576437950134,0.2602445781230927,0,0,0,-1,-1,32017.52062666667,unknown,2,2025-04-22T13:03:32.007+03:00,2025-04-21T17:08:51.449+03:00,7397,0.9991471,0,0,6162.221,5,20,2025-04-22T12:58:04.401+03:00,767009012.1094084,0,-21.82,100.4637,1,0.75,2025-04-22T13:03:28.830+03:00,103,1.716666666666667,2025-04-22T09:54:17.825+03:00,0.02225348692287972,0
2025-04-22T13:03:33.109+03:00,1745316208.34092,40.95215778104961,29.14023037110555,75.7112,-1,-1,-1,-1,30,16.89288593580454,-9999,32018.61768775,-0.5515594482421875,0.55145263671875,0.6120452880859375,32018.61518575,-0.8729249034708725,-1.987977098304917,-0.8415772191266242,-0.7046540379524231,-0.6060680747032166,-0.1482641249895096,0.05328077077865601,-0.1857128143310547,0.327824205160141,XArbitraryZVertical,0.5253121955150037,0.5991926085176817,-0.09986429773022398,-0.5958542707655348,-0.609143078327179,0.7456949353218079,0.2699693739414215,0,0,0,-1,-1,32017.52062666667,unknown,2,2025-04-22T13:03:32.007+03:00,2025-04-21T17:08:51.449+03:00,7397,0.9991471,0,0,6162.221,5,20,2025-04-22T12:58:04.401+03:00,767009012.1094084,0,-21.82,100.4637,1,0.75,2025-04-22T13:03:28.830+03:00,103,1.716666666666667,2025-04-22T09:54:17.825+03:00,0.02225348692287972,0
2025-04-22T13:03:33.119+03:00,1745316208.34092,40.95215778104961,29.14023037110555,75.7112,-1,-1,-1,-1,30,16.89288593580454,-9999,32018.62776375,-0.5482940673828125,0.5577239990234375,0.6146240234375,32018.62526175,-0.8813287715653663,-1.999391267720043,-0.8376327108815146,-0.6364789009094238,-0.4163494408130646,-0.1116326749324799,0.05742311477661133,-0.1919441819190979,0.3340578973293304,XArbitraryZVertical,0.5266690140462386,0.6014001293076896,-0.09881465042745662,-0.5925986280897541,-0.6086925268173218,0.7430609464645386,0.2781247198581696,0,0,0,-1,-1,32017.52062666667,unknown,2,2025-04-22T13:03:32.007+03:00,2025-04-21T17:08:51.449+03:00,7397,0.9991471,0,0,6162.221,5,20,2025-04-22T12:58:04.401+03:00,767009012.1094084,0,-21.82,100.4637,1,0.75,2025-04-22T13:03:28.830+03:00,103,1.716666666666667,2025-04-22T09:54:17.825+03:00,0.02225348692287972,0
2025-04-22T13:03:33.129+03:00,1745316208.34092,40.95215778104961,29.14023037110555,75.7112,-1,-1,-1,-1,30,16.89288593580454,-9999,32018.63784075,-0.54144287109375,0.5687408447265625,0.614166259765625,32018.63533875,-0.8888188977901298,-2.008088838692886,-0.8341097048244945,-0.5628624558448792,-0.203850731253624,-0.1051665171980858,0.06096541881561279,-0.1808232665061951,0.3297424614429474,XArbitraryZVertical,0.5279714184432572,0.6029128032534985,-0.09750249429103762,-0.5901149623698398,-0.6086186766624451,0.7406986951828003,0.2845153212547302,0,0,0,-1,-1,32017.52062666667,unknown,2,2025-04-22T13:03:32.007+03:00,2025-04-21T17:08:51.449+03:00,7397,0.9991471,0,0,6162.221,5,20,2025-04-22T12:58:04.401+03:00,767009012.1094084,0,-21.82,100.4637,1,0.75,2025-04-22T13:03:28.830+03:00,103,1.716666666666667,2025-04-22T09:54:17.825+03:00,0.02225348692287972,0
2025-04-22T13:03:33.140+03:00,1745316208.34092,40.95215778104961,29.14023037110555,75.7112,-1,-1,-1,-1,30,16.89288593580454,-9999,32018.64791675,-0.5368804931640625,0.5572967529296875,0.6218719482421875,32018.64541475,-0.8951698839135654,-2.013763965952836,-0.8309730441488326,-0.4659872055053711,0.003785079345107079,-0.1005060896277428,0.06769293546676636,-0.1703505516052246,0.3250546455383301,XArbitraryZVertical,0.5291506500040746,0.6037210254903195,-0.09589177848804509,-0.5884939760341349,-0.6090899705886841,0.7385876774787903,0.2889589667320251,0,0,0,-1,-1,32017.52062666667,unknown,2,2025-04-22T13:03:32.007+03:00,2025-04-21T17:08:51.449+03:00,7397,0.9991471,0,0,6162.221,5,20,2025-04-22T12:58:04.401+03:00,767009012.1094084,0,-21.82,100.4637,1,0.75,2025-04-22T13:03:28.830+03:00,103,1.716666666666667,2025-04-22T09:54:17.825+03:00,0.02225348692287972,0
2025-04-22T13:03:33.150+03:00,1745316208.34092,40.95215778104961,29.14023037110555,75.7112,-1,-1,-1,-1,30,16.89288593580454,-9999,32018.65799375,-0.531036376953125,0.5319671630859375,0.6403045654296875,32018.65549075,-0.9003761436054077,-2.016549332501634,-0.8281844314175677,-0.4060916602611542,0.202593520283699,-0.09888661652803421,0.07344138622283936,-0.1819565296173096,0.3325890004634857,XArbitraryZVertical,0.5301825808853066,0.6038849500579655,-0.09399628865063181,-0.5877022432002067,-0.6101387143135071,0.7367048859596252,0.2915412187576294,0,0,0,-1,-1,32017.52062666667,unknown,2,2025-04-22T13:03:32.007+03:00,2025-04-21T17:08:51.449+03:00,7397,0.9991471,0,0,6162.221,5,20,2025-04-22T12:58:04.401+03:00,767009012.1094084,0,-21.82,100.4637,1,0.75,2025-04-22T13:03:28.830+03:00,103,1.716666666666667,2025-04-22T09:54:17.825+03:00,0.02225348692287972,0
2025-04-22T13:03:33.160+03:00,1745316208.34092,40.95215778104961,29.14023037110555,75.7112,-1,-1,-1,-1,30,16.89288593580454,-9999,32018.66806975,-0.5318603515625,0.523651123046875,0.66607666015625,32018.66556775,-0.90477422807902,-2.016840035935853,-0.8256103358928704,-0.3431299328804016,0.3763091862201691,-0.1109533607959747,0.08130639791488647,-0.2047953009605408,0.3505306243896484,XArbitraryZVertical,0.5311217735241189,0.6034712471412526,-0.09176358692352243,-0.5876321134903113,-0.6117628812789917,0.7349618077278137,0.2925357818603516,0,0,0,-1,-1,32017.52062666667,unknown,2,2025-04-22T13:03:32.007+03:00,2025-04-21T17:08:51.449+03:00,7397,0.9991471,0,0,6162.221,5,20,2025-04-22T12:58:04.401+03:00,767009012.1094084,0,-21.82,100.4637,1,0.75,2025-04-22T13:03:28.830+03:00,103,1.716666666666667,2025-04-22T09:54:17.825+03:00,0.02225348692287972,0
2025-04-22T13:03:33.170+03:00,1745316208.34092,40.95215778104961,29.14023037110555,75.7112,-1,-1,-1,-1,30,16.89288593580454,-9999,32018.67814575,-0.533355712890625,0.538726806640625,0.681884765625,32018.67564375,-0.9083039495574367,-2.014873391864581,-0.8230698463829096,-0.3009116351604462,0.5298270583152771,-0.13620226085186,0.0817183256149292,-0.2083954811096191,0.3771018087863922,XArbitraryZVertical,0.5319051370128228,0.6026139806063568,-0.08919950093458116,-0.5881978941431625,-0.6140211820602417,0.7332366704940796,0.2921333611011505,0,0,0,-1,-1,32017.52062666667,unknown,2,2025-04-22T13:03:32.007+03:00,2025-04-21T17:08:51.449+03:00,7397,0.9991471,0,0,6162.221,5,20,2025-04-22T12:58:04.401+03:00,767009012.1094084,0,-21.82,100.4637,1,0.75,2025-04-22T13:03:28.830+03:00,103,1.716666666666667,2025-04-22T09:54:17.825+03:00,0.02225348692287972,0
2025-04-22T13:03:33.180+03:00,1745316208.34092,40.95215778104961,29.14023037110555,75.7112,-1,-1,-1,-1,30,16.89288593580454,-9999,32018.68822275,-0.5321502685546875,0.5534820556640625,0.69366455078125,32018.68572075,-0.9110299910935142,-2.010691125455779,-0.8205463442629967,-0.2469333559274673,0.6927262544631958,-0.1576030254364014,0.0839201807975769,-0.1906403303146362,0.3920384347438812,XArbitraryZVertical,0.5325403609089207,0.6013115989250332,-0.08628766216232804,-0.5893890398789315,-0.6169096231460571,0.7315184473991394,0.2903497517108917,0,0,0,-1,-1,32017.52062666667,unknown,2,2025-04-22T13:03:32.007+03:00,2025-04-21T17:08:51.449+03:00,7397,0.9991471,0,0,6162.221,5,20,2025-04-22T12:58:04.401+03:00,767009012.1094084,0,-21.82,100.4637,1,0.75,2025-04-22T13:03:28.830+03:00,103,1.716666666666667,2025-04-22T09:54:17.825+03:00,0.02225348692287972,0
2025-04-22T13:03:33.190+03:00,1745316208.34092,40.95215778104961,29.14023037110555,75.7112,-1,-1,-1,-1,30,16.89288593580454,-9999,32018.69829875,-0.5268402099609375,0.550018310546875,0.7014312744140625,32018.69579675,-0.9129179141804616,-2.004304243363975,-0.8181215900211132,-0.180015042424202,0.8499041795730591,-0.1644036769866943,0.08852946758270264,-0.1759234070777893,0.4077524840831757,XArbitraryZVertical,0.5330206374581116,0.5995522961818777,-0.0830726710406488,-0.591206215881092,-0.6203591823577881,0.7298630475997925,0.2871479094028473,0,0,0,-1,-1,32017.52062666667,unknown,2,2025-04-22T13:03:32.007+03:00,2025-04-21T17:08:51.449+03:00,7397,0.9991471,0,0,6162.221,5,20,2025-04-22T12:58:04.401+03:00,767009012.1094084,0,-21.82,100.4637,1,0.75,2025-04-22T13:03:28.830+03:00,103,1.716666666666667,2025-04-22T09:54:17.825+03:00,0.02225348692287972,0
2025-04-22T13:03:33.200+03:00,1745316208.34092,40.95215778104961,29.14023037110555,75.7112,-1,-1,-1,-1,30,16.89288593580454,-9999,32018.70837575,-0.5184783935546875,0.54949951171875,0.68896484375,32018.70587275,-0.9136654035673174,-1.995415204959575,-0.816087464849786,-0.08537009358406067,1.022106289863586,-0.1582542061805725,0.09886336326599121,-0.1793989539146423,0.4198845326900482,XArbitraryZVertical,0.5333032090210824,0.5972472974806876,-0.07968041928270797,-0.593745907633164,-0.6242386102676392,0.728471040725708,0.2822332978248596,0,0,0,-1,-1,32017.52062666667,unknown,2,2025-04-22T13:03:32.007+03:00,2025-04-21T17:08:51.449+03:00,7397,0.9991471,0,0,6162.221,5,20,2025-04-22T12:58:04.401+03:00,767009012.1094084,0,-21.82,100.4637,1,0.75,2025-04-22T13:03:28.830+03:00,103,1.716666666666667,2025-04-22T09:54:17.825+03:00,0.02225348692287972,0
2025-04-22T13:03:33.210+03:00,1745316208.34092,40.95215778104961,29.14023037110555,75.7112,-1,-1,-1,-1,30,16.89288593580454,-9999,32018.71845175,-0.5189361572265625,0.5561065673828125,0.650360107421875,32018.71594975,-0.9134691354868498,-1.984120398045592,-0.8143906569152509,-0.03169595077633858,1.19426691532135,-0.1525004357099533,0.110008716583252,-0.177396297454834,0.4090772271156311,XArbitraryZVertical,0.533428233778189,0.5943775976084816,-0.0760596629680144,-0.5969792884323402,-0.6285175085067749,0.7273075580596924,0.2756608128547668,0,0,0,-1,-1,32017.52062666667,unknown,2,2025-04-22T13:03:32.007+03:00,2025-04-21T17:08:51.449+03:00,7397,0.9991471,0,0,6162.221,5,20,2025-04-22T12:58:04.401+03:00,767009012.1094084,0,-21.82,100.4637,1,0.75,2025-04-22T13:03:28.830+03:00,103,1.716666666666667,2025-04-22T09:54:17.825+03:00,0.02225348692287972,0
2025-04-22T13:03:33.220+03:00,1745316208.34092,40.95215778104961,29.14023037110555,75.7112,-1,-1,-1,-1,30,16.89288593580454,-9999,32018.72852875,-0.5253143310546875,0.5357513427734375,0.6417388916015625,32018.72602575,-0.9130665804301071,-1.970877382686813,-0.8129757704346244,-0.03640215471386909,1.379931688308716,-0.1264695674180984,0.1136358380317688,-0.1705344915390015,0.3784192800521851,XArbitraryZVertical,0.5335819639754132,0.5908868895713286,-0.07209256426564319,-0.6007874091558384,-0.6330602169036865,0.7263357639312744,0.2677140533924103,0,0,0,-1,-1,32017.52062666667,unknown,2,2025-04-22T13:03:32.007+03:00,2025-04-21T17:08:51.449+03:00,7397,0.9991471,0,0,6162.221,5,20,2025-04-22T12:58:04.401+03:00,767009012.1094084,0,-21.82,100.4637,1,0.75,2025-04-22T13:03:28.830+03:00,103,1.716666666666667,2025-04-22T09:54:17.825+03:00,0.02225348692287972,0
2025-04-22T13:03:33.230+03:00,1745316208.34092,40.95215778104961,29.14023037110555,75.7112,-1,-1,-1,-1,30,16.89288593580454,-9999,32018.73860475,-0.52789306640625,0.4926605224609375,0.6920928955078125,32018.73610275,-0.9132730829030403,-1.956146201923874,-0.8117976087401767,-0.08012939989566803,1.574198365211487,-0.07871723175048828,0.1113147139549255,-0.1946113705635071,0.3859111964702606,XArbitraryZVertical,0.533972847995493,0.5866971354049805,-0.06763785753335454,-0.6050490954631206,-0.6377275586128235,0.725525438785553,0.258681058883667,0,0,0,-1,-1,32017.52062666667,unknown,2,2025-04-22T13:03:32.007+03:00,2025-04-21T17:08:51.449+03:00,7397,0.9991471,0,0,6162.221,5,20,2025-04-22T12:58:04.401+03:00,767009012.1094084,0,-21.82,100.4637,1,0.75,2025-04-22T13:03:28.830+03:00,103,1.716666666666667,2025-04-22T09:54:17.825+03:00,0.02225348692287972,0
2025-04-22T13:03:33.240+03:00,1745316208.34092,40.95215778104961,29.14023037110555,75.7112,-1,-1,-1,-1,30,16.89288593580454,-9999,32018.74868075,-0.5326385498046875,0.4604949951171875,0.7350006103515625,32018.74617875,-0.9143182188226994,-1.940012399117042,-0.8110003490580865,-0.105987086892128,1.781413316726685,-0.01193780358880758,0.1143572926521301,-0.2374890446662903,0.4505595564842224,XArbitraryZVertical,0.5346765585789108,0.5817256440693082,-0.06269921068614658,-0.6097415933677403,-0.6423570513725281,0.7249765396118164,0.2485674917697906,0,0,0,-1,-1,32017.52062666667,unknown,2,2025-04-22T13:03:32.007+03:00,2025-04-21T17:08:51.449+03:00,7397,0.9991471,0,0,6162.221,5,20,2025-04-22T12:58:04.401+03:00,767009012.1094084,0,-21.82,100.4637,1,0.75,2025-04-22T13:03:28.830+03:00,103,1.716666666666667,2025-04-22T09:54:17.825+03:00,0.02225348692287972,0
2025-04-22T13:03:33.251+03:00,1745316208.34092,40.95215778104961,29.14023037110555,75.7112,-1,-1,-1,-1,30,16.89288593580454,-9999,32018.75875775,-0.5332489013671875,0.450347900390625,0.77252197265625,32018.75625575,-0.9157823539298985,-1.922036088021895,-0.8110463594760123,-0.08215153217315674,1.997729063034058,0.09019362926483154,0.1138838529586792,-0.2673820853233337,0.5021053552627563,XArbitraryZVertical,0.5356477472770694,0.5758178116495851,-0.05745859862760789,-0.6149907987691672,-0.6466901898384094,0.7250082492828369,0.2369693219661713,0,0,0,-1,-1,32017.52062666667,unknown,2,2025-04-22T13:03:32.007+03:00,2025-04-21T17:08:51.449+03:00,7397,0.9991471,0,0,6162.221,5,20,2025-04-22T12:58:04.401+03:00,767009012.1094084,0,-21.82,100.4637,1,0.75,2025-04-22T13:03:28.830+03:00,103,1.716666666666667,2025-04-22T09:54:17.825+03:00,0.02225348692287972,0
2025-04-22T13:03:33.261+03:00,1745316208.34092,40.95215778104961,29.14023037110555,75.7112,-1,-1,-1,-1,30,16.89288593580454,-9999,32018.76883375,-0.5427093505859375,0.4739227294921875,0.7997894287109375,32018.76633175,-0.9170575277077383,-1.901615498484051,-0.8121765704512176,0.005715203937143087,2.240444421768188,0.1792191118001938,0.1164390444755554,-0.2739889025688171,0.5542306900024414,XArbitraryZVertical,0.5367596403234138,0.5688703296525809,-0.05202703540164093,-0.6209417361368901,-0.6506186127662659,0.7257862091064453,0.2234487235546112,0,0,0,-1,-1,32017.52062666667,unknown,2,2025-04-22T13:03:32.007+03:00,2025-04-21T17:08:51.449+03:00,7397,0.9991471,0,0,6162.221,5,20,2025-04-22T12:58:04.401+03:00,767009012.1094084,0,-21.82,100.4637,1,0.75,2025-04-22T13:03:28.830+03:00,103,1.716666666666667,2025-04-22T09:54:17.825+03:00,0.02225348692287972,0
2025-04-22T13:03:33.271+03:00,1745316208.34092,40.95215778104961,29.14023037110555,75.7112,-1,-1,-1,-1,30,16.89288593580454,-9999,32018.77891075,-0.540069580078125,0.4790496826171875,0.811004638671875,32018.77640775,-0.9174499591787161,-1.878230539529652,-0.8144088360684741,0.06613141298294067,2.451646566390991,0.2575072348117828,0.1098238229751587,-0.2497504949569702,0.5936163663864136,XArbitraryZVertical,0.5378263875423195,0.5608784156416674,-0.04648156480246539,-0.6276923312053714,-0.654120147228241,0.7273200154304504,0.2076836377382278,0,0,0,-1,-1,32017.52062666667,unknown,2,2025-04-22T13:03:32.007+03:00,2025-04-21T17:08:51.449+03:00,7397,0.9991471,0,0,6162.221,5,20,2025-04-22T12:58:04.401+03:00,767009012.1094084,0,-21.82,100.4637,1,0.75,2025-04-22T13:03:28.830+03:00,103,1.716666666666667,2025-04-22T09:54:17.825+03:00,0.02225348692287972,0
2025-04-22T13:03:33.281+03:00,1745316208.34092,40.95215778104961,29.14023037110555,75.7112,-1,-1,-1,-1,30,16.89288593580454,-9999,32018.78898675,-0.50927734375,0.417083740234375,0.864349365234375,32018.78648475,-0.9177068652789874,-1.85273804617254,-0.8174512799107931,0.08038138598203659,2.646857261657715,0.3404975831508636,0.1198261976242065,-0.254230797290802,0.6232417821884155,XArbitraryZVertical,0.5389845356110681,0.5519590681584103,-0.04070259731552125,-0.6349647210326782,-0.657072901725769,0.7294046878814697,0.1903262883424759,0,0,0,-1,-1,32017.52062666667,unknown,2,2025-04-22T13:03:32.007+03:00,2025-04-21T17:08:51.449+03:00,7397,0.9991471,0,0,6162.221,5,20,2025-04-22T12:58:04.401+03:00,767009012.1094084,0,-21.82,100.4637,1,0.75,2025-04-22T13:03:28.830+03:00,103,1.716666666666667,2025-04-22T09:54:17.825+03:00,0.02225348692287972,0
2025-04-22T13:03:33.291+03:00,1745316208.34092,40.95215778104961,29.14023037110555,75.7112,-1,-1,-1,-1,30,16.89288593580454,-9999,32018.79906275,-0.4835662841796875,0.3284759521484375,0.9319915771484375,32018.79656075,-0.917871252691268,-1.825021230163696,-0.8218030979068585,0.1234995573759079,2.882902145385742,0.5034923553466797,0.1529587507247925,-0.3262469172477722,0.7043972015380859,XArbitraryZVertical,0.5403322577897317,0.5419066731549127,-0.03482697915882857,-0.6427793244958107,-0.6590165495872498,0.7323747277259827,0.1712435781955719,0,0,0,-1,-1,32017.52062666667,unknown,2,2025-04-22T13:03:32.007+03:00,2025-04-21T17:08:51.449+03:00,7397,0.9991471,0,0,6162.221,5,20,2025-04-22T12:58:04.401+03:00,767009012.1094084,0,-21.82,100.4637,1,0.75,2025-04-22T13:03:28.830+03:00,103,1.716666666666667,2025-04-22T09:54:17.825+03:00,0.02225348692287972,0
2025-04-22T13:03:33.301+03:00,1745316208.34092,40.95215778104961,29.14023037110555,75.7112,-1,-1,-1,-1,30,16.89288593580454,-9999,32018.80913975,-0.449432373046875,0.298431396484375,0.879974365234375,32018.80663775,-0.918408500892905,-1.795019341784454,-0.8278710483104292,0.07700955867767334,3.158171892166138,0.690043568611145,0.1795771718025208,-0.4168366193771362,0.7826375961303711,XArbitraryZVertical,0.5420691122296956,0.5304380292606683,-0.02882704260409143,-0.6511263847453986,-0.6595118641853333,0.736492931842804,0.1504068523645401,0,0,0,-1,-1,32017.52062666667,unknown,2,2025-04-22T13:03:32.007+03:00,2025-04-21T17:08:51.449+03:00,7397,0.9991471,0,0,6162.221,5,20,2025-04-22T12:58:04.401+03:00,767009012.1094084,0,-21.82,100.4637,1,0.75,2025-04-22T13:03:28.830+03:00,103,1.716666666666667,2025-04-22T09:54:17.825+03:00,0.02225348692287972,0
2025-04-22T13:03:33.311+03:00,1745316208.34092,40.95215778104961,29.14023037110555,75.7112,-1,-1,-1,-1,30,16.89288593580454,-9999,32018.81921575,-0.3960418701171875,0.3158416748046875,0.750030517578125,32018.81671375,-0.920685526622009,-1.76344409460821,-0.8357555799897598,-0.07079029083251953,3.425738096237183,0.8993651270866394,0.214089035987854,-0.4414648413658142,0.7370831966400146,XArbitraryZVertical,0.5445565142839017,0.5173546531461718,-0.02245861752053635,-0.659771088123249,-0.6582112908363342,0.7418034076690674,0.1283952742815018,0,0,0,-1,-1,32017.52062666667,unknown,2,2025-04-22T13:03:32.007+03:00,2025-04-21T17:08:51.449+03:00,7397,0.9991471,0,0,6162.221,5,20,2025-04-22T12:58:04.401+03:00,767009012.1094084,0,-21.82,100.4637,1,0.75,2025-04-22T13:03:28.830+03:00,103,1.716666666666667,2025-04-22T09:54:17.825+03:00,0.02225348692287972,0
2025-04-22T13:03:33.321+03:00,1745316208.34092,40.95215778104961,29.14023037110555,75.7112,-1,-1,-1,-1,30,16.89288593580454,-9999,32018.82929275,-0.3247222900390625,0.281982421875,0.6473541259765625,32018.82679075,-0.926525295564496,-1.732241936046713,-0.8449706351605508,-0.36206915974617,3.633176803588867,1.038105368614197,0.2680823802947998,-0.4327052235603333,0.6270084381103516,XArbitraryZVertical,0.5481166716781087,0.5029072073187494,-0.01542183138495263,-0.6681425315347949,-0.6551214456558228,0.7479516267776489,0.1066950932145119,0,0,0,-1,-1,32017.52062666667,unknown,2,2025-04-22T13:03:32.007+03:00,2025-04-21T17:08:51.449+03:00,7397,0.9991471,0,0,6162.221,5,20,2025-04-22T12:58:04.401+03:00,767009012.1094084,0,-21.82,100.4637,1,0.75,2025-04-22T13:03:28.830+03:00,103,1.716666666666667,2025-04-22T09:54:17.825+03:00,0.02225348692287972,0
2025-04-22T13:03:33.331+03:00,1745316208.34092,40.95215778104961,29.14023037110555,75.7112,-1,-1,-1,-1,30,16.89288593580454,-9999,32018.83936875,-0.2959136962890625,0.2014312744140625,0.6512908935546875,32018.83686675,-0.9352289594225364,-1.701086044886378,-0.855871885609796,-0.4160008132457733,3.856533288955688,1.282443165779114,0.3326058387756348,-0.4819343090057373,0.5577577352523804,XArbitraryZVertical,0.5525897686575623,0.4870628324434295,-0.007940198558472665,-0.6762774737457492,-0.6500039100646973,0.7551427483558655,0.08517131209373474,0,0,0,-1,-1,32017.52062666667,unknown,2,2025-04-22T13:03:32.007+03:00,2025-04-21T17:08:51.449+03:00,7397,0.9991471,0,0,6162.221,5,20,2025-04-22T12:58:04.401+03:00,767009012.1094084,0,-21.82,100.4637,1,0.75,2025-04-22T13:03:28.830+03:00,103,1.716666666666667,2025-04-22T09:54:17.825+03:00,0.02225348692287972,0
2025-04-22T13:03:33.341+03:00,1745316208.34092,40.95215778104961,29.14023037110555,75.7112,-1,-1,-1,-1,30,16.89288593580454,-9999,32018.84944575,-0.3410491943359375,0.1734619140625,0.6139068603515625,32018.84694275,-0.9417499564830165,-1.665966020464211,-0.8701337508613638,-0.01403885986655951,4.113375186920166,1.632010459899902,0.3439550995826721,-0.5712084174156189,0.5913374423980713,XArbitraryZVertical,0.5570719174415695,0.4693652011660688,-0.001184799126323365,-0.68510271783198,-0.6418067216873169,0.7644152045249939,0.06126562505960464,0,0,0,-1,-1,32017.52062666667,unknown,2,2025-04-22T13:03:32.007+03:00,2025-04-21T17:08:51.449+03:00,7397,0.9991471,0,0,6162.221,5,20,2025-04-22T12:58:04.401+03:00,767009012.1094084,0,-21.82,100.4637,1,0.75,2025-04-22T13:03:28.830+03:00,103,1.716666666666667,2025-04-22T09:54:17.825+03:00,0.02225348692287972,0
2025-04-22T13:03:33.351+03:00,1745316208.34092,40.95215778104961,29.14023037110555,75.7112,-1,-1,-1,-1,30,16.89288593580454,-9999,32018.85952175,-0.4199371337890625,0.2501678466796875,0.4632415771484375,32018.85701975,-0.9345474560334606,-1.617465594500914,-0.8892688955785807,1.374406576156616,4.403069972991943,2.150973558425903,0.2796541452407837,-0.5994415879249573,0.5720961093902588,XArbitraryZVertical,0.5593118151366234,0.4492942370139687,0.00295769167469595,-0.6966320937032455,-0.6292940974235535,0.7766113877296448,0.02939003519713879,0,0,0,-1,-1,32017.52062666667,unknown,2,2025-04-22T13:03:32.007+03:00,2025-04-21T17:08:51.449+03:00,7397,0.9991471,0,0,6162.221,5,20,2025-04-22T12:58:04.401+03:00,767009012.1094084,0,-21.82,100.4637,1,0.75,2025-04-22T13:03:28.830+03:00,103,1.716666666666667,2025-04-22T09:54:17.825+03:00,0.02225348692287972,0
2025-04-22T13:03:33.361+03:00,1745316208.34092,40.95215778104961,29.14023037110555,75.7112,-1,-1,-1,-1,30,16.89288593580454,-9999,32018.86959775,-0.5084686279296875,0.40325927734375,0.0082244873046875,32018.86709575,-0.88706201517313,-1.533537351478581,-0.9142758339337199,4.960989475250244,4.83110237121582,2.798860311508179,0.1805888414382935,-0.5276861190795898,0.4544073939323425,XArbitraryZVertical,0.5542727481129939,0.4259267281959717,0.0007040742542318156,-0.7150997051907817,-0.6099406480789185,0.7921208143234253,-0.02273628674447536,0,0,0,-1,-1,32017.52062666667,unknown,2,2025-04-22T13:03:32.007+03:00,2025-04-21T17:08:51.449+03:00,7397,0.9991471,0,0,6162.221,5,20,2025-04-22T12:58:04.401+03:00,767009012.1094084,0,-21.82,100.4637,1,0.75,2025-04-22T13:03:28.830+03:00,103,1.716666666666667,2025-04-22T09:54:17.825+03:00,0.02225348692287972,0
2025-04-22T13:03:33.371+03:00,1745316208.34092,40.95215778104961,29.14023037110555,75.7112,-1,-1,-1,-1,30,16.89288593580454,-9999,32018.87967475,-0.7250823974609375,0.8463592529296875,-1.405242919921875,32018.87717275,-0.7201184294748697,-1.348713355847325,-0.9377718008213102,10.77364349365234,5.107202053070068,4.24186897277832,0.05096441507339478,-0.371610701084137,0.03591299057006836,XArbitraryZVertical,0.5265925799499908,0.3969235872233284,-0.0185610876873371,-0.7515366667806059,-0.5770570039749146,0.8062419295310974,-0.1303038448095322,0,0,0,-1,-1,32017.52062666667,unknown,2,2025-04-22T13:03:32.007+03:00,2025-04-21T17:08:51.449+03:00,7397,0.9991471,0,0,6162.221,5,20,2025-04-22T12:58:04.401+03:00,767009012.1094084,0,-21.82,100.4637,1,0.75,2025-04-22T13:03:28.830+03:00,103,1.716666666666667,2025-04-22T09:54:17.825+03:00,0.02225348692287972,0
2025-04-22T13:03:33.382+03:00,1745316208.34092,40.95215778104961,29.14023037110555,75.7112,-1,-1,-1,-1,30,16.89288593580454,-9999,32018.88975075,-0.53936767578125,2.340835571289062,-3.705047607421875,32018.88724875,-0.5277699207019131,-1.15227572464046,-0.9412303095363989,10.53397083282471,2.403703212738037,3.009926557540894,-0.2128939032554626,0.1466575860977173,-1.476498603820801,XArbitraryZVertical,0.4937270695923316,0.3695780456509907,-0.04352576268457448,-0.7859714668803981,-0.5379759073257446,0.8082830905914307,-0.2392912954092026,0,0,0,-1,-1,32017.52062666667,unknown,2,2025-04-22T13:03:32.007+03:00,2025-04-21T17:08:51.449+03:00,7397,0.9991471,0,0,6162.221,5,20,2025-04-22T12:58:04.401+03:00,767009012.1094084,0,-21.82,100.4637,1,0.75,2025-04-22T13:03:28.830+03:00,103,1.716666666666667,2025-04-22T09:54:17.825+03:00,0.02225348692287972,0
2025-04-22T13:03:33.392+03:00,1745316208.34092,40.95215778104961,29.14023037110555,75.7112,-1,-1,-1,-1,30,16.89288593580454,-9999,32018.89982775,0.455535888671875,4.100784301757812,-3.367431640625,32018.89732475,-0.3606137434659893,-1.018964897446832,-0.8931411388760501,11.20791721343994,-1.508053302764893,-1.776632070541382,0.1003870368003845,1.829322934150696,-3.486254930496216,XArbitraryZVertical,0.4498006813477337,0.3651521190834055,-0.06601876755263457,-0.8123944958740396,-0.5339045524597168,0.7790449857711792,-0.3286865651607513,0,0,0,-1,-1,32017.52062666667,unknown,2,2025-04-22T13:03:32.007+03:00,2025-04-21T17:08:51.449+03:00,7397,0.9991471,0,0,6162.221,5,20,2025-04-22T12:58:04.401+03:00,767009012.1094084,0,-21.82,100.4637,1,0.75,2025-04-22T13:03:28.830+03:00,103,1.716666666666667,2025-04-22T09:54:17.825+03:00,0.02225348692287972,0
2025-04-22T13:03:33.402+03:00,1745316208.34092,40.95215778104961,29.14023037110555,75.7112,-1,-1,-1,-1,30,16.89288593580454,-9999,32018.90990375,0.1334991455078125,3.860916137695312,-1.84356689453125,32018.90740175,-0.2639177059800038,-0.9541944590030411,-0.8262757871432328,6.112066745758057,-0.1887364387512207,-1.771268725395203,1.074913859367371,3.455581426620483,-2.79086446762085,XArbitraryZVertical,0.4088879830414702,0.36998441391767,-0.07571075529496858,-0.8307767748195465,-0.5528344511985779,0.7354128956794739,-0.3918443024158478,0,0,0,-1,-1,32017.52062666667,unknown,2,2025-04-22T13:03:32.007+03:00,2025-04-21T17:08:51.449+03:00,7397,0.9991471,0,0,6162.221,5,20,2025-04-22T12:58:04.401+03:00,767009012.1094084,0,-21.82,100.4637,1,0.75,2025-04-22T13:03:28.830+03:00,103,1.716666666666667,2025-04-22T09:54:17.825+03:00,0.02225348692287972,0
2025-04-22T13:03:33.412+03:00,1745316208.34092,40.95215778104961,29.14023037110555,75.7112,-1,-1,-1,-1,30,16.89288593580454,-9999,32018.91998075,-0.7003326416015625,1.621932983398438,-1.038726806640625,32018.91747775,-0.2304762960400887,-0.9261765709330022,-0.7985599642889385,1.013458132743835,0.7588785886764526,-0.148468017578125,0.5606368780136108,2.979784250259399,-1.299039959907532,XArbitraryZVertical,0.3928276899551617,0.3688531399782667,-0.07772919072447559,-0.8388038440657765,-0.5577225089073181,0.7163520455360413,-0.4192675352096558,0,0,0,-1,-1,32017.52062666667,unknown,2,2025-04-22T13:03:32.007+03:00,2025-04-21T17:08:51.449+03:00,7397,0.9991471,0,0,6162.221,5,20,2025-04-22T12:58:04.401+03:00,767009012.1094084,0,-21.82,100.4637,1,0.75,2025-04-22T13:03:28.830+03:00,103,1.716666666666667,2025-04-22T09:54:17.825+03:00,0.02225348692287972,0
2025-04-22T13:03:33.422+03:00,1745316208.34092,40.95215778104961,29.14023037110555,75.7112,-1,-1,-1,-1,30,16.89288593580454,-9999,32018.93005675,-0.633941650390625,-1.455917358398438,0.0158538818359375,32018.92755475,-0.2362554778614357,-0.9268801800485089,-0.8041582566346656,-2.200819969177246,-0.2913497090339661,0.4239360690116882,-0.1897971034049988,0.4831984043121338,-0.4896364808082581,XArbitraryZVertical,0.396097362402609,0.3672552653379171,-0.07670290749414935,-0.838061466256384,-0.554801344871521,0.7202469706535339,-0.4164609014987946,0,0,0,-1,-1,32017.52062666667,unknown,2,2025-04-22T13:03:32.007+03:00,2025-04-21T17:08:51.449+03:00,7397,0.9991471,0,0,6162.221,5,20,2025-04-22T12:58:04.401+03:00,767009012.1094084,0,-21.82,100.4637,1,0.75,2025-04-22T13:03:28.830+03:00,103,1.716666666666667,2025-04-22T09:54:17.825+03:00,0.02225348692287972,0
2025-04-22T13:03:33.432+03:00,1745316208.34092,40.95215778104961,29.14023037110555,75.7112,-1,-1,-1,-1,30,16.89288593580454,-9999,32018.94013275,-0.1249542236328125,-1.847457885742188,0.067840576171875,32018.93763075,-0.2684486897690137,-0.9575483584997423,-0.8242438285106786,-3.332537651062012,-0.9702179431915283,0.2829563319683075,-0.01090246438980103,-2.414088249206543,0.4755334258079529,XArbitraryZVertical,0.408807236147014,0.3707466231019899,-0.07404212420802987,-0.8306270923976887,-0.5553664565086365,0.7340344786643982,-0.3908471763134003,0,0,0,-1,-1,32017.52062666667,unknown,2,2025-04-22T13:03:32.007+03:00,2025-04-21T17:08:51.449+03:00,7397,0.9991471,0,0,6162.221,5,20,2025-04-22T12:58:04.401+03:00,767009012.1094084,0,-21.82,100.4637,1,0.75,2025-04-22T13:03:28.830+03:00,103,1.716666666666667,2025-04-22T09:54:17.825+03:00,0.02225348692287972,0
2025-04-22T13:03:33.442+03:00,1745316208.34092,40.95215778104961,29.14023037110555,75.7112,-1,-1,-1,-1,30,16.89288593580454,-9999,32018.95020975,-0.4044189453125,-0.50469970703125,-0.3529510498046875,32018.94770775,-0.3012164940099532,-0.9903406610106624,-0.8444271148268723,-2.375046730041504,-0.6925219297409058,0.6330521106719971,0.4402665495872498,-2.470338582992554,0.3924725651741028,XArbitraryZVertical,0.4215144886595151,0.3744479500537918,-0.07209126483921666,-0.8227497673664045,-0.5553789138793945,0.7475907206535339,-0.3642285466194153,0,0,0,-1,-1,32017.52062666667,unknown,2,2025-04-22T13:03:32.007+03:00,2025-04-21T17:08:51.449+03:00,7397,0.9991471,0,0,6162.221,5,20,2025-04-22T12:58:04.401+03:00,767009012.1094084,0,-21.82,100.4637,1,0.75,2025-04-22T13:03:28.830+03:00,103,1.716666666666667,2025-04-22T09:54:17.825+03:00,0.02225348692287972,0
2025-04-22T13:03:33.452+03:00,1745316208.34092,40.95215778104961,29.14023037110555,75.7112,-1,-1,-1,-1,30,16.89288593580454,-9999,32018.96028575,-0.5182647705078125,0.7778167724609375,-0.7351226806640625,32018.95778375,-0.3163134170601019,-1.006624017655305,-0.8612664769754494,-1.169175028800964,-0.243927389383316,1.08158278465271,0.1005826592445374,-1.080369472503662,-0.06431841850280762,XArbitraryZVertical,0.4301452885127507,0.3752295964296863,-0.07346307805595022,-0.817790207698696,-0.5505185723304749,0.7586682438850403,-0.3483555614948273,0,0,0,-1,-1,32017.52062666667,unknown,2,2025-04-22T13:03:32.007+03:00,2025-04-21T17:08:51.449+03:00,7397,0.9991471,0,0,6162.221,5,20,2025-04-22T12:58:04.401+03:00,767009012.1094084,0,-21.82,100.4637,1,0.75,2025-04-22T13:03:28.830+03:00,103,1.716666666666667,2025-04-22T09:54:17.825+03:00,0.02225348692287972,0
2025-04-22T13:03:33.471+03:00,1745316208.34092,40.95215778104961,29.14023037110555,75.7112,-1,-1,-1,-1,30,16.89288593580454,-9999,32018.97036275,-0.553192138671875,1.393936157226562,-0.74365234375,32018.96785975,-0.3176725426857065,-1.00711283143515,-0.8747304700914211,-0.4389573931694031,0.3262771666049957,1.012415170669556,0.03233063220977783,0.1297695636749268,-0.4164970219135284,XArbitraryZVertical,0.4354486892234899,0.3729421208741747,-0.07631492954673823,-0.8157661519681773,-0.5420046448707581,0.7673707008361816,-0.3425972163677216,0,0,0,-1,-1,32017.52062666667,unknown,2,2025-04-22T13:03:32.007+03:00,2025-04-21T17:08:51.449+03:00,7397,0.9991471,0,0,6162.221,5,20,2025-04-22T12:58:04.401+03:00,767009012.1094084,0,-21.82,100.4637,1,0.75,2025-04-22T13:03:28.830+03:00,103,1.716666666666667,2025-04-22T09:54:17.825+03:00,0.02225348692287972,0
2025-04-22T13:03:33.475+03:00,1745316208.34092,40.95215778104961,29.14023037110555,75.7112,-1,-1,-1,-1,30,16.89288593580454,-9999,32018.98043875,-0.7122344970703125,1.435928344726562,-0.400238037109375,32018.97793675,-0.3127844187654993,-0.9984692823635327,-0.8826681361825522,0.1136226952075958,0.5758124589920044,0.6206153631210327,-0.0401802659034729,0.6475008130073547,-0.3697092831134796,XArbitraryZVertical,0.4378593887260172,0.3691875236168856,-0.07835926312756862,-0.8159898283158903,-0.5338858366012573,0.7724361419677734,-0.3439594507217407,0,0,0,-1,-1,32017.52062666667,unknown,2,2025-04-22T13:03:32.007+03:00,2025-04-21T17:08:51.449+03:00,7397,0.9991471,0,0,6162.221,5,20,2025-04-22T12:58:04.401+03:00,767009012.1094084,0,-21.82,100.4637,1,0.75,2025-04-22T13:03:28.830+03:00,103,1.716666666666667,2025-04-22T09:54:17.825+03:00,0.02225348692287972,0
2025-04-22T13:03:33.482+03:00,1745316208.34092,40.95215778104961,29.14023037110555,75.7112,-1,-1,-1,-1,30,16.89288593580454,-9999,32018.99051475,-0.6923065185546875,1.412506103515625,-0.1144866943359375,32018.98801275,-0.3045043537741346,-0.9864851840997185,-0.8832410290459226,0.6977487802505493,0.5166266560554504,0.07058330625295639,-0.1925216317176819,0.6567349433898926,-0.003823697566986084,XArbitraryZVertical,0.4370257950327499,0.3660111300252772,-0.07925839607467765,-0.817778893751279,-0.5293564200401306,0.7727998495101929,-0.3500886261463165,0,0,0,-1,-1,32017.52062666667,unknown,2,2025-04-22T13:03:32.007+03:00,2025-04-21T17:08:51.449+03:00,7397,0.9991471,0,0,6162.221,5,20,2025-04-22T12:58:04.401+03:00,767009012.1094084,0,-21.82,100.4637,1,0.75,2025-04-22T13:03:28.830+03:00,103,1.716666666666667,2025-04-22T09:54:17.825+03:00,0.02225348692287972,0
2025-04-22T13:03:33.492+03:00,1745316208.34092,40.95215778104961,29.14023037110555,75.7112,-1,-1,-1,-1,30,16.89288593580454,-9999,32019.00059175,-0.55596923828125,1.29034423828125,-0.0824432373046875,32018.99808975,-0.2917487095209774,-0.9722362497308531,-0.8780150084859611,1.162362217903137,0.3654446303844452,0.003573112189769745,-0.1492818593978882,0.6404698491096497,0.2638122141361237,XArbitraryZVertical,0.4332812709149405,0.363777708755997,-0.08013767741514277,-0.8206770844656547,-0.5276437401771545,0.769472599029541,-0.3598662316799164,0,0,0,-1,-1,32017.52062666667,unknown,2,2025-04-22T13:03:32.007+03:00,2025-04-21T17:08:51.449+03:00,7397,0.9991471,0,0,6162.221,5,20,2025-04-22T12:58:04.401+03:00,767009012.1094084,0,-21.82,100.4637,1,0.75,2025-04-22T13:03:28.830+03:00,103,1.716666666666667,2025-04-22T09:54:17.825+03:00,0.02225348692287972,0
2025-04-22T13:03:33.502+03:00,1745316208.34092,40.95215778104961,29.14023037110555,75.7112,-1,-1,-1,-1,30,16.89288593580454,-9999,32019.01066775,-0.493743896484375,0.930328369140625,-0.2073822021484375,32019.00816575,-0.2763245425168401,-0.9572534720335263,-0.871178419765374,1.162956237792969,0.2735336720943451,0.005980376619845629,-0.01619690656661987,0.4902369379997253,0.2752009630203247,XArbitraryZVertical,0.4284678829617119,0.3619938202352222,-0.08164756476991662,-0.8238382417939888,-0.5264819860458374,0.7650882601737976,-0.3707515001296997,0,0,0,-1,-1,32017.52062666667,unknown,2,2025-04-22T13:03:32.007+03:00,2025-04-21T17:08:51.449+03:00,7397,0.9991471,0,0,6162.221,5,20,2025-04-22T12:58:04.401+03:00,767009012.1094084,0,-21.82,100.4637,1,0.75,2025-04-22T13:03:28.830+03:00,103,1.716666666666667,2025-04-22T09:54:17.825+03:00,0.02225348692287972,0
2025-04-22T13:03:33.512+03:00,1745316208.34092,40.95215778104961,29.14023037110555,75.7112,-1,-1,-1,-1,30,16.89288593580454,-9999,32019.02074475,-0.4397125244140625,0.5694122314453125,-0.28607177734375,32019.01824275,-0.2637791274773617,-0.945346887989177,-0.8655553436160673,0.7576878070831299,0.2027497887611389,0.02455166354775429,0.03625190258026123,0.1169928908348083,0.1590626239776611,XArbitraryZVertical,0.4245176623281556,0.3605989516600271,-0.08298531642157733,-0.826357287868166,-0.5255096554756165,0.7614553570747375,-0.3795062899589539,0,0,0,-1,-1,32017.52062666667,unknown,2,2025-04-22T13:03:32.007+03:00,2025-04-21T17:08:51.449+03:00,7397,0.9991471,0,0,6162.221,5,20,2025-04-22T12:58:04.401+03:00,767009012.1094084,0,-21.82,100.4637,1,0.75,2025-04-22T13:03:28.830+03:00,103,1.716666666666667,2025-04-22T09:54:17.825+03:00,0.02225348692287972,0
2025-04-22T13:03:33.522+03:00,1745316208.34092,40.95215778104961,29.14023037110555,75.7112,-1,-1,-1,-1,30,16.89288593580454,-9999,32019.03082075,-0.393157958984375,0.48431396484375,-0.3481597900390625,32019.02831875,-0.2568276532328794,-0.9380919353237612,-0.8627164455338893,0.31577268242836,0.1864708662033081,0.05958963930606842,0.09313315153121948,-0.2183980941772461,0.09010624885559082,XArbitraryZVertical,0.4224644278792501,0.3594870770663667,-0.083675217150603,-0.8278232566387735,-0.5244839191436768,0.7596120834350586,-0.3845857083797455,0,0,0,-1,-1,32017.52062666667,unknown,2,2025-04-22T13:03:32.007+03:00,2025-04-21T17:08:51.449+03:00,7397,0.9991471,0,0,6162.221,5,20,2025-04-22T12:58:04.401+03:00,767009012.1094084,0,-21.82,100.4637,1,0.75,2025-04-22T13:03:28.830+03:00,103,1.716666666666667,2025-04-22T09:54:17.825+03:00,0.02225348692287972,0
2025-04-22T13:03:33.533+03:00,1745316208.34092,40.95215778104961,29.14023037110555,75.7112,-1,-1,-1,-1,30,16.89288593580454,-9999,32019.04089775,-0.4147491455078125,0.54510498046875,-0.3735809326171875,32019.03839475,-0.2545717397098523,-0.9349358759347687,-0.8624539909758475,-0.03118475526571274,0.08668648451566696,0.05911453440785408,0.1304225325584412,-0.2681236863136292,0.03267401456832886,XArbitraryZVertical,0.422089243511312,0.3586947731237818,-0.08388328688104325,-0.8283371025130392,-0.5234279036521912,0.7594413757324219,-0.386357456445694,0,0,0,-1,-1,32017.52062666667,unknown,2,2025-04-22T13:03:32.007+03:00,2025-04-21T17:08:51.449+03:00,7397,0.9991471,0,0,6162.221,5,20,2025-04-22T12:58:04.401+03:00,767009012.1094084,0,-21.82,100.4637,1,0.75,2025-04-22T13:03:28.830+03:00,103,1.716666666666667,2025-04-22T09:54:17.825+03:00,0.02225348692287972,0
2025-04-22T13:03:33.543+03:00,1745316208.34092,40.95215778104961,29.14023037110555,75.7112,-1,-1,-1,-1,30,16.89288593580454,-9999,32019.05097375,-0.4201507568359375,0.5621337890625,-0.369232177734375,32019.04847175,-0.2554647755386584,-0.9355783425597478,-0.8637350238329767,-0.19518181681633,-0.07115067541599274,0.07088684290647507,0.1052287817001343,-0.2110493779182434,0.01192355155944824,XArbitraryZVertical,0.4227222238286494,0.3585863899383554,-0.08393975681684371,-0.8280553900678421,-0.5228923559188843,0.7602741122245789,-0.3854434490203857,0,0,0,-1,-1,32017.52062666667,unknown,2,2025-04-22T13:03:32.007+03:00,2025-04-21T17:08:51.449+03:00,7397,0.9991471,0,0,6162.221,5,20,2025-04-22T12:58:04.401+03:00,767009012.1094084,0,-21.82,100.4637,1,0.75,2025-04-22T13:03:28.830+03:00,103,1.716666666666667,2025-04-22T09:54:17.825+03:00,0.02225348692287972,0
2025-04-22T13:03:33.553+03:00,1745316208.34092,40.95215778104961,29.14023037110555,75.7112,-1,-1,-1,-1,30,16.89288593580454,-9999,32019.06104975,-0.420928955078125,0.617767333984375,-0.3868865966796875,32019.05854775,-0.2575545578408761,-0.9383943187896707,-0.8655226579584423,-0.2143901288509369,-0.1651357561349869,0.057256780564785,0.1044521331787109,-0.1965842843055725,0.01346039772033691,XArbitraryZVertical,0.4236753911440991,0.3590492532923084,-0.08407690129897853,-0.8273535517671293,-0.5228787064552307,0.7614341974258423,-0.3831655979156494,0,0,0,-1,-1,32017.52062666667,unknown,2,2025-04-22T13:03:32.007+03:00,2025-04-21T17:08:51.449+03:00,7397,0.9991471,0,0,6162.221,5,20,2025-04-22T12:58:04.401+03:00,767009012.1094084,0,-21.82,100.4637,1,0.75,2025-04-22T13:03:28.830+03:00,103,1.716666666666667,2025-04-22T09:54:17.825+03:00,0.02225348692287972,0
2025-04-22T13:03:33.563+03:00,1745316208.34092,40.95215778104961,29.14023037110555,75.7112,-1,-1,-1,-1,30,16.89288593580454,-9999,32019.07112675,-0.4594268798828125,0.6969451904296875,-0.402923583984375,32019.06862475,-0.2597810354470732,-0.942082430850282,-0.8671965653522971,-0.2100442498922348,-0.2288389801979065,0.04652324318885803,0.09756684303283691,-0.1329865455627441,-0.009972810745239258,XArbitraryZVertical,0.4245714043334325,0.3598568771984314,-0.08432014976031128,-0.8265180227259245,-0.5232565402984619,0.7625182271003723,-0.3804843127727509,0,0,0,-1,-1,32017.52062666667,unknown,2,2025-04-22T13:03:32.007+03:00,2025-04-21T17:08:51.449+03:00,7397,0.9991471,0,0,6162.221,5,20,2025-04-22T12:58:04.401+03:00,767009012.1094084,0,-21.82,100.4637,1,0.75,2025-04-22T13:03:28.830+03:00,103,1.716666666666667,2025-04-22T09:54:17.825+03:00,0.02225348692287972,0
2025-04-22T13:03:33.573+03:00,1745316208.34092,40.95215778104961,29.14023037110555,75.7112,-1,-1,-1,-1,30,16.89288593580454,-9999,32019.08120275,-0.4767608642578125,0.736968994140625,-0.4002685546875,32019.07870075,-0.2618965237394533,-0.946056713106139,-0.8686940974748049,-0.1758159697055817,-0.2313588559627533,0.03809220716357231,0.0610540509223938,-0.05927795171737671,-0.02573931217193604,XArbitraryZVertical,0.4253659476726946,0.3608282728189137,-0.08463351978830902,-0.8256536227451973,-0.5238379240036011,0.7634862065315247,-0.3777335286140442,0,0,0,-1,-1,32017.52062666667,unknown,2,2025-04-22T13:03:32.007+03:00,2025-04-21T17:08:51.449+03:00,7397,0.9991471,0,0,6162.221,5,20,2025-04-22T12:58:04.401+03:00,767009012.1094084,0,-21.82,100.4637,1,0.75,2025-04-22T13:03:28.830+03:00,103,1.716666666666667,2025-04-22T09:54:17.825+03:00,0.02225348692287972,0
2025-04-22T13:03:33.583+03:00,1745316208.34092,40.95215778104961,29.14023037110555,75.7112,-1,-1,-1,-1,30,16.89288593580454,-9999,32019.09127975,-0.509857177734375,0.77239990234375,-0.41815185546875,32019.08877775,-0.263329773151228,-0.9493492210192188,-0.8698217925267046,-0.1001330688595772,-0.2005835026502609,0.04349036514759064,0.04499298334121704,-0.02384239435195923,-0.02635025978088379,XArbitraryZVertical,0.4259221955362989,0.3617149082728487,-0.08500184595681073,-0.8249407397849539,-0.5243783593177795,0.764214038848877,-0.3755052089691162,0,0,0,-1,-1,32017.52062666667,unknown,2,2025-04-22T13:03:32.007+03:00,2025-04-21T17:08:51.449+03:00,7397,0.9991471,0,0,6162.221,5,20,2025-04-22T12:58:04.401+03:00,767009012.1094084,0,-21.82,100.4637,1,0.75,2025-04-22T13:03:28.830+03:00,103,1.716666666666667,2025-04-22T09:54:17.825+03:00,0.02225348692287972,0
2025-04-22T13:03:33.593+03:00,1745316208.34092,40.95215778104961,29.14023037110555,75.7112,-1,-1,-1,-1,30,16.89288593580454,-9999,32019.101357,-0.5571746826171875,0.8343658447265625,-0.431396484375,32019.098855,-0.263778426571761,-0.9514482612116881,-0.8704824249790264,-0.02118871361017227,-0.1481317579746246,0.03324172273278236,0.00925135612487793,0.01477891206741333,-0.04695570468902588,XArbitraryZVertical,0.4261696381689462,0.3623867343203009,-0.08541608170323152,-0.8244752274117098,-0.5247542858123779,0.7646399140357971,-0.3741105794906616,0,0,0,-1,-1,32017.52062666667,unknown,2,2025-04-22T13:03:32.007+03:00,2025-04-21T17:08:51.449+03:00,7397,0.9991471,0,0,6162.221,5,20,2025-04-22T12:58:04.401+03:00,767009012.1094084,0,-21.82,100.4637,1,0.75,2025-04-22T13:03:28.830+03:00,103,1.716666666666667,2025-04-22T09:54:17.825+03:00,0.02225348692287972,0
2025-04-22T13:03:33.603+03:00,1745316208.34092,40.95215778104961,29.14023037110555,75.7112,-1,-1,-1,-1,30,16.89288593580454,-9999,32019.111434,-0.5836181640625,0.863372802734375,-0.424560546875,32019.108931,-0.2634298860881095,-0.9524408392675744,-0.8706323274097022,0.03900491818785667,-0.1030331775546074,0.01742244884371758,-0.03742241859436035,0.07648038864135742,-0.0575072169303894,XArbitraryZVertical,0.4261219858000508,0.3628478421377723,-0.08580585802018048,-0.8242564432871304,-0.5250318050384521,0.764736533164978,-0.3735229969024658,0,0,0,-1,-1,32017.52062666667,unknown,2,2025-04-22T13:03:32.007+03:00,2025-04-21T17:08:51.449+03:00,7397,0.9991471,0,0,6162.221,5,20,2025-04-22T12:58:04.401+03:00,767009012.1094084,0,-21.82,100.4637,1,0.75,2025-04-22T13:03:28.830+03:00,103,1.716666666666667,2025-04-22T09:54:17.825+03:00,0.02225348692287972,0
2025-04-22T13:03:33.613+03:00,1745316208.34092,40.95215778104961,29.14023037110555,75.7112,-1,-1,-1,-1,30,16.89288593580454,-9999,32019.12151,-0.58905029296875,0.8555450439453125,-0.4153289794921875,32019.119008,-0.2625750729764608,-0.9526744128012213,-0.8703983558821702,0.0765291228890419,-0.07460420578718185,0.01006519980728626,-0.06045901775360107,0.09887850284576416,-0.04972892999649048,XArbitraryZVertical,0.4258662802384253,0.3631609495720469,-0.0861539039622929,-0.8242144450653593,-0.5252649188041687,0.7645857334136963,-0.3735040724277496,0,0,0,-1,-1,32017.52062666667,unknown,2,2025-04-22T13:03:32.007+03:00,2025-04-21T17:08:51.449+03:00,7397,0.9991471,0,0,6162.221,5,20,2025-04-22T12:58:04.401+03:00,767009012.1094084,0,-21.82,100.4637,1,0.75,2025-04-22T13:03:28.830+03:00,103,1.716666666666667,2025-04-22T09:54:17.825+03:00,0.02225348692287972,0
2025-04-22T13:03:33.623+03:00,1745316208.34092,40.95215778104961,29.14023037110555,75.7112,-1,-1,-1,-1,30,16.89288593580454,-9999,32019.131586,-0.58575439453125,0.8314208984375,-0.4049072265625,32019.129084,-0.2613637728024629,-0.952370853235642,-0.8700171580214843,0.09593005478382111,-0.04794935509562492,0.02011573687195778,-0.06405812501907349,0.08938908576965332,-0.04019954800605774,XArbitraryZVertical,0.4255119226355722,0.3633502505261885,-0.08650064214708905,-0.8242776565768345,-0.5253888964653015,0.7643399834632874,-0.3738324046134949,0,0,0,-1,-1,32017.52062666667,unknown,2,2025-04-22T13:03:32.007+03:00,2025-04-21T17:08:51.449+03:00,7397,0.9991471,0,0,6162.221,5,20,2025-04-22T12:58:04.401+03:00,767009012.1094084,0,-21.82,100.4637,1,0.75,2025-04-22T13:03:28.830+03:00,103,1.716666666666667,2025-04-22T09:54:17.825+03:00,0.02225348692287972,0
2025-04-22T13:03:33.633+03:00,1745316208.34092,40.95215778104961,29.14023037110555,75.7112,-1,-1,-1,-1,30,16.89288593580454,-9999,32019.141663,-0.579559326171875,0.7994384765625,-0.398590087890625,32019.139161,-0.2596619273814537,-0.9514518539915114,-0.8696879138201682,0.1164627596735954,-0.02895169332623482,0.05261429399251938,-0.0594208836555481,0.06410408020019531,-0.02898114919662476,XArbitraryZVertical,0.4251150636351386,0.3633821018306063,-0.08693076201663395,-0.8244232588802554,-0.5252501368522644,0.7641276717185974,-0.3744612634181976,0,0,0,-1,-1,32017.52062666667,unknown,2,2025-04-22T13:03:32.007+03:00,2025-04-21T17:08:51.449+03:00,7397,0.9991471,0,0,6162.221,5,20,2025-04-22T12:58:04.401+03:00,767009012.1094084,0,-21.82,100.4637,1,0.75,2025-04-22T13:03:28.830+03:00,103,1.716666666666667,2025-04-22T09:54:17.825+03:00,0.02225348692287972,0
2025-04-22T13:03:33.643+03:00,1745316208.34092,40.95215778104961,29.14023037110555,75.7112,-1,-1,-1,-1,30,16.89288593580454,-9999,32019.151739,-0.56585693359375,0.7677764892578125,-0.398712158203125,32019.149237,-0.2577189416269511,-0.9502898313421887,-0.8696418574094927,0.08420009166002274,-0.039533831179142,0.08439202606678009,-0.05366325378417969,0.03057968616485596,-0.0234525203704834,XArbitraryZVertical,0.42479491595574,0.3633227094232725,-0.08747428025415947,-0.8245569059741765,-0.5248432159423828,0.7640979290008545,-0.3750917911529541,0,0,0,-1,-1,32017.52062666667,unknown,2,2025-04-22T13:03:32.007+03:00,2025-04-21T17:08:51.449+03:00,7397,0.9991471,0,0,6162.221,5,20,2025-04-22T12:58:04.401+03:00,767009012.1094084,0,-21.82,100.4637,1,0.75,2025-04-22T13:03:28.830+03:00,103,1.716666666666667,2025-04-22T09:54:17.825+03:00,0.02225348692287972,0
2025-04-22T13:03:33.654+03:00,1745316208.34092,40.95215778104961,29.14023037110555,75.7112,-1,-1,-1,-1,30,16.89288593580454,-9999,32019.161816,-0.5456390380859375,0.73468017578125,-0.4058990478515625,32019.159313,-0.2559735456393436,-0.9493925013043371,-0.8701792455945551,0.03374677151441574,-0.04141402244567871,0.1347665190696716,-0.03915160894393921,-0.0002082586288452148,-0.02435004711151123,XArbitraryZVertical,0.4247256209813761,0.3632443647127104,-0.08812676865714135,-0.8245575122777838,-0.5241723656654358,0.7644445300102234,-0.3753233551979065,0,0,0,-1,-1,32017.52062666667,unknown,2,2025-04-22T13:03:32.007+03:00,2025-04-21T17:08:51.449+03:00,7397,0.9991471,0,0,6162.221,5,20,2025-04-22T12:58:04.401+03:00,767009012.1094084,0,-21.82,100.4637,1,0.75,2025-04-22T13:03:28.830+03:00,103,1.716666666666667,2025-04-22T09:54:17.825+03:00,0.02225348692287972,0
2025-04-22T13:03:33.664+03:00,1745316208.34092,40.95215778104961,29.14023037110555,75.7112,-1,-1,-1,-1,30,16.89288593580454,-9999,32019.171892,-0.53955078125,0.7019195556640625,-0.4012908935546875,32019.16939,-0.2544161085279203,-0.9485356976482936,-0.8714845040692413,-0.0253983736038208,-0.02390567027032375,0.1939204931259155,-0.02031075954437256,-0.0348014235496521,-0.03125780820846558,XArbitraryZVertical,0.4249867901112398,0.3630302536036839,-0.08888606076089846,-0.8244358413686474,-0.5230395197868347,0.765285313129425,-0.3751905262470245,0,0,0,-1,-1,32017.52062666667,unknown,2,2025-04-22T13:03:32.007+03:00,2025-04-21T17:08:51.449+03:00,7397,0.9991471,0,0,6162.221,5,20,2025-04-22T12:58:04.401+03:00,767009012.1094084,0,-21.82,100.4637,1,0.75,2025-04-22T13:03:28.830+03:00,103,1.716666666666667,2025-04-22T09:54:17.825+03:00,0.02225348692287972,0
2025-04-22T13:03:33.674+03:00,1745316208.34092,40.95215778104961,29.14023037110555,75.7112,-1,-1,-1,-1,30,16.89288593580454,-9999,32019.181969,-0.546112060546875,0.688323974609375,-0.3790130615234375,32019.179466,-0.2530791336912953,-0.9475891565439353,-0.8736038601293457,-0.08285181224346161,0.01012713089585304,0.2467387020587921,-0.01850533485412598,-0.06735289096832275,-0.02524065971374512,XArbitraryZVertical,0.4256083079367558,0.3626135495630753,-0.08972113488210842,-0.8242081060706435,-0.5213659405708313,0.7666478157043457,-0.3747379779815674,0,0,0,-1,-1,32017.52062666667,unknown,2,2025-04-22T13:03:32.007+03:00,2025-04-21T17:08:51.449+03:00,7397,0.9991471,0,0,6162.221,5,20,2025-04-22T12:58:04.401+03:00,767009012.1094084,0,-21.82,100.4637,1,0.75,2025-04-22T13:03:28.830+03:00,103,1.716666666666667,2025-04-22T09:54:17.825+03:00,0.02225348692287972,0
2025-04-22T13:03:33.684+03:00,1745316208.34092,40.95215778104961,29.14023037110555,75.7112,-1,-1,-1,-1,30,16.89288593580454,-9999,32019.192045,-0.54852294921875,0.691009521484375,-0.3560791015625,32019.189543,-0.2519739345075666,-0.9464271859647684,-0.8764197634470351,-0.1295794993638992,0.05060358345508575,0.2890493273735046,-0.02693551778793335,-0.08061724901199341,-0.002140671014785767,XArbitraryZVertical,0.4265522355050951,0.3619574557843476,-0.09057278184437959,-0.8239152750753105,-0.5191764831542969,0.7684527635574341,-0.3740799725055695,0,0,0,-1,-1,32017.52062666667,unknown,2,2025-04-22T13:03:32.007+03:00,2025-04-21T17:08:51.449+03:00,7397,0.9991471,0,0,6162.221,5,20,2025-04-22T12:58:04.401+03:00,767009012.1094084,0,-21.82,100.4637,1,0.75,2025-04-22T13:03:28.830+03:00,103,1.716666666666667,2025-04-22T09:54:17.825+03:00,0.02225348692287972,0
2025-04-22T13:03:33.694+03:00,1745316208.34092,40.95215778104961,29.14023037110555,75.7112,-1,-1,-1,-1,30,16.89288593580454,-9999,32019.202121,-0.5528411865234375,0.702606201171875,-0.3548126220703125,32019.199619,-0.2508790914647231,-0.9449900397888474,-0.8797474517024358,-0.1434417814016342,0.06758150458335876,0.3221633434295654,-0.03194475173950195,-0.07872939109802246,0.01846739649772644,XArbitraryZVertical,0.4277095630883292,0.3611116803407318,-0.09147623951971311,-0.8235865252455061,-0.5165628790855408,0.7705779671669006,-0.3733257651329041,0,0,0,-1,-1,32017.52062666667,unknown,2,2025-04-22T13:03:32.007+03:00,2025-04-21T17:08:51.449+03:00,7397,0.9991471,0,0,6162.221,5,20,2025-04-22T12:58:04.401+03:00,767009012.1094084,0,-21.82,100.4637,1,0.75,2025-04-22T13:03:28.830+03:00,103,1.716666666666667,2025-04-22T09:54:17.825+03:00,0.02225348692287972,0
2025-04-22T13:03:33.704+03:00,1745316208.34092,40.95215778104961,29.14023037110555,75.7112,-1,-1,-1,-1,30,16.89288593580454,-9999,32019.212198,-0.550689697265625,0.718231201171875,-0.3621978759765625,32019.209696,-0.2497459607546654,-0.9433619837530931,-0.8833609483289365,-0.1581846475601196,0.07947318255901337,0.3440870642662048,-0.03975456953048706,-0.06798112392425537,0.01684680581092834,XArbitraryZVertical,0.4289802735628124,0.3601546221665508,-0.09241704027015724,-0.8232396090328508,-0.5136969089508057,0.772875964641571,-0.372529149055481,0,0,0,-1,-1,32017.52062666667,unknown,2,2025-04-22T13:03:32.007+03:00,2025-04-21T17:08:51.449+03:00,7397,0.9991471,0,0,6162.221,5,20,2025-04-22T12:58:04.401+03:00,767009012.1094084,0,-21.82,100.4637,1,0.75,2025-04-22T13:03:28.830+03:00,103,1.716666666666667,2025-04-22T09:54:17.825+03:00,0.02225348692287972,0
2025-04-22T13:03:33.714+03:00,1745316208.34092,40.95215778104961,29.14023037110555,75.7112,-1,-1,-1,-1,30,16.89288593580454,-9999,32019.222274,-0.54779052734375,0.724029541015625,-0.370086669921875,32019.219772,-0.2485976195805329,-0.9416424374233732,-0.8872656256634057,-0.1828814744949341,0.08868691325187683,0.3692981600761414,-0.03966587781906128,-0.05554503202438354,0.008291065692901611,XArbitraryZVertical,0.4303661086071229,0.3591216216445452,-0.09340742046728275,-0.8228558589837338,-0.510611891746521,0.7753477692604065,-0.3716333508491516,0,0,0,-1,-1,32017.52062666667,unknown,2,2025-04-22T13:03:32.007+03:00,2025-04-21T17:08:51.449+03:00,7397,0.9991471,0,0,6162.221,5,20,2025-04-22T12:58:04.401+03:00,767009012.1094084,0,-21.82,100.4637,1,0.75,2025-04-22T13:03:28.830+03:00,103,1.716666666666667,2025-04-22T09:54:17.825+03:00,0.02225348692287972,0
2025-04-22T13:03:33.724+03:00,1745316208.34092,40.95215778104961,29.14023037110555,75.7112,-1,-1,-1,-1,30,16.89288593580454,-9999,32019.232351,-0.5454559326171875,0.7227630615234375,-0.377105712890625,32019.229848,-0.2475919691302455,-0.9399478834661015,-0.8915520500515036,-0.2179169505834579,0.09632086753845215,0.3952293694019318,-0.04042142629623413,-0.05398780107498169,-0.0002085268497467041,XArbitraryZVertical,0.4319250935419973,0.3580133704826123,-0.09442767615122132,-0.8224052730270985,-0.5072928071022034,0.7780476808547974,-0.3705342710018158,0,0,0,-1,-1,32017.52062666667,unknown,2,2025-04-22T13:03:32.007+03:00,2025-04-21T17:08:51.449+03:00,7397,0.9991471,0,0,6162.221,5,20,2025-04-22T12:58:04.401+03:00,767009012.1094084,0,-21.82,100.4637,1,0.75,2025-04-22T13:03:28.830+03:00,103,1.716666666666667,2025-04-22T09:54:17.825+03:00,0.02225348692287972,0
2025-04-22T13:03:33.734+03:00,1745316208.34092,40.95215778104961,29.14023037110555,75.7112,-1,-1,-1,-1,30,16.89288593580454,-9999,32019.242427,-0.54241943359375,0.728973388671875,-0.3863525390625,32019.239925,-0.2468207390200807,-0.9383651761687301,-0.896260795989374,-0.2556393146514893,0.09854941070079803,0.4197003543376923,-0.04166507720947266,-0.05773049592971802,-0.009205132722854614,XArbitraryZVertical,0.4336844479111323,0.3568392694876313,-0.09546743798945212,-0.8218695116152785,-0.5037451386451721,0.780997097492218,-0.3691670596599579,0,0,0,-1,-1,32017.52062666667,unknown,2,2025-04-22T13:03:32.007+03:00,2025-04-21T17:08:51.449+03:00,7397,0.9991471,0,0,6162.221,5,20,2025-04-22T12:58:04.401+03:00,767009012.1094084,0,-21.82,100.4637,1,0.75,2025-04-22T13:03:28.830+03:00,103,1.716666666666667,2025-04-22T09:54:17.825+03:00,0.02225348692287972,0
2025-04-22T13:03:33.744+03:00,1745316208.34092,40.95215778104961,29.14023037110555,75.7112,-1,-1,-1,-1,30,16.89288593580454,-9999,32019.252504,-0.5285186767578125,0.7339935302734375,-0.3944091796875,32019.250001,-0.24622994370457,-0.9369411699135746,-0.9012804430314151,-0.2781780362129211,0.09324239194393158,0.4278524816036224,-0.0406414270401001,-0.0538366436958313,-0.0200156569480896,XArbitraryZVertical,0.4355884149880634,0.355645850265571,-0.09653395875390261,-0.821255082914747,-0.5000537633895874,0.7841222286224365,-0.3675575256347656,0,0,0,-1,-1,32017.52062666667,unknown,2,2025-04-22T13:03:32.007+03:00,2025-04-21T17:08:51.449+03:00,7397,0.9991471,0,0,6162.221,5,20,2025-04-22T12:58:04.401+03:00,767009012.1094084,0,-21.82,100.4637,1,0.75,2025-04-22T13:03:28.830+03:00,103,1.716666666666667,2025-04-22T09:54:17.825+03:00,0.02225348692287972,0
2025-04-22T13:03:33.754+03:00,1745316208.34092,40.95215778104961,29.14023037110555,75.7112,-1,-1,-1,-1,30,16.89288593580454,-9999,32019.26258,-0.519805908203125,0.7385101318359375,-0.39495849609375,32019.260078,-0.2457357694237944,-0.9355625869825908,-0.9065374934647111,-0.2893025875091553,0.1011799424886703,0.4453228116035461,-0.02959626913070679,-0.05232751369476318,-0.02960541844367981,XArbitraryZVertical,0.4375983130598129,0.3544149261469494,-0.09762039796826431,-0.8205900695970513,-0.4962216913700104,0.7873739004135132,-0.3657955527305603,0,0,0,-1,-1,32017.52062666667,unknown,2,2025-04-22T13:03:32.007+03:00,2025-04-21T17:08:51.449+03:00,7397,0.9991471,0,0,6162.221,5,20,2025-04-22T12:58:04.401+03:00,767009012.1094084,0,-21.82,100.4637,1,0.75,2025-04-22T13:03:28.830+03:00,103,1.716666666666667,2025-04-22T09:54:17.825+03:00,0.02225348692287972,0
2025-04-22T13:03:33.764+03:00,1745316208.34092,40.95215778104961,29.14023037110555,75.7112,-1,-1,-1,-1,30,16.89288593580454,-9999,32019.272656,-0.5244140625,0.740936279296875,-0.3867645263671875,32019.270154,-0.2452440503364422,-0.934121767051732,-0.9119566171544091,-0.3029001653194427,0.1090874001383781,0.4529668986797333,-0.02831298112869263,-0.0511859655380249,-0.02999871969223022,XArbitraryZVertical,0.4396733061115576,0.3531336919624239,-0.09872477284479682,-0.8199008173456306,-0.4922558963298798,0.7907031178474426,-0.3639679551124573,0,0,0,-1,-1,32017.52062666667,unknown,2,2025-04-22T13:03:32.007+03:00,2025-04-21T17:08:51.449+03:00,7397,0.9991471,0,0,6162.221,5,20,2025-04-22T12:58:04.401+03:00,767009012.1094084,0,-21.82,100.4637,1,0.75,2025-04-22T13:03:28.830+03:00,103,1.716666666666667,2025-04-22T09:54:17.825+03:00,0.02225348692287972,0
2025-04-22T13:03:33.774+03:00,1745316208.34092,40.95215778104961,29.14023037110555,75.7112,-1,-1,-1,-1,30,16.89288593580454,-9999,32019.282733,-0.5211181640625,0.74505615234375,-0.3829498291015625,32019.280231,-0.2448566254941836,-0.9327141671107053,-0.9175012477258191,-0.312520295381546,0.1126853302121162,0.4592013657093048,-0.03595593571662903,-0.05287450551986694,-0.02391237020492554,XArbitraryZVertical,0.441812279906353,0.3518240803251185,-0.09981775947806712,-0.8191813507778734,-0.4882140159606934,0.7940853238105774,-0.3620434403419495,0,0,0,-1,-1,32017.52062666667,unknown,2,2025-04-22T13:03:32.007+03:00,2025-04-21T17:08:51.449+03:00,7397,0.9991471,0,0,6162.221,5,20,2025-04-22T12:58:04.401+03:00,767009012.1094084,0,-21.82,100.4637,1,0.75,2025-04-22T13:03:28.830+03:00,103,1.716666666666667,2025-04-22T09:54:17.825+03:00,0.02225348692287972,0
2025-04-22T13:03:33.785+03:00,1745316208.34092,40.95215778104961,29.14023037110555,75.7112,-1,-1,-1,-1,30,16.89288593580454,-9999,32019.292809,-0.52239990234375,0.7443695068359375,-0.3817596435546875,32019.290307,-0.2444529642328432,-0.9311627857355892,-0.9231977144898612,-0.3215034008026123,0.1327597051858902,0.477940708398819,-0.03687477111816406,-0.05191421508789062,-0.02244338393211365,XArbitraryZVertical,0.444012792851551,0.3504360756242434,-0.1009153940016481,-0.8184516430395049,-0.4840145111083984,0.7975347638130188,-0.3600943982601166,0,0,0,-1,-1,32017.52062666667,unknown,2,2025-04-22T13:03:32.007+03:00,2025-04-21T17:08:51.449+03:00,7397,0.9991471,0,0,6162.221,5,20,2025-04-22T12:58:04.401+03:00,767009012.1094084,0,-21.82,100.4637,1,0.75,2025-04-22T13:03:28.830+03:00,103,1.716666666666667,2025-04-22T09:54:17.825+03:00,0.02225348692287972,0
2025-04-22T13:03:33.795+03:00,1745316208.34092,40.95215778104961,29.14023037110555,75.7112,-1,-1,-1,-1,30,16.89288593580454,-9999,32019.302886,-0.530120849609375,0.742462158203125,-0.3756866455078125,32019.300383,-0.2439796683547572,-0.9293636756497162,-0.9291285948883524,-0.3420944213867188,0.1495232433080673,0.5028819441795349,-0.04361051321029663,-0.05744642019271851,-0.02370774745941162,XArbitraryZVertical,0.446302497876696,0.3489269144188906,-0.1020338579435566,-0.8177121638836343,-0.4795676469802856,0.8010987043380737,-0.3581281900405884,0,0,0,-1,-1,32017.52062666667,unknown,2,2025-04-22T13:03:32.007+03:00,2025-04-21T17:08:51.449+03:00,7397,0.9991471,0,0,6162.221,5,20,2025-04-22T12:58:04.401+03:00,767009012.1094084,0,-21.82,100.4637,1,0.75,2025-04-22T13:03:28.830+03:00,103,1.716666666666667,2025-04-22T09:54:17.825+03:00,0.02225348692287972,0
2025-04-22T13:03:33.805+03:00,1745316208.34092,40.95215778104961,29.14023037110555,75.7112,-1,-1,-1,-1,30,16.89288593580454,-9999,32019.312962,-0.5222320556640625,0.7379913330078125,-0.365386962890625,32019.31046,-0.2436102649430577,-0.9275338845268398,-0.9354294628856223,-0.372424304485321,0.1571543216705322,0.5286036133766174,-0.05534923076629639,-0.06283450126647949,-0.01777839660644531,XArbitraryZVertical,0.4487527892367024,0.3473265773767645,-0.1031800316149443,-0.8169082287575127,-0.4748632311820984,0.8048540353775024,-0.3559703528881073,0,0,0,-1,-1,32017.52062666667,unknown,2,2025-04-22T13:03:32.007+03:00,2025-04-21T17:08:51.449+03:00,7397,0.9991471,0,0,6162.221,5,20,2025-04-22T12:58:04.401+03:00,767009012.1094084,0,-21.82,100.4637,1,0.75,2025-04-22T13:03:28.830+03:00,103,1.716666666666667,2025-04-22T09:54:17.825+03:00,0.02225348692287972,0
2025-04-22T13:03:33.815+03:00,1745316208.34092,40.95215778104961,29.14023037110555,75.7112,-1,-1,-1,-1,30,16.89288593580454,-9999,32019.323039,-0.508636474609375,0.73919677734375,-0.363006591796875,32019.320536,-0.2433475944639001,-0.9256925218644595,-0.942122739593985,-0.3970564007759094,0.1647262275218964,0.548584520816803,-0.04985314607620239,-0.07045084238052368,-0.01108810305595398,XArbitraryZVertical,0.4513709840742634,0.3456382115251027,-0.104361420766023,-0.8160312500811299,-0.4698917269706726,0.8088082671165466,-0.3535969257354736,0,0,0,-1,-1,32017.52062666667,unknown,2,2025-04-22T13:03:32.007+03:00,2025-04-21T17:08:51.449+03:00,7397,0.9991471,0,0,6162.221,5,20,2025-04-22T12:58:04.401+03:00,767009012.1094084,0,-21.82,100.4637,1,0.75,2025-04-22T13:03:28.830+03:00,103,1.716666666666667,2025-04-22T09:54:17.825+03:00,0.02225348692287972,0
2025-04-22T13:03:33.825+03:00,1745316208.34092,40.95215778104961,29.14023037110555,75.7112,-1,-1,-1,-1,30,16.89288593580454,-9999,32019.333115,-0.5026702880859375,0.7451019287109375,-0.35675048828125,32019.330613,-0.2431737897562282,-0.9239237647638486,-0.9490624799848348,-0.4136874079704285,0.1608555167913437,0.5656123757362366,-0.04303711652755737,-0.07280337810516357,-0.0109938383102417,XArbitraryZVertical,0.454092675066643,0.3439211519576419,-0.1055713812095113,-0.8150906042140779,-0.464775413274765,0.8128697872161865,-0.3510361611843109,0,0,0,-1,-1,32017.52062666667,unknown,2,2025-04-22T13:03:32.007+03:00,2025-04-21T17:08:51.449+03:00,7397,0.9991471,0,0,6162.221,5,20,2025-04-22T12:58:04.401+03:00,767009012.1094084,0,-21.82,100.4637,1,0.75,2025-04-22T13:03:28.830+03:00,103,1.716666666666667,2025-04-22T09:54:17.825+03:00,0.02225348692287972,0
2025-04-22T13:03:33.835+03:00,1745316208.34092,40.95215778104961,29.14023037110555,75.7112,-1,-1,-1,-1,30,16.89288593580454,-9999,32019.343191,-0.489898681640625,0.7542572021484375,-0.3519134521484375,32019.340689,-0.2429611946453394,-0.9220901449754849,-0.9561926006890108,-0.4183154404163361,0.1697696596384048,0.5783912539482117,-0.04202526807785034,-0.07054221630096436,-0.007732361555099487,XArbitraryZVertical,0.4568812187755735,0.342156313658494,-0.1068182451420339,-0.8141119746398435,-0.4595006108283997,0.81700199842453,-0.3483772277832031,0,0,0,-1,-1,32017.52062666667,unknown,2,2025-04-22T13:03:32.007+03:00,2025-04-21T17:08:51.449+03:00,7397,0.9991471,0,0,6162.221,5,20,2025-04-22T12:58:04.401+03:00,767009012.1094084,0,-21.82,100.4637,1,0.75,2025-04-22T13:03:28.830+03:00,103,1.716666666666667,2025-04-22T09:54:17.825+03:00,0.02225348692287972,0
2025-04-22T13:03:33.845+03:00,1745316208.34092,40.95215778104961,29.14023037110555,75.7112,-1,-1,-1,-1,30,16.89288593580454,-9999,32019.353268,-0.480377197265625,0.76556396484375,-0.351776123046875,32019.350766,-0.2426027074333247,-0.9200104801631758,-0.9634125003163124,-0.4167626798152924,0.1804711669683456,0.5859522819519043,-0.03363129496574402,-0.06510162353515625,-0.005950301885604858,XArbitraryZVertical,0.45968955288173,0.3403098083730113,-0.108080979648245,-0.8131377928875956,-0.4540701508522034,0.8211439251899719,-0.3457494974136353,0,0,0,-1,-1,32017.52062666667,unknown,2,2025-04-22T13:03:32.007+03:00,2025-04-21T17:08:51.449+03:00,7397,0.9991471,0,0,6162.221,5,20,2025-04-22T12:58:04.401+03:00,767009012.1094084,0,-21.82,100.4637,1,0.75,2025-04-22T13:03:28.830+03:00,103,1.716666666666667,2025-04-22T09:54:17.825+03:00,0.02225348692287972,0
2025-04-22T13:03:33.855+03:00,1745316208.34092,40.95215778104961,29.14023037110555,75.7112,-1,-1,-1,-1,30,16.89288593580454,-9999,32019.363344,-0.47662353515625,0.775970458984375,-0.35028076171875,32019.360842,-0.2421296333418002,-0.9178176278227288,-0.9706719507972448,-0.4208799302577972,0.178070604801178,0.5905462503433228,-0.03207224607467651,-0.05762630701065063,-0.008128345012664795,XArbitraryZVertical,0.4624971984007182,0.3384368227497429,-0.1093650815404557,-0.8121552322049613,-0.4485643804073334,0.8252654075622559,-0.3431137204170227,0,0,0,-1,-1,32017.52062666667,unknown,2,2025-04-22T13:03:32.007+03:00,2025-04-21T17:08:51.449+03:00,7397,0.9991471,0,0,6162.221,5,20,2025-04-22T12:58:04.401+03:00,767009012.1094084,0,-21.82,100.4637,1,0.75,2025-04-22T13:03:28.830+03:00,103,1.716666666666667,2025-04-22T09:54:17.825+03:00,0.02225348692287972,0
