loggingTime(txt),locationTimestamp_since1970(s),locationLatitude(WGS84),locationLongitude(WGS84),locationAltitude(m),locationSpeed(m/s),locationSpeedAccuracy(m/s),locationCourse(°),locationCourseAccuracy(°),locationVerticalAccuracy(m),locationHorizontalAccuracy(m),locationFloor(Z),accelerometerTimestamp_sinceReboot(s),accelerometerAccelerationX(G),accelerometerAccelerationY(G),accelerometerAccelerationZ(G),motionTimestamp_sinceReboot(s),motionYaw(rad),motionRoll(rad),motionPitch(rad),motionRotationRateX(rad/s),motionRotationRateY(rad/s),motionRotationRateZ(rad/s),motionUserAccelerationX(G),motionUserAccelerationY(G),motionUserAccelerationZ(G),motionAttitudeReferenceFrame(txt),motionQuaternionX(R),motionQuaternionY(R),motionQuaternionZ(R),motionQuaternionW(R),motionGravityX(G),motionGravityY(G),motionGravityZ(G),motionMagneticFieldX(µT),motionMagneticFieldY(µT),motionMagneticFieldZ(µT),motionHeading(°),motionMagneticFieldCalibrationAccuracy(Z),activityTimestamp_sinceReboot(s),activity(txt),activityActivityConfidence(Z),activityActivityStartDate(txt),pedometerStartDate(txt),pedometerNumberofSteps(N),pedometerAverageActivePace(s/m),pedometerCurrentPace(s/m),pedometerCurrentCadence(steps/s),pedometerDistance(m),pedometerFloorAscended(N),pedometerFloorDescended(N),pedometerEndDate(txt),altimeterTimestamp_sinceReboot(s),altimeterReset(bool),altimeterRelativeAltitude(m),altimeterPressure(kPa),batteryState(N),batteryLevel(R),heartRateBPMTimestamp(txt),heartRateBPM(N),heartRateBPS(R),heartRateVariabilityTimestamp(txt),heartRateVariability(ms),label
2025-04-22T13:45:13.061+03:00,1745318711.972957,40.95229131942952,29.14028466175749,76.45007,-1,-1,-1,-1,30,31.46988262717221,-9999,34092.191099125,-0.825927734375,0.599700927734375,-0.1856689453125,34092.18355912501,-0.2459863570010401,-1.343358147056943,-0.6394004729267271,-0.0261395052075386,0.0693260133266449,0.02131296508014202,0.0148051381111145,-0.01994752883911133,0.01225326955318451,XArbitraryZVertical,0.3166320840581917,0.5561245603106587,-0.1029329163799469,-0.7614948618536019,-0.7817882895469666,0.5967144370079041,-0.1809391975402832,0,0,0,-1,-1,34072.750615375,unknown,2,2025-04-22T13:44:53.593+03:00,2025-04-21T17:08:51.449+03:00,7472,1.022023,0,0,6219.038,5,20,2025-04-22T13:45:01.331+03:00,767011504.0055095,0,-20.21,100.4483,1,0.65,2025-04-22T13:42:20.228+03:00,86,1.433333333333333,2025-04-22T09:54:17.825+03:00,0.02225348692287972,0
2025-04-22T13:45:13.062+03:00,1745318711.972957,40.95229131942952,29.14028466175749,76.45007,-1,-1,-1,-1,30,31.46988262717221,-9999,34092.201175125,-0.77069091796875,0.5980377197265625,-0.1768798828125,34092.193635125,-0.2461876103901323,-1.342999219205173,-0.6397269318389613,-0.01858225464820862,0.02913544699549675,0.02256038971245289,-0.04808688163757324,0.00156480073928833,-0.004249036312103271,XArbitraryZVertical,0.3168229711079608,0.5559094457365181,-0.1029000616712541,-0.7615769748304433,-0.7815334796905518,0.5969763994216919,-0.1811757832765579,0,0,0,-1,-1,34072.750615375,unknown,2,2025-04-22T13:44:53.593+03:00,2025-04-21T17:08:51.449+03:00,7472,1.022023,0,0,6219.038,5,20,2025-04-22T13:45:01.331+03:00,767011504.0055095,0,-20.21,100.4483,1,0.65,2025-04-22T13:42:20.228+03:00,86,1.433333333333333,2025-04-22T09:54:17.825+03:00,0.02225348692287972,0
2025-04-22T13:45:13.063+03:00,1745318711.972957,40.95229131942952,29.14028466175749,76.45007,-1,-1,-1,-1,30,31.46988262717221,-9999,34092.211251125,-0.775970458984375,0.60272216796875,-0.174407958984375,34092.203711125,-0.2463172634639165,-1.34273368754782,-0.6399936554989671,-0.01006093714386225,0.04478231817483902,0.01822715997695923,-0.0080375075340271,0.0005726814270019531,0.0009273737668991089,XArbitraryZVertical,0.3169678208617485,0.555749718432433,-0.1028908016502614,-0.7616345454997502,-0.7813302278518677,0.5971903800964355,-0.1813472956418991,0,0,0,-1,-1,34072.750615375,unknown,2,2025-04-22T13:44:53.593+03:00,2025-04-21T17:08:51.449+03:00,7472,1.022023,0,0,6219.038,5,20,2025-04-22T13:45:01.331+03:00,767011504.0055095,0,-20.21,100.4483,1,0.65,2025-04-22T13:42:20.228+03:00,86,1.433333333333333,2025-04-22T09:54:17.825+03:00,0.02225348692287972,0
2025-04-22T13:45:13.069+03:00,1745318711.972957,40.95229131942952,29.14028466175749,76.45007,-1,-1,-1,-1,30,31.46988262717221,-9999,34092.221327125,-0.788055419921875,0.6027984619140625,-0.168975830078125,34092.213787125,-0.246303500746945,-1.34225825016223,-0.6402144688596849,0.01200541667640209,0.04667282849550247,0.01615465432405472,0.01376616954803467,0.002943813800811768,0.007570847868919373,XArbitraryZVertical,0.3170672418139648,0.5555393096189578,-0.1028887075076671,-0.7617469505091428,-0.7811154723167419,0.5973674654960632,-0.1816888749599457,0,0,0,-1,-1,34072.750615375,unknown,2,2025-04-22T13:44:53.593+03:00,2025-04-21T17:08:51.449+03:00,7472,1.022023,0,0,6219.038,5,20,2025-04-22T13:45:01.331+03:00,767011504.0055095,0,-20.21,100.4483,1,0.65,2025-04-22T13:42:20.228+03:00,86,1.433333333333333,2025-04-22T09:54:17.825+03:00,0.02225348692287972,0
2025-04-22T13:45:13.079+03:00,1745318711.972957,40.95229131942952,29.14028466175749,76.45007,-1,-1,-1,-1,30,31.46988262717221,-9999,34092.23140429167,-0.7782135009765625,0.5897064208984375,-0.16668701171875,34092.223863125,-0.2459853032840832,-1.341666691174844,-0.6403122360122032,0.02907335013151169,0.03714030981063843,0.00715689966455102,-0.00719606876373291,0.006969869136810303,0.009438648819923401,XArbitraryZVertical,0.317044228451867,0.5553504752186431,-0.1029462912719325,-0.7618863056232804,-0.7809507846832275,0.5974458456039429,-0.1821376085281372,0,0,0,-1,-1,34072.750615375,unknown,2,2025-04-22T13:44:53.593+03:00,2025-04-21T17:08:51.449+03:00,7472,1.022023,0,0,6219.038,5,20,2025-04-22T13:45:01.331+03:00,767011504.0055095,0,-20.21,100.4483,1,0.65,2025-04-22T13:42:20.228+03:00,86,1.433333333333333,2025-04-22T09:54:17.825+03:00,0.02225348692287972,0
2025-04-22T13:45:13.089+03:00,1745318711.972957,40.95229131942952,29.14028466175749,76.45007,-1,-1,-1,-1,30,31.46988262717221,-9999,34092.24148029167,-0.776580810546875,0.5886688232421875,-0.164154052734375,34092.23394029167,-0.2457500648988198,-1.341209089269892,-0.6403000011003019,0.01697727292776108,0.02577979862689972,0.001924054231494665,-0.0007264018058776855,-0.002801120281219482,0.01660311222076416,XArbitraryZVertical,0.3169981038370491,0.5552151746218928,-0.1029596075725111,-0.7620023041972122,-0.780874490737915,0.5974360704421997,-0.1824966222047806,0,0,0,-1,-1,34072.750615375,unknown,2,2025-04-22T13:44:53.593+03:00,2025-04-21T17:08:51.449+03:00,7472,1.022023,0,0,6219.038,5,20,2025-04-22T13:45:01.331+03:00,767011504.0055095,0,-20.21,100.4483,1,0.65,2025-04-22T13:42:20.228+03:00,86,1.433333333333333,2025-04-22T09:54:17.825+03:00,0.02225348692287972,0
2025-04-22T13:45:13.099+03:00,1745318711.972957,40.95229131942952,29.14028466175749,76.45007,-1,-1,-1,-1,30,31.46988262717221,-9999,34092.25155629167,-0.77655029296875,0.593505859375,-0.1671295166015625,34092.24401629167,-0.2455042975860354,-1.340851510772606,-0.640293725705927,0.01491784956306219,0.02633346989750862,0.01081927865743637,0.004232108592987061,-0.01073062419891357,0.01647120714187622,XArbitraryZVertical,0.3169460480379203,0.5551187732680581,-0.1029946373882899,-0.762089480544817,-0.7808128595352173,0.5974310040473938,-0.1827767044305801,0,0,0,-1,-1,34072.750615375,unknown,2,2025-04-22T13:44:53.593+03:00,2025-04-21T17:08:51.449+03:00,7472,1.022023,0,0,6219.038,5,20,2025-04-22T13:45:01.331+03:00,767011504.0055095,0,-20.21,100.4483,1,0.65,2025-04-22T13:42:20.228+03:00,86,1.433333333333333,2025-04-22T09:54:17.825+03:00,0.02225348692287972,0
2025-04-22T13:45:13.108+03:00,1745318711.972957,40.95229131942952,29.14028466175749,76.45007,-1,-1,-1,-1,30,31.46988262717221,-9999,34092.26163229167,-0.786163330078125,0.592529296875,-0.17681884765625,34092.25409229167,-0.2453775742241333,-1.340374588904393,-0.6404109721804202,-0.0009718346991576254,0.05650448799133301,0.01903436332941055,0.005007386207580566,-0.005896091461181641,0.01948261260986328,XArbitraryZVertical,0.3169773181232683,0.5549404012770061,-0.1030034289307521,-0.7622051704779231,-0.7806574106216431,0.5975250005722046,-0.183133065700531,0,0,0,-1,-1,34072.750615375,unknown,2,2025-04-22T13:44:53.593+03:00,2025-04-21T17:08:51.449+03:00,7472,1.022023,0,0,6219.038,5,20,2025-04-22T13:45:01.331+03:00,767011504.0055095,0,-20.21,100.4483,1,0.65,2025-04-22T13:42:20.228+03:00,86,1.433333333333333,2025-04-22T09:54:17.825+03:00,0.02225348692287972,0
2025-04-22T13:45:13.118+03:00,1745318711.972957,40.95229131942952,29.14028466175749,76.45007,-1,-1,-1,-1,30,31.46988262717221,-9999,34092.27170829167,-0.7833099365234375,0.5933990478515625,-0.1750335693359375,34092.26416829167,-0.2453519164172304,-1.339759185745395,-0.6405892005301654,0.002051918301731348,0.06340553611516953,0.01991134323179722,-0.002334952354431152,-0.003658652305603027,0.009074285626411438,XArbitraryZVertical,0.3170655628424217,0.5546845108931071,-0.1029704970193751,-0.7623591301359806,-0.7804408073425293,0.597667932510376,-0.1835890412330627,0,0,0,-1,-1,34072.750615375,unknown,2,2025-04-22T13:44:53.593+03:00,2025-04-21T17:08:51.449+03:00,7472,1.022023,0,0,6219.038,5,20,2025-04-22T13:45:01.331+03:00,767011504.0055095,0,-20.21,100.4483,1,0.65,2025-04-22T13:42:20.228+03:00,86,1.433333333333333,2025-04-22T09:54:17.825+03:00,0.02225348692287972,0
2025-04-22T13:45:13.129+03:00,1745318711.972957,40.95229131942952,29.14028466175749,76.45007,-1,-1,-1,-1,30,31.46988262717221,-9999,34092.28178429167,-0.775909423828125,0.60540771484375,-0.169952392578125,34092.27424429167,-0.2451734130775262,-1.339003792527099,-0.6406889572276817,0.01724199019372463,0.06785587966442108,0.01576889678835869,-0.005644679069519043,-0.006378293037414551,0.007147654891014099,XArbitraryZVertical,0.3170905757314416,0.5544106119183868,-0.1029494103829659,-0.7625509161313303,-0.7802440524101257,0.5977479219436646,-0.1841648817062378,0,0,0,-1,-1,34072.750615375,unknown,2,2025-04-22T13:44:53.593+03:00,2025-04-21T17:08:51.449+03:00,7472,1.022023,0,0,6219.038,5,20,2025-04-22T13:45:01.331+03:00,767011504.0055095,0,-20.21,100.4483,1,0.65,2025-04-22T13:42:20.228+03:00,86,1.433333333333333,2025-04-22T09:54:17.825+03:00,0.02225348692287972,0
2025-04-22T13:45:13.139+03:00,1745318711.972957,40.95229131942952,29.14028466175749,76.45007,-1,-1,-1,-1,30,31.46988262717221,-9999,34092.29186129167,-0.7724151611328125,0.6052398681640625,-0.176544189453125,34092.28432029167,-0.2448630639102016,-1.338174615330654,-0.6407718795906082,0.02398165129125118,0.05936625599861145,0.01078479085117579,0.002058148384094238,0.002786815166473389,0.01448176801204681,XArbitraryZVertical,0.3170768913367367,0.5541318158941032,-0.1029617781159609,-0.7627575578794358,-0.7800428867340088,0.5978143811225891,-0.1848003566265106,0,0,0,-1,-1,34072.750615375,unknown,2,2025-04-22T13:44:53.593+03:00,2025-04-21T17:08:51.449+03:00,7472,1.022023,0,0,6219.038,5,20,2025-04-22T13:45:01.331+03:00,767011504.0055095,0,-20.21,100.4483,1,0.65,2025-04-22T13:42:20.228+03:00,86,1.433333333333333,2025-04-22T09:54:17.825+03:00,0.02225348692287972,0
2025-04-22T13:45:13.149+03:00,1745318711.972957,40.95229131942952,29.14028466175749,76.45007,-1,-1,-1,-1,30,31.46988262717221,-9999,34092.30193729167,-0.770111083984375,0.5904541015625,-0.1760711669921875,34092.29439729167,-0.2446252878428472,-1.337534742322255,-0.6407663470044512,0.01667427085340023,0.03940140455961227,-0.006469930056482553,0.006291747093200684,0.01064950227737427,0.01160942018032074,XArbitraryZVertical,0.3170419823631406,0.5539262370464954,-0.1029493275260756,-0.7629230659123327,-0.779927670955658,0.5978099703788757,-0.1853002160787582,0,0,0,-1,-1,34072.750615375,unknown,2,2025-04-22T13:44:53.593+03:00,2025-04-21T17:08:51.449+03:00,7472,1.022023,0,0,6219.038,5,20,2025-04-22T13:45:01.331+03:00,767011504.0055095,0,-20.21,100.4483,1,0.65,2025-04-22T13:42:20.228+03:00,86,1.433333333333333,2025-04-22T09:54:17.825+03:00,0.02225348692287972,0
2025-04-22T13:45:13.159+03:00,1745318711.972957,40.95229131942952,29.14028466175749,76.45007,-1,-1,-1,-1,30,31.46988262717221,-9999,34092.31201329167,-0.767822265625,0.58831787109375,-0.1738128662109375,34092.30447329167,-0.2446187605067976,-1.33725780427172,-0.6406726208316177,-0.009047072380781174,0.02172546833753586,-0.01397711504250765,0.009270250797271729,-0.001940369606018066,0.007794767618179321,XArbitraryZVertical,0.3170209455111539,0.5538349740328908,-0.1028792207183662,-0.7630073001896063,-0.7799305319786072,0.597734808921814,-0.1855290830135345,0,0,0,-1,-1,34072.750615375,unknown,2,2025-04-22T13:44:53.593+03:00,2025-04-21T17:08:51.449+03:00,7472,1.022023,0,0,6219.038,5,20,2025-04-22T13:45:01.331+03:00,767011504.0055095,0,-20.21,100.4483,1,0.65,2025-04-22T13:42:20.228+03:00,86,1.433333333333333,2025-04-22T09:54:17.825+03:00,0.02225348692287972,0
2025-04-22T13:45:13.169+03:00,1745318711.972957,40.95229131942952,29.14028466175749,76.45007,-1,-1,-1,-1,30,31.46988262717221,-9999,34092.32208929167,-0.768524169921875,0.595184326171875,-0.1774444580078125,34092.31454929167,-0.2449394799001193,-1.33735286789235,-0.640554582498677,-0.02874840423464775,0.004511794541031122,-0.02045688591897488,0.01129448413848877,-0.0105736255645752,0.01196366548538208,XArbitraryZVertical,0.3170626239817397,0.5538371932576205,-0.1027356311212289,-0.7630078634313318,-0.7800170183181763,0.5976401567459106,-0.185471311211586,0,0,0,-1,-1,34072.750615375,unknown,2,2025-04-22T13:44:53.593+03:00,2025-04-21T17:08:51.449+03:00,7472,1.022023,0,0,6219.038,5,20,2025-04-22T13:45:01.331+03:00,767011504.0055095,0,-20.21,100.4483,1,0.65,2025-04-22T13:42:20.228+03:00,86,1.433333333333333,2025-04-22T09:54:17.825+03:00,0.02225348692287972,0
2025-04-22T13:45:13.179+03:00,1745318711.972957,40.95229131942952,29.14028466175749,76.45007,-1,-1,-1,-1,30,31.46988262717221,-9999,34092.33216529167,-0.774322509765625,0.59832763671875,-0.179473876953125,34092.32462529167,-0.245362672107915,-1.337610233813195,-0.6404692719158531,-0.02514488250017166,0.002022271510213614,-0.01297020632773638,0.01203268766403198,-0.003852307796478271,0.008875533938407898,XArbitraryZVertical,0.3171360803575478,0.5538804223732368,-0.1025887553823437,-0.7629658059343417,-0.780114471912384,0.5975717902183533,-0.185282364487648,0,0,0,-1,-1,34072.750615375,unknown,2,2025-04-22T13:44:53.593+03:00,2025-04-21T17:08:51.449+03:00,7472,1.022023,0,0,6219.038,5,20,2025-04-22T13:45:01.331+03:00,767011504.0055095,0,-20.21,100.4483,1,0.65,2025-04-22T13:42:20.228+03:00,86,1.433333333333333,2025-04-22T09:54:17.825+03:00,0.02225348692287972,0
2025-04-22T13:45:13.189+03:00,1745318711.972957,40.95229131942952,29.14028466175749,76.45007,-1,-1,-1,-1,30,31.46988262717221,-9999,34092.34224129167,-0.783203125,0.597564697265625,-0.1832122802734375,34092.33470129167,-0.2456850792205356,-1.337793797924545,-0.6404090968837954,-0.01490089949220419,0.004693288821727037,-0.008707085624337196,0.008790433406829834,0.0002393722534179688,0.007001057267189026,XArbitraryZVertical,0.3171944777853907,0.5539079001403683,-0.1024764595032916,-0.7629364934716717,-0.7801831960678101,0.5975235104560852,-0.1851474046707153,0,0,0,-1,-1,34072.750615375,unknown,2,2025-04-22T13:44:53.593+03:00,2025-04-21T17:08:51.449+03:00,7472,1.022023,0,0,6219.038,5,20,2025-04-22T13:45:01.331+03:00,767011504.0055095,0,-20.21,100.4483,1,0.65,2025-04-22T13:42:20.228+03:00,86,1.433333333333333,2025-04-22T09:54:17.825+03:00,0.02225348692287972,0
2025-04-22T13:45:13.199+03:00,1745318711.972957,40.95229131942952,29.14028466175749,76.45007,-1,-1,-1,-1,30,31.46988262717221,-9999,34092.35231829167,-0.7858123779296875,0.6015777587890625,-0.1856231689453125,34092.34477729167,-0.2457964482411002,-1.337787689573963,-0.6403640026679288,0.003241352504119277,0.0141555005684495,-0.00311471289023757,-6.508827209472656e-05,0.0001993179321289062,0.003365218639373779,XArbitraryZVertical,0.3172095039245971,0.5538943303713924,-0.1024191392066874,-0.7629478306031739,-0.7802082896232605,0.5974873900413513,-0.1851584017276764,0,0,0,-1,-1,34072.750615375,unknown,2,2025-04-22T13:44:53.593+03:00,2025-04-21T17:08:51.449+03:00,7472,1.022023,0,0,6219.038,5,20,2025-04-22T13:45:01.331+03:00,767011504.0055095,0,-20.21,100.4483,1,0.65,2025-04-22T13:42:20.228+03:00,86,1.433333333333333,2025-04-22T09:54:17.825+03:00,0.02225348692287972,0
2025-04-22T13:45:13.209+03:00,1745318711.972957,40.95229131942952,29.14028466175749,76.45007,-1,-1,-1,-1,30,31.46988262717221,-9999,34092.36239429167,-0.7876129150390625,0.6061553955078125,-0.181854248046875,34092.35485429167,-0.2456704612931424,-1.337589830679899,-0.6403023251672595,0.01461964193731546,0.01776268519461155,0.0007476360769942403,-0.005330145359039307,0.00200355052947998,-1.192092895507812e-05,XArbitraryZVertical,0.3171626847020848,0.5538476160795167,-0.1024168615159046,-0.7630015477098698,-0.7802075743675232,0.5974379181861877,-0.1853213012218475,0,0,0,-1,-1,34072.750615375,unknown,2,2025-04-22T13:44:53.593+03:00,2025-04-21T17:08:51.449+03:00,7472,1.022023,0,0,6219.038,5,20,2025-04-22T13:45:01.331+03:00,767011504.0055095,0,-20.21,100.4483,1,0.65,2025-04-22T13:42:20.228+03:00,86,1.433333333333333,2025-04-22T09:54:17.825+03:00,0.02225348692287972,0
2025-04-22T13:45:13.219+03:00,1745318711.972957,40.95229131942952,29.14028466175749,76.45007,-1,-1,-1,-1,30,31.46988262717221,-9999,34092.37247029167,-0.783447265625,0.60247802734375,-0.175567626953125,34092.36493029167,-0.2455127306935439,-1.33731693529478,-0.6403316087086769,0.01079267915338278,0.02482352405786514,0.007908344268798828,-0.007717013359069824,0.007885217666625977,0.0009751319885253906,XArbitraryZVertical,0.3171434483188747,0.5537643409878377,-0.1024427405456321,-0.7630665549171296,-0.7801399827003479,0.5974614024162292,-0.1855301707983017,0,0,0,-1,-1,34072.750615375,unknown,2,2025-04-22T13:44:53.593+03:00,2025-04-21T17:08:51.449+03:00,7472,1.022023,0,0,6219.038,5,20,2025-04-22T13:45:01.331+03:00,767011504.0055095,0,-20.21,100.4483,1,0.65,2025-04-22T13:42:20.228+03:00,86,1.433333333333333,2025-04-22T09:54:17.825+03:00,0.02225348692287972,0
2025-04-22T13:45:13.229+03:00,1745318711.972957,40.95229131942952,29.14028466175749,76.45007,-1,-1,-1,-1,30,31.46988262717221,-9999,34092.38254629167,-0.7825927734375,0.5936737060546875,-0.176055908203125,34092.37500629167,-0.2453637892129759,-1.336938536829581,-0.6404525022922335,0.00610857829451561,0.03909021243453026,0.01498815696686506,-0.005156815052032471,0.007498264312744141,0.007967427372932434,XArbitraryZVertical,0.3171648670710874,0.5536263707184084,-0.1024767423530763,-0.7631530581320851,-0.7799992561340332,0.597558319568634,-0.1858085840940475,0,0,0,-1,-1,34072.750615375,unknown,2,2025-04-22T13:44:53.593+03:00,2025-04-21T17:08:51.449+03:00,7472,1.022023,0,0,6219.038,5,20,2025-04-22T13:45:01.331+03:00,767011504.0055095,0,-20.21,100.4483,1,0.65,2025-04-22T13:42:20.228+03:00,86,1.433333333333333,2025-04-22T09:54:17.825+03:00,0.02225348692287972,0
2025-04-22T13:45:13.239+03:00,1745318711.972957,40.95229131942952,29.14028466175749,76.45007,-1,-1,-1,-1,30,31.46988262717221,-9999,34092.39262229167,-0.7740478515625,0.5890045166015625,-0.17474365234375,34092.38508229167,-0.24534032262357,-1.336553189630152,-0.6406267964205398,-0.003632199252024293,0.03155799210071564,0.01610482111573219,-0.003346145153045654,-0.000499725341796875,0.01073099672794342,XArbitraryZVertical,0.3172404551596157,0.5534582232308222,-0.1024780681629511,-0.7632434764245342,-0.7798264026641846,0.5976980924606323,-0.186084970831871,0,0,0,-1,-1,34072.750615375,unknown,2,2025-04-22T13:44:53.593+03:00,2025-04-21T17:08:51.449+03:00,7472,1.022023,0,0,6219.038,5,20,2025-04-22T13:45:01.331+03:00,767011504.0055095,0,-20.21,100.4483,1,0.65,2025-04-22T13:42:20.228+03:00,86,1.433333333333333,2025-04-22T09:54:17.825+03:00,0.02225348692287972,0
2025-04-22T13:45:13.249+03:00,1745318711.972957,40.95229131942952,29.14028466175749,76.45007,-1,-1,-1,-1,30,31.46988262717221,-9999,34092.40269829167,-0.768646240234375,0.5988006591796875,-0.180938720703125,34092.39515829167,-0.2453356046758593,-1.336305590678535,-0.6408218185839905,0.006412578281015158,0.01621885038912296,0.01866525039076805,0.001407742500305176,-0.007751345634460449,0.01080548763275146,XArbitraryZVertical,0.3173215981924692,0.5533367049235969,-0.102500429251101,-0.7632949033862774,-0.7796669602394104,0.5978544354438782,-0.1862509846687317,0,0,0,-1,-1,34072.750615375,unknown,2,2025-04-22T13:44:53.593+03:00,2025-04-21T17:08:51.449+03:00,7472,1.022023,0,0,6219.038,5,20,2025-04-22T13:45:01.331+03:00,767011504.0055095,0,-20.21,100.4483,1,0.65,2025-04-22T13:42:20.228+03:00,86,1.433333333333333,2025-04-22T09:54:17.825+03:00,0.02225348692287972,0
2025-04-22T13:45:13.259+03:00,1745318711.972957,40.95229131942952,29.14028466175749,76.45007,-1,-1,-1,-1,30,31.46988262717221,-9999,34092.41277529167,-0.7706146240234375,0.60870361328125,-0.1879730224609375,34092.40523429167,-0.2450747022263732,-1.336062740699085,-0.6409978261728737,0.02692184783518314,0.005101218353956938,0.0248738769441843,0.01032376289367676,-0.004779696464538574,0.009322360157966614,XArbitraryZVertical,0.3173248648821919,0.5532603566537432,-0.1026155235605648,-0.7633333333683704,-0.779519259929657,0.5979955196380615,-0.186415821313858,0,0,0,-1,-1,34072.750615375,unknown,2,2025-04-22T13:44:53.593+03:00,2025-04-21T17:08:51.449+03:00,7472,1.022023,0,0,6219.038,5,20,2025-04-22T13:45:01.331+03:00,767011504.0055095,0,-20.21,100.4483,1,0.65,2025-04-22T13:42:20.228+03:00,86,1.433333333333333,2025-04-22T09:54:17.825+03:00,0.02225348692287972,0
2025-04-22T13:45:13.269+03:00,1745318711.972957,40.95229131942952,29.14028466175749,76.45007,-1,-1,-1,-1,30,31.46988262717221,-9999,34092.42285129167,-0.7717437744140625,0.6050872802734375,-0.185882568359375,34092.41531129167,-0.2446456645292109,-1.335828823365939,-0.6411339878666265,0.03606188297271729,-0.005514608230441809,0.01373990066349506,0.009804189205169678,0.00786745548248291,7.107853889465332e-05,XArbitraryZVertical,0.3172669282661791,0.5532197625497238,-0.102783959633729,-0.7633641350700855,-0.7793963551521301,0.5981045961380005,-0.1865791827440262,0,0,0,-1,-1,34072.750615375,unknown,2,2025-04-22T13:44:53.593+03:00,2025-04-21T17:08:51.449+03:00,7472,1.022023,0,0,6219.038,5,20,2025-04-22T13:45:01.331+03:00,767011504.0055095,0,-20.21,100.4483,1,0.65,2025-04-22T13:42:20.228+03:00,86,1.433333333333333,2025-04-22T09:54:17.825+03:00,0.02225348692287972,0
2025-04-22T13:45:13.280+03:00,1745318711.972957,40.95229131942952,29.14028466175749,76.45007,-1,-1,-1,-1,30,31.46988262717221,-9999,34092.43292729167,-0.77349853515625,0.6038360595703125,-0.182098388671875,34092.42538729167,-0.2441344324812278,-1.335638419035341,-0.6410991786838035,0.04610918834805489,-0.01518348045647144,-0.001157822320237756,0.007484853267669678,0.008597314357757568,-0.0008895844221115112,XArbitraryZVertical,0.3171228411772483,0.5532331172592259,-0.1029382002435375,-0.7633935833373611,-0.7793810963630676,0.5980767011642456,-0.1867324411869049,0,0,0,-1,-1,34072.750615375,unknown,2,2025-04-22T13:44:53.593+03:00,2025-04-21T17:08:51.449+03:00,7472,1.022023,0,0,6219.038,5,20,2025-04-22T13:45:01.331+03:00,767011504.0055095,0,-20.21,100.4483,1,0.65,2025-04-22T13:42:20.228+03:00,86,1.433333333333333,2025-04-22T09:54:17.825+03:00,0.02225348692287972,0
2025-04-22T13:45:13.290+03:00,1745318711.972957,40.95229131942952,29.14028466175749,76.45007,-1,-1,-1,-1,30,31.46988262717221,-9999,34092.44300329167,-0.7809600830078125,0.6152496337890625,-0.181915283203125,34092.43546329167,-0.243499403199807,-1.335369181235049,-0.6409353962443127,0.05953545123338699,-0.006401240825653076,-0.008321359753608704,0.007133066654205322,0.004364609718322754,0.003936007618904114,XArbitraryZVertical,0.3169024085441903,0.5532542797668361,-0.103087678977389,-0.7634496380156043,-0.779426097869873,0.5979454517364502,-0.186965137720108,0,0,0,-1,-1,34072.750615375,unknown,2,2025-04-22T13:44:53.593+03:00,2025-04-21T17:08:51.449+03:00,7472,1.022023,0,0,6219.038,5,20,2025-04-22T13:45:01.331+03:00,767011504.0055095,0,-20.21,100.4483,1,0.65,2025-04-22T13:42:20.228+03:00,86,1.433333333333333,2025-04-22T09:54:17.825+03:00,0.02225348692287972,0
2025-04-22T13:45:13.300+03:00,1745318711.972957,40.95229131942952,29.14028466175749,76.45007,-1,-1,-1,-1,30,31.46988262717221,-9999,34092.45307929167,-0.786834716796875,0.6162109375,-0.1782379150390625,34092.44553929167,-0.2427327001710784,-1.33491195639177,-0.6406814075606503,0.07465048879384995,0.005678325425833464,-0.01504717208445072,0.002098739147186279,0.01344883441925049,0.004892408847808838,XArbitraryZVertical,0.3166229391175621,0.5532372187672653,-0.1032300581292296,-0.7635587579859213,-0.7794882655143738,0.5977418422698975,-0.1873569935560226,0,0,0,-1,-1,34072.750615375,unknown,2,2025-04-22T13:44:53.593+03:00,2025-04-21T17:08:51.449+03:00,7472,1.022023,0,0,6219.038,5,20,2025-04-22T13:45:01.331+03:00,767011504.0055095,0,-20.21,100.4483,1,0.65,2025-04-22T13:42:20.228+03:00,86,1.433333333333333,2025-04-22T09:54:17.825+03:00,0.02225348692287972,0
2025-04-22T13:45:13.310+03:00,1745318711.972957,40.95229131942952,29.14028466175749,76.45007,-1,-1,-1,-1,30,31.46988262717221,-9999,34092.46315529167,-0.7823028564453125,0.607391357421875,-0.176055908203125,34092.45561529167,-0.2416936592212342,-1.334217178748988,-0.6403404026117467,0.1035816073417664,0.0118207735940814,-0.01462672650814056,-0.006347894668579102,0.02064979076385498,0.008228302001953125,XArbitraryZVertical,0.3162492467444735,0.5531846635693782,-0.1034123416083107,-0.7637270355865154,-0.7795560359954834,0.5974684357643127,-0.1879462897777557,0,0,0,-1,-1,34072.750615375,unknown,2,2025-04-22T13:44:53.593+03:00,2025-04-21T17:08:51.449+03:00,7472,1.022023,0,0,6219.038,5,20,2025-04-22T13:45:01.331+03:00,767011504.0055095,0,-20.21,100.4483,1,0.65,2025-04-22T13:42:20.228+03:00,86,1.433333333333333,2025-04-22T09:54:17.825+03:00,0.02225348692287972,0
2025-04-22T13:45:13.320+03:00,1745318711.972957,40.95229131942952,29.14028466175749,76.45007,-1,-1,-1,-1,30,31.46988262717221,-9999,34092.47323229167,-0.78106689453125,0.598358154296875,-0.1784515380859375,34092.46569129167,-0.2405858331512259,-1.333433253733417,-0.6400048393960257,0.08543029427528381,0.01735668629407883,-0.00921891164034605,-0.004179656505584717,0.01307588815689087,0.01300632953643799,XArbitraryZVertical,0.3158631269396974,0.5531078118985968,-0.1036087691594957,-0.7639158272182925,-0.7796032428741455,0.5971993207931519,-0.188604474067688,0,0,0,-1,-1,34072.750615375,unknown,2,2025-04-22T13:44:53.593+03:00,2025-04-21T17:08:51.449+03:00,7472,1.022023,0,0,6219.038,5,20,2025-04-22T13:45:01.331+03:00,767011504.0055095,0,-20.21,100.4483,1,0.65,2025-04-22T13:42:20.228+03:00,86,1.433333333333333,2025-04-22T09:54:17.825+03:00,0.02225348692287972,0
2025-04-22T13:45:13.330+03:00,1745318711.972957,40.95229131942952,29.14028466175749,76.45007,-1,-1,-1,-1,30,31.46988262717221,-9999,34092.48330829167,-0.775299072265625,0.5864105224609375,-0.185760498046875,34092.47576829167,-0.239758875853795,-1.332810716824314,-0.6397076517620213,0.0606541782617569,0.009190701879560947,-0.0174027718603611,-0.001408755779266357,0.004937231540679932,0.01174816489219666,XArbitraryZVertical,0.3155600984521092,0.5530425086717085,-0.1037353861087111,-0.7640712032130239,-0.7796581983566284,0.5969609022140503,-0.1891316175460815,0,0,0,-1,-1,34072.750615375,unknown,2,2025-04-22T13:44:53.593+03:00,2025-04-21T17:08:51.449+03:00,7472,1.022023,0,0,6219.038,5,20,2025-04-22T13:45:01.331+03:00,767011504.0055095,0,-20.21,100.4483,1,0.65,2025-04-22T13:42:20.228+03:00,86,1.433333333333333,2025-04-22T09:54:17.825+03:00,0.02225348692287972,0
2025-04-22T13:45:13.340+03:00,1745318711.972957,40.95229131942952,29.14028466175749,76.45007,-1,-1,-1,-1,30,31.46988262717221,-9999,34092.49338429167,-0.76885986328125,0.5784912109375,-0.18914794921875,34092.48584429167,-0.2393012356340781,-1.332596121528551,-0.6394131031106535,0.02356593124568462,-0.01746008358895779,-0.02544418722391129,0.001208662986755371,-0.006545186042785645,0.006997913122177124,XArbitraryZVertical,0.315338983426253,0.5530742456176806,-0.1037862270617403,-0.7641326285148856,-0.7797884941101074,0.5967245697975159,-0.1893404126167297,0,0,0,-1,-1,34072.750615375,unknown,2,2025-04-22T13:44:53.593+03:00,2025-04-21T17:08:51.449+03:00,7472,1.022023,0,0,6219.038,5,20,2025-04-22T13:45:01.331+03:00,767011504.0055095,0,-20.21,100.4483,1,0.65,2025-04-22T13:42:20.228+03:00,86,1.433333333333333,2025-04-22T09:54:17.825+03:00,0.02225348692287972,0
2025-04-22T13:45:13.350+03:00,1745318711.972957,40.95229131942952,29.14028466175749,76.45007,-1,-1,-1,-1,30,31.46988262717221,-9999,34092.50346029167,-0.7696990966796875,0.5743865966796875,-0.182861328125,34092.49592029167,-0.2392805348465506,-1.332865254132928,-0.639156775873661,-0.007128064520657063,-0.03431336581707001,-0.02762424945831299,0.009739458560943604,-0.01641041040420532,0.0002017170190811157,XArbitraryZVertical,0.315227336839522,0.553216471979725,-0.103758173232129,-0.7640793885414345,-0.7799877524375916,0.596518874168396,-0.1891665160655975,0,0,0,-1,-1,34072.750615375,unknown,2,2025-04-22T13:44:53.593+03:00,2025-04-21T17:08:51.449+03:00,7472,1.022023,0,0,6219.038,5,20,2025-04-22T13:45:01.331+03:00,767011504.0055095,0,-20.21,100.4483,1,0.65,2025-04-22T13:42:20.228+03:00,86,1.433333333333333,2025-04-22T09:54:17.825+03:00,0.02225348692287972,0
2025-04-22T13:45:13.363+03:00,1745318711.972957,40.95229131942952,29.14028466175749,76.45007,-1,-1,-1,-1,30,31.46988262717221,-9999,34092.51353629167,-0.7810516357421875,0.5768585205078125,-0.1832275390625,34092.50599629167,-0.239462235363744,-1.333282622692948,-0.6389202413787518,-0.001831569708883762,-0.02603466436266899,-0.02965411171317101,0.01227486133575439,-0.02079814672470093,0.004151299595832825,XArbitraryZVertical,0.3151710747074338,0.5533806167938867,-0.1036821101576903,-0.7639941005060268,-0.7802038192749023,0.5963290333747864,-0.1888741701841354,0,0,0,-1,-1,34072.750615375,unknown,2,2025-04-22T13:44:53.593+03:00,2025-04-21T17:08:51.449+03:00,7472,1.022023,0,0,6219.038,5,20,2025-04-22T13:45:01.331+03:00,767011504.0055095,0,-20.21,100.4483,1,0.65,2025-04-22T13:42:20.228+03:00,86,1.433333333333333,2025-04-22T09:54:17.825+03:00,0.02225348692287972,0
2025-04-22T13:45:13.370+03:00,1745318711.972957,40.95229131942952,29.14028466175749,76.45007,-1,-1,-1,-1,30,31.46988262717221,-9999,34092.52361229167,-0.7853240966796875,0.5957489013671875,-0.1834564208984375,34092.51607229167,-0.2395211981956597,-1.333537199281366,-0.6386788101936463,0.009664830751717091,-0.01848134025931358,-0.02155420742928982,0.003887414932250977,-0.02197754383087158,0.005756556987762451,XArbitraryZVertical,0.3150875625852693,0.5535025994843012,-0.1036257508114603,-0.7639478862183304,-0.7803919315338135,0.5961351990699768,-0.1887093931436539,0,0,0,-1,-1,34072.750615375,unknown,2,2025-04-22T13:44:53.593+03:00,2025-04-21T17:08:51.449+03:00,7472,1.022023,0,0,6219.038,5,20,2025-04-22T13:45:01.331+03:00,767011504.0055095,0,-20.21,100.4483,1,0.65,2025-04-22T13:42:20.228+03:00,86,1.433333333333333,2025-04-22T09:54:17.825+03:00,0.02225348692287972,0
2025-04-22T13:45:13.381+03:00,1745318711.972957,40.95229131942952,29.14028466175749,76.45007,-1,-1,-1,-1,30,31.46988262717221,-9999,34092.53368929167,-0.7819061279296875,0.610565185546875,-0.1814727783203125,34092.52614829167,-0.2393344543085605,-1.333576052988425,-0.6384453440620532,0.03563650697469711,-0.004855541978031397,-0.02178430370986462,-0.004972696304321289,-0.008789658546447754,0.005102783441543579,XArbitraryZVertical,0.3149501210578823,0.553579760600442,-0.1036317520191238,-0.7639477239629924,-0.7805343270301819,0.5959477424621582,-0.1887117326259613,0,0,0,-1,-1,34072.750615375,unknown,2,2025-04-22T13:44:53.593+03:00,2025-04-21T17:08:51.449+03:00,7472,1.022023,0,0,6219.038,5,20,2025-04-22T13:45:01.331+03:00,767011504.0055095,0,-20.21,100.4483,1,0.65,2025-04-22T13:42:20.228+03:00,86,1.433333333333333,2025-04-22T09:54:17.825+03:00,0.02225348692287972,0
2025-04-22T13:45:13.391+03:00,1745318711.972957,40.95229131942952,29.14028466175749,76.45007,-1,-1,-1,-1,30,31.46988262717221,-9999,34092.54376529167,-0.779571533203125,0.6115875244140625,-0.18585205078125,34092.53622529167,-0.2389440052856799,-1.333282345084749,-0.6381992974954015,0.04314855486154556,0.01393605582416058,-0.01860432513058186,-0.001788139343261719,0.01138168573379517,0.006922915577888489,XArbitraryZVertical,0.3147689684047661,0.5535636822949738,-0.103659305796986,-0.7640303402309736,-0.7806214094161987,0.5957501530647278,-0.1889754980802536,0,0,0,-1,-1,34072.750615375,unknown,2,2025-04-22T13:44:53.593+03:00,2025-04-21T17:08:51.449+03:00,7472,1.022023,0,0,6219.038,5,20,2025-04-22T13:45:01.331+03:00,767011504.0055095,0,-20.21,100.4483,1,0.65,2025-04-22T13:42:20.228+03:00,86,1.433333333333333,2025-04-22T09:54:17.825+03:00,0.02225348692287972,0
2025-04-22T13:45:13.401+03:00,1745318711.972957,40.95229131942952,29.14028466175749,76.45007,-1,-1,-1,-1,30,31.46988262717221,-9999,34092.55384129167,-0.77496337890625,0.6086578369140625,-0.187164306640625,34092.54630129167,-0.2383884983143094,-1.33282445549746,-0.6379591758680034,0.05861299857497215,0.01642850786447525,-0.01365696918219328,-0.001384735107421875,0.01691520214080811,0.005238890647888184,XArbitraryZVertical,0.3145527541398673,0.5535099261936394,-0.1037259621295292,-0.7641493467462045,-0.7806739211082458,0.5955572724342346,-0.1893666535615921,0,0,0,-1,-1,34072.750615375,unknown,2,2025-04-22T13:44:53.593+03:00,2025-04-21T17:08:51.449+03:00,7472,1.022023,0,0,6219.038,5,20,2025-04-22T13:45:01.331+03:00,767011504.0055095,0,-20.21,100.4483,1,0.65,2025-04-22T13:42:20.228+03:00,86,1.433333333333333,2025-04-22T09:54:17.825+03:00,0.02225348692287972,0
2025-04-22T13:45:13.411+03:00,1745318711.972957,40.95229131942952,29.14028466175749,76.45007,-1,-1,-1,-1,30,31.46988262717221,-9999,34092.56391729167,-0.7804412841796875,0.598876953125,-0.184539794921875,34092.55637729167,-0.2376714264000561,-1.332210381367647,-0.637704076222828,0.06188295781612396,0.02289719320833683,-0.01065139286220074,0.005024552345275879,0.0149533748626709,0.00323641300201416,XArbitraryZVertical,0.3142945735238231,0.5534238602100787,-0.103825368345239,-0.7643043922292452,-0.7807050943374634,0.5953522920608521,-0.189881905913353,0,0,0,-1,-1,34072.750615375,unknown,2,2025-04-22T13:44:53.593+03:00,2025-04-21T17:08:51.449+03:00,7472,1.022023,0,0,6219.038,5,20,2025-04-22T13:45:01.331+03:00,767011504.0055095,0,-20.21,100.4483,1,0.65,2025-04-22T13:42:20.228+03:00,86,1.433333333333333,2025-04-22T09:54:17.825+03:00,0.02225348692287972,0
2025-04-22T13:45:13.421+03:00,1745318711.972957,40.95229131942952,29.14028466175749,76.45007,-1,-1,-1,-1,30,31.46988262717221,-9999,34092.57399329167,-0.781097412109375,0.58258056640625,-0.181121826171875,34092.56645329167,-0.2370354977522766,-1.331626379363492,-0.6375022389795428,0.04233802109956741,0.01929819770157337,-0.003677905071526766,0.002329409122467041,0.007882952690124512,0.004575282335281372,XArbitraryZVertical,0.3140764279838409,0.5533288849192708,-0.1039149165473903,-0.7644506948779339,-0.7807108759880066,0.5951901078224182,-0.1903662830591202,0,0,0,-1,-1,34072.750615375,unknown,2,2025-04-22T13:44:53.593+03:00,2025-04-21T17:08:51.449+03:00,7472,1.022023,0,0,6219.038,5,20,2025-04-22T13:45:01.331+03:00,767011504.0055095,0,-20.21,100.4483,1,0.65,2025-04-22T13:42:20.228+03:00,86,1.433333333333333,2025-04-22T09:54:17.825+03:00,0.02225348692287972,0
2025-04-22T13:45:13.431+03:00,1745318711.972957,40.95229131942952,29.14028466175749,76.45007,-1,-1,-1,-1,30,31.46988262717221,-9999,34092.58406929167,-0.7756500244140625,0.567352294921875,-0.1814422607421875,34092.57652929167,-0.2367108037679911,-1.331290379172069,-0.6373941879544085,0.01051464583724737,0.007037070114165545,0.0002625413471832871,-0.001166343688964844,-0.005625784397125244,0.008270829916000366,XArbitraryZVertical,0.3139652302611053,0.5532665803625205,-0.1039532331377513,-0.7645362598837503,-0.7807093262672424,0.5951033234596252,-0.190643846988678,0,0,0,-1,-1,34072.750615375,unknown,2,2025-04-22T13:44:53.593+03:00,2025-04-21T17:08:51.449+03:00,7472,1.022023,0,0,6219.038,5,20,2025-04-22T13:45:01.331+03:00,767011504.0055095,0,-20.21,100.4483,1,0.65,2025-04-22T13:42:20.228+03:00,86,1.433333333333333,2025-04-22T09:54:17.825+03:00,0.02225348692287972,0
2025-04-22T13:45:13.441+03:00,1745318711.972957,40.95229131942952,29.14028466175749,76.45007,-1,-1,-1,-1,30,31.46988262717221,-9999,34092.59414629167,-0.7777862548828125,0.57562255859375,-0.1860504150390625,34092.58660529167,-0.2367488077838392,-1.331270411017505,-0.6373887220215012,-0.0158208217471838,0.002952313749119639,0.001282265642657876,0.003380119800567627,-0.02399301528930664,0.009736776351928711,XArbitraryZVertical,0.3139748277356151,0.5532537504165577,-0.1039339218052817,-0.7645441707517914,-0.7807086110115051,0.5950989127159119,-0.1906601935625076,0,0,0,-1,-1,34072.750615375,unknown,2,2025-04-22T13:44:53.593+03:00,2025-04-21T17:08:51.449+03:00,7472,1.022023,0,0,6219.038,5,20,2025-04-22T13:45:01.331+03:00,767011504.0055095,0,-20.21,100.4483,1,0.65,2025-04-22T13:42:20.228+03:00,86,1.433333333333333,2025-04-22T09:54:17.825+03:00,0.02225348692287972,0
2025-04-22T13:45:13.451+03:00,1745318711.972957,40.95229131942952,29.14028466175749,76.45007,-1,-1,-1,-1,30,31.46988262717221,-9999,34092.60422229167,-0.78192138671875,0.586669921875,-0.1866455078125,34092.59668229167,-0.2370477363968785,-1.331452497730309,-0.6374132812543567,-0.03119065798819065,-0.001140099484473467,-0.001242244616150856,0.004514515399932861,-0.02459257841110229,0.006569892168045044,XArbitraryZVertical,0.3140568784978427,0.5532729750222016,-0.1038557309625464,-0.764507234174477,-0.7807291746139526,0.5951186418533325,-0.1905145794153214,0,0,0,-1,-1,34072.750615375,unknown,2,2025-04-22T13:44:53.593+03:00,2025-04-21T17:08:51.449+03:00,7472,1.022023,0,0,6219.038,5,20,2025-04-22T13:45:01.331+03:00,767011504.0055095,0,-20.21,100.4483,1,0.65,2025-04-22T13:42:20.228+03:00,86,1.433333333333333,2025-04-22T09:54:17.825+03:00,0.02225348692287972,0
2025-04-22T13:45:13.461+03:00,1745318711.972957,40.95229131942952,29.14028466175749,76.45007,-1,-1,-1,-1,30,31.46988262717221,-9999,34092.61429829167,-0.7789306640625,0.5868682861328125,-0.1837005615234375,34092.60675829167,-0.2374403538100102,-1.331749060644438,-0.6374324343940755,-0.03016054630279541,-0.005596633534878492,-0.00499597005546093,-0.0008723139762878418,-0.0111040472984314,0.003100767731666565,XArbitraryZVertical,0.3141570173106774,0.5533219926878264,-0.1037581547626173,-0.7644436974255996,-0.7807742953300476,0.5951340198516846,-0.1902802884578705,0,0,0,-1,-1,34072.750615375,unknown,2,2025-04-22T13:44:53.593+03:00,2025-04-21T17:08:51.449+03:00,7472,1.022023,0,0,6219.038,5,20,2025-04-22T13:45:01.331+03:00,767011504.0055095,0,-20.21,100.4483,1,0.65,2025-04-22T13:42:20.228+03:00,86,1.433333333333333,2025-04-22T09:54:17.825+03:00,0.02225348692287972,0
2025-04-22T13:45:13.472+03:00,1745318711.972957,40.95229131942952,29.14028466175749,76.45007,-1,-1,-1,-1,30,31.46988262717221,-9999,34092.62437429167,-0.7830963134765625,0.604278564453125,-0.1841278076171875,34092.61683429167,-0.237661568740785,-1.331899145161347,-0.6374522249990977,-0.0005502563435584307,0.008096475154161453,-0.005319577641785145,0.001418411731719971,-0.008419036865234375,0.005635827779769897,XArbitraryZVertical,0.314217511221478,0.5533418182532797,-0.1037031647527101,-0.7644121240347219,-0.780791699886322,0.5951499342918396,-0.1901603788137436,0,0,0,-1,-1,34072.750615375,unknown,2,2025-04-22T13:44:53.593+03:00,2025-04-21T17:08:51.449+03:00,7472,1.022023,0,0,6219.038,5,20,2025-04-22T13:45:01.331+03:00,767011504.0055095,0,-20.21,100.4483,1,0.65,2025-04-22T13:42:20.228+03:00,86,1.433333333333333,2025-04-22T09:54:17.825+03:00,0.02225348692287972,0
2025-04-22T13:45:13.482+03:00,1745318711.972957,40.95229131942952,29.14028466175749,76.45007,-1,-1,-1,-1,30,31.46988262717221,-9999,34092.63445029167,-0.788116455078125,0.618560791015625,-0.186553955078125,34092.62691029167,-0.2375273125707181,-1.331664474965738,-0.6373915441991249,0.02575778029859066,0.02609385177493095,-0.00524607440456748,0.0006001591682434082,-0.0003442168235778809,0.007780700922012329,XArbitraryZVertical,0.3141707631321338,0.5532817382173448,-0.1036991107952292,-0.7644752290102881,-0.7807819247245789,0.5951011776924133,-0.1903520971536636,0,0,0,-1,-1,34072.750615375,unknown,2,2025-04-22T13:44:53.593+03:00,2025-04-21T17:08:51.449+03:00,7472,1.022023,0,0,6219.038,5,20,2025-04-22T13:45:01.331+03:00,767011504.0055095,0,-20.21,100.4483,1,0.65,2025-04-22T13:42:20.228+03:00,86,1.433333333333333,2025-04-22T09:54:17.825+03:00,0.02225348692287972,0
2025-04-22T13:45:13.492+03:00,1745318711.972957,40.95229131942952,29.14028466175749,76.45007,-1,-1,-1,-1,30,31.46988262717221,-9999,34092.64452729167,-0.7784423828125,0.607330322265625,-0.1822509765625,34092.63698629167,-0.2371154258946273,-1.331146400198619,-0.637276374878307,0.04817813634872437,0.02542273513972759,-0.009265849366784096,-0.006344258785247803,0.0215531587600708,0.004188388586044312,XArbitraryZVertical,0.314042319454318,0.5531645399768546,-0.1037399996900023,-0.7646072085025308,-0.7807496786117554,0.5950086116790771,-0.1907728314399719,0,0,0,-1,-1,34072.750615375,unknown,2,2025-04-22T13:44:53.593+03:00,2025-04-21T17:08:51.449+03:00,7472,1.022023,0,0,6219.038,5,20,2025-04-22T13:45:01.331+03:00,767011504.0055095,0,-20.21,100.4483,1,0.65,2025-04-22T13:42:20.228+03:00,86,1.433333333333333,2025-04-22T09:54:17.825+03:00,0.02225348692287972,0
2025-04-22T13:45:13.502+03:00,1745318711.972957,40.95229131942952,29.14028466175749,76.45007,-1,-1,-1,-1,30,31.46988262717221,-9999,34092.65460329167,-0.7777252197265625,0.6057586669921875,-0.1834259033203125,34092.64706329167,-0.2364322397467805,-1.330441584834817,-0.6370592712944034,0.06110591813921928,0.04016066715121269,-0.007748380769044161,-0.002142071723937988,0.01780611276626587,0.007103994488716125,XArbitraryZVertical,0.3138119035484805,0.553032711911276,-0.1038242180106723,-0.7647857416824838,-0.78074049949646,0.5948340892791748,-0.1913538128137589,0,0,0,-1,-1,34072.750615375,unknown,2,2025-04-22T13:44:53.593+03:00,2025-04-21T17:08:51.449+03:00,7472,1.022023,0,0,6219.038,5,20,2025-04-22T13:45:01.331+03:00,767011504.0055095,0,-20.21,100.4483,1,0.65,2025-04-22T13:42:20.228+03:00,86,1.433333333333333,2025-04-22T09:54:17.825+03:00,0.02225348692287972,0
2025-04-22T13:45:13.512+03:00,1745318711.972957,40.95229131942952,29.14028466175749,76.45007,-1,-1,-1,-1,30,31.46988262717221,-9999,34092.66467929167,-0.7782135009765625,0.6039276123046875,-0.1773529052734375,34092.65713929167,-0.2357876224727387,-1.329729591751349,-0.6368316295210233,0.05741071328520775,0.02607887051999569,-0.007755337748676538,0.004826247692108154,0.009947776794433594,0.01001149415969849,XArbitraryZVertical,0.3135887604558869,0.5528933810658583,-0.1038894985892791,-0.7649691886909958,-0.7807356715202332,0.5946511030197144,-0.1919419914484024,0,0,0,-1,-1,34072.750615375,unknown,2,2025-04-22T13:44:53.593+03:00,2025-04-21T17:08:51.449+03:00,7472,1.022023,0,0,6219.038,5,20,2025-04-22T13:45:01.331+03:00,767011504.0055095,0,-20.21,100.4483,1,0.65,2025-04-22T13:42:20.228+03:00,86,1.433333333333333,2025-04-22T09:54:17.825+03:00,0.02225348692287972,0
2025-04-22T13:45:13.522+03:00,1745318711.972957,40.95229131942952,29.14028466175749,76.45007,-1,-1,-1,-1,30,31.46988262717221,-9999,34092.67475529167,-0.7701416015625,0.5880126953125,-0.18792724609375,34092.66721529167,-0.2352950439319601,-1.329249389678078,-0.6366022111222588,0.02008970826864243,0.01516443863511086,-0.01277806051075459,0.000548243522644043,0.01207011938095093,0.01159393787384033,XArbitraryZVertical,0.313394992017381,0.5528189746344808,-0.1039325826752834,-0.7650965265987264,-0.7807758450508118,0.5944666266441345,-0.1923495233058929,0,0,0,-1,-1,34072.750615375,unknown,2,2025-04-22T13:44:53.593+03:00,2025-04-21T17:08:51.449+03:00,7472,1.022023,0,0,6219.038,5,20,2025-04-22T13:45:01.331+03:00,767011504.0055095,0,-20.21,100.4483,1,0.65,2025-04-22T13:42:20.228+03:00,86,1.433333333333333,2025-04-22T09:54:17.825+03:00,0.02225348692287972,0
2025-04-22T13:45:13.532+03:00,1745318711.972957,40.95229131942952,29.14028466175749,76.45007,-1,-1,-1,-1,30,31.46988262717221,-9999,34092.68483129167,-0.7703094482421875,0.5712432861328125,-0.19049072265625,34092.67729129167,-0.2353360938136346,-1.329116452250599,-0.6364315437503411,-0.01588506996631622,0.01821562275290489,-0.01536718476563692,0.007838547229766846,0.0002902746200561523,0.01147782802581787,XArbitraryZVertical,0.3133518233352364,0.5527855305338046,-0.1038439502299011,-0.7651503829918237,-0.7808487415313721,0.5943294167518616,-0.1924775838851929,0,0,0,-1,-1,34072.750615375,unknown,2,2025-04-22T13:44:53.593+03:00,2025-04-21T17:08:51.449+03:00,7472,1.022023,0,0,6219.038,5,20,2025-04-22T13:45:01.331+03:00,767011504.0055095,0,-20.21,100.4483,1,0.65,2025-04-22T13:42:20.228+03:00,86,1.433333333333333,2025-04-22T09:54:17.825+03:00,0.02225348692287972,0
2025-04-22T13:45:13.542+03:00,1745318711.972957,40.95229131942952,29.14028466175749,76.45007,-1,-1,-1,-1,30,31.46988262717221,-9999,34092.69490729167,-0.766357421875,0.5727691650390625,-0.1817626953125,34092.68736729167,-0.2357350650559926,-1.329225758548822,-0.6363520007349873,-0.04088389500975609,0.002460627583786845,-0.01235115528106689,0.01110982894897461,-0.01752907037734985,-0.001627206802368164,XArbitraryZVertical,0.3134277970237418,0.5527759462281471,-0.103684156648968,-0.76514785600836,-0.7809156775474548,0.5942654013633728,-0.1924035400152206,0,0,0,-1,-1,34072.750615375,unknown,2,2025-04-22T13:44:53.593+03:00,2025-04-21T17:08:51.449+03:00,7472,1.022023,0,0,6219.038,5,20,2025-04-22T13:45:01.331+03:00,767011504.0055095,0,-20.21,100.4483,1,0.65,2025-04-22T13:42:20.228+03:00,86,1.433333333333333,2025-04-22T09:54:17.825+03:00,0.02225348692287972,0
2025-04-22T13:45:13.552+03:00,1745318711.972957,40.95229131942952,29.14028466175749,76.45007,-1,-1,-1,-1,30,31.46988262717221,-9999,34092.70498429167,-0.7664947509765625,0.5921630859375,-0.17822265625,34092.69744329167,-0.2362710643322454,-1.329555163043806,-0.6363907165370881,-0.04309485480189323,-0.0009274459443986416,0.002385313622653484,0.01162385940551758,-0.02607464790344238,0.009477868676185608,XArbitraryZVertical,0.3135728167170101,0.5528125325127496,-0.1035425733914066,-0.7650811500044256,-0.7809566259384155,0.5942965745925903,-0.1921407878398895,0,0,0,-1,-1,34072.750615375,unknown,2,2025-04-22T13:44:53.593+03:00,2025-04-21T17:08:51.449+03:00,7472,1.022023,0,0,6219.038,5,20,2025-04-22T13:45:01.331+03:00,767011504.0055095,0,-20.21,100.4483,1,0.65,2025-04-22T13:42:20.228+03:00,86,1.433333333333333,2025-04-22T09:54:17.825+03:00,0.02225348692287972,0
2025-04-22T13:45:13.562+03:00,1745318711.972957,40.95229131942952,29.14028466175749,76.45007,-1,-1,-1,-1,30,31.46988262717221,-9999,34092.71506029167,-0.7835693359375,0.5976409912109375,-0.1822357177734375,34092.70752029167,-0.2368212089262838,-1.329880131443987,-0.6365735530378439,-0.04822836443781853,0.004815927240997553,0.009282900020480156,0.0170433521270752,-0.008552014827728271,0.0118836909532547,XArbitraryZVertical,0.3137738372495991,0.5528249686727514,-0.1034389424918894,-0.7650037785104362,-0.7809135317802429,0.5944436192512512,-0.1918610632419586,0,0,0,-1,-1,34072.750615375,unknown,2,2025-04-22T13:44:53.593+03:00,2025-04-21T17:08:51.449+03:00,7472,1.022023,0,0,6219.038,5,20,2025-04-22T13:45:01.331+03:00,767011504.0055095,0,-20.21,100.4483,1,0.65,2025-04-22T13:42:20.228+03:00,86,1.433333333333333,2025-04-22T09:54:17.825+03:00,0.02225348692287972,0
2025-04-22T13:45:13.572+03:00,1745318711.972957,40.95229131942952,29.14028466175749,76.45007,-1,-1,-1,-1,30,31.46988262717221,-9999,34092.72513629167,-0.78253173828125,0.59051513671875,-0.200042724609375,34092.71759629167,-0.2373135559301586,-1.330182836351575,-0.6367381000520804,-0.03273588791489601,-0.008145078085362911,0.001148708048276603,0.003517568111419678,0.002607166767120361,0.01357711851596832,XArbitraryZVertical,0.3139534644960381,0.5528404353448935,-0.1033484172747624,-0.7649311110343777,-0.7808765172958374,0.5945759415626526,-0.191601350903511,0,0,0,-1,-1,34072.750615375,unknown,2,2025-04-22T13:44:53.593+03:00,2025-04-21T17:08:51.449+03:00,7472,1.022023,0,0,6219.038,5,20,2025-04-22T13:45:01.331+03:00,767011504.0055095,0,-20.21,100.4483,1,0.65,2025-04-22T13:42:20.228+03:00,86,1.433333333333333,2025-04-22T09:54:17.825+03:00,0.02225348692287972,0
2025-04-22T13:45:13.582+03:00,1745318711.972957,40.95229131942952,29.14028466175749,76.45007,-1,-1,-1,-1,30,31.46988262717221,-9999,34092.73521229167,-0.771331787109375,0.60247802734375,-0.1957550048828125,34092.72767229167,-0.2375786839384842,-1.330557886315022,-0.6367716075781245,-0.007602307014167309,-0.0298817977309227,-0.009758800268173218,-0.004410326480865479,-0.0008072257041931152,-0.002437099814414978,XArbitraryZVertical,0.3140194316417171,0.5529375510653241,-0.1033161485750663,-0.7648381741670732,-0.780928909778595,0.5946028828620911,-0.1913037151098251,0,0,0,-1,-1,34072.750615375,unknown,2,2025-04-22T13:44:53.593+03:00,2025-04-21T17:08:51.449+03:00,7472,1.022023,0,0,6219.038,5,20,2025-04-22T13:45:01.331+03:00,767011504.0055095,0,-20.21,100.4483,1,0.65,2025-04-22T13:42:20.228+03:00,86,1.433333333333333,2025-04-22T09:54:17.825+03:00,0.02225348692287972,0
2025-04-22T13:45:13.592+03:00,1745318711.972957,40.95229131942952,29.14028466175749,76.45007,-1,-1,-1,-1,30,31.46988262717221,-9999,34092.74528829167,-0.772552490234375,0.611358642578125,-0.1833343505859375,34092.73774829167,-0.2376742936086661,-1.330960395862062,-0.6366334117359893,-0.002075848169624805,-0.03491823375225067,-0.02632039971649647,0.006107151508331299,2.110004425048828e-05,-0.009018540382385254,XArbitraryZVertical,0.3139753930249821,0.5530958346251817,-0.1033005274926474,-0.7647439317640548,-0.781085729598999,0.594491720199585,-0.1910088956356049,0,0,0,-1,-1,34072.750615375,unknown,2,2025-04-22T13:44:53.593+03:00,2025-04-21T17:08:51.449+03:00,7472,1.022023,0,0,6219.038,5,20,2025-04-22T13:45:01.331+03:00,767011504.0055095,0,-20.21,100.4483,1,0.65,2025-04-22T13:42:20.228+03:00,86,1.433333333333333,2025-04-22T09:54:17.825+03:00,0.02225348692287972,0
2025-04-22T13:45:13.602+03:00,1745318711.972957,40.95229131942952,29.14028466175749,76.45007,-1,-1,-1,-1,30,31.46988262717221,-9999,34092.75536529167,-0.776214599609375,0.592254638671875,-0.184722900390625,34092.74782429167,-0.2378953330080313,-1.331486502842604,-0.6363608022916574,-0.01524011977016926,-0.04382943734526634,-0.04036245122551918,0.01079005002975464,0.0183677077293396,0.004692763090133667,XArbitraryZVertical,0.313911392634222,0.5533005233172462,-0.103215247130309,-0.7646336179102007,-0.7813434600830078,0.5942724943161011,-0.1906363368034363,0,0,0,-1,-1,34072.750615375,unknown,2,2025-04-22T13:44:53.593+03:00,2025-04-21T17:08:51.449+03:00,7472,1.022023,0,0,6219.038,5,20,2025-04-22T13:45:01.331+03:00,767011504.0055095,0,-20.21,100.4483,1,0.65,2025-04-22T13:42:20.228+03:00,86,1.433333333333333,2025-04-22T09:54:17.825+03:00,0.02225348692287972,0
2025-04-22T13:45:13.612+03:00,1745318711.972957,40.95229131942952,29.14028466175749,76.45007,-1,-1,-1,-1,30,31.46988262717221,-9999,34092.76544129167,-0.7751617431640625,0.5884552001953125,-0.1864776611328125,34092.75790129167,-0.2382879445631032,-1.332239619406576,-0.636016435197473,-0.0253036729991436,-0.05180960148572922,-0.0422491654753685,0.005684852600097656,0.005430638790130615,0.006700828671455383,XArbitraryZVertical,0.3138574441415507,0.5535751098431,-0.1030779863351466,-0.7644755680443056,-0.7816857099533081,0.5939955115318298,-0.1900961995124817,0,0,0,-1,-1,34072.750615375,unknown,2,2025-04-22T13:44:53.593+03:00,2025-04-21T17:08:51.449+03:00,7472,1.022023,0,0,6219.038,5,20,2025-04-22T13:45:01.331+03:00,767011504.0055095,0,-20.21,100.4483,1,0.65,2025-04-22T13:42:20.228+03:00,86,1.433333333333333,2025-04-22T09:54:17.825+03:00,0.02225348692287972,0
2025-04-22T13:45:13.623+03:00,1745318711.972957,40.95229131942952,29.14028466175749,76.45007,-1,-1,-1,-1,30,31.46988262717221,-9999,34092.77551729167,-0.783172607421875,0.5988922119140625,-0.1904449462890625,34092.76797729167,-0.2386978264794486,-1.332892716182106,-0.6355379069445918,-0.02221706882119179,-0.04259826242923737,-0.05837780237197876,0.007839739322662354,-0.006803333759307861,0.004487276077270508,XArbitraryZVertical,0.313765384629044,0.5538275625742413,-0.1028773152071857,-0.7643575745163024,-0.7820858955383301,0.5936104655265808,-0.1896526217460632,0,0,0,-1,-1,34072.750615375,unknown,2,2025-04-22T13:44:53.593+03:00,2025-04-21T17:08:51.449+03:00,7472,1.022023,0,0,6219.038,5,20,2025-04-22T13:45:01.331+03:00,767011504.0055095,0,-20.21,100.4483,1,0.65,2025-04-22T13:42:20.228+03:00,86,1.433333333333333,2025-04-22T09:54:17.825+03:00,0.02225348692287972,0
2025-04-22T13:45:13.633+03:00,1745318711.972957,40.95229131942952,29.14028466175749,76.45007,-1,-1,-1,-1,30,31.46988262717221,-9999,34092.78559329167,-0.7753143310546875,0.6129150390625,-0.18548583984375,34092.77805329167,-0.2389505357417986,-1.333604358196988,-0.6349219198402369,0.01042016968131065,-0.06709248572587967,-0.06353437900543213,0.00225675106048584,0.0009099841117858887,-0.000591665506362915,XArbitraryZVertical,0.3135775710392835,0.5541463228884979,-0.1027036975126802,-0.7642270111748316,-0.7825760245323181,0.5931146740913391,-0.189181923866272,0,0,0,-1,-1,34072.750615375,unknown,2,2025-04-22T13:44:53.593+03:00,2025-04-21T17:08:51.449+03:00,7472,1.022023,0,0,6219.038,5,20,2025-04-22T13:45:01.331+03:00,767011504.0055095,0,-20.21,100.4483,1,0.65,2025-04-22T13:42:20.228+03:00,86,1.433333333333333,2025-04-22T09:54:17.825+03:00,0.02225348692287972,0
2025-04-22T13:45:13.643+03:00,1745318711.972957,40.95229131942952,29.14028466175749,76.45007,-1,-1,-1,-1,30,31.46988262717221,-9999,34092.79566929167,-0.772735595703125,0.6084136962890625,-0.1815338134765625,34092.78812929167,-0.2390249150743558,-1.334303755375008,-0.6342512850922526,0.004268001299351454,-0.05574608594179153,-0.06893553584814072,0.002653300762176514,0.01557964086532593,0.0009683370590209961,XArbitraryZVertical,0.3133214976350051,0.5544959904283018,-0.102579443472811,-0.7640950307803851,-0.783094584941864,0.5925745964050293,-0.1887276768684387,0,0,0,-1,-1,34072.750615375,unknown,2,2025-04-22T13:44:53.593+03:00,2025-04-21T17:08:51.449+03:00,7472,1.022023,0,0,6219.038,5,20,2025-04-22T13:45:01.331+03:00,767011504.0055095,0,-20.21,100.4483,1,0.65,2025-04-22T13:42:20.228+03:00,86,1.433333333333333,2025-04-22T09:54:17.825+03:00,0.02225348692287972,0
2025-04-22T13:45:13.653+03:00,1745318711.972957,40.95229131942952,29.14028466175749,76.45007,-1,-1,-1,-1,30,31.46988262717221,-9999,34092.80574629167,-0.773284912109375,0.5880584716796875,-0.1820068359375,34092.79820529167,-0.2392424224941208,-1.335010683839238,-0.6335770440877415,8.710467955097556e-05,-0.0573493055999279,-0.07169550657272339,0.01207077503204346,0.02190601825714111,0.006062179803848267,XArbitraryZVertical,0.313103517065114,0.5548265571055984,-0.1024003487724,-0.7639685290842055,-0.7836162447929382,0.5920313596725464,-0.1882673650979996,0,0,0,-1,-1,34072.750615375,unknown,2,2025-04-22T13:44:53.593+03:00,2025-04-21T17:08:51.449+03:00,7472,1.022023,0,0,6219.038,5,20,2025-04-22T13:45:01.331+03:00,767011504.0055095,0,-20.21,100.4483,1,0.65,2025-04-22T13:42:20.228+03:00,86,1.433333333333333,2025-04-22T09:54:17.825+03:00,0.02225348692287972,0
2025-04-22T13:45:13.663+03:00,1745318711.972957,40.95229131942952,29.14028466175749,76.45007,-1,-1,-1,-1,30,31.46988262717221,-9999,34092.81582229167,-0.7702789306640625,0.589508056640625,-0.183258056640625,34092.80828229167,-0.239466198359768,-1.335731215424127,-0.6329277741503238,-0.006383577361702919,-0.05698658898472786,-0.06457075476646423,0.009665369987487793,0.002760767936706543,0.005373358726501465,XArbitraryZVertical,0.3128957339927732,0.5551578110744434,-0.1022285678629713,-0.7638358784161889,-0.7841251492500305,0.5915079712867737,-0.1877921223640442,0,0,0,-1,-1,34072.750615375,unknown,2,2025-04-22T13:44:53.593+03:00,2025-04-21T17:08:51.449+03:00,7472,1.022023,0,0,6219.038,5,20,2025-04-22T13:45:01.331+03:00,767011504.0055095,0,-20.21,100.4483,1,0.65,2025-04-22T13:42:20.228+03:00,86,1.433333333333333,2025-04-22T09:54:17.825+03:00,0.02225348692287972,0
2025-04-22T13:45:13.673+03:00,1745318711.972957,40.95229131942952,29.14028466175749,76.45007,-1,-1,-1,-1,30,31.46988262717221,-9999,34092.82589829167,-0.783843994140625,0.592681884765625,-0.1821441650390625,34092.81835829167,-0.2393262938986731,-1.335956375775768,-0.6328952158149145,0.05757396295666695,0.03218550235033035,0.168400377035141,0.01488387584686279,-0.004979729652404785,0.005750536918640137,XArbitraryZVertical,0.3128336906333714,0.5552702495124419,-0.1023072180684852,-0.7637690645387042,-0.7841861844062805,0.5914816856384277,-0.1876200586557388,0,0,0,-1,-1,34072.750615375,unknown,2,2025-04-22T13:44:53.593+03:00,2025-04-21T17:08:51.449+03:00,7472,1.022023,0,0,6219.038,5,20,2025-04-22T13:45:01.331+03:00,767011504.0055095,0,-20.21,100.4483,1,0.65,2025-04-22T13:42:20.228+03:00,86,1.433333333333333,2025-04-22T09:54:17.825+03:00,0.02225348692287972,0
2025-04-22T13:45:13.683+03:00,1745318711.972957,40.95229131942952,29.14028466175749,76.45007,-1,-1,-1,-1,30,31.46988262717221,-9999,34092.83597429167,-0.8337249755859375,0.5716400146484375,-0.18194580078125,34092.82843429167,-0.239210395686824,-1.334685086347494,-0.6336229368670565,-0.02854760177433491,0.148723840713501,0.03633049875497818,0.008198797702789307,0.001925826072692871,0.005731076002120972,XArbitraryZVertical,0.3131277803139121,0.5547007553517451,-0.1023756839094369,-0.7640532227186311,-0.7835284471511841,0.5920683145523071,-0.1885161250829697,0,0,0,-1,-1,34072.750615375,unknown,2,2025-04-22T13:44:53.593+03:00,2025-04-21T17:08:51.449+03:00,7472,1.022023,0,0,6219.038,5,20,2025-04-22T13:45:01.331+03:00,767011504.0055095,0,-20.21,100.4483,1,0.65,2025-04-22T13:42:20.228+03:00,86,1.433333333333333,2025-04-22T09:54:17.825+03:00,0.02225348692287972,0
2025-04-22T13:45:13.693+03:00,1745318711.972957,40.95229131942952,29.14028466175749,76.45007,-1,-1,-1,-1,30,31.46988262717221,-9999,34092.84605029167,-0.761627197265625,0.5868682861328125,-0.1748046875,34092.83851029167,-0.2394487429155988,-1.334284606762547,-0.6342321563247982,-0.03340068086981773,-0.01067781075835228,0.0287478119134903,-0.03177839517593384,-0.01277107000350952,0.007226765155792236,XArbitraryZVertical,0.3134331186000029,0.554424952323198,-0.1024086742409546,-0.7641236570897177,-0.7831019163131714,0.5925591588020325,-0.188745304942131,0,0,0,-1,-1,34072.750615375,unknown,2,2025-04-22T13:44:53.593+03:00,2025-04-21T17:08:51.449+03:00,7472,1.022023,0,0,6219.038,5,20,2025-04-22T13:45:01.331+03:00,767011504.0055095,0,-20.21,100.4483,1,0.65,2025-04-22T13:42:20.228+03:00,86,1.433333333333333,2025-04-22T09:54:17.825+03:00,0.02225348692287972,0
2025-04-22T13:45:13.703+03:00,1745318711.972957,40.95229131942952,29.14028466175749,76.45007,-1,-1,-1,-1,30,31.46988262717221,-9999,34092.85612729167,-0.747039794921875,0.5861358642578125,-0.176513671875,34092.84858629167,-0.2397320538732003,-1.334542272903491,-0.6345677804645424,-0.03416820243000984,0.01267118752002716,0.02410219423472881,-0.02203547954559326,-0.01635259389877319,0.008504301309585571,XArbitraryZVertical,0.3136189492545794,0.5544318556664591,-0.1024437143052406,-0.7640376564250305,-0.7829570770263672,0.5928294658660889,-0.1884969472885132,0,0,0,-1,-1,34072.750615375,unknown,2,2025-04-22T13:44:53.593+03:00,2025-04-21T17:08:51.449+03:00,7472,1.022023,0,0,6219.038,5,20,2025-04-22T13:45:01.331+03:00,767011504.0055095,0,-20.21,100.4483,1,0.65,2025-04-22T13:42:20.228+03:00,86,1.433333333333333,2025-04-22T09:54:17.825+03:00,0.02225348692287972,0
2025-04-22T13:45:13.713+03:00,1745318711.972957,40.95229131942952,29.14028466175749,76.45007,-1,-1,-1,-1,30,31.46988262717221,-9999,34092.86620329167,-0.803466796875,0.5894775390625,-0.1953125,34092.85866329167,-0.2401920202846939,-1.334274922550782,-0.6349392078489903,-0.07216512411832809,0.08437813073396683,-0.003991758450865746,0.05410075187683105,-0.002079486846923828,0.01705437898635864,XArbitraryZVertical,0.3138934209801524,0.5542053612275961,-0.1023398678108462,-0.7641032470599963,-0.7826926112174988,0.5931285619735718,-0.1886546760797501,0,0,0,-1,-1,34072.750615375,unknown,2,2025-04-22T13:44:53.593+03:00,2025-04-21T17:08:51.449+03:00,7472,1.022023,0,0,6219.038,5,20,2025-04-22T13:45:01.331+03:00,767011504.0055095,0,-20.21,100.4483,1,0.65,2025-04-22T13:42:20.228+03:00,86,1.433333333333333,2025-04-22T09:54:17.825+03:00,0.02225348692287972,0
2025-04-22T13:45:13.723+03:00,1745318711.972957,40.95229131942952,29.14028466175749,76.45007,-1,-1,-1,-1,30,31.46988262717221,-9999,34092.87627929167,-0.752227783203125,0.576141357421875,-0.189300537109375,34092.86873929167,-0.2408368486216769,-1.335152196103696,-0.6345475052977297,-0.06791684776544571,-0.160024955868721,0.268106073141098,-0.009045839309692383,-0.006418049335479736,-0.001705572009086609,XArbitraryZVertical,0.3138867669580569,0.5544943748300196,-0.1021111586385325,-0.7639268158170913,-0.7830835580825806,0.5928131341934204,-0.1880221664905548,0,0,0,-1,-1,34072.750615375,unknown,2,2025-04-22T13:44:53.593+03:00,2025-04-21T17:08:51.449+03:00,7472,1.022023,0,0,6219.038,5,20,2025-04-22T13:45:01.331+03:00,767011504.0055095,0,-20.21,100.4483,1,0.65,2025-04-22T13:42:20.228+03:00,86,1.433333333333333,2025-04-22T09:54:17.825+03:00,0.02225348692287972,0
2025-04-22T13:45:13.733+03:00,1745318711.972957,40.95229131942952,29.14028466175749,76.45007,-1,-1,-1,-1,30,31.46988262717221,-9999,34092.88635529167,-0.781890869140625,0.5596160888671875,-0.185699462890625,34092.87881529167,-0.2415461302643798,-1.335557898943871,-0.6349494883022911,-0.06931540369987488,0.1246495172381401,-0.09461013972759247,-0.001251518726348877,-0.007367312908172607,-0.008884280920028687,XArbitraryZVertical,0.3142068914125566,0.5544813590632189,-0.1020272577760273,-0.7638158743062281,-0.7829279899597168,0.5931368470191956,-0.1876489073038101,0,0,0,-1,-1,34072.750615375,unknown,2,2025-04-22T13:44:53.593+03:00,2025-04-21T17:08:51.449+03:00,7472,1.022023,0,0,6219.038,5,20,2025-04-22T13:45:01.331+03:00,767011504.0055095,0,-20.21,100.4483,1,0.65,2025-04-22T13:42:20.228+03:00,86,1.433333333333333,2025-04-22T09:54:17.825+03:00,0.02225348692287972,0
2025-04-22T13:45:13.743+03:00,1745318711.972957,40.95229131942952,29.14028466175749,76.45007,-1,-1,-1,-1,30,31.46988262717221,-9999,34092.89643129167,-0.8170928955078125,0.572662353515625,-0.18011474609375,34092.88889129167,-0.2423943367974987,-1.335763935998446,-0.6350808513465638,-0.04257407411932945,-0.04178845882415771,-0.02707823552191257,0.04862278699874878,-0.02601248025894165,0.00701904296875,XArbitraryZVertical,0.3144786270940596,0.5544082092098668,-0.1017759909506264,-0.763790719610689,-0.7828909158706665,0.5932425856590271,-0.1874694675207138,0,0,0,-1,-1,34072.750615375,unknown,2,2025-04-22T13:44:53.593+03:00,2025-04-21T17:08:51.449+03:00,7472,1.022023,0,0,6219.038,5,20,2025-04-22T13:45:01.331+03:00,767011504.0055095,0,-20.21,100.4483,1,0.65,2025-04-22T13:42:20.228+03:00,86,1.433333333333333,2025-04-22T09:54:17.825+03:00,0.02225348692287972,0
2025-04-22T13:45:13.754+03:00,1745318711.972957,40.95229131942952,29.14028466175749,76.45007,-1,-1,-1,-1,30,31.46988262717221,-9999,34092.90650729167,-0.746673583984375,0.702545166015625,-0.1831512451171875,34092.89896729167,-0.2429564644886073,-1.336637580601371,-0.635138059606558,-0.01531402301043272,-0.04552014544606209,-0.009032290428876877,-0.05959928035736084,-0.04371291399002075,-0.003011226654052734,XArbitraryZVertical,0.3146105255122987,0.5546453159827688,-0.1017162694314172,-0.7635722787769124,-0.7830215692520142,0.5932886600494385,-0.1867775768041611,0,0,0,-1,-1,34072.750615375,unknown,2,2025-04-22T13:44:53.593+03:00,2025-04-21T17:08:51.449+03:00,7472,1.022023,0,0,6219.038,5,20,2025-04-22T13:45:01.331+03:00,767011504.0055095,0,-20.21,100.4483,1,0.65,2025-04-22T13:42:20.228+03:00,86,1.433333333333333,2025-04-22T09:54:17.825+03:00,0.02225348692287972,0
2025-04-22T13:45:13.764+03:00,1745318711.972957,40.95229131942952,29.14028466175749,76.45007,-1,-1,-1,-1,30,31.46988262717221,-9999,34092.91658429167,-0.8084259033203125,0.660430908203125,-0.1973114013671875,34092.90904329167,-0.2426552924577306,-1.336693293704609,-0.6351813820850589,0.04562336578965187,0.01354317273944616,0.001533268601633608,0.03152674436569214,0.06675642728805542,0.01344917714595795,XArbitraryZVertical,0.3145396893530831,0.5547078403051453,-0.1018533167809978,-0.7635377659480989,-0.7830069661140442,0.5933235287666321,-0.1867279857397079,0,0,0,-1,-1,34072.750615375,unknown,2,2025-04-22T13:44:53.593+03:00,2025-04-21T17:08:51.449+03:00,7472,1.022023,0,0,6219.038,5,20,2025-04-22T13:45:01.331+03:00,767011504.0055095,0,-20.21,100.4483,1,0.65,2025-04-22T13:42:20.228+03:00,86,1.433333333333333,2025-04-22T09:54:17.825+03:00,0.02225348692287972,0
2025-04-22T13:45:13.774+03:00,1745318711.972957,40.95229131942952,29.14028466175749,76.45007,-1,-1,-1,-1,30,31.46988262717221,-9999,34092.92666029167,-0.791534423828125,0.5952606201171875,-0.1756591796875,34092.91912029167,-0.2418536309609342,-1.336172375313463,-0.6350726260345992,0.07841213792562485,-0.006971489638090134,-0.003152862889692187,-0.003282666206359863,0.1041821837425232,-0.01226623356342316,XArbitraryZVertical,0.3143049341503728,0.5546503292143189,-0.1020441195430364,-0.7636507111414761,-0.7829722762107849,0.593235969543457,-0.1871508359909058,0,0,0,-1,-1,34072.750615375,unknown,2,2025-04-22T13:44:53.593+03:00,2025-04-21T17:08:51.449+03:00,7472,1.022023,0,0,6219.038,5,20,2025-04-22T13:45:01.331+03:00,767011504.0055095,0,-20.21,100.4483,1,0.65,2025-04-22T13:42:20.228+03:00,86,1.433333333333333,2025-04-22T09:54:17.825+03:00,0.02225348692287972,0
2025-04-22T13:45:13.784+03:00,1745318711.972957,40.95229131942952,29.14028466175749,76.45007,-1,-1,-1,-1,30,31.46988262717221,-9999,34092.93673629167,-0.7703704833984375,0.552764892578125,-0.1763153076171875,34092.92919629167,-0.2410527608584423,-1.335882092113613,-0.6347991539851104,0.04947103187441826,-0.02009554766118526,-0.01881091855466366,-0.02377861738204956,0.01526051759719849,0.00571422278881073,XArbitraryZVertical,0.3139995870612926,0.554703812654215,-0.102220404484885,-0.7637139195657118,-0.7830756902694702,0.5930157899856567,-0.1874158829450607,0,0,0,-1,-1,34072.750615375,unknown,2,2025-04-22T13:44:53.593+03:00,2025-04-21T17:08:51.449+03:00,7472,1.022023,0,0,6219.038,5,20,2025-04-22T13:45:01.331+03:00,767011504.0055095,0,-20.21,100.4483,1,0.65,2025-04-22T13:42:20.228+03:00,86,1.433333333333333,2025-04-22T09:54:17.825+03:00,0.02225348692287972,0
2025-04-22T13:45:13.794+03:00,1745318711.972957,40.95229131942952,29.14028466175749,76.45007,-1,-1,-1,-1,30,31.46988262717221,-9999,34092.94681229167,-0.7845916748046875,0.5326995849609375,-0.1731719970703125,34092.93927229167,-0.2409073666356798,-1.335803898490388,-0.6346793118171116,-0.0242797527462244,0.02737542986869812,-0.02007012628018856,0.01031816005706787,-0.01908206939697266,0.01128517091274261,XArbitraryZVertical,0.3139202801341439,0.5547136476869318,-0.1022268848052723,-0.7637385044866057,-0.7831301689147949,0.5929192900657654,-0.1874936521053314,0,0,0,-1,-1,34072.750615375,unknown,2,2025-04-22T13:44:53.593+03:00,2025-04-21T17:08:51.449+03:00,7472,1.022023,0,0,6219.038,5,20,2025-04-22T13:45:01.331+03:00,767011504.0055095,0,-20.21,100.4483,1,0.65,2025-04-22T13:42:20.228+03:00,86,1.433333333333333,2025-04-22T09:54:17.825+03:00,0.02225348692287972,0
2025-04-22T13:45:13.804+03:00,1745318711.972957,40.95229131942952,29.14028466175749,76.45007,-1,-1,-1,-1,30,31.46988262717221,-9999,34092.95688829167,-0.790985107421875,0.5824737548828125,-0.1809539794921875,34092.94934829167,-0.241410135062074,-1.33582198630633,-0.6348201691011887,-0.05714582651853561,0.03388499468564987,0.01272297184914351,0.004441976547241211,-0.06414800882339478,0.01312835514545441,XArbitraryZVertical,0.3141093308770107,0.5546217904363255,-0.1020809976194394,-0.7637468701109771,-0.7830521464347839,0.5930327177047729,-0.1874599903821945,0,0,0,-1,-1,34072.750615375,unknown,2,2025-04-22T13:44:53.593+03:00,2025-04-21T17:08:51.449+03:00,7472,1.022023,0,0,6219.038,5,20,2025-04-22T13:45:01.331+03:00,767011504.0055095,0,-20.21,100.4483,1,0.65,2025-04-22T13:42:20.228+03:00,86,1.433333333333333,2025-04-22T09:54:17.825+03:00,0.02225348692287972,0
2025-04-22T13:45:13.814+03:00,1745318711.972957,40.95229131942952,29.14028466175749,76.45007,-1,-1,-1,-1,30,31.46988262717221,-9999,34092.96696529167,-0.7735748291015625,0.621307373046875,-0.19805908203125,34092.95942429167,-0.2419572394874083,-1.33596444866848,-0.6351252203106497,-0.0373077392578125,-0.002982274163514376,0.02491395734250546,-0.008310914039611816,-0.03317403793334961,0.01059436798095703,XArbitraryZVertical,0.3143631216896782,0.5545472341166653,-0.1019880101363203,-0.7637091472176586,-0.7829030752182007,0.5932783484458923,-0.1873063892126083,0,0,0,-1,-1,34072.750615375,unknown,2,2025-04-22T13:44:53.593+03:00,2025-04-21T17:08:51.449+03:00,7472,1.022023,0,0,6219.038,5,20,2025-04-22T13:45:01.331+03:00,767011504.0055095,0,-20.21,100.4483,1,0.65,2025-04-22T13:42:20.228+03:00,86,1.433333333333333,2025-04-22T09:54:17.825+03:00,0.02225348692287972,0
2025-04-22T13:45:13.824+03:00,1745318711.972957,40.95229131942952,29.14028466175749,76.45007,-1,-1,-1,-1,30,31.46988262717221,-9999,34092.97704129167,-0.7643280029296875,0.6036529541015625,-0.1970367431640625,34092.96950129167,-0.2423146200964489,-1.336256258902548,-0.6354109764460023,-0.03712797537446022,-0.005386576522141695,0.009472951292991638,0.00168001651763916,0.01913189888000488,-0.005115434527397156,XArbitraryZVertical,0.3145498013971715,0.5545621660382855,-0.1019851901798833,-0.763621645416688,-0.7827925086021423,0.5935083031654358,-0.1870384514331818,0,0,0,-1,-1,34072.750615375,unknown,2,2025-04-22T13:44:53.593+03:00,2025-04-21T17:08:51.449+03:00,7472,1.022023,0,0,6219.038,5,20,2025-04-22T13:45:01.331+03:00,767011504.0055095,0,-20.21,100.4483,1,0.65,2025-04-22T13:42:20.228+03:00,86,1.433333333333333,2025-04-22T09:54:17.825+03:00,0.02225348692287972,0
2025-04-22T13:45:13.834+03:00,1745318711.972957,40.95229131942952,29.14028466175749,76.45007,-1,-1,-1,-1,30,31.46988262717221,-9999,34092.98711729167,-0.7776336669921875,0.56439208984375,-0.185577392578125,34092.97957729167,-0.2429866464322355,-1.336702666392025,-0.6355300388764026,-0.08614019304513931,0.002627208363264799,-0.01249916013330221,0.01861667633056641,0.02265244722366333,-0.0136905163526535,XArbitraryZVertical,0.3147560618167417,0.5546100572878498,-0.1018353845662025,-0.7635219010535087,-0.7828072309494019,0.5936041474342346,-0.1866726130247116,0,0,0,-1,-1,34072.750615375,unknown,2,2025-04-22T13:44:53.593+03:00,2025-04-21T17:08:51.449+03:00,7472,1.022023,0,0,6219.038,5,20,2025-04-22T13:45:01.331+03:00,767011504.0055095,0,-20.21,100.4483,1,0.65,2025-04-22T13:42:20.228+03:00,86,1.433333333333333,2025-04-22T09:54:17.825+03:00,0.02225348692287972,0
2025-04-22T13:45:13.844+03:00,1745318711.972957,40.95229131942952,29.14028466175749,76.45007,-1,-1,-1,-1,30,31.46988262717221,-9999,34092.99719329167,-0.7784423828125,0.5670013427734375,-0.18206787109375,34092.98965329167,-0.2446064653995484,-1.337697248400384,-0.6357013405097438,-0.1656307578086853,-0.009369533509016037,-0.01687872968614101,0.01052433252334595,-0.0172497034072876,-0.003918305039405823,XArbitraryZVertical,0.3152160685266018,0.5547103491481629,-0.1014262800054299,-0.7633138527454951,-0.7828937768936157,0.5937420129776001,-0.1858705133199692,0,0,0,-1,-1,34072.750615375,unknown,2,2025-04-22T13:44:53.593+03:00,2025-04-21T17:08:51.449+03:00,7472,1.022023,0,0,6219.038,5,20,2025-04-22T13:45:01.331+03:00,767011504.0055095,0,-20.21,100.4483,1,0.65,2025-04-22T13:42:20.228+03:00,86,1.433333333333333,2025-04-22T09:54:17.825+03:00,0.02225348692287972,0
2025-04-22T13:45:13.854+03:00,1745318711.972957,40.95229131942952,29.14028466175749,76.45007,-1,-1,-1,-1,30,31.46988262717221,-9999,34093.00726929167,-0.778778076171875,0.6024017333984375,-0.1883697509765625,34092.99972929167,-0.2469640940535392,-1.339319321371505,-0.6360507048351527,-0.2049135863780975,-0.02760007046163082,-0.008634713478386402,0.002917110919952393,-0.03411722183227539,0.001889780163764954,XArbitraryZVertical,0.3159130700837653,0.5549077178796546,-0.1008900904377491,-0.7629530802339027,-0.7829921245574951,0.5940231084823608,-0.1845527142286301,0,0,0,-1,-1,34072.750615375,unknown,2,2025-04-22T13:44:53.593+03:00,2025-04-21T17:08:51.449+03:00,7472,1.022023,0,0,6219.038,5,20,2025-04-22T13:45:01.331+03:00,767011504.0055095,0,-20.21,100.4483,1,0.65,2025-04-22T13:42:20.228+03:00,86,1.433333333333333,2025-04-22T09:54:17.825+03:00,0.02225348692287972,0
2025-04-22T13:45:13.872+03:00,1745318711.972957,40.95229131942952,29.14028466175749,76.45007,-1,-1,-1,-1,30,31.46988262717221,-9999,34093.01734629167,-0.7826385498046875,0.60821533203125,-0.204132080078125,34093.00980529167,-0.2495384272727162,-1.341160552393771,-0.6364708328114772,-0.2196786850690842,-0.03060411475598812,-5.587289342656732e-05,0.005209803581237793,-0.005585432052612305,-0.001424789428710938,XArbitraryZVertical,0.3166849658929698,0.5551429246979467,-0.100328819069072,-0.7625359301630787,-0.7830876111984253,0.5943610072135925,-0.1830539256334305,0,0,0,-1,-1,34072.750615375,unknown,2,2025-04-22T13:44:53.593+03:00,2025-04-21T17:08:51.449+03:00,7472,1.022023,0,0,6219.038,5,20,2025-04-22T13:45:01.331+03:00,767011504.0055095,0,-20.21,100.4483,1,0.65,2025-04-22T13:42:20.228+03:00,86,1.433333333333333,2025-04-22T09:54:17.825+03:00,0.02225348692287972,0
2025-04-22T13:45:13.874+03:00,1745318711.972957,40.95229131942952,29.14028466175749,76.45007,-1,-1,-1,-1,30,31.46988262717221,-9999,34093.02742229167,-0.7842254638671875,0.5667877197265625,-0.2200927734375,34093.01988229167,-0.2526873798692119,-1.343340630387178,-0.6370745115649115,-0.3106740415096283,-0.0296570286154747,0.002393736038357019,0.001137435436248779,0.01835852861404419,-0.01653432846069336,XArbitraryZVertical,0.3176655969796487,0.5553880544584632,-0.09966049164387394,-0.762036995486318,-0.7831350564956665,0.5948463678359985,-0.1812653541564941,0,0,0,-1,-1,34072.750615375,unknown,2,2025-04-22T13:44:53.593+03:00,2025-04-21T17:08:51.449+03:00,7472,1.022023,0,0,6219.038,5,20,2025-04-22T13:45:01.331+03:00,767011504.0055095,0,-20.21,100.4483,1,0.65,2025-04-22T13:42:20.228+03:00,86,1.433333333333333,2025-04-22T09:54:17.825+03:00,0.02225348692287972,0
2025-04-22T13:45:13.884+03:00,1745318711.972957,40.95229131942952,29.14028466175749,76.45007,-1,-1,-1,-1,30,31.46988262717221,-9999,34093.03749829167,-0.780914306640625,0.541534423828125,-0.2397003173828125,34093.02995829167,-0.2573052434025371,-1.34652813067763,-0.6380082269649389,-0.4501179456710815,-0.05592378601431847,0.01989416591823101,-0.001272022724151611,-0.0111088752746582,-0.03572611510753632,XArbitraryZVertical,0.319122713686949,0.5557323191363924,-0.09869779731003857,-0.7613020520113455,-0.7831668853759766,0.5955966711044312,-0.1786445677280426,0,0,0,-1,-1,34072.750615375,unknown,2,2025-04-22T13:44:53.593+03:00,2025-04-21T17:08:51.449+03:00,7472,1.022023,0,0,6219.038,5,20,2025-04-22T13:45:01.331+03:00,767011504.0055095,0,-20.21,100.4483,1,0.65,2025-04-22T13:42:20.228+03:00,86,1.433333333333333,2025-04-22T09:54:17.825+03:00,0.02225348692287972,0
2025-04-22T13:45:13.895+03:00,1745318711.972957,40.95229131942952,29.14028466175749,76.45007,-1,-1,-1,-1,30,31.46988262717221,-9999,34093.04757429167,-0.766265869140625,0.547088623046875,-0.2527618408203125,34093.04003429167,-0.2636246657587556,-1.351046962691643,-0.6394564461226077,-0.593489944934845,-0.09337761998176575,0.03751353919506073,-0.0002472400665283203,-0.05116623640060425,-0.05675862729549408,XArbitraryZVertical,0.3211718468700441,0.5562291449921425,-0.09746602339598655,-0.7602355093449563,-0.7831236124038696,0.5967593789100647,-0.1749155670404434,0,0,0,-1,-1,34072.750615375,unknown,2,2025-04-22T13:44:53.593+03:00,2025-04-21T17:08:51.449+03:00,7472,1.022023,0,0,6219.038,5,20,2025-04-22T13:45:01.331+03:00,767011504.0055095,0,-20.21,100.4483,1,0.65,2025-04-22T13:42:20.228+03:00,86,1.433333333333333,2025-04-22T09:54:17.825+03:00,0.02225348692287972,0
2025-04-22T13:45:13.905+03:00,1745318711.972957,40.95229131942952,29.14028466175749,76.45007,-1,-1,-1,-1,30,31.46988262717221,-9999,34093.05765129167,-0.7534942626953125,0.5283660888671875,-0.248687744140625,34093.05011029167,-0.2717267477129106,-1.357179941352405,-0.6414063433842974,-0.76264488697052,-0.1669474542140961,0.06310172379016876,0.01033800840377808,-0.05327898263931274,-0.07996970415115356,XArbitraryZVertical,0.3238192006231221,0.5569649079096098,-0.09598466654579141,-0.7587608912841195,-0.7830430269241333,0.598322868347168,-0.1698624342679977,0,0,0,-1,-1,34072.750615375,unknown,2,2025-04-22T13:44:53.593+03:00,2025-04-21T17:08:51.449+03:00,7472,1.022023,0,0,6219.038,5,20,2025-04-22T13:45:01.331+03:00,767011504.0055095,0,-20.21,100.4483,1,0.65,2025-04-22T13:42:20.228+03:00,86,1.433333333333333,2025-04-22T09:54:17.825+03:00,0.02225348692287972,0
2025-04-22T13:45:13.915+03:00,1745318711.972957,40.95229131942952,29.14028466175749,76.45007,-1,-1,-1,-1,30,31.46988262717221,-9999,34093.06772729167,-0.76080322265625,0.4966583251953125,-0.2407684326171875,34093.06018729167,-0.282762920668919,-1.365921067949794,-0.6440144980620004,-1.071101665496826,-0.2593656480312347,0.086200051009655,0.02602469921112061,-0.06176018714904785,-0.09006845951080322,XArbitraryZVertical,0.3273968956481303,0.5580901409099678,-0.09404219493983908,-0.7566391057170135,-0.7829673886299133,0.6004106402397156,-0.1626933366060257,0,0,0,-1,-1,34072.750615375,unknown,2,2025-04-22T13:44:53.593+03:00,2025-04-21T17:08:51.449+03:00,7472,1.022023,0,0,6219.038,5,20,2025-04-22T13:45:01.331+03:00,767011504.0055095,0,-20.21,100.4483,1,0.65,2025-04-22T13:42:20.228+03:00,86,1.433333333333333,2025-04-22T09:54:17.825+03:00,0.02225348692287972,0
2025-04-22T13:45:13.925+03:00,1745318711.972957,40.95229131942952,29.14028466175749,76.45007,-1,-1,-1,-1,30,31.46988262717221,-9999,34093.07780329167,-0.793701171875,0.477447509765625,-0.2559356689453125,34093.07026329167,-0.2978062309577288,-1.377687958529244,-0.6476774029722293,-1.407259464263916,-0.2653452455997467,0.1571357548236847,0.02846771478652954,-0.09668302536010742,-0.0892634391784668,XArbitraryZVertical,0.3323309606377365,0.5594935976382236,-0.0914560753515373,-0.7537630785268428,-0.782663881778717,0.6033357977867126,-0.1530460864305496,0,0,0,-1,-1,34072.750615375,unknown,2,2025-04-22T13:44:53.593+03:00,2025-04-21T17:08:51.449+03:00,7472,1.022023,0,0,6219.038,5,20,2025-04-22T13:45:01.331+03:00,767011504.0055095,0,-20.21,100.4483,1,0.65,2025-04-22T13:42:20.228+03:00,86,1.433333333333333,2025-04-22T09:54:17.825+03:00,0.02225348692287972,0
2025-04-22T13:45:13.935+03:00,1745318711.972957,40.95229131942952,29.14028466175749,76.45007,-1,-1,-1,-1,30,31.46988262717221,-9999,34093.08787929167,-0.8137359619140625,0.4588623046875,-0.2750396728515625,34093.08033929167,-0.3173519676359587,-1.391892060213815,-0.6525871375399083,-1.822643518447876,-0.1976114809513092,0.220159187912941,0.002155959606170654,-0.1230979561805725,-0.1059598326683044,XArbitraryZVertical,0.3388606475907333,0.5607859611879298,-0.08804999025741091,-0.7502930233351901,-0.7818342447280884,0.6072439551353455,-0.1413851380348206,0,0,0,-1,-1,34072.750615375,unknown,2,2025-04-22T13:44:53.593+03:00,2025-04-21T17:08:51.449+03:00,7472,1.022023,0,0,6219.038,5,20,2025-04-22T13:45:01.331+03:00,767011504.0055095,0,-20.21,100.4483,1,0.65,2025-04-22T13:42:20.228+03:00,86,1.433333333333333,2025-04-22T09:54:17.825+03:00,0.02225348692287972,0
2025-04-22T13:45:13.945+03:00,1745318711.972957,40.95229131942952,29.14028466175749,76.45007,-1,-1,-1,-1,30,31.46988262717221,-9999,34093.09795529167,-0.779388427734375,0.4933929443359375,-0.30780029296875,34093.09041529167,-0.3417288938993958,-1.408927160596969,-0.6584856595230545,-2.087622404098511,-0.261917769908905,0.2908748984336853,-0.02987468242645264,-0.1477323770523071,-0.1441850513219833,XArbitraryZVertical,0.3469779220378553,0.5620255739124042,-0.08374513781115436,-0.746136830389208,-0.7805805206298828,0.6119198203086853,-0.127467155456543,0,0,0,-1,-1,34072.750615375,unknown,2,2025-04-22T13:44:53.593+03:00,2025-04-21T17:08:51.449+03:00,7472,1.022023,0,0,6219.038,5,20,2025-04-22T13:45:01.331+03:00,767011504.0055095,0,-20.21,100.4483,1,0.65,2025-04-22T13:42:20.228+03:00,86,1.433333333333333,2025-04-22T09:54:17.825+03:00,0.02225348692287972,0
2025-04-22T13:45:13.955+03:00,1745318711.972957,40.95229131942952,29.14028466175749,76.45007,-1,-1,-1,-1,30,31.46988262717221,-9999,34093.10803229167,-0.7100677490234375,0.62310791015625,-0.4074554443359375,34093.10049129167,-0.3682528517148093,-1.429012278840837,-0.6643173146196744,-2.265983581542969,-0.4523568749427795,0.2143456786870956,-0.02003175020217896,-0.146978497505188,-0.173318088054657,XArbitraryZVertical,0.3555758441765456,0.5638587373902396,-0.07930556695459245,-0.7411745023211269,-0.7794371247291565,0.6165217757225037,-0.1112582832574844,0,0,0,-1,-1,34072.750615375,unknown,2,2025-04-22T13:44:53.593+03:00,2025-04-21T17:08:51.449+03:00,7472,1.022023,0,0,6219.038,5,20,2025-04-22T13:45:01.331+03:00,767011504.0055095,0,-20.21,100.4483,1,0.65,2025-04-22T13:42:20.228+03:00,86,1.433333333333333,2025-04-22T09:54:17.825+03:00,0.02225348692287972,0
2025-04-22T13:45:13.965+03:00,1745318711.972957,40.95229131942952,29.14028466175749,76.45007,-1,-1,-1,-1,30,31.46988262717221,-9999,34093.11810829167,-0.69305419921875,0.7737579345703125,-0.429443359375,34093.11056829167,-0.3965219550644072,-1.451140454417526,-0.6697221641939833,-2.179937362670898,-0.4302065670490265,0.2957630455493927,0.0452035665512085,-0.05572009086608887,-0.2810174226760864,XArbitraryZVertical,0.3644835494811403,0.5660025085814049,-0.07463100055034971,-0.7356786376940695,-0.7783883810043335,0.6207681894302368,-0.09358580410480499,0,0,0,-1,-1,34072.750615375,unknown,2,2025-04-22T13:44:53.593+03:00,2025-04-21T17:08:51.449+03:00,7472,1.022023,0,0,6219.038,5,20,2025-04-22T13:45:01.331+03:00,767011504.0055095,0,-20.21,100.4483,1,0.65,2025-04-22T13:42:20.228+03:00,86,1.433333333333333,2025-04-22T09:54:17.825+03:00,0.02225348692287972,0
2025-04-22T13:45:13.975+03:00,1745318711.972957,40.95229131942952,29.14028466175749,76.45007,-1,-1,-1,-1,30,31.46988262717221,-9999,34093.12818429167,-0.6838836669921875,0.8476409912109375,-0.4732208251953125,34093.12064429167,-0.421626218314902,-1.470384777875027,-0.6759226757171861,-1.837839484214783,-0.3028075993061066,0.4975420832633972,0.08093374967575073,0.09786272048950195,-0.3442065715789795,XArbitraryZVertical,0.3728916716811707,0.5673187423409132,-0.0710414010572127,-0.730790192917823,-0.7762004733085632,0.6256173849105835,-0.0782024934887886,0,0,0,-1,-1,34072.750615375,unknown,2,2025-04-22T13:44:53.593+03:00,2025-04-21T17:08:51.449+03:00,7472,1.022023,0,0,6219.038,5,20,2025-04-22T13:45:01.331+03:00,767011504.0055095,0,-20.21,100.4483,1,0.65,2025-04-22T13:42:20.228+03:00,86,1.433333333333333,2025-04-22T09:54:17.825+03:00,0.02225348692287972,0
2025-04-22T13:45:13.985+03:00,1745318711.972957,40.95229131942952,29.14028466175749,76.45007,-1,-1,-1,-1,30,31.46988262717221,-9999,34093.13826029167,-0.6791839599609375,0.877716064453125,-0.3895416259765625,34093.13072029167,-0.4425572291575691,-1.486872160135172,-0.6828414248221905,-1.49042809009552,-0.3844667673110962,0.5535821914672852,0.08362990617752075,0.1958280801773071,-0.3974938988685608,XArbitraryZVertical,0.3804442915670259,0.56810815070875,-0.06885010709543406,-0.7264812422558838,-0.7730525732040405,0.6309999227523804,-0.065030537545681,0,0,0,-1,-1,34072.750615375,unknown,2,2025-04-22T13:44:53.593+03:00,2025-04-21T17:08:51.449+03:00,7472,1.022023,0,0,6219.038,5,20,2025-04-22T13:45:01.331+03:00,767011504.0055095,0,-20.21,100.4483,1,0.65,2025-04-22T13:42:20.228+03:00,86,1.433333333333333,2025-04-22T09:54:17.825+03:00,0.02225348692287972,0
2025-04-22T13:45:13.995+03:00,1745318711.972957,40.95229131942952,29.14028466175749,76.45007,-1,-1,-1,-1,30,31.46988262717221,-9999,34093.14833629167,-0.7422637939453125,0.826995849609375,-0.2868499755859375,34093.14079629167,-0.4584378931794895,-1.502486683885445,-0.6887086122121528,-1.007834553718567,-0.7244800925254822,0.3788786232471466,0.09440916776657104,0.2385284900665283,-0.3839163184165955,XArbitraryZVertical,0.3862524319808303,0.5696136743160986,-0.06808313083358941,-0.7222977296933982,-0.7702667713165283,0.6355406641960144,-0.05269864201545715,0,0,0,-1,-1,34072.750615375,unknown,2,2025-04-22T13:44:53.593+03:00,2025-04-21T17:08:51.449+03:00,7472,1.022023,0,0,6219.038,5,20,2025-04-22T13:45:01.331+03:00,767011504.0055095,0,-20.21,100.4483,1,0.65,2025-04-22T13:42:20.228+03:00,86,1.433333333333333,2025-04-22T09:54:17.825+03:00,0.02225348692287972,0
2025-04-22T13:45:14.005+03:00,1745318711.972957,40.95229131942952,29.14028466175749,76.45007,-1,-1,-1,-1,30,31.46988262717221,-9999,34093.15841329167,-0.857666015625,0.808685302734375,-0.2579345703125,34093.15087229167,-0.4684803358884044,-1.516165961191504,-0.6922569828042292,-0.5818518400192261,-0.7078816890716553,0.2554150223731995,0.06052905321121216,0.214644193649292,-0.2731515765190125,XArbitraryZVertical,0.3897411579248312,0.5719133320328422,-0.06833299545393381,-0.7185732567148384,-0.7686588764190674,0.638276219367981,-0.04203394055366516,0,0,0,-1,-1,34072.750615375,unknown,2,2025-04-22T13:44:53.593+03:00,2025-04-21T17:08:51.449+03:00,7472,1.022023,0,0,6219.038,5,20,2025-04-22T13:45:01.331+03:00,767011504.0055095,0,-20.21,100.4483,1,0.65,2025-04-22T13:42:20.228+03:00,86,1.433333333333333,2025-04-22T09:54:17.825+03:00,0.02225348692287972,0
2025-04-22T13:45:14.016+03:00,1745318711.972957,40.95229131942952,29.14028466175749,76.45007,-1,-1,-1,-1,30,31.46988262717221,-9999,34093.16848929167,-0.90777587890625,0.8799896240234375,-0.2397308349609375,34093.16094929167,-0.4729470142161046,-1.526056112396717,-0.6946676235348156,-0.1091382578015327,-0.6965472102165222,0.1894724071025848,-0.04944270849227905,0.1596438884735107,-0.2305163741111755,XArbitraryZVertical,0.3914129062123753,0.5741214768590671,-0.06949181901889687,-0.7157871147902719,-0.7674975395202637,0.6401301026344299,-0.03436093404889107,0,0,0,-1,-1,34072.750615375,unknown,2,2025-04-22T13:44:53.593+03:00,2025-04-21T17:08:51.449+03:00,7472,1.022023,0,0,6219.038,5,20,2025-04-22T13:45:01.331+03:00,767011504.0055095,0,-20.21,100.4483,1,0.65,2025-04-22T13:42:20.228+03:00,86,1.433333333333333,2025-04-22T09:54:17.825+03:00,0.02225348692287972,0
2025-04-22T13:45:14.026+03:00,1745318711.972957,40.95229131942952,29.14028466175749,76.45007,-1,-1,-1,-1,30,31.46988262717221,-9999,34093.17856529167,-0.881805419921875,0.897125244140625,-0.23992919921875,34093.17102529167,-0.4711017051579499,-1.531987593018469,-0.6962693233672432,0.3655542135238647,-0.7222227454185486,0.1481979340314865,-0.1326143145561218,0.2111638188362122,-0.216111958026886,XArbitraryZVertical,0.3911567454467871,0.5762918805359623,-0.07186462500625981,-0.7139463125914108,-0.7666622400283813,0.641359806060791,-0.02976813726127148,0,0,0,-1,-1,34072.750615375,unknown,2,2025-04-22T13:44:53.593+03:00,2025-04-21T17:08:51.449+03:00,7472,1.022023,0,0,6219.038,5,20,2025-04-22T13:45:01.331+03:00,767011504.0055095,0,-20.21,100.4483,1,0.65,2025-04-22T13:42:20.228+03:00,86,1.433333333333333,2025-04-22T09:54:17.825+03:00,0.02225348692287972,0
2025-04-22T13:45:14.036+03:00,1745318711.972957,40.95229131942952,29.14028466175749,76.45007,-1,-1,-1,-1,30,31.46988262717221,-9999,34093.18864129167,-0.8200225830078125,0.830047607421875,-0.224884033203125,34093.18110129167,-0.4635384413617412,-1.534804324931049,-0.6975068151049285,0.7407405972480774,-0.8072771430015564,0.1501017063856125,-0.1329305171966553,0.2580359578132629,-0.2103503346443176,XArbitraryZVertical,0.3892428863730062,0.5785326203816363,-0.07553958529596785,-0.7127998802105384,-0.7659494876861572,0.64230877161026,-0.02757996506989002,0,0,0,-1,-1,34072.750615375,unknown,2,2025-04-22T13:44:53.593+03:00,2025-04-21T17:08:51.449+03:00,7472,1.022023,0,0,6219.038,5,20,2025-04-22T13:45:01.331+03:00,767011504.0055095,0,-20.21,100.4483,1,0.65,2025-04-22T13:42:20.228+03:00,86,1.433333333333333,2025-04-22T09:54:17.825+03:00,0.02225348692287972,0
2025-04-22T13:45:14.046+03:00,1745318711.972957,40.95229131942952,29.14028466175749,76.45007,-1,-1,-1,-1,30,31.46988262717221,-9999,34093.19871729167,-0.7768402099609375,0.7008209228515625,-0.160980224609375,34093.19117729167,-0.4528472405600876,-1.536263688083643,-0.6988719737473775,0.8444592952728271,-0.8320578336715698,0.1800228506326675,-0.07958412170410156,0.2227189540863037,-0.2098657488822937,XArbitraryZVertical,0.3864998515542154,0.5808631039957034,-0.08010254502520948,-0.7118984488527391,-0.7651118636131287,0.6433545351028442,-0.02643183805048466,0,0,0,-1,-1,34072.750615375,unknown,2,2025-04-22T13:44:53.593+03:00,2025-04-21T17:08:51.449+03:00,7472,1.022023,0,0,6219.038,5,20,2025-04-22T13:45:01.331+03:00,767011504.0055095,0,-20.21,100.4483,1,0.65,2025-04-22T13:42:20.228+03:00,86,1.433333333333333,2025-04-22T09:54:17.825+03:00,0.02225348692287972,0
2025-04-22T13:45:14.056+03:00,1745318711.972957,40.95229131942952,29.14028466175749,76.45007,-1,-1,-1,-1,30,31.46988262717221,-9999,34093.20879429167,-0.7744903564453125,0.5995635986328125,-0.093475341796875,34093.20125329167,-0.4430152489958988,-1.537906108210408,-0.7005187751143782,0.5868104100227356,-0.7483366131782532,0.1999635398387909,-0.02373224496841431,0.1050649881362915,-0.1631531119346619,XArbitraryZVertical,0.3840700838091046,0.5830266075035738,-0.08448560402089815,-0.7109375273625054,-0.7640941739082336,0.6446143984794617,-0.02514029107987881,0,0,0,-1,-1,34072.750615375,unknown,2,2025-04-22T13:44:53.593+03:00,2025-04-21T17:08:51.449+03:00,7472,1.022023,0,0,6219.038,5,20,2025-04-22T13:45:01.331+03:00,767011504.0055095,0,-20.21,100.4483,1,0.65,2025-04-22T13:42:20.228+03:00,86,1.433333333333333,2025-04-22T09:54:17.825+03:00,0.02225348692287972,0
2025-04-22T13:45:14.066+03:00,1745318711.972957,40.95229131942952,29.14028466175749,76.45007,-1,-1,-1,-1,30,31.46988262717221,-9999,34093.21887029167,-0.777862548828125,0.562255859375,-0.023773193359375,34093.21133029167,-0.4376962618353006,-1.541515087618156,-0.7028778466721982,0.2084410488605499,-0.6430271863937378,0.3022350370883942,-0.009192705154418945,-0.01697593927383423,-0.09642118215560913,XArbitraryZVertical,0.3830760431225981,0.5848792783742909,-0.08788257660953606,-0.7095389137747606,-0.7626578211784363,0.6464161276817322,-0.02233794890344143,0,0,0,-1,-1,34072.750615375,unknown,2,2025-04-22T13:44:53.593+03:00,2025-04-21T17:08:51.449+03:00,7472,1.022023,0,0,6219.038,5,20,2025-04-22T13:45:01.331+03:00,767011504.0055095,0,-20.21,100.4483,1,0.65,2025-04-22T13:42:20.228+03:00,86,1.433333333333333,2025-04-22T09:54:17.825+03:00,0.02225348692287972,0
2025-04-22T13:45:14.076+03:00,1745318711.972957,40.95229131942952,29.14028466175749,76.45007,-1,-1,-1,-1,30,31.46988262717221,-9999,34093.22894766667,-0.769500732421875,0.558135986328125,0.0262603759765625,34093.22140629167,-0.4367318889957416,-1.546941196796876,-0.7066627268516074,-0.04780492186546326,-0.5647583603858948,0.4503839910030365,-0.01818686723709106,-0.07953619956970215,-0.03044313192367554,XArbitraryZVertical,0.383694985052527,0.5862659063882358,-0.09057551512279585,-0.7077191953899026,-0.7603165507316589,0.6492992639541626,-0.0181408915668726,0,0,0,-1,-1,34072.750615375,unknown,2,2025-04-22T13:44:53.593+03:00,2025-04-21T17:08:51.449+03:00,7472,1.022023,0,0,6219.038,5,20,2025-04-22T13:45:01.331+03:00,767011504.0055095,0,-20.21,100.4483,1,0.65,2025-04-22T13:42:20.228+03:00,86,1.433333333333333,2025-04-22T09:54:17.825+03:00,0.02225348692287972,0
2025-04-22T13:45:14.086+03:00,1745318711.972957,40.95229131942952,29.14028466175749,76.45007,-1,-1,-1,-1,30,31.46988262717221,-9999,34093.23902366667,-0.7744140625,0.55340576171875,0.0666656494140625,34093.23148366667,-0.4378548770324885,-1.553033098808505,-0.7117056608999316,-0.1316162049770355,-0.4967726469039917,0.5347960591316223,-0.01568245887756348,-0.09398329257965088,0.02317029051482677,XArbitraryZVertical,0.3852609351357243,0.5872382585274626,-0.09310058589813644,-0.7057319195343218,-0.7571295499801636,0.6531263589859009,-0.01345047913491726,0,0,0,-1,-1,34072.750615375,unknown,2,2025-04-22T13:44:53.593+03:00,2025-04-21T17:08:51.449+03:00,7472,1.022023,0,0,6219.038,5,20,2025-04-22T13:45:01.331+03:00,767011504.0055095,0,-20.21,100.4483,1,0.65,2025-04-22T13:42:20.228+03:00,86,1.433333333333333,2025-04-22T09:54:17.825+03:00,0.02225348692287972,0
2025-04-22T13:45:14.096+03:00,1745318714.064455,40.9522760022753,29.14031104092529,76.45013,-1,-1,-1,-1,30,31.59543419189704,-9999,34093.24909966667,-0.7820281982421875,0.557861328125,0.08349609375,34093.24155966667,-0.439663245168731,-1.558801981751899,-0.7171789440332202,-0.14217309653759,-0.41824010014534,0.539962112903595,-0.01720434427261353,-0.1015362143516541,0.06233847141265869,XArbitraryZVertical,0.3871566830996435,0.5878690036349286,-0.09548198244307698,-0.7038485876156088,-0.7536085844039917,0.6572611927986145,-0.009039474651217461,0,0,0,-1,-1,34072.750615375,unknown,2,2025-04-22T13:44:53.593+03:00,2025-04-21T17:08:51.449+03:00,7472,1.022023,0,0,6219.038,5,20,2025-04-22T13:45:01.331+03:00,767011504.0055095,0,-20.21,100.4483,1,0.65,2025-04-22T13:42:20.228+03:00,86,1.433333333333333,2025-04-22T09:54:17.825+03:00,0.02225348692287972,0
2025-04-22T13:45:14.106+03:00,1745318714.064455,40.9522760022753,29.14031104092529,76.45013,-1,-1,-1,-1,30,31.59543419189704,-9999,34093.25917666667,-0.7744140625,0.587738037109375,0.0654754638671875,34093.25163566667,-0.4411342078850283,-1.563830497597851,-0.7224554994602156,-0.07925325632095337,-0.3990738689899445,0.5032118558883667,-0.03035151958465576,-0.1071517467498779,0.08585304021835327,XArbitraryZVertical,0.3889153565409308,0.5883298727215214,-0.09778051367807532,-0.7021763698544865,-0.7501659989356995,0.6612287163734436,-0.005225612781941891,0,0,0,-1,-1,34072.750615375,unknown,2,2025-04-22T13:44:53.593+03:00,2025-04-21T17:08:51.449+03:00,7472,1.022023,0,0,6219.038,5,20,2025-04-22T13:45:01.331+03:00,767011504.0055095,0,-20.21,100.4483,1,0.65,2025-04-22T13:42:20.228+03:00,86,1.433333333333333,2025-04-22T09:54:17.825+03:00,0.02225348692287972,0
2025-04-22T13:45:14.116+03:00,1745318714.064455,40.9522760022753,29.14031104092529,76.45013,-1,-1,-1,-1,30,31.59543419189704,-9999,34093.26925266667,-0.754913330078125,0.6622467041015625,0.0245819091796875,34093.26171266667,-0.4409816484920347,-1.567909973108532,-0.727501017293738,0.1055591329932213,-0.4224362671375275,0.4991523623466492,-0.03140860795974731,-0.09324342012405396,0.079456627368927,XArbitraryZVertical,0.3901618600716087,0.5888088861529559,-0.1003907965799497,-0.7007135325805076,-0.7468354105949402,0.6650053858757019,-0.002155637135729194,0,0,0,-1,-1,34072.750615375,unknown,2,2025-04-22T13:44:53.593+03:00,2025-04-21T17:08:51.449+03:00,7472,1.022023,0,0,6219.038,5,20,2025-04-22T13:45:01.331+03:00,767011504.0055095,0,-20.21,100.4483,1,0.65,2025-04-22T13:42:20.228+03:00,86,1.433333333333333,2025-04-22T09:54:17.825+03:00,0.02225348692287972,0
2025-04-22T13:45:14.126+03:00,1745318714.064455,40.9522760022753,29.14031104092529,76.45013,-1,-1,-1,-1,30,31.59543419189704,-9999,34093.27932866667,-0.7270965576171875,0.7279510498046875,0.03125,34093.27178866667,-0.4379598392227994,-1.570179806920453,-0.7324667880004501,0.3521582782268524,-0.4349962770938873,0.4859939515590668,-0.01967191696166992,-0.03715986013412476,0.03781187534332275,XArbitraryZVertical,0.3906216441702671,0.5892245170748167,-0.1036276508251543,-0.6996359451409061,-0.7435268759727478,0.6687058210372925,-0.0004583991540130228,0,0,0,-1,-1,34072.750615375,unknown,2,2025-04-22T13:44:53.593+03:00,2025-04-21T17:08:51.449+03:00,7472,1.022023,0,0,6219.038,5,20,2025-04-22T13:45:01.331+03:00,767011504.0055095,0,-20.21,100.4483,1,0.65,2025-04-22T13:42:20.228+03:00,86,1.433333333333333,2025-04-22T09:54:17.825+03:00,0.02225348692287972,0
2025-04-22T13:45:14.136+03:00,1745318714.064455,40.9522760022753,29.14031104092529,76.45013,-1,-1,-1,-1,30,31.59543419189704,-9999,34093.28940466667,-0.6911468505859375,0.77587890625,0.0506591796875,34093.28186466667,-0.4315163894209739,-1.570474483879764,-0.7371482342661294,0.5663945078849792,-0.4775364696979523,0.4433043301105499,0.0008254647254943848,0.03595054149627686,0.02451503276824951,XArbitraryZVertical,0.3900875436991635,0.5896715728844534,-0.1075743317346543,-0.6989612861563929,-0.7403883934020996,0.6721792221069336,-0.0002382887614658102,0,0,0,-1,-1,34072.750615375,unknown,2,2025-04-22T13:44:53.593+03:00,2025-04-21T17:08:51.449+03:00,7472,1.022023,0,0,6219.038,5,20,2025-04-22T13:45:01.331+03:00,767011504.0055095,0,-20.21,100.4483,1,0.65,2025-04-22T13:42:20.228+03:00,86,1.433333333333333,2025-04-22T09:54:17.825+03:00,0.02225348692287972,0
2025-04-22T13:45:14.147+03:00,1745318714.064455,40.9522760022753,29.14031104092529,76.45013,-1,-1,-1,-1,30,31.59543419189704,-9999,34093.29948166667,-0.6849212646484375,0.7708587646484375,0.108154296875,34093.29194066667,-0.4240335674323942,-1.57050381595038,-0.741509776721603,0.5047401785850525,-0.5239801406860352,0.431978702545166,0.03493505716323853,0.08372259140014648,0.04243677854537964,XArbitraryZVertical,0.3891656518346626,0.5902899621525302,-0.1117170818184501,-0.6983030475462183,-0.7374496459960938,0.675402045249939,-0.000215712032513693,0,0,0,-1,-1,34072.750615375,unknown,2,2025-04-22T13:44:53.593+03:00,2025-04-21T17:08:51.449+03:00,7472,1.022023,0,0,6219.038,5,20,2025-04-22T13:45:01.331+03:00,767011504.0055095,0,-20.21,100.4483,1,0.65,2025-04-22T13:42:20.228+03:00,86,1.433333333333333,2025-04-22T09:54:17.825+03:00,0.02225348692287972,0
2025-04-22T13:45:14.157+03:00,1745318714.064455,40.9522760022753,29.14031104092529,76.45013,-1,-1,-1,-1,30,31.59543419189704,-9999,34093.30955766667,-0.690765380859375,0.6883697509765625,0.1460113525390625,34093.30201766667,-0.4181225134667717,-1.571787318847768,-0.7462298128866307,0.3567736446857452,-0.5168628096580505,0.5069748163223267,0.0505526065826416,0.1057162284851074,0.08122730255126953,XArbitraryZVertical,0.388740399228177,0.5909693068321514,-0.115676464395603,-0.6973199070927408,-0.7342531085014343,0.6788753271102905,0.000727639242541045,0,0,0,-1,-1,34072.750615375,unknown,2,2025-04-22T13:44:53.593+03:00,2025-04-21T17:08:51.449+03:00,7472,1.022023,0,0,6219.038,5,20,2025-04-22T13:45:01.331+03:00,767011504.0055095,0,-20.21,100.4483,1,0.65,2025-04-22T13:42:20.228+03:00,86,1.433333333333333,2025-04-22T09:54:17.825+03:00,0.02225348692287972,0
2025-04-22T13:45:14.167+03:00,1745318714.064455,40.9522760022753,29.14031104092529,76.45013,-1,-1,-1,-1,30,31.59543419189704,-9999,34093.31963366667,-0.710784912109375,0.6278839111328125,0.1457977294921875,34093.31209366667,-0.4150549525661626,-1.574567907675304,-0.7515552152335757,0.07571801543235779,-0.4512195885181427,0.5419706106185913,0.04222238063812256,0.03949874639511108,0.1371674537658691,XArbitraryZVertical,0.3892402031498655,0.5914979896744219,-0.1191445708311158,-0.6960076531956924,-0.7306225299835205,0.6827758550643921,0.002755615161731839,0,0,0,-1,-1,34072.750615375,unknown,2,2025-04-22T13:44:53.593+03:00,2025-04-21T17:08:51.449+03:00,7472,1.022023,0,0,6219.038,5,20,2025-04-22T13:45:01.331+03:00,767011504.0055095,0,-20.21,100.4483,1,0.65,2025-04-22T13:42:20.228+03:00,86,1.433333333333333,2025-04-22T09:54:17.825+03:00,0.02225348692287972,0
2025-04-22T13:45:14.177+03:00,1745318714.064455,40.9522760022753,29.14031104092529,76.45013,-1,-1,-1,-1,30,31.59543419189704,-9999,34093.32970966667,-0.738983154296875,0.609954833984375,0.163116455078125,34093.32216966667,-0.4161328353963253,-1.579530717925002,-0.7570131533392691,-0.2164120525121689,-0.3892597258090973,0.5432038307189941,0.02610278129577637,-0.04214602708816528,0.137099027633667,XArbitraryZVertical,0.3908632639015117,0.5919462312416757,-0.1216449015123701,-0.6942823353042323,-0.7268625497817993,0.6867533922195435,0.006348863709717989,0,0,0,-1,-1,34072.750615375,unknown,2,2025-04-22T13:44:53.593+03:00,2025-04-21T17:08:51.449+03:00,7472,1.022023,0,0,6219.038,5,20,2025-04-22T13:45:01.331+03:00,767011504.0055095,0,-20.21,100.4483,1,0.65,2025-04-22T13:42:20.228+03:00,86,1.433333333333333,2025-04-22T09:54:17.825+03:00,0.02225348692287972,0
2025-04-22T13:45:14.187+03:00,1745318714.064455,40.9522760022753,29.14031104092529,76.45013,-1,-1,-1,-1,30,31.59543419189704,-9999,34093.33978566667,-0.7513427734375,0.6048736572265625,0.172698974609375,34093.33224566667,-0.4207222967275313,-1.586307094384867,-0.7624377754944737,-0.416180819272995,-0.3221731185913086,0.5362814664840698,-0.006684243679046631,-0.07687121629714966,0.1449422836303711,XArbitraryZVertical,0.3933902963714682,0.5923277709680641,-0.1232823359676499,-0.692237818623008,-0.7230672240257263,0.6906864047050476,0.01121622696518898,0,0,0,-1,-1,34072.750615375,unknown,2,2025-04-22T13:44:53.593+03:00,2025-04-21T17:08:51.449+03:00,7472,1.022023,0,0,6219.038,5,20,2025-04-22T13:45:01.331+03:00,767011504.0055095,0,-20.21,100.4483,1,0.65,2025-04-22T13:42:20.228+03:00,86,1.433333333333333,2025-04-22T09:54:17.825+03:00,0.02225348692287972,0
2025-04-22T13:45:14.197+03:00,1745318714.064455,40.9522760022753,29.14031104092529,76.45013,-1,-1,-1,-1,30,31.59543419189704,-9999,34093.34986266667,-0.7513275146484375,0.6041717529296875,0.1792449951171875,34093.34232166667,-0.4271900202815689,-1.593537779949147,-0.7674951767026275,-0.4687867760658264,-0.2229525148868561,0.4837998747825623,-0.02812308073043823,-0.08788961172103882,0.152748703956604,XArbitraryZVertical,0.3963230892295113,0.5925455851172777,-0.1242507479913766,-0.6902024734886196,-0.719465970993042,0.6943348050117493,0.01636452227830887,0,0,0,-1,-1,34072.750615375,unknown,2,2025-04-22T13:44:53.593+03:00,2025-04-21T17:08:51.449+03:00,7472,1.022023,0,0,6219.038,5,20,2025-04-22T13:45:01.331+03:00,767011504.0055095,0,-20.21,100.4483,1,0.65,2025-04-22T13:42:20.228+03:00,86,1.433333333333333,2025-04-22T09:54:17.825+03:00,0.02225348692287972,0
2025-04-22T13:45:14.207+03:00,1745318714.064455,40.9522760022753,29.14031104092529,76.45013,-1,-1,-1,-1,30,31.59543419189704,-9999,34093.35993866667,-0.72979736328125,0.6380462646484375,0.1772918701171875,34093.35239866667,-0.4331799229373584,-1.599528399131683,-0.7719209202637067,-0.3389281034469604,-0.1429463624954224,0.4137062728404999,-0.03727895021438599,-0.09521818161010742,0.1559584140777588,XArbitraryZVertical,0.3989960553988413,0.5925327262612581,-0.1249359557844809,-0.6885478066422921,-0.7162762880325317,0.6975129842758179,0.02058576792478561,0,0,0,-1,-1,34072.750615375,unknown,2,2025-04-22T13:44:53.593+03:00,2025-04-21T17:08:51.449+03:00,7472,1.022023,0,0,6219.038,5,20,2025-04-22T13:45:01.331+03:00,767011504.0055095,0,-20.21,100.4483,1,0.65,2025-04-22T13:42:20.228+03:00,86,1.433333333333333,2025-04-22T09:54:17.825+03:00,0.02225348692287972,0
2025-04-22T13:45:14.217+03:00,1745318714.064455,40.9522760022753,29.14031104092529,76.45013,-1,-1,-1,-1,30,31.59543419189704,-9999,34093.37001466667,-0.6880645751953125,0.70587158203125,0.186553955078125,34093.36247466667,-0.4366274446140527,-1.60323320999267,-0.7754930612636202,-0.122166633605957,-0.1261006742715836,0.307204395532608,-0.02702254056930542,-0.07931035757064819,0.1562850475311279,XArbitraryZVertical,0.4008052797927416,0.5923970721342922,-0.1257514486257553,-0.6874643267377104,-0.713699996471405,0.7000682353973389,0.02315832674503326,0,0,0,-1,-1,34072.750615375,unknown,2,2025-04-22T13:44:53.593+03:00,2025-04-21T17:08:51.449+03:00,7472,1.022023,0,0,6219.038,5,20,2025-04-22T13:45:01.331+03:00,767011504.0055095,0,-20.21,100.4483,1,0.65,2025-04-22T13:42:20.228+03:00,86,1.433333333333333,2025-04-22T09:54:17.825+03:00,0.02225348692287972,0
2025-04-22T13:45:14.227+03:00,1745318714.064455,40.9522760022753,29.14031104092529,76.45013,-1,-1,-1,-1,30,31.59543419189704,-9999,34093.38009066667,-0.6423492431640625,0.7779693603515625,0.2184600830078125,34093.37255066667,-0.4366988345607686,-1.604779564505602,-0.7780952152771318,0.1182664781808853,-0.1922514587640762,0.2115431278944016,0.006930291652679443,-0.02360993623733521,0.1551976203918457,XArbitraryZVertical,0.4014693462321491,0.5923869889881939,-0.1269561757730319,-0.6868639395871421,-0.7118405103683472,0.7019240260124207,0.02419996075332165,0,0,0,-1,-1,34072.750615375,unknown,2,2025-04-22T13:44:53.593+03:00,2025-04-21T17:08:51.449+03:00,7472,1.022023,0,0,6219.038,5,20,2025-04-22T13:45:01.331+03:00,767011504.0055095,0,-20.21,100.4483,1,0.65,2025-04-22T13:42:20.228+03:00,86,1.433333333333333,2025-04-22T09:54:17.825+03:00,0.02225348692287972,0
2025-04-22T13:45:14.237+03:00,1745318714.064455,40.9522760022753,29.14031104092529,76.45013,-1,-1,-1,-1,30,31.59543419189704,-9999,34093.39016766667,-0.6364593505859375,0.8158416748046875,0.2726287841796875,34093.38262666667,-0.4332402536710657,-1.604930571630601,-0.7798687338055889,0.3976859152317047,-0.3093926608562469,0.1262401044368744,0.05240374803543091,0.04949933290481567,0.1810725927352905,XArbitraryZVertical,0.4009393833497979,0.5927732083805282,-0.1288003988943576,-0.6864968442874055,-0.7105915546417236,0.7031860947608948,0.02426493167877197,0,0,0,-1,-1,34072.750615375,unknown,2,2025-04-22T13:44:53.593+03:00,2025-04-21T17:08:51.449+03:00,7472,1.022023,0,0,6219.038,5,20,2025-04-22T13:45:01.331+03:00,767011504.0055095,0,-20.21,100.4483,1,0.65,2025-04-22T13:42:20.228+03:00,86,1.433333333333333,2025-04-22T09:54:17.825+03:00,0.02225348692287972,0
2025-04-22T13:45:14.247+03:00,1745318714.064455,40.9522760022753,29.14031104092529,76.45013,-1,-1,-1,-1,30,31.59543419189704,-9999,34093.40024366667,-0.7029876708984375,0.8082275390625,0.3236846923828125,34093.39270366667,-0.425456258770737,-1.602504120347883,-0.7808470876773166,0.6993672251701355,-0.2832931578159332,0.02815056405961514,0.08080995082855225,0.1046664714813232,0.2271150350570679,XArbitraryZVertical,0.3990679830724181,0.5932993813388492,-0.1313325022986725,-0.68665291557347,-0.7099602818489075,0.7038813829421997,0.02251882292330265,0,0,0,-1,-1,34072.750615375,unknown,2,2025-04-22T13:44:53.593+03:00,2025-04-21T17:08:51.449+03:00,7472,1.022023,0,0,6219.038,5,20,2025-04-22T13:45:01.331+03:00,767011504.0055095,0,-20.21,100.4483,1,0.65,2025-04-22T13:42:20.228+03:00,86,1.433333333333333,2025-04-22T09:54:17.825+03:00,0.02225348692287972,0
2025-04-22T13:45:14.257+03:00,1745318714.064455,40.9522760022753,29.14031104092529,76.45013,-1,-1,-1,-1,30,31.59543419189704,-9999,34093.41031966667,-0.783447265625,0.7845611572265625,0.3630523681640625,34093.40277966667,-0.4137943047983676,-1.596712497290069,-0.7807611033086498,0.9363710284233093,-0.189765602350235,-0.08994784951210022,0.03763872385025024,0.1093356609344482,0.2891021966934204,XArbitraryZVertical,0.3959672113741645,0.5936447360235984,-0.1341577674903198,-0.6876026265817831,-0.7101392149925232,0.7038202881813049,0.01840821094810963,0,0,0,-1,-1,34072.750615375,unknown,2,2025-04-22T13:44:53.593+03:00,2025-04-21T17:08:51.449+03:00,7472,1.022023,0,0,6219.038,5,20,2025-04-22T13:45:01.331+03:00,767011504.0055095,0,-20.21,100.4483,1,0.65,2025-04-22T13:42:20.228+03:00,86,1.433333333333333,2025-04-22T09:54:17.825+03:00,0.02225348692287972,0
2025-04-22T13:45:14.267+03:00,1745318714.064455,40.9522760022753,29.14031104092529,76.45013,-1,-1,-1,-1,30,31.59543419189704,-9999,34093.42039566667,-0.817535400390625,0.73828125,0.394775390625,34093.41285566667,-0.3994542094435031,-1.587958508232744,-0.7794302693943282,1.064505577087402,-0.0750262439250946,-0.219061091542244,-0.04580980539321899,0.09361916780471802,0.336456298828125,XArbitraryZVertical,0.3919185560133967,0.5937199635556929,-0.1369032270070061,-0.6893140292711424,-0.7112091779708862,0.7028743028640747,0.01220709923654795,0,0,0,-1,-1,34072.750615375,unknown,2,2025-04-22T13:44:53.593+03:00,2025-04-21T17:08:51.449+03:00,7472,1.022023,0,0,6219.038,5,20,2025-04-22T13:45:01.331+03:00,767011504.0055095,0,-20.21,100.4483,1,0.65,2025-04-22T13:42:20.228+03:00,86,1.433333333333333,2025-04-22T09:54:17.825+03:00,0.02225348692287972,0
2025-04-22T13:45:14.277+03:00,1745318714.064455,40.9522760022753,29.14031104092529,76.45013,-1,-1,-1,-1,30,31.59543419189704,-9999,34093.43047166667,-0.807891845703125,0.689361572265625,0.406341552734375,34093.42293166667,-0.3835881531913392,-1.576989039448386,-0.776759023507434,1.191460013389587,0.0398729145526886,-0.3372167348861694,-0.09695953130722046,0.05592513084411621,0.3796166181564331,XArbitraryZVertical,0.3871846225455997,0.5935455677625699,-0.1393128570536412,-0.6916527500233451,-0.7131752371788025,0.7009716629981995,0.004416545853018761,0,0,0,-1,-1,34072.750615375,unknown,2,2025-04-22T13:44:53.593+03:00,2025-04-21T17:08:51.449+03:00,7472,1.022023,0,0,6219.038,5,20,2025-04-22T13:45:01.331+03:00,767011504.0055095,0,-20.21,100.4483,1,0.65,2025-04-22T13:42:20.228+03:00,86,1.433333333333333,2025-04-22T09:54:17.825+03:00,0.02225348692287972,0
2025-04-22T13:45:14.287+03:00,1745318714.064455,40.9522760022753,29.14031104092529,76.45013,-1,-1,-1,-1,30,31.59543419189704,-9999,34093.44054866667,-0.7799530029296875,0.6417388916015625,0.404632568359375,34093.43300766667,-0.365920748914416,-1.563892832519318,-0.7726857294737042,1.29681384563446,0.09018641710281372,-0.472707986831665,-0.09869116544723511,0.009855329990386963,0.4100944995880127,XArbitraryZVertical,0.3816533223214326,0.5931856182464201,-0.1415072165044593,-0.6945842169700068,-0.7160213589668274,0.6980608105659485,-0.004943127743899822,0,0,0,-1,-1,34072.750615375,unknown,2,2025-04-22T13:44:53.593+03:00,2025-04-21T17:08:51.449+03:00,7472,1.022023,0,0,6219.038,5,20,2025-04-22T13:45:01.331+03:00,767011504.0055095,0,-20.21,100.4483,1,0.65,2025-04-22T13:42:20.228+03:00,86,1.433333333333333,2025-04-22T09:54:17.825+03:00,0.02225348692287972,0
2025-04-22T13:45:14.297+03:00,1745318714.064455,40.9522760022753,29.14031104092529,76.45013,-1,-1,-1,-1,30,31.59543419189704,-9999,34093.45062466667,-0.77606201171875,0.598388671875,0.445465087890625,34093.44308466667,-0.3477795326647605,-1.55030504658998,-0.7669804355627344,1.285979390144348,0.1059685721993446,-0.6271540522575378,-0.06986045837402344,-0.03580701351165771,0.4170050621032715,XArbitraryZVertical,0.3755221921666216,0.5929642851727945,-0.1432872393052111,-0.6977428642966766,-0.7198581099510193,0.6939643025398254,-0.01475287973880768,0,0,0,-1,-1,34072.750615375,unknown,2,2025-04-22T13:44:53.593+03:00,2025-04-21T17:08:51.449+03:00,7472,1.022023,0,0,6219.038,5,20,2025-04-22T13:45:01.331+03:00,767011504.0055095,0,-20.21,100.4483,1,0.65,2025-04-22T13:42:20.228+03:00,86,1.433333333333333,2025-04-22T09:54:17.825+03:00,0.02225348692287972,0
2025-04-22T13:45:14.308+03:00,1745318714.064455,40.9522760022753,29.14031104092529,76.45013,-1,-1,-1,-1,30,31.59543419189704,-9999,34093.46070066667,-0.8115386962890625,0.5222625732421875,0.528228759765625,34093.45316066667,-0.331063860333897,-1.537321268595621,-0.7595616484462192,1.131463289260864,0.1874570548534393,-0.7737586498260498,-0.04751569032669067,-0.07156884670257568,0.4490742087364197,XArbitraryZVertical,0.3692308893109523,0.5929028599466909,-0.1441809820808347,-0.7009611433851455,-0.7247315645217896,0.6886036396026611,-0.02426949888467789,0,0,0,-1,-1,34072.750615375,unknown,2,2025-04-22T13:44:53.593+03:00,2025-04-21T17:08:51.449+03:00,7472,1.022023,0,0,6219.038,5,20,2025-04-22T13:45:01.331+03:00,767011504.0055095,0,-20.21,100.4483,1,0.65,2025-04-22T13:42:20.228+03:00,86,1.433333333333333,2025-04-22T09:54:17.825+03:00,0.02225348692287972,0
2025-04-22T13:45:14.318+03:00,1745318714.064455,40.9522760022753,29.14031104092529,76.45013,-1,-1,-1,-1,30,31.59543419189704,-9999,34093.47077666667,-0.861083984375,0.44647216796875,0.643310546875,34093.46323666667,-0.3175994300828673,-1.525483472314752,-0.7507861870063239,0.8771188855171204,0.3328837454319,-0.8908720016479492,-0.06345152854919434,-0.1283808946609497,0.5252763032913208,XArbitraryZVertical,0.3633711070031487,0.5927915309863652,-0.1437648958262311,-0.7041954606838413,-0.7304021716117859,0.6822137832641602,-0.03311927989125252,0,0,0,-1,-1,34072.750615375,unknown,2,2025-04-22T13:44:53.593+03:00,2025-04-21T17:08:51.449+03:00,7472,1.022023,0,0,6219.038,5,20,2025-04-22T13:45:01.331+03:00,767011504.0055095,0,-20.21,100.4483,1,0.65,2025-04-22T13:42:20.228+03:00,86,1.433333333333333,2025-04-22T09:54:17.825+03:00,0.02225348692287972,0
2025-04-22T13:45:14.328+03:00,1745318714.064455,40.9522760022753,29.14031104092529,76.45013,-1,-1,-1,-1,30,31.59543419189704,-9999,34093.48085366667,-0.91375732421875,0.3962249755859375,0.7808837890625,34093.47331266667,-0.3075569064296574,-1.513945646708742,-0.7408734192225022,0.7042434811592102,0.6289015412330627,-0.987651526927948,-0.1057811379432678,-0.2027495503425598,0.6396741271018982,XArbitraryZVertical,0.3581080320018618,0.5922798906836683,-0.1418841757867178,-0.7076947644873076,-0.7366870045661926,0.6749326586723328,-0.04192633554339409,0,0,0,-1,-1,34072.750615375,unknown,2,2025-04-22T13:44:53.593+03:00,2025-04-21T17:08:51.449+03:00,7472,1.022023,0,0,6219.038,5,20,2025-04-22T13:45:01.331+03:00,767011514.3205876,0,-20.2,100.4455,1,0.65,2025-04-22T13:42:20.228+03:00,86,1.433333333333333,2025-04-22T09:54:17.825+03:00,0.02225348692287972,0
2025-04-22T13:45:14.338+03:00,1745318714.064455,40.9522760022753,29.14031104092529,76.45013,-1,-1,-1,-1,30,31.59543419189704,-9999,34093.49092966667,-0.9374542236328125,0.38983154296875,0.8189544677734375,34093.48338966667,-0.2978877232264814,-1.499566477030436,-0.7300655457553019,0.9241253137588501,0.9324756264686584,-1.071420550346375,-0.1510307788848877,-0.2552517652511597,0.7827059626579285,XArbitraryZVertical,0.3528228446850987,0.5907628214021837,-0.1391367710998496,-0.7121489172947651,-0.7432409524917603,0.6669184565544128,-0.05303065851330757,0,0,0,-1,-1,34072.750615375,unknown,2,2025-04-22T13:44:53.593+03:00,2025-04-21T17:08:51.449+03:00,7472,1.022023,0,0,6219.038,5,20,2025-04-22T13:45:01.331+03:00,767011514.3205876,0,-20.2,100.4455,1,0.65,2025-04-22T13:42:20.228+03:00,86,1.433333333333333,2025-04-22T09:54:17.825+03:00,0.02225348692287972,0
2025-04-22T13:45:14.348+03:00,1745318714.064455,40.9522760022753,29.14031104092529,76.45013,-1,-1,-1,-1,30,31.59543419189704,-9999,34093.50100566667,-0.8881378173828125,0.426483154296875,0.731292724609375,34093.49346566667,-0.2827219759600257,-1.478399234392596,-0.7182472550687179,1.562321543693542,1.266189217567444,-1.045710802078247,-0.1851576566696167,-0.2733767628669739,0.8967276215553284,XArbitraryZVertical,0.345998852972689,0.587833826760273,-0.1369345493828377,-0.7183209011867602,-0.7497482299804688,0.6580659151077271,-0.06947237253189087,0,0,0,-1,-1,34072.750615375,unknown,2,2025-04-22T13:44:53.593+03:00,2025-04-21T17:08:51.449+03:00,7472,1.022023,0,0,6219.038,5,20,2025-04-22T13:45:01.331+03:00,767011514.3205876,0,-20.2,100.4455,1,0.65,2025-04-22T13:42:20.228+03:00,86,1.433333333333333,2025-04-22T09:54:17.825+03:00,0.02225348692287972,0
2025-04-22T13:45:14.370+03:00,1745318714.064455,40.9522760022753,29.14031104092529,76.45013,-1,-1,-1,-1,30,31.59543419189704,-9999,34093.51108166667,-0.7257232666015625,0.423248291015625,0.610015869140625,34093.50354166667,-0.2579908572765082,-1.448058161603754,-0.7066023715647122,2.363993883132935,1.537627696990967,-0.8673920035362244,-0.1647968888282776,-0.2372815608978271,0.8649370670318604,XArbitraryZVertical,0.3369955588860467,0.582988420430275,-0.1368710619477056,-0.7265153507763517,-0.7548502087593079,0.6492533683776855,-0.09311699122190475,0,0,0,-1,-1,34072.750615375,unknown,2,2025-04-22T13:44:53.593+03:00,2025-04-21T17:08:51.449+03:00,7472,1.022023,0,0,6219.038,5,20,2025-04-22T13:45:01.331+03:00,767011514.3205876,0,-20.2,100.4455,1,0.65,2025-04-22T13:42:20.228+03:00,86,1.433333333333333,2025-04-22T09:54:17.825+03:00,0.02225348692287972,0
2025-04-22T13:45:14.373+03:00,1745318714.064455,40.9522760022753,29.14031104092529,76.45013,-1,-1,-1,-1,30,31.59543419189704,-9999,34093.52115766667,-0.5771026611328125,0.3374786376953125,0.653228759765625,34093.51361766667,-0.2253456523246546,-1.41074295367249,-0.694442671945099,2.77246356010437,1.684919357299805,-0.8361661434173584,-0.03753811120986938,-0.2045021057128906,0.771906852722168,XArbitraryZVertical,0.3259843117059453,0.5766308215624157,-0.1387187465894277,-0.7361984233004042,-0.7585891485214233,0.6399573087692261,-0.1224622502923012,0,0,0,-1,-1,34072.750615375,unknown,2,2025-04-22T13:44:53.593+03:00,2025-04-21T17:08:51.449+03:00,7472,1.022023,0,0,6219.038,5,20,2025-04-22T13:45:01.331+03:00,767011514.3205876,0,-20.2,100.4455,1,0.65,2025-04-22T13:42:20.228+03:00,86,1.433333333333333,2025-04-22T09:54:17.825+03:00,0.02225348692287972,0
2025-04-22T13:45:14.378+03:00,1745318714.064455,40.9522760022753,29.14031104092529,76.45013,-1,-1,-1,-1,30,31.59543419189704,-9999,34093.53123466667,-0.5606231689453125,0.28466796875,0.82440185546875,34093.52369366667,-0.1933216441744753,-1.372274076357454,-0.6814643616991207,2.457295894622803,1.933488368988037,-0.8134527802467346,0.1417984962463379,-0.2570368647575378,0.7636911273002625,XArbitraryZVertical,0.3149750389398517,0.5693899031298598,-0.1403535750647693,-0.7462483086018893,-0.7613967657089233,0.6299309730529785,-0.1531717330217361,0,0,0,-1,-1,34072.750615375,unknown,2,2025-04-22T13:44:53.593+03:00,2025-04-21T17:08:51.449+03:00,7472,1.022023,0,0,6219.038,5,20,2025-04-22T13:45:01.331+03:00,767011514.3205876,0,-20.2,100.4455,1,0.65,2025-04-22T13:42:20.228+03:00,86,1.433333333333333,2025-04-22T09:54:17.825+03:00,0.02225348692287972,0
2025-04-22T13:45:14.388+03:00,1745318714.064455,40.9522760022753,29.14031104092529,76.45013,-1,-1,-1,-1,30,31.59543419189704,-9999,34093.54131066667,-0.6552581787109375,0.2571563720703125,0.889678955078125,34093.53377066667,-0.1684839001227403,-1.335294961420322,-0.6690833604773549,1.822478771209717,2.350319623947144,-0.7587812542915344,0.212751567363739,-0.324552059173584,0.9468162059783936,XArbitraryZVertical,0.3061294856068238,0.5610469032490552,-0.1401532159300127,-0.7562195256379597,-0.7627391815185547,0.6202672719955444,-0.18302221596241,0,0,0,-1,-1,34072.750615375,unknown,2,2025-04-22T13:44:53.593+03:00,2025-04-21T17:08:51.449+03:00,7472,1.022023,0,0,6219.038,5,20,2025-04-22T13:45:01.331+03:00,767011514.3205876,0,-20.2,100.4455,1,0.65,2025-04-22T13:42:20.228+03:00,86,1.433333333333333,2025-04-22T09:54:17.825+03:00,0.02225348692287972,0
2025-04-22T13:45:14.399+03:00,1745318714.064455,40.9522760022753,29.14031104092529,76.45013,-1,-1,-1,-1,30,31.59543419189704,-9999,34093.55138666667,-0.7456512451171875,0.1885833740234375,0.8957061767578125,34093.54384666667,-0.1533317981503533,-1.299570095499694,-0.6583608022281373,0.953222930431366,2.89204740524292,-0.7135747075080872,0.1497750878334045,-0.3411913514137268,1.091297507286072,XArbitraryZVertical,0.3004846470537543,0.5511351024676622,-0.1372989787843663,-0.7662296665865178,-0.762079656124115,0.6118210554122925,-0.2119181454181671,0,0,0,-1,-1,34072.750615375,unknown,2,2025-04-22T13:44:53.593+03:00,2025-04-21T17:08:51.449+03:00,7472,1.022023,0,0,6219.038,5,20,2025-04-22T13:45:01.331+03:00,767011514.3205876,0,-20.2,100.4455,1,0.65,2025-04-22T13:42:20.228+03:00,86,1.433333333333333,2025-04-22T09:54:17.825+03:00,0.02225348692287972,0
