loggingTime(txt),locationTimestamp_since1970(s),locationLatitude(WGS84),locationLongitude(WGS84),locationAltitude(m),locationSpeed(m/s),locationSpeedAccuracy(m/s),locationCourse(°),locationCourseAccuracy(°),locationVerticalAccuracy(m),locationHorizontalAccuracy(m),locationFloor(Z),accelerometerTimestamp_sinceReboot(s),accelerometerAccelerationX(G),accelerometerAccelerationY(G),accelerometerAccelerationZ(G),motionTimestamp_sinceReboot(s),motionYaw(rad),motionRoll(rad),motionPitch(rad),motionRotationRateX(rad/s),motionRotationRateY(rad/s),motionRotationRateZ(rad/s),motionUserAccelerationX(G),motionUserAccelerationY(G),motionUserAccelerationZ(G),motionAttitudeReferenceFrame(txt),motionQuaternionX(R),motionQuaternionY(R),motionQuaternionZ(R),motionQuaternionW(R),motionGravityX(G),motionGravityY(G),motionGravityZ(G),motionMagneticFieldX(µT),motionMagneticFieldY(µT),motionMagneticFieldZ(µT),motionHeading(°),motionMagneticFieldCalibrationAccuracy(Z),activityTimestamp_sinceReboot(s),activity(txt),activityActivityConfidence(Z),activityActivityStartDate(txt),pedometerStartDate(txt),pedometerNumberofSteps(N),pedometerAverageActivePace(s/m),pedometerCurrentPace(s/m),pedometerCurrentCadence(steps/s),pedometerDistance(m),pedometerFloorAscended(N),pedometerFloorDescended(N),pedometerEndDate(txt),altimeterTimestamp_sinceReboot(s),altimeterReset(bool),altimeterRelativeAltitude(m),altimeterPressure(kPa),batteryState(N),batteryLevel(R),heartRateBPMTimestamp(txt),heartRateBPM(N),heartRateBPS(R),heartRateVariabilityTimestamp(txt),heartRateVariability(ms),label
2025-04-22T13:24:23.451+03:00,1745317460.230733,40.95228371877504,29.14028565392042,76.454,-1,-1,-1,-1,30,53.00558272710916,-9999,33161.53999904167,-0.7281494140625,0.6808624267578125,-0.2763519287109375,33161.53496004167,-0.05404005067173063,-1.256031175959562,-0.7330066133682955,-0.02893354929983616,0.07061786204576492,0.1738335341215134,0.009433746337890625,-0.01065981388092041,-0.03006795048713684,XArbitraryZVertical,-0.3046909508073786,-0.5404848378011766,0.1900601268095903,0.760865778817255,-0.7066536545753479,0.6691070795059204,-0.2300791293382645,0,0,0,-1,-1,33150.93533325,unknown,2,2025-04-22T13:24:12.815+03:00,2025-04-21T17:08:51.449+03:00,7440,1.011932,0,0,6196.233,5,20,2025-04-22T13:19:21.305+03:00,767010263.2313154,0,-20.50999,100.4478,1,0.7,2025-04-22T13:24:20.142+03:00,105,1.75,2025-04-22T09:54:17.825+03:00,0.02225348692287972,0
2025-04-22T13:24:23.453+03:00,1745317460.230733,40.95228371877504,29.14028565392042,76.454,-1,-1,-1,-1,30,53.00558272710916,-9999,33161.55007504167,-0.709442138671875,0.6876068115234375,-0.271575927734375,33161.54503704167,-0.0532812627775162,-1.254564492450613,-0.7350042296396841,0.008898782543838024,0.1046674400568008,0.2294440716505051,-0.02502846717834473,0.008257865905761719,-0.04340973496437073,XArbitraryZVertical,-0.3053743382293294,-0.5398119645282745,0.1906802529549247,0.7609141817787689,-0.7050434350967407,0.6705902814865112,-0.2306991070508957,0,0,0,-1,-1,33150.93533325,unknown,2,2025-04-22T13:24:12.815+03:00,2025-04-21T17:08:51.449+03:00,7440,1.011932,0,0,6196.233,5,20,2025-04-22T13:19:21.305+03:00,767010263.2313154,0,-20.50999,100.4478,1,0.7,2025-04-22T13:24:20.142+03:00,105,1.75,2025-04-22T09:54:17.825+03:00,0.02225348692287972,0
2025-04-22T13:24:23.453+03:00,1745317460.230733,40.95228371877504,29.14028565392042,76.454,-1,-1,-1,-1,30,53.00558272710916,-9999,33161.56015204167,-0.7114105224609375,0.6858978271484375,-0.26434326171875,33161.55511404167,-0.05171864090080313,-1.252658055308918,-0.7368033119333327,0.09516729414463043,0.05099748820066452,0.1759674847126007,-0.01164770126342773,0.0134703516960144,-0.04280994832515717,XArbitraryZVertical,-0.3058095488365277,-0.5391177776141758,0.1914825208345706,0.7610301189302321,-0.70345538854599,0.671923816204071,-0.2316650897264481,0,0,0,-1,-1,33150.93533325,unknown,2,2025-04-22T13:24:12.815+03:00,2025-04-21T17:08:51.449+03:00,7440,1.011932,0,0,6196.233,5,20,2025-04-22T13:19:21.305+03:00,767010263.2313154,0,-20.50999,100.4478,1,0.7,2025-04-22T13:24:20.142+03:00,105,1.75,2025-04-22T09:54:17.825+03:00,0.02225348692287972,0
2025-04-22T13:24:23.455+03:00,1745317460.230733,40.95228371877504,29.14028565392042,76.454,-1,-1,-1,-1,30,53.00558272710916,-9999,33161.57022904167,-0.71026611328125,0.67706298828125,-0.2540130615234375,33161.56519104167,-0.04954923560626218,-1.25113023116149,-0.7376521128812613,0.1372875720262527,-0.04137931391596794,0.1046224683523178,-0.006257534027099609,0.01621419191360474,-0.03289681673049927,XArbitraryZVertical,-0.3056900037468699,-0.5387703398701985,0.1923094696092242,0.7611157243735982,-0.7025589942932129,0.672552227973938,-0.2325602918863297,0,0,0,-1,-1,33150.93533325,unknown,2,2025-04-22T13:24:12.815+03:00,2025-04-21T17:08:51.449+03:00,7440,1.011932,0,0,6196.233,5,20,2025-04-22T13:19:21.305+03:00,767010263.2313154,0,-20.50999,100.4478,1,0.7,2025-04-22T13:24:20.142+03:00,105,1.75,2025-04-22T09:54:17.825+03:00,0.02225348692287972,0
2025-04-22T13:24:23.465+03:00,1745317460.230733,40.95228371877504,29.14028565392042,76.454,-1,-1,-1,-1,30,53.00558272710916,-9999,33161.58030604167,-0.6985321044921875,0.6811370849609375,-0.2255401611328125,33161.57526804167,-0.04736419847225599,-1.25048239049881,-0.7380277654277451,0.1322150677442551,-0.1121152639389038,0.09627626091241837,-0.01084434986114502,0.006262123584747314,-0.02679930627346039,XArbitraryZVertical,-0.3053048271957679,-0.5388145038652041,0.1931458885605473,0.7610272002415384,-0.7021682262420654,0.6728301644325256,-0.2329357862472534,0,0,0,-1,-1,33150.93533325,unknown,2,2025-04-22T13:24:12.815+03:00,2025-04-21T17:08:51.449+03:00,7440,1.011932,0,0,6196.233,5,20,2025-04-22T13:19:21.305+03:00,767010263.2313154,0,-20.50999,100.4478,1,0.7,2025-04-22T13:24:20.142+03:00,105,1.75,2025-04-22T09:54:17.825+03:00,0.02225348692287972,0
2025-04-22T13:24:23.475+03:00,1745317460.230733,40.95228371877504,29.14028565392042,76.454,-1,-1,-1,-1,30,53.00558272710916,-9999,33161.59038304167,-0.7044677734375,0.6774749755859375,-0.2088165283203125,33161.58534504167,-0.04534785246425193,-1.250340437580114,-0.738383010002674,0.1126027405261993,-0.1415679752826691,0.06837564706802368,-0.0006825923919677734,0.006136655807495117,-0.003566309809684753,XArbitraryZVertical,-0.3049086617058897,-0.5390274922032467,0.1939895206044407,0.7608205718955444,-0.7019082307815552,0.6730929613113403,-0.2329601347446442,0,0,0,-1,-1,33150.93533325,unknown,2,2025-04-22T13:24:12.815+03:00,2025-04-21T17:08:51.449+03:00,7440,1.011932,0,0,6196.233,5,20,2025-04-22T13:19:21.305+03:00,767010263.2313154,0,-20.50999,100.4478,1,0.7,2025-04-22T13:24:20.142+03:00,105,1.75,2025-04-22T09:54:17.825+03:00,0.02225348692287972,0
2025-04-22T13:24:23.485+03:00,1745317460.230733,40.95228371877504,29.14028565392042,76.454,-1,-1,-1,-1,30,53.00558272710916,-9999,33161.60046004167,-0.725494384765625,0.6624298095703125,-0.1996612548828125,33161.59542204167,-0.04390605515941993,-1.250763793635358,-0.7383708436065443,0.05307483300566673,-0.155698835849762,-0.0008761945064179599,0.002750098705291748,0.008342921733856201,0.02061423659324646,XArbitraryZVertical,-0.304474243660534,-0.5394095559759039,0.1945990490563194,0.7605680495304349,-0.7020145654678345,0.6730839610099792,-0.2326655387878418,0,0,0,-1,-1,33150.93533325,unknown,2,2025-04-22T13:24:12.815+03:00,2025-04-21T17:08:51.449+03:00,7440,1.011932,0,0,6196.233,5,20,2025-04-22T13:19:21.305+03:00,767010263.2313154,0,-20.50999,100.4478,1,0.7,2025-04-22T13:24:20.142+03:00,105,1.75,2025-04-22T09:54:17.825+03:00,0.02225348692287972,0
2025-04-22T13:24:23.495+03:00,1745317460.230733,40.95228371877504,29.14028565392042,76.454,-1,-1,-1,-1,30,53.00558272710916,-9999,33161.61053704167,-0.7197265625,0.6577911376953125,-0.1851348876953125,33161.60549904167,-0.04388373066317149,-1.252248864889411,-0.7380419147372177,-0.05182228609919548,-0.1660106033086777,-0.05282967165112495,-0.01595151424407959,-0.00485682487487793,0.0281703919172287,XArbitraryZVertical,-0.3042001418375222,-0.5400150484769094,0.1947426614021075,0.7602111840559714,-0.7025694847106934,0.6728406548500061,-0.2316920459270477,0,0,0,-1,-1,33150.93533325,unknown,2,2025-04-22T13:24:12.815+03:00,2025-04-21T17:08:51.449+03:00,7440,1.011932,0,0,6196.233,5,20,2025-04-22T13:19:21.305+03:00,767010263.2313154,0,-20.50999,100.4478,1,0.7,2025-04-22T13:24:20.142+03:00,105,1.75,2025-04-22T09:54:17.825+03:00,0.02225348692287972,0
2025-04-22T13:24:23.505+03:00,1745317460.230733,40.95228371877504,29.14028565392042,76.454,-1,-1,-1,-1,30,53.00558272710916,-9999,33161.62061404167,-0.6930084228515625,0.6623992919921875,-0.189971923828125,33161.61557604167,-0.04507249906616244,-1.254715801536776,-0.7376231705408532,-0.09850457310676575,-0.1893587857484818,-0.06792952865362167,-0.0218433141708374,-0.01435822248458862,0.04021123051643372,XArbitraryZVertical,-0.3041240952554583,-0.5408194068766528,0.1945501514684344,0.759719152448473,-0.7034069299697876,0.6725307703018188,-0.230045810341835,0,0,0,-1,-1,33150.93533325,unknown,2,2025-04-22T13:24:12.815+03:00,2025-04-21T17:08:51.449+03:00,7440,1.011932,0,0,6196.233,5,20,2025-04-22T13:19:21.305+03:00,767010263.2313154,0,-20.50999,100.4478,1,0.7,2025-04-22T13:24:20.142+03:00,105,1.75,2025-04-22T09:54:17.825+03:00,0.02225348692287972,0
2025-04-22T13:24:23.518+03:00,1745317460.230733,40.95228371877504,29.14028565392042,76.454,-1,-1,-1,-1,30,53.00558272710916,-9999,33161.63069104167,-0.679962158203125,0.6726531982421875,-0.215972900390625,33161.62565304167,-0.04631527237081468,-1.257364813132026,-0.7372587640818496,-0.06823801249265671,-0.1860082745552063,-0.04537149146199226,0.001182973384857178,-0.01138764619827271,0.04321387410163879,XArbitraryZVertical,-0.3040662386806147,-0.5416780528929128,0.1943799699080242,0.7591739532846984,-0.7042469382286072,0.6722610592842102,-0.2282572239637375,0,0,0,-1,-1,33150.93533325,unknown,2,2025-04-22T13:24:12.815+03:00,2025-04-21T17:08:51.449+03:00,7440,1.011932,0,0,6196.233,5,20,2025-04-22T13:19:21.305+03:00,767010263.2313154,0,-20.50999,100.4478,1,0.7,2025-04-22T13:24:20.142+03:00,105,1.75,2025-04-22T09:54:17.825+03:00,0.02225348692287972,0
2025-04-22T13:24:23.525+03:00,1745317460.230733,40.95228371877504,29.14028565392042,76.454,-1,-1,-1,-1,30,53.00558272710916,-9999,33161.64076804167,-0.6927337646484375,0.6873626708984375,-0.2342376708984375,33161.63573004167,-0.04679683710532974,-1.259370085835575,-0.7369412073287098,-0.005146262235939503,-0.167444571852684,-0.04148786887526512,0.02373862266540527,-0.005018651485443115,0.02112987637519836,XArbitraryZVertical,-0.3038829283187165,-0.5424022797687333,0.194413880262461,0.7587212571501666,-0.704906165599823,0.6720259189605713,-0.2269098609685898,0,0,0,-1,-1,33150.93533325,unknown,2,2025-04-22T13:24:12.815+03:00,2025-04-21T17:08:51.449+03:00,7440,1.011932,0,0,6196.233,5,20,2025-04-22T13:19:21.305+03:00,767010263.2313154,0,-20.50999,100.4478,1,0.7,2025-04-22T13:24:20.142+03:00,105,1.75,2025-04-22T09:54:17.825+03:00,0.02225348692287972,0
2025-04-22T13:24:23.535+03:00,1745317460.230733,40.95228371877504,29.14028565392042,76.454,-1,-1,-1,-1,30,53.00558272710916,-9999,33161.65084504167,-0.7099456787109375,0.689727783203125,-0.2364044189453125,33161.64580704167,-0.04646470178777536,-1.260563859995846,-0.7365290548434558,0.05809422582387924,-0.1363359242677689,-0.02347025275230408,0.02021396160125732,0.01033186912536621,-0.00373607873916626,XArbitraryZVertical,-0.3035224086737254,-0.5429528078883957,0.1946064507684712,0.7584224760193883,-0.7054404020309448,0.6717206835746765,-0.2261527925729752,0,0,0,-1,-1,33150.93533325,unknown,2,2025-04-22T13:24:12.815+03:00,2025-04-21T17:08:51.449+03:00,7440,1.011932,0,0,6196.233,5,20,2025-04-22T13:19:21.305+03:00,767010263.2313154,0,-20.50999,100.4478,1,0.7,2025-04-22T13:24:20.142+03:00,105,1.75,2025-04-22T09:54:17.825+03:00,0.02225348692287972,0
2025-04-22T13:24:23.545+03:00,1745317460.230733,40.95228371877504,29.14028565392042,76.454,-1,-1,-1,-1,30,53.00558272710916,-9999,33161.66092204167,-0.714019775390625,0.6817474365234375,-0.22283935546875,33161.65588404167,-0.04551591939134119,-1.261204595459839,-0.7360274338020153,0.08436950296163559,-0.1335089802742004,-0.03260742500424385,0.001560211181640625,0.01862281560897827,-0.01115033030509949,XArbitraryZVertical,-0.3030145973583008,-0.5433971747841354,0.1949238107917876,0.7582256620535089,-0.7059058547019958,0.6713489890098572,-0.225803330540657,0,0,0,-1,-1,33150.93533325,unknown,2,2025-04-22T13:24:12.815+03:00,2025-04-21T17:08:51.449+03:00,7440,1.011932,0,0,6196.233,5,20,2025-04-22T13:19:21.305+03:00,767010263.2313154,0,-20.50999,100.4478,1,0.7,2025-04-22T13:24:20.142+03:00,105,1.75,2025-04-22T09:54:17.825+03:00,0.02225348692287972,0
2025-04-22T13:24:23.555+03:00,1745317460.230733,40.95228371877504,29.14028565392042,76.454,-1,-1,-1,-1,30,53.00558272710916,-9999,33161.67099904167,-0.711090087890625,0.6663360595703125,-0.204864501953125,33161.66596104167,-0.04455210459529693,-1.261910877352268,-0.7354238723008413,0.08228824287652969,-0.1373742818832397,-0.0410885289311409,-0.007293820381164551,0.0146300196647644,-0.003545463085174561,XArbitraryZVertical,-0.3024578030322987,-0.5438798795406472,0.1952279915948714,0.7580237295832049,-0.7064512372016907,0.6709015369415283,-0.2254279106855392,0,0,0,-1,-1,33150.93533325,unknown,2,2025-04-22T13:24:12.815+03:00,2025-04-21T17:08:51.449+03:00,7440,1.011932,0,0,6196.233,5,20,2025-04-22T13:19:21.305+03:00,767010263.2313154,0,-20.50999,100.4478,1,0.7,2025-04-22T13:24:20.142+03:00,105,1.75,2025-04-22T09:54:17.825+03:00,0.02225348692287972,0
2025-04-22T13:24:23.565+03:00,1745317460.230733,40.95228371877504,29.14028565392042,76.454,-1,-1,-1,-1,30,53.00558272710916,-9999,33161.68107604167,-0.70745849609375,0.6530914306640625,-0.1897430419921875,33161.67603804167,-0.04382770121654565,-1.262755529896124,-0.7349032563848602,0.06010983884334564,-0.1189075261354446,-0.03073235973715782,-0.0048179030418396,0.001649439334869385,0.01392322778701782,XArbitraryZVertical,-0.3019833729359382,-0.5443689583870588,0.1954851991061387,0.7577954246724169,-0.7069740295410156,0.6705153584480286,-0.2249369621276855,0,0,0,-1,-1,33150.93533325,unknown,2,2025-04-22T13:24:12.815+03:00,2025-04-21T17:08:51.449+03:00,7440,1.011932,0,0,6196.233,5,20,2025-04-22T13:19:21.305+03:00,767010263.2313154,0,-20.50999,100.4478,1,0.7,2025-04-22T13:24:20.142+03:00,105,1.75,2025-04-22T09:54:17.825+03:00,0.02225348692287972,0
2025-04-22T13:24:23.575+03:00,1745317460.230733,40.95228371877504,29.14028565392042,76.454,-1,-1,-1,-1,30,53.00558272710916,-9999,33161.69115304167,-0.7087249755859375,0.6536865234375,-0.1900177001953125,33161.68611504167,-0.04307754270899187,-1.263402950788332,-0.7344867652491659,0.09261611104011536,-0.09772633761167526,-0.006548994220793247,-0.001018881797790527,-0.01299518346786499,0.02981580793857574,XArbitraryZVertical,-0.301559926420674,-0.5447749794272423,0.1957510721530886,0.7576035828539747,-0.7073855996131897,0.6702063083648682,-0.2245636582374573,0,0,0,-1,-1,33150.93533325,unknown,2,2025-04-22T13:24:12.815+03:00,2025-04-21T17:08:51.449+03:00,7440,1.011932,0,0,6196.233,5,20,2025-04-22T13:19:21.305+03:00,767010263.2313154,0,-20.50999,100.4478,1,0.7,2025-04-22T13:24:20.142+03:00,105,1.75,2025-04-22T09:54:17.825+03:00,0.02225348692287972,0
2025-04-22T13:24:23.586+03:00,1745317460.230733,40.95228371877504,29.14028565392042,76.454,-1,-1,-1,-1,30,53.00558272710916,-9999,33161.70123004167,-0.7193603515625,0.666015625,-0.2056732177734375,33161.69619204167,-0.04166078351909847,-1.26335509051886,-0.7341015652355725,0.1378741562366486,-0.06082585081458092,0.007822621613740921,0.0007117986679077148,-0.01792764663696289,0.03725200891494751,XArbitraryZVertical,-0.3010344404326916,-0.545014165272096,0.1961731753125746,0.757531395919978,-0.7076209187507629,0.6699203848838806,-0.2246756553649902,0,0,0,-1,-1,33150.93533325,unknown,2,2025-04-22T13:24:12.815+03:00,2025-04-21T17:08:51.449+03:00,7440,1.011932,0,0,6196.233,5,20,2025-04-22T13:19:21.305+03:00,767010263.2313154,0,-20.50999,100.4478,1,0.7,2025-04-22T13:24:20.142+03:00,105,1.75,2025-04-22T09:54:17.825+03:00,0.02225348692287972,0
2025-04-22T13:24:23.596+03:00,1745317460.230733,40.95228371877504,29.14028565392042,76.454,-1,-1,-1,-1,30,53.00558272710916,-9999,33161.71130704167,-0.7198333740234375,0.683929443359375,-0.219635009765625,33161.70626904167,-0.03967040696747536,-1.262563337710628,-0.7337314323299028,0.1901711821556091,-0.03378890454769135,0.01225119177252054,-0.007973253726959229,-0.009764015674591064,0.02633649110794067,XArbitraryZVertical,-0.3004311776855492,-0.5450555591454899,0.1967049570888386,0.7576032829971994,-0.7076791524887085,0.6696455478668213,-0.2253110855817795,0,0,0,-1,-1,33150.93533325,unknown,2,2025-04-22T13:24:12.815+03:00,2025-04-21T17:08:51.449+03:00,7440,1.011932,0,0,6196.233,5,20,2025-04-22T13:19:21.305+03:00,767010263.2313154,0,-20.50999,100.4478,1,0.7,2025-04-22T13:24:20.142+03:00,105,1.75,2025-04-22T09:54:17.825+03:00,0.02225348692287972,0
2025-04-22T13:24:23.606+03:00,1745317460.230733,40.95228371877504,29.14028565392042,76.454,-1,-1,-1,-1,30,53.00558272710916,-9999,33161.72138404167,-0.7090606689453125,0.692169189453125,-0.2186737060546875,33161.71634604167,-0.0369880012804651,-1.261106665820268,-0.7333266409944951,0.2159944474697113,-0.02061937376856804,0.0169212780892849,-0.01451396942138672,0.008404672145843506,0.01051241159439087,XArbitraryZVertical,-0.2996920303807878,-0.5449518872723954,0.1973901308489706,0.7577922891920968,-0.707608163356781,0.6693448424339294,-0.2264242619276047,0,0,0,-1,-1,33150.93533325,unknown,2,2025-04-22T13:24:12.815+03:00,2025-04-21T17:08:51.449+03:00,7440,1.011932,0,0,6196.233,5,20,2025-04-22T13:19:21.305+03:00,767010263.2313154,0,-20.50999,100.4478,1,0.7,2025-04-22T13:24:20.142+03:00,105,1.75,2025-04-22T09:54:17.825+03:00,0.02225348692287972,0
2025-04-22T13:24:23.616+03:00,1745317460.230733,40.95228371877504,29.14028565392042,76.454,-1,-1,-1,-1,30,53.00558272710916,-9999,33161.73146104167,-0.6944122314453125,0.691986083984375,-0.21142578125,33161.72642304167,-0.03410451479120929,-1.259315012350157,-0.7330260342511944,0.2032791823148727,-0.02054187655448914,0.01721129566431046,-0.00609278678894043,0.02179634571075439,0.007630065083503723,XArbitraryZVertical,-0.2989708772706237,-0.544738244593154,0.1981312766130157,0.7580372678790207,-0.7073928117752075,0.6691215038299561,-0.2277533113956451,0,0,0,-1,-1,33150.93533325,unknown,2,2025-04-22T13:24:12.815+03:00,2025-04-21T17:08:51.449+03:00,7440,1.011932,0,0,6196.233,5,20,2025-04-22T13:19:21.305+03:00,767010263.2313154,0,-20.50999,100.4478,1,0.7,2025-04-22T13:24:20.142+03:00,105,1.75,2025-04-22T09:54:17.825+03:00,0.02225348692287972,0
2025-04-22T13:24:23.626+03:00,1745317460.230733,40.95228371877504,29.14028565392042,76.454,-1,-1,-1,-1,30,53.00558272710916,-9999,33161.74153804167,-0.691375732421875,0.682769775390625,-0.2070770263671875,33161.73650004167,-0.03155302100100252,-1.257807053204104,-0.7326860149739831,0.1790707111358643,-0.03174426406621933,0.01035641971975565,0.008626163005828857,0.02420055866241455,0.0151752382516861,XArbitraryZVertical,-0.2982979445393613,-0.5445855581794886,0.1987790991385109,0.7582424410567471,-0.7072649598121643,0.6688687801361084,-0.2288898080587387,0,0,0,-1,-1,33150.93533325,unknown,2,2025-04-22T13:24:12.815+03:00,2025-04-21T17:08:51.449+03:00,7440,1.011932,0,0,6196.233,5,20,2025-04-22T13:19:21.305+03:00,767010263.2313154,0,-20.50999,100.4478,1,0.7,2025-04-22T13:24:20.142+03:00,105,1.75,2025-04-22T09:54:17.825+03:00,0.02225348692287972,0
2025-04-22T13:24:23.636+03:00,1745317460.230733,40.95228371877504,29.14028565392042,76.454,-1,-1,-1,-1,30,53.00558272710916,-9999,33161.75161504167,-0.700042724609375,0.667144775390625,-0.208221435546875,33161.74657704167,-0.02942393182318772,-1.256652436724251,-0.7323756068181896,0.1425252109766006,-0.01454503647983074,0.02194809541106224,0.01631027460098267,0.01825153827667236,0.02180846035480499,XArbitraryZVertical,-0.2977164728553591,-0.5444994859459626,0.1993284329822768,0.7583885602147283,-0.7071976661682129,0.6686379909515381,-0.2297704219818115,0,0,0,-1,-1,33150.93533325,unknown,2,2025-04-22T13:24:12.815+03:00,2025-04-21T17:08:51.449+03:00,7440,1.011932,0,0,6196.233,5,20,2025-04-22T13:19:21.305+03:00,767010263.2313154,0,-20.50999,100.4478,1,0.7,2025-04-22T13:24:20.142+03:00,105,1.75,2025-04-22T09:54:17.825+03:00,0.02225348692287972,0
2025-04-22T13:24:23.646+03:00,1745317460.230733,40.95228371877504,29.14028565392042,76.454,-1,-1,-1,-1,30,53.00558272710916,-9999,33161.76169204167,-0.71795654296875,0.660247802734375,-0.212860107421875,33161.75665404167,-0.02782150709140008,-1.25568821740645,-0.7322424998403771,0.1170852407813072,0.01123449578881264,0.02570255286991596,0.01138174533843994,0.004388689994812012,0.02337230741977692,XArbitraryZVertical,-0.2973263822845742,-0.5443869270382956,0.1997558863627673,0.7585099253013972,-0.7070603966712952,0.6685389876365662,-0.2304797917604446,0,0,0,-1,-1,33150.93533325,unknown,2,2025-04-22T13:24:12.815+03:00,2025-04-21T17:08:51.449+03:00,7440,1.011932,0,0,6196.233,5,20,2025-04-22T13:19:21.305+03:00,767010263.2313154,0,-20.50999,100.4478,1,0.7,2025-04-22T13:24:20.142+03:00,105,1.75,2025-04-22T09:54:17.825+03:00,0.02225348692287972,0
2025-04-22T13:24:23.656+03:00,1745317460.230733,40.95228371877504,29.14028565392042,76.454,-1,-1,-1,-1,30,53.00558272710916,-9999,33161.77176904167,-0.731842041015625,0.6604766845703125,-0.2268218994140625,33161.76673104167,-0.02651796882725498,-1.254799943696702,-0.732020714892717,0.1037092506885529,0.03811990469694138,0.009573649615049362,-0.003467977046966553,-0.007180213928222656,0.02071991562843323,XArbitraryZVertical,-0.2969768890798156,-0.5442681093919416,0.2000570262424179,0.7586528702459111,-0.7069965004920959,0.6683740615844727,-0.2311539053916931,0,0,0,-1,-1,33150.93533325,unknown,2,2025-04-22T13:24:12.815+03:00,2025-04-21T17:08:51.449+03:00,7440,1.011932,0,0,6196.233,5,20,2025-04-22T13:19:21.305+03:00,767010263.2313154,0,-20.50999,100.4478,1,0.7,2025-04-22T13:24:20.142+03:00,105,1.75,2025-04-22T09:54:17.825+03:00,0.02225348692287972,0
2025-04-22T13:24:23.666+03:00,1745317460.230733,40.95228371877504,29.14028565392042,76.454,-1,-1,-1,-1,30,53.00558272710916,-9999,33161.78184604167,-0.7303314208984375,0.66357421875,-0.2379608154296875,33161.77680704167,-0.02554361980137628,-1.253762069841036,-0.7318223114092287,0.08211534470319748,0.08226692676544189,0.01381809636950493,-0.02062636613845825,-0.007536232471466064,0.01143938302993774,XArbitraryZVertical,-0.2967409233612786,-0.5440407922612167,0.2002179020018423,0.758865763490942,-0.7068821787834167,0.6682264804840088,-0.2319288849830627,0,0,0,-1,-1,33150.93533325,unknown,2,2025-04-22T13:24:12.815+03:00,2025-04-21T17:08:51.449+03:00,7440,1.011932,0,0,6196.233,5,20,2025-04-22T13:19:21.305+03:00,767010263.2313154,0,-20.50999,100.4478,1,0.7,2025-04-22T13:24:20.142+03:00,105,1.75,2025-04-22T09:54:17.825+03:00,0.02225348692287972,0
2025-04-22T13:24:23.676+03:00,1745317460.230733,40.95228371877504,29.14028565392042,76.454,-1,-1,-1,-1,30,53.00558272710916,-9999,33161.79192304167,-0.713897705078125,0.6694183349609375,-0.2383575439453125,33161.78688504167,-0.02464092979621846,-1.252360725168124,-0.7317487385579824,0.08227619528770447,0.1106751337647438,0.03025699034333229,-0.02592557668685913,-0.007100045680999756,-0.002157509326934814,XArbitraryZVertical,-0.2966080647716269,-0.5436509450807422,0.200332353883509,0.7591667866242371,-0.7066031098365784,0.6681717038154602,-0.2329346090555191,0,0,0,-1,-1,33150.93533325,unknown,2,2025-04-22T13:24:12.815+03:00,2025-04-21T17:08:51.449+03:00,7440,1.011932,0,0,6196.233,5,20,2025-04-22T13:19:21.305+03:00,767010263.2313154,0,-20.50999,100.4478,1,0.7,2025-04-22T13:24:20.142+03:00,105,1.75,2025-04-22T09:54:17.825+03:00,0.02225348692287972,0
2025-04-22T13:24:23.686+03:00,1745317460.230733,40.95228371877504,29.14028565392042,76.454,-1,-1,-1,-1,30,53.00558272710916,-9999,33161.80200004167,-0.698455810546875,0.6700439453125,-0.234039306640625,33161.79696104167,-0.02358455038078916,-1.250557117009366,-0.7318186059190551,0.07029683142900467,0.1311695426702499,0.03587709367275238,-0.01479446887969971,5.018711090087891e-05,-0.005384236574172974,XArbitraryZVertical,-0.2965281330894838,-0.5431151586891567,0.2004852068571491,0.7595410855125551,-0.7061375379562378,0.6682237386703491,-0.2341939806938171,0,0,0,-1,-1,33150.93533325,unknown,2,2025-04-22T13:24:12.815+03:00,2025-04-21T17:08:51.449+03:00,7440,1.011932,0,0,6196.233,5,20,2025-04-22T13:19:21.305+03:00,767010263.2313154,0,-20.50999,100.4478,1,0.7,2025-04-22T13:24:20.142+03:00,105,1.75,2025-04-22T09:54:17.825+03:00,0.02225348692287972,0
2025-04-22T13:24:23.696+03:00,1745317460.230733,40.95228371877504,29.14028565392042,76.454,-1,-1,-1,-1,30,53.00558272710916,-9999,33161.81207704167,-0.6884613037109375,0.6715545654296875,-0.225677490234375,33161.80703804167,-0.02291084137973875,-1.248720918683978,-0.7321939081560637,0.02313704043626785,0.1609828323125839,0.04922112822532654,0.002129673957824707,0.001052677631378174,-0.0003985464572906494,XArbitraryZVertical,-0.2966710600666072,-0.5424766509442761,0.2005720042451665,0.7599184339364937,-0.7054681777954102,0.6685028672218323,-0.2354107350111008,0,0,0,-1,-1,33150.93533325,unknown,2,2025-04-22T13:24:12.815+03:00,2025-04-21T17:08:51.449+03:00,7440,1.011932,0,0,6196.233,5,20,2025-04-22T13:19:21.305+03:00,767010263.2313154,0,-20.50999,100.4478,1,0.7,2025-04-22T13:24:20.142+03:00,105,1.75,2025-04-22T09:54:17.825+03:00,0.02225348692287972,0
2025-04-22T13:24:23.707+03:00,1745317460.230733,40.95228371877504,29.14028565392042,76.454,-1,-1,-1,-1,30,53.00558272710916,-9999,33161.82215404167,-0.6898345947265625,0.6739044189453125,-0.222900390625,33161.81711504167,-0.02273709778576518,-1.247080302580311,-0.7328397144933871,-0.007107813376933336,0.1579163372516632,0.04767296463251114,0.01361644268035889,0.001335501670837402,0.007258713245391846,XArbitraryZVertical,-0.2970323781112007,-0.5418085717765909,0.2005716893956403,0.7602539959316313,-0.7046716809272766,0.6689830422401428,-0.2364304810762405,0,0,0,-1,-1,33150.93533325,unknown,2,2025-04-22T13:24:12.815+03:00,2025-04-21T17:08:51.449+03:00,7440,1.011932,0,0,6196.233,5,20,2025-04-22T13:19:21.305+03:00,767010263.2313154,0,-20.50999,100.4478,1,0.7,2025-04-22T13:24:20.142+03:00,105,1.75,2025-04-22T09:54:17.825+03:00,0.02225348692287972,0
2025-04-22T13:24:23.717+03:00,1745317460.230733,40.95228371877504,29.14028565392042,76.454,-1,-1,-1,-1,30,53.00558272710916,-9999,33161.83223104167,-0.690704345703125,0.66796875,-0.2341461181640625,33161.82719204167,-0.0230487227855936,-1.245943639848051,-0.7335429045242351,-0.05028404667973518,0.1328040659427643,0.04221188649535179,0.01648706197738647,0.004200398921966553,0.0142722874879837,XArbitraryZVertical,-0.2974963831456264,-0.5412535113745137,0.2004770282746286,0.7604928337673127,-0.7039564251899719,0.6695055365562439,-0.2370810806751251,0,0,0,-1,-1,33150.93533325,unknown,2,2025-04-22T13:24:12.815+03:00,2025-04-21T17:08:51.449+03:00,7440,1.011932,0,0,6196.233,5,20,2025-04-22T13:19:21.305+03:00,767010263.2313154,0,-20.50999,100.4478,1,0.7,2025-04-22T13:24:20.142+03:00,105,1.75,2025-04-22T09:54:17.825+03:00,0.02225348692287972,0
2025-04-22T13:24:23.727+03:00,1745317460.230733,40.95228371877504,29.14028565392042,76.454,-1,-1,-1,-1,30,53.00558272710916,-9999,33161.84230804167,-0.6909942626953125,0.662139892578125,-0.236785888671875,33161.83726904167,-0.02391434531672033,-1.245564260753569,-0.7342877436830464,-0.09301552921533585,0.08590074628591537,0.04049507901072502,0.01212489604949951,0.001175463199615479,0.007376134395599365,XArbitraryZVertical,-0.2980499835841335,-0.5408991051929677,0.200295420821681,0.7605760931429848,-0.7033937573432922,0.6700586080551147,-0.2371887266635895,0,0,0,-1,-1,33150.93533325,unknown,2,2025-04-22T13:24:12.815+03:00,2025-04-21T17:08:51.449+03:00,7440,1.011932,0,0,6196.233,5,20,2025-04-22T13:19:21.305+03:00,767010263.2313154,0,-20.50999,100.4478,1,0.7,2025-04-22T13:24:20.142+03:00,105,1.75,2025-04-22T09:54:17.825+03:00,0.02225348692287972,0
2025-04-22T13:24:23.737+03:00,1745317460.230733,40.95228371877504,29.14028565392042,76.454,-1,-1,-1,-1,30,53.00558272710916,-9999,33161.85238504167,-0.7025604248046875,0.661285400390625,-0.23541259765625,33161.84734604167,-0.0257911771918427,-1.246274900752705,-0.7349305303469682,-0.1896741688251495,0.05517984926700592,0.004989550914615393,0.01316666603088379,-0.006946265697479248,-0.0004632920026779175,XArbitraryZVertical,-0.2987291987357024,-0.5408189659711061,0.199863916622886,0.7604801066850135,-0.7031537294387817,0.6705356240272522,-0.2365514189004898,0,0,0,-1,-1,33150.93533325,unknown,2,2025-04-22T13:24:12.815+03:00,2025-04-21T17:08:51.449+03:00,7440,1.011932,0,0,6196.233,5,20,2025-04-22T13:19:21.305+03:00,767010263.2313154,0,-20.50999,100.4478,1,0.7,2025-04-22T13:24:20.142+03:00,105,1.75,2025-04-22T09:54:17.825+03:00,0.02225348692287972,0
2025-04-22T13:24:23.747+03:00,1745317460.230733,40.95228371877504,29.14028565392042,76.454,-1,-1,-1,-1,30,53.00558272710916,-9999,33161.86246204167,-0.7102813720703125,0.6588897705078125,-0.2407684326171875,33161.85742304167,-0.02909177970879446,-1.24828545032816,-0.7352770945805063,-0.2810315787792206,0.005409296602010727,-0.06627468019723892,0.006142020225524902,-0.009797215461730957,-0.0005320608615875244,XArbitraryZVertical,-0.29955216238586,-0.5410514724594484,0.1990048936571243,0.7602163544158652,-0.7034076452255249,0.6707926988601685,-0.2350636124610901,0,0,0,-1,-1,33150.93533325,unknown,2,2025-04-22T13:24:12.815+03:00,2025-04-21T17:08:51.449+03:00,7440,1.011932,0,0,6196.233,5,20,2025-04-22T13:19:21.305+03:00,767010263.2313154,0,-20.50999,100.4478,1,0.7,2025-04-22T13:24:20.142+03:00,105,1.75,2025-04-22T09:54:17.825+03:00,0.02225348692287972,0
2025-04-22T13:24:23.757+03:00,1745317460.230733,40.95228371877504,29.14028565392042,76.454,-1,-1,-1,-1,30,53.00558272710916,-9999,33161.87253904167,-0.7037811279296875,0.6548309326171875,-0.2456512451171875,33161.86750004167,-0.03376431479582171,-1.251662648204882,-0.735214308140349,-0.3650838732719421,-0.03993980959057808,-0.1221107766032219,-0.00428926944732666,-0.01091039180755615,-0.005703389644622803,XArbitraryZVertical,-0.3004583004926919,-0.5416409003682686,0.1977186997613512,0.7597744025395756,-0.7042373418807983,0.6707461476325989,-0.2326998859643936,0,0,0,-1,-1,33150.93533325,unknown,2,2025-04-22T13:24:12.815+03:00,2025-04-21T17:08:51.449+03:00,7440,1.011932,0,0,6196.233,5,20,2025-04-22T13:19:21.305+03:00,767010263.2313154,0,-20.50999,100.4478,1,0.7,2025-04-22T13:24:20.142+03:00,105,1.75,2025-04-22T09:54:17.825+03:00,0.02225348692287972,0
2025-04-22T13:24:23.767+03:00,1745317460.230733,40.95228371877504,29.14028565392042,76.454,-1,-1,-1,-1,30,53.00558272710916,-9999,33161.88261604167,-0.6891632080078125,0.651702880859375,-0.2581329345703125,33161.87757704167,-0.03925668982941541,-1.25589824009105,-0.7351067508857945,-0.3959903120994568,-0.07093387842178345,-0.1319395452737808,-0.002768218517303467,-0.0140044093132019,-0.01306051015853882,XArbitraryZVertical,-0.3014892401466283,-0.5424348599378211,0.1962406763909418,0.7591826080754712,-0.7052853107452393,0.6706663370132446,-0.2297373265028,0,0,0,-1,-1,33150.93533325,unknown,2,2025-04-22T13:24:12.815+03:00,2025-04-21T17:08:51.449+03:00,7440,1.011932,0,0,6196.233,5,20,2025-04-22T13:19:21.305+03:00,767010263.2313154,0,-20.50999,100.4478,1,0.7,2025-04-22T13:24:20.142+03:00,105,1.75,2025-04-22T09:54:17.825+03:00,0.02225348692287972,0
2025-04-22T13:24:23.777+03:00,1745317460.230733,40.95228371877504,29.14028565392042,76.454,-1,-1,-1,-1,30,53.00558272710916,-9999,33161.89269304167,-0.684326171875,0.65826416015625,-0.26739501953125,33161.88765404167,-0.04501769599775332,-1.260514631382813,-0.7351003282729202,-0.4114425182342529,-0.08251889795064926,-0.1272883266210556,0.01238799095153809,-0.01891297101974487,-0.02632725238800049,XArbitraryZVertical,-0.3025993496963804,-0.5433171017441595,0.1947502393109801,0.758493546249888,-0.7063424587249756,0.6706615686416626,-0.2264803200960159,0,0,0,-1,-1,33150.93533325,unknown,2,2025-04-22T13:24:12.815+03:00,2025-04-21T17:08:51.449+03:00,7440,1.011932,0,0,6196.233,5,20,2025-04-22T13:19:21.305+03:00,767010263.2313154,0,-20.50999,100.4478,1,0.7,2025-04-22T13:24:20.142+03:00,105,1.75,2025-04-22T09:54:17.825+03:00,0.02225348692287972,0
2025-04-22T13:24:23.788+03:00,1745317460.230733,40.95228371877504,29.14028565392042,76.454,-1,-1,-1,-1,30,53.00558272710916,-9999,33161.90277004167,-0.68914794921875,0.6693267822265625,-0.2730255126953125,33161.89773104167,-0.0503823444412333,-1.264814002915737,-0.7353528958104888,-0.3469286561012268,-0.06470008194446564,-0.07372570037841797,0.02305072546005249,-0.0157586932182312,-0.0423261970281601,XArbitraryZVertical,-0.3037349946149331,-0.5441046658327039,0.1934387983007443,0.7578102714310267,-0.7071479558944702,0.6708489060401917,-0.2233903259038925,0,0,0,-1,-1,33150.93533325,unknown,2,2025-04-22T13:24:12.815+03:00,2025-04-21T17:08:51.449+03:00,7440,1.011932,0,0,6196.233,5,20,2025-04-22T13:19:21.305+03:00,767010263.2313154,0,-20.50999,100.4478,1,0.7,2025-04-22T13:24:20.142+03:00,105,1.75,2025-04-22T09:54:17.825+03:00,0.02225348692287972,0
2025-04-22T13:24:23.798+03:00,1745317460.230733,40.95228371877504,29.14028565392042,76.454,-1,-1,-1,-1,30,53.00558272710916,-9999,33161.91284704167,-0.703033447265625,0.684539794921875,-0.274810791015625,33161.90780804167,-0.05339445610298535,-1.266985170039364,-0.7361076572198874,-0.1582348793745041,0.03558817133307457,0.0606084056198597,0.02117395401000977,-0.006659448146820068,-0.04910998046398163,XArbitraryZVertical,-0.3046267242208059,-0.5443813767012693,0.1928390564485052,0.7574063920435232,-0.707148015499115,0.6714084148406982,-0.2217029482126236,0,0,0,-1,-1,33150.93533325,unknown,2,2025-04-22T13:24:12.815+03:00,2025-04-21T17:08:51.449+03:00,7440,1.011932,0,0,6196.233,5,20,2025-04-22T13:19:21.305+03:00,767010263.2313154,0,-20.50999,100.4478,1,0.7,2025-04-22T13:24:20.142+03:00,105,1.75,2025-04-22T09:54:17.825+03:00,0.02225348692287972,0
2025-04-22T13:24:23.808+03:00,1745317460.230733,40.95228371877504,29.14028565392042,76.454,-1,-1,-1,-1,30,53.00558272710916,-9999,33161.92292404167,-0.7362060546875,0.700531005859375,-0.2557220458984375,33161.91788504167,-0.05569808371689879,-1.267191402387208,-0.7376873743427722,-0.2843343615531921,0.192762479186058,0.09747380763292313,0.009693324565887451,0.00550687313079834,-0.05375413596630096,XArbitraryZVertical,-0.3058226650914898,-0.5439233713200379,0.1924404934178565,0.757354829528566,-0.7061806321144104,0.6725783348083496,-0.2212397307157516,0,0,0,-1,-1,33150.93533325,unknown,2,2025-04-22T13:24:12.815+03:00,2025-04-21T17:08:51.449+03:00,7440,1.011932,0,0,6196.233,5,20,2025-04-22T13:19:21.305+03:00,767010263.2313154,0,-20.50999,100.4478,1,0.7,2025-04-22T13:24:20.142+03:00,105,1.75,2025-04-22T09:54:17.825+03:00,0.02225348692287972,0
2025-04-22T13:24:23.818+03:00,1745317460.230733,40.95228371877504,29.14028565392042,76.454,-1,-1,-1,-1,30,53.00558272710916,-9999,33161.93300104167,-0.7578887939453125,0.6853790283203125,-0.2089996337890625,33161.92796204167,-0.05946558908426301,-1.26790117642588,-0.7396827594071557,-0.365302175283432,0.1537506282329559,0.1255829483270645,-0.0166395902633667,0.0205875039100647,-0.04672154784202576,XArbitraryZVertical,-0.3075218661096489,-0.5433796274838633,0.1916817861883849,0.7572496490102695,-0.7050553560256958,0.6740536093711853,-0.220337763428688,0,0,0,-1,-1,33150.93533325,unknown,2,2025-04-22T13:24:12.815+03:00,2025-04-21T17:08:51.449+03:00,7440,1.011932,0,0,6196.233,5,20,2025-04-22T13:19:21.305+03:00,767010263.2313154,0,-20.50999,100.4478,1,0.7,2025-04-22T13:24:20.142+03:00,105,1.75,2025-04-22T09:54:17.825+03:00,0.02225348692287972,0
2025-04-22T13:24:23.828+03:00,1745317460.230733,40.95228371877504,29.14028565392042,76.454,-1,-1,-1,-1,30,53.00558272710916,-9999,33161.94307804167,-0.71575927734375,0.6486663818359375,-0.2112274169921875,33161.93803904167,-0.06339192564906143,-1.269234592945137,-0.7415023408703186,-0.2521354258060455,0.07233194261789322,0.02370638027787209,-0.05204939842224121,0.0215790867805481,-0.005988568067550659,XArbitraryZVertical,-0.3091376144610803,-0.5430631158653999,0.1909114982020449,0.757013339260685,-0.7041761875152588,0.6753965616226196,-0.2190327793359756,0,0,0,-1,-1,33150.93533325,unknown,2,2025-04-22T13:24:12.815+03:00,2025-04-21T17:08:51.449+03:00,7440,1.011932,0,0,6196.233,5,20,2025-04-22T13:19:21.305+03:00,767010263.2313154,0,-20.50999,100.4478,1,0.7,2025-04-22T13:24:20.142+03:00,105,1.75,2025-04-22T09:54:17.825+03:00,0.02225348692287972,0
2025-04-22T13:24:23.838+03:00,1745317460.230733,40.95228371877504,29.14028565392042,76.454,-1,-1,-1,-1,30,53.00558272710916,-9999,33161.95315504167,-0.678436279296875,0.6423492431640625,-0.2229461669921875,33161.94811604167,-0.06644388567388733,-1.271547358416738,-0.7417895878328635,-0.227527529001236,-0.1093265414237976,-0.06921078264713287,-0.03088659048080444,-0.01542168855667114,0.0140230655670166,XArbitraryZVertical,-0.3098529413940558,-0.5434316513568903,0.1901952396391162,0.7566366113888645,-0.7044954299926758,0.6756083965301514,-0.2173463851213455,0,0,0,-1,-1,33150.93533325,unknown,2,2025-04-22T13:24:12.815+03:00,2025-04-21T17:08:51.449+03:00,7440,1.011932,0,0,6196.233,5,20,2025-04-22T13:19:21.305+03:00,767010263.2313154,0,-20.50999,100.4478,1,0.7,2025-04-22T13:24:20.142+03:00,105,1.75,2025-04-22T09:54:17.825+03:00,0.02225348692287972,0
2025-04-22T13:24:23.848+03:00,1745317460.230733,40.95228371877504,29.14028565392042,76.454,-1,-1,-1,-1,30,53.00558272710916,-9999,33161.96323204167,-0.656005859375,0.684539794921875,-0.214691162109375,33161.95819304167,-0.06917810295693776,-1.274575822840405,-0.7421058363093732,-0.150917187333107,-0.1090740710496902,0.01203654147684574,0.01512670516967773,-0.03614741563796997,-0.007842466235160828,XArbitraryZVertical,-0.3104259908522677,-0.54411485790584,0.1897200096433413,0.7560297316542874,-0.704945981502533,0.6758415102958679,-0.2151494473218918,0,0,0,-1,-1,33150.93533325,unknown,2,2025-04-22T13:24:12.815+03:00,2025-04-21T17:08:51.449+03:00,7440,1.011932,0,0,6196.233,5,20,2025-04-22T13:19:21.305+03:00,767010263.2313154,0,-20.50999,100.4478,1,0.7,2025-04-22T13:24:20.142+03:00,105,1.75,2025-04-22T09:54:17.825+03:00,0.02225348692287972,0
2025-04-22T13:24:23.859+03:00,1745317460.230733,40.95228371877504,29.14028565392042,76.454,-1,-1,-1,-1,30,53.00558272710916,-9999,33161.97330904167,-0.683135986328125,0.7020721435546875,-0.219970703125,33161.96827004167,-0.07020180677102637,-1.275834752218474,-0.7432802456027875,-0.09124878793954849,0.06941231340169907,0.2482538819313049,0.0431099534034729,-0.01050806045532227,-0.002720162272453308,XArbitraryZVertical,-0.3110200666462684,-0.5442895036127438,0.1898602276340569,0.7556245241922184,-0.7044563293457031,0.6767066121101379,-0.2140309065580368,0,0,0,-1,-1,33150.93533325,unknown,2,2025-04-22T13:24:12.815+03:00,2025-04-21T17:08:51.449+03:00,7440,1.011932,0,0,6196.233,5,20,2025-04-22T13:19:21.305+03:00,767010263.2313154,0,-20.50999,100.4478,1,0.7,2025-04-22T13:24:20.142+03:00,105,1.75,2025-04-22T09:54:17.825+03:00,0.02225348692287972,0
2025-04-22T13:24:23.870+03:00,1745317460.230733,40.95228371877504,29.14028565392042,76.454,-1,-1,-1,-1,30,53.00558272710916,-9999,33161.98338604167,-0.7393951416015625,0.68878173828125,-0.218963623046875,33161.97834704167,-0.07108173968785515,-1.274374437603459,-0.7461788566963693,-0.2119955867528915,0.2178437262773514,0.1664355099201202,0.03583663702011108,0.02303582429885864,-0.003348886966705322,XArbitraryZVertical,-0.3124710443294107,-0.5432486101817781,0.1901181067948202,0.7557101953264539,-0.7022642493247986,0.6788378953933716,-0.2144855856895447,0,0,0,-1,-1,33150.93533325,unknown,2,2025-04-22T13:24:12.815+03:00,2025-04-21T17:08:51.449+03:00,7440,1.011932,0,0,6196.233,5,20,2025-04-22T13:19:21.305+03:00,767010263.2313154,0,-20.50999,100.4478,1,0.7,2025-04-22T13:24:20.142+03:00,105,1.75,2025-04-22T09:54:17.825+03:00,0.02225348692287972,0
2025-04-22T13:24:23.878+03:00,1745317460.230733,40.95228371877504,29.14028565392042,76.454,-1,-1,-1,-1,30,53.00558272710916,-9999,33161.99346304167,-0.7728424072265625,0.5823974609375,-0.1817626953125,33161.98842404167,-0.07443569090577305,-1.274764384641845,-0.7474535153830255,-0.3307419121265411,0.1499232649803162,-0.02187795005738735,-0.01471269130706787,0.01941484212875366,-0.007171213626861572,XArbitraryZVertical,-0.3138162125191695,-0.5427152319028899,0.1892714734661295,0.7557485486172277,-0.7015196084976196,0.6797733306884766,-0.213959127664566,0,0,0,-1,-1,33150.93533325,unknown,2,2025-04-22T13:24:12.815+03:00,2025-04-21T17:08:51.449+03:00,7440,1.011932,0,0,6196.233,5,20,2025-04-22T13:19:21.305+03:00,767010263.2313154,0,-20.50999,100.4478,1,0.7,2025-04-22T13:24:20.142+03:00,105,1.75,2025-04-22T09:54:17.825+03:00,0.02225348692287972,0
2025-04-22T13:24:23.888+03:00,1745317460.230733,40.95228371877504,29.14028565392042,76.454,-1,-1,-1,-1,30,53.00558272710916,-9999,33162.00354004167,-0.6760406494140625,0.594268798828125,-0.16961669921875,33161.99850104167,-0.08010375558472371,-1.277253268600139,-0.7489462872721682,-0.5250433087348938,0.1273366659879684,0.05734932795166969,-0.07190191745758057,-0.05193066596984863,0.01369169354438782,XArbitraryZVertical,-0.3156707815749851,-0.5425796192593878,0.1879437579454993,0.7554048623707879,-0.7010778784751892,0.6808673739433289,-0.2119186222553253,0,0,0,-1,-1,33150.93533325,unknown,2,2025-04-22T13:24:12.815+03:00,2025-04-21T17:08:51.449+03:00,7440,1.011932,0,0,6196.233,5,20,2025-04-22T13:19:21.305+03:00,767010263.2313154,0,-20.50999,100.4478,1,0.7,2025-04-22T13:24:20.142+03:00,105,1.75,2025-04-22T09:54:17.825+03:00,0.02225348692287972,0
2025-04-22T13:24:23.898+03:00,1745317460.230733,40.95228371877504,29.14028565392042,76.454,-1,-1,-1,-1,30,53.00558272710916,-9999,33162.01361604167,-0.6189727783203125,0.7645111083984375,-0.192718505859375,33162.00857804167,-0.08532631269073546,-1.280255637312342,-0.7504969083704849,-0.2033012211322784,-0.02391117438673973,0.004352689255028963,-0.02139323949813843,-0.1217759251594543,0.04079359769821167,XArbitraryZVertical,-0.3173778897910047,-0.5426935232987016,0.1868866538893467,0.7548696999334003,-0.7006984353065491,0.6820022463798523,-0.2095100283622742,0,0,0,-1,-1,33150.93533325,unknown,2,2025-04-22T13:24:12.815+03:00,2025-04-21T17:08:51.449+03:00,7440,1.011932,0,0,6196.233,5,20,2025-04-22T13:19:21.305+03:00,767010263.2313154,0,-20.50999,100.4478,1,0.7,2025-04-22T13:24:20.142+03:00,105,1.75,2025-04-22T09:54:17.825+03:00,0.02225348692287972,0
2025-04-22T13:24:23.908+03:00,1745317460.230733,40.95228371877504,29.14028565392042,76.454,-1,-1,-1,-1,30,53.00558272710916,-9999,33162.02369304167,-0.6658782958984375,0.837554931640625,-0.2532501220703125,33162.01865504167,-0.08387446896510953,-1.280127193168106,-0.7499546204197387,0.4064705967903137,-0.122448593378067,-0.03048102557659149,0.07721596956253052,0.01866590976715088,0.03044576942920685,XArbitraryZVertical,-0.3167962045970735,-0.5429430634768642,0.1872603388242497,0.754841984515135,-0.7010257244110107,0.6816055774688721,-0.2097059935331345,0,0,0,-1,-1,33150.93533325,unknown,2,2025-04-22T13:24:12.815+03:00,2025-04-21T17:08:51.449+03:00,7440,1.011932,0,0,6196.233,5,20,2025-04-22T13:19:21.305+03:00,767010263.2313154,0,-20.50999,100.4478,1,0.7,2025-04-22T13:24:20.142+03:00,105,1.75,2025-04-22T09:54:17.825+03:00,0.02225348692287972,0
2025-04-22T13:24:23.918+03:00,1745317460.230733,40.95228371877504,29.14028565392042,76.454,-1,-1,-1,-1,30,53.00558272710916,-9999,33162.03377004167,-0.7079315185546875,0.744049072265625,-0.2606353759765625,33162.02873204167,-0.07778001670618688,-1.276890466939397,-0.7485817143160867,0.424386739730835,-0.04132604971528053,0.02174516208469868,0.05760735273361206,0.1509882807731628,-0.01739989221096039,XArbitraryZVertical,-0.3149398339984379,-0.5428540330055334,0.188661114741777,0.7553338536056108,-0.7012382745742798,0.6806003451347351,-0.2122447937726974,0,0,0,-1,-1,33150.93533325,unknown,2,2025-04-22T13:24:12.815+03:00,2025-04-21T17:08:51.449+03:00,7440,1.011932,0,0,6196.233,5,20,2025-04-22T13:19:21.305+03:00,767010263.2313154,0,-20.50999,100.4478,1,0.7,2025-04-22T13:24:20.142+03:00,105,1.75,2025-04-22T09:54:17.825+03:00,0.02225348692287972,0
2025-04-22T13:24:23.928+03:00,1745317460.230733,40.95228371877504,29.14028565392042,76.454,-1,-1,-1,-1,30,53.00558272710916,-9999,33162.04384704167,-0.731781005859375,0.6213836669921875,-0.1829986572265625,33162.03880904167,-0.07451556744321333,-1.274462156920166,-0.7480162405874657,0.06395411491394043,0.07591096311807632,0.0001122377580031753,0.005684912204742432,0.1133321523666382,-0.05725708603858948,XArbitraryZVertical,-0.314074572274084,-0.542519541052666,0.1893526419981013,0.7557614498412834,-0.7010890245437622,0.6801859140396118,-0.2140594273805618,0,0,0,-1,-1,33150.93533325,unknown,2,2025-04-22T13:24:12.815+03:00,2025-04-21T17:08:51.449+03:00,7440,1.011932,0,0,6196.233,5,20,2025-04-22T13:19:21.305+03:00,767010263.2313154,0,-20.50999,100.4478,1,0.7,2025-04-22T13:24:20.142+03:00,105,1.75,2025-04-22T09:54:17.825+03:00,0.02225348692287972,0
2025-04-22T13:24:23.939+03:00,1745317460.230733,40.95228371877504,29.14028565392042,76.454,-1,-1,-1,-1,30,53.00558272710916,-9999,33162.05392404167,-0.7252044677734375,0.59967041015625,-0.1590576171875,33162.04888604167,-0.07496465076347364,-1.27392469041779,-0.7479823690230437,-0.08817522972822189,0.0794212743639946,-0.01998903602361679,-0.024208664894104,-0.02085942029953003,0.000911414623260498,XArbitraryZVertical,-0.3142346948905347,-0.5422500385847527,0.1890889789437831,0.7559542134387351,-0.7009957432746887,0.6801611185073853,-0.2144429087638855,0,0,0,-1,-1,33150.93533325,unknown,2,2025-04-22T13:24:12.815+03:00,2025-04-21T17:08:51.449+03:00,7440,1.011932,0,0,6196.233,5,20,2025-04-22T13:19:21.305+03:00,767010263.2313154,0,-20.50999,100.4478,1,0.7,2025-04-22T13:24:20.142+03:00,105,1.75,2025-04-22T09:54:17.825+03:00,0.02225348692287972,0
2025-04-22T13:24:23.949+03:00,1745317460.230733,40.95228371877504,29.14028565392042,76.454,-1,-1,-1,-1,30,53.00558272710916,-9999,33162.06400104167,-0.6878662109375,0.6315765380859375,-0.1878509521484375,33162.05896304167,-0.07652048779579321,-1.27446387155823,-0.7482382702082531,-0.1545770913362503,0.02354582399129868,0.00472486624494195,-0.03233146667480469,-0.08484399318695068,0.05665022134780884,XArbitraryZVertical,-0.3147001849013829,-0.5421777794235777,0.1886578977365937,0.7559201543390953,-0.7009449005126953,0.6803486943244934,-0.2140140980482101,0,0,0,-1,-1,33150.93533325,unknown,2,2025-04-22T13:24:12.815+03:00,2025-04-21T17:08:51.449+03:00,7440,1.011932,0,0,6196.233,5,20,2025-04-22T13:19:21.305+03:00,767010263.2313154,0,-20.50999,100.4478,1,0.7,2025-04-22T13:24:20.142+03:00,105,1.75,2025-04-22T09:54:17.825+03:00,0.02225348692287972,0
2025-04-22T13:24:23.959+03:00,1745317460.230733,40.95228371877504,29.14028565392042,76.454,-1,-1,-1,-1,30,53.00558272710916,-9999,33162.07407804167,-0.6690673828125,0.6478271484375,-0.1959228515625,33162.06904004167,-0.07927042478660659,-1.276273037464459,-0.7489449530458859,-0.2615642845630646,-0.006780923344194889,0.009098575450479984,-0.001796603202819824,-0.06042885780334473,0.03597027063369751,XArbitraryZVertical,-0.3155364224825803,-0.542341008209517,0.1881035046164642,0.7555925275525271,-0.7008706331253052,0.6808664202690125,-0.2126059979200363,0,0,0,-1,-1,33150.93533325,unknown,2,2025-04-22T13:24:12.815+03:00,2025-04-21T17:08:51.449+03:00,7440,1.011932,0,0,6196.233,5,20,2025-04-22T13:19:21.305+03:00,767010263.2313154,0,-20.50999,100.4478,1,0.7,2025-04-22T13:24:20.142+03:00,105,1.75,2025-04-22T09:54:17.825+03:00,0.02225348692287972,0
2025-04-22T13:24:23.969+03:00,1745317460.230733,40.95228371877504,29.14028565392042,76.454,-1,-1,-1,-1,30,53.00558272710916,-9999,33162.08415504167,-0.6848297119140625,0.675140380859375,-0.207244873046875,33162.07911704167,-0.08240073805306491,-1.278524705086595,-0.7496465465206579,-0.1861638575792313,-0.01656065136194229,-0.003297407180070877,0.02970147132873535,-0.03771871328353882,0.01511934399604797,XArbitraryZVertical,-0.3164328847005634,-0.5426098440713405,0.1874756523478584,0.755180408873814,-0.7008897066116333,0.6813800930976868,-0.2108895778656006,0,0,0,-1,-1,33150.93533325,unknown,2,2025-04-22T13:24:12.815+03:00,2025-04-21T17:08:51.449+03:00,7440,1.011932,0,0,6196.233,5,20,2025-04-22T13:19:21.305+03:00,767010263.2313154,0,-20.50999,100.4478,1,0.7,2025-04-22T13:24:20.142+03:00,105,1.75,2025-04-22T09:54:17.825+03:00,0.02225348692287972,0
2025-04-22T13:24:23.979+03:00,1745317460.230733,40.95228371877504,29.14028565392042,76.454,-1,-1,-1,-1,30,53.00558272710916,-9999,33162.09423204167,-0.7020111083984375,0.6999969482421875,-0.2321319580078125,33162.08919404167,-0.08387654742927161,-1.279675786469118,-0.7499623811103285,-0.0481167659163475,-0.01058771274983883,0.004805259872227907,0.02467167377471924,-0.01933413743972778,0.01005448400974274,XArbitraryZVertical,-0.3168418879478715,-0.5427713842725502,0.1871902625174612,0.7549636216013978,-0.700925886631012,0.6816112399101257,-0.2100208848714828,0,0,0,-1,-1,33150.93533325,unknown,2,2025-04-22T13:24:12.815+03:00,2025-04-21T17:08:51.449+03:00,7440,1.011932,0,0,6196.233,5,20,2025-04-22T13:19:21.305+03:00,767010263.2313154,0,-20.50999,100.4478,1,0.7,2025-04-22T13:24:20.142+03:00,105,1.75,2025-04-22T09:54:17.825+03:00,0.02225348692287972,0
2025-04-22T13:24:23.989+03:00,1745317460.230733,40.95228371877504,29.14028565392042,76.454,-1,-1,-1,-1,30,53.00558272710916,-9999,33162.10430904167,-0.7066802978515625,0.6939544677734375,-0.231353759765625,33162.09927104167,-0.08414817781224009,-1.279900363694234,-0.7501077936939767,-0.006455339025706053,0.00275578978471458,0.01144625153392553,0.003246307373046875,0.01214516162872314,-0.01398083567619324,XArbitraryZVertical,-0.3169481423559677,-0.5427949499395963,0.1871645761100705,0.7549084378783735,-0.7008780241012573,0.6817176342010498,-0.2098350375890732,0,0,0,-1,-1,33150.93533325,unknown,2,2025-04-22T13:24:12.815+03:00,2025-04-21T17:08:51.449+03:00,7440,1.011932,0,0,6196.233,5,20,2025-04-22T13:19:21.305+03:00,767010263.2313154,0,-20.50999,100.4478,1,0.7,2025-04-22T13:24:20.142+03:00,105,1.75,2025-04-22T09:54:17.825+03:00,0.02225348692287972,0
2025-04-22T13:24:23.999+03:00,1745317460.230733,40.95228371877504,29.14028565392042,76.454,-1,-1,-1,-1,30,53.00558272710916,-9999,33162.11438604167,-0.708251953125,0.6873016357421875,-0.22369384765625,33162.10934804167,-0.08391247806498349,-1.279621781201489,-0.7503098534385888,0.03733901306986809,0.01035645138472319,0.02028368599712849,-0.004726111888885498,0.01642239093780518,-0.02502505481243134,XArbitraryZVertical,-0.3169846697546859,-0.5427019011131302,0.1872667199861985,0.7549346693593354,-0.7006875872612,0.6818654537200928,-0.2099907249212265,0,0,0,-1,-1,33150.93533325,unknown,2,2025-04-22T13:24:12.815+03:00,2025-04-21T17:08:51.449+03:00,7440,1.011932,0,0,6196.233,5,20,2025-04-22T13:19:21.305+03:00,767010263.2313154,0,-20.50999,100.4478,1,0.7,2025-04-22T13:24:20.142+03:00,105,1.75,2025-04-22T09:54:17.825+03:00,0.02225348692287972,0
2025-04-22T13:24:24.009+03:00,1745317460.230733,40.95228371877504,29.14028565392042,76.454,-1,-1,-1,-1,30,53.00558272710916,-9999,33162.12446304167,-0.704345703125,0.680389404296875,-0.23712158203125,33162.11942504167,-0.08297281735895251,-1.278921014407875,-0.7504558933654144,0.06984362751245499,-0.00335916131734848,0.03714292496442795,-0.007669627666473389,0.006946682929992676,-0.01322546601295471,XArbitraryZVertical,-0.3168491854377712,-0.5425680366233555,0.1875518061478753,0.7550169809691746,-0.7004448771476746,0.6819722652435303,-0.2104530334472656,0,0,0,-1,-1,33150.93533325,unknown,2,2025-04-22T13:24:12.815+03:00,2025-04-21T17:08:51.449+03:00,7440,1.011932,0,0,6196.233,5,20,2025-04-22T13:19:21.305+03:00,767010263.2313154,0,-20.50999,100.4478,1,0.7,2025-04-22T13:24:20.142+03:00,105,1.75,2025-04-22T09:54:17.825+03:00,0.02225348692287972,0
2025-04-22T13:24:24.035+03:00,1745317460.230733,40.95228371877504,29.14028565392042,76.454,-1,-1,-1,-1,30,53.00558272710916,-9999,33162.13454004167,-0.7034149169921875,0.66204833984375,-0.2339630126953125,33162.12950204167,-0.08222224328478346,-1.278407120860487,-0.7507045326710741,0.01422856748104095,0.008697235956788063,0.04422480240464211,-0.005529344081878662,0.002843320369720459,-0.02092532813549042,XArbitraryZVertical,-0.3167854293027429,-0.5424619288409737,0.1878242074713469,0.7550522870317798,-0.7001742720603943,0.68215411901474,-0.2107640951871872,0,0,0,-1,-1,33150.93533325,unknown,2,2025-04-22T13:24:12.815+03:00,2025-04-21T17:08:51.449+03:00,7440,1.011932,0,0,6196.233,5,20,2025-04-22T13:19:21.305+03:00,767010263.2313154,0,-20.50999,100.4478,1,0.7,2025-04-22T13:24:20.142+03:00,105,1.75,2025-04-22T09:54:17.825+03:00,0.02225348692287972,0
2025-04-22T13:24:24.038+03:00,1745317460.230733,40.95228371877504,29.14028565392042,76.454,-1,-1,-1,-1,30,53.00558272710916,-9999,33162.14461704167,-0.7015838623046875,0.660003662109375,-0.2222442626953125,33162.13957904167,-0.08214582712331056,-1.278209828031531,-0.7511184325395223,-0.01651929132640362,0.02201776765286922,0.0515347458422184,-0.003094732761383057,-0.01448798179626465,-0.02712470293045044,XArbitraryZVertical,-0.3169357661845099,-0.542347964487173,0.1879390163700501,0.755042572149854,-0.6998624205589294,0.6824566721916199,-0.210820809006691,0,0,0,-1,-1,33150.93533325,unknown,2,2025-04-22T13:24:12.815+03:00,2025-04-21T17:08:51.449+03:00,7440,1.011932,0,0,6196.233,5,20,2025-04-22T13:19:21.305+03:00,767010263.2313154,0,-20.50999,100.4478,1,0.7,2025-04-22T13:24:20.142+03:00,105,1.75,2025-04-22T09:54:17.825+03:00,0.02225348692287972,0
2025-04-22T13:24:24.040+03:00,1745317460.230733,40.95228371877504,29.14028565392042,76.454,-1,-1,-1,-1,30,53.00558272710916,-9999,33162.15469404167,-0.69415283203125,0.6680755615234375,-0.2247467041015625,33162.14965604167,-0.08225802358884395,-1.278113524270339,-0.7516547430423641,-0.0288033876568079,0.01195474714040756,0.05041541904211044,-0.003297686576843262,-0.02432507276535034,-0.01400986313819885,XArbitraryZVertical,-0.3171728732515854,-0.5422269520724373,0.1880332750554935,0.7550065034881235,-0.6994916200637817,0.6828485727310181,-0.21078260242939,0,0,0,-1,-1,33150.93533325,unknown,2,2025-04-22T13:24:12.815+03:00,2025-04-21T17:08:51.449+03:00,7440,1.011932,0,0,6196.233,5,20,2025-04-22T13:19:21.305+03:00,767010263.2313154,0,-20.50999,100.4478,1,0.7,2025-04-22T13:24:20.142+03:00,105,1.75,2025-04-22T09:54:17.825+03:00,0.02225348692287972,0
2025-04-22T13:24:24.049+03:00,1745317460.230733,40.95228371877504,29.14028565392042,76.454,-1,-1,-1,-1,30,53.00558272710916,-9999,33162.16477104167,-0.6849822998046875,0.6829986572265625,-0.2164154052734375,33162.15973304167,-0.08233429038684983,-1.278136217993965,-0.7521407217336523,-0.003098624292761087,-0.006932723335921764,0.03985142707824707,0.001455247402191162,-0.01859176158905029,-0.01343485713005066,XArbitraryZVertical,-0.3173704842107253,-0.5421627875307767,0.1881457124580805,0.7549415512871143,-0.6991786360740662,0.6832035183906555,-0.2106709778308868,0,0,0,-1,-1,33150.93533325,unknown,2,2025-04-22T13:24:12.815+03:00,2025-04-21T17:08:51.449+03:00,7440,1.011932,0,0,6196.233,5,20,2025-04-22T13:19:21.305+03:00,767010263.2313154,0,-20.50999,100.4478,1,0.7,2025-04-22T13:24:20.142+03:00,105,1.75,2025-04-22T09:54:17.825+03:00,0.02225348692287972,0
2025-04-22T13:24:24.060+03:00,1745317460.230733,40.95228371877504,29.14028565392042,76.454,-1,-1,-1,-1,30,53.00558272710916,-9999,33162.17484804167,-0.68212890625,0.6995697021484375,-0.2047882080078125,33162.16981004167,-0.08199082480991368,-1.278117675734791,-0.7523860704969068,0.0339861586689949,-0.03759556263685226,0.02242157235741615,0.01192605495452881,-0.007235288619995117,-0.01014387607574463,XArbitraryZVertical,-0.3173695354443673,-0.5421796896866548,0.1883419448670739,0.7548807797125625,-0.6990140676498413,0.6833826899528503,-0.2106355279684067,0,0,0,-1,-1,33150.93533325,unknown,2,2025-04-22T13:24:12.815+03:00,2025-04-21T17:08:51.449+03:00,7440,1.011932,0,0,6196.233,5,20,2025-04-22T13:19:21.305+03:00,767010263.2313154,0,-20.50999,100.4478,1,0.7,2025-04-22T13:24:20.142+03:00,105,1.75,2025-04-22T09:54:17.825+03:00,0.02225348692287972,0
2025-04-22T13:24:24.070+03:00,1745317460.230733,40.95228371877504,29.14028565392042,76.454,-1,-1,-1,-1,30,53.00558272710916,-9999,33162.18492504167,-0.686370849609375,0.7060546875,-0.20025634765625,33162.17988704167,-0.08156285296866302,-1.278371508677075,-0.7524318882752568,0.01934223622083664,-0.06666955351829529,0.001943061011843383,0.01605421304702759,0.01091980934143066,0.001434236764907837,XArbitraryZVertical,-0.3172464537600661,-0.5423376634150913,0.1885566753339404,0.7547654971374853,-0.6990376114845276,0.6834161281585693,-0.2104490995407104,0,0,0,-1,-1,33150.93533325,unknown,2,2025-04-22T13:24:12.815+03:00,2025-04-21T17:08:51.449+03:00,7440,1.011932,0,0,6196.233,5,20,2025-04-22T13:19:21.305+03:00,767010263.2313154,0,-20.50999,100.4478,1,0.7,2025-04-22T13:24:20.142+03:00,105,1.75,2025-04-22T09:54:17.825+03:00,0.02225348692287972,0
2025-04-22T13:24:24.080+03:00,1745317460.230733,40.95228371877504,29.14028565392042,76.454,-1,-1,-1,-1,30,53.00558272710916,-9999,33162.19500204167,-0.6980438232421875,0.7035675048828125,-0.2052154541015625,33162.18996404167,-0.08144845921130092,-1.278902375818057,-0.7524398963068719,-0.00645527197048068,-0.05744756013154984,0.003526843152940273,0.01539754867553711,0.02183914184570312,0.008599311113357544,XArbitraryZVertical,-0.3171683313887287,-0.5425551466743755,0.1886863796959849,0.7546094519800814,-0.6991437673568726,0.6834219694137573,-0.2100763320922852,0,0,0,-1,-1,33150.93533325,unknown,2,2025-04-22T13:24:12.815+03:00,2025-04-21T17:08:51.449+03:00,7440,1.011932,0,0,6196.233,5,20,2025-04-22T13:19:21.305+03:00,767010263.2313154,0,-20.50999,100.4478,1,0.7,2025-04-22T13:24:20.142+03:00,105,1.75,2025-04-22T09:54:17.825+03:00,0.02225348692287972,0
2025-04-22T13:24:24.090+03:00,1745317460.230733,40.95228371877504,29.14028565392042,76.454,-1,-1,-1,-1,30,53.00558272710916,-9999,33162.20507904167,-0.7071075439453125,0.691558837890625,-0.2201690673828125,33162.20004104167,-0.08161169876945218,-1.279514812171009,-0.752492189635793,-0.02762274257838726,-0.04700490832328796,0.001075203530490398,0.005863666534423828,0.02157211303710938,0.007504761219024658,XArbitraryZVertical,-0.317174082817729,-0.5427537721880964,0.1887366842752716,0.7544517032840324,-0.6992382407188416,0.6834601759910583,-0.2096378952264786,0,0,0,-1,-1,33150.93533325,unknown,2,2025-04-22T13:24:12.815+03:00,2025-04-21T17:08:51.449+03:00,7440,1.011932,0,0,6196.233,5,20,2025-04-22T13:19:21.305+03:00,767010263.2313154,0,-20.50999,100.4478,1,0.7,2025-04-22T13:24:20.142+03:00,105,1.75,2025-04-22T09:54:17.825+03:00,0.02225348692287972,0
2025-04-22T13:24:24.100+03:00,1745317460.230733,40.95228371877504,29.14028565392042,76.454,-1,-1,-1,-1,30,53.00558272710916,-9999,33162.21515604167,-0.7061004638671875,0.6767578125,-0.234619140625,33162.21011804167,-0.08212424546166631,-1.280269493867767,-0.7525624762907377,-0.05467779561877251,-0.04059041664004326,-0.006003744900226593,-0.005056500434875488,0.01358628273010254,-0.005320101976394653,XArbitraryZVertical,-0.3172678687243263,-0.5429483492285826,0.1886829697230177,0.7542857136485085,-0.6993502974510193,0.6835114359855652,-0.209096372127533,0,0,0,-1,-1,33150.93533325,unknown,2,2025-04-22T13:24:12.815+03:00,2025-04-21T17:08:51.449+03:00,7440,1.011932,0,0,6196.233,5,20,2025-04-22T13:19:21.305+03:00,767010263.2313154,0,-20.50999,100.4478,1,0.7,2025-04-22T13:24:20.142+03:00,105,1.75,2025-04-22T09:54:17.825+03:00,0.02225348692287972,0
2025-04-22T13:24:24.110+03:00,1745317460.230733,40.95228371877504,29.14028565392042,76.454,-1,-1,-1,-1,30,53.00558272710916,-9999,33162.22523304167,-0.69683837890625,0.669036865234375,-0.2443084716796875,33162.22019504167,-0.08272260881956316,-1.28098301988799,-0.7525858013066902,-0.05486142262816429,-0.04377036541700363,0.003102201968431473,-0.007852494716644287,-0.001414895057678223,-0.02158606052398682,XArbitraryZVertical,-0.317371633673508,-0.5431195823511162,0.1885771839112896,0.754145152846594,-0.6994839310646057,0.6835284829139709,-0.2085927277803421,0,0,0,-1,-1,33150.93533325,unknown,2,2025-04-22T13:24:12.815+03:00,2025-04-21T17:08:51.449+03:00,7440,1.011932,0,0,6196.233,5,20,2025-04-22T13:19:21.305+03:00,767010263.2313154,0,-20.50999,100.4478,1,0.7,2025-04-22T13:24:20.142+03:00,105,1.75,2025-04-22T09:54:17.825+03:00,0.02225348692287972,0
2025-04-22T13:24:24.120+03:00,1745317460.230733,40.95228371877504,29.14028565392042,76.454,-1,-1,-1,-1,30,53.00558272710916,-9999,33162.23531004167,-0.6850433349609375,0.6705169677734375,-0.2481536865234375,33162.23027204167,-0.08317457314165938,-1.281691539939263,-0.7525835009099451,-0.03008390218019485,-0.05465390533208847,0.01051937229931355,-0.001767635345458984,-0.01268947124481201,-0.03396785259246826,XArbitraryZVertical,-0.3174267439859805,-0.5433152752859054,0.1885185453335169,0.7539956861694139,-0.6996330618858337,0.6835268139839172,-0.2080975472927094,0,0,0,-1,-1,33150.93533325,unknown,2,2025-04-22T13:24:12.815+03:00,2025-04-21T17:08:51.449+03:00,7440,1.011932,0,0,6196.233,5,20,2025-04-22T13:19:21.305+03:00,767010263.2313154,0,-20.50999,100.4478,1,0.7,2025-04-22T13:24:20.142+03:00,105,1.75,2025-04-22T09:54:17.825+03:00,0.02225348692287972,0
2025-04-22T13:24:24.130+03:00,1745317460.230733,40.95228371877504,29.14028565392042,76.454,-1,-1,-1,-1,30,53.00558272710916,-9999,33162.24538704167,-0.6805267333984375,0.6773529052734375,-0.2541351318359375,33162.24034904167,-0.08301882358510158,-1.282197879842836,-0.7526018644233287,0.03200836107134819,-0.0832662433385849,0.01985661312937737,0.01012057065963745,-0.01468658447265625,-0.03980366885662079,XArbitraryZVertical,-0.3173434493395671,-0.5435285751200042,0.1886628777948844,0.7538407938985802,-0.6997261643409729,0.6835402250289917,-0.2077396512031555,0,0,0,-1,-1,33150.93533325,unknown,2,2025-04-22T13:24:12.815+03:00,2025-04-21T17:08:51.449+03:00,7440,1.011932,0,0,6196.233,5,20,2025-04-22T13:19:21.305+03:00,767010263.2313154,0,-20.50999,100.4478,1,0.7,2025-04-22T13:24:20.142+03:00,105,1.75,2025-04-22T09:54:17.825+03:00,0.02225348692287972,0
2025-04-22T13:24:24.140+03:00,1745317460.230733,40.95228371877504,29.14028565392042,76.454,-1,-1,-1,-1,30,53.00558272710916,-9999,33162.25546404167,-0.687103271484375,0.680999755859375,-0.2495574951171875,33162.25042604167,-0.08192355200002693,-1.282289738896449,-0.7526727491600711,0.09849657863378525,-0.09897676110267639,0.03083496354520321,0.01879078149795532,-0.008726298809051514,-0.04473394155502319,XArbitraryZVertical,-0.317063121389557,-0.5437280202652259,0.1891103116982428,0.7537029077292354,-0.6996989846229553,0.6835919618606567,-0.2076616287231445,0,0,0,-1,-1,33150.93533325,unknown,2,2025-04-22T13:24:12.815+03:00,2025-04-21T17:08:51.449+03:00,7440,1.011932,0,0,6196.233,5,20,2025-04-22T13:19:21.305+03:00,767010263.2313154,0,-20.50999,100.4478,1,0.7,2025-04-22T13:24:20.142+03:00,105,1.75,2025-04-22T09:54:17.825+03:00,0.02225348692287972,0
2025-04-22T13:24:24.150+03:00,1745317460.230733,40.95228371877504,29.14028565392042,76.454,-1,-1,-1,-1,30,53.00558272710916,-9999,33162.26554104167,-0.6968994140625,0.6795196533203125,-0.2404937744140625,33162.26050204167,-0.08030392101741757,-1.282115976936907,-0.75282832885338,0.1098640114068985,-0.09379132091999054,0.0351928286254406,0.01570767164230347,-0.002888977527618408,-0.04571083188056946,XArbitraryZVertical,-0.3166964472978006,-0.5438997386881353,0.1897373199447284,0.753575441464523,-0.6995607018470764,0.6837055087089539,-0.2077528685331345,0,0,0,-1,-1,33150.93533325,unknown,2,2025-04-22T13:24:12.815+03:00,2025-04-21T17:08:51.449+03:00,7440,1.011932,0,0,6196.233,5,20,2025-04-22T13:19:21.305+03:00,767010263.2313154,0,-20.50999,100.4478,1,0.7,2025-04-22T13:24:20.142+03:00,105,1.75,2025-04-22T09:54:17.825+03:00,0.02225348692287972,0
2025-04-22T13:24:24.160+03:00,1745317460.230733,40.95228371877504,29.14028565392042,76.454,-1,-1,-1,-1,30,53.00558272710916,-9999,33162.275617375,-0.7070770263671875,0.67791748046875,-0.2349090576171875,33162.270578375,-0.07884037724594486,-1.282147575088618,-0.7530853696804887,0.09703023731708527,-0.1140728890895844,0.03555368632078171,0.006695687770843506,-0.004251480102539062,-0.03603260219097137,XArbitraryZVertical,-0.3163899423304066,-0.5441112304535914,0.1903666116697461,0.7533928173037514,-0.6993988156318665,0.6838930249214172,-0.2076807469129562,0,0,0,-1,-1,33150.93533325,unknown,2,2025-04-22T13:24:12.815+03:00,2025-04-21T17:08:51.449+03:00,7440,1.011932,0,0,6196.233,5,20,2025-04-22T13:19:21.305+03:00,767010263.2313154,0,-20.50999,100.4478,1,0.7,2025-04-22T13:24:20.142+03:00,105,1.75,2025-04-22T09:54:17.825+03:00,0.02225348692287972,0
2025-04-22T13:24:24.170+03:00,1745317460.230733,40.95228371877504,29.14028565392042,76.454,-1,-1,-1,-1,30,53.00558272710916,-9999,33162.285694375,-0.713775634765625,0.669677734375,-0.2406463623046875,33162.28065537501,-0.07754532965615345,-1.282492000324118,-0.7534365904213441,0.07198960334062576,-0.1210937798023224,0.05616056174039841,-0.00368654727935791,-0.004965424537658691,-0.02826987206935883,XArbitraryZVertical,-0.3161339416434899,-0.5444020183205655,0.1910084419534835,0.7531277404123941,-0.6992400288581848,0.6841492652893066,-0.2073715478181839,0,0,0,-1,-1,33150.93533325,unknown,2,2025-04-22T13:24:12.815+03:00,2025-04-21T17:08:51.449+03:00,7440,1.011932,0,0,6196.233,5,20,2025-04-22T13:19:21.305+03:00,767010263.2313154,0,-20.50999,100.4478,1,0.7,2025-04-22T13:24:20.142+03:00,105,1.75,2025-04-22T09:54:17.825+03:00,0.02225348692287972,0
2025-04-22T13:24:24.180+03:00,1745317460.230733,40.95228371877504,29.14028565392042,76.454,-1,-1,-1,-1,30,53.00558272710916,-9999,33162.295771375,-0.720184326171875,0.665618896484375,-0.24908447265625,33162.290732375,-0.07655417809910212,-1.282999449869926,-0.7538773281514559,0.04020290821790695,-0.1174761429429054,0.05783329159021378,-0.01288843154907227,-0.01111561059951782,-0.02956479787826538,XArbitraryZVertical,-0.3159777234251468,-0.544694881973521,0.1915867516393313,0.7528346867344469,-0.699056088924408,0.6844706535339355,-0.2069311290979385,0,0,0,-1,-1,33150.93533325,unknown,2,2025-04-22T13:24:12.815+03:00,2025-04-21T17:08:51.449+03:00,7440,1.011932,0,0,6196.233,5,20,2025-04-22T13:19:21.305+03:00,767010263.2313154,0,-20.50999,100.4478,1,0.7,2025-04-22T13:24:20.142+03:00,105,1.75,2025-04-22T09:54:17.825+03:00,0.02225348692287972,0
2025-04-22T13:24:24.191+03:00,1745317460.230733,40.95228371877504,29.14028565392042,76.454,-1,-1,-1,-1,30,53.00558272710916,-9999,33162.305848375,-0.71929931640625,0.6676483154296875,-0.2506866455078125,33162.300809375,-0.07570082342720186,-1.283438056698524,-0.7543087175533988,0.0310097448527813,-0.1114602610468864,0.06631948798894882,-0.01851308345794678,-0.01875424385070801,-0.04030060768127441,XArbitraryZVertical,-0.315861926300945,-0.5449411402470005,0.192099549237726,0.7525743516890547,-0.6988635659217834,0.6847850680351257,-0.2065407931804657,0,0,0,-1,-1,33150.93533325,unknown,2,2025-04-22T13:24:12.815+03:00,2025-04-21T17:08:51.449+03:00,7440,1.011932,0,0,6196.233,5,20,2025-04-22T13:19:21.305+03:00,767010263.2313154,0,-20.50999,100.4478,1,0.7,2025-04-22T13:24:20.142+03:00,105,1.75,2025-04-22T09:54:17.825+03:00,0.02225348692287972,0
2025-04-22T13:24:24.201+03:00,1745317460.230733,40.95228371877504,29.14028565392042,76.454,-1,-1,-1,-1,30,53.00558272710916,-9999,33162.31592537501,-0.71051025390625,0.677337646484375,-0.2454071044921875,33162.310886375,-0.07482689887475984,-1.283776642610706,-0.7547264982014608,0.02714709565043449,-0.1071067899465561,0.06837092339992523,-0.02321898937225342,-0.01889079809188843,-0.04402095079421997,XArbitraryZVertical,-0.3157449111198948,-0.5451546338073197,0.1926002967707549,0.7523408203992578,-0.6986590623855591,0.6850894689559937,-0.2062231600284576,0,0,0,-1,-1,33150.93533325,unknown,2,2025-04-22T13:24:12.815+03:00,2025-04-21T17:08:51.449+03:00,7440,1.011932,0,0,6196.233,5,20,2025-04-22T13:19:21.305+03:00,767010263.2313154,0,-20.50999,100.4478,1,0.7,2025-04-22T13:24:20.142+03:00,105,1.75,2025-04-22T09:54:17.825+03:00,0.02225348692287972,0
2025-04-22T13:24:24.211+03:00,1745317460.230733,40.95228371877504,29.14028565392042,76.454,-1,-1,-1,-1,30,53.00558272710916,-9999,33162.326002375,-0.7003631591796875,0.6952972412109375,-0.242584228515625,33162.320963375,-0.07379817221336576,-1.283815627868746,-0.7551558922283085,0.05020973831415176,-0.08920802175998688,0.06129180639982224,-0.01542127132415771,-0.01361876726150513,-0.04164430499076843,XArbitraryZVertical,-0.3156186980171183,-0.5452783879718159,0.1931151419710955,0.7521721123821914,-0.6983848810195923,0.6854022145271301,-0.2061126381158829,0,0,0,-1,-1,33150.93533325,unknown,2,2025-04-22T13:24:12.815+03:00,2025-04-21T17:08:51.449+03:00,7440,1.011932,0,0,6196.233,5,20,2025-04-22T13:19:21.305+03:00,767010263.2313154,0,-20.50999,100.4478,1,0.7,2025-04-22T13:24:20.142+03:00,105,1.75,2025-04-22T09:54:17.825+03:00,0.02225348692287972,0
2025-04-22T13:24:24.221+03:00,1745317460.230733,40.95228371877504,29.14028565392042,76.454,-1,-1,-1,-1,30,53.00558272710916,-9999,33162.336079375,-0.6949310302734375,0.7071685791015625,-0.26251220703125,33162.331040375,-0.07203054116419584,-1.283284640300053,-0.7554392001521247,0.1335317939519882,-0.0968499630689621,0.05970562621951103,-0.006134629249572754,0.002471208572387695,-0.03495046496391296,XArbitraryZVertical,-0.3152923986684705,-0.5453224361701311,0.1937765248101151,0.752106756083523,-0.6980888247489929,0.685608446598053,-0.2064282894134521,0,0,0,-1,-1,33150.93533325,unknown,2,2025-04-22T13:24:12.815+03:00,2025-04-21T17:08:51.449+03:00,7440,1.011932,0,0,6196.233,5,20,2025-04-22T13:19:21.305+03:00,767010263.2313154,0,-20.50999,100.4478,1,0.7,2025-04-22T13:24:20.142+03:00,105,1.75,2025-04-22T09:54:17.825+03:00,0.02225348692287972,0
2025-04-22T13:24:24.231+03:00,1745317460.230733,40.95228371877504,29.14028565392042,76.454,-1,-1,-1,-1,30,53.00558272710916,-9999,33162.346156375,-0.688995361328125,0.714080810546875,-0.2957611083984375,33162.341117375,-0.06910214539061385,-1.281995639649823,-0.7554480240104193,0.2227524220943451,-0.09992677718400955,0.05196365341544151,0.001909017562866211,0.01839500665664673,-0.04482518136501312,XArbitraryZVertical,-0.3146223755576978,-0.5452977427064702,0.1946772759941232,0.7521727020461935,-0.6978164911270142,0.6856148838996887,-0.2073262631893158,0,0,0,-1,-1,33150.93533325,unknown,2,2025-04-22T13:24:12.815+03:00,2025-04-21T17:08:51.449+03:00,7440,1.011932,0,0,6196.233,5,20,2025-04-22T13:19:21.305+03:00,767010263.2313154,0,-20.50999,100.4478,1,0.7,2025-04-22T13:24:20.142+03:00,105,1.75,2025-04-22T09:54:17.825+03:00,0.02225348692287972,0
2025-04-22T13:24:24.241+03:00,1745317460.230733,40.95228371877504,29.14028565392042,76.454,-1,-1,-1,-1,30,53.00558272710916,-9999,33162.356233375,-0.6834259033203125,0.7161407470703125,-0.3176422119140625,33162.35119437501,-0.06514758251577774,-1.280204110419022,-0.7551502349331428,0.2949584126472473,-0.1217519193887711,0.05519299954175949,0.005699217319488525,0.02579867839813232,-0.0745379626750946,XArbitraryZVertical,-0.313609275356497,-0.5452815285895113,0.1957991850002842,0.7523162610967251,-0.6976394653320312,0.6853981018066406,-0.2086345553398132,0,0,0,-1,-1,33150.93533325,unknown,2,2025-04-22T13:24:12.815+03:00,2025-04-21T17:08:51.449+03:00,7440,1.011932,0,0,6196.233,5,20,2025-04-22T13:19:21.305+03:00,767010263.2313154,0,-20.50999,100.4478,1,0.7,2025-04-22T13:24:20.142+03:00,105,1.75,2025-04-22T09:54:17.825+03:00,0.02225348692287972,0
2025-04-22T13:24:24.251+03:00,1745317460.230733,40.95228371877504,29.14028565392042,76.454,-1,-1,-1,-1,30,53.00558272710916,-9999,33162.366310375,-0.6808929443359375,0.7118682861328125,-0.3241729736328125,33162.361271375,-0.06061105483829889,-1.278381194004476,-0.7547266269480749,0.325288325548172,-0.1592724621295929,0.06003858894109726,0.01313364505767822,0.0316157341003418,-0.1021746098995209,XArbitraryZVertical,-0.3123949577871321,-0.5453572640623684,0.1971009615865587,0.752426790526634,-0.6975361108779907,0.6850895285606384,-0.2099896967411041,0,0,0,-1,-1,33150.93533325,unknown,2,2025-04-22T13:24:12.815+03:00,2025-04-21T17:08:51.449+03:00,7440,1.011932,0,0,6196.233,5,20,2025-04-22T13:19:21.305+03:00,767010263.2313154,0,-20.50999,100.4478,1,0.7,2025-04-22T13:24:20.142+03:00,105,1.75,2025-04-22T09:54:17.825+03:00,0.02225348692287972,0
2025-04-22T13:24:24.261+03:00,1745317460.230733,40.95228371877504,29.14028565392042,76.454,-1,-1,-1,-1,30,53.00558272710916,-9999,33162.376387375,-0.6888580322265625,0.6995086669921875,-0.302398681640625,33162.371348375,-0.05601872905970569,-1.276945624635849,-0.754271794734093,0.311993807554245,-0.1956294029951096,0.06392413377761841,0.0170663595199585,0.02982604503631592,-0.1127714961767197,XArbitraryZVertical,-0.3111162467034304,-0.5455879192885434,0.1984769766862273,0.75242755613081,-0.6975319385528564,0.6847581267356873,-0.2110810130834579,0,0,0,-1,-1,33150.93533325,unknown,2,2025-04-22T13:24:12.815+03:00,2025-04-21T17:08:51.449+03:00,7440,1.011932,0,0,6196.233,5,20,2025-04-22T13:19:21.305+03:00,767010263.2313154,0,-20.50999,100.4478,1,0.7,2025-04-22T13:24:20.142+03:00,105,1.75,2025-04-22T09:54:17.825+03:00,0.02225348692287972,0
2025-04-22T13:24:24.271+03:00,1745317460.230733,40.95228371877504,29.14028565392042,76.454,-1,-1,-1,-1,30,53.00558272710916,-9999,33162.386464375,-0.707763671875,0.6864471435546875,-0.262451171875,33162.381425375,-0.05175555701243906,-1.27614270219398,-0.7539805679503838,0.276254266500473,-0.2395081222057343,0.07557590305805206,0.01359319686889648,0.02013546228408813,-0.1035933792591095,XArbitraryZVertical,-0.3099249771329177,-0.5459826307488453,0.1998741627991918,0.7522630980081082,-0.6975531578063965,0.6845458745956421,-0.2116989493370056,0,0,0,-1,-1,33150.93533325,unknown,2,2025-04-22T13:24:12.815+03:00,2025-04-21T17:08:51.449+03:00,7440,1.011932,0,0,6196.233,5,20,2025-04-22T13:19:21.305+03:00,767010263.2313154,0,-20.50999,100.4478,1,0.7,2025-04-22T13:24:20.142+03:00,105,1.75,2025-04-22T09:54:17.825+03:00,0.02225348692287972,0
2025-04-22T13:24:24.281+03:00,1745317460.230733,40.95228371877504,29.14028565392042,76.454,-1,-1,-1,-1,30,53.00558272710916,-9999,33162.396541375,-0.733428955078125,0.6725921630859375,-0.2374725341796875,33162.391502375,-0.04809669085391447,-1.276016556121276,-0.7538173982221343,0.2199012339115143,-0.2398708462715149,0.06896060705184937,-0.001646459102630615,0.007025063037872314,-0.06477668881416321,XArbitraryZVertical,-0.3088778253038389,-0.5465206231497358,0.2011848061730633,0.7519536935023787,-0.6976333260536194,0.6844269633293152,-0.2118193954229355,0,0,0,-1,-1,33150.93533325,unknown,2,2025-04-22T13:24:12.815+03:00,2025-04-21T17:08:51.449+03:00,7440,1.011932,0,0,6196.233,5,20,2025-04-22T13:19:21.305+03:00,767010263.2313154,0,-20.50999,100.4478,1,0.7,2025-04-22T13:24:20.142+03:00,105,1.75,2025-04-22T09:54:17.825+03:00,0.02225348692287972,0
2025-04-22T13:24:24.291+03:00,1745317460.230733,40.95228371877504,29.14028565392042,76.454,-1,-1,-1,-1,30,53.00558272710916,-9999,33162.406618375,-0.75311279296875,0.662933349609375,-0.22467041015625,33162.401579375,-0.0452614602373267,-1.276275382645329,-0.7538514725746444,0.1324118077754974,-0.2058655321598053,0.07585323601961136,-0.0252956748008728,-0.006854891777038574,-0.03299687802791595,XArbitraryZVertical,-0.3080892306158741,-0.5470512077337296,0.2023000557445015,0.7515919924376263,-0.6976656913757324,0.6844517588615417,-0.2116319984197617,0,0,0,-1,-1,33150.93533325,unknown,2,2025-04-22T13:24:12.815+03:00,2025-04-21T17:08:51.449+03:00,7440,1.011932,0,0,6196.233,5,20,2025-04-22T13:19:21.305+03:00,767010263.2313154,0,-20.50999,100.4478,1,0.7,2025-04-22T13:24:20.142+03:00,105,1.75,2025-04-22T09:54:17.825+03:00,0.02225348692287972,0
2025-04-22T13:24:24.301+03:00,1745317460.230733,40.95228371877504,29.14028565392042,76.454,-1,-1,-1,-1,30,53.00558272710916,-9999,33162.416695375,-0.7496795654296875,0.66485595703125,-0.21368408203125,33162.411656375,-0.04372182463159614,-1.277169283530515,-0.7543035195660426,0.05221389979124069,-0.1993074864149094,0.06922542303800583,-0.04981708526611328,-0.01962029933929443,-0.01784102618694305,XArbitraryZVertical,-0.3077449147733029,-0.5475707425553876,0.20314277424613,0.7511272712167101,-0.6975583434104919,0.6847812533378601,-0.2109186947345734,0,0,0,-1,-1,33150.93533325,unknown,2,2025-04-22T13:24:12.815+03:00,2025-04-21T17:08:51.449+03:00,7440,1.011932,0,0,6196.233,5,20,2025-04-22T13:19:21.305+03:00,767010263.2313154,0,-20.50999,100.4478,1,0.7,2025-04-22T13:24:20.142+03:00,105,1.75,2025-04-22T09:54:17.825+03:00,0.02225348692287972,0
2025-04-22T13:24:24.311+03:00,1745317460.230733,40.95228371877504,29.14028565392042,76.454,-1,-1,-1,-1,30,53.00558272710916,-9999,33162.426772375,-0.731689453125,0.6735687255859375,-0.2037811279296875,33162.421733375,-0.04288116126028801,-1.278490131699006,-0.7548715452722745,0.008838529698550701,-0.1991180777549744,0.06750719249248505,-0.05685442686080933,-0.0227653980255127,-0.008391916751861572,XArbitraryZVertical,-0.3075908019166812,-0.5481289807299577,0.203820796423713,0.7505993992882166,-0.6974637508392334,0.6851950883865356,-0.2098850309848785,0,0,0,-1,-1,33150.93533325,unknown,2,2025-04-22T13:24:12.815+03:00,2025-04-21T17:08:51.449+03:00,7440,1.011932,0,0,6196.233,5,20,2025-04-22T13:19:21.305+03:00,767010263.2313154,0,-20.50999,100.4478,1,0.7,2025-04-22T13:24:20.142+03:00,105,1.75,2025-04-22T09:54:17.825+03:00,0.02225348692287972,0
2025-04-22T13:24:24.321+03:00,1745317460.230733,40.95228371877504,29.14028565392042,76.454,-1,-1,-1,-1,30,53.00558272710916,-9999,33162.436849375,-0.702972412109375,0.6840362548828125,-0.1968536376953125,33162.431810375,-0.04245121020850859,-1.280089416006009,-0.7555587170618845,0.007488838862627745,-0.2004858702421188,0.07137862592935562,-0.04220038652420044,-0.01562106609344482,0.002610206604003906,XArbitraryZVertical,-0.3075642485497504,-0.5487140134867402,0.2044208022910172,0.7500194574898222,-0.6973472833633423,0.685695469379425,-0.2086343318223953,0,0,0,-1,-1,33150.93533325,unknown,2,2025-04-22T13:24:12.815+03:00,2025-04-21T17:08:51.449+03:00,7440,1.011932,0,0,6196.233,5,20,2025-04-22T13:19:21.305+03:00,767010263.2313154,0,-20.50999,100.4478,1,0.7,2025-04-22T13:24:20.142+03:00,105,1.75,2025-04-22T09:54:17.825+03:00,0.02225348692287972,0
2025-04-22T13:24:24.331+03:00,1745317460.230733,40.95228371877504,29.14028565392042,76.454,-1,-1,-1,-1,30,53.00558272710916,-9999,33162.446926375,-0.68310546875,0.66876220703125,-0.199432373046875,33162.441887375,-0.04170808052700043,-1.281611613154857,-0.7562021226038997,0.03313947468996048,-0.2374445647001266,0.06669139862060547,-0.01725167036056519,-0.004843592643737793,0.007770255208015442,XArbitraryZVertical,-0.3074426143674197,-0.5493229320300816,0.2051140654806538,0.7494340467779035,-0.6972410082817078,0.6861636638641357,-0.2074467092752457,0,0,0,-1,-1,33150.93533325,unknown,2,2025-04-22T13:24:12.815+03:00,2025-04-21T17:08:51.449+03:00,7440,1.011932,0,0,6196.233,5,20,2025-04-22T13:19:21.305+03:00,767010263.2313154,0,-20.50999,100.4478,1,0.7,2025-04-22T13:24:20.142+03:00,105,1.75,2025-04-22T09:54:17.825+03:00,0.02225348692287972,0
2025-04-22T13:24:24.342+03:00,1745317460.230733,40.95228371877504,29.14028565392042,76.454,-1,-1,-1,-1,30,53.00558272710916,-9999,33162.457003375,-0.6745452880859375,0.656829833984375,-0.196502685546875,33162.451964375,-0.04094907081990028,-1.283513290412605,-0.7567438421925561,0.002556798281148076,-0.2714922726154327,0.05624754354357719,0.00916743278503418,-0.00870126485824585,0.009359836578369141,XArbitraryZVertical,-0.3072390415574326,-0.5500878374665992,0.2058427556388811,0.7487564434109895,-0.6972777843475342,0.6865575909614563,-0.2060150802135468,0,0,0,-1,-1,33150.93533325,unknown,2,2025-04-22T13:24:12.815+03:00,2025-04-21T17:08:51.449+03:00,7440,1.011932,0,0,6196.233,5,20,2025-04-22T13:19:21.305+03:00,767010263.2313154,0,-20.50999,100.4478,1,0.7,2025-04-22T13:24:20.142+03:00,105,1.75,2025-04-22T09:54:17.825+03:00,0.02225348692287972,0
2025-04-22T13:24:24.352+03:00,1745317460.230733,40.95228371877504,29.14028565392042,76.454,-1,-1,-1,-1,30,53.00558272710916,-9999,33162.46708037501,-0.6826171875,0.6808319091796875,-0.175384521484375,33162.462041375,-0.04083479340793392,-1.28606117458958,-0.7573224403295052,-0.03158006817102432,-0.2736219167709351,0.05153151974081993,0.02035611867904663,-0.03010267019271851,0.002923846244812012,XArbitraryZVertical,-0.307158852380043,-0.550990318119295,0.2064396368895304,0.7479610309862197,-0.6974190473556519,0.6869781613349915,-0.2041262239217758,0,0,0,-1,-1,33150.93533325,unknown,2,2025-04-22T13:24:12.815+03:00,2025-04-21T17:08:51.449+03:00,7440,1.011932,0,0,6196.233,5,20,2025-04-22T13:19:21.305+03:00,767010263.2313154,0,-20.50999,100.4478,1,0.7,2025-04-22T13:24:20.142+03:00,105,1.75,2025-04-22T09:54:17.825+03:00,0.02225348692287972,0
2025-04-22T13:24:24.362+03:00,1745317460.230733,40.95228371877504,29.14028565392042,76.454,-1,-1,-1,-1,30,53.00558272710916,-9999,33162.477157375,-0.7055511474609375,0.707305908203125,-0.1865997314453125,33162.472118375,-0.04067838782189494,-1.288448810955935,-0.7578828963302648,0.02334310300648212,-0.2323362827301025,0.06299296766519547,0.02079206705093384,-0.0176619291305542,0.02176541090011597,XArbitraryZVertical,-0.3070758889094449,-0.551840393511368,0.2070226362396488,0.7472068954931427,-0.6975345611572266,0.6873853206634521,-0.2023531496524811,0,0,0,-1,-1,33150.93533325,unknown,2,2025-04-22T13:24:12.815+03:00,2025-04-21T17:08:51.449+03:00,7440,1.011932,0,0,6196.233,5,20,2025-04-22T13:19:21.305+03:00,767010263.2313154,0,-20.50999,100.4478,1,0.7,2025-04-22T13:24:20.142+03:00,105,1.75,2025-04-22T09:54:17.825+03:00,0.02225348692287972,0
2025-04-22T13:24:24.372+03:00,1745317460.230733,40.95228371877504,29.14028565392042,76.454,-1,-1,-1,-1,30,53.00558272710916,-9999,33162.487234375,-0.7186126708984375,0.7213134765625,-0.197723388671875,33162.482195375,-0.03950734342497109,-1.28972700784407,-0.7582990721144836,0.1125701814889908,-0.1855485439300537,0.05804800614714622,0.001442253589630127,0.01046288013458252,0.02190813422203064,XArbitraryZVertical,-0.3067736353110027,-0.5524481373473337,0.2077735623407511,0.7466732267734221,-0.6975175738334656,0.6876875758171082,-0.2013819813728333,0,0,0,-1,-1,33150.93533325,unknown,2,2025-04-22T13:24:12.815+03:00,2025-04-21T17:08:51.449+03:00,7440,1.011932,0,0,6196.233,5,20,2025-04-22T13:19:21.305+03:00,767010263.2313154,0,-20.50999,100.4478,1,0.7,2025-04-22T13:24:20.142+03:00,105,1.75,2025-04-22T09:54:17.825+03:00,0.02225348692287972,0
2025-04-22T13:24:24.382+03:00,1745317460.230733,40.95228371877504,29.14028565392042,76.454,-1,-1,-1,-1,30,53.00558272710916,-9999,33162.497311375,-0.7112274169921875,0.720916748046875,-0.1961669921875,33162.492272375,-0.03743536065332397,-1.290052758533328,-0.75833933478316,0.1680134832859039,-0.1688635647296906,0.03271894901990891,-0.01818722486495972,0.02972090244293213,0.006002545356750488,XArbitraryZVertical,-0.3061820074979586,-0.5528824449709518,0.2086081353463374,0.7463620048559466,-0.6975567936897278,0.6877167820930481,-0.2011471539735794,0,0,0,-1,-1,33150.93533325,unknown,2,2025-04-22T13:24:12.815+03:00,2025-04-21T17:08:51.449+03:00,7440,1.011932,0,0,6196.233,5,20,2025-04-22T13:19:21.305+03:00,767010263.2313154,0,-20.50999,100.4478,1,0.7,2025-04-22T13:24:20.142+03:00,105,1.75,2025-04-22T09:54:17.825+03:00,0.02225348692287972,0
2025-04-22T13:24:24.392+03:00,1745317460.230733,40.95228371877504,29.14028565392042,76.454,-1,-1,-1,-1,30,53.00558272710916,-9999,33162.507388375,-0.6891326904296875,0.71173095703125,-0.197723388671875,33162.502349375,-0.03493162089585145,-1.290124018465993,-0.7581053632856527,0.1913357675075531,-0.1884831488132477,0.02108116820454597,-0.01858294010162354,0.03501772880554199,0.005173385143280029,XArbitraryZVertical,-0.3053957954337736,-0.5533194448248538,0.209487287142081,0.7461139552296888,-0.6977256536483765,0.6875469088554382,-0.2011419981718063,0,0,0,-1,-1,33150.93533325,unknown,2,2025-04-22T13:24:12.815+03:00,2025-04-21T17:08:51.449+03:00,7440,1.011932,0,0,6196.233,5,20,2025-04-22T13:19:21.305+03:00,767010263.2313154,0,-20.50999,100.4478,1,0.7,2025-04-22T13:24:20.142+03:00,105,1.75,2025-04-22T09:54:17.825+03:00,0.02225348692287972,0
2025-04-22T13:24:24.402+03:00,1745317460.230733,40.95228371877504,29.14028565392042,76.454,-1,-1,-1,-1,30,53.00558272710916,-9999,33162.517465375,-0.6638641357421875,0.69879150390625,-0.18511962890625,33162.512426375,-0.03248384529733774,-1.290510713644983,-0.7577147328614939,0.1591775715351105,-0.220752939581871,0.0007545921253040433,-0.0003638863563537598,0.02806878089904785,0.002780616283416748,XArbitraryZVertical,-0.3045334327260529,-0.553882808509827,0.2103491654262351,0.7458058489921814,-0.6980613470077515,0.6872631907463074,-0.2009464502334595,0,0,0,-1,-1,33150.93533325,unknown,2,2025-04-22T13:24:12.815+03:00,2025-04-21T17:08:51.449+03:00,7440,1.011932,0,0,6196.233,5,20,2025-04-22T13:19:21.305+03:00,767010263.2313154,0,-20.50999,100.4478,1,0.7,2025-04-22T13:24:20.142+03:00,105,1.75,2025-04-22T09:54:17.825+03:00,0.02225348692287972,0
2025-04-22T13:24:24.412+03:00,1745317460.230733,40.95228371877504,29.14028565392042,76.454,-1,-1,-1,-1,30,53.00558272710916,-9999,33162.527542375,-0.656280517578125,0.690582275390625,-0.172332763671875,33162.522503375,-0.03073330957939735,-1.291737150866215,-0.7572304891365476,0.1084605976939201,-0.2632202506065369,-0.02030941471457481,0.02693527936935425,0.01639664173126221,0.01030147075653076,XArbitraryZVertical,-0.3037402713557601,-0.5546629071406125,0.2110517867053602,0.7453509000135431,-0.6986271142959595,0.6869113445281982,-0.2001818120479584,0,0,0,-1,-1,33150.93533325,unknown,2,2025-04-22T13:24:12.815+03:00,2025-04-21T17:08:51.449+03:00,7440,1.011932,0,0,6196.233,5,20,2025-04-22T13:19:21.305+03:00,767010263.2313154,0,-20.50999,100.4478,1,0.7,2025-04-22T13:24:20.142+03:00,105,1.75,2025-04-22T09:54:17.825+03:00,0.02225348692287972,0
2025-04-22T13:24:24.422+03:00,1745317460.230733,40.95228371877504,29.14028565392042,76.454,-1,-1,-1,-1,30,53.00558272710916,-9999,33162.53761937501,-0.660308837890625,0.6782379150390625,-0.149169921875,33162.532580375,-0.0297733828559334,-1.293899719182166,-0.7568076704755476,0.0502750501036644,-0.2954788506031036,-0.02509884350001812,0.04218757152557373,0.007060527801513672,0.02173271775245667,XArbitraryZVertical,-0.3030892074169556,-0.5556635329999656,0.2116181493520912,0.7447098662363173,-0.699337899684906,0.6866040229797363,-0.1987499445676804,0,0,0,-1,-1,33150.93533325,unknown,2,2025-04-22T13:24:12.815+03:00,2025-04-21T17:08:51.449+03:00,7440,1.011932,0,0,6196.233,5,20,2025-04-22T13:19:21.305+03:00,767010263.2313154,0,-20.50999,100.4478,1,0.7,2025-04-22T13:24:20.142+03:00,105,1.75,2025-04-22T09:54:17.825+03:00,0.02225348692287972,0
2025-04-22T13:24:24.432+03:00,1745317460.230733,40.95228371877504,29.14028565392042,76.454,-1,-1,-1,-1,30,53.00558272710916,-9999,33162.547695375,-0.6787872314453125,0.66436767578125,-0.1222076416015625,33162.542657375,-0.02984787945300167,-1.297003661834408,-0.7564904267321466,-0.0468374490737915,-0.3030023276805878,-0.03678096830844879,0.04357534646987915,-0.002962768077850342,0.03738117218017578,XArbitraryZVertical,-0.3026642235804257,-0.5568444978820577,0.211970879901153,0.7438997923113843,-0.7001609802246094,0.6863733530044556,-0.1966371387243271,0,0,0,-1,-1,33150.93533325,unknown,2,2025-04-22T13:24:12.815+03:00,2025-04-21T17:08:51.449+03:00,7440,1.011932,0,0,6196.233,5,20,2025-04-22T13:19:21.305+03:00,767010263.2313154,0,-20.50999,100.4478,1,0.7,2025-04-22T13:24:20.142+03:00,105,1.75,2025-04-22T09:54:17.825+03:00,0.02225348692287972,0
2025-04-22T13:24:24.442+03:00,1745317460.230733,40.95228371877504,29.14028565392042,76.454,-1,-1,-1,-1,30,53.00558272710916,-9999,33162.557772375,-0.70660400390625,0.6522216796875,-0.096649169921875,33162.552734375,-0.03131815187455568,-1.300912661594783,-0.7564117371438054,-0.1531266123056412,-0.2723741233348846,-0.03528027608990669,0.03113079071044922,-0.01732504367828369,0.06166520714759827,XArbitraryZVertical,-0.3026307329419877,-0.5580842896667391,0.211993577383618,0.7429773224712315,-0.7009763717651367,0.6863161325454712,-0.1939131319522858,0,0,0,-1,-1,33150.93533325,unknown,2,2025-04-22T13:24:12.815+03:00,2025-04-21T17:08:51.449+03:00,7440,1.011932,0,0,6196.233,5,20,2025-04-22T13:19:21.305+03:00,767010263.2313154,0,-20.50999,100.4478,1,0.7,2025-04-22T13:24:20.142+03:00,105,1.75,2025-04-22T09:54:17.825+03:00,0.02225348692287972,0
2025-04-22T13:24:24.452+03:00,1745317460.230733,40.95228371877504,29.14028565392042,76.454,-1,-1,-1,-1,30,53.00558272710916,-9999,33162.567849375,-0.7276763916015625,0.6505584716796875,-0.078094482421875,33162.562811375,-0.03411486685774939,-1.305342211243372,-0.7566491220393693,-0.2356900572776794,-0.2131937444210052,-0.03371813148260117,0.005015790462493896,-0.03081870079040527,0.08450129628181458,XArbitraryZVertical,-0.3030300568258608,-0.5592772805908862,0.2116935398435829,0.7420022539261404,-0.7016710042953491,0.6864887475967407,-0.1907634139060974,0,0,0,-1,-1,33150.93533325,unknown,2,2025-04-22T13:24:12.815+03:00,2025-04-21T17:08:51.449+03:00,7440,1.011932,0,0,6196.233,5,20,2025-04-22T13:19:21.305+03:00,767010263.2313154,0,-20.50999,100.4478,1,0.7,2025-04-22T13:24:20.142+03:00,105,1.75,2025-04-22T09:54:17.825+03:00,0.02225348692287972,0
2025-04-22T13:24:24.463+03:00,1745317460.230733,40.95228371877504,29.14028565392042,76.454,-1,-1,-1,-1,30,53.00558272710916,-9999,33162.577926375,-0.73138427734375,0.663970947265625,-0.072479248046875,33162.57288837501,-0.03773019653252892,-1.309534682652042,-0.7569234272061163,-0.2782074213027954,-0.1278479546308517,-0.04965368658304214,-0.01968675851821899,-0.03728950023651123,0.1040007025003433,XArbitraryZVertical,-0.303699419871397,-0.5602508093469094,0.2110671149502427,0.7411721986366058,-0.702282726764679,0.6866881847381592,-0.1877713799476624,0,0,0,-1,-1,33150.93533325,unknown,2,2025-04-22T13:24:12.815+03:00,2025-04-21T17:08:51.449+03:00,7440,1.011932,0,0,6196.233,5,20,2025-04-22T13:19:21.305+03:00,767010263.2313154,0,-20.50999,100.4478,1,0.7,2025-04-22T13:24:20.142+03:00,105,1.75,2025-04-22T09:54:17.825+03:00,0.02225348692287972,0
2025-04-22T13:24:24.473+03:00,1745317460.230733,40.95228371877504,29.14028565392042,76.454,-1,-1,-1,-1,30,53.00558272710916,-9999,33162.588003375,-0.7131500244140625,0.694427490234375,-0.08697509765625,33162.582965375,-0.04133388623813879,-1.313075657972203,-0.7569859483821093,-0.2092997282743454,-0.09183509647846222,-0.07164634019136429,-0.02933698892593384,-0.02930879592895508,0.1119540333747864,XArbitraryZVertical,-0.304359463289685,-0.5610071821128402,0.2102883497988788,0.7405504531351501,-0.7029017210006714,0.686733603477478,-0.1852725148200989,0,0,0,-1,-1,33150.93533325,unknown,2,2025-04-22T13:24:12.815+03:00,2025-04-21T17:08:51.449+03:00,7440,1.011932,0,0,6196.233,5,20,2025-04-22T13:19:21.305+03:00,767010263.2313154,0,-20.50999,100.4478,1,0.7,2025-04-22T13:24:20.142+03:00,105,1.75,2025-04-22T09:54:17.825+03:00,0.02225348692287972,0
2025-04-22T13:24:24.483+03:00,1745317460.230733,40.95228371877504,29.14028565392042,76.454,-1,-1,-1,-1,30,53.00558272710916,-9999,33162.598080375,-0.684234619140625,0.724884033203125,-0.1164093017578125,33162.593042375,-0.04327176337877209,-1.315304286871539,-0.7564840478335509,-0.03510502725839615,-0.08869123458862305,-0.1015371233224869,-0.01817065477371216,-0.004560351371765137,0.1062474995851517,XArbitraryZVertical,-0.3044858949560146,-0.5615977454313739,0.2097662431262661,0.7401988277290427,-0.7036462426185608,0.6863687038421631,-0.1837926208972931,0,0,0,-1,-1,33150.93533325,unknown,2,2025-04-22T13:24:12.815+03:00,2025-04-21T17:08:51.449+03:00,7440,1.011932,0,0,6196.233,5,20,2025-04-22T13:19:21.305+03:00,767010263.2313154,0,-20.50999,100.4478,1,0.7,2025-04-22T13:24:20.142+03:00,105,1.75,2025-04-22T09:54:17.825+03:00,0.02225348692287972,0
2025-04-22T13:24:24.493+03:00,1745317460.230733,40.95228371877504,29.14028565392042,76.454,-1,-1,-1,-1,30,53.00558272710916,-9999,33162.60815737501,-0.6683349609375,0.750640869140625,-0.1290435791015625,33162.603119375,-0.04338662658163384,-1.316131795322616,-0.7553113743507198,0.07151941955089569,-0.06006012111902237,-0.1265121102333069,0.01016443967819214,0.02916038036346436,0.07719655334949493,XArbitraryZVertical,-0.3040031608480531,-0.5620281195984512,0.2095127718484164,0.7401424065278687,-0.7045766115188599,0.6855154037475586,-0.1834129393100739,0,0,0,-1,-1,33150.93533325,unknown,2,2025-04-22T13:24:12.815+03:00,2025-04-21T17:08:51.449+03:00,7440,1.011932,0,0,6196.233,5,20,2025-04-22T13:19:21.305+03:00,767010263.2313154,0,-20.50999,100.4478,1,0.7,2025-04-22T13:24:20.142+03:00,105,1.75,2025-04-22T09:54:17.825+03:00,0.02225348692287972,0
2025-04-22T13:24:24.503+03:00,1745317460.230733,40.95228371877504,29.14028565392042,76.454,-1,-1,-1,-1,30,53.00558272710916,-9999,33162.618234375,-0.6678466796875,0.7584075927734375,-0.1378326416015625,33162.613196375,-0.04230685203956617,-1.315923494248889,-0.7537236458438552,0.1575171500444412,-0.04612406715750694,-0.1373778134584427,0.03428035974502563,0.05691325664520264,0.05721648037433624,XArbitraryZVertical,-0.3031414972540915,-0.5623062324063954,0.2094246155299974,0.7403094747930288,-0.7055906653404236,0.6843585968017578,-0.1838338673114777,0,0,0,-1,-1,33150.93533325,unknown,2,2025-04-22T13:24:12.815+03:00,2025-04-21T17:08:51.449+03:00,7440,1.011932,0,0,6196.233,5,20,2025-04-22T13:19:21.305+03:00,767010263.2313154,0,-20.50999,100.4478,1,0.7,2025-04-22T13:24:20.142+03:00,105,1.75,2025-04-22T09:54:17.825+03:00,0.02225348692287972,0
2025-04-22T13:24:24.528+03:00,1745317460.230733,40.95228371877504,29.14028565392042,76.454,-1,-1,-1,-1,30,53.00558272710916,-9999,33162.628311375,-0.6722412109375,0.7298583984375,-0.1460113525390625,33162.623273375,-0.04051376920577091,-1.315275567266483,-0.7520307854577013,0.1774469166994095,-0.06708128750324249,-0.1335282176733017,0.03917193412780762,0.07652020454406738,0.05071818828582764,XArbitraryZVertical,-0.302086277733195,-0.5625407561537851,0.2095041466381558,0.7405401161718765,-0.7065913677215576,0.6831232309341431,-0.1845835596323013,0,0,0,-1,-1,33150.93533325,unknown,2,2025-04-22T13:24:12.815+03:00,2025-04-21T17:08:51.449+03:00,7440,1.011932,0,0,6196.233,5,20,2025-04-22T13:19:21.305+03:00,767010263.2313154,0,-20.50999,100.4478,1,0.7,2025-04-22T13:24:20.142+03:00,105,1.75,2025-04-22T09:54:17.825+03:00,0.02225348692287972,0
2025-04-22T13:24:24.531+03:00,1745317460.230733,40.95228371877504,29.14028565392042,76.454,-1,-1,-1,-1,30,53.00558272710916,-9999,33162.638388375,-0.691253662109375,0.6878204345703125,-0.135101318359375,33162.633350375,-0.03897169546385335,-1.314915404153465,-0.7503821085660448,0.1227562427520752,-0.05049245059490204,-0.1335793435573578,0.03807318210601807,0.06144404411315918,0.04034751653671265,XArbitraryZVertical,-0.3010869667367118,-0.5628367487574366,0.2095474885960421,0.7407099770706498,-0.7076135277748108,0.6819183230400085,-0.1851228624582291,0,0,0,-1,-1,33150.93533325,unknown,2,2025-04-22T13:24:12.815+03:00,2025-04-21T17:08:51.449+03:00,7440,1.011932,0,0,6196.233,5,20,2025-04-22T13:19:21.305+03:00,767010263.2313154,0,-20.50999,100.4478,1,0.7,2025-04-22T13:24:20.142+03:00,105,1.75,2025-04-22T09:54:17.825+03:00,0.02225348692287972,0
2025-04-22T13:24:24.533+03:00,1745317460.230733,40.95228371877504,29.14028565392042,76.454,-1,-1,-1,-1,30,53.00558272710916,-9999,33162.648465375,-0.720916748046875,0.6479034423828125,-0.1142730712890625,33162.64342737501,-0.03893307059042937,-1.315075456759553,-0.7490270323593401,-0.04518116265535355,0.03175495192408562,-0.1232268735766411,0.02608716487884521,0.0235564112663269,0.04467922449111938,XArbitraryZVertical,-0.3005633406078462,-0.5630631393763484,0.2091968143647035,0.7408496606955138,-0.7085365056991577,0.680926501750946,-0.185243159532547,0,0,0,-1,-1,33150.93533325,unknown,2,2025-04-22T13:24:12.815+03:00,2025-04-21T17:08:51.449+03:00,7440,1.011932,0,0,6196.233,5,20,2025-04-22T13:19:21.305+03:00,767010263.2313154,0,-20.50999,100.4478,1,0.7,2025-04-22T13:24:20.142+03:00,105,1.75,2025-04-22T09:54:17.825+03:00,0.02225348692287972,0
2025-04-22T13:24:24.544+03:00,1745317460.230733,40.95228371877504,29.14028565392042,76.454,-1,-1,-1,-1,30,53.00558272710916,-9999,33162.658542375,-0.7377471923828125,0.638214111328125,-0.0947723388671875,33162.653504375,-0.04136120326416509,-1.316238006775103,-0.7481186825170456,-0.2073455601930618,0.09764634817838669,-0.1280288100242615,-0.0004128217697143555,-0.01981490850448608,0.06197065114974976,XArbitraryZVertical,-0.3007933132729346,-0.5632369621281661,0.2082110609797775,0.7409019165159552,-0.7093496918678284,0.6802610158920288,-0.1845750212669373,0,0,0,-1,-1,33150.93533325,unknown,2,2025-04-22T13:24:12.815+03:00,2025-04-21T17:08:51.449+03:00,7440,1.011932,0,0,6196.233,5,20,2025-04-22T13:19:21.305+03:00,767010263.2313154,0,-20.50999,100.4478,1,0.7,2025-04-22T13:24:20.142+03:00,105,1.75,2025-04-22T09:54:17.825+03:00,0.02225348692287972,0
2025-04-22T13:24:24.553+03:00,1745317460.230733,40.95228371877504,29.14028565392042,76.454,-1,-1,-1,-1,30,53.00558272710916,-9999,33162.668619375,-0.7375030517578125,0.6499786376953125,-0.0970306396484375,33162.663581375,-0.04533755639105312,-1.317772566202819,-0.7474273085665173,-0.2688761949539185,0.162482738494873,-0.1361251622438431,-0.02410465478897095,-0.04199779033660889,0.08220933377742767,XArbitraryZVertical,-0.3015011917312678,-0.5632894949206406,0.2067699601385055,0.7409778403078339,-0.7100872993469238,0.6797540783882141,-0.1836039572954178,0,0,0,-1,-1,33150.93533325,unknown,2,2025-04-22T13:24:12.815+03:00,2025-04-21T17:08:51.449+03:00,7440,1.011932,0,0,6196.233,5,20,2025-04-22T13:19:21.305+03:00,767010263.2313154,0,-20.50999,100.4478,1,0.7,2025-04-22T13:24:20.142+03:00,105,1.75,2025-04-22T09:54:17.825+03:00,0.02225348692287972,0
2025-04-22T13:24:24.563+03:00,1745317460.230733,40.95228371877504,29.14028565392042,76.454,-1,-1,-1,-1,30,53.00558272710916,-9999,33162.67869637501,-0.7178192138671875,0.6850128173828125,-0.119537353515625,33162.673658375,-0.04936776505067794,-1.31900021207748,-0.746692463651715,-0.2164720892906189,0.1655134111642838,-0.1473999172449112,-0.02910298109054565,-0.03608757257461548,0.09130376577377319,XArbitraryZVertical,-0.3022413686106996,-0.5632245757351646,0.2052499830861705,0.7411481776762578,-0.7107956409454346,0.6792149543762207,-0.1828564703464508,0,0,0,-1,-1,33150.93533325,unknown,2,2025-04-22T13:24:12.815+03:00,2025-04-21T17:08:51.449+03:00,7440,1.011932,0,0,6196.233,5,20,2025-04-22T13:19:21.305+03:00,767010263.2313154,0,-20.50999,100.4478,1,0.7,2025-04-22T13:24:20.142+03:00,105,1.75,2025-04-22T09:54:17.825+03:00,0.02225348692287972,0
2025-04-22T13:24:24.573+03:00,1745317460.230733,40.95228371877504,29.14028565392042,76.454,-1,-1,-1,-1,30,53.00558272710916,-9999,33162.688773375,-0.699554443359375,0.719940185546875,-0.1409759521484375,33162.683735375,-0.051992808413139,-1.319283256170776,-0.7456865953913304,-0.07644607126712799,0.1538031548261642,-0.1595342457294464,-0.01503843069076538,-0.008600294589996338,0.07126824557781219,XArbitraryZVertical,-0.3025843940562458,-0.5630542300864345,0.204029193196883,0.7414747204625481,-0.7115088701248169,0.6784763336181641,-0.1828252375125885,0,0,0,-1,-1,33150.93533325,unknown,2,2025-04-22T13:24:12.815+03:00,2025-04-21T17:08:51.449+03:00,7440,1.011932,0,0,6196.233,5,20,2025-04-22T13:19:21.305+03:00,767010263.2313154,0,-20.50999,100.4478,1,0.7,2025-04-22T13:24:20.142+03:00,105,1.75,2025-04-22T09:54:17.825+03:00,0.02225348692287972,0
2025-04-22T13:24:24.583+03:00,1745317460.230733,40.95228371877504,29.14028565392042,76.454,-1,-1,-1,-1,30,53.00558272710916,-9999,33162.698850375,-0.6887969970703125,0.7262115478515625,-0.15740966796875,33162.693812375,-0.05285577978040389,-1.318443156322473,-0.744287016731053,0.03952100872993469,0.1438645124435425,-0.1719048917293549,0.006524205207824707,0.0319640040397644,0.05171704292297363,XArbitraryZVertical,-0.3024019393004598,-0.5627816358550571,0.203177646484623,0.7419896799028391,-0.7122737169265747,0.6774475574493408,-0.1836597919464111,0,0,0,-1,-1,33150.93533325,unknown,2,2025-04-22T13:24:12.815+03:00,2025-04-21T17:08:51.449+03:00,7440,1.011932,0,0,6196.233,5,20,2025-04-22T13:19:21.305+03:00,767010263.2313154,0,-20.50999,100.4478,1,0.7,2025-04-22T13:24:20.142+03:00,105,1.75,2025-04-22T09:54:17.825+03:00,0.02225348692287972,0
2025-04-22T13:24:24.594+03:00,1745317460.230733,40.95228371877504,29.14028565392042,76.454,-1,-1,-1,-1,30,53.00558272710916,-9999,33162.708927375,-0.6848602294921875,0.7059173583984375,-0.1418609619140625,33162.703889375,-0.05262204977007246,-1.316943063403243,-0.7426568777127187,0.07868053019046783,0.1312151700258255,-0.1663831621408463,0.02046895027160645,0.05065053701400757,0.03099818527698517,XArbitraryZVertical,-0.3018928895111671,-0.5624572119417226,0.2025668769877608,0.742609653839515,-0.7130653262138367,0.6762475371360779,-0.1850051432847977,0,0,0,-1,-1,33150.93533325,unknown,2,2025-04-22T13:24:12.815+03:00,2025-04-21T17:08:51.449+03:00,7440,1.011932,0,0,6196.233,5,20,2025-04-22T13:19:21.305+03:00,767010263.2313154,0,-20.50999,100.4478,1,0.7,2025-04-22T13:24:20.142+03:00,105,1.75,2025-04-22T09:54:17.825+03:00,0.02225348692287972,0
2025-04-22T13:24:24.604+03:00,1745317460.230733,40.95228371877504,29.14028565392042,76.454,-1,-1,-1,-1,30,53.00558272710916,-9999,33162.719004375,-0.6882171630859375,0.661102294921875,-0.121856689453125,33162.713966375,-0.05244431814581098,-1.315704363579226,-0.7410907399206585,0.02826742082834244,0.09637781977653503,-0.1595561504364014,0.02858740091323853,0.04188686609268188,0.03617669641971588,XArbitraryZVertical,-0.3013955952106219,-0.5622126448940334,0.2019939420846715,0.7431526833095353,-0.713859498500824,0.6750929951667786,-0.1861552745103836,0,0,0,-1,-1,33150.93533325,unknown,2,2025-04-22T13:24:12.815+03:00,2025-04-21T17:08:51.449+03:00,7440,1.011932,0,0,6196.233,5,20,2025-04-22T13:19:21.305+03:00,767010263.2313154,0,-20.50999,100.4478,1,0.7,2025-04-22T13:24:20.142+03:00,105,1.75,2025-04-22T09:54:17.825+03:00,0.02225348692287972,0
2025-04-22T13:24:24.614+03:00,1745317460.230733,40.95228371877504,29.14028565392042,76.454,-1,-1,-1,-1,30,53.00558272710916,-9999,33162.729081375,-0.7028350830078125,0.614501953125,-0.106964111328125,33162.724043375,-0.05341267150406791,-1.315556616253408,-0.7397503748381351,-0.08831784874200821,0.08106457442045212,-0.1520794928073883,0.02911430597305298,0.005278646945953369,0.05695720016956329,XArbitraryZVertical,-0.3011923845008166,-0.5621731400292056,0.2012248852180004,0.7434734777249048,-0.7147068381309509,0.6741035580635071,-0.1864890158176422,0,0,0,-1,-1,33150.93533325,unknown,2,2025-04-22T13:24:12.815+03:00,2025-04-21T17:08:51.449+03:00,7440,1.011932,0,0,6196.233,5,20,2025-04-22T13:19:21.305+03:00,767010263.2313154,0,-20.50999,100.4478,1,0.7,2025-04-22T13:24:20.142+03:00,105,1.75,2025-04-22T09:54:17.825+03:00,0.02225348692287972,0
2025-04-22T13:24:24.624+03:00,1745317460.230733,40.95228371877504,29.14028565392042,76.454,-1,-1,-1,-1,30,53.00558272710916,-9999,33162.739158375,-0.7252044677734375,0.5886077880859375,-0.11322021484375,33162.734120375,-0.05613858407470832,-1.3165507873721,-0.7386595179006781,-0.2207832038402557,0.1079441234469414,-0.1559101790189743,0.0195125937461853,-0.04237717390060425,0.07565751671791077,XArbitraryZVertical,-0.301459980367553,-0.5622635227456685,0.2000460659896696,0.7436147745602535,-0.7156031727790833,0.6732974052429199,-0.1859632283449173,0,0,0,-1,-1,33150.93533325,unknown,2,2025-04-22T13:24:12.815+03:00,2025-04-21T17:08:51.449+03:00,7440,1.011932,0,0,6196.233,5,20,2025-04-22T13:19:21.305+03:00,767010263.2313154,0,-20.50999,100.4478,1,0.7,2025-04-22T13:24:20.142+03:00,105,1.75,2025-04-22T09:54:17.825+03:00,0.02225348692287972,0
2025-04-22T13:24:24.634+03:00,1745317460.230733,40.95228371877504,29.14028565392042,76.454,-1,-1,-1,-1,30,53.00558272710916,-9999,33162.749235375,-0.7360687255859375,0.591644287109375,-0.1204986572265625,33162.744197375,-0.06054781132033217,-1.318418550083715,-0.7376976779452495,-0.3465601801872253,0.1248430833220482,-0.1847710609436035,8.285045623779297e-06,-0.07770687341690063,0.0759928822517395,XArbitraryZVertical,-0.3021622080350977,-0.5624090984417502,0.1984099697694373,0.7436581696791176,-0.7165762782096863,0.6725859045982361,-0.1847880184650421,0,0,0,-1,-1,33150.93533325,unknown,2,2025-04-22T13:24:12.815+03:00,2025-04-21T17:08:51.449+03:00,7440,1.011932,0,0,6196.233,5,20,2025-04-22T13:19:21.305+03:00,767010263.2313154,0,-20.50999,100.4478,1,0.7,2025-04-22T13:24:20.142+03:00,105,1.75,2025-04-22T09:54:17.825+03:00,0.02225348692287972,0
2025-04-22T13:24:24.644+03:00,1745317460.230733,40.95228371877504,29.14028565392042,76.454,-1,-1,-1,-1,30,53.00558272710916,-9999,33162.759312375,-0.7249603271484375,0.6334991455078125,-0.0946044921875,33162.754274375,-0.06673747674455745,-1.321450184436896,-0.7366199546460706,-0.4557678997516632,0.1095131263136864,-0.2374624907970428,-0.01663142442703247,-0.08531659841537476,0.0622948557138443,XArbitraryZVertical,-0.3032110313355154,-0.5627311263915821,0.196254577780763,0.7435595040501124,-0.7178350687026978,0.6717880368232727,-0.1827934980392456,0,0,0,-1,-1,33150.93533325,unknown,2,2025-04-22T13:24:12.815+03:00,2025-04-21T17:08:51.449+03:00,7440,1.011932,0,0,6196.233,5,20,2025-04-22T13:19:21.305+03:00,767010263.2313154,0,-20.50999,100.4478,1,0.7,2025-04-22T13:24:20.142+03:00,105,1.75,2025-04-22T09:54:17.825+03:00,0.02225348692287972,0
2025-04-22T13:24:24.654+03:00,1745317460.230733,40.95228371877504,29.14028565392042,76.454,-1,-1,-1,-1,30,53.00558272710916,-9999,33162.769389375,-0.6994171142578125,0.680755615234375,-0.063201904296875,33162.764351375,-0.07373770448640586,-1.325281330846362,-0.7351823637538502,-0.4558959305286407,0.07559517025947571,-0.2868301272392273,-0.01159751415252686,-0.05689185857772827,0.07325147092342377,XArbitraryZVertical,-0.3042847428611343,-0.5632694574196407,0.1938151782316557,0.7433532202588008,-0.7194663286209106,0.6707224249839783,-0.18027663230896,0,0,0,-1,-1,33150.93533325,unknown,2,2025-04-22T13:24:12.815+03:00,2025-04-21T17:08:51.449+03:00,7440,1.011932,0,0,6196.233,5,20,2025-04-22T13:19:21.305+03:00,767010263.2313154,0,-20.50999,100.4478,1,0.7,2025-04-22T13:24:20.142+03:00,105,1.75,2025-04-22T09:54:17.825+03:00,0.02225348692287972,0
2025-04-22T13:24:24.664+03:00,1745317460.230733,40.95228371877504,29.14028565392042,76.454,-1,-1,-1,-1,30,53.00558272710916,-9999,33162.779466375,-0.6833953857421875,0.7014617919921875,0.0020751953125,33162.774428375,-0.08083175892273191,-1.329331392701713,-0.7332174093836957,-0.4706133604049683,0.06957270205020905,-0.3450961112976074,0.01236224174499512,-0.003889083862304688,0.1020687371492386,XArbitraryZVertical,-0.3051805804277383,-0.5639386522075004,0.1912208199703823,0.7431503124280657,-0.7214686274528503,0.6692637205123901,-0.1776760220527649,0,0,0,-1,-1,33150.93533325,unknown,2,2025-04-22T13:24:12.815+03:00,2025-04-21T17:08:51.449+03:00,7440,1.011932,0,0,6196.233,5,20,2025-04-22T13:19:21.305+03:00,767010263.2313154,0,-20.50999,100.4478,1,0.7,2025-04-22T13:24:20.142+03:00,105,1.75,2025-04-22T09:54:17.825+03:00,0.02225348692287972,0
2025-04-22T13:24:24.674+03:00,1745317460.230733,40.95228371877504,29.14028565392042,76.454,-1,-1,-1,-1,30,53.00558272710916,-9999,33162.789543375,-0.6854705810546875,0.6903839111328125,0.1183929443359375,33162.784505375,-0.08845045499847404,-1.333570516024111,-0.7308038502701686,-0.5133527517318726,0.112941287457943,-0.3781653642654419,0.03602409362792969,0.02938514947891235,0.1447675824165344,XArbitraryZVertical,-0.3060537781911178,-0.5646534292922526,0.1883282052252506,0.7429872243183608,-0.7237834334373474,0.6674684286117554,-0.1749951839447021,0,0,0,-1,-1,33150.93533325,unknown,2,2025-04-22T13:24:12.815+03:00,2025-04-21T17:08:51.449+03:00,7440,1.011932,0,0,6196.233,5,20,2025-04-22T13:19:21.305+03:00,767010263.2313154,0,-20.50999,100.4478,1,0.7,2025-04-22T13:24:20.142+03:00,105,1.75,2025-04-22T09:54:17.825+03:00,0.02225348692287972,0
2025-04-22T13:24:24.684+03:00,1745317460.230733,40.95228371877504,29.14028565392042,76.454,-1,-1,-1,-1,30,53.00558272710916,-9999,33162.799620375,-0.6994781494140625,0.65655517578125,0.209442138671875,33162.79458237501,-0.09703373345295924,-1.337630669751608,-0.7283117273201122,-0.6010799407958984,0.216726541519165,-0.4002133905887604,0.04315125942230225,0.03257036209106445,0.2463066726922989,XArbitraryZVertical,-0.3071989273507459,-0.5651631491828651,0.1850258560799317,0.7429567553679924,-0.7261040806770325,0.6656106114387512,-0.1724388748407364,0,0,0,-1,-1,33150.93533325,unknown,2,2025-04-22T13:24:12.815+03:00,2025-04-21T17:08:51.449+03:00,7440,1.011932,0,0,6196.233,5,20,2025-04-22T13:19:21.305+03:00,767010263.2313154,0,-20.50999,100.4478,1,0.7,2025-04-22T13:24:20.142+03:00,105,1.75,2025-04-22T09:54:17.825+03:00,0.02225348692287972,0
2025-04-22T13:24:24.694+03:00,1745317460.230733,40.95228371877504,29.14028565392042,76.454,-1,-1,-1,-1,30,53.00558272710916,-9999,33162.809697375,-0.7160186767578125,0.6343231201171875,0.26812744140625,33162.804658375,-0.105910990154363,-1.340812238903382,-0.7256836189022312,-0.5389047861099243,0.3186400532722473,-0.4073286056518555,0.03509724140167236,0.005115151405334473,0.3498626351356506,XArbitraryZVertical,-0.3084692997900622,-0.5653173169889275,0.181437375457411,0.7431981006625106,-0.7283498048782349,0.6636469960212708,-0.1705260425806046,0,0,0,-1,-1,33150.93533325,unknown,2,2025-04-22T13:24:12.815+03:00,2025-04-21T17:08:51.449+03:00,7440,1.011932,0,0,6196.233,5,20,2025-04-22T13:19:21.305+03:00,767010263.2313154,0,-20.50999,100.4478,1,0.7,2025-04-22T13:24:20.142+03:00,105,1.75,2025-04-22T09:54:17.825+03:00,0.02225348692287972,0
2025-04-22T13:24:24.704+03:00,1745317460.230733,40.95228371877504,29.14028565392042,76.454,-1,-1,-1,-1,30,53.00558272710916,-9999,33162.819774375,-0.7220458984375,0.6314849853515625,0.2668609619140625,33162.814736375,-0.1129190342595111,-1.341731206512348,-0.7226253750480129,-0.3250902593135834,0.4182076454162598,-0.4229954481124878,0.01955723762512207,-0.02063965797424316,0.422056257724762,XArbitraryZVertical,-0.30926677874688,-0.5649740635903054,0.1780631795740447,0.743943489270231,-0.7304794788360596,0.6613561511039734,-0.1703167408704758,0,0,0,-1,-1,33150.93533325,unknown,2,2025-04-22T13:24:12.815+03:00,2025-04-21T17:08:51.449+03:00,7440,1.011932,0,0,6196.233,5,20,2025-04-22T13:19:21.305+03:00,767010263.2313154,0,-20.50999,100.4478,1,0.7,2025-04-22T13:24:20.142+03:00,105,1.75,2025-04-22T09:54:17.825+03:00,0.02225348692287972,0
2025-04-22T13:24:24.714+03:00,1745317460.230733,40.95228371877504,29.14028565392042,76.454,-1,-1,-1,-1,30,53.00558272710916,-9999,33162.82985137501,-0.7298126220703125,0.6490631103515625,0.2512969970703125,33162.824812375,-0.1169656289400077,-1.339692536467808,-0.7189150656490441,-0.0931839793920517,0.5267331600189209,-0.4319213926792145,0.0125129222869873,-0.02868592739105225,0.4459564685821533,XArbitraryZVertical,-0.3092542929512209,-0.5640732130199226,0.1751352430591423,0.7453258308326292,-0.7325140237808228,0.6585686206817627,-0.1723663806915283,0,0,0,-1,-1,33150.93533325,unknown,2,2025-04-22T13:24:12.815+03:00,2025-04-21T17:08:51.449+03:00,7440,1.011932,0,0,6196.233,5,20,2025-04-22T13:19:21.305+03:00,767010263.2313154,0,-20.50999,100.4478,1,0.7,2025-04-22T13:24:20.142+03:00,105,1.75,2025-04-22T09:54:17.825+03:00,0.02225348692287972,0
2025-04-22T13:24:24.725+03:00,1745317460.230733,40.95228371877504,29.14028565392042,76.454,-1,-1,-1,-1,30,53.00558272710916,-9999,33162.839928375,-0.7329864501953125,0.639862060546875,0.241119384765625,33162.834889375,-0.1186453306918624,-1.334739157935453,-0.7147619766423944,0.0002916464291047305,0.6696231961250305,-0.4313107430934906,0.007711291313171387,-0.01321065425872803,0.4312542676925659,XArbitraryZVertical,-0.3086612087639741,-0.5625058611928491,0.1725062157876973,0.7473665952391465,-0.7343042492866516,0.6554376482963562,-0.176630824804306,0,0,0,-1,-1,33150.93533325,unknown,2,2025-04-22T13:24:12.815+03:00,2025-04-21T17:08:51.449+03:00,7440,1.011932,0,0,6196.233,5,20,2025-04-22T13:19:21.305+03:00,767010263.2313154,0,-20.50999,100.4478,1,0.7,2025-04-22T13:24:20.142+03:00,105,1.75,2025-04-22T09:54:17.825+03:00,0.02225348692287972,0
2025-04-22T13:24:24.735+03:00,1745317460.230733,40.95228371877504,29.14028565392042,76.454,-1,-1,-1,-1,30,53.00558272710916,-9999,33162.850005375,-0.725494384765625,0.59783935546875,0.241668701171875,33162.844966375,-0.1215994664060028,-1.329334109543074,-0.710737382437805,-0.2832221388816833,0.7881672978401184,-0.4520266950130463,0.002755343914031982,-0.003207743167877197,0.4266183972358704,XArbitraryZVertical,-0.3084984619358904,-0.5605492319232001,0.1693704315433084,0.7496177824703633,-0.7358943223953247,0.6523928046226501,-0.181226521730423,0,0,0,-1,-1,33150.93533325,unknown,2,2025-04-22T13:24:12.815+03:00,2025-04-21T17:08:51.449+03:00,7440,1.011932,0,0,6196.233,5,20,2025-04-22T13:19:21.305+03:00,767010263.2313154,0,-20.50999,100.4478,1,0.7,2025-04-22T13:24:20.142+03:00,105,1.75,2025-04-22T09:54:17.825+03:00,0.02225348692287972,0
2025-04-22T13:24:24.745+03:00,1745317460.230733,40.95228371877504,29.14028565392042,76.454,-1,-1,-1,-1,30,53.00558272710916,-9999,33162.860082375,-0.7154541015625,0.531707763671875,0.2335357666015625,33162.855043375,-0.1296200538717266,-1.326085316645665,-0.7074739197370057,-0.7375771403312683,0.9100825786590576,-0.4580568969249725,0.008741080760955811,-0.03442227840423584,0.4224582314491272,XArbitraryZVertical,-0.309832853935028,-0.5585141012361007,0.1648890259988718,0.7515831716306537,-0.7373635172843933,0.6499159932136536,-0.1841312050819397,0,0,0,-1,-1,33150.93533325,unknown,2,2025-04-22T13:24:12.815+03:00,2025-04-21T17:08:51.449+03:00,7440,1.011932,0,0,6196.233,5,20,2025-04-22T13:19:21.305+03:00,767010263.2313154,0,-20.50999,100.4478,1,0.7,2025-04-22T13:24:20.142+03:00,105,1.75,2025-04-22T09:54:17.825+03:00,0.02225348692287972,0
2025-04-22T13:24:24.755+03:00,1745317460.230733,40.95228371877504,29.14028565392042,76.454,-1,-1,-1,-1,30,53.00558272710916,-9999,33162.870159375,-0.6979217529296875,0.44036865234375,0.2256011962890625,33162.86512037501,-0.1433434552515888,-1.325353533752754,-0.7055432882478802,-1.147916197776794,0.962053656578064,-0.4249792397022247,0.01919078826904297,-0.08780914545059204,0.426277756690979,XArbitraryZVertical,-0.3130188452961756,-0.5563556114978376,0.1590386448103389,0.7531230636715445,-0.7384443283081055,0.6484475135803223,-0.184975266456604,0,0,0,-1,-1,33150.93533325,unknown,2,2025-04-22T13:24:12.815+03:00,2025-04-21T17:08:51.449+03:00,7440,1.011932,0,0,6196.233,5,20,2025-04-22T13:19:21.305+03:00,767010263.2313154,0,-20.50999,100.4478,1,0.7,2025-04-22T13:24:20.142+03:00,105,1.75,2025-04-22T09:54:17.825+03:00,0.02225348692287972,0
2025-04-22T13:24:24.765+03:00,1745317460.230733,40.95228371877504,29.14028565392042,76.454,-1,-1,-1,-1,30,53.00558272710916,-9999,33162.880236375,-0.7219085693359375,0.387237548828125,0.11749267578125,33162.875197375,-0.1503395144337034,-1.320304225182235,-0.7011721926997341,1.023801565170288,0.6464946269989014,-0.7253409624099731,0.03485643863677979,-0.1705198287963867,0.4123485088348389,XArbitraryZVertical,-0.3137755016837279,-0.5539348296936235,0.1543082782630954,0.7555725744161478,-0.7402396202087402,0.6451137661933899,-0.1894022822380066,0,0,0,-1,-1,33150.93533325,unknown,2,2025-04-22T13:24:12.815+03:00,2025-04-21T17:08:51.449+03:00,7440,1.011932,0,0,6196.233,5,20,2025-04-22T13:19:21.305+03:00,767010263.2313154,0,-20.50999,100.4478,1,0.7,2025-04-22T13:24:20.142+03:00,105,1.75,2025-04-22T09:54:17.825+03:00,0.02225348692287972,0
2025-04-22T13:24:24.775+03:00,1745317460.230733,40.95228371877504,29.14028565392042,76.454,-1,-1,-1,-1,30,53.00558272710916,-9999,33162.890313375,-0.8672943115234375,0.521270751953125,-0.590240478515625,33162.885274375,-0.1233568435654839,-1.297950420628103,-0.6898408036543002,2.730431795120239,0.53021639585495,-0.2108267694711685,0.04486125707626343,-0.2404641509056091,0.4156515598297119,XArbitraryZVertical,-0.3039294561610396,-0.5510881941440878,0.1577462874153089,0.7609498715959785,-0.7428134679794312,0.6364144086837769,-0.2078573703765869,0,0,0,-1,-1,33150.93533325,unknown,2,2025-04-22T13:24:12.815+03:00,2025-04-21T17:08:51.449+03:00,7440,1.011932,0,0,6196.233,5,20,2025-04-22T13:19:21.305+03:00,767010263.2313154,0,-20.50999,100.4478,1,0.7,2025-04-22T13:24:20.142+03:00,105,1.75,2025-04-22T09:54:17.825+03:00,0.02225348692287972,0
2025-04-22T13:24:24.785+03:00,1745317460.230733,40.95228371877504,29.14028565392042,76.454,-1,-1,-1,-1,30,53.00558272710916,-9999,33162.90039037501,-0.79107666015625,0.9673919677734375,-0.85028076171875,33162.895351375,-0.09488737364149165,-1.270136399996362,-0.6845762847809335,1.813876509666443,1.441335797309875,0.3230507671833038,-0.07573831081390381,-0.1992700099945068,-0.05133770406246185,XArbitraryZVertical,-0.2964018345672685,-0.5453750610835353,0.1629260105414155,0.7669204483133056,-0.7399354577064514,0.6323448419570923,-0.2294239848852158,0,0,0,-1,-1,33150.93533325,unknown,2,2025-04-22T13:24:12.815+03:00,2025-04-21T17:08:51.449+03:00,7440,1.011932,0,0,6196.233,5,20,2025-04-22T13:19:21.305+03:00,767010263.2313154,0,-20.50999,100.4478,1,0.7,2025-04-22T13:24:20.142+03:00,105,1.75,2025-04-22T09:54:17.825+03:00,0.02225348692287972,0
2025-04-22T13:24:24.795+03:00,1745317460.230733,40.95228371877504,29.14028565392042,76.454,-1,-1,-1,-1,30,53.00558272710916,-9999,33162.910467375,-0.653106689453125,1.151229858398438,-1.096511840820312,33162.905428375,-0.07277649627257075,-1.243279068186426,-0.6819108113360823,1.741014122962952,1.209661602973938,0.1870916485786438,-0.1184604167938232,0.1567553281784058,-0.612551748752594,XArbitraryZVertical,-0.2916191607205543,-0.5385924438521523,0.1667360958888955,0.7727065432118025,-0.7351009249687195,0.630277693271637,-0.2497528940439224,0,0,0,-1,-1,33150.93533325,unknown,2,2025-04-22T13:24:12.815+03:00,2025-04-21T17:08:51.449+03:00,7440,1.011932,0,0,6196.233,5,20,2025-04-22T13:19:21.305+03:00,767010263.2313154,0,-20.50999,100.4478,1,0.7,2025-04-22T13:24:20.142+03:00,105,1.75,2025-04-22T09:54:17.825+03:00,0.02225348692287972,0
2025-04-22T13:24:24.805+03:00,1745317460.230733,40.95228371877504,29.14028565392042,76.454,-1,-1,-1,-1,30,53.00558272710916,-9999,33162.920544375,-0.4466552734375,1.013137817382812,-1.479537963867188,33162.915505375,-0.04910798395623933,-1.221482099042074,-0.6739584109645393,2.193551301956177,-0.2968915104866028,-0.4853562712669373,0.0422443151473999,0.5219274759292603,-0.6394990682601929,XArbitraryZVertical,-0.28407226811749,-0.5344078916874131,0.170573261300671,0.7775704596655835,-0.7341693043708801,0.6240838170051575,-0.2674223184585571,0,0,0,-1,-1,33150.93533325,unknown,2,2025-04-22T13:24:12.815+03:00,2025-04-21T17:08:51.449+03:00,7440,1.011932,0,0,6196.233,5,20,2025-04-22T13:19:21.305+03:00,767010263.2313154,0,-20.50999,100.4478,1,0.7,2025-04-22T13:24:20.142+03:00,105,1.75,2025-04-22T09:54:17.825+03:00,0.02225348692287972,0
