loggingTime(txt),locationTimestamp_since1970(s),locationLatitude(WGS84),locationLongitude(WGS84),locationAltitude(m),locationSpeed(m/s),locationSpeedAccuracy(m/s),locationCourse(°),locationCourseAccuracy(°),locationVerticalAccuracy(m),locationHorizontalAccuracy(m),locationFloor(Z),accelerometerTimestamp_sinceReboot(s),accelerometerAccelerationX(G),accelerometerAccelerationY(G),accelerometerAccelerationZ(G),motionTimestamp_sinceReboot(s),motionYaw(rad),motionRoll(rad),motionPitch(rad),motionRotationRateX(rad/s),motionRotationRateY(rad/s),motionRotationRateZ(rad/s),motionUserAccelerationX(G),motionUserAccelerationY(G),motionUserAccelerationZ(G),motionAttitudeReferenceFrame(txt),motionQuaternionX(R),motionQuaternionY(R),motionQuaternionZ(R),motionQuaternionW(R),motionGravityX(G),motionGravityY(G),motionGravityZ(G),motionMagneticFieldX(µT),motionMagneticFieldY(µT),motionMagneticFieldZ(µT),motionHeading(°),motionMagneticFieldCalibrationAccuracy(Z),activityTimestamp_sinceReboot(s),activity(txt),activityActivityConfidence(Z),activityActivityStartDate(txt),pedometerStartDate(txt),pedometerNumberofSteps(N),pedometerAverageActivePace(s/m),pedometerCurrentPace(s/m),pedometerCurrentCadence(steps/s),pedometerDistance(m),pedometerFloorAscended(N),pedometerFloorDescended(N),pedometerEndDate(txt),altimeterTimestamp_sinceReboot(s),altimeterReset(bool),altimeterRelativeAltitude(m),altimeterPressure(kPa),batteryState(N),batteryLevel(R),heartRateBPMTimestamp(txt),heartRateBPM(N),heartRateBPS(R),heartRateVariabilityTimestamp(txt),heartRateVariability(ms),label
2025-04-22T13:11:07.534+03:00,1745316666.526832,40.95226099598197,29.1402868059831,76.34336,-1,-1,-1,-1,30,26.71322490203158,-9999,32422.26158991667,-0.6959228515625,0.6440582275390625,-0.370635986328125,32422.25655191667,-0.1301279275359662,-1.054895345236496,-0.6972027208385186,0.03101014345884323,-0.0296504870057106,0.01870889216661453,0.04201436042785645,-0.01648068428039551,0.01995265483856201,XArbitraryZVertical,-0.3252931478162091,-0.4528632550176028,0.1187628609578656,0.8215805105340918,-0.6668617725372314,0.6420757174491882,-0.3781984746456146,0,0,0,-1,-1,32415.617399125,unknown,2,2025-04-22T13:11:00.860+03:00,2025-04-21T17:08:51.449+03:00,7412,1.006994,0,0,6173.501,5,20,2025-04-22T13:10:22.167+03:00,767009460.9675541,0,-21.89,100.4651,1,0.7,2025-04-22T13:09:01.195+03:00,86,1.433333333333333,2025-04-22T09:54:17.825+03:00,0.02225348692287972,0
2025-04-22T13:11:07.537+03:00,1745316666.526832,40.95226099598197,29.1402868059831,76.34336,-1,-1,-1,-1,30,26.71322490203158,-9999,32422.27166591667,-0.6467742919921875,0.64141845703125,-0.369110107421875,32422.26662791667,-0.1297368934509454,-1.054914252496824,-0.6972662478757591,0.02629887871444225,-0.01370041444897652,0.01941043511033058,-0.01593631505966187,-0.007572531700134277,0.01334342360496521,XArbitraryZVertical,-0.3252288655821567,-0.4529274942556933,0.1189421746956064,0.8215445919782364,-0.6668334007263184,0.6421244144439697,-0.3781657516956329,0,0,0,-1,-1,32415.617399125,unknown,2,2025-04-22T13:11:00.860+03:00,2025-04-21T17:08:51.449+03:00,7412,1.006994,0,0,6173.501,5,20,2025-04-22T13:10:22.167+03:00,767009460.9675541,0,-21.89,100.4651,1,0.7,2025-04-22T13:09:01.195+03:00,86,1.433333333333333,2025-04-22T09:54:17.825+03:00,0.02225348692287972,0
2025-04-22T13:11:07.539+03:00,1745316666.526832,40.95226099598197,29.1402868059831,76.34336,-1,-1,-1,-1,30,26.71322490203158,-9999,32422.28174291667,-0.6654052734375,0.638092041015625,-0.3751678466796875,32422.27670491667,-0.1293509637653164,-1.054897564667756,-0.6971804510613004,0.02659955061972141,-0.01997455582022667,0.02268212847411633,0.002385258674621582,0.003769516944885254,0.007629126310348511,XArbitraryZVertical,-0.3251081812454543,-0.452993014076523,0.1190769489588802,0.8215366425447601,-0.6668749451637268,0.6420586109161377,-0.3782039880752563,0,0,0,-1,-1,32415.617399125,unknown,2,2025-04-22T13:11:00.860+03:00,2025-04-21T17:08:51.449+03:00,7412,1.006994,0,0,6173.501,5,20,2025-04-22T13:10:22.167+03:00,767009460.9675541,0,-21.89,100.4651,1,0.7,2025-04-22T13:09:01.195+03:00,86,1.433333333333333,2025-04-22T09:54:17.825+03:00,0.02225348692287972,0
2025-04-22T13:11:07.541+03:00,1745316666.526832,40.95226099598197,29.1402868059831,76.34336,-1,-1,-1,-1,30,26.71322490203158,-9999,32422.29181891667,-0.6593780517578125,0.644317626953125,-0.3773040771484375,32422.28678091667,-0.128822997628624,-1.054678795053572,-0.6973280536532791,0.03100348636507988,-0.01419349946081638,0.02007456123828888,0.01149743795394897,-0.004232466220855713,0.005378395318984985,XArbitraryZVertical,-0.3250606276629981,-0.452972435767744,0.1192944939248727,0.8215352650027146,-0.6667097806930542,0.6421718001365662,-0.3783031105995178,0,0,0,-1,-1,32415.617399125,unknown,2,2025-04-22T13:11:00.860+03:00,2025-04-21T17:08:51.449+03:00,7412,1.006994,0,0,6173.501,5,20,2025-04-22T13:10:22.167+03:00,767009460.9675541,0,-21.89,100.4651,1,0.7,2025-04-22T13:09:01.195+03:00,86,1.433333333333333,2025-04-22T09:54:17.825+03:00,0.02225348692287972,0
2025-04-22T13:11:07.549+03:00,1745316666.526832,40.95226099598197,29.1402868059831,76.34336,-1,-1,-1,-1,30,26.71322490203158,-9999,32422.30189591667,-0.6628265380859375,0.6478271484375,-0.3756256103515625,32422.29685791667,-0.1282395830450567,-1.054383095184029,-0.6975202026009312,0.03598226606845856,-0.01526941731572151,0.02071984484791756,0.003328382968902588,-1.573562622070312e-05,0.0009522140026092529,XArbitraryZVertical,-0.3250229604985638,-0.4529242922919379,0.1195332433327683,0.8215420145063136,-0.6664905548095703,0.6423190832138062,-0.3784393072128296,0,0,0,-1,-1,32415.617399125,unknown,2,2025-04-22T13:11:00.860+03:00,2025-04-21T17:08:51.449+03:00,7412,1.006994,0,0,6173.501,5,20,2025-04-22T13:10:22.167+03:00,767009460.9675541,0,-21.89,100.4651,1,0.7,2025-04-22T13:09:01.195+03:00,86,1.433333333333333,2025-04-22T09:54:17.825+03:00,0.02225348692287972,0
2025-04-22T13:11:07.559+03:00,1745316666.526832,40.95226099598197,29.1402868059831,76.34336,-1,-1,-1,-1,30,26.71322490203158,-9999,32422.31197191667,-0.6613006591796875,0.6438751220703125,-0.373291015625,32422.30693391667,-0.1276409904593637,-1.054090091851532,-0.697583633397031,0.03726790472865105,-0.01301704719662666,0.0239829495549202,0.005440354347229004,0.005093097686767578,0.001798719167709351,XArbitraryZVertical,-0.3249302958832154,-0.4528941124315113,0.1197470892773134,0.821564151629756,-0.6663442254066467,0.6423676609992981,-0.3786144554615021,0,0,0,-1,-1,32415.617399125,unknown,2,2025-04-22T13:11:00.860+03:00,2025-04-21T17:08:51.449+03:00,7412,1.006994,0,0,6173.501,5,20,2025-04-22T13:10:22.167+03:00,767009460.9675541,0,-21.89,100.4651,1,0.7,2025-04-22T13:09:01.195+03:00,86,1.433333333333333,2025-04-22T09:54:17.825+03:00,0.02225348692287972,0
2025-04-22T13:11:07.570+03:00,1745316666.526832,40.95226099598197,29.1402868059831,76.34336,-1,-1,-1,-1,30,26.71322490203158,-9999,32422.32204891667,-0.661590576171875,0.6422576904296875,-0.372406005859375,32422.31701091667,-0.1270816359508362,-1.053846796392909,-0.6976604124734772,0.03269472718238831,-0.01134218648076057,0.02236134931445122,0.00431358814239502,0.003355920314788818,0.004606723785400391,XArbitraryZVertical,-0.3248488778903597,-0.4528764347353491,0.1199561052575837,0.8215757545958534,-0.6662093997001648,0.6424264907836914,-0.3787522912025452,0,0,0,-1,-1,32415.617399125,unknown,2,2025-04-22T13:11:00.860+03:00,2025-04-21T17:08:51.449+03:00,7412,1.006994,0,0,6173.501,5,20,2025-04-22T13:10:22.167+03:00,767009460.9675541,0,-21.89,100.4651,1,0.7,2025-04-22T13:09:01.195+03:00,86,1.433333333333333,2025-04-22T09:54:17.825+03:00,0.02225348692287972,0
2025-04-22T13:11:07.579+03:00,1745316666.526832,40.95226099598197,29.1402868059831,76.34336,-1,-1,-1,-1,30,26.71322490203158,-9999,32422.33212491667,-0.6637115478515625,0.6419677734375,-0.372344970703125,32422.32708691667,-0.1265544539034445,-1.053609133277604,-0.6977417588036779,0.03499290347099304,-0.007767025381326675,0.01936336234211922,0.004498541355133057,0.0008521676063537598,0.006097257137298584,XArbitraryZVertical,-0.3247763034844229,-0.4528553525966704,0.120154011761396,0.8215871470258633,-0.6660739183425903,0.6424888372421265,-0.3788847625255585,0,0,0,-1,-1,32415.617399125,unknown,2,2025-04-22T13:11:00.860+03:00,2025-04-21T17:08:51.449+03:00,7412,1.006994,0,0,6173.501,5,20,2025-04-22T13:10:22.167+03:00,767009460.9675541,0,-21.89,100.4651,1,0.7,2025-04-22T13:09:01.195+03:00,86,1.433333333333333,2025-04-22T09:54:17.825+03:00,0.02225348692287972,0
2025-04-22T13:11:07.589+03:00,1745316666.526832,40.95226099598197,29.1402868059831,76.34336,-1,-1,-1,-1,30,26.71322490203158,-9999,32422.34220191667,-0.6675262451171875,0.6421661376953125,-0.3722381591796875,32422.33716391667,-0.1260454949462207,-1.053368201280078,-0.6977913122325149,0.03140935301780701,-0.009341219440102577,0.01781207323074341,0.003570795059204102,-0.0005133748054504395,0.006638705730438232,XArbitraryZVertical,-0.3246953969476206,-0.4528335211931255,0.1203361683451327,0.8216043760137396,-0.6659548282623291,0.6425268054008484,-0.379029393196106,0,0,0,-1,-1,32415.617399125,unknown,2,2025-04-22T13:11:00.860+03:00,2025-04-21T17:08:51.449+03:00,7412,1.006994,0,0,6173.501,5,20,2025-04-22T13:10:22.167+03:00,767009460.9675541,0,-21.89,100.4651,1,0.7,2025-04-22T13:09:01.195+03:00,86,1.433333333333333,2025-04-22T09:54:17.825+03:00,0.02225348692287972,0
2025-04-22T13:11:07.599+03:00,1745316666.526832,40.95226099598197,29.1402868059831,76.34336,-1,-1,-1,-1,30,26.71322490203158,-9999,32422.35227791667,-0.6676788330078125,0.6385650634765625,-0.371734619140625,32422.34723991667,-0.1256760400680089,-1.053267276700185,-0.6977575018223289,0.02528181858360767,-0.008420698344707489,0.01509638130664825,-0.0003853440284729004,-0.0001670718193054199,0.006838768720626831,XArbitraryZVertical,-0.3246043008990527,-0.4528557999844645,0.1204632849883493,0.8216094419924865,-0.6659353971481323,0.6425009369850159,-0.3791073560714722,0,0,0,-1,-1,32415.617399125,unknown,2,2025-04-22T13:11:00.860+03:00,2025-04-21T17:08:51.449+03:00,7412,1.006994,0,0,6173.501,5,20,2025-04-22T13:10:22.167+03:00,767009460.9675541,0,-21.89,100.4651,1,0.7,2025-04-22T13:09:01.195+03:00,86,1.433333333333333,2025-04-22T09:54:17.825+03:00,0.02225348692287972,0
2025-04-22T13:11:07.609+03:00,1745316666.526832,40.95226099598197,29.1402868059831,76.34336,-1,-1,-1,-1,30,26.71322490203158,-9999,32422.36235491667,-0.6664276123046875,0.6357421875,-0.37353515625,32422.35731691667,-0.1253614787722878,-1.053161736915628,-0.6977882574761702,0.01805905811488628,-0.0072403852827847,0.0128547977656126,-0.002105653285980225,-0.001975834369659424,0.00689929723739624,XArbitraryZVertical,-0.3245517074545706,-0.4528600470442998,0.1205828575254077,0.8216104701059147,-0.6658783555030823,0.6425244808197021,-0.3791679441928864,0,0,0,-1,-1,32415.617399125,unknown,2,2025-04-22T13:11:00.860+03:00,2025-04-21T17:08:51.449+03:00,7412,1.006994,0,0,6173.501,5,20,2025-04-22T13:10:22.167+03:00,767009460.9675541,0,-21.89,100.4651,1,0.7,2025-04-22T13:09:01.195+03:00,86,1.433333333333333,2025-04-22T09:54:17.825+03:00,0.02225348692287972,0
2025-04-22T13:11:07.619+03:00,1745316666.526832,40.95226099598197,29.1402868059831,76.34336,-1,-1,-1,-1,30,26.71322490203158,-9999,32422.37243191667,-0.6669464111328125,0.634429931640625,-0.3783111572265625,32422.36739291667,-0.1250619531707264,-1.053023450483885,-0.6978303528885194,0.01995116844773293,-0.004640674218535423,0.01395571511238813,-0.0003505945205688477,-0.00551760196685791,0.00771033763885498,XArbitraryZVertical,-0.3245090797506649,-0.4528471709368678,0.1206937959868321,0.8216180682801898,-0.6658023595809937,0.6425567269325256,-0.3792465925216675,0,0,0,-1,-1,32415.617399125,unknown,2,2025-04-22T13:11:00.860+03:00,2025-04-21T17:08:51.449+03:00,7412,1.006994,0,0,6173.501,5,20,2025-04-22T13:10:22.167+03:00,767009460.9675541,0,-21.89,100.4651,1,0.7,2025-04-22T13:09:01.195+03:00,86,1.433333333333333,2025-04-22T09:54:17.825+03:00,0.02225348692287972,0
2025-04-22T13:11:07.629+03:00,1745316666.526832,40.95226099598197,29.1402868059831,76.34336,-1,-1,-1,-1,30,26.71322490203158,-9999,32422.38250791667,-0.66583251953125,0.636810302734375,-0.381744384765625,32422.37746991667,-0.1247458018301181,-1.05285051158135,-0.697839667775213,0.02252404764294624,-0.0009071887470781803,0.01065552607178688,-0.0007876157760620117,-0.007386326789855957,0.002939701080322266,XArbitraryZVertical,-0.3244516742876442,-0.4528263909461688,0.1207979159382305,0.8216368501725749,-0.6657315492630005,0.6425638794898987,-0.3793587386608124,0,0,0,-1,-1,32415.617399125,unknown,2,2025-04-22T13:11:00.860+03:00,2025-04-21T17:08:51.449+03:00,7412,1.006994,0,0,6173.501,5,20,2025-04-22T13:10:22.167+03:00,767009460.9675541,0,-21.89,100.4651,1,0.7,2025-04-22T13:09:01.195+03:00,86,1.433333333333333,2025-04-22T09:54:17.825+03:00,0.02225348692287972,0
2025-04-22T13:11:07.640+03:00,1745316666.526832,40.95226099598197,29.1402868059831,76.34336,-1,-1,-1,-1,30,26.71322490203158,-9999,32422.39258491667,-0.663726806640625,0.6386871337890625,-0.382476806640625,32422.38754591667,-0.1244199502765191,-1.052624907217303,-0.6978823849070388,0.01799793913960457,0.004253151826560497,0.01203927118331194,-0.001446366310119629,-0.007266461849212646,-0.001119852066040039,XArbitraryZVertical,-0.3244086152352772,-0.4527818143517357,0.1209056254634676,0.821662620375456,-0.6656221151351929,0.6425966024398804,-0.3794953525066376,0,0,0,-1,-1,32415.617399125,unknown,2,2025-04-22T13:11:00.860+03:00,2025-04-21T17:08:51.449+03:00,7412,1.006994,0,0,6173.501,5,20,2025-04-22T13:10:22.167+03:00,767009460.9675541,0,-21.89,100.4651,1,0.7,2025-04-22T13:09:01.195+03:00,86,1.433333333333333,2025-04-22T09:54:17.825+03:00,0.02225348692287972,0
2025-04-22T13:11:07.650+03:00,1745316666.526832,40.95226099598197,29.1402868059831,76.34336,-1,-1,-1,-1,30,26.71322490203158,-9999,32422.40266091667,-0.664825439453125,0.638031005859375,-0.381683349609375,32422.39762291667,-0.124140085677693,-1.052418465887614,-0.6979042322466782,0.02381880953907967,0.002713844878599048,0.008985690772533417,0.0007061362266540527,-0.003682196140289307,-0.002545803785324097,XArbitraryZVertical,-0.3243664966456464,-0.4527399776545115,0.1209924866934926,0.8216894717973441,-0.6655315160751343,0.6426133513450623,-0.3796257674694061,0,0,0,-1,-1,32415.617399125,unknown,2,2025-04-22T13:11:00.860+03:00,2025-04-21T17:08:51.449+03:00,7412,1.006994,0,0,6173.501,5,20,2025-04-22T13:10:22.167+03:00,767009460.9675541,0,-21.89,100.4651,1,0.7,2025-04-22T13:09:01.195+03:00,86,1.433333333333333,2025-04-22T09:54:17.825+03:00,0.02225348692287972,0
2025-04-22T13:11:07.660+03:00,1745316666.526832,40.95226099598197,29.1402868059831,76.34336,-1,-1,-1,-1,30,26.71322490203158,-9999,32422.41273791667,-0.6633453369140625,0.6393890380859375,-0.38238525390625,32422.40769891667,-0.1238951553836761,-1.052247070310136,-0.6978858860265719,0.01772875897586346,0.00505056930705905,0.005014684516936541,0.001063287258148193,-0.004507303237915039,-0.002273321151733398,XArbitraryZVertical,-0.324314078106798,-0.4527113099236766,0.1210608234839689,0.8217159125197068,-0.6654767394065857,0.6425992846488953,-0.3797456920146942,0,0,0,-1,-1,32415.617399125,unknown,2,2025-04-22T13:11:00.860+03:00,2025-04-21T17:08:51.449+03:00,7412,1.006994,0,0,6173.501,5,20,2025-04-22T13:10:22.167+03:00,767009460.9675541,0,-21.89,100.4651,1,0.7,2025-04-22T13:09:01.195+03:00,86,1.433333333333333,2025-04-22T09:54:17.825+03:00,0.02225348692287972,0
2025-04-22T13:11:07.670+03:00,1745316666.526832,40.95226099598197,29.1402868059831,76.34336,-1,-1,-1,-1,30,26.71322490203158,-9999,32422.42281391667,-0.6618194580078125,0.6386566162109375,-0.381195068359375,32422.41777591667,-0.1236888151107869,-1.052114769523677,-0.6978429235306063,0.01899189688265324,-1.183385029435158e-05,0.001068412559106946,0.001769423484802246,-0.003925144672393799,-0.002492040395736694,XArbitraryZVertical,-0.3242581939849354,-0.4526951755709464,0.1211136519260856,0.8217390411518551,-0.665450394153595,0.6425663828849792,-0.3798474073410034,0,0,0,-1,-1,32415.617399125,unknown,2,2025-04-22T13:11:00.860+03:00,2025-04-21T17:08:51.449+03:00,7412,1.006994,0,0,6173.501,5,20,2025-04-22T13:10:22.167+03:00,767009460.9675541,0,-21.89,100.4651,1,0.7,2025-04-22T13:09:01.195+03:00,86,1.433333333333333,2025-04-22T09:54:17.825+03:00,0.02225348692287972,0
2025-04-22T13:11:07.680+03:00,1745316666.526832,40.95226099598197,29.1402868059831,76.34336,-1,-1,-1,-1,30,26.71322490203158,-9999,32422.43289091667,-0.6616058349609375,0.6392059326171875,-0.3833160400390625,32422.42785191667,-0.1235244583969376,-1.052022918484189,-0.6977557946581429,0.01803489029407501,0.001638393849134445,-0.002745966659858823,0.003354787826538086,-0.003370046615600586,-0.001533448696136475,XArbitraryZVertical,-0.3241916809854895,-0.4526937319089059,0.1211449815286455,0.8217614564771003,-0.6654641032218933,0.6424996256828308,-0.3799362778663635,0,0,0,-1,-1,32415.617399125,unknown,2,2025-04-22T13:11:00.860+03:00,2025-04-21T17:08:51.449+03:00,7412,1.006994,0,0,6173.501,5,20,2025-04-22T13:10:22.167+03:00,767009460.9675541,0,-21.89,100.4651,1,0.7,2025-04-22T13:09:01.195+03:00,86,1.433333333333333,2025-04-22T09:54:17.825+03:00,0.02225348692287972,0
2025-04-22T13:11:07.690+03:00,1745316666.526832,40.95226099598197,29.1402868059831,76.34336,-1,-1,-1,-1,30,26.71322490203158,-9999,32422.44296691667,-0.6604156494140625,0.6373748779296875,-0.3823394775390625,32422.43792891667,-0.1233820624387716,-1.0519432663903,-0.6976401644474192,0.01761331222951412,0.002301787491887808,-0.005303932819515467,0.003678977489471436,-0.00346451997756958,-0.002298057079315186,XArbitraryZVertical,-0.3241179797864008,-0.452696877564254,0.1211622834779989,0.8217862811770296,-0.6654984354972839,0.6424109935760498,-0.3800261318683624,0,0,0,-1,-1,32415.617399125,unknown,2,2025-04-22T13:11:00.860+03:00,2025-04-21T17:08:51.449+03:00,7412,1.006994,0,0,6173.501,5,20,2025-04-22T13:10:22.167+03:00,767009460.9675541,0,-21.89,100.4651,1,0.7,2025-04-22T13:09:01.195+03:00,86,1.433333333333333,2025-04-22T09:54:17.825+03:00,0.02225348692287972,0
2025-04-22T13:11:07.700+03:00,1745316666.526832,40.95226099598197,29.1402868059831,76.34336,-1,-1,-1,-1,30,26.71322490203158,-9999,32422.45304391667,-0.6620025634765625,0.63824462890625,-0.3804931640625,32422.44800491667,-0.1232811441670979,-1.051848291797192,-0.6975057987508959,0.01156853605061769,0.009339523501694202,-0.007040280848741531,0.00521320104598999,-0.004002392292022705,-0.002832949161529541,XArbitraryZVertical,-0.3240470860295988,-0.4526890629755101,0.121155473711296,0.8218196093263676,-0.6655373573303223,0.6423079967498779,-0.3801321983337402,0,0,0,-1,-1,32415.617399125,unknown,2,2025-04-22T13:11:00.860+03:00,2025-04-21T17:08:51.449+03:00,7412,1.006994,0,0,6173.501,5,20,2025-04-22T13:10:22.167+03:00,767009460.9675541,0,-21.89,100.4651,1,0.7,2025-04-22T13:09:01.195+03:00,86,1.433333333333333,2025-04-22T09:54:17.825+03:00,0.02225348692287972,0
2025-04-22T13:11:07.710+03:00,1745316666.526832,40.95226099598197,29.1402868059831,76.34336,-1,-1,-1,-1,30,26.71322490203158,-9999,32422.46311991667,-0.6627349853515625,0.6367950439453125,-0.3799285888671875,32422.45808191667,-0.1232349672958133,-1.051752008921933,-0.6973838471709394,0.004195041488856077,0.008527525700628757,-0.00582641176879406,0.004634261131286621,-0.005160212516784668,-0.0007921159267425537,XArbitraryZVertical,-0.3239936678681679,-0.4526704931300604,0.1211290747127119,0.8218546806995626,-0.6655686497688293,0.6422145366668701,-0.3802350461483002,0,0,0,-1,-1,32415.617399125,unknown,2,2025-04-22T13:11:00.860+03:00,2025-04-21T17:08:51.449+03:00,7412,1.006994,0,0,6173.501,5,20,2025-04-22T13:10:22.167+03:00,767009460.9675541,0,-21.89,100.4651,1,0.7,2025-04-22T13:09:01.195+03:00,86,1.433333333333333,2025-04-22T09:54:17.825+03:00,0.02225348692287972,0
2025-04-22T13:11:07.720+03:00,1745316666.526832,40.95226099598197,29.1402868059831,76.34336,-1,-1,-1,-1,30,26.71322490203158,-9999,32422.47319691667,-0.661865234375,0.6339263916015625,-0.38134765625,32422.46815791667,-0.1232337931544771,-1.051687685171963,-0.6972820041416987,0.0006966466316953301,0.005684002302587032,-0.006084105931222439,0.001553714275360107,-0.004410743713378906,-4.547834396362305e-05,XArbitraryZVertical,-0.3239565265532278,-0.4526555192322192,0.1210942426926248,0.8218826818885708,-0.6656008958816528,0.6421364545822144,-0.3803102970123291,0,0,0,-1,-1,32415.617399125,unknown,2,2025-04-22T13:11:00.860+03:00,2025-04-21T17:08:51.449+03:00,7412,1.006994,0,0,6173.501,5,20,2025-04-22T13:10:22.167+03:00,767009460.9675541,0,-21.89,100.4651,1,0.7,2025-04-22T13:09:01.195+03:00,86,1.433333333333333,2025-04-22T09:54:17.825+03:00,0.02225348692287972,0
2025-04-22T13:11:07.730+03:00,1745316666.526832,40.95226099598197,29.1402868059831,76.34336,-1,-1,-1,-1,30,26.71322490203158,-9999,32422.48327291667,-0.6631927490234375,0.6362152099609375,-0.3800048828125,32422.47823491667,-0.1232705912812298,-1.051629697295582,-0.6972111036492619,-0.0001286669867113233,0.007310926914215088,-0.00601646164432168,0.003860056400299072,-0.007515013217926025,-0.0006556808948516846,XArbitraryZVertical,-0.3239399731415658,-0.4526335667522042,0.1210523834939904,0.8219074813485298,-0.6656184196472168,0.6420820951461792,-0.3803715109825134,0,0,0,-1,-1,32415.617399125,unknown,2,2025-04-22T13:11:00.860+03:00,2025-04-21T17:08:51.449+03:00,7412,1.006994,0,0,6173.501,5,20,2025-04-22T13:10:22.167+03:00,767009460.9675541,0,-21.89,100.4651,1,0.7,2025-04-22T13:09:01.195+03:00,86,1.433333333333333,2025-04-22T09:54:17.825+03:00,0.02225348692287972,0
2025-04-22T13:11:07.741+03:00,1745316666.526832,40.95226099598197,29.1402868059831,76.34336,-1,-1,-1,-1,30,26.71322490203158,-9999,32422.49334991667,-0.6641387939453125,0.640960693359375,-0.3804168701171875,32422.48831191667,-0.123271615507684,-1.051562108620299,-0.6971460711442713,0.002371442038565874,0.008147626183927059,-0.003769985400140285,0.003748536109924316,-0.007785558700561523,5.093216896057129e-05,XArbitraryZVertical,-0.3239182515074605,-0.4526128125372086,0.1210251055705757,0.8219315091829991,-0.665628969669342,0.642032265663147,-0.3804372251033783,0,0,0,-1,-1,32415.617399125,unknown,2,2025-04-22T13:11:00.860+03:00,2025-04-21T17:08:51.449+03:00,7412,1.006994,0,0,6173.501,5,20,2025-04-22T13:10:22.167+03:00,767009460.9675541,0,-21.89,100.4651,1,0.7,2025-04-22T13:09:01.195+03:00,86,1.433333333333333,2025-04-22T09:54:17.825+03:00,0.02225348692287972,0
2025-04-22T13:11:07.750+03:00,1745316666.526832,40.95226099598197,29.1402868059831,76.34336,-1,-1,-1,-1,30,26.71322490203158,-9999,32422.50342591667,-0.6614990234375,0.6409912109375,-0.37921142578125,32422.49838791667,-0.1232407888635906,-1.05144326720538,-0.6970806449575033,0.005157641135156155,0.01137644238770008,-0.004916476085782051,0.001512050628662109,-0.002379477024078369,0.0005933642387390137,XArbitraryZVertical,-0.3238922421337068,-0.4525761762398541,0.1210024828650537,0.8219653761548961,-0.6656203866004944,0.6419820785522461,-0.3805372416973114,0,0,0,-1,-1,32415.617399125,unknown,2,2025-04-22T13:11:00.860+03:00,2025-04-21T17:08:51.449+03:00,7412,1.006994,0,0,6173.501,5,20,2025-04-22T13:10:22.167+03:00,767009460.9675541,0,-21.89,100.4651,1,0.7,2025-04-22T13:09:01.195+03:00,86,1.433333333333333,2025-04-22T09:54:17.825+03:00,0.02225348692287972,0
2025-04-22T13:11:07.760+03:00,1745316666.526832,40.95226099598197,29.1402868059831,76.34336,-1,-1,-1,-1,30,26.71322490203158,-9999,32422.513502,-0.6618804931640625,0.6419677734375,-0.378814697265625,32422.50846491667,-0.123194726465804,-1.051309080815043,-0.6970097644484918,0.007033372297883034,0.008646768517792225,-0.002714807633310556,0.002782225608825684,-0.001043438911437988,0.0006595253944396973,XArbitraryZVertical,-0.3238615632601062,-0.4525363301875203,0.1209823743277108,0.8220023201557228,-0.6656087636947632,0.6419277787208557,-0.3806491196155548,0,0,0,-1,-1,32415.617399125,unknown,2,2025-04-22T13:11:00.860+03:00,2025-04-21T17:08:51.449+03:00,7412,1.006994,0,0,6173.501,5,20,2025-04-22T13:10:22.167+03:00,767009460.9675541,0,-21.89,100.4651,1,0.7,2025-04-22T13:09:01.195+03:00,86,1.433333333333333,2025-04-22T09:54:17.825+03:00,0.02225348692287972,0
2025-04-22T13:11:07.770+03:00,1745316666.526832,40.95226099598197,29.1402868059831,76.34336,-1,-1,-1,-1,30,26.71322490203158,-9999,32422.523578,-0.662689208984375,0.6419830322265625,-0.3790435791015625,32422.51854,-0.1231356606039373,-1.051154535810845,-0.6969314432902994,0.007464804220944643,0.009861436672508717,-0.00633297860622406,0.003743529319763184,0.0001915097236633301,0.002572566270828247,XArbitraryZVertical,-0.3238262047947242,-0.4524910501834954,0.120962524634079,0.8220439989348588,-0.6655934453010559,0.6418676972389221,-0.3807768821716309,0,0,0,-1,-1,32415.617399125,unknown,2,2025-04-22T13:11:00.860+03:00,2025-04-21T17:08:51.449+03:00,7412,1.006994,0,0,6173.501,5,20,2025-04-22T13:10:22.167+03:00,767009460.9675541,0,-21.89,100.4651,1,0.7,2025-04-22T13:09:01.195+03:00,86,1.433333333333333,2025-04-22T09:54:17.825+03:00,0.02225348692287972,0
2025-04-22T13:11:07.781+03:00,1745316666.526832,40.95226099598197,29.1402868059831,76.34336,-1,-1,-1,-1,30,26.71322490203158,-9999,32422.533655,-0.661834716796875,0.64178466796875,-0.3821258544921875,32422.528617,-0.1230643357147215,-1.05097650433961,-0.6968325176922189,0.01174190733581781,0.01204902306199074,-0.008128847926855087,0.00318145751953125,5.376338958740234e-05,0.002203822135925293,XArbitraryZVertical,-0.3237812187743323,-0.4524403534869951,0.1209388461088606,0.8220930925865747,-0.6655807495117188,0.641791820526123,-0.3809269070625305,0,0,0,-1,-1,32415.617399125,unknown,2,2025-04-22T13:11:00.860+03:00,2025-04-21T17:08:51.449+03:00,7412,1.006994,0,0,6173.501,5,20,2025-04-22T13:10:22.167+03:00,767009460.9675541,0,-21.89,100.4651,1,0.7,2025-04-22T13:09:01.195+03:00,86,1.433333333333333,2025-04-22T09:54:17.825+03:00,0.02225348692287972,0
2025-04-22T13:11:07.791+03:00,1745316666.526832,40.95226099598197,29.1402868059831,76.34336,-1,-1,-1,-1,30,26.71322490203158,-9999,32422.543731,-0.662261962890625,0.6403656005859375,-0.3823699951171875,32422.538693,-0.1230056895186875,-1.05082457950781,-0.6967190090206535,0.007689109072089195,0.009870823472738266,-0.008783719502389431,0.003766655921936035,0.0004459619522094727,0.0003879964351654053,XArbitraryZVertical,-0.3237316727614439,-0.4523999329557405,0.1209106189158882,0.8221390073343524,-0.6655860543251038,0.641704797744751,-0.3810642063617706,0,0,0,-1,-1,32415.617399125,unknown,2,2025-04-22T13:11:00.860+03:00,2025-04-21T17:08:51.449+03:00,7412,1.006994,0,0,6173.501,5,20,2025-04-22T13:10:22.167+03:00,767009460.9675541,0,-21.89,100.4651,1,0.7,2025-04-22T13:09:01.195+03:00,86,1.433333333333333,2025-04-22T09:54:17.825+03:00,0.02225348692287972,0
2025-04-22T13:11:07.801+03:00,1745316666.526832,40.95226099598197,29.1402868059831,76.34336,-1,-1,-1,-1,30,26.71322490203158,-9999,32422.553808,-0.6613922119140625,0.6376495361328125,-0.3817291259765625,32422.54877,-0.1229935053884484,-1.050734137769676,-0.6966071064750929,0.003212068695574999,0.008615676313638687,-0.007438423112034798,0.003886044025421143,-0.0004905462265014648,-0.001408249139785767,XArbitraryZVertical,-0.3236895656602848,-0.4523770877245091,0.1208736562785302,0.8221735689577742,-0.6656138896942139,0.6416189670562744,-0.3811600804328918,0,0,0,-1,-1,32415.617399125,unknown,2,2025-04-22T13:11:00.860+03:00,2025-04-21T17:08:51.449+03:00,7412,1.006994,0,0,6173.501,5,20,2025-04-22T13:10:22.167+03:00,767009460.9675541,0,-21.89,100.4651,1,0.7,2025-04-22T13:09:01.195+03:00,86,1.433333333333333,2025-04-22T09:54:17.825+03:00,0.02225348692287972,0
2025-04-22T13:11:07.811+03:00,1745316666.526832,40.95226099598197,29.1402868059831,76.34336,-1,-1,-1,-1,30,26.71322490203158,-9999,32422.563884,-0.6602325439453125,0.638214111328125,-0.3839111328125,32422.558846,-0.1230033740075264,-1.050648496014625,-0.6965158850138526,-6.788031896576285e-05,0.008313940837979317,-0.007394480984658003,0.003217637538909912,-0.003624856472015381,-0.0002539753913879395,XArbitraryZVertical,-0.3236604049169144,-0.4523503322582095,0.1208334015842474,0.8222058021526196,-0.6656321883201599,0.6415489912033081,-0.3812462389469147,0,0,0,-1,-1,32415.617399125,unknown,2,2025-04-22T13:11:00.860+03:00,2025-04-21T17:08:51.449+03:00,7412,1.006994,0,0,6173.501,5,20,2025-04-22T13:10:22.167+03:00,767009460.9675541,0,-21.89,100.4651,1,0.7,2025-04-22T13:09:01.195+03:00,86,1.433333333333333,2025-04-22T09:54:17.825+03:00,0.02225348692287972,0
2025-04-22T13:11:07.821+03:00,1745316666.526832,40.95226099598197,29.1402868059831,76.34336,-1,-1,-1,-1,30,26.71322490203158,-9999,32422.573961,-0.6613922119140625,0.6403350830078125,-0.3807525634765625,32422.568923,-0.1231053328288239,-1.050645790258326,-0.6964495681779168,-0.009154452942311764,0.004430918022990227,-0.005198105238378048,0.006366312503814697,-0.004733681678771973,-0.002382516860961914,XArbitraryZVertical,-0.3236570569753414,-0.4523400364679364,0.1207748333585557,0.8222214161872022,-0.6656680703163147,0.6414980888366699,-0.3812692165374756,0,0,0,-1,-1,32415.617399125,unknown,2,2025-04-22T13:11:00.860+03:00,2025-04-21T17:08:51.449+03:00,7412,1.006994,0,0,6173.501,5,20,2025-04-22T13:10:22.167+03:00,767009460.9675541,0,-21.89,100.4651,1,0.7,2025-04-22T13:09:01.195+03:00,86,1.433333333333333,2025-04-22T09:54:17.825+03:00,0.02225348692287972,0
2025-04-22T13:11:07.831+03:00,1745316666.526832,40.95226099598197,29.1402868059831,76.34336,-1,-1,-1,-1,30,26.71322490203158,-9999,32422.584038,-0.6598968505859375,0.6376190185546875,-0.3769073486328125,32422.578999,-0.123228963334644,-1.05068747326996,-0.6964345697902004,-0.007883059792220592,0.002650328679010272,-0.005031125154346228,0.004071235656738281,-0.001594126224517822,-0.0009711384773254395,XArbitraryZVertical,-0.3236764946177361,-0.4523388221762177,0.1207270900991192,0.8222214405556749,-0.6656923294067383,0.6414865851402283,-0.3812462389469147,0,0,0,-1,-1,32415.617399125,unknown,2,2025-04-22T13:11:00.860+03:00,2025-04-21T17:08:51.449+03:00,7412,1.006994,0,0,6173.501,5,20,2025-04-22T13:10:22.167+03:00,767009460.9675541,0,-21.89,100.4651,1,0.7,2025-04-22T13:09:01.195+03:00,86,1.433333333333333,2025-04-22T09:54:17.825+03:00,0.02225348692287972,0
2025-04-22T13:11:07.841+03:00,1745316666.526832,40.95226099598197,29.1402868059831,76.34336,-1,-1,-1,-1,30,26.71322490203158,-9999,32422.594114,-0.662872314453125,0.638519287109375,-0.372711181640625,32422.589076,-0.1233634260227002,-1.050751706794271,-0.6964197159963686,-0.007763683795928955,0.0004205307923257351,-0.008900664746761322,0.005401015281677246,-0.002650797367095947,0.002637684345245361,XArbitraryZVertical,-0.3236970760011299,-0.4523451048214596,0.1206785705515429,0.8222170203037976,-0.6657251119613647,0.6414752006530762,-0.381208211183548,0,0,0,-1,-1,32415.617399125,unknown,2,2025-04-22T13:11:00.860+03:00,2025-04-21T17:08:51.449+03:00,7412,1.006994,0,0,6173.501,5,20,2025-04-22T13:10:22.167+03:00,767009460.9675541,0,-21.89,100.4651,1,0.7,2025-04-22T13:09:01.195+03:00,86,1.433333333333333,2025-04-22T09:54:17.825+03:00,0.02225348692287972,0
2025-04-22T13:11:07.851+03:00,1745316666.526832,40.95226099598197,29.1402868059831,76.34336,-1,-1,-1,-1,30,26.71322490203158,-9999,32422.604191,-0.662139892578125,0.63739013671875,-0.37628173828125,32422.599152,-0.1234832999244596,-1.050816798534059,-0.6963677058376659,-0.003866946324706078,0.003499677404761314,-0.01089723687618971,0.003440558910369873,-0.003663778305053711,0.006791830062866211,XArbitraryZVertical,-0.3236994331909904,-0.4523582127649202,0.120627122027395,0.8222164120998033,-0.6657788157463074,0.6414353251457214,-0.3811814486980438,0,0,0,-1,-1,32415.617399125,unknown,2,2025-04-22T13:11:00.860+03:00,2025-04-21T17:08:51.449+03:00,7412,1.006994,0,0,6173.501,5,20,2025-04-22T13:10:22.167+03:00,767009460.9675541,0,-21.89,100.4651,1,0.7,2025-04-22T13:09:01.195+03:00,86,1.433333333333333,2025-04-22T09:54:17.825+03:00,0.02225348692287972,0
2025-04-22T13:11:07.861+03:00,1745316666.526832,40.95226099598197,29.1402868059831,76.34336,-1,-1,-1,-1,30,26.71322490203158,-9999,32422.614267,-0.6583404541015625,0.6394500732421875,-0.3794097900390625,32422.609229,-0.1236305423939811,-1.050876202569574,-0.6963262482329464,-0.01085175201296806,0.003934704698622227,-0.008751860819756985,0.001624643802642822,-0.003464162349700928,0.006902784109115601,XArbitraryZVertical,-0.3237125733866714,-0.4523634046728229,0.12056611678671,0.8222172252604321,-0.6658244132995605,0.6414034962654114,-0.3811550438404083,0,0,0,-1,-1,32415.617399125,unknown,2,2025-04-22T13:11:00.860+03:00,2025-04-21T17:08:51.449+03:00,7412,1.006994,0,0,6173.501,5,20,2025-04-22T13:10:22.167+03:00,767009460.9675541,0,-21.89,100.4651,1,0.7,2025-04-22T13:09:01.195+03:00,86,1.433333333333333,2025-04-22T09:54:17.825+03:00,0.02225348692287972,0
2025-04-22T13:11:07.871+03:00,1745316666.526832,40.95226099598197,29.1402868059831,76.34336,-1,-1,-1,-1,30,26.71322490203158,-9999,32422.624344,-0.658355712890625,0.6366119384765625,-0.3713226318359375,32422.619305,-0.1238578088605301,-1.050980390466547,-0.6963374034248986,-0.01824069209396839,0.006277221255004406,-0.007209890522062778,0.006540954113006592,-0.002129912376403809,0.00167238712310791,XArbitraryZVertical,-0.3237621554508697,-0.4523682072115167,0.1204922576706627,0.8222059342484758,-0.6658579707145691,0.641412079334259,-0.381082147359848,0,0,0,-1,-1,32415.617399125,unknown,2,2025-04-22T13:11:00.860+03:00,2025-04-21T17:08:51.449+03:00,7412,1.006994,0,0,6173.501,5,20,2025-04-22T13:10:22.167+03:00,767009460.9675541,0,-21.89,100.4651,1,0.7,2025-04-22T13:09:01.195+03:00,86,1.433333333333333,2025-04-22T09:54:17.825+03:00,0.02225348692287972,0
2025-04-22T13:11:07.881+03:00,1745316666.526832,40.95226099598197,29.1402868059831,76.34336,-1,-1,-1,-1,30,26.71322490203158,-9999,32422.63442,-0.6601104736328125,0.6361236572265625,-0.36920166015625,32422.629382,-0.1241089176091387,-1.051046757340611,-0.696378938881648,-0.02321960404515266,0.01067529805004597,-0.008562309667468071,0.007946908473968506,-0.003840267658233643,0.006314635276794434,XArbitraryZVertical,-0.3238316017322094,-0.4523502535107989,0.1204099485620567,0.8222004663960852,-0.6658600568771362,0.6414439082145691,-0.3810246884822845,0,0,0,-1,-1,32415.617399125,unknown,2,2025-04-22T13:11:00.860+03:00,2025-04-21T17:08:51.449+03:00,7412,1.006994,0,0,6173.501,5,20,2025-04-22T13:10:22.167+03:00,767009460.9675541,0,-21.89,100.4651,1,0.7,2025-04-22T13:09:01.195+03:00,86,1.433333333333333,2025-04-22T09:54:17.825+03:00,0.02225348692287972,0
2025-04-22T13:11:07.892+03:00,1745316666.526832,40.95226099598197,29.1402868059831,76.34336,-1,-1,-1,-1,30,26.71322490203158,-9999,32422.644497,-0.6598663330078125,0.638763427734375,-0.3750152587890625,32422.639458,-0.1243942183161266,-1.051096011219577,-0.6964406213351084,-0.02410830184817314,0.01442263275384903,-0.003803507890552282,0.006161391735076904,-0.005596518516540527,0.01224368810653687,XArbitraryZVertical,-0.3239178293464648,-0.4523174442355135,0.120315652148047,0.8221985089328584,-0.6658446788787842,0.6414912343025208,-0.3809723258018494,0,0,0,-1,-1,32415.617399125,unknown,2,2025-04-22T13:11:00.860+03:00,2025-04-21T17:08:51.449+03:00,7412,1.006994,0,0,6173.501,5,20,2025-04-22T13:10:22.167+03:00,767009460.9675541,0,-21.89,100.4651,1,0.7,2025-04-22T13:09:01.195+03:00,86,1.433333333333333,2025-04-22T09:54:17.825+03:00,0.02225348692287972,0
2025-04-22T13:11:07.902+03:00,1745316666.526832,40.95226099598197,29.1402868059831,76.34336,-1,-1,-1,-1,30,26.71322490203158,-9999,32422.654573,-0.6605682373046875,0.6384735107421875,-0.3747711181640625,32422.649535,-0.1246975776751185,-1.051131677286233,-0.6965399734963075,-0.02873467840254307,0.01437289826571941,-0.0005999581189826131,0.005722939968109131,-0.003429710865020752,0.008083701133728027,XArbitraryZVertical,-0.3240240807773304,-0.4522719709462963,0.1202210258145023,0.8221954680012157,-0.6658028960227966,0.6415674686431885,-0.3809169232845306,0,0,0,-1,-1,32415.617399125,unknown,2,2025-04-22T13:11:00.860+03:00,2025-04-21T17:08:51.449+03:00,7412,1.006994,0,0,6173.501,5,20,2025-04-22T13:10:22.167+03:00,767009460.9675541,0,-21.89,100.4651,1,0.7,2025-04-22T13:09:01.195+03:00,86,1.433333333333333,2025-04-22T09:54:17.825+03:00,0.02225348692287972,0
2025-04-22T13:11:07.912+03:00,1745316666.526832,40.95226099598197,29.1402868059831,76.34336,-1,-1,-1,-1,30,26.71322490203158,-9999,32422.66465,-0.6622161865234375,0.6387786865234375,-0.3726043701171875,32422.659612,-0.1250056206574166,-1.05119303037574,-0.6966734243186965,-0.0254757683724165,0.01052356511354446,-0.001552837202325463,0.004908919334411621,-0.003425300121307373,0.00549781322479248,XArbitraryZVertical,-0.3241435208929277,-0.4522325183439335,0.1201370319246692,0.8221822166415134,-0.6657518148422241,0.6416698098182678,-0.3808334469795227,0,0,0,-1,-1,32415.617399125,unknown,2,2025-04-22T13:11:00.860+03:00,2025-04-21T17:08:51.449+03:00,7412,1.006994,0,0,6173.501,5,20,2025-04-22T13:10:22.167+03:00,767009460.9675541,0,-21.89,100.4651,1,0.7,2025-04-22T13:09:01.195+03:00,86,1.433333333333333,2025-04-22T09:54:17.825+03:00,0.02225348692287972,0
2025-04-22T13:11:07.922+03:00,1745316666.526832,40.95226099598197,29.1402868059831,76.34336,-1,-1,-1,-1,30,26.71322490203158,-9999,32422.674726,-0.663543701171875,0.6429290771484375,-0.377593994140625,32422.669688,-0.125299332741295,-1.05130788752969,-0.6967644883630192,-0.02043786644935608,0.006510714069008827,-0.00383170391432941,0.004337430000305176,-0.003525674343109131,0.007864266633987427,XArbitraryZVertical,-0.3242394922657369,-0.4522220234870963,0.1200571742885911,0.8221618277365638,-0.6657448410987854,0.6417396664619446,-0.3807279765605927,0,0,0,-1,-1,32415.617399125,unknown,2,2025-04-22T13:11:00.860+03:00,2025-04-21T17:08:51.449+03:00,7412,1.006994,0,0,6173.501,5,20,2025-04-22T13:10:22.167+03:00,767009460.9675541,0,-21.89,100.4651,1,0.7,2025-04-22T13:09:01.195+03:00,86,1.433333333333333,2025-04-22T09:54:17.825+03:00,0.02225348692287972,0
2025-04-22T13:11:07.932+03:00,1745316666.526832,40.95226099598197,29.1402868059831,76.34336,-1,-1,-1,-1,30,26.71322490203158,-9999,32422.684803,-0.6613616943359375,0.642608642578125,-0.3837432861328125,32422.679765,-0.1255702498840239,-1.0514628430933,-0.6968313446025994,-0.01920722052454948,0.00153193436563015,-0.004347824957221746,0.002360284328460693,3.945827484130859e-05,0.005130589008331299,XArbitraryZVertical,-0.3243182017854663,-0.4522343641081359,0.119987259267895,0.822134263739745,-0.6657666563987732,0.6417909264564514,-0.3806035816669464,0,0,0,-1,-1,32415.617399125,unknown,2,2025-04-22T13:11:00.860+03:00,2025-04-21T17:08:51.449+03:00,7412,1.006994,0,0,6173.501,5,20,2025-04-22T13:10:22.167+03:00,767009460.9675541,0,-21.89,100.4651,1,0.7,2025-04-22T13:09:01.195+03:00,86,1.433333333333333,2025-04-22T09:54:17.825+03:00,0.02225348692287972,0
2025-04-22T13:11:07.942+03:00,1745316666.526832,40.95226099598197,29.1402868059831,76.34336,-1,-1,-1,-1,30,26.71322490203158,-9999,32422.694879,-0.6614532470703125,0.64227294921875,-0.38360595703125,32422.689841,-0.1258275975211714,-1.051625193679807,-0.6968443590182003,-0.01445760484784842,0.001714494079351425,-0.01128143165260553,0.0043221116065979,0.001891016960144043,-0.001726031303405762,XArbitraryZVertical,-0.3243718734011399,-0.452257925969324,0.1199109987961626,0.8221112260562576,-0.6658211350440979,0.6418009400367737,-0.380491316318512,0,0,0,-1,-1,32415.617399125,unknown,2,2025-04-22T13:11:00.860+03:00,2025-04-21T17:08:51.449+03:00,7412,1.006994,0,0,6173.501,5,20,2025-04-22T13:10:22.167+03:00,767009460.9675541,0,-21.89,100.4651,1,0.7,2025-04-22T13:09:01.195+03:00,86,1.433333333333333,2025-04-22T09:54:17.825+03:00,0.02225348692287972,0
2025-04-22T13:11:07.952+03:00,1745316666.526832,40.95226099598197,29.1402868059831,76.34336,-1,-1,-1,-1,30,26.71322490203158,-9999,32422.704956,-0.6620635986328125,0.644256591796875,-0.3792266845703125,32422.699918,-0.1260619970193564,-1.051737701867018,-0.6968263104747219,-0.01503897365182638,0.003717191284522414,-0.01194828655570745,0.005153179168701172,-0.0001093149185180664,-0.00391620397567749,XArbitraryZVertical,-0.3244109039448372,-0.4522681533001456,0.1198284665504527,0.822102263291992,-0.6658740043640137,0.641787052154541,-0.3804221749305725,0,0,0,-1,-1,32415.617399125,unknown,2,2025-04-22T13:11:00.860+03:00,2025-04-21T17:08:51.449+03:00,7412,1.006994,0,0,6173.501,5,20,2025-04-22T13:10:22.167+03:00,767009460.9675541,0,-21.89,100.4651,1,0.7,2025-04-22T13:09:01.195+03:00,86,1.433333333333333,2025-04-22T09:54:17.825+03:00,0.02225348692287972,0
2025-04-22T13:11:07.962+03:00,1745316666.526832,40.95226099598197,29.1402868059831,76.34336,-1,-1,-1,-1,30,26.71322490203158,-9999,32422.715032,-0.663970947265625,0.6450042724609375,-0.3728790283203125,32422.709994,-0.1263098957773177,-1.051864627047034,-0.6967866686944956,-0.01325612049549818,0.005249707028269768,-0.01363919395953417,0.003255128860473633,0.002209901809692383,-0.001195728778839111,XArbitraryZVertical,-0.324443501679349,-0.4522845246886134,0.1197374663403244,0.8220936238946767,-0.6659443378448486,0.6417566537857056,-0.3803502321243286,0,0,0,-1,-1,32415.617399125,unknown,2,2025-04-22T13:11:00.860+03:00,2025-04-21T17:08:51.449+03:00,7412,1.006994,0,0,6173.501,5,20,2025-04-22T13:10:22.167+03:00,767009460.9675541,0,-21.89,100.4651,1,0.7,2025-04-22T13:09:01.195+03:00,86,1.433333333333333,2025-04-22T09:54:17.825+03:00,0.02225348692287972,0
2025-04-22T13:11:07.986+03:00,1745316666.526832,40.95226099598197,29.1402868059831,76.34336,-1,-1,-1,-1,30,26.71322490203158,-9999,32422.725109,-0.6672821044921875,0.6393890380859375,-0.3717041015625,32422.720071,-0.1265921525328136,-1.051989088599177,-0.6967670792325313,-0.01735552400350571,0.009065218269824982,-0.00998240802437067,0.002626776695251465,0.003659307956695557,0.005029499530792236,XArbitraryZVertical,-0.3244920259284476,-0.4522920554264325,0.1196368090929826,0.8220850614771518,-0.6660026907920837,0.6417416334152222,-0.3802736401557922,0,0,0,-1,-1,32415.617399125,unknown,2,2025-04-22T13:11:00.860+03:00,2025-04-21T17:08:51.449+03:00,7412,1.006994,0,0,6173.501,5,20,2025-04-22T13:10:22.167+03:00,767009460.9675541,0,-21.89,100.4651,1,0.7,2025-04-22T13:09:01.195+03:00,86,1.433333333333333,2025-04-22T09:54:17.825+03:00,0.02225348692287972,0
2025-04-22T13:11:07.987+03:00,1745316666.526832,40.95226099598197,29.1402868059831,76.34336,-1,-1,-1,-1,30,26.71322490203158,-9999,32422.735185,-0.667694091796875,0.63800048828125,-0.37371826171875,32422.730147,-0.1269061678275236,-1.052094013368187,-0.6968054234293065,-0.02206865325570107,0.01211280655115843,-0.008406815119087696,-0.0002995729446411133,-0.0009325146675109863,0.008395910263061523,XArbitraryZVertical,-0.324572114088893,-0.4522799670504273,0.1195341589892698,0.822075007523017,-0.6660212278366089,0.6417710781097412,-0.3801915347576141,0,0,0,-1,-1,32415.617399125,unknown,2,2025-04-22T13:11:00.860+03:00,2025-04-21T17:08:51.449+03:00,7412,1.006994,0,0,6173.501,5,20,2025-04-22T13:10:22.167+03:00,767009460.9675541,0,-21.89,100.4651,1,0.7,2025-04-22T13:09:01.195+03:00,86,1.433333333333333,2025-04-22T09:54:17.825+03:00,0.02225348692287972,0
2025-04-22T13:11:07.992+03:00,1745316666.526832,40.95226099598197,29.1402868059831,76.34336,-1,-1,-1,-1,30,26.71322490203158,-9999,32422.745262,-0.667022705078125,0.6392974853515625,-0.37261962890625,32422.740224,-0.1272035333653713,-1.052108179648987,-0.6968379008719825,-0.01771065592765808,0.02033105492591858,-0.00897033978253603,-0.0004190802574157715,-0.0041465163230896,0.006331503391265869,XArbitraryZVertical,-0.3246514962143228,-0.4522339008830221,0.1194221626785734,0.8220853268763588,-0.6660085320472717,0.6417959928512573,-0.3801718056201935,0,0,0,-1,-1,32415.617399125,unknown,2,2025-04-22T13:11:00.860+03:00,2025-04-21T17:08:51.449+03:00,7412,1.006994,0,0,6173.501,5,20,2025-04-22T13:10:22.167+03:00,767009460.9675541,0,-21.89,100.4651,1,0.7,2025-04-22T13:09:01.195+03:00,86,1.433333333333333,2025-04-22T09:54:17.825+03:00,0.02225348692287972,0
2025-04-22T13:11:08.002+03:00,1745316666.526832,40.95226099598197,29.1402868059831,76.34336,-1,-1,-1,-1,30,26.71322490203158,-9999,32422.755339,-0.666412353515625,0.640472412109375,-0.374755859375,32422.7503,-0.1274656644521548,-1.052037785134283,-0.6968663683227028,-0.01727789454162121,0.0274781808257103,-0.007998685352504253,-0.001667141914367676,-0.003908932209014893,0.007757902145385742,XArbitraryZVertical,-0.3247263592177488,-0.4521592411587551,0.1193099627692523,0.8221131036153554,-0.6659659147262573,0.6418178081512451,-0.3802096247673035,0,0,0,-1,-1,32415.617399125,unknown,2,2025-04-22T13:11:00.860+03:00,2025-04-21T17:08:51.449+03:00,7412,1.006994,0,0,6173.501,5,20,2025-04-22T13:10:22.167+03:00,767009460.9675541,0,-21.89,100.4651,1,0.7,2025-04-22T13:09:01.195+03:00,86,1.433333333333333,2025-04-22T09:54:17.825+03:00,0.02225348692287972,0
2025-04-22T13:11:08.012+03:00,1745316666.526832,40.95226099598197,29.1402868059831,76.34336,-1,-1,-1,-1,30,26.71322490203158,-9999,32422.765415,-0.6640167236328125,0.6404571533203125,-0.37762451171875,32422.760377,-0.127719032846671,-1.051906688745164,-0.6968935620410477,-0.0167364738881588,0.03250090032815933,-0.008447161875665188,-0.001121878623962402,-0.001564741134643555,0.005913883447647095,XArbitraryZVertical,-0.3248023600393594,-0.4520612017591137,0.1191912336119218,0.8221540989505473,-0.6659007668495178,0.6418386697769165,-0.3802881836891174,0,0,0,-1,-1,32415.617399125,unknown,2,2025-04-22T13:11:00.860+03:00,2025-04-21T17:08:51.449+03:00,7412,1.006994,0,0,6173.501,5,20,2025-04-22T13:10:22.167+03:00,767009460.9675541,0,-21.89,100.4651,1,0.7,2025-04-22T13:09:01.195+03:00,86,1.433333333333333,2025-04-22T09:54:17.825+03:00,0.02225348692287972,0
2025-04-22T13:11:08.022+03:00,1745316666.526832,40.95226099598197,29.1402868059831,76.34336,-1,-1,-1,-1,30,26.71322490203158,-9999,32422.775492,-0.6629791259765625,0.6392059326171875,-0.377349853515625,32422.770453,-0.1279525393765791,-1.051736900667094,-0.6969122438443507,-0.01529310550540686,0.02858199365437031,-0.00745769776403904,0.001152992248535156,-0.001563727855682373,0.003808438777923584,XArbitraryZVertical,-0.3248727032644021,-0.4519513791787254,0.1190722046342631,0.8222040112603596,-0.6658258438110352,0.6418529748916626,-0.3803953528404236,0,0,0,-1,-1,32415.617399125,unknown,2,2025-04-22T13:11:00.860+03:00,2025-04-21T17:08:51.449+03:00,7412,1.006994,0,0,6173.501,5,20,2025-04-22T13:10:22.167+03:00,767009460.9675541,0,-21.89,100.4651,1,0.7,2025-04-22T13:09:01.195+03:00,86,1.433333333333333,2025-04-22T09:54:17.825+03:00,0.02225348692287972,0
2025-04-22T13:11:08.032+03:00,1745316666.526832,40.95226099598197,29.1402868059831,76.34336,-1,-1,-1,-1,30,26.71322490203158,-9999,32422.785568,-0.662200927734375,0.643310546875,-0.3786163330078125,32422.78053,-0.1281512906883682,-1.051582370584375,-0.6968929091028598,-0.01159077882766724,0.02331133186817169,-0.01018930226564407,0.002844512462615967,-0.002510249614715576,0.003475010395050049,XArbitraryZVertical,-0.3249190624328517,-0.4518577123127315,0.1189606430217854,0.8222533562663137,-0.665777862071991,0.6418381333351135,-0.3805044293403625,0,0,0,-1,-1,32415.617399125,unknown,2,2025-04-22T13:11:00.860+03:00,2025-04-21T17:08:51.449+03:00,7412,1.006994,0,0,6173.501,5,20,2025-04-22T13:10:22.167+03:00,767009460.9675541,0,-21.89,100.4651,1,0.7,2025-04-22T13:09:01.195+03:00,86,1.433333333333333,2025-04-22T09:54:17.825+03:00,0.02225348692287972,0
2025-04-22T13:11:08.043+03:00,1745316666.526832,40.95226099598197,29.1402868059831,76.34336,-1,-1,-1,-1,30,26.71322490203158,-9999,32422.795645,-0.6645660400390625,0.645294189453125,-0.3797607421875,32422.790606,-0.1283181919149064,-1.051427796752961,-0.6968383557424597,-0.005345133598893881,0.02451081946492195,-0.01499111391603947,0.00327378511428833,-0.0006526708602905273,0.002618700265884399,XArbitraryZVertical,-0.3249441545236127,-0.4517731535183461,0.118853605127996,0.8223052625050941,-0.6657493114471436,0.6417962908744812,-0.3806246221065521,0,0,0,-1,-1,32415.617399125,unknown,2,2025-04-22T13:11:00.860+03:00,2025-04-21T17:08:51.449+03:00,7412,1.006994,0,0,6173.501,5,20,2025-04-22T13:10:22.167+03:00,767009460.9675541,0,-21.89,100.4651,1,0.7,2025-04-22T13:09:01.195+03:00,86,1.433333333333333,2025-04-22T09:54:17.825+03:00,0.02225348692287972,0
2025-04-22T13:11:08.053+03:00,1745316666.526832,40.95226099598197,29.1402868059831,76.34336,-1,-1,-1,-1,30,26.71322490203158,-9999,32422.805721,-0.665924072265625,0.6449737548828125,-0.37890625,32422.800683,-0.1284783375544347,-1.051288185864214,-0.6967518170787187,-0.002989301458001137,0.024563018232584,-0.017785569652915,0.001773595809936523,0.003854095935821533,0.001213371753692627,XArbitraryZVertical,-0.3249539577656528,-0.4516993592265428,0.1187438336591411,0.82235791545787,-0.6657445430755615,0.6417299509048462,-0.3807452321052551,0,0,0,-1,-1,32415.617399125,unknown,2,2025-04-22T13:11:00.860+03:00,2025-04-21T17:08:51.449+03:00,7412,1.006994,0,0,6173.501,5,20,2025-04-22T13:10:22.167+03:00,767009460.9675541,0,-21.89,100.4651,1,0.7,2025-04-22T13:09:01.195+03:00,86,1.433333333333333,2025-04-22T09:54:17.825+03:00,0.02225348692287972,0
2025-04-22T13:11:08.063+03:00,1745316666.526832,40.95226099598197,29.1402868059831,76.34336,-1,-1,-1,-1,30,26.71322490203158,-9999,32422.815798,-0.6641998291015625,0.6429901123046875,-0.3806304931640625,32422.81076,-0.1286693708326176,-1.051165150467896,-0.6966375666418601,-0.002869858639314771,0.02858399227261543,-0.0176245141774416,-0.0004374384880065918,0.003773868083953857,0.002064108848571777,XArbitraryZVertical,-0.3249586883368186,-0.451630484878589,0.1186173411443135,0.8224120850520821,-0.6657612919807434,0.6416423320770264,-0.3808635175228119,0,0,0,-1,-1,32415.617399125,unknown,2,2025-04-22T13:11:00.860+03:00,2025-04-21T17:08:51.449+03:00,7412,1.006994,0,0,6173.501,5,20,2025-04-22T13:10:22.167+03:00,767009460.9675541,0,-21.89,100.4651,1,0.7,2025-04-22T13:09:01.195+03:00,86,1.433333333333333,2025-04-22T09:54:17.825+03:00,0.02225348692287972,0
2025-04-22T13:11:08.073+03:00,1745316666.526832,40.95226099598197,29.1402868059831,76.34336,-1,-1,-1,-1,30,26.71322490203158,-9999,32422.825874,-0.66534423828125,0.6404571533203125,-0.3795166015625,32422.820836,-0.1288743691953615,-1.051027426679211,-0.6965066068710363,-0.008040386252105236,0.02825562283396721,-0.01864184252917767,0.001017332077026367,0.001951694488525391,0.000839531421661377,XArbitraryZVertical,-0.3249607241045103,-0.451555151689626,0.1184785973930055,0.8224726645372902,-0.6657817363739014,0.6415418386459351,-0.3809969425201416,0,0,0,-1,-1,32415.617399125,unknown,2,2025-04-22T13:11:00.860+03:00,2025-04-21T17:08:51.449+03:00,7412,1.006994,0,0,6173.501,5,20,2025-04-22T13:10:22.167+03:00,767009460.9675541,0,-21.89,100.4651,1,0.7,2025-04-22T13:09:01.195+03:00,86,1.433333333333333,2025-04-22T09:54:17.825+03:00,0.02225348692287972,0
2025-04-22T13:11:08.083+03:00,1745316666.526832,40.95226099598197,29.1402868059831,76.34336,-1,-1,-1,-1,30,26.71322490203158,-9999,32422.835951,-0.661407470703125,0.6365509033203125,-0.3772735595703125,32422.830913,-0.1291492775686762,-1.050935782126011,-0.6964001815113339,-0.0148646691814065,0.02605458721518517,-0.01804392971098423,0.001438379287719727,0.0009347796440124512,0.0004613995552062988,XArbitraryZVertical,-0.3249856129030598,-0.451484667243394,0.1183245862997555,0.8225237239152803,-0.6658061146736145,0.6414602398872375,-0.3810918927192688,0,0,0,-1,-1,32415.617399125,unknown,2,2025-04-22T13:11:00.860+03:00,2025-04-21T17:08:51.449+03:00,7412,1.006994,0,0,6173.501,5,20,2025-04-22T13:10:22.167+03:00,767009460.9675541,0,-21.89,100.4651,1,0.7,2025-04-22T13:09:01.195+03:00,86,1.433333333333333,2025-04-22T09:54:17.825+03:00,0.02225348692287972,0
2025-04-22T13:11:08.093+03:00,1745316666.526832,40.95226099598197,29.1402868059831,76.34336,-1,-1,-1,-1,30,26.71322490203158,-9999,32422.846027,-0.66064453125,0.6349334716796875,-0.377685546875,32422.840989,-0.1294353169721721,-1.050871475663825,-0.6963332490054868,-0.01672408916056156,0.02799416705965996,-0.0138350697234273,0.003251612186431885,-0.003164350986480713,0.003851890563964844,XArbitraryZVertical,-0.3250272216141648,-0.4514192338727001,0.1181801615346602,0.8225638429437854,-0.6658187508583069,0.6414088606834412,-0.3811559677124023,0,0,0,-1,-1,32415.617399125,unknown,2,2025-04-22T13:11:00.860+03:00,2025-04-21T17:08:51.449+03:00,7412,1.006994,0,0,6173.501,5,20,2025-04-22T13:10:22.167+03:00,767009460.9675541,0,-21.89,100.4651,1,0.7,2025-04-22T13:09:01.195+03:00,86,1.433333333333333,2025-04-22T09:54:17.825+03:00,0.02225348692287972,0
2025-04-22T13:11:08.103+03:00,1745316666.526832,40.95226099598197,29.1402868059831,76.34336,-1,-1,-1,-1,30,26.71322490203158,-9999,32422.856104,-0.6613311767578125,0.63629150390625,-0.37933349609375,32422.851066,-0.1296959977704255,-1.050741165895283,-0.6962902086298826,-0.01016605459153652,0.0315265841782093,-0.01338179968297482,0.005514800548553467,-0.007113873958587646,0.004150807857513428,XArbitraryZVertical,-0.3250765067881295,-0.4513280642895874,0.1180411992124129,0.8226144195343923,-0.6657931208610535,0.6413758397102356,-0.381256490945816,0,0,0,-1,-1,32415.617399125,unknown,2,2025-04-22T13:11:00.860+03:00,2025-04-21T17:08:51.449+03:00,7412,1.006994,0,0,6173.501,5,20,2025-04-22T13:10:22.167+03:00,767009460.9675541,0,-21.89,100.4651,1,0.7,2025-04-22T13:09:01.195+03:00,86,1.433333333333333,2025-04-22T09:54:17.825+03:00,0.02225348692287972,0
2025-04-22T13:11:08.113+03:00,1745316666.526832,40.95226099598197,29.1402868059831,76.34336,-1,-1,-1,-1,30,26.71322490203158,-9999,32422.866181,-0.6622161865234375,0.63873291015625,-0.3796234130859375,32422.861142,-0.1299589064449417,-1.050597964517626,-0.6962386305389665,-0.01566175371408463,0.030381690710783,-0.01351469103246927,0.004115521907806396,-0.005868911743164062,0.002431511878967285,XArbitraryZVertical,-0.3251236574754909,-0.451232209921809,0.1178971999771113,0.8226689174085798,-0.6657670736312866,0.6413362622261047,-0.3813681900501251,0,0,0,-1,-1,32415.617399125,unknown,2,2025-04-22T13:11:00.860+03:00,2025-04-21T17:08:51.449+03:00,7412,1.006994,0,0,6173.501,5,20,2025-04-22T13:10:22.167+03:00,767009460.9675541,0,-21.89,100.4651,1,0.7,2025-04-22T13:09:01.195+03:00,86,1.433333333333333,2025-04-22T09:54:17.825+03:00,0.02225348692287972,0
2025-04-22T13:11:08.123+03:00,1745316666.526832,40.95226099598197,29.1402868059831,76.34336,-1,-1,-1,-1,30,26.71322490203158,-9999,32422.876257,-0.660797119140625,0.6393280029296875,-0.379608154296875,32422.871219,-0.1302028899637535,-1.050443397064067,-0.6961987968588789,-0.01557493582367897,0.03121606074273586,-0.01314584352076054,0.003270089626312256,-0.003045916557312012,0.001066982746124268,XArbitraryZVertical,-0.3251718441869116,-0.4511334014357462,0.1177619271698254,0.8227235099840896,-0.665730357170105,0.6413057446479797,-0.3814838528633118,0,0,0,-1,-1,32415.617399125,unknown,2,2025-04-22T13:11:00.860+03:00,2025-04-21T17:08:51.449+03:00,7412,1.006994,0,0,6173.501,5,20,2025-04-22T13:10:22.167+03:00,767009460.9675541,0,-21.89,100.4651,1,0.7,2025-04-22T13:09:01.195+03:00,86,1.433333333333333,2025-04-22T09:54:17.825+03:00,0.02225348692287972,0
2025-04-22T13:11:08.134+03:00,1745316666.526832,40.95226099598197,29.1402868059831,76.34336,-1,-1,-1,-1,30,26.71322490203158,-9999,32422.886334,-0.662933349609375,0.64202880859375,-0.3760223388671875,32422.881295,-0.1304224122405122,-1.050248351812513,-0.6961470826486176,-0.006666927132755518,0.03772003203630447,-0.01636693626642227,0.004628241062164307,-0.002945184707641602,0.002174615859985352,XArbitraryZVertical,-0.3252121358985848,-0.4510232535880802,0.1176272518524655,0.8227872338503744,-0.6656847596168518,0.6412660479545593,-0.3816301822662354,0,0,0,-1,-1,32415.617399125,unknown,2,2025-04-22T13:11:00.860+03:00,2025-04-21T17:08:51.449+03:00,7412,1.006994,0,0,6173.501,5,20,2025-04-22T13:10:22.167+03:00,767009460.9675541,0,-21.89,100.4651,1,0.7,2025-04-22T13:09:01.195+03:00,86,1.433333333333333,2025-04-22T09:54:17.825+03:00,0.02225348692287972,0
2025-04-22T13:11:08.144+03:00,1745316666.526832,40.95226099598197,29.1402868059831,76.34336,-1,-1,-1,-1,30,26.71322490203158,-9999,32422.89641,-0.65985107421875,0.64093017578125,-0.376708984375,32422.891372,-0.1306139903918516,-1.050052468957779,-0.6960834622723041,-0.00980646163225174,0.03042330406606197,-0.01121022459119558,0.004375219345092773,-0.0006075501441955566,0.004019081592559814,XArbitraryZVertical,-0.3252413777476096,-0.4509186218431069,0.1175010009205846,0.8228510861876657,-0.6656453609466553,0.6412172317504883,-0.3817808926105499,0,0,0,-1,-1,32415.617399125,unknown,2,2025-04-22T13:11:00.860+03:00,2025-04-21T17:08:51.449+03:00,7412,1.006994,0,0,6173.501,5,20,2025-04-22T13:10:22.167+03:00,767009460.9675541,0,-21.89,100.4651,1,0.7,2025-04-22T13:09:01.195+03:00,86,1.433333333333333,2025-04-22T09:54:17.825+03:00,0.02225348692287972,0
2025-04-22T13:11:08.154+03:00,1745316666.526832,40.95226099598197,29.1402868059831,76.34336,-1,-1,-1,-1,30,26.71322490203158,-9999,32422.906487,-0.6570892333984375,0.63909912109375,-0.37548828125,32422.901448,-0.1308555632326824,-1.049920674228375,-0.696038853838915,-0.01441239845007658,0.0281074196100235,-0.01351838652044535,0.003617286682128906,0.001318752765655518,0.006211519241333008,XArbitraryZVertical,-0.3252857209000439,-0.4508300990499521,0.1173692592432751,0.8229008613493919,-0.6656198501586914,0.6411830186843872,-0.3818828463554382,0,0,0,-1,-1,32415.617399125,unknown,2,2025-04-22T13:11:00.860+03:00,2025-04-21T17:08:51.449+03:00,7412,1.006994,0,0,6173.501,5,20,2025-04-22T13:10:22.167+03:00,767009460.9675541,0,-21.89,100.4651,1,0.7,2025-04-22T13:09:01.195+03:00,86,1.433333333333333,2025-04-22T09:54:17.825+03:00,0.02225348692287972,0
2025-04-22T13:11:08.164+03:00,1745316666.526832,40.95226099598197,29.1402868059831,76.34336,-1,-1,-1,-1,30,26.71322490203158,-9999,32422.916563,-0.65966796875,0.638519287109375,-0.376007080078125,32422.911525,-0.1311604934948622,-1.049849894442459,-0.6960197008682374,-0.0228081475943327,0.02446701005101204,-0.01297676656395197,0.009124636650085449,-0.001428365707397461,0.005333960056304932,XArbitraryZVertical,-0.3253509358751444,-0.4507535196188763,0.1172275930952789,0.8229372226642092,-0.6656034588813782,0.6411682963371277,-0.3819360733032227,0,0,0,-1,-1,32415.617399125,unknown,2,2025-04-22T13:11:00.860+03:00,2025-04-21T17:08:51.449+03:00,7412,1.006994,0,0,6173.501,5,20,2025-04-22T13:10:22.167+03:00,767009460.9675541,0,-21.89,100.4651,1,0.7,2025-04-22T13:09:01.195+03:00,86,1.433333333333333,2025-04-22T09:54:17.825+03:00,0.02225348692287972,0
2025-04-22T13:11:08.174+03:00,1745316666.526832,40.95226099598197,29.1402868059831,76.34336,-1,-1,-1,-1,30,26.71322490203158,-9999,32422.92664,-0.6577911376953125,0.63604736328125,-0.3796234130859375,32422.921602,-0.1314866612068927,-1.049828657674487,-0.6960574330533235,-0.02188323065638542,0.02443372085690498,-0.00903928279876709,0.006242156028747559,-0.002205014228820801,0.00625157356262207,XArbitraryZVertical,-0.3254407839722418,-0.4506874868142582,0.1170991555710254,0.822956164129041,-0.6655744314193726,0.6411972641944885,-0.3819381594657898,0,0,0,-1,-1,32415.617399125,unknown,2,2025-04-22T13:11:00.860+03:00,2025-04-21T17:08:51.449+03:00,7412,1.006994,0,0,6173.501,5,20,2025-04-22T13:10:22.167+03:00,767009460.9675541,0,-21.89,100.4651,1,0.7,2025-04-22T13:09:01.195+03:00,86,1.433333333333333,2025-04-22T09:54:17.825+03:00,0.02225348692287972,0
2025-04-22T13:11:08.184+03:00,1745316666.526832,40.95226099598197,29.1402868059831,76.34336,-1,-1,-1,-1,30,26.71322490203158,-9999,32422.936716,-0.658721923828125,0.6413421630859375,-0.379547119140625,32422.931678,-0.1317832795576228,-1.049772996674428,-0.6960754491843572,-0.02145286463201046,0.02363983169198036,-0.006995439529418945,0.007706224918365479,-0.004614472389221191,0.00379568338394165,XArbitraryZVertical,-0.3255180883173137,-0.4506142939163064,0.1169724537171332,0.8229836861876566,-0.6655431389808655,0.6412110924720764,-0.3819694519042969,0,0,0,-1,-1,32415.617399125,unknown,2,2025-04-22T13:11:00.860+03:00,2025-04-21T17:08:51.449+03:00,7412,1.006994,0,0,6173.501,5,20,2025-04-22T13:10:22.167+03:00,767009460.9675541,0,-21.89,100.4651,1,0.7,2025-04-22T13:09:01.195+03:00,86,1.433333333333333,2025-04-22T09:54:17.825+03:00,0.02225348692287972,0
2025-04-22T13:11:08.194+03:00,1745316666.526832,40.95226099598197,29.1402868059831,76.34336,-1,-1,-1,-1,30,26.71322490203158,-9999,32422.946793,-0.658843994140625,0.6429901123046875,-0.379608154296875,32422.941755,-0.1320365059237792,-1.04970094067855,-0.6960786707582556,-0.01828396879136562,0.02264274470508099,-0.008914779871702194,0.007356524467468262,-0.001702487468719482,0.002118349075317383,XArbitraryZVertical,-0.3255806300849298,-0.4505430556117466,0.1168572945033299,0.8230143462058641,-0.6655138731002808,0.6412135362625122,-0.3820164203643799,0,0,0,-1,-1,32415.617399125,unknown,2,2025-04-22T13:11:00.860+03:00,2025-04-21T17:08:51.449+03:00,7412,1.006994,0,0,6173.501,5,20,2025-04-22T13:10:22.167+03:00,767009460.9675541,0,-21.89,100.4651,1,0.7,2025-04-22T13:09:01.195+03:00,86,1.433333333333333,2025-04-22T09:54:17.825+03:00,0.02225348692287972,0
2025-04-22T13:11:08.217+03:00,1745316666.526832,40.95226099598197,29.1402868059831,76.34336,-1,-1,-1,-1,30,26.71322490203158,-9999,32422.956869,-0.6593017578125,0.6412506103515625,-0.382049560546875,32422.951831,-0.1322894377830373,-1.049639358199994,-0.6960782058352233,-0.0142145911231637,0.02058205753564835,-0.009907040745019913,0.006280303001403809,0.002234578132629395,0.002815574407577515,XArbitraryZVertical,-0.3256410476419893,-0.4504766140583517,0.1167431290973768,0.8230428749409566,-0.665490448474884,0.6412131786346436,-0.3820574581623077,0,0,0,-1,-1,32415.617399125,unknown,2,2025-04-22T13:11:00.860+03:00,2025-04-21T17:08:51.449+03:00,7412,1.006994,0,0,6173.501,5,20,2025-04-22T13:10:22.167+03:00,767009460.9675541,0,-21.89,100.4651,1,0.7,2025-04-22T13:09:01.195+03:00,86,1.433333333333333,2025-04-22T09:54:17.825+03:00,0.02225348692287972,0
2025-04-22T13:11:08.220+03:00,1745316666.526832,40.95226099598197,29.1402868059831,76.34336,-1,-1,-1,-1,30,26.71322490203158,-9999,32422.966946,-0.65936279296875,0.6431732177734375,-0.3819580078125,32422.961908,-0.1325063702921317,-1.049571796803733,-0.696063644766394,-0.01258899830281734,0.02066754549741745,-0.01098428852856159,0.006537258625030518,0.000124812126159668,0.001018881797790527,XArbitraryZVertical,-0.3256880043675527,-0.4504151073473605,0.1166392619818074,0.8230727488085809,-0.6654728055000305,0.6412020325660706,-0.3821071088314056,0,0,0,-1,-1,32415.617399125,unknown,2,2025-04-22T13:11:00.860+03:00,2025-04-21T17:08:51.449+03:00,7412,1.006994,0,0,6173.501,5,20,2025-04-22T13:10:22.167+03:00,767009460.9675541,0,-21.89,100.4651,1,0.7,2025-04-22T13:09:01.195+03:00,86,1.433333333333333,2025-04-22T09:54:17.825+03:00,0.02225348692287972,0
2025-04-22T13:11:08.225+03:00,1745316666.526832,40.95226099598197,29.1402868059831,76.34336,-1,-1,-1,-1,30,26.71322490203158,-9999,32422.977023,-0.6592864990234375,0.642364501953125,-0.37982177734375,32422.971984,-0.1327451343324365,-1.049531993536831,-0.6960733619506033,-0.01697089709341526,0.01971925981342793,-0.008987417444586754,0.006028294563293457,0.001002371311187744,-0.0005599260330200195,XArbitraryZVertical,-0.3257479877196898,-0.4503587563211207,0.1165369072459263,0.8230943199753019,-0.6654521226882935,0.6412094831466675,-0.3821304738521576,0,0,0,-1,-1,32415.617399125,unknown,2,2025-04-22T13:11:00.860+03:00,2025-04-21T17:08:51.449+03:00,7412,1.006994,0,0,6173.501,5,20,2025-04-22T13:10:22.167+03:00,767009460.9675541,0,-21.89,100.4651,1,0.7,2025-04-22T13:09:01.195+03:00,86,1.433333333333333,2025-04-22T09:54:17.825+03:00,0.02225348692287972,0
2025-04-22T13:11:08.234+03:00,1745316666.526832,40.95226099598197,29.1402868059831,76.34336,-1,-1,-1,-1,30,26.71322490203158,-9999,32422.987099,-0.6609344482421875,0.64227294921875,-0.380096435546875,32422.982061,-0.1329896358412679,-1.0495162246564,-0.696095979921279,-0.01442677900195122,0.01745663955807686,-0.008160506375133991,0.007032096385955811,0.001397013664245605,0.001518607139587402,XArbitraryZVertical,-0.3258129977953478,-0.4503098894054419,0.1164392247901834,0.8231092082661873,-0.6654335856437683,0.6412268280982971,-0.3821337819099426,0,0,0,-1,-1,32415.617399125,unknown,2,2025-04-22T13:11:00.860+03:00,2025-04-21T17:08:51.449+03:00,7412,1.006994,0,0,6173.501,5,20,2025-04-22T13:10:22.167+03:00,767009460.9675541,0,-21.89,100.4651,1,0.7,2025-04-22T13:09:01.195+03:00,86,1.433333333333333,2025-04-22T09:54:17.825+03:00,0.02225348692287972,0
2025-04-22T13:11:08.244+03:00,1745316666.526832,40.95226099598197,29.1402868059831,76.34336,-1,-1,-1,-1,30,26.71322490203158,-9999,32422.997176,-0.6598968505859375,0.64227294921875,-0.3822479248046875,32422.992137,-0.1332034630291953,-1.049469532851028,-0.696128550301981,-0.01241542678326368,0.01777049154043198,-0.007708634249866009,0.004295289516448975,0.000914156436920166,0.002515822649002075,XArbitraryZVertical,-0.3258769128054811,-0.4502521959775785,0.1163516266390095,0.8231277621978407,-0.6653975248336792,0.641251802444458,-0.3821544051170349,0,0,0,-1,-1,32415.617399125,unknown,2,2025-04-22T13:11:00.860+03:00,2025-04-21T17:08:51.449+03:00,7412,1.006994,0,0,6173.501,5,20,2025-04-22T13:10:22.167+03:00,767009460.9675541,0,-21.89,100.4651,1,0.7,2025-04-22T13:09:01.195+03:00,86,1.433333333333333,2025-04-22T09:54:17.825+03:00,0.02225348692287972,0
2025-04-22T13:11:08.254+03:00,1745316666.526832,40.95226099598197,29.1402868059831,76.34336,-1,-1,-1,-1,30,26.71322490203158,-9999,32423.007252,-0.6591949462890625,0.641693115234375,-0.38134765625,32423.002214,-0.1333799918002787,-1.049404692252641,-0.6961321107352165,-0.008957578800618649,0.01763653568923473,-0.006068659480661154,0.0048636794090271,0.001521885395050049,0.0002537369728088379,XArbitraryZVertical,-0.325921822199733,-0.4501963238528096,0.1162692335510786,0.8231522886966712,-0.6653708815574646,0.6412545442581177,-0.3821964859962463,0,0,0,-1,-1,32415.617399125,unknown,2,2025-04-22T13:11:00.860+03:00,2025-04-21T17:08:51.449+03:00,7412,1.006994,0,0,6173.501,5,20,2025-04-22T13:10:22.167+03:00,767009460.9675541,0,-21.89,100.4651,1,0.7,2025-04-22T13:09:01.195+03:00,86,1.433333333333333,2025-04-22T09:54:17.825+03:00,0.02225348692287972,0
2025-04-22T13:11:08.265+03:00,1745316666.526832,40.95226099598197,29.1402868059831,76.34336,-1,-1,-1,-1,30,26.71322490203158,-9999,32423.017329,-0.6601715087890625,0.6424560546875,-0.38275146484375,32423.01229,-0.1335066452308533,-1.049296006339987,-0.6961396838320324,-0.007150091230869293,0.01873615384101868,-0.004893939010798931,0.005199432373046875,0.0007683634757995605,0.0003694295883178711,XArbitraryZVertical,-0.3259596788630793,-0.4501301004690151,0.1162012497331591,0.8231831054593195,-0.6653251647949219,0.6412603855133057,-0.3822663724422455,0,0,0,-1,-1,32415.617399125,unknown,2,2025-04-22T13:11:00.860+03:00,2025-04-21T17:08:51.449+03:00,7412,1.006994,0,0,6173.501,5,20,2025-04-22T13:10:22.167+03:00,767009460.9675541,0,-21.89,100.4651,1,0.7,2025-04-22T13:09:01.195+03:00,86,1.433333333333333,2025-04-22T09:54:17.825+03:00,0.02225348692287972,0
2025-04-22T13:11:08.275+03:00,1745316666.526832,40.95226099598197,29.1402868059831,76.34336,-1,-1,-1,-1,30,26.71322490203158,-9999,32423.027405,-0.6587677001953125,0.6418304443359375,-0.3818511962890625,32423.022367,-0.1336304212986196,-1.049189624391323,-0.6961583457417972,-0.01069342717528343,0.01515793055295944,-0.004897401202470064,0.004873692989349365,0.001379728317260742,-0.0003439784049987793,XArbitraryZVertical,-0.3260011757044648,-0.4500640370704311,0.1161375205071546,0.8232118145193739,-0.6652741432189941,0.6412746906280518,-0.3823311924934387,0,0,0,-1,-1,32415.617399125,unknown,2,2025-04-22T13:11:00.860+03:00,2025-04-21T17:08:51.449+03:00,7412,1.006994,0,0,6173.501,5,20,2025-04-22T13:10:22.167+03:00,767009460.9675541,0,-21.89,100.4651,1,0.7,2025-04-22T13:09:01.195+03:00,86,1.433333333333333,2025-04-22T09:54:17.825+03:00,0.02225348692287972,0
2025-04-22T13:11:08.285+03:00,1745316666.526832,40.95226099598197,29.1402868059831,76.34336,-1,-1,-1,-1,30,26.71322490203158,-9999,32423.037482,-0.66046142578125,0.6434173583984375,-0.3827362060546875,32423.032444,-0.1337439936419362,-1.049095485510983,-0.6961881061601698,-0.006120712496340275,0.01517264544963837,-0.004556084051728249,0.006194412708282471,0.0005328655242919922,0.0001211166381835938,XArbitraryZVertical,-0.326044119746962,-0.4500034402594343,0.1160827337205502,0.8232356069276705,-0.6652215123176575,0.6412975192070007,-0.3823842704296112,0,0,0,-1,-1,32415.617399125,unknown,2,2025-04-22T13:11:00.860+03:00,2025-04-21T17:08:51.449+03:00,7412,1.006994,0,0,6173.501,5,20,2025-04-22T13:10:22.167+03:00,767009460.9675541,0,-21.89,100.4651,1,0.7,2025-04-22T13:09:01.195+03:00,86,1.433333333333333,2025-04-22T09:54:17.825+03:00,0.02225348692287972,0
2025-04-22T13:11:08.295+03:00,1745316666.526832,40.95226099598197,29.1402868059831,76.34336,-1,-1,-1,-1,30,26.71322490203158,-9999,32423.047558,-0.661651611328125,0.6426849365234375,-0.3804168701171875,32423.04252,-0.133837239682871,-1.048983166085961,-0.6962011304415779,-0.006375044584274292,0.0148669146001339,-0.002079077763482928,0.006251037120819092,0.001499354839324951,0.0003442466259002686,XArbitraryZVertical,-0.3260768454466333,-0.4499405541578205,0.1160292567982208,0.823264487094631,-0.6651712656021118,0.641307532787323,-0.3824547827243805,0,0,0,-1,-1,32415.617399125,unknown,2,2025-04-22T13:11:00.860+03:00,2025-04-21T17:08:51.449+03:00,7412,1.006994,0,0,6173.501,5,20,2025-04-22T13:10:22.167+03:00,767009460.9675541,0,-21.89,100.4651,1,0.7,2025-04-22T13:09:01.195+03:00,86,1.433333333333333,2025-04-22T09:54:17.825+03:00,0.02225348692287972,0
2025-04-22T13:11:08.305+03:00,1745316666.526832,40.95226099598197,29.1402868059831,76.34336,-1,-1,-1,-1,30,26.71322490203158,-9999,32423.057635,-0.6623077392578125,0.641265869140625,-0.3802947998046875,32423.052597,-0.1339044739315041,-1.048882195875947,-0.696213979670848,-0.003825067775323987,0.0128365196287632,-0.003558730240911245,0.003367185592651367,0.002130448818206787,0.00113976001739502,XArbitraryZVertical,-0.3261029479794738,-0.44988656672543,0.1159882239242333,0.8232895235117971,-0.6651256084442139,0.6413173675537109,-0.3825178742408752,0,0,0,-1,-1,32415.617399125,unknown,2,2025-04-22T13:11:00.860+03:00,2025-04-21T17:08:51.449+03:00,7412,1.006994,0,0,6173.501,5,20,2025-04-22T13:10:22.167+03:00,767009460.9675541,0,-21.89,100.4651,1,0.7,2025-04-22T13:09:01.195+03:00,86,1.433333333333333,2025-04-22T09:54:17.825+03:00,0.02225348692287972,0
2025-04-22T13:11:08.315+03:00,1745316666.526832,40.95226099598197,29.1402868059831,76.34336,-1,-1,-1,-1,30,26.71322490203158,-9999,32423.067711,-0.661224365234375,0.64166259765625,-0.378875732421875,32423.062673,-0.1339612607345111,-1.048761554534763,-0.6962464069926607,-0.004628810100257397,0.01590687781572342,-0.0006550855468958616,0.003440320491790771,0.0004118084907531738,0.002674460411071777,XArbitraryZVertical,-0.3261356966964251,-0.4498240007782164,0.115953114381264,0.8233156737690728,-0.6650614142417908,0.6413422226905823,-0.3825877606868744,0,0,0,-1,-1,32415.617399125,unknown,2,2025-04-22T13:11:00.860+03:00,2025-04-21T17:08:51.449+03:00,7412,1.006994,0,0,6173.501,5,20,2025-04-22T13:10:22.167+03:00,767009460.9675541,0,-21.89,100.4651,1,0.7,2025-04-22T13:09:01.195+03:00,86,1.433333333333333,2025-04-22T09:54:17.825+03:00,0.02225348692287972,0
2025-04-22T13:11:08.325+03:00,1745316666.526832,40.95226099598197,29.1402868059831,76.34336,-1,-1,-1,-1,30,26.71322490203158,-9999,32423.077788,-0.660980224609375,0.6396484375,-0.3789215087890625,32423.07275,-0.1340254754146006,-1.048651322767459,-0.6962655561795448,-0.004478940740227699,0.01320929639041424,-0.0009596513118594885,0.002929747104644775,0.0005650520324707031,0.003611385822296143,XArbitraryZVertical,-0.3261641785065926,-0.4497659861353517,0.1159133640597385,0.8233417400758181,-0.6650086641311646,0.6413569450378418,-0.3826549649238586,0,0,0,-1,-1,32415.617399125,unknown,2,2025-04-22T13:11:00.860+03:00,2025-04-21T17:08:51.449+03:00,7412,1.006994,0,0,6173.501,5,20,2025-04-22T13:10:22.167+03:00,767009460.9675541,0,-21.89,100.4651,1,0.7,2025-04-22T13:09:01.195+03:00,86,1.433333333333333,2025-04-22T09:54:17.825+03:00,0.02225348692287972,0
2025-04-22T13:11:08.335+03:00,1745316666.526832,40.95226099598197,29.1402868059831,76.34336,-1,-1,-1,-1,30,26.71322490203158,-9999,32423.087865,-0.6592864990234375,0.6396484375,-0.3789520263671875,32423.082826,-0.1340929613107412,-1.048533703004569,-0.696293182427085,-0.003963619004935026,0.01491664908826351,-0.005082224495708942,0.004151105880737305,-0.001317739486694336,0.004245340824127197,XArbitraryZVertical,-0.3261972292664888,-0.4497034539583527,0.1158731623714031,0.8233684508427102,-0.6649482846260071,0.6413781642913818,-0.3827243447303772,0,0,0,-1,-1,32415.617399125,unknown,2,2025-04-22T13:11:00.860+03:00,2025-04-21T17:08:51.449+03:00,7412,1.006994,0,0,6173.501,5,20,2025-04-22T13:10:22.167+03:00,767009460.9675541,0,-21.89,100.4651,1,0.7,2025-04-22T13:09:01.195+03:00,86,1.433333333333333,2025-04-22T09:54:17.825+03:00,0.02225348692287972,0
2025-04-22T13:11:08.345+03:00,1745316666.526832,40.95226099598197,29.1402868059831,76.34336,-1,-1,-1,-1,30,26.71322490203158,-9999,32423.097941,-0.65863037109375,0.6397552490234375,-0.3795166015625,32423.092903,-0.1341598247104916,-1.048433744877179,-0.6962838877756635,-0.00346008175984025,0.01113968715071678,-0.003311522305011749,0.004789412021636963,-0.001966774463653564,0.003887534141540527,XArbitraryZVertical,-0.3262143413406084,-0.449652448749382,0.1158270735292483,0.8233959756769342,-0.664915144443512,0.6413710117340088,-0.3827937543392181,0,0,0,-1,-1,32415.617399125,unknown,2,2025-04-22T13:11:00.860+03:00,2025-04-21T17:08:51.449+03:00,7412,1.006994,0,0,6173.501,5,20,2025-04-22T13:10:22.167+03:00,767009460.9675541,0,-21.89,100.4651,1,0.7,2025-04-22T13:09:01.195+03:00,86,1.433333333333333,2025-04-22T09:54:17.825+03:00,0.02225348692287972,0
2025-04-22T13:11:08.355+03:00,1745316666.526832,40.95226099598197,29.1402868059831,76.34336,-1,-1,-1,-1,30,26.71322490203158,-9999,32423.108018,-0.6583251953125,0.6385345458984375,-0.38128662109375,32423.102979,-0.1342157494813712,-1.048337068650274,-0.6962726773947595,-0.003303754143416882,0.0123415719717741,-0.003777841571718454,0.005674123764038086,-0.001744627952575684,0.00313141942024231,XArbitraryZVertical,-0.3262280380222509,-0.449604796199483,0.1157855613683508,0.8234223536491088,-0.6648842692375183,0.6413624286651611,-0.3828615844249725,0,0,0,-1,-1,32415.617399125,unknown,2,2025-04-22T13:11:00.860+03:00,2025-04-21T17:08:51.449+03:00,7412,1.006994,0,0,6173.501,5,20,2025-04-22T13:10:22.167+03:00,767009460.9675541,0,-21.89,100.4651,1,0.7,2025-04-22T13:09:01.195+03:00,86,1.433333333333333,2025-04-22T09:54:17.825+03:00,0.02225348692287972,0
2025-04-22T13:11:08.365+03:00,1745316666.526832,40.95226099598197,29.1402868059831,76.34336,-1,-1,-1,-1,30,26.71322490203158,-9999,32423.118094,-0.65869140625,0.637969970703125,-0.3831787109375,32423.113056,-0.1342817712590364,-1.048272042944344,-0.6962795828553298,-0.005524630658328533,0.008767010644078255,-0.003728073788806796,0.006148934364318848,-0.002161860466003418,0.002226412296295166,XArbitraryZVertical,-0.3262493961453136,-0.4495664690748522,0.1157494416451128,0.8234399421770321,-0.6648555994033813,0.6413676738739014,-0.3829026520252228,0,0,0,-1,-1,32415.617399125,unknown,2,2025-04-22T13:11:00.860+03:00,2025-04-21T17:08:51.449+03:00,7412,1.006994,0,0,6173.501,5,20,2025-04-22T13:10:22.167+03:00,767009460.9675541,0,-21.89,100.4651,1,0.7,2025-04-22T13:09:01.195+03:00,86,1.433333333333333,2025-04-22T09:54:17.825+03:00,0.02225348692287972,0
2025-04-22T13:11:08.375+03:00,1745316666.526832,40.95226099598197,29.1402868059831,76.34336,-1,-1,-1,-1,30,26.71322490203158,-9999,32423.128171,-0.6584014892578125,0.638336181640625,-0.3824920654296875,32423.123132,-0.1344087135121019,-1.048280517467375,-0.6963145871857243,-0.01053270511329174,0.005239653866738081,-0.002565870294347405,0.006712555885314941,-0.003912925720214844,0.0003327131271362305,XArbitraryZVertical,-0.326291458558517,-0.4495453184332436,0.1157071361069351,0.8234407347630772,-0.6648393273353577,0.6413945555686951,-0.3828857839107513,0,0,0,-1,-1,32415.617399125,unknown,2,2025-04-22T13:11:00.860+03:00,2025-04-21T17:08:51.449+03:00,7412,1.006994,0,0,6173.501,5,20,2025-04-22T13:10:22.167+03:00,767009460.9675541,0,-21.89,100.4651,1,0.7,2025-04-22T13:09:01.195+03:00,86,1.433333333333333,2025-04-22T09:54:17.825+03:00,0.02225348692287972,0
2025-04-22T13:11:08.385+03:00,1745316666.526832,40.95226099598197,29.1402868059831,76.34336,-1,-1,-1,-1,30,26.71322490203158,-9999,32423.138247,-0.65740966796875,0.63714599609375,-0.38177490234375,32423.133209,-0.1345498010439223,-1.048342209192016,-0.6963389653439763,-0.01279312931001186,0.0001597404479980469,-0.006314103491604328,0.006112277507781982,-0.002665221691131592,-0.0002043545246124268,XArbitraryZVertical,-0.3263293616845883,-0.4495449571753868,0.1156650794983356,0.8234318132891858,-0.6648494005203247,0.6414132714271545,-0.3828369677066803,0,0,0,-1,-1,32415.617399125,unknown,2,2025-04-22T13:11:00.860+03:00,2025-04-21T17:08:51.449+03:00,7412,1.006994,0,0,6173.501,5,20,2025-04-22T13:10:22.167+03:00,767009460.9675541,0,-21.89,100.4651,1,0.7,2025-04-22T13:09:01.195+03:00,86,1.433333333333333,2025-04-22T09:54:17.825+03:00,0.02225348692287972,0
2025-04-22T13:11:08.396+03:00,1745316666.526832,40.95226099598197,29.1402868059831,76.34336,-1,-1,-1,-1,30,26.71322490203158,-9999,32423.148324,-0.65863037109375,0.6400604248046875,-0.380706787109375,32423.143286,-0.1347299812661131,-1.048459897240407,-0.6963536154448552,-0.01269166357815266,0.001780007500201464,-0.006827028002589941,0.007308840751647949,-0.003271520137786865,0.0004146099090576172,XArbitraryZVertical,-0.3263689191503443,-0.4495623595900285,0.1156136823230574,0.8234138588212929,-0.6648863554000854,0.6414244771003723,-0.3827540278434753,0,0,0,-1,-1,32415.617399125,unknown,2,2025-04-22T13:11:00.860+03:00,2025-04-21T17:08:51.449+03:00,7412,1.006994,0,0,6173.501,5,20,2025-04-22T13:10:22.167+03:00,767009460.9675541,0,-21.89,100.4651,1,0.7,2025-04-22T13:09:01.195+03:00,86,1.433333333333333,2025-04-22T09:54:17.825+03:00,0.02225348692287972,0
2025-04-22T13:11:08.406+03:00,1745316666.526832,40.95226099598197,29.1402868059831,76.34336,-1,-1,-1,-1,30,26.71322490203158,-9999,32423.1584,-0.659423828125,0.641082763671875,-0.379547119140625,32423.153362,-0.1349510486756361,-1.048612300660627,-0.6963738828179121,-0.01602014899253845,-0.001008388586342335,-0.008584215305745602,0.006669223308563232,-0.003256559371948242,0.0009323358535766602,XArbitraryZVertical,-0.3264179172080859,-0.4495867456998174,0.1155525024598377,0.8233897025678715,-0.6649333834648132,0.6414400339126587,-0.3826462030410767,0,0,0,-1,-1,32415.617399125,unknown,2,2025-04-22T13:11:00.860+03:00,2025-04-21T17:08:51.449+03:00,7412,1.006994,0,0,6173.501,5,20,2025-04-22T13:10:22.167+03:00,767009460.9675541,0,-21.89,100.4651,1,0.7,2025-04-22T13:09:01.195+03:00,86,1.433333333333333,2025-04-22T09:54:17.825+03:00,0.02225348692287972,0
2025-04-22T13:11:08.416+03:00,1745316666.526832,40.95226099598197,29.1402868059831,76.34336,-1,-1,-1,-1,30,26.71322490203158,-9999,32423.168477,-0.6627349853515625,0.6401214599609375,-0.3795318603515625,32423.163439,-0.1351800707573215,-1.048794542079046,-0.6963971559198163,-0.01702149771153927,-0.003309892024844885,-0.008370363153517246,0.00632929801940918,-0.000131070613861084,0.003092586994171143,XArbitraryZVertical,-0.3264681846519277,-0.4496217656761905,0.1154936519664557,0.8233589224902761,-0.6649901866912842,0.6414579153060913,-0.3825175762176514,0,0,0,-1,-1,32415.617399125,unknown,2,2025-04-22T13:11:00.860+03:00,2025-04-21T17:08:51.449+03:00,7412,1.006994,0,0,6173.501,5,20,2025-04-22T13:10:22.167+03:00,767009460.9675541,0,-21.89,100.4651,1,0.7,2025-04-22T13:09:01.195+03:00,86,1.433333333333333,2025-04-22T09:54:17.825+03:00,0.02225348692287972,0
2025-04-22T13:11:08.426+03:00,1745316666.526832,40.95226099598197,29.1402868059831,76.34336,-1,-1,-1,-1,30,26.71322490203158,-9999,32423.178554,-0.6603240966796875,0.6400909423828125,-0.3793792724609375,32423.173515,-0.1354575016133087,-1.049001334936976,-0.6964246757843581,-0.01894130371510983,-0.0001933947205543518,-0.008636113256216049,0.003493964672088623,-0.0009304285049438477,0.002869933843612671,XArbitraryZVertical,-0.3265296338260174,-0.4496585063252995,0.1154199437148512,0.8233248105134665,-0.6650539636611938,0.6414790153503418,-0.3823712468147278,0,0,0,-1,-1,32415.617399125,unknown,2,2025-04-22T13:11:00.860+03:00,2025-04-21T17:08:51.449+03:00,7412,1.006994,0,0,6173.501,5,20,2025-04-22T13:10:22.167+03:00,767009460.9675541,0,-21.89,100.4651,1,0.7,2025-04-22T13:09:01.195+03:00,86,1.433333333333333,2025-04-22T09:54:17.825+03:00,0.02225348692287972,0
2025-04-22T13:11:08.436+03:00,1745316666.526832,40.95226099598197,29.1402868059831,76.34336,-1,-1,-1,-1,30,26.71322490203158,-9999,32423.18863,-0.66033935546875,0.6387786865234375,-0.381103515625,32423.183592,-0.1357259978579093,-1.049169514494394,-0.696484794256804,-0.02025770395994186,0.001289186999201775,-0.006147922016680241,0.0040283203125,-0.001068055629730225,0.002891480922698975,XArbitraryZVertical,-0.3266043437681874,-0.449677110143653,0.1153515849889848,0.823294623021409,-0.6650848388671875,0.6415251493453979,-0.3822402060031891,0,0,0,-1,-1,32415.617399125,unknown,2,2025-04-22T13:11:00.860+03:00,2025-04-21T17:08:51.449+03:00,7412,1.006994,0,0,6173.501,5,20,2025-04-22T13:10:22.167+03:00,767009460.9675541,0,-21.89,100.4651,1,0.7,2025-04-22T13:09:01.195+03:00,86,1.433333333333333,2025-04-22T09:54:17.825+03:00,0.02225348692287972,0
2025-04-22T13:11:08.446+03:00,1745316666.526832,40.95226099598197,29.1402868059831,76.34336,-1,-1,-1,-1,30,26.71322490203158,-9999,32423.198707,-0.6617431640625,0.6407928466796875,-0.380859375,32423.193668,-0.1360081811912993,-1.049347659215057,-0.6965217022795011,-0.01966914534568787,0.001574145164340734,-0.007300271652638912,0.005617022514343262,-0.002729058265686035,0.001296341419219971,XArbitraryZVertical,-0.3266722786745402,-0.4497001848016859,0.1152735496076742,0.8232660202721305,-0.6651324033737183,0.6415534615516663,-0.3821099400520325,0,0,0,-1,-1,32415.617399125,unknown,2,2025-04-22T13:11:00.860+03:00,2025-04-21T17:08:51.449+03:00,7412,1.006994,0,0,6173.501,5,20,2025-04-22T13:10:22.167+03:00,767009460.9675541,0,-21.89,100.4651,1,0.7,2025-04-22T13:09:01.195+03:00,86,1.433333333333333,2025-04-22T09:54:17.825+03:00,0.02225348692287972,0
2025-04-22T13:11:08.456+03:00,1745316666.526832,40.95226099598197,29.1402868059831,76.34336,-1,-1,-1,-1,30,26.71322490203158,-9999,32423.208783,-0.6620025634765625,0.641387939453125,-0.3807525634765625,32423.203745,-0.1362500235223401,-1.049477467130036,-0.6965500535046424,-0.01683154702186584,0.000434845220297575,-0.01052828878164291,0.004430174827575684,-0.001881062984466553,0.001139938831329346,XArbitraryZVertical,-0.3267305146235724,-0.4497109068087795,0.1152021417813115,0.8232470655470784,-0.6651662588119507,0.6415752172470093,-0.3820145428180695,0,0,0,-1,-1,32415.617399125,unknown,2,2025-04-22T13:11:00.860+03:00,2025-04-21T17:08:51.449+03:00,7412,1.006994,0,0,6173.501,5,20,2025-04-22T13:10:22.167+03:00,767009460.9675541,0,-21.89,100.4651,1,0.7,2025-04-22T13:09:01.195+03:00,86,1.433333333333333,2025-04-22T09:54:17.825+03:00,0.02225348692287972,0
2025-04-22T13:11:08.466+03:00,1745316666.526832,40.95226099598197,29.1402868059831,76.34336,-1,-1,-1,-1,30,26.71322490203158,-9999,32423.21886,-0.6620941162109375,0.641448974609375,-0.3818511962890625,32423.213821,-0.136476150012554,-1.049584479651442,-0.6965437652602164,-0.01537932455539703,0.004049819894134998,-0.0078309066593647,0.003421664237976074,-0.0002282857894897461,0.001482725143432617,XArbitraryZVertical,-0.3267726901168493,-0.4497187275114136,0.1151250174485061,0.8232368159354817,-0.6652106046676636,0.6415703892707825,-0.3819453418254852,0,0,0,-1,-1,32415.617399125,unknown,2,2025-04-22T13:11:00.860+03:00,2025-04-21T17:08:51.449+03:00,7412,1.006994,0,0,6173.501,5,20,2025-04-22T13:10:22.167+03:00,767009460.9675541,0,-21.89,100.4651,1,0.7,2025-04-22T13:09:01.195+03:00,86,1.433333333333333,2025-04-22T09:54:17.825+03:00,0.02225348692287972,0
2025-04-22T13:11:08.476+03:00,1745316666.526832,40.95226099598197,29.1402868059831,76.34336,-1,-1,-1,-1,30,26.71322490203158,-9999,32423.228936,-0.66015625,0.6400909423828125,-0.383453369140625,32423.223898,-0.1366879727469726,-1.049691913348845,-0.6965478813332217,-0.01150655653327703,0.0004758578725159168,-0.01069247256964445,0.002758502960205078,0.0006535649299621582,-0.0005584359169006348,XArbitraryZVertical,-0.3268157876812464,-0.4497278745825283,0.1150563958867685,0.8232242924097384,-0.6652493476867676,0.6415735483169556,-0.3818725645542145,0,0,0,-1,-1,32415.617399125,unknown,2,2025-04-22T13:11:00.860+03:00,2025-04-21T17:08:51.449+03:00,7412,1.006994,0,0,6173.501,5,20,2025-04-22T13:10:22.167+03:00,767009460.9675541,0,-21.89,100.4651,1,0.7,2025-04-22T13:09:01.195+03:00,86,1.433333333333333,2025-04-22T09:54:17.825+03:00,0.02225348692287972,0
2025-04-22T13:11:08.486+03:00,1745316666.526832,40.95226099598197,29.1402868059831,76.34336,-1,-1,-1,-1,30,26.71322490203158,-9999,32423.239013,-0.6603240966796875,0.6404571533203125,-0.382293701171875,32423.233975,-0.1368944046986786,-1.049798196721091,-0.6965285444908245,-0.0110526205971837,0.002054180251434445,-0.01077802758663893,0.003984749317169189,-0.0004607439041137695,-0.0006992816925048828,XArbitraryZVertical,-0.3268483689119157,-0.4497400802830375,0.1149840689679913,0.823214764981877,-0.6653006672859192,0.6415587067604065,-0.3818080127239227,0,0,0,-1,-1,32415.617399125,unknown,2,2025-04-22T13:11:00.860+03:00,2025-04-21T17:08:51.449+03:00,7412,1.006994,0,0,6173.501,5,20,2025-04-22T13:10:22.167+03:00,767009460.9675541,0,-21.89,100.4651,1,0.7,2025-04-22T13:09:01.195+03:00,86,1.433333333333333,2025-04-22T09:54:17.825+03:00,0.02225348692287972,0
2025-04-22T13:11:08.496+03:00,1745316666.526832,40.95226099598197,29.1402868059831,76.34336,-1,-1,-1,-1,30,26.71322490203158,-9999,32423.249089,-0.6634521484375,0.6421051025390625,-0.382476806640625,32423.244051,-0.1370927890521409,-1.049903852961499,-0.6965052586875754,-0.01065394561737776,0.001168945338577032,-0.01103235967457294,0.005350351333618164,-0.002045094966888428,-0.001464039087295532,XArbitraryZVertical,-0.3268775954051008,-0.4497537811049537,0.1149139728494309,0.8232054645093938,-0.6653539538383484,0.6415408253669739,-0.3817451596260071,0,0,0,-1,-1,32415.617399125,unknown,2,2025-04-22T13:11:00.860+03:00,2025-04-21T17:08:51.449+03:00,7412,1.006994,0,0,6173.501,5,20,2025-04-22T13:10:22.167+03:00,767009460.9675541,0,-21.89,100.4651,1,0.7,2025-04-22T13:09:01.195+03:00,86,1.433333333333333,2025-04-22T09:54:17.825+03:00,0.02225348692287972,0
2025-04-22T13:11:08.506+03:00,1745316666.526832,40.95226099598197,29.1402868059831,76.34336,-1,-1,-1,-1,30,26.71322490203158,-9999,32423.259166,-0.6658935546875,0.64154052734375,-0.3814239501953125,32423.254128,-0.1372947836448352,-1.050023735584474,-0.6964677481218963,-0.009982229210436344,0.0002454277127981186,-0.01217881683260202,0.0030670166015625,0.0008217692375183105,-0.0003416538238525391,XArbitraryZVertical,-0.326901152781109,-0.4497743700565326,0.1148412631411485,0.8231949330374064,-0.6654204726219177,0.6415120363235474,-0.3816772997379303,0,0,0,-1,-1,32415.617399125,unknown,2,2025-04-22T13:11:00.860+03:00,2025-04-21T17:08:51.449+03:00,7412,1.006994,0,0,6173.501,5,20,2025-04-22T13:10:22.167+03:00,767009460.9675541,0,-21.89,100.4651,1,0.7,2025-04-22T13:09:01.195+03:00,86,1.433333333333333,2025-04-22T09:54:17.825+03:00,0.02225348692287972,0
2025-04-22T13:11:08.517+03:00,1745316666.526832,40.95226099598197,29.1402868059831,76.34336,-1,-1,-1,-1,30,26.71322490203158,-9999,32423.269243,-0.6651458740234375,0.6394500732421875,-0.38140869140625,32423.264204,-0.1375177099930586,-1.050143533085258,-0.6964169653030793,-0.01030606962740421,0.00256557366810739,-0.01444223709404469,0.0007606744766235352,0.0002962350845336914,-0.0005882978439331055,XArbitraryZVertical,-0.3269240906011387,-0.4497929783700191,0.114756613623159,0.8231875214293973,-0.6654945015907288,0.641473114490509,-0.3816138207912445,0,0,0,-1,-1,32415.617399125,unknown,2,2025-04-22T13:11:00.860+03:00,2025-04-21T17:08:51.449+03:00,7412,1.006994,0,0,6173.501,5,20,2025-04-22T13:10:22.167+03:00,767009460.9675541,0,-21.89,100.4651,1,0.7,2025-04-22T13:09:01.195+03:00,86,1.433333333333333,2025-04-22T09:54:17.825+03:00,0.02225348692287972,0
2025-04-22T13:11:08.527+03:00,1745316666.526832,40.95226099598197,29.1402868059831,76.34336,-1,-1,-1,-1,30,26.71322490203158,-9999,32423.279319,-0.6645050048828125,0.641265869140625,-0.38037109375,32423.274281,-0.1376918938247146,-1.050208243037678,-0.6963443019402737,-0.008232931606471539,0.005758038256317377,-0.01334401592612267,0.0004901289939880371,-0.001418113708496094,-5.879998207092285e-05,XArbitraryZVertical,-0.3269304980223126,-0.4497993700514694,0.1146776795897528,0.8231924886870975,-0.6655596494674683,0.641417384147644,-0.3815939426422119,0,0,0,-1,-1,32415.617399125,unknown,2,2025-04-22T13:11:00.860+03:00,2025-04-21T17:08:51.449+03:00,7412,1.006994,0,0,6173.501,5,20,2025-04-22T13:10:22.167+03:00,767009460.9675541,0,-21.89,100.4651,1,0.7,2025-04-22T13:09:01.195+03:00,86,1.433333333333333,2025-04-22T09:54:17.825+03:00,0.02225348692287972,0
2025-04-22T13:11:08.537+03:00,1745316666.526832,40.95226099598197,29.1402868059831,76.34336,-1,-1,-1,-1,30,26.71322490203158,-9999,32423.289396,-0.66204833984375,0.639923095703125,-0.38055419921875,32423.284357,-0.137887470984356,-1.050270560482719,-0.6962775512439872,-0.01076453272253275,0.006613179109990597,-0.01386120170354843,0.0001542568206787109,-0.0007413029670715332,0.001156896352767944,XArbitraryZVertical,-0.3269442373061417,-0.449800623889398,0.1145910241156751,0.823198354533605,-0.6656205058097839,0.6413661241531372,-0.3815737366676331,0,0,0,-1,-1,32415.617399125,unknown,2,2025-04-22T13:11:00.860+03:00,2025-04-21T17:08:51.449+03:00,7412,1.006994,0,0,6173.501,5,20,2025-04-22T13:10:22.167+03:00,767009460.9675541,0,-21.89,100.4651,1,0.7,2025-04-22T13:09:01.195+03:00,86,1.433333333333333,2025-04-22T09:54:17.825+03:00,0.02225348692287972,0
2025-04-22T13:11:08.547+03:00,1745316666.526832,40.95226099598197,29.1402868059831,76.34336,-1,-1,-1,-1,30,26.71322490203158,-9999,32423.299472,-0.662506103515625,0.63665771484375,-0.3802642822265625,32423.294434,-0.1381137722784395,-1.050325123320106,-0.6962316641008583,-0.01120055932551622,0.007615526206791401,-0.01395484525710344,0.00252002477645874,-0.0006754398345947266,0.00163877010345459,XArbitraryZVertical,-0.3269736254938623,-0.449791259341578,0.1144954816172553,0.8232052404664874,-0.6656670570373535,0.6413309574127197,-0.381552129983902,0,0,0,-1,-1,32415.617399125,unknown,2,2025-04-22T13:11:00.860+03:00,2025-04-21T17:08:51.449+03:00,7412,1.006994,0,0,6173.501,5,20,2025-04-22T13:10:22.167+03:00,767009460.9675541,0,-21.89,100.4651,1,0.7,2025-04-22T13:09:01.195+03:00,86,1.433333333333333,2025-04-22T09:54:17.825+03:00,0.02225348692287972,0
2025-04-22T13:11:08.557+03:00,1745316666.526832,40.95226099598197,29.1402868059831,76.34336,-1,-1,-1,-1,30,26.71322490203158,-9999,32423.309549,-0.6629180908203125,0.6403656005859375,-0.381072998046875,32423.304511,-0.1383402026498696,-1.050385135413235,-0.6961905012981016,-0.01395453419536352,0.005247976165264845,-0.01245601754635572,0.003298282623291016,-0.004351794719696045,0.001047432422637939,XArbitraryZVertical,-0.3270046570902513,-0.4497836076309518,0.1144019966810294,0.8232100937844615,-0.665712833404541,0.6412993669509888,-0.3815253078937531,0,0,0,-1,-1,32415.617399125,unknown,2,2025-04-22T13:11:00.860+03:00,2025-04-21T17:08:51.449+03:00,7412,1.006994,0,0,6173.501,5,20,2025-04-22T13:10:22.167+03:00,767009460.9675541,0,-21.89,100.4651,1,0.7,2025-04-22T13:09:01.195+03:00,86,1.433333333333333,2025-04-22T09:54:17.825+03:00,0.02225348692287972,0
2025-04-22T13:11:08.567+03:00,1745316666.526832,40.95226099598197,29.1402868059831,76.34336,-1,-1,-1,-1,30,26.71322490203158,-9999,32423.319625,-0.6614990234375,0.64080810546875,-0.382659912109375,32423.314587,-0.1385658325275478,-1.050464960811043,-0.6961508393593192,-0.011918680742383,0.004608417861163616,-0.01442722417414188,0.002068996429443359,-0.002383589744567871,0.0005491673946380615,XArbitraryZVertical,-0.3270350028112666,-0.4497840892976336,0.1143124907985207,0.8232101119545263,-0.6657652258872986,0.6412689089775085,-0.3814847469329834,0,0,0,-1,-1,32415.617399125,unknown,2,2025-04-22T13:11:00.860+03:00,2025-04-21T17:08:51.449+03:00,7412,1.006994,0,0,6173.501,5,20,2025-04-22T13:10:22.167+03:00,767009460.9675541,0,-21.89,100.4651,1,0.7,2025-04-22T13:09:01.195+03:00,86,1.433333333333333,2025-04-22T09:54:17.825+03:00,0.02225348692287972,0
2025-04-22T13:11:08.577+03:00,1745316666.526832,40.95226099598197,29.1402868059831,76.34336,-1,-1,-1,-1,30,26.71322490203158,-9999,32423.329702,-0.6628875732421875,0.64080810546875,-0.382354736328125,32423.324664,-0.1387688769576143,-1.050531839666975,-0.696088480353575,-0.009942615404725075,0.004346096888184547,-0.01307487115263939,0.004219710826873779,0.000334620475769043,-0.0003299713134765625,XArbitraryZVertical,-0.3270518917590928,-0.449785471803098,0.1142245101818682,0.8232149614951695,-0.6658255457878113,0.6412210464477539,-0.3814601898193359,0,0,0,-1,-1,32415.617399125,unknown,2,2025-04-22T13:11:00.860+03:00,2025-04-21T17:08:51.449+03:00,7412,1.006994,0,0,6173.501,5,20,2025-04-22T13:10:22.167+03:00,767009460.9675541,0,-21.89,100.4651,1,0.7,2025-04-22T13:09:01.195+03:00,86,1.433333333333333,2025-04-22T09:54:17.825+03:00,0.02225348692287972,0
2025-04-22T13:11:08.587+03:00,1745316666.526832,40.95226099598197,29.1402868059831,76.34336,-1,-1,-1,-1,30,26.71322490203158,-9999,32423.339778,-0.660064697265625,0.6405029296875,-0.381805419921875,32423.33474,-0.138978260424414,-1.050615478240984,-0.6960287125277758,-0.01136081479489803,0.004579855594784021,-0.01433923933655024,0.003903448581695557,-0.001221656799316406,-0.0005039572715759277,XArbitraryZVertical,-0.3270703143133555,-0.4497924422984149,0.11413733886307,0.8232159242795772,-0.6658907532691956,0.6411752104759216,-0.3814235329627991,0,0,0,-1,-1,32415.617399125,unknown,2,2025-04-22T13:11:00.860+03:00,2025-04-21T17:08:51.449+03:00,7412,1.006994,0,0,6173.501,5,20,2025-04-22T13:10:22.167+03:00,767009460.9675541,0,-21.89,100.4651,1,0.7,2025-04-22T13:09:01.195+03:00,86,1.433333333333333,2025-04-22T09:54:17.825+03:00,0.02225348692287972,0
2025-04-22T13:11:08.597+03:00,1745316666.526832,40.95226099598197,29.1402868059831,76.34336,-1,-1,-1,-1,30,26.71322490203158,-9999,32423.349855,-0.6609344482421875,0.638763427734375,-0.3813018798828125,32423.344817,-0.1392000400289289,-1.050674565937367,-0.6959736924221162,-0.01399734430015087,0.009122676216065884,-0.01343749277293682,0.004002273082733154,-0.0006911754608154297,8.285045623779297e-06,XArbitraryZVertical,-0.3270948398096374,-0.4497867508462899,0.1140422349971531,0.8232224200648766,-0.6659438014030457,0.6411330103874207,-0.3814016878604889,0,0,0,-1,-1,32415.617399125,unknown,2,2025-04-22T13:11:00.860+03:00,2025-04-21T17:08:51.449+03:00,7412,1.006994,0,0,6173.501,5,20,2025-04-22T13:10:22.167+03:00,767009460.9675541,0,-21.89,100.4651,1,0.7,2025-04-22T13:09:01.195+03:00,86,1.433333333333333,2025-04-22T09:54:17.825+03:00,0.02225348692287972,0
2025-04-22T13:11:08.607+03:00,1745316666.526832,40.95226099598197,29.1402868059831,76.34336,-1,-1,-1,-1,30,26.71322490203158,-9999,32423.359932,-0.6638031005859375,0.6374664306640625,-0.3821258544921875,32423.354893,-0.1394374825118399,-1.050747509096173,-0.6959163996921803,-0.01386305503547192,0.006562379188835621,-0.01403201092034578,0.00680851936340332,-0.002005219459533691,-0.0002661943435668945,XArbitraryZVertical,-0.3271211908634715,-0.4497844569575055,0.1139423871074032,0.8232269879454547,-0.6660034656524658,0.6410890221595764,-0.3813713490962982,0,0,0,-1,-1,32415.617399125,unknown,2,2025-04-22T13:11:00.860+03:00,2025-04-21T17:08:51.449+03:00,7412,1.006994,0,0,6173.501,5,20,2025-04-22T13:10:22.167+03:00,767009460.9675541,0,-21.89,100.4651,1,0.7,2025-04-22T13:09:01.195+03:00,86,1.433333333333333,2025-04-22T09:54:17.825+03:00,0.02225348692287972,0
2025-04-22T13:11:08.617+03:00,1745316666.526832,40.95226099598197,29.1402868059831,76.34336,-1,-1,-1,-1,30,26.71322490203158,-9999,32423.370008,-0.661956787109375,0.63616943359375,-0.382781982421875,32423.36497,-0.139728826145866,-1.050872825470875,-0.6958980129331688,-0.0214831568300724,0.00745693501085043,-0.01068015582859516,0.002807736396789551,-0.003608584403991699,-0.0009083449840545654,XArbitraryZVertical,-0.3271722307885284,-0.4497904752167018,0.1138384583215333,0.8232177797499699,-0.6660614609718323,0.6410748958587646,-0.3812937140464783,0,0,0,-1,-1,32415.617399125,unknown,2,2025-04-22T13:11:00.860+03:00,2025-04-21T17:08:51.449+03:00,7412,1.006994,0,0,6173.501,5,20,2025-04-22T13:10:22.167+03:00,767009460.9675541,0,-21.89,100.4651,1,0.7,2025-04-22T13:09:01.195+03:00,86,1.433333333333333,2025-04-22T09:54:17.825+03:00,0.02225348692287972,0
2025-04-22T13:11:08.627+03:00,1745316666.526832,40.95226099598197,29.1402868059831,76.34336,-1,-1,-1,-1,30,26.71322490203158,-9999,32423.380085,-0.66259765625,0.6387176513671875,-0.38226318359375,32423.375046,-0.1400516317899931,-1.050994988810923,-0.69593558630505,-0.02064239606261253,0.007958674803376198,-0.008901963941752911,0.003657400608062744,-0.005010724067687988,-0.001642554998397827,XArbitraryZVertical,-0.3272528871867421,-0.4497836669382135,0.113734789597402,0.8232037964038555,-0.6660871505737305,0.6411037445068359,-0.3812004029750824,0,0,0,-1,-1,32415.617399125,unknown,2,2025-04-22T13:11:00.860+03:00,2025-04-21T17:08:51.449+03:00,7412,1.006994,0,0,6173.501,5,20,2025-04-22T13:10:22.167+03:00,767009460.9675541,0,-21.89,100.4651,1,0.7,2025-04-22T13:09:01.195+03:00,86,1.433333333333333,2025-04-22T09:54:17.825+03:00,0.02225348692287972,0
2025-04-22T13:11:08.637+03:00,1745316666.526832,40.95226099598197,29.1402868059831,76.34336,-1,-1,-1,-1,30,26.71322490203158,-9999,32423.390161,-0.658782958984375,0.6410064697265625,-0.3781280517578125,32423.385123,-0.1403634444767449,-1.051123155347174,-0.6959411161608386,-0.02079313062131405,0.005113353487104177,-0.0127235995605588,0.003672659397125244,-0.003901064395904541,-0.001271933317184448,XArbitraryZVertical,-0.3273179442995354,-0.4497847713907892,0.1136287935765597,0.8231919317008233,-0.666132926940918,0.641107976436615,-0.3811132311820984,0,0,0,-1,-1,32415.617399125,unknown,2,2025-04-22T13:11:00.860+03:00,2025-04-21T17:08:51.449+03:00,7412,1.006994,0,0,6173.501,5,20,2025-04-22T13:10:22.167+03:00,767009460.9675541,0,-21.89,100.4651,1,0.7,2025-04-22T13:09:01.195+03:00,86,1.433333333333333,2025-04-22T09:54:17.825+03:00,0.02225348692287972,0
2025-04-22T13:11:08.648+03:00,1745316666.526832,40.95226099598197,29.1402868059831,76.34336,-1,-1,-1,-1,30,26.71322490203158,-9999,32423.400238,-0.6621551513671875,0.639312744140625,-0.3748016357421875,32423.3952,-0.1406913215638214,-1.05129411026427,-0.6959290536049468,-0.02047861181199551,0.003278967924416065,-0.01564881578087807,0.00572812557220459,-0.001129984855651855,0.0006932318210601807,XArbitraryZVertical,-0.3273771524019735,-0.4498028417659626,0.1135188559910146,0.8231736914527792,-0.6662047505378723,0.6410987377166748,-0.381003201007843,0,0,0,-1,-1,32415.617399125,unknown,2,2025-04-22T13:11:00.860+03:00,2025-04-21T17:08:51.449+03:00,7412,1.006994,0,0,6173.501,5,20,2025-04-22T13:10:22.167+03:00,767009460.9675541,0,-21.89,100.4651,1,0.7,2025-04-22T13:09:01.195+03:00,86,1.433333333333333,2025-04-22T09:54:17.825+03:00,0.02225348692287972,0
2025-04-22T13:11:08.657+03:00,1745316666.526832,40.95226099598197,29.1402868059831,76.34336,-1,-1,-1,-1,30,26.71322490203158,-9999,32423.410314,-0.6604461669921875,0.6332550048828125,-0.37689208984375,32423.405276,-0.1410593654910816,-1.051494774985803,-0.6959144603262075,-0.02688671089708805,0.005039850249886513,-0.0157737173140049,0.005705833435058594,-8.118152618408203e-05,0.004973948001861572,XArbitraryZVertical,-0.3274427243495317,-0.4498268519834199,0.1133966586246854,0.823151290712671,-0.6662892699241638,0.641087532043457,-0.3808741271495819,0,0,0,-1,-1,32415.617399125,unknown,2,2025-04-22T13:11:00.860+03:00,2025-04-21T17:08:51.449+03:00,7412,1.006994,0,0,6173.501,5,20,2025-04-22T13:10:22.167+03:00,767009460.9675541,0,-21.89,100.4651,1,0.7,2025-04-22T13:09:01.195+03:00,86,1.433333333333333,2025-04-22T09:54:17.825+03:00,0.02225348692287972,0
2025-04-22T13:11:08.668+03:00,1745316666.526832,40.95226099598197,29.1402868059831,76.34336,-1,-1,-1,-1,30,26.71322490203158,-9999,32423.420391,-0.6565399169921875,0.635101318359375,-0.376922607421875,32423.415353,-0.1414990489470267,-1.051723823239012,-0.6959276190400836,-0.03456433862447739,0.004703759215772152,-0.01675509288907051,0.004641413688659668,-0.006881356239318848,0.00559532642364502,XArbitraryZVertical,-0.3275338618740701,-0.4498475983200741,0.1132563785113901,0.8231231456914789,-0.6663693189620972,0.6410976052284241,-0.3807174265384674,0,0,0,-1,-1,32415.617399125,unknown,2,2025-04-22T13:11:00.860+03:00,2025-04-21T17:08:51.449+03:00,7412,1.006994,0,0,6173.501,5,20,2025-04-22T13:10:22.167+03:00,767009460.9675541,0,-21.89,100.4651,1,0.7,2025-04-22T13:09:01.195+03:00,86,1.433333333333333,2025-04-22T09:54:17.825+03:00,0.02225348692287972,0
2025-04-22T13:11:08.678+03:00,1745316666.526832,40.95226099598197,29.1402868059831,76.34336,-1,-1,-1,-1,30,26.71322490203158,-9999,32423.430468,-0.658416748046875,0.6347198486328125,-0.3694915771484375,32423.425429,-0.1420595883263175,-1.052027577232439,-0.6960057014960687,-0.04884660243988037,0.007091549225151539,-0.01439020596444607,0.008238315582275391,-0.008009433746337891,0.00216376781463623,XArbitraryZVertical,-0.327673952382844,-0.4498718829897604,0.1130946543487162,0.8230763143747651,-0.6664414405822754,0.6411575675010681,-0.3804901540279388,0,0,0,-1,-1,32415.617399125,unknown,2,2025-04-22T13:11:00.860+03:00,2025-04-21T17:08:51.449+03:00,7412,1.006994,0,0,6173.501,5,20,2025-04-22T13:10:22.167+03:00,767009460.9675541,0,-21.89,100.4651,1,0.7,2025-04-22T13:09:01.195+03:00,86,1.433333333333333,2025-04-22T09:54:17.825+03:00,0.02225348692287972,0
2025-04-22T13:11:08.688+03:00,1745316666.526832,40.95226099598197,29.1402868059831,76.34336,-1,-1,-1,-1,30,26.71322490203158,-9999,32423.440544,-0.658905029296875,0.62982177734375,-0.3672943115234375,32423.435506,-0.1427718194013105,-1.052356120275096,-0.6961818082988613,-0.06245455518364906,0.01600168645381927,-0.01087270304560661,0.009623229503631592,-0.005611658096313477,0.007931262254714966,XArbitraryZVertical,-0.3278859395801168,-0.4498702366974772,0.1128987369816628,0.8230196177188743,-0.6664682626724243,0.6412926912307739,-0.3802151679992676,0,0,0,-1,-1,32415.617399125,unknown,2,2025-04-22T13:11:00.860+03:00,2025-04-21T17:08:51.449+03:00,7412,1.006994,0,0,6173.501,5,20,2025-04-22T13:10:22.167+03:00,767009460.9675541,0,-21.89,100.4651,1,0.7,2025-04-22T13:09:01.195+03:00,86,1.433333333333333,2025-04-22T09:54:17.825+03:00,0.02225348692287972,0
2025-04-22T13:11:08.698+03:00,1745316666.526832,40.95226099598197,29.1402868059831,76.34336,-1,-1,-1,-1,30,26.71322490203158,-9999,32423.450621,-0.6564178466796875,0.6296539306640625,-0.3748779296875,32423.445582,-0.143594085780902,-1.052711461078013,-0.6964201348328841,-0.07437007874250412,0.01423601154237986,-0.004999632947146893,0.007550299167633057,-0.009685516357421875,0.01288303732872009,XArbitraryZVertical,-0.328145997414353,-0.4498542984696645,0.1126772857254622,0.8229550487124699,-0.6664705276489258,0.6414755582809448,-0.3799026310443878,0,0,0,-1,-1,32415.617399125,unknown,2,2025-04-22T13:11:00.860+03:00,2025-04-21T17:08:51.449+03:00,7412,1.006994,0,0,6173.501,5,20,2025-04-22T13:10:22.167+03:00,767009460.9675541,0,-21.89,100.4651,1,0.7,2025-04-22T13:09:01.195+03:00,86,1.433333333333333,2025-04-22T09:54:17.825+03:00,0.02225348692287972,0
2025-04-22T13:11:08.717+03:00,1745316666.526832,40.95226099598197,29.1402868059831,76.34336,-1,-1,-1,-1,30,26.71322490203158,-9999,32423.460697,-0.6556396484375,0.631500244140625,-0.37457275390625,32423.455659,-0.1445470301172488,-1.053139572164957,-0.6967633277477338,-0.08721929788589478,0.01818894036114216,-0.008340968750417233,0.009123682975769043,-0.0121002197265625,0.007453292608261108,XArbitraryZVertical,-0.3284732172397433,-0.4498346304936638,0.1124399526060671,0.8228677045980143,-0.6664417386054993,0.6417387723922729,-0.3795082867145538,0,0,0,-1,-1,32415.617399125,unknown,2,2025-04-22T13:11:00.860+03:00,2025-04-21T17:08:51.449+03:00,7412,1.006994,0,0,6173.501,5,20,2025-04-22T13:10:22.167+03:00,767009460.9675541,0,-21.89,100.4651,1,0.7,2025-04-22T13:09:01.195+03:00,86,1.433333333333333,2025-04-22T09:54:17.825+03:00,0.02225348692287972,0
2025-04-22T13:11:08.720+03:00,1745316666.526832,40.95226099598197,29.1402868059831,76.34336,-1,-1,-1,-1,30,26.71322490203158,-9999,32423.470774,-0.6557769775390625,0.632415771484375,-0.37384033203125,32423.465736,-0.1457793624703271,-1.053700884613989,-0.6972015571668074,-0.1206765845417976,0.02721839025616646,-0.009878144599497318,0.01081627607345581,-0.01152074337005615,0.002896517515182495,XArbitraryZVertical,-0.3288937152298024,-0.4498126177330581,0.1121331748871812,0.8227535848937937,-0.6664100885391235,0.6420748233795166,-0.3789950609207153,0,0,0,-1,-1,32423.356161,unknown,2,2025-04-22T13:11:08.599+03:00,2025-04-21T17:08:51.449+03:00,7412,1.006994,0,0,6173.501,5,20,2025-04-22T13:10:22.167+03:00,767009468.699096,0,-21.97,100.4656,1,0.7,2025-04-22T13:09:01.195+03:00,86,1.433333333333333,2025-04-22T09:54:17.825+03:00,0.02225348692287972,0
2025-04-22T13:11:08.728+03:00,1745316666.526832,40.95226099598197,29.1402868059831,76.34336,-1,-1,-1,-1,30,26.71322490203158,-9999,32423.48085,-0.6561431884765625,0.6282958984375,-0.3758697509765625,32423.475812,-0.147412986864132,-1.054409029682615,-0.6977706332153691,-0.1505953967571259,0.03878602758049965,-0.01563433557748795,0.01149904727935791,-0.01001906394958496,0.005112677812576294,XArbitraryZVertical,-0.3294484046737127,-0.4497693394019601,0.1117180434598706,0.8226117733091,-0.6663604378700256,0.6425109505653381,-0.3783425688743591,0,0,0,-1,-1,32423.356161,unknown,2,2025-04-22T13:11:08.599+03:00,2025-04-21T17:08:51.449+03:00,7412,1.006994,0,0,6173.501,5,20,2025-04-22T13:10:22.167+03:00,767009468.699096,0,-21.97,100.4656,1,0.7,2025-04-22T13:09:01.195+03:00,86,1.433333333333333,2025-04-22T09:54:17.825+03:00,0.02225348692287972,0
2025-04-22T13:11:08.738+03:00,1745316666.526832,40.95226099598197,29.1402868059831,76.34336,-1,-1,-1,-1,30,26.71322490203158,-9999,32423.490927,-0.651580810546875,0.625823974609375,-0.374359130859375,32423.485889,-0.1493079382022139,-1.055154109732845,-0.6984460340393326,-0.1679839789867401,0.0532509870827198,-0.01243934035301208,0.009602606296539307,-0.01250475645065308,0.001884341239929199,XArbitraryZVertical,-0.3301021174495408,-0.4496850079656894,0.1112281956488996,0.8224622599556382,-0.6662645936012268,0.6430283784866333,-0.3776319622993469,0,0,0,-1,-1,32423.356161,unknown,2,2025-04-22T13:11:08.599+03:00,2025-04-21T17:08:51.449+03:00,7412,1.006994,0,0,6173.501,5,20,2025-04-22T13:10:22.167+03:00,767009468.699096,0,-21.97,100.4656,1,0.7,2025-04-22T13:09:01.195+03:00,86,1.433333333333333,2025-04-22T09:54:17.825+03:00,0.02225348692287972,0
2025-04-22T13:11:08.748+03:00,1745316666.526832,40.95226099598197,29.1402868059831,76.34336,-1,-1,-1,-1,30,26.71322490203158,-9999,32423.501004,-0.650390625,0.6328582763671875,-0.371002197265625,32423.495965,-0.1513434767972675,-1.055820682361856,-0.6991682898136208,-0.1781874150037766,0.07351464778184891,-0.015641825273633,0.01297461986541748,-0.01810842752456665,0.001760631799697876,XArbitraryZVertical,-0.3308103867095999,-0.4495386844971749,0.1106797418320075,0.8223316259520278,-0.6661117672920227,0.6435813307762146,-0.3769589066505432,0,0,0,-1,-1,32423.356161,unknown,2,2025-04-22T13:11:08.599+03:00,2025-04-21T17:08:51.449+03:00,7412,1.006994,0,0,6173.501,5,20,2025-04-22T13:10:22.167+03:00,767009468.699096,0,-21.97,100.4656,1,0.7,2025-04-22T13:09:01.195+03:00,86,1.433333333333333,2025-04-22T09:54:17.825+03:00,0.02225348692287972,0
2025-04-22T13:11:08.758+03:00,1745316666.526832,40.95226099598197,29.1402868059831,76.34336,-1,-1,-1,-1,30,26.71322490203158,-9999,32423.51108,-0.6532440185546875,0.6403045654296875,-0.3714447021484375,32423.506042,-0.1536316200000331,-1.056401634110776,-0.6999345196670107,-0.1954084783792496,0.09769535064697266,-0.02418071962893009,0.01625823974609375,-0.01423913240432739,0.004304677248001099,XArbitraryZVertical,-0.3315974582760869,-0.4493089789350987,0.1100246629351937,0.822228054232141,-0.6659011244773865,0.6441676020622253,-0.3763291239738464,0,0,0,-1,-1,32423.356161,unknown,2,2025-04-22T13:11:08.599+03:00,2025-04-21T17:08:51.449+03:00,7412,1.006994,0,0,6173.501,5,20,2025-04-22T13:10:22.167+03:00,767009468.699096,0,-21.97,100.4656,1,0.7,2025-04-22T13:09:01.195+03:00,86,1.433333333333333,2025-04-22T09:54:17.825+03:00,0.02225348692287972,0
2025-04-22T13:11:08.768+03:00,1745316666.526832,40.95226099598197,29.1402868059831,76.34336,-1,-1,-1,-1,30,26.71322490203158,-9999,32423.52115891667,-0.655792236328125,0.6389007568359375,-0.37933349609375,32423.51611991667,-0.1560440567075872,-1.056855864576457,-0.7007113724116185,-0.1975681632757187,0.1208665817975998,-0.02306611835956573,0.01381111145019531,-0.006761252880096436,0.004686802625656128,XArbitraryZVertical,-0.3324233041498789,-0.4490038956830596,0.1093005873111954,0.8221578120270442,-0.6656360030174255,0.6447616219520569,-0.3757804930210114,0,0,0,-1,-1,32423.356161,unknown,2,2025-04-22T13:11:08.599+03:00,2025-04-21T17:08:51.449+03:00,7412,1.006994,0,0,6173.501,5,20,2025-04-22T13:10:22.167+03:00,767009468.699096,0,-21.97,100.4656,1,0.7,2025-04-22T13:09:01.195+03:00,86,1.433333333333333,2025-04-22T09:54:17.825+03:00,0.02225348692287972,0
2025-04-22T13:11:08.778+03:00,1745316666.526832,40.95226099598197,29.1402868059831,76.34336,-1,-1,-1,-1,30,26.71322490203158,-9999,32423.53123491667,-0.656494140625,0.624908447265625,-0.395538330078125,32423.52619691667,-0.1584171996124345,-1.056965793267309,-0.7015138610156502,-0.198679506778717,0.1687270551919937,-0.01336129289120436,0.009647965431213379,-0.004047930240631104,0.001521050930023193,XArbitraryZVertical,-0.3332687767941505,-0.4485593009087533,0.1085420501244146,0.822158808860507,-0.6652266383171082,0.6453748345375061,-0.3754529654979706,0,0,0,-1,-1,32423.356161,unknown,2,2025-04-22T13:11:08.599+03:00,2025-04-21T17:08:51.449+03:00,7412,1.006994,0,0,6173.501,5,20,2025-04-22T13:10:22.167+03:00,767009468.699096,0,-21.97,100.4656,1,0.7,2025-04-22T13:09:01.195+03:00,86,1.433333333333333,2025-04-22T09:54:17.825+03:00,0.02225348692287972,0
2025-04-22T13:11:08.788+03:00,1745316666.526832,40.95226099598197,29.1402868059831,76.34336,-1,-1,-1,-1,30,26.71322490203158,-9999,32423.54131191667,-0.6679534912109375,0.6102752685546875,-0.4202423095703125,32423.53627291667,-0.1609941293695299,-1.05658816104176,-0.7023889372734282,-0.2301452904939651,0.2282473742961884,-0.03168930113315582,0.00938040018081665,-0.01577872037887573,-0.01307779550552368,XArbitraryZVertical,-0.3342143379749224,-0.4478701320019409,0.1076364639665491,0.8222697684195251,-0.6645928621292114,0.6460430026054382,-0.3754262328147888,0,0,0,-1,-1,32423.356161,unknown,2,2025-04-22T13:11:08.599+03:00,2025-04-21T17:08:51.449+03:00,7412,1.006994,0,0,6173.501,5,20,2025-04-22T13:10:22.167+03:00,767009468.699096,0,-21.97,100.4656,1,0.7,2025-04-22T13:09:01.195+03:00,86,1.433333333333333,2025-04-22T09:54:17.825+03:00,0.02225348692287972,0
2025-04-22T13:11:08.799+03:00,1745316666.526832,40.95226099598197,29.1402868059831,76.34336,-1,-1,-1,-1,30,26.71322490203158,-9999,32423.55138791667,-0.6688690185546875,0.5904083251953125,-0.457244873046875,32423.54634991667,-0.1643049859097921,-1.056185552508275,-0.7034387836918039,-0.3226246237754822,0.2659662663936615,-0.0382811576128006,0.0004291534423828125,-0.03020596504211426,-0.03394207358360291,XArbitraryZVertical,-0.3353935073525826,-0.4470250195946571,0.1064680426265693,0.8224014927387988,-0.663850724697113,0.6468440294265747,-0.3753596544265747,0,0,0,-1,-1,32423.356161,unknown,2,2025-04-22T13:11:08.599+03:00,2025-04-21T17:08:51.449+03:00,7412,1.006994,0,0,6173.501,5,20,2025-04-22T13:10:22.167+03:00,767009468.699096,0,-21.97,100.4656,1,0.7,2025-04-22T13:09:01.195+03:00,86,1.433333333333333,2025-04-22T09:54:17.825+03:00,0.02225348692287972,0
2025-04-22T13:11:08.809+03:00,1745316666.526832,40.95226099598197,29.1402868059831,76.34336,-1,-1,-1,-1,30,26.71322490203158,-9999,32423.56146491667,-0.653778076171875,0.591949462890625,-0.481719970703125,32423.55642691667,-0.1689694565887808,-1.056677288173402,-0.7047290213061413,-0.4122138917446136,0.2172895222902298,-0.08145911991596222,-0.008750081062316895,-0.05139201879501343,-0.06853851675987244,XArbitraryZVertical,-0.3369210968462717,-0.4462879658848143,0.1049528082344697,0.8223721812429975,-0.6633079648017883,0.6478274464607239,-0.3746224641799927,0,0,0,-1,-1,32423.356161,unknown,2,2025-04-22T13:11:08.599+03:00,2025-04-21T17:08:51.449+03:00,7412,1.006994,0,0,6173.501,5,20,2025-04-22T13:10:22.167+03:00,767009468.699096,0,-21.97,100.4656,1,0.7,2025-04-22T13:09:01.195+03:00,86,1.433333333333333,2025-04-22T09:54:17.825+03:00,0.02225348692287972,0
2025-04-22T13:11:08.819+03:00,1745316666.526832,40.95226099598197,29.1402868059831,76.34336,-1,-1,-1,-1,30,26.71322490203158,-9999,32423.57154091667,-0.6273651123046875,0.5784454345703125,-0.4863128662109375,32423.56650291667,-0.1750919303166814,-1.0590696674016,-0.7061805580530327,-0.5327121019363403,0.09326185286045074,-0.1242414712905884,0.003103435039520264,-0.05829542875289917,-0.1023408472537994,XArbitraryZVertical,-0.3387374231284158,-0.4460607014758987,0.1032010742699869,0.8219709119865299,-0.6633816957473755,0.6489325165748596,-0.3725736141204834,0,0,0,-1,-1,32423.356161,unknown,2,2025-04-22T13:11:08.599+03:00,2025-04-21T17:08:51.449+03:00,7412,1.006994,0,0,6173.501,5,20,2025-04-22T13:10:22.167+03:00,767009468.699096,0,-21.97,100.4656,1,0.7,2025-04-22T13:09:01.195+03:00,86,1.433333333333333,2025-04-22T09:54:17.825+03:00,0.02225348692287972,0
2025-04-22T13:11:08.829+03:00,1745316666.526832,40.95226099598197,29.1402868059831,76.34336,-1,-1,-1,-1,30,26.71322490203158,-9999,32423.58161791667,-0.6179656982421875,0.5746917724609375,-0.4892730712890625,32423.57657991667,-0.182932015380558,-1.06375920577706,-0.7078823258236656,-0.6656208038330078,-0.01592448726296425,-0.1491063088178635,0.02581918239593506,-0.0646246075630188,-0.1173452138900757,XArbitraryZVertical,-0.340919473111418,-0.446444826428966,0.1012025040362394,0.8211083888312921,-0.6641553640365601,0.650226354598999,-0.3689218461513519,0,0,0,-1,-1,32423.356161,unknown,2,2025-04-22T13:11:08.599+03:00,2025-04-21T17:08:51.449+03:00,7412,1.006994,0,0,6173.501,5,20,2025-04-22T13:10:22.167+03:00,767009468.699096,0,-21.97,100.4656,1,0.7,2025-04-22T13:09:01.195+03:00,86,1.433333333333333,2025-04-22T09:54:17.825+03:00,0.02225348692287972,0
2025-04-22T13:11:08.839+03:00,1745316666.526832,40.95226099598197,29.1402868059831,76.34336,-1,-1,-1,-1,30,26.71322490203158,-9999,32423.59169491667,-0.6232452392578125,0.5894317626953125,-0.50634765625,32423.58665591667,-0.1922872789832792,-1.070411869723336,-0.7099824684976661,-0.775358259677887,-0.08944424986839294,-0.1604596376419067,0.04752123355865479,-0.07926499843597412,-0.1226718425750732,XArbitraryZVertical,-0.3435036092349184,-0.4473092637089516,0.09903100095093191,0.8198247301002002,-0.6653953790664673,0.6518204808235168,-0.3638393878936768,0,0,0,-1,-1,32423.356161,unknown,2,2025-04-22T13:11:08.599+03:00,2025-04-21T17:08:51.449+03:00,7412,1.006994,0,0,6173.501,5,20,2025-04-22T13:10:22.167+03:00,767009468.699096,0,-21.97,100.4656,1,0.7,2025-04-22T13:09:01.195+03:00,86,1.433333333333333,2025-04-22T09:54:17.825+03:00,0.02225348692287972,0
2025-04-22T13:11:08.849+03:00,1745316666.526832,40.95226099598197,29.1402868059831,76.34336,-1,-1,-1,-1,30,26.71322490203158,-9999,32423.60177091667,-0.6217193603515625,0.6019134521484375,-0.53045654296875,32423.59673291667,-0.2024264967545376,-1.078074875496271,-0.7124400629170151,-0.7851844429969788,-0.1068029254674911,-0.1254677921533585,0.04513794183731079,-0.07024729251861572,-0.1409761905670166,XArbitraryZVertical,-0.3463621733153844,-0.4483835052935236,0.09682305431114062,0.8182974384908411,-0.666750431060791,0.6536822915077209,-0.3579709529876709,0,0,0,-1,-1,32423.356161,unknown,2,2025-04-22T13:11:08.599+03:00,2025-04-21T17:08:51.449+03:00,7412,1.006994,0,0,6173.501,5,20,2025-04-22T13:10:22.167+03:00,767009468.699096,0,-21.97,100.4656,1,0.7,2025-04-22T13:09:01.195+03:00,86,1.433333333333333,2025-04-22T09:54:17.825+03:00,0.02225348692287972,0
2025-04-22T13:11:08.859+03:00,1745316666.526832,40.95226099598197,29.1402868059831,76.34336,-1,-1,-1,-1,30,26.71322490203158,-9999,32423.61184791667,-0.6040496826171875,0.62286376953125,-0.5503997802734375,32423.60680891667,-0.2122174573509146,-1.08590568722955,-0.7153651201173671,-0.7861223816871643,-0.1938097178936005,-0.0485738106071949,0.0436779260635376,-0.05755025148391724,-0.1687380075454712,XArbitraryZVertical,-0.3493256829902145,-0.4494980685838518,0.09493032067158277,0.8166463402505441,-0.6678386926651001,0.655893087387085,-0.3518460988998413,0,0,0,-1,-1,32423.356161,unknown,2,2025-04-22T13:11:08.599+03:00,2025-04-21T17:08:51.449+03:00,7412,1.006994,0,0,6173.501,5,20,2025-04-22T13:10:22.167+03:00,767009468.699096,0,-21.97,100.4656,1,0.7,2025-04-22T13:09:01.195+03:00,86,1.433333333333333,2025-04-22T09:54:17.825+03:00,0.02225348692287972,0
2025-04-22T13:11:08.869+03:00,1745316666.526832,40.95226099598197,29.1402868059831,76.34336,-1,-1,-1,-1,30,26.71322490203158,-9999,32423.62192391667,-0.605499267578125,0.6238861083984375,-0.54193115234375,32423.61688591667,-0.2218129572695516,-1.094487114874448,-0.7187159992103456,-0.7668915390968323,-0.246667206287384,-0.03570987656712532,0.05730414390563965,-0.04385590553283691,-0.1995089054107666,XArbitraryZVertical,-0.352382212505893,-0.4508663992023269,0.09338535992786448,0.8147547566544847,-0.6688764095306396,0.6584188342094421,-0.3450925350189209,0,0,0,-1,-1,32423.356161,unknown,2,2025-04-22T13:11:08.599+03:00,2025-04-21T17:08:51.449+03:00,7412,1.006994,0,0,6173.501,5,20,2025-04-22T13:10:22.167+03:00,767009468.699096,0,-21.97,100.4656,1,0.7,2025-04-22T13:09:01.195+03:00,86,1.433333333333333,2025-04-22T09:54:17.825+03:00,0.02225348692287972,0
2025-04-22T13:11:08.879+03:00,1745316666.526832,40.95226099598197,29.1402868059831,76.34336,-1,-1,-1,-1,30,26.71322490203158,-9999,32423.63200091667,-0.640899658203125,0.6284637451171875,-0.5285186767578125,32423.62696291667,-0.2310236725599035,-1.103385339951104,-0.7218051783177161,-0.7380865216255188,-0.3012316524982452,-0.0240313820540905,0.07148408889770508,-0.03229236602783203,-0.2109546661376953,XArbitraryZVertical,-0.3552425267838036,-0.45243585145043,0.09201424806745526,0.8127963396812798,-0.6701016426086426,0.6607407331466675,-0.3382090926170349,0,0,0,-1,-1,32423.356161,unknown,2,2025-04-22T13:11:08.599+03:00,2025-04-21T17:08:51.449+03:00,7412,1.006994,0,0,6173.501,5,20,2025-04-22T13:10:22.167+03:00,767009468.699096,0,-21.97,100.4656,1,0.7,2025-04-22T13:09:01.195+03:00,86,1.433333333333333,2025-04-22T09:54:17.825+03:00,0.02225348692287972,0
