loggingTime(txt),locationTimestamp_since1970(s),locationLatitude(WGS84),locationLongitude(WGS84),locationAltitude(m),locationSpeed(m/s),locationSpeedAccuracy(m/s),locationCourse(°),locationCourseAccuracy(°),locationVerticalAccuracy(m),locationHorizontalAccuracy(m),locationFloor(Z),accelerometerTimestamp_sinceReboot(s),accelerometerAccelerationX(G),accelerometerAccelerationY(G),accelerometerAccelerationZ(G),motionTimestamp_sinceReboot(s),motionYaw(rad),motionRoll(rad),motionPitch(rad),motionRotationRateX(rad/s),motionRotationRateY(rad/s),motionRotationRateZ(rad/s),motionUserAccelerationX(G),motionUserAccelerationY(G),motionUserAccelerationZ(G),motionAttitudeReferenceFrame(txt),motionQuaternionX(R),motionQuaternionY(R),motionQuaternionZ(R),motionQuaternionW(R),motionGravityX(G),motionGravityY(G),motionGravityZ(G),motionMagneticFieldX(µT),motionMagneticFieldY(µT),motionMagneticFieldZ(µT),motionHeading(°),motionMagneticFieldCalibrationAccuracy(Z),activityTimestamp_sinceReboot(s),activity(txt),activityActivityConfidence(Z),activityActivityStartDate(txt),pedometerStartDate(txt),pedometerNumberofSteps(N),pedometerAverageActivePace(s/m),pedometerCurrentPace(s/m),pedometerCurrentCadence(steps/s),pedometerDistance(m),pedometerFloorAscended(N),pedometerFloorDescended(N),pedometerEndDate(txt),altimeterTimestamp_sinceReboot(s),altimeterReset(bool),altimeterRelativeAltitude(m),altimeterPressure(kPa),batteryState(N),batteryLevel(R),heartRateBPMTimestamp(txt),heartRateBPM(N),heartRateBPS(R),heartRateVariabilityTimestamp(txt),heartRateVariability(ms),label
2025-04-22T13:18:56.200+03:00,1745317135.028596,40.9522634397247,29.14028108201103,76.21932,-1,-1,-1,-1,30,24.85156048724523,-9999,32849.541218375,-0.6323089599609375,0.5356597900390625,-0.581512451171875,32849.531141375,0.1758821688682196,-0.8050432795859659,-0.5664395357001114,0.03428602963685989,0.01049154065549374,-0.007735532242804766,0.08221244812011719,-0.002085268497467041,0.04139095544815063,XArbitraryZVertical,0.2230854697718259,0.3972613065893852,-0.1866369881067825,-0.8703923414715573,-0.6082744002342224,0.5366310477256775,-0.5848326683044434,0,0,0,-1,-1,32846.292754625,unknown,2,2025-04-22T13:18:52.929+03:00,2025-04-21T17:08:51.449+03:00,7440,1.01013,0,0,6196.233,5,20,2025-04-22T13:18:52.929+03:00,767009935.5997123,0,-20.39,100.4473,1,0.7,2025-04-22T13:17:51.654+03:00,90,1.5,2025-04-22T09:54:17.825+03:00,0.02225348692287972,0
2025-04-22T13:18:56.201+03:00,1745317135.028596,40.9522634397247,29.14028108201103,76.21932,-1,-1,-1,-1,30,24.85156048724523,-9999,32849.551295375,-0.6497650146484375,0.514007568359375,-0.579833984375,32849.541218375,0.1761514657680777,-0.8045087165091815,-0.5661649310705508,0.03045081347227097,0.05589843541383743,-2.275127917528152e-05,0.01419579982757568,-0.004203379154205322,0.01337581872940063,XArbitraryZVertical,0.2229597216127724,0.3970629795477306,-0.1866462536442401,-0.8705130729434005,-0.6080678105354309,0.5363993644714355,-0.5852599143981934,0,0,0,-1,-1,32846.292754625,unknown,2,2025-04-22T13:18:52.929+03:00,2025-04-21T17:08:51.449+03:00,7440,1.01013,0,0,6196.233,5,20,2025-04-22T13:18:52.929+03:00,767009935.5997123,0,-20.39,100.4473,1,0.7,2025-04-22T13:17:51.654+03:00,90,1.5,2025-04-22T09:54:17.825+03:00,0.02225348692287972,0
2025-04-22T13:18:56.202+03:00,1745317135.028596,40.9522634397247,29.14028108201103,76.21932,-1,-1,-1,-1,30,24.85156048724523,-9999,32849.561372375,-0.5962982177734375,0.50738525390625,-0.5683746337890625,32849.551295375,0.1763237554337339,-0.8040102475141534,-0.5660613448259127,0.004534461535513401,0.02241364680230618,0.005572383757680655,-0.05066174268722534,-0.009868502616882324,0.0007627010345458984,XArbitraryZVertical,0.2229259627941677,0.3968668391244783,-0.1866474838151776,-0.8706108415858608,-0.6078159809112549,0.53631192445755,-0.5856014490127563,0,0,0,-1,-1,32846.292754625,unknown,2,2025-04-22T13:18:52.929+03:00,2025-04-21T17:08:51.449+03:00,7440,1.01013,0,0,6196.233,5,20,2025-04-22T13:18:52.929+03:00,767009935.5997123,0,-20.39,100.4473,1,0.7,2025-04-22T13:17:51.654+03:00,90,1.5,2025-04-22T09:54:17.825+03:00,0.02225348692287972,0
2025-04-22T13:18:56.213+03:00,1745317135.028596,40.9522634397247,29.14028108201103,76.21932,-1,-1,-1,-1,30,24.85156048724523,-9999,32849.57144837501,-0.58721923828125,0.528839111328125,-0.576141357421875,32849.561372375,0.1763353911895195,-0.8039308565036669,-0.5660720147062731,-0.003824135754257441,0.005311891902238131,0.007407834753394127,-0.008170843124389648,-0.03255212306976318,0.01499766111373901,XArbitraryZVertical,0.2229358106338943,0.3968334120355868,-0.1866455765030153,-0.8706239624541804,-0.6077653765678406,0.5363209247589111,-0.5856457352638245,0,0,0,-1,-1,32846.292754625,unknown,2,2025-04-22T13:18:52.929+03:00,2025-04-21T17:08:51.449+03:00,7440,1.01013,0,0,6196.233,5,20,2025-04-22T13:18:52.929+03:00,767009935.5997123,0,-20.39,100.4473,1,0.7,2025-04-22T13:17:51.654+03:00,90,1.5,2025-04-22T09:54:17.825+03:00,0.02225348692287972,0
2025-04-22T13:18:56.225+03:00,1745317135.028596,40.9522634397247,29.14028108201103,76.21932,-1,-1,-1,-1,30,24.85156048724523,-9999,32849.581525375,-0.6125335693359375,0.533050537109375,-0.5916595458984375,32849.57144837501,0.176400085474358,-0.8037673253663522,-0.566124621043362,0.001740206265822053,0.01907956972718239,0.006168232765048742,0.02453476190567017,-0.01456058025360107,0.01506221294403076,XArbitraryZVertical,0.2229616404705991,0.3967686081144901,-0.1866647422533228,-0.8706428123222663,-0.6076493263244629,0.5363653302192688,-0.5857255458831787,0,0,0,-1,-1,32846.292754625,unknown,2,2025-04-22T13:18:52.929+03:00,2025-04-21T17:08:51.449+03:00,7440,1.01013,0,0,6196.233,5,20,2025-04-22T13:18:52.929+03:00,767009935.5997123,0,-20.39,100.4473,1,0.7,2025-04-22T13:17:51.654+03:00,90,1.5,2025-04-22T09:54:17.825+03:00,0.02225348692287972,0
2025-04-22T13:18:56.233+03:00,1745317135.028596,40.9522634397247,29.14028108201103,76.21932,-1,-1,-1,-1,30,24.85156048724523,-9999,32849.591602375,-0.61163330078125,0.5350341796875,-0.595977783203125,32849.581525375,0.1765179529352326,-0.8034773746744737,-0.5662035565762538,0.009400255978107452,0.01781137101352215,0.005474745761603117,0.003735005855560303,-0.002496421337127686,-0.0008280277252197266,XArbitraryZVertical,0.2230004453722334,0.3966542948592897,-0.1866975863899925,-0.8706779453536947,-0.6074489951133728,0.5364319086074829,-0.5858723521232605,0,0,0,-1,-1,32846.292754625,unknown,2,2025-04-22T13:18:52.929+03:00,2025-04-21T17:08:51.449+03:00,7440,1.01013,0,0,6196.233,5,20,2025-04-22T13:18:52.929+03:00,767009935.5997123,0,-20.39,100.4473,1,0.7,2025-04-22T13:17:51.654+03:00,90,1.5,2025-04-22T09:54:17.825+03:00,0.02225348692287972,0
2025-04-22T13:18:56.243+03:00,1745317135.028596,40.9522634397247,29.14028108201103,76.21932,-1,-1,-1,-1,30,24.85156048724523,-9999,32849.601678375,-0.598419189453125,0.547149658203125,-0.5897674560546875,32849.591602375,0.1766486738784117,-0.803280107309653,-0.5661377960932387,0.01500501204282045,0.01253924518823624,-2.927600871771574e-05,-0.007784008979797363,-0.003539621829986572,-0.009762704372406006,XArbitraryZVertical,0.2229636776421211,0.3965840095014264,-0.186720958263619,-0.8707143476873749,-0.6073588132858276,0.536376416683197,-0.5860166549682617,0,0,0,-1,-1,32846.292754625,unknown,2,2025-04-22T13:18:52.929+03:00,2025-04-21T17:08:51.449+03:00,7440,1.01013,0,0,6196.233,5,20,2025-04-22T13:18:52.929+03:00,767009935.5997123,0,-20.39,100.4473,1,0.7,2025-04-22T13:17:51.654+03:00,90,1.5,2025-04-22T09:54:17.825+03:00,0.02225348692287972,0
2025-04-22T13:18:56.253+03:00,1745317135.028596,40.9522634397247,29.14028108201103,76.21932,-1,-1,-1,-1,30,24.85156048724523,-9999,32849.611755375,-0.6031036376953125,0.550811767578125,-0.5856170654296875,32849.601678375,0.1768118927338589,-0.8030638617426857,-0.5659748083644818,0.02390769496560097,0.01667406968772411,-8.333817822858691e-05,0.006113946437835693,0.005799055099487305,-0.005984842777252197,XArbitraryZVertical,0.2228789700255113,0.3965105402071428,-0.1867392755708616,-0.8707656254195613,-0.6072949767112732,0.5362388491630554,-0.586208701133728,0,0,0,-1,-1,32846.292754625,unknown,2,2025-04-22T13:18:52.929+03:00,2025-04-21T17:08:51.449+03:00,7440,1.01013,0,0,6196.233,5,20,2025-04-22T13:18:52.929+03:00,767009935.5997123,0,-20.39,100.4473,1,0.7,2025-04-22T13:17:51.654+03:00,90,1.5,2025-04-22T09:54:17.825+03:00,0.02225348692287972,0
2025-04-22T13:18:56.263+03:00,1745317135.028596,40.9522634397247,29.14028108201103,76.21932,-1,-1,-1,-1,30,24.85156048724523,-9999,32849.621832375,-0.6083221435546875,0.53704833984375,-0.582000732421875,32849.611755375,0.1770372268869902,-0.8027699562801048,-0.5658063373499019,0.02781042270362377,0.01741642504930496,-0.001342147821560502,0.006937384605407715,0.01573741436004639,-0.0002809762954711914,XArbitraryZVertical,0.2227867691699297,0.3964102502777933,-0.1867750623669412,-0.8708272224188792,-0.6071876287460327,0.5360966920852661,-0.586449921131134,0,0,0,-1,-1,32846.292754625,unknown,2,2025-04-22T13:18:52.929+03:00,2025-04-21T17:08:51.449+03:00,7440,1.01013,0,0,6196.233,5,20,2025-04-22T13:18:52.929+03:00,767009935.5997123,0,-20.39,100.4473,1,0.7,2025-04-22T13:17:51.654+03:00,90,1.5,2025-04-22T09:54:17.825+03:00,0.02225348692287972,0
2025-04-22T13:18:56.273+03:00,1745317135.028596,40.9522634397247,29.14028108201103,76.21932,-1,-1,-1,-1,30,24.85156048724523,-9999,32849.631909375,-0.60675048828125,0.527313232421875,-0.582427978515625,32849.621832375,0.1772209016111911,-0.8025051924884332,-0.5656265529661028,0.01865420863032341,0.01340037770569324,-0.003575740847736597,-0.0002897381782531738,0.006932258605957031,0.003654599189758301,XArbitraryZVertical,0.2226950803288485,0.3963181629647001,-0.186794017773502,-0.8708884943690969,-0.6071016192436218,0.5359448790550232,-0.586677610874176,0,0,0,-1,-1,32846.292754625,unknown,2,2025-04-22T13:18:52.929+03:00,2025-04-21T17:08:51.449+03:00,7440,1.01013,0,0,6196.233,5,20,2025-04-22T13:18:52.929+03:00,767009935.5997123,0,-20.39,100.4473,1,0.7,2025-04-22T13:17:51.654+03:00,90,1.5,2025-04-22T09:54:17.825+03:00,0.02225348692287972,0
2025-04-22T13:18:56.283+03:00,1745317135.028596,40.9522634397247,29.14028108201103,76.21932,-1,-1,-1,-1,30,24.85156048724523,-9999,32849.641985375,-0.604278564453125,0.529144287109375,-0.583831787109375,32849.631909375,0.177333392048609,-0.8023447624390181,-0.5654937479781059,0.01488563604652882,0.008683720603585243,-0.000555150443688035,-0.0004547834396362305,-0.006841123104095459,0.005312085151672363,XArbitraryZVertical,0.2226286675414149,0.396262853443583,-0.1868018637362344,-0.8709289100577483,-0.6070586442947388,0.5358327627182007,-0.5868244767189026,0,0,0,-1,-1,32846.292754625,unknown,2,2025-04-22T13:18:52.929+03:00,2025-04-21T17:08:51.449+03:00,7440,1.01013,0,0,6196.233,5,20,2025-04-22T13:18:52.929+03:00,767009935.5997123,0,-20.39,100.4473,1,0.7,2025-04-22T13:17:51.654+03:00,90,1.5,2025-04-22T09:54:17.825+03:00,0.02225348692287972,0
2025-04-22T13:18:56.293+03:00,1745317135.028596,40.9522634397247,29.14028108201103,76.21932,-1,-1,-1,-1,30,24.85156048724523,-9999,32849.652062375,-0.605804443359375,0.53253173828125,-0.58404541015625,32849.641985375,0.1774266769275812,-0.8022023727015192,-0.5653532259091749,0.01345791574567556,0.0127788633108139,-0.002093126066029072,0.001850366592407227,-0.008309364318847656,0.003146767616271973,XArbitraryZVertical,0.2225609353620965,0.3962133481139968,-0.1868019936817626,-0.8709687210986209,-0.6070291996002197,0.5357140898704529,-0.5869632363319397,0,0,0,-1,-1,32846.292754625,unknown,2,2025-04-22T13:18:52.929+03:00,2025-04-21T17:08:51.449+03:00,7440,1.01013,0,0,6196.233,5,20,2025-04-22T13:18:52.929+03:00,767009935.5997123,0,-20.39,100.4473,1,0.7,2025-04-22T13:17:51.654+03:00,90,1.5,2025-04-22T09:54:17.825+03:00,0.02225348692287972,0
2025-04-22T13:18:56.303+03:00,1745317135.028596,40.9522634397247,29.14028108201103,76.21932,-1,-1,-1,-1,30,24.85156048724523,-9999,32849.662139375,-0.60736083984375,0.5321502685546875,-0.5843353271484375,32849.652062375,0.1775230864593856,-0.802024560794303,-0.5652465483581046,0.01311363559216261,0.01343167014420033,-0.003616687143221498,0.002504229545593262,-0.004252076148986816,0.003584325313568115,XArbitraryZVertical,0.2225109647899025,0.3961482675701377,-0.1868055153176312,-0.8710102657269172,-0.6069658398628235,0.5356240272521973,-0.5871108174324036,0,0,0,-1,-1,32846.292754625,unknown,2,2025-04-22T13:18:52.929+03:00,2025-04-21T17:08:51.449+03:00,7440,1.01013,0,0,6196.233,5,20,2025-04-22T13:18:52.929+03:00,767009935.5997123,0,-20.39,100.4473,1,0.7,2025-04-22T13:17:51.654+03:00,90,1.5,2025-04-22T09:54:17.825+03:00,0.02225348692287972,0
2025-04-22T13:18:56.313+03:00,1745317135.028596,40.9522634397247,29.14028108201103,76.21932,-1,-1,-1,-1,30,24.85156048724523,-9999,32849.672215375,-0.6026763916015625,0.532196044921875,-0.584136962890625,32849.662139375,0.1775923046382316,-0.801875203625259,-0.5651509417920138,0.00836655031889677,0.01031976658850908,-0.003248105524107814,0.0001187324523925781,-0.003011643886566162,0.003237545490264893,XArbitraryZVertical,0.2224686441503146,0.3960923523745118,-0.1868022824815585,-0.8710472078310039,-0.6069149971008301,0.5355433225631714,-0.5872371196746826,0,0,0,-1,-1,32846.292754625,unknown,2,2025-04-22T13:18:52.929+03:00,2025-04-21T17:08:51.449+03:00,7440,1.01013,0,0,6196.233,5,20,2025-04-22T13:18:52.929+03:00,767009935.5997123,0,-20.39,100.4473,1,0.7,2025-04-22T13:17:51.654+03:00,90,1.5,2025-04-22T09:54:17.825+03:00,0.02225348692287972,0
2025-04-22T13:18:56.323+03:00,1745317135.028596,40.9522634397247,29.14028108201103,76.21932,-1,-1,-1,-1,30,24.85156048724523,-9999,32849.682292375,-0.6009368896484375,0.5339202880859375,-0.5840301513671875,32849.672215375,0.1776622319603555,-0.8017360747414506,-0.5650510183210083,0.008781670592725277,0.008498364128172398,-0.001071271020919085,0.00245589017868042,-0.003400266170501709,0.00360339879989624,XArbitraryZVertical,0.2224233009998557,0.3960410099911169,-0.1867997276856488,-0.8710827449898426,-0.6068717837333679,0.5354589223861694,-0.5873587727546692,0,0,0,-1,-1,32846.292754625,unknown,2,2025-04-22T13:18:52.929+03:00,2025-04-21T17:08:51.449+03:00,7440,1.01013,0,0,6196.233,5,20,2025-04-22T13:18:52.929+03:00,767009935.5997123,0,-20.39,100.4473,1,0.7,2025-04-22T13:17:51.654+03:00,90,1.5,2025-04-22T09:54:17.825+03:00,0.02225348692287972,0
2025-04-22T13:18:56.333+03:00,1745317135.028596,40.9522634397247,29.14028108201103,76.21932,-1,-1,-1,-1,30,24.85156048724523,-9999,32849.692369375,-0.6009674072265625,0.5328369140625,-0.582061767578125,32849.682292375,0.1777539768150878,-0.8015622080833658,-0.5650134056010246,0.00792999193072319,0.008368934504687786,0.001404936076141894,0.00595402717590332,-0.001964688301086426,0.003310918807983398,XArbitraryZVertical,0.2224046329395437,0.3959760593590343,-0.1868137745585588,-0.8711139882567978,-0.6067840456962585,0.5354271531105042,-0.5874782800674438,0,0,0,-1,-1,32846.292754625,unknown,2,2025-04-22T13:18:52.929+03:00,2025-04-21T17:08:51.449+03:00,7440,1.01013,0,0,6196.233,5,20,2025-04-22T13:18:52.929+03:00,767009935.5997123,0,-20.39,100.4473,1,0.7,2025-04-22T13:17:51.654+03:00,90,1.5,2025-04-22T09:54:17.825+03:00,0.02225348692287972,0
2025-04-22T13:18:56.343+03:00,1745317135.028596,40.9522634397247,29.14028108201103,76.21932,-1,-1,-1,-1,30,24.85156048724523,-9999,32849.702446375,-0.6000213623046875,0.527496337890625,-0.5815887451171875,32849.692369375,0.1778259575045386,-0.8014457095605489,-0.5650860132705481,0.0006274710758589208,0.003419050015509129,0.001993960700929165,0.005644023418426514,-0.001858174800872803,0.004849910736083984,XArbitraryZVertical,0.2224335916748164,0.395932242163736,-0.1868448933416468,-0.8711198291255577,-0.6066876649856567,0.535488486289978,-0.5875219106674194,0,0,0,-1,-1,32846.292754625,unknown,2,2025-04-22T13:18:52.929+03:00,2025-04-21T17:08:51.449+03:00,7440,1.01013,0,0,6196.233,5,20,2025-04-22T13:18:52.929+03:00,767009935.5997123,0,-20.39,100.4473,1,0.7,2025-04-22T13:17:51.654+03:00,90,1.5,2025-04-22T09:54:17.825+03:00,0.02225348692287972,0
2025-04-22T13:18:56.353+03:00,1745317135.028596,40.9522634397247,29.14028108201103,76.21932,-1,-1,-1,-1,30,24.85156048724523,-9999,32849.712522375,-0.6017303466796875,0.5324249267578125,-0.58197021484375,32849.702446375,0.1778348923257709,-0.8014096924593731,-0.5651382439866648,0.001761178718879819,0.005812166724354029,0.00292473565787077,0.005709588527679443,-0.006601929664611816,0.005462646484375,XArbitraryZVertical,0.2224584324330533,0.3959167350598942,-0.1868538900216755,-0.8711187115038787,-0.6066464781761169,0.5355325937271118,-0.5875243544578552,0,0,0,-1,-1,32846.292754625,unknown,2,2025-04-22T13:18:52.929+03:00,2025-04-21T17:08:51.449+03:00,7440,1.01013,0,0,6196.233,5,20,2025-04-22T13:18:52.929+03:00,767009935.5997123,0,-20.39,100.4473,1,0.7,2025-04-22T13:17:51.654+03:00,90,1.5,2025-04-22T09:54:17.825+03:00,0.02225348692287972,0
2025-04-22T13:18:56.364+03:00,1745317135.028596,40.9522634397247,29.14028108201103,76.21932,-1,-1,-1,-1,30,24.85156048724523,-9999,32849.722599375,-0.6066436767578125,0.5376129150390625,-0.5817413330078125,32849.712522375,0.177881056444631,-0.8013304767317176,-0.5650948314203197,0.008085653185844421,0.01065192930400372,0.002686249557882547,0.005618691444396973,-0.005665004253387451,0.006076216697692871,XArbitraryZVertical,0.2224373707356244,0.3958880268817502,-0.1868575985305515,-0.8711362975524928,-0.6066166162490845,0.535495936870575,-0.5875885486602783,0,0,0,-1,-1,32846.292754625,unknown,2,2025-04-22T13:18:52.929+03:00,2025-04-21T17:08:51.449+03:00,7440,1.01013,0,0,6196.233,5,20,2025-04-22T13:18:52.929+03:00,767009935.5997123,0,-20.39,100.4473,1,0.7,2025-04-22T13:17:51.654+03:00,90,1.5,2025-04-22T09:54:17.825+03:00,0.02225348692287972,0
2025-04-22T13:18:56.374+03:00,1745317135.028596,40.9522634397247,29.14028108201103,76.21932,-1,-1,-1,-1,30,24.85156048724523,-9999,32849.732676375,-0.604034423828125,0.536590576171875,-0.5834503173828125,32849.722599375,0.1779989158962726,-0.8011429972008569,-0.5650293045637466,0.0121744042262435,0.0123134758323431,0.005667125806212425,0.001780092716217041,0.0008447170257568359,0.005649745464324951,XArbitraryZVertical,0.2224023915863382,0.3958204703849788,-0.1868766375635728,-0.8711717669694674,-0.6065316200256348,0.5354405641555786,-0.5877266526222229,0,0,0,-1,-1,32846.292754625,unknown,2,2025-04-22T13:18:52.929+03:00,2025-04-21T17:08:51.449+03:00,7440,1.01013,0,0,6196.233,5,20,2025-04-22T13:18:52.929+03:00,767009935.5997123,0,-20.39,100.4473,1,0.7,2025-04-22T13:17:51.654+03:00,90,1.5,2025-04-22T09:54:17.825+03:00,0.02225348692287972,0
2025-04-22T13:18:56.384+03:00,1745317135.028596,40.9522634397247,29.14028108201103,76.21932,-1,-1,-1,-1,30,24.85156048724523,-9999,32849.742752375,-0.6008453369140625,0.5323333740234375,-0.5836944580078125,32849.732676375,0.17809523400378,-0.8009938339163885,-0.564995600088798,0.007673329673707485,0.009607104584574699,0.001264620805159211,0.0009881854057312012,0.002139747142791748,0.004532039165496826,XArbitraryZVertical,0.2223822571659245,0.3957666887493516,-0.1868960873236471,-0.8711972204722068,-0.6064569354057312,0.535412073135376,-0.5878297090530396,0,0,0,-1,-1,32846.292754625,unknown,2,2025-04-22T13:18:52.929+03:00,2025-04-21T17:08:51.449+03:00,7440,1.01013,0,0,6196.233,5,20,2025-04-22T13:18:52.929+03:00,767009935.5997123,0,-20.39,100.4473,1,0.7,2025-04-22T13:17:51.654+03:00,90,1.5,2025-04-22T09:54:17.825+03:00,0.02225348692287972,0
2025-04-22T13:18:56.394+03:00,1745317135.028596,40.9522634397247,29.14028108201103,76.21932,-1,-1,-1,-1,30,24.85156048724523,-9999,32849.752829375,-0.6025238037109375,0.530303955078125,-0.583831787109375,32849.742752375,0.1781404399010313,-0.8009014110667081,-0.5649644359991917,0.002542749978601933,0.007257130928337574,0.0002331785508431494,0.005340397357940674,-0.0008246898651123047,0.00427931547164917,XArbitraryZVertical,0.2223680722864078,0.3957319155621035,-0.1869000469380681,-0.8712157900010521,-0.6064145565032959,0.53538578748703,-0.5878973603248596,0,0,0,-1,-1,32846.292754625,unknown,2,2025-04-22T13:18:52.929+03:00,2025-04-21T17:08:51.449+03:00,7440,1.01013,0,0,6196.233,5,20,2025-04-22T13:18:52.929+03:00,767009935.5997123,0,-20.39,100.4473,1,0.7,2025-04-22T13:17:51.654+03:00,90,1.5,2025-04-22T09:54:17.825+03:00,0.02225348692287972,0
2025-04-22T13:18:56.404+03:00,1745317135.028596,40.9522634397247,29.14028108201103,76.21932,-1,-1,-1,-1,30,24.85156048724523,-9999,32849.762906375,-0.6012115478515625,0.5301666259765625,-0.5803680419921875,32849.752829375,0.1781282772615902,-0.8008535027492628,-0.5649754816171818,-0.005245997570455074,0.005101502407342196,0.002198025584220886,0.004926502704620361,-0.004953861236572266,0.004029512405395508,XArbitraryZVertical,0.2223798734007761,0.3957095281461789,-0.1868913525873515,-0.8712248192339944,-0.6063821911811829,0.535395085811615,-0.5879223346710205,0,0,0,-1,-1,32846.292754625,unknown,2,2025-04-22T13:18:52.929+03:00,2025-04-21T17:08:51.449+03:00,7440,1.01013,0,0,6196.233,5,20,2025-04-22T13:18:52.929+03:00,767009935.5997123,0,-20.39,100.4473,1,0.7,2025-04-22T13:17:51.654+03:00,90,1.5,2025-04-22T09:54:17.825+03:00,0.02225348692287972,0
2025-04-22T13:18:56.414+03:00,1745317135.028596,40.9522634397247,29.14028108201103,76.21932,-1,-1,-1,-1,30,24.85156048724523,-9999,32849.77298337501,-0.60211181640625,0.5269622802734375,-0.580596923828125,32849.762906375,0.178064552704139,-0.8008756472899257,-0.5650510753667091,-0.01241975463926792,-0.001727375201880932,0.0001087756245397031,0.004300117492675781,-0.004590511322021484,0.006078422069549561,XArbitraryZVertical,0.2224240773650003,0.395710988773647,-0.1868793073534885,-0.8712153976049265,-0.6063660979270935,0.5354589819908142,-0.5878806710243225,0,0,0,-1,-1,32846.292754625,unknown,2,2025-04-22T13:18:52.929+03:00,2025-04-21T17:08:51.449+03:00,7440,1.01013,0,0,6196.233,5,20,2025-04-22T13:18:52.929+03:00,767009935.5997123,0,-20.39,100.4473,1,0.7,2025-04-22T13:17:51.654+03:00,90,1.5,2025-04-22T09:54:17.825+03:00,0.02225348692287972,0
2025-04-22T13:18:56.424+03:00,1745317135.028596,40.9522634397247,29.14028108201103,76.21932,-1,-1,-1,-1,30,24.85156048724523,-9999,32849.783059375,-0.605377197265625,0.5298614501953125,-0.5809173583984375,32849.77298337501,0.1779579443883273,-0.8009609368991192,-0.5651636727245349,-0.01197134517133236,-0.002371660433709621,0.001452839700505137,0.005207240581512451,-0.008652925491333008,0.008517682552337646,XArbitraryZVertical,0.2224873350374306,0.3957346049749661,-0.1868620543157214,-0.8711922464985291,-0.6063729524612427,0.535554051399231,-0.5877870321273804,0,0,0,-1,-1,32846.292754625,unknown,2,2025-04-22T13:18:52.929+03:00,2025-04-21T17:08:51.449+03:00,7440,1.01013,0,0,6196.233,5,20,2025-04-22T13:18:52.929+03:00,767009935.5997123,0,-20.39,100.4473,1,0.7,2025-04-22T13:17:51.654+03:00,90,1.5,2025-04-22T09:54:17.825+03:00,0.02225348692287972,0
2025-04-22T13:18:56.434+03:00,1745317135.028596,40.9522634397247,29.14028108201103,76.21932,-1,-1,-1,-1,30,24.85156048724523,-9999,32849.793136375,-0.608551025390625,0.531219482421875,-0.581573486328125,32849.783059375,0.1778411595361007,-0.8010390814268175,-0.5652582379847458,-0.01332343183457851,0.0002534170635044575,-0.0007794218836352229,0.001554667949676514,-0.007008492946624756,0.006451427936553955,XArbitraryZVertical,0.2225452537529477,0.3957542661230789,-0.1868364558269706,-0.8711739467673493,-0.6063824892044067,0.53563392162323,-0.5877043604850769,0,0,0,-1,-1,32846.292754625,unknown,2,2025-04-22T13:18:52.929+03:00,2025-04-21T17:08:51.449+03:00,7440,1.01013,0,0,6196.233,5,20,2025-04-22T13:18:52.929+03:00,767009935.5997123,0,-20.39,100.4473,1,0.7,2025-04-22T13:17:51.654+03:00,90,1.5,2025-04-22T09:54:17.825+03:00,0.02225348692287972,0
2025-04-22T13:18:56.444+03:00,1745317135.028596,40.9522634397247,29.14028108201103,76.21932,-1,-1,-1,-1,30,24.85156048724523,-9999,32849.803213375,-0.607208251953125,0.53265380859375,-0.5856781005859375,32849.793136375,0.1776883359988912,-0.8011254869783636,-0.5653388794230525,-0.01610090956091881,-0.0001826090738177299,-0.003243544837459922,-0.000348210334777832,-0.004894554615020752,0.006674110889434814,XArbitraryZVertical,0.2226033198104068,0.3957736614508038,-0.1867935886868323,-0.8711595905893059,-0.6064022779464722,0.5357019901275635,-0.5876219272613525,0,0,0,-1,-1,32846.292754625,unknown,2,2025-04-22T13:18:52.929+03:00,2025-04-21T17:08:51.449+03:00,7440,1.01013,0,0,6196.233,5,20,2025-04-22T13:18:52.929+03:00,767009935.5997123,0,-20.39,100.4473,1,0.7,2025-04-22T13:17:51.654+03:00,90,1.5,2025-04-22T09:54:17.825+03:00,0.02225348692287972,0
2025-04-22T13:18:56.454+03:00,1745317135.028596,40.9522634397247,29.14028108201103,76.21932,-1,-1,-1,-1,30,24.85156048724523,-9999,32849.813290375,-0.60308837890625,0.5326690673828125,-0.586456298828125,32849.803213375,0.1775166452521968,-0.8012600445360546,-0.5654475363700437,-0.01607347838580608,-0.00476777320727706,-0.00337483873590827,-0.001775801181793213,-0.003399372100830078,0.003408670425415039,XArbitraryZVertical,0.2226731060212556,0.3958115283065258,-0.1867528065281148,-0.8711333081333111,-0.6064395308494568,0.5357937216758728,-0.5874998569488525,0,0,0,-1,-1,32846.292754625,unknown,2,2025-04-22T13:18:52.929+03:00,2025-04-21T17:08:51.449+03:00,7440,1.01013,0,0,6196.233,5,20,2025-04-22T13:18:52.929+03:00,767009935.5997123,0,-20.39,100.4473,1,0.7,2025-04-22T13:17:51.654+03:00,90,1.5,2025-04-22T09:54:17.825+03:00,0.02225348692287972,0
2025-04-22T13:18:56.464+03:00,1745317135.028596,40.9522634397247,29.14028108201103,76.21932,-1,-1,-1,-1,30,24.85156048724523,-9999,32849.823366375,-0.6018218994140625,0.5318603515625,-0.5832672119140625,32849.813290375,0.1773203834271511,-0.8014442893273895,-0.5655862341263644,-0.02448294125497341,-0.01032525859773159,-0.003409193595871329,0.001376569271087646,-0.003012955188751221,0.000361323356628418,XArbitraryZVertical,0.2227564970900941,0.3958678421657962,-0.1867121394664135,-0.8710951020418887,-0.6064943671226501,0.5359108448028564,-0.5873363614082336,0,0,0,-1,-1,32846.292754625,unknown,2,2025-04-22T13:18:52.929+03:00,2025-04-21T17:08:51.449+03:00,7440,1.01013,0,0,6196.233,5,20,2025-04-22T13:18:52.929+03:00,767009935.5997123,0,-20.39,100.4473,1,0.7,2025-04-22T13:17:51.654+03:00,90,1.5,2025-04-22T09:54:17.825+03:00,0.02225348692287972,0
2025-04-22T13:18:56.484+03:00,1745317135.028596,40.9522634397247,29.14028108201103,76.21932,-1,-1,-1,-1,30,24.85156048724523,-9999,32849.833443375,-0.6041107177734375,0.5296173095703125,-0.584747314453125,32849.823366375,0.1770844302491797,-0.8016667491857346,-0.5657706546547764,-0.02701054699718952,-0.009703408926725388,0.0001607738668099046,0.004610002040863037,-0.003946781158447266,0.003194153308868408,XArbitraryZVertical,0.2228645335420834,0.3959356450042896,-0.1866664547003172,-0.8710464842330808,-0.6065540313720703,0.5360665321350098,-0.5871327519416809,0,0,0,-1,-1,32846.292754625,unknown,2,2025-04-22T13:18:52.929+03:00,2025-04-21T17:08:51.449+03:00,7440,1.01013,0,0,6196.233,5,20,2025-04-22T13:18:52.929+03:00,767009935.5997123,0,-20.39,100.4473,1,0.7,2025-04-22T13:17:51.654+03:00,90,1.5,2025-04-22T09:54:17.825+03:00,0.02225348692287972,0
2025-04-22T13:18:56.485+03:00,1745317135.028596,40.9522634397247,29.14028108201103,76.21932,-1,-1,-1,-1,30,24.85156048724523,-9999,32849.84352037501,-0.6065826416015625,0.53826904296875,-0.5830078125,32849.833443375,0.1768821701457973,-0.8018252259229515,-0.5659481985911372,-0.01874562911689281,-0.0009548589587211609,0.003615592606365681,0.003734469413757324,-0.006522834300994873,0.00373375415802002,XArbitraryZVertical,0.2229688171085107,0.3959794154977798,-0.1866271392386046,-0.8710083475680682,-0.6065787076950073,0.5362164378166199,-0.5869703888893127,0,0,0,-1,-1,32846.292754625,unknown,2,2025-04-22T13:18:52.929+03:00,2025-04-21T17:08:51.449+03:00,7440,1.01013,0,0,6196.233,5,20,2025-04-22T13:18:52.929+03:00,767009935.5997123,0,-20.39,100.4473,1,0.7,2025-04-22T13:17:51.654+03:00,90,1.5,2025-04-22T09:54:17.825+03:00,0.02225348692287972,0
2025-04-22T13:18:56.494+03:00,1745317135.028596,40.9522634397247,29.14028108201103,76.21932,-1,-1,-1,-1,30,24.85156048724523,-9999,32849.853596375,-0.6020355224609375,0.5439605712890625,-0.57977294921875,32849.84352037501,0.1767994486098484,-0.8018410497989765,-0.5660790536153629,-0.008738000877201557,0.005885736551135778,0.005742392968386412,0.0007025003433227539,-0.002727031707763672,0.002530932426452637,XArbitraryZVertical,0.2230419756307166,0.3959751270400079,-0.1866158573145569,-0.8709938651577041,-0.6065374612808228,0.5363268852233887,-0.5869119763374329,0,0,0,-1,-1,32846.292754625,unknown,2,2025-04-22T13:18:52.929+03:00,2025-04-21T17:08:51.449+03:00,7440,1.01013,0,0,6196.233,5,20,2025-04-22T13:18:52.929+03:00,767009935.5997123,0,-20.39,100.4473,1,0.7,2025-04-22T13:17:51.654+03:00,90,1.5,2025-04-22T09:54:17.825+03:00,0.02225348692287972,0
2025-04-22T13:18:56.505+03:00,1745317135.028596,40.9522634397247,29.14028108201103,76.21932,-1,-1,-1,-1,30,24.85156048724523,-9999,32849.863673375,-0.5960845947265625,0.538421630859375,-0.5820465087890625,32849.853596375,0.1768234761794697,-0.8017527915848622,-0.5661410929339185,-0.00158222031313926,0.007593488320708275,0.007839832454919815,0.001984834671020508,0.007810115814208984,0.007077932357788086,XArbitraryZVertical,0.2230730723397378,0.3959384356900959,-0.1866273646275649,-0.8710000799613267,-0.606461763381958,0.5363792181015015,-0.5869423151016235,0,0,0,-1,-1,32846.292754625,unknown,2,2025-04-22T13:18:52.929+03:00,2025-04-21T17:08:51.449+03:00,7440,1.01013,0,0,6196.233,5,20,2025-04-22T13:18:52.929+03:00,767009935.5997123,0,-20.39,100.4473,1,0.7,2025-04-22T13:17:51.654+03:00,90,1.5,2025-04-22T09:54:17.825+03:00,0.02225348692287972,0
2025-04-22T13:18:56.515+03:00,1745317135.028596,40.9522634397247,29.14028108201103,76.21932,-1,-1,-1,-1,30,24.85156048724523,-9999,32849.873750375,-0.59466552734375,0.53668212890625,-0.58575439453125,32849.863673375,0.1768549158580683,-0.801688952014237,-0.5661786402285831,-0.0006130959372967482,0.005658701993525028,0.006064302753657103,0.008662045001983643,0.004833519458770752,0.006065070629119873,XArbitraryZVertical,0.2230895158865414,0.3959135561841843,-0.1866405036058255,-0.8710043979842994,-0.6064098477363586,0.536410927772522,-0.5869670510292053,0,0,0,-1,-1,32846.292754625,unknown,2,2025-04-22T13:18:52.929+03:00,2025-04-21T17:08:51.449+03:00,7440,1.01013,0,0,6196.233,5,20,2025-04-22T13:18:52.929+03:00,767009935.5997123,0,-20.39,100.4473,1,0.7,2025-04-22T13:17:51.654+03:00,90,1.5,2025-04-22T09:54:17.825+03:00,0.02225348692287972,0
2025-04-22T13:18:56.525+03:00,1745317135.028596,40.9522634397247,29.14028108201103,76.21932,-1,-1,-1,-1,30,24.85156048724523,-9999,32849.883827375,-0.59521484375,0.5365447998046875,-0.5850677490234375,32849.873750375,0.1768314418714721,-0.8016897973886868,-0.5662468701631403,-0.01089402940124273,-0.001459727995097637,0.006131247617304325,0.01171857118606567,6.097555160522461e-05,0.002087056636810303,XArbitraryZVertical,0.2231244494280998,0.3959102458049458,-0.1866423106701405,-0.8709966269251276,-0.6063840389251709,0.536468505859375,-0.586941123008728,0,0,0,-1,-1,32846.292754625,unknown,2,2025-04-22T13:18:52.929+03:00,2025-04-21T17:08:51.449+03:00,7440,1.01013,0,0,6196.233,5,20,2025-04-22T13:18:52.929+03:00,767009935.5997123,0,-20.39,100.4473,1,0.7,2025-04-22T13:17:51.654+03:00,90,1.5,2025-04-22T09:54:17.825+03:00,0.02225348692287972,0
2025-04-22T13:18:56.535+03:00,1745317135.028596,40.9522634397247,29.14028108201103,76.21932,-1,-1,-1,-1,30,24.85156048724523,-9999,32849.893903375,-0.598602294921875,0.530426025390625,-0.584503173828125,32849.883827375,0.176762064010077,-0.8018347312768066,-0.5663478655067942,-0.01336144842207432,-0.01741605624556541,0.003607103833928704,0.01074230670928955,0.000311434268951416,0.0006797909736633301,XArbitraryZVertical,0.2231696178786224,0.3959640975432219,-0.1866459882463911,-0.8709597306650384,-0.6064301133155823,0.5365537405014038,-0.5868155360221863,0,0,0,-1,-1,32846.292754625,unknown,2,2025-04-22T13:18:52.929+03:00,2025-04-21T17:08:51.449+03:00,7440,1.01013,0,0,6196.233,5,20,2025-04-22T13:18:52.929+03:00,767009935.5997123,0,-20.39,100.4473,1,0.7,2025-04-22T13:17:51.654+03:00,90,1.5,2025-04-22T09:54:17.825+03:00,0.02225348692287972,0
2025-04-22T13:18:56.545+03:00,1745317135.028596,40.9522634397247,29.14028108201103,76.21932,-1,-1,-1,-1,30,24.85156048724523,-9999,32849.903980375,-0.605499267578125,0.531768798828125,-0.584503173828125,32849.893903375,0.176652336668359,-0.8021031616131764,-0.5664780358673503,-0.01921620778739452,-0.02377601899206638,0.003556337673217058,0.01030027866363525,-0.003613054752349854,0.00284874439239502,XArbitraryZVertical,0.2232242240644358,0.3960667239911863,-0.1866509539231879,-0.870898086662677,-0.6065374612808228,0.5366635918617249,-0.5866041779518127,0,0,0,-1,-1,32846.292754625,unknown,2,2025-04-22T13:18:52.929+03:00,2025-04-21T17:08:51.449+03:00,7440,1.01013,0,0,6196.233,5,20,2025-04-22T13:18:52.929+03:00,767009935.5997123,0,-20.39,100.4473,1,0.7,2025-04-22T13:17:51.654+03:00,90,1.5,2025-04-22T09:54:17.825+03:00,0.02225348692287972,0
2025-04-22T13:18:56.555+03:00,1745317135.028596,40.9522634397247,29.14028108201103,76.21932,-1,-1,-1,-1,30,24.85156048724523,-9999,32849.914057375,-0.6063385009765625,0.5362701416015625,-0.585205078125,32849.903980375,0.1765067787426535,-0.8024278062106835,-0.5666275450839674,-0.02465997636318207,-0.02701176144182682,0.001721153268590569,0.004131078720092773,-0.00633317232131958,0.002489209175109863,XArbitraryZVertical,0.2232892906307233,0.3961895160310439,-0.1866500116845944,-0.8708258143623241,-0.6066702008247375,0.5367897152900696,-0.5863515138626099,0,0,0,-1,-1,32846.292754625,unknown,2,2025-04-22T13:18:52.929+03:00,2025-04-21T17:08:51.449+03:00,7440,1.01013,0,0,6196.233,5,20,2025-04-22T13:18:52.929+03:00,767009935.5997123,0,-20.39,100.4473,1,0.7,2025-04-22T13:17:51.654+03:00,90,1.5,2025-04-22T09:54:17.825+03:00,0.02225348692287972,0
2025-04-22T13:18:56.565+03:00,1745317135.028596,40.9522634397247,29.14028108201103,76.21932,-1,-1,-1,-1,30,24.85156048724523,-9999,32849.924133375,-0.604400634765625,0.5349273681640625,-0.583953857421875,32849.914057375,0.1763216407823383,-0.8028077553579401,-0.5667866090653868,-0.01982560567557812,-0.03080762922763824,-0.0004629384784493595,-0.0001783967018127441,-0.00201183557510376,0.001055002212524414,XArbitraryZVertical,0.2233613029524685,0.3963318219376311,-0.186639751636179,-0.8707447520608113,-0.6068314909934998,0.536923885345459,-0.5860616564750671,0,0,0,-1,-1,32846.292754625,unknown,2,2025-04-22T13:18:52.929+03:00,2025-04-21T17:08:51.449+03:00,7440,1.01013,0,0,6196.233,5,20,2025-04-22T13:18:52.929+03:00,767009935.5997123,0,-20.39,100.4473,1,0.7,2025-04-22T13:17:51.654+03:00,90,1.5,2025-04-22T09:54:17.825+03:00,0.02225348692287972,0
2025-04-22T13:18:56.575+03:00,1745317135.028596,40.9522634397247,29.14028108201103,76.21932,-1,-1,-1,-1,30,24.85156048724523,-9999,32849.934210375,-0.6033935546875,0.5340423583984375,-0.5826568603515625,32849.924133375,0.1761765087114757,-0.8032058537692813,-0.5668955558062969,-0.01567160710692406,-0.03072533756494522,3.05452267639339e-05,0.002408444881439209,-0.001447618007659912,0.001154184341430664,XArbitraryZVertical,0.2234013931039772,0.3964872200121626,-0.1866401445810761,-0.8706636705082953,-0.6070227026939392,0.5370157957077026,-0.5857794284820557,0,0,0,-1,-1,32846.292754625,unknown,2,2025-04-22T13:18:52.929+03:00,2025-04-21T17:08:51.449+03:00,7440,1.01013,0,0,6196.233,5,20,2025-04-22T13:18:52.929+03:00,767009935.5997123,0,-20.39,100.4473,1,0.7,2025-04-22T13:17:51.654+03:00,90,1.5,2025-04-22T09:54:17.825+03:00,0.02225348692287972,0
2025-04-22T13:18:56.587+03:00,1745317135.028596,40.9522634397247,29.14028108201103,76.21932,-1,-1,-1,-1,30,24.85156048724523,-9999,32849.944287375,-0.6026763916015625,0.5373992919921875,-0.5807037353515625,32849.934210375,0.1760666818092482,-0.8035803018466079,-0.5670156234303854,-0.007997242733836174,-0.0284113846719265,-0.0004974596668034792,0.003435790538787842,-0.002845942974090576,0.002377450466156006,XArbitraryZVertical,0.2234416529595171,0.3966361031210824,-0.1866552810715686,-0.8705822035158729,-0.6071955561637878,0.5371171236038208,-0.5855072736740112,0,0,0,-1,-1,32846.292754625,unknown,2,2025-04-22T13:18:52.929+03:00,2025-04-21T17:08:51.449+03:00,7440,1.01013,0,0,6196.233,5,20,2025-04-22T13:18:52.929+03:00,767009935.5997123,0,-20.39,100.4473,1,0.7,2025-04-22T13:17:51.654+03:00,90,1.5,2025-04-22T09:54:17.825+03:00,0.02225348692287972,0
2025-04-22T13:18:56.596+03:00,1745317135.028596,40.9522634397247,29.14028108201103,76.21932,-1,-1,-1,-1,30,24.85156048724523,-9999,32849.95436466667,-0.600006103515625,0.535980224609375,-0.576690673828125,32849.944287375,0.1760128323596038,-0.8038901458236845,-0.5671046569623315,-0.007215071935206652,-0.02956267073750496,-0.0008572527440264821,0.00439143180847168,-0.001425683498382568,0.003666698932647705,XArbitraryZVertical,0.2234630289942895,0.3967635730298409,-0.1866821193186745,-0.8705128327743895,-0.6073424816131592,0.5371922254562378,-0.5852859020233154,0,0,0,-1,-1,32846.292754625,unknown,2,2025-04-22T13:18:52.929+03:00,2025-04-21T17:08:51.449+03:00,7440,1.01013,0,0,6196.233,5,20,2025-04-22T13:18:52.929+03:00,767009935.5997123,0,-20.39,100.4473,1,0.7,2025-04-22T13:17:51.654+03:00,90,1.5,2025-04-22T09:54:17.825+03:00,0.02225348692287972,0
2025-04-22T13:18:56.627+03:00,1745317135.028596,40.9522634397247,29.14028108201103,76.21932,-1,-1,-1,-1,30,24.85156048724523,-9999,32849.96444066667,-0.598602294921875,0.525146484375,-0.5727386474609375,32849.95436466667,0.1759326850527907,-0.8042007537609844,-0.5672069197006641,-0.01367962919175625,-0.0329696498811245,-0.0009262285893782973,0.006074786186218262,0.0006701350212097168,0.006094932556152344,XArbitraryZVertical,0.2234954233838576,0.3968881757044247,-0.1866998933432885,-0.8704439755691811,-0.6074846982955933,0.5372784733772278,-0.5850591659545898,0,0,0,-1,-1,32846.292754625,unknown,2,2025-04-22T13:18:52.929+03:00,2025-04-21T17:08:51.449+03:00,7440,1.01013,0,0,6196.233,5,20,2025-04-22T13:18:52.929+03:00,767009935.5997123,0,-20.39,100.4473,1,0.7,2025-04-22T13:17:51.654+03:00,90,1.5,2025-04-22T09:54:17.825+03:00,0.02225348692287972,0
2025-04-22T13:18:56.628+03:00,1745317135.028596,40.9522634397247,29.14028108201103,76.21932,-1,-1,-1,-1,30,24.85156048724523,-9999,32849.97451766667,-0.6047210693359375,0.5258636474609375,-0.5767974853515625,32849.96444066667,0.1758063094185222,-0.804525836274583,-0.5673425252025948,-0.01956761255860329,-0.02380544692277908,-0.001087083481252193,0.008287668228149414,-0.007943451404571533,0.01140111684799194,XArbitraryZVertical,0.2235504839403457,0.3970134071002386,-0.1867050910872879,-0.8703715593177337,-0.6076223254203796,0.537392795085907,-0.5848110914230347,0,0,0,-1,-1,32846.292754625,unknown,2,2025-04-22T13:18:52.929+03:00,2025-04-21T17:08:51.449+03:00,7440,1.01013,0,0,6196.233,5,20,2025-04-22T13:18:52.929+03:00,767009935.5997123,0,-20.39,100.4473,1,0.7,2025-04-22T13:17:51.654+03:00,90,1.5,2025-04-22T09:54:17.825+03:00,0.02225348692287972,0
2025-04-22T13:18:56.629+03:00,1745317135.028596,40.9522634397247,29.14028108201103,76.21932,-1,-1,-1,-1,30,24.85156048724523,-9999,32849.98459466667,-0.6107330322265625,0.535552978515625,-0.5793914794921875,32849.97451766667,0.1756953600868461,-0.8047741225502091,-0.56748667541469,-0.01623127050697803,-0.01950850151479244,0.003090184414759278,0.006225466728210449,-0.01383274793624878,0.009762167930603027,XArbitraryZVertical,0.2236134523537957,0.3971067823704215,-0.1867099392301346,-0.8703117045591727,-0.6077116727828979,0.5375143885612488,-0.5846064686775208,0,0,0,-1,-1,32846.292754625,unknown,2,2025-04-22T13:18:52.929+03:00,2025-04-21T17:08:51.449+03:00,7440,1.01013,0,0,6196.233,5,20,2025-04-22T13:18:52.929+03:00,767009935.5997123,0,-20.39,100.4473,1,0.7,2025-04-22T13:17:51.654+03:00,90,1.5,2025-04-22T09:54:17.825+03:00,0.02225348692287972,0
2025-04-22T13:18:56.636+03:00,1745317135.028596,40.9522634397247,29.14028108201103,76.21932,-1,-1,-1,-1,30,24.85156048724523,-9999,32849.99467166667,-0.6092529296875,0.536651611328125,-0.5790557861328125,32849.98459466667,0.1755902129164555,-0.8050059515475896,-0.5676007879915554,-0.01433110516518354,-0.02010318636894226,0.002848102943971753,-0.001922965049743652,-0.005277276039123535,0.00558096170425415,XArbitraryZVertical,0.2236634386646523,0.3971940777147416,-0.1867101748042397,-0.8702590141344216,-0.6078029870986938,0.5376105904579163,-0.5844230651855469,0,0,0,-1,-1,32846.292754625,unknown,2,2025-04-22T13:18:52.929+03:00,2025-04-21T17:08:51.449+03:00,7440,1.01013,0,0,6196.233,5,20,2025-04-22T13:18:52.929+03:00,767009935.5997123,0,-20.39,100.4473,1,0.7,2025-04-22T13:17:51.654+03:00,90,1.5,2025-04-22T09:54:17.825+03:00,0.02225348692287972,0
2025-04-22T13:18:56.646+03:00,1745317135.028596,40.9522634397247,29.14028108201103,76.21932,-1,-1,-1,-1,30,24.85156048724523,-9999,32850.00474766667,-0.6056365966796875,0.5384674072265625,-0.5807342529296875,32849.99467166667,0.1754992357134046,-0.8052701206145079,-0.5677195882135255,-0.01344593707472086,-0.02496725134551525,0.004384846892207861,-0.002470791339874268,-0.0009981393814086914,0.004628419876098633,XArbitraryZVertical,0.2237096784785872,0.397296944980617,-0.1867210388623573,-0.8701978663016783,-0.6079112887382507,0.5377107858657837,-0.5842182636260986,0,0,0,-1,-1,32846.292754625,unknown,2,2025-04-22T13:18:52.929+03:00,2025-04-21T17:08:51.449+03:00,7440,1.01013,0,0,6196.233,5,20,2025-04-22T13:18:52.929+03:00,767009935.5997123,0,-20.39,100.4473,1,0.7,2025-04-22T13:17:51.654+03:00,90,1.5,2025-04-22T09:54:17.825+03:00,0.02225348692287972,0
2025-04-22T13:18:56.656+03:00,1745317135.028596,40.9522634397247,29.14028108201103,76.21932,-1,-1,-1,-1,30,24.85156048724523,-9999,32850.01482466667,-0.60491943359375,0.544921875,-0.5838470458984375,32850.00474766667,0.1754496404882491,-0.8055295767623517,-0.5678236822255271,-0.008053834550082684,-0.02541839145123959,0.004835986532270908,0.0008294582366943359,-0.0001551508903503418,0.00357741117477417,XArbitraryZVertical,0.2237416004785958,0.3974026281631955,-0.1867468249145461,-0.8701358381754668,-0.6080224514007568,0.5377985239028931,-0.5840216875076294,0,0,0,-1,-1,32846.292754625,unknown,2,2025-04-22T13:18:52.929+03:00,2025-04-21T17:08:51.449+03:00,7440,1.01013,0,0,6196.233,5,20,2025-04-22T13:18:52.929+03:00,767009935.5997123,0,-20.39,100.4473,1,0.7,2025-04-22T13:17:51.654+03:00,90,1.5,2025-04-22T09:54:17.825+03:00,0.02225348692287972,0
2025-04-22T13:18:56.666+03:00,1745317135.028596,40.9522634397247,29.14028108201103,76.21932,-1,-1,-1,-1,30,24.85156048724523,-9999,32850.02490166667,-0.60272216796875,0.5456390380859375,-0.5847930908203125,32850.01482466667,0.1754399478505219,-0.8058294456669144,-0.5679237653927536,-0.009507853537797928,-0.03515111282467842,0.01039350405335426,0.003346145153045654,0.005390942096710205,0.0007333159446716309,XArbitraryZVertical,0.2237600305077145,0.3975304097346768,-0.1867937982764847,-0.8700626106621596,-0.6081587076187134,0.537882924079895,-0.5838020443916321,0,0,0,-1,-1,32846.292754625,unknown,2,2025-04-22T13:18:52.929+03:00,2025-04-21T17:08:51.449+03:00,7440,1.01013,0,0,6196.233,5,20,2025-04-22T13:18:52.929+03:00,767009935.5997123,0,-20.39,100.4473,1,0.7,2025-04-22T13:17:51.654+03:00,90,1.5,2025-04-22T09:54:17.825+03:00,0.02225348692287972,0
2025-04-22T13:18:56.676+03:00,1745317135.028596,40.9522634397247,29.14028108201103,76.21932,-1,-1,-1,-1,30,24.85156048724523,-9999,32850.03497866667,-0.6057281494140625,0.5392303466796875,-0.582672119140625,32850.02490166667,0.1754455131370183,-0.8061602307060409,-0.5680650353961325,-0.007147494703531265,-0.03423258662223816,0.008065102621912956,0.004644036293029785,0.00811004638671875,-0.001534700393676758,XArbitraryZVertical,0.2237908353409324,0.3976726486398789,-0.1868581124920928,-0.869975907026367,-0.6082969903945923,0.5380020141601562,-0.5835482478141785,0,0,0,-1,-1,32846.292754625,unknown,2,2025-04-22T13:18:52.929+03:00,2025-04-21T17:08:51.449+03:00,7440,1.01013,0,0,6196.233,5,20,2025-04-22T13:18:52.929+03:00,767009935.5997123,0,-20.39,100.4473,1,0.7,2025-04-22T13:17:51.654+03:00,90,1.5,2025-04-22T09:54:17.825+03:00,0.02225348692287972,0
2025-04-22T13:18:56.686+03:00,1745317135.028596,40.9522634397247,29.14028108201103,76.21932,-1,-1,-1,-1,30,24.85156048724523,-9999,32850.04505466667,-0.6135101318359375,0.5386505126953125,-0.5839385986328125,32850.03497866667,0.1754728549613138,-0.8064610494390743,-0.5681929609783617,-0.002773518674075603,-0.02736536040902138,0.009217452257871628,0.004617273807525635,0.002997338771820068,5.042552947998047e-05,XArbitraryZVertical,0.2238141627709504,0.3978044946864078,-0.1869262155532393,-0.8698950020156826,-0.6084228157997131,0.5381098389625549,-0.5833176374435425,0,0,0,-1,-1,32846.292754625,unknown,2,2025-04-22T13:18:52.929+03:00,2025-04-21T17:08:51.449+03:00,7440,1.01013,0,0,6196.233,5,20,2025-04-22T13:18:52.929+03:00,767009935.5997123,0,-20.39,100.4473,1,0.7,2025-04-22T13:17:51.654+03:00,90,1.5,2025-04-22T09:54:17.825+03:00,0.02225348692287972,0
2025-04-22T13:18:56.696+03:00,1745317135.028596,40.9522634397247,29.14028108201103,76.21932,-1,-1,-1,-1,30,24.85156048724523,-9999,32850.05513166667,-0.614990234375,0.539642333984375,-0.583740234375,32850.04505466667,0.1755348117209919,-0.8066575559546374,-0.568253911007364,0.0007293369853869081,-0.01945097744464874,0.007789465598762035,-0.002249777317047119,0.0005503296852111816,-0.0002138614654541016,XArbitraryZVertical,0.223810564324493,0.3978959086129161,-0.1869858942726844,-0.8698413084510339,-0.6085137724876404,0.5381612181663513,-0.5831753611564636,0,0,0,-1,-1,32846.292754625,unknown,2,2025-04-22T13:18:52.929+03:00,2025-04-21T17:08:51.449+03:00,7440,1.01013,0,0,6196.233,5,20,2025-04-22T13:18:52.929+03:00,767009935.5997123,0,-20.39,100.4473,1,0.7,2025-04-22T13:17:51.654+03:00,90,1.5,2025-04-22T09:54:17.825+03:00,0.02225348692287972,0
2025-04-22T13:18:56.706+03:00,1745317135.028596,40.9522634397247,29.14028108201103,76.21932,-1,-1,-1,-1,30,24.85156048724523,-9999,32850.06520866667,-0.6082916259765625,0.5365753173828125,-0.5830841064453125,32850.05513166667,0.1756091813821338,-0.80681507413847,-0.5682785655083703,-0.0005189531948417425,-0.02196906320750713,0.01096059195697308,-0.00695878267288208,0.00153660774230957,-0.001051366329193115,XArbitraryZVertical,0.2237920019170895,0.3979723522397331,-0.1870402264953603,-0.8697993926915397,-0.6085960268974304,0.5381819605827332,-0.5830702781677246,0,0,0,-1,-1,32846.292754625,unknown,2,2025-04-22T13:18:52.929+03:00,2025-04-21T17:08:51.449+03:00,7440,1.01013,0,0,6196.233,5,20,2025-04-22T13:18:52.929+03:00,767009935.5997123,0,-20.39,100.4473,1,0.7,2025-04-22T13:17:51.654+03:00,90,1.5,2025-04-22T09:54:17.825+03:00,0.02225348692287972,0
2025-04-22T13:18:56.716+03:00,1745317135.028596,40.9522634397247,29.14028108201103,76.21932,-1,-1,-1,-1,30,24.85156048724523,-9999,32850.07528466667,-0.605987548828125,0.5372314453125,-0.5819091796875,32850.06520866667,0.1756778109114065,-0.8070028323293595,-0.5683444565653788,-0.002594354562461376,-0.02050432562828064,0.01255342736840248,-0.002053141593933105,0.0001230239868164062,5.960464477539062e-08,XArbitraryZVertical,0.2237900682953556,0.3980606059382903,-0.187102684777102,-0.8697461264381774,-0.6086798906326294,0.5382375121116638,-0.5829315185546875,0,0,0,-1,-1,32846.292754625,unknown,2,2025-04-22T13:18:52.929+03:00,2025-04-21T17:08:51.449+03:00,7440,1.01013,0,0,6196.233,5,20,2025-04-22T13:18:52.929+03:00,767009935.5997123,0,-20.39,100.4473,1,0.7,2025-04-22T13:17:51.654+03:00,90,1.5,2025-04-22T09:54:17.825+03:00,0.02225348692287972,0
2025-04-22T13:18:56.726+03:00,1745317135.028596,40.9522634397247,29.14028108201103,76.21932,-1,-1,-1,-1,30,24.85156048724523,-9999,32850.08536166667,-0.6043243408203125,0.5378875732421875,-0.579986572265625,32850.07528466667,0.1757404524168764,-0.8071829557327043,-0.5684669274774429,-0.007857493124902248,-0.01852020248770714,0.01405148860067129,0.00282597541809082,-0.001444995403289795,-0.0001094341278076172,XArbitraryZVertical,0.2238151871700361,0.3981439741374541,-0.1871716919539378,-0.869686642353228,-0.6087372303009033,0.5383407473564148,-0.5827762484550476,0,0,0,-1,-1,32846.292754625,unknown,2,2025-04-22T13:18:52.929+03:00,2025-04-21T17:08:51.449+03:00,7440,1.01013,0,0,6196.233,5,20,2025-04-22T13:18:52.929+03:00,767009935.5997123,0,-20.39,100.4473,1,0.7,2025-04-22T13:17:51.654+03:00,90,1.5,2025-04-22T09:54:17.825+03:00,0.02225348692287972,0
2025-04-22T13:18:56.737+03:00,1745317135.028596,40.9522634397247,29.14028108201103,76.21932,-1,-1,-1,-1,30,24.85156048724523,-9999,32850.09543866667,-0.605865478515625,0.538482666015625,-0.580078125,32850.08536166667,0.1757754712038016,-0.8073835263698296,-0.5686063333023283,-0.002487761434167624,-0.02165660820901394,0.01046367827802896,0.003346443176269531,-0.0004333257675170898,0.002096951007843018,XArbitraryZVertical,0.2238514051402515,0.3982328529825098,-0.1872339593273272,-0.8696232392562986,-0.608799934387207,0.5384581685066223,-0.5826022624969482,0,0,0,-1,-1,32846.292754625,unknown,2,2025-04-22T13:18:52.929+03:00,2025-04-21T17:08:51.449+03:00,7440,1.01013,0,0,6196.233,5,20,2025-04-22T13:18:52.929+03:00,767009935.5997123,0,-20.39,100.4473,1,0.7,2025-04-22T13:17:51.654+03:00,90,1.5,2025-04-22T09:54:17.825+03:00,0.02225348692287972,0
2025-04-22T13:18:56.747+03:00,1745317135.028596,40.9522634397247,29.14028108201103,76.21932,-1,-1,-1,-1,30,24.85156048724523,-9999,32850.10551566667,-0.610260009765625,0.538970947265625,-0.58026123046875,32850.09543866667,0.175879831157145,-0.8074740030020995,-0.5687398508938012,0.0009210179559886456,-0.01081601157784462,0.01394173316657543,0.004537343978881836,-0.001110374927520752,0.003380715847015381,XArbitraryZVertical,0.2238814943572805,0.398281707695941,-0.187313012893618,-0.8695761291303854,-0.6088007092475891,0.5385707020759583,-0.5824975371360779,0,0,0,-1,-1,32846.292754625,unknown,2,2025-04-22T13:18:52.929+03:00,2025-04-21T17:08:51.449+03:00,7440,1.01013,0,0,6196.233,5,20,2025-04-22T13:18:52.929+03:00,767009935.5997123,0,-20.39,100.4473,1,0.7,2025-04-22T13:17:51.654+03:00,90,1.5,2025-04-22T09:54:17.825+03:00,0.02225348692287972,0
2025-04-22T13:18:56.757+03:00,1745317135.028596,40.9522634397247,29.14028108201103,76.21932,-1,-1,-1,-1,30,24.85156048724523,-9999,32850.11559166667,-0.607818603515625,0.536041259765625,-0.57470703125,32850.10551566667,0.1760635917058842,-0.8074304090321804,-0.5688620053195714,0.006003128364682198,-0.005859868600964546,0.01511592231690884,-0.0004336237907409668,-3.838539123535156e-05,0.002141058444976807,XArbitraryZVertical,0.2239032808137182,0.3982813676506511,-0.1874095973642367,-0.869549829229722,-0.608727753162384,0.5386736392974854,-0.5824785232543945,0,0,0,-1,-1,32846.292754625,unknown,2,2025-04-22T13:18:52.929+03:00,2025-04-21T17:08:51.449+03:00,7440,1.01013,0,0,6196.233,5,20,2025-04-22T13:18:52.929+03:00,767009935.5997123,0,-20.39,100.4473,1,0.7,2025-04-22T13:17:51.654+03:00,90,1.5,2025-04-22T09:54:17.825+03:00,0.02225348692287972,0
2025-04-22T13:18:56.767+03:00,1745317135.028596,40.9522634397247,29.14028108201103,76.21932,-1,-1,-1,-1,30,24.85156048724523,-9999,32850.12566866667,-0.6026763916015625,0.534698486328125,-0.576812744140625,32850.11559166667,0.1762357733714951,-0.8073980342543885,-0.5689344635616528,0.005906921345740557,-0.009154798462986946,0.01237869169563055,-0.0008011460304260254,-0.002113699913024902,0.005963742733001709,XArbitraryZVertical,0.2239042384497179,0.3982854268399253,-0.1874936437429613,-0.8695295302066121,-0.6086806654930115,0.5387346744537354,-0.5824711918830872,0,0,0,-1,-1,32846.292754625,unknown,2,2025-04-22T13:18:52.929+03:00,2025-04-21T17:08:51.449+03:00,7440,1.01013,0,0,6196.233,5,20,2025-04-22T13:18:52.929+03:00,767009935.5997123,0,-20.39,100.4473,1,0.7,2025-04-22T13:17:51.654+03:00,90,1.5,2025-04-22T09:54:17.825+03:00,0.02225348692287972,0
2025-04-22T13:18:56.777+03:00,1745317135.028596,40.9522634397247,29.14028108201103,76.21932,-1,-1,-1,-1,30,24.85156048724523,-9999,32850.13574566667,-0.598297119140625,0.5331878662109375,-0.582977294921875,32850.12566866667,0.1763608765819712,-0.8074820531184966,-0.5690148064135464,-0.003256216878071427,-0.01837918907403946,0.01535823568701744,0.004404544830322266,-0.004348099231719971,0.007530629634857178,XArbitraryZVertical,0.2239071504699325,0.3983346540433621,-0.1875715971497626,-0.8694894651792511,-0.608698308467865,0.5388023257255554,-0.5823901891708374,0,0,0,-1,-1,32846.292754625,unknown,2,2025-04-22T13:18:52.929+03:00,2025-04-21T17:08:51.449+03:00,7440,1.01013,0,0,6196.233,5,20,2025-04-22T13:18:52.929+03:00,767009935.5997123,0,-20.39,100.4473,1,0.7,2025-04-22T13:17:51.654+03:00,90,1.5,2025-04-22T09:54:17.825+03:00,0.02225348692287972,0
2025-04-22T13:18:56.787+03:00,1745317135.028596,40.9522634397247,29.14028108201103,76.21932,-1,-1,-1,-1,30,24.85156048724523,-9999,32850.14582266667,-0.5957794189453125,0.524688720703125,-0.583984375,32850.13574566667,0.1764268161769079,-0.8076759110976536,-0.5691740093829399,-0.009950737468898296,-0.02486145682632923,0.01603740826249123,0.009094059467315674,-0.004360079765319824,0.0006241798400878906,XArbitraryZVertical,0.2239465851734369,0.3984237455091103,-0.1876500491150563,-0.8694215883977484,-0.6087492108345032,0.5389364361763,-0.5822128653526306,0,0,0,-1,-1,32846.292754625,unknown,2,2025-04-22T13:18:52.929+03:00,2025-04-21T17:08:51.449+03:00,7440,1.01013,0,0,6196.233,5,20,2025-04-22T13:18:52.929+03:00,767009935.5997123,0,-20.39,100.4473,1,0.7,2025-04-22T13:17:51.654+03:00,90,1.5,2025-04-22T09:54:17.825+03:00,0.02225348692287972,0
2025-04-22T13:18:56.797+03:00,1745317135.028596,40.9522634397247,29.14028108201103,76.21932,-1,-1,-1,-1,30,24.85156048724523,-9999,32850.15589866667,-0.5966339111328125,0.521728515625,-0.5840606689453125,32850.14582266667,0.1764277139033777,-0.8079794060870173,-0.5693853459499143,-0.02034878544509411,-0.03568347916007042,0.01881801523268223,0.01211804151535034,-0.01155716180801392,-0.002095997333526611,XArbitraryZVertical,0.2240118503982024,0.3985523879619159,-0.1877217465949648,-0.8693302777019758,-0.6088435053825378,0.5391144752502441,-0.5819493532180786,0,0,0,-1,-1,32846.292754625,unknown,2,2025-04-22T13:18:52.929+03:00,2025-04-21T17:08:51.449+03:00,7440,1.01013,0,0,6196.233,5,20,2025-04-22T13:18:52.929+03:00,767009935.5997123,0,-20.39,100.4473,1,0.7,2025-04-22T13:17:51.654+03:00,90,1.5,2025-04-22T09:54:17.825+03:00,0.02225348692287972,0
2025-04-22T13:18:56.807+03:00,1745317135.028596,40.9522634397247,29.14028108201103,76.21932,-1,-1,-1,-1,30,24.85156048724523,-9999,32850.16597566667,-0.5974884033203125,0.5272064208984375,-0.5828094482421875,32850.15589866667,0.1763729054151056,-0.8083815732388185,-0.5696736032947911,-0.02957377396523952,-0.04089668393135071,0.01799546368420124,0.01315516233444214,-0.01837641000747681,-0.002265095710754395,XArbitraryZVertical,0.2241131082713976,0.3987163775169621,-0.1877938635159718,-0.8692134327453837,-0.6089651584625244,0.5393572449684143,-0.5815971493721008,0,0,0,-1,-1,32846.292754625,unknown,2,2025-04-22T13:18:52.929+03:00,2025-04-21T17:08:51.449+03:00,7440,1.01013,0,0,6196.233,5,20,2025-04-22T13:18:52.929+03:00,767009935.5997123,0,-20.39,100.4473,1,0.7,2025-04-22T13:17:51.654+03:00,90,1.5,2025-04-22T09:54:17.825+03:00,0.02225348692287972,0
2025-04-22T13:18:56.817+03:00,1745317135.028596,40.9522634397247,29.14028108201103,76.21932,-1,-1,-1,-1,30,24.85156048724523,-9999,32850.17605266667,-0.6006317138671875,0.52728271484375,-0.5819549560546875,32850.16597566667,0.1761294818603204,-0.8089592439483403,-0.5701095590812599,-0.05752045661211014,-0.0507889911532402,0.01753047667443752,0.01187121868133545,-0.01445579528808594,-0.001436591148376465,XArbitraryZVertical,0.2243011030857341,0.3989330558482722,-0.1878298748693708,-0.8690576776187154,-0.6091307997703552,0.5397242903709412,-0.5810828804969788,0,0,0,-1,-1,32846.292754625,unknown,2,2025-04-22T13:18:52.929+03:00,2025-04-21T17:08:51.449+03:00,7440,1.01013,0,0,6196.233,5,20,2025-04-22T13:18:52.929+03:00,767009935.5997123,0,-20.39,100.4473,1,0.7,2025-04-22T13:17:51.654+03:00,90,1.5,2025-04-22T09:54:17.825+03:00,0.02225348692287972,0
2025-04-22T13:18:56.827+03:00,1745317135.028596,40.9522634397247,29.14028108201103,76.21932,-1,-1,-1,-1,30,24.85156048724523,-9999,32850.18612966667,-0.6048431396484375,0.520263671875,-0.5798492431640625,32850.17605266667,0.1755768613214435,-0.8097591642730839,-0.5707809216723919,-0.1037706360220909,-0.05129725858569145,0.01610987819731236,0.0103948712348938,-0.01154184341430664,-0.001884222030639648,XArbitraryZVertical,0.2246344786772936,0.3992075505602138,-0.1877982777065878,-0.8688522889574852,-0.6093328595161438,0.5402893424034119,-0.5803453922271729,0,0,0,-1,-1,32846.292754625,unknown,2,2025-04-22T13:18:52.929+03:00,2025-04-21T17:08:51.449+03:00,7440,1.01013,0,0,6196.233,5,20,2025-04-22T13:18:52.929+03:00,767009935.5997123,0,-20.39,100.4473,1,0.7,2025-04-22T13:17:51.654+03:00,90,1.5,2025-04-22T09:54:17.825+03:00,0.02225348692287972,0
2025-04-22T13:18:56.837+03:00,1745317135.028596,40.9522634397247,29.14028108201103,76.21932,-1,-1,-1,-1,30,24.85156048724523,-9999,32850.19620566667,-0.6065673828125,0.5177459716796875,-0.578948974609375,32850.18612966667,0.1746622882448831,-0.8107588607478747,-0.5717093118004783,-0.1391885578632355,-0.04920987039804459,0.01749365776777267,0.00586545467376709,-0.01802963018417358,-0.0008557438850402832,XArbitraryZVertical,0.2251355373002618,0.3995233885186286,-0.1876777876725068,-0.8686034295157568,-0.6095488667488098,0.5410703420639038,-0.5793901085853577,0,0,0,-1,-1,32846.292754625,unknown,2,2025-04-22T13:18:52.929+03:00,2025-04-21T17:08:51.449+03:00,7440,1.01013,0,0,6196.233,5,20,2025-04-22T13:18:52.929+03:00,767009935.5997123,0,-20.39,100.4473,1,0.7,2025-04-22T13:17:51.654+03:00,90,1.5,2025-04-22T09:54:17.825+03:00,0.02225348692287972,0
2025-04-22T13:18:56.848+03:00,1745317135.028596,40.9522634397247,29.14028108201103,76.21932,-1,-1,-1,-1,30,24.85156048724523,-9999,32850.20628266667,-0.6057891845703125,0.5255126953125,-0.5785980224609375,32850.19620566667,0.1732735124572171,-0.8120105745175583,-0.5729675583429285,-0.1987856328487396,-0.04654943943023682,0.007373212836682796,0.002937138080596924,-0.02461105585098267,-0.001584529876708984,XArbitraryZVertical,0.2258542434313182,0.3998886849281432,-0.1874389813614105,-0.8683002757495037,-0.6097791194915771,0.5421280860900879,-0.5781577825546265,0,0,0,-1,-1,32846.292754625,unknown,2,2025-04-22T13:18:52.929+03:00,2025-04-21T17:08:51.449+03:00,7440,1.01013,0,0,6196.233,5,20,2025-04-22T13:18:52.929+03:00,767009935.5997123,0,-20.39,100.4473,1,0.7,2025-04-22T13:17:51.654+03:00,90,1.5,2025-04-22T09:54:17.825+03:00,0.02225348692287972,0
2025-04-22T13:18:56.858+03:00,1745317135.028596,40.9522634397247,29.14028108201103,76.21932,-1,-1,-1,-1,30,24.85156048724523,-9999,32850.21635966667,-0.6053314208984375,0.520843505859375,-0.5807342529296875,32850.20628266667,0.1716561400822628,-0.8133992108941073,-0.5743603366964219,-0.1996839195489883,-0.05497461557388306,0.01297916658222675,0.004532873630523682,-0.02045553922653198,-0.000967562198638916,XArbitraryZVertical,0.2266657216284734,0.400283726244321,-0.1871414651792535,-0.867970926700033,-0.6100321412086487,0.5432978868484497,-0.5767911672592163,0,0,0,-1,-1,32846.292754625,unknown,2,2025-04-22T13:18:52.929+03:00,2025-04-21T17:08:51.449+03:00,7440,1.01013,0,0,6196.233,5,20,2025-04-22T13:18:52.929+03:00,767009935.5997123,0,-20.39,100.4473,1,0.7,2025-04-22T13:17:51.654+03:00,90,1.5,2025-04-22T09:54:17.825+03:00,0.02225348692287972,0
2025-04-22T13:18:56.868+03:00,1745317135.028596,40.9522634397247,29.14028108201103,76.21932,-1,-1,-1,-1,30,24.85156048724523,-9999,32850.22643666667,-0.601898193359375,0.5247802734375,-0.5772857666015625,32850.21635966667,0.1699022956532558,-0.8148688059546825,-0.5759703281950456,-0.2368003875017166,-0.05823485925793648,0.01613940857350826,0.004925727844238281,-0.02118086814880371,-0.005227327346801758,XArbitraryZVertical,0.2275935065654193,0.4006925888026067,-0.1868340064890759,-0.8676056469592021,-0.6102418899536133,0.5446488261222839,-0.5752933025360107,0,0,0,-1,-1,32846.292754625,unknown,2,2025-04-22T13:18:52.929+03:00,2025-04-21T17:08:51.449+03:00,7440,1.01013,0,0,6196.233,5,20,2025-04-22T13:18:52.929+03:00,767009935.5997123,0,-20.39,100.4473,1,0.7,2025-04-22T13:17:51.654+03:00,90,1.5,2025-04-22T09:54:17.825+03:00,0.02225348692287972,0
2025-04-22T13:18:56.878+03:00,1745317135.028596,40.9522634397247,29.14028108201103,76.21932,-1,-1,-1,-1,30,24.85156048724523,-9999,32850.23651266667,-0.601165771484375,0.5283660888671875,-0.577972412109375,32850.22643666667,0.1679494316001134,-0.816457724768835,-0.5776912413843681,-0.2540667355060577,-0.06006817892193794,0.01637323386967182,0.00788646936416626,-0.02388972043991089,-0.004368424415588379,XArbitraryZVertical,0.2285994168320935,0.401126118214714,-0.1864752709122746,-0.8672180575539862,-0.6104713678359985,0.5460912585258484,-0.5736802816390991,0,0,0,-1,-1,32846.292754625,unknown,2,2025-04-22T13:18:52.929+03:00,2025-04-21T17:08:51.449+03:00,7440,1.01013,0,0,6196.233,5,20,2025-04-22T13:18:52.929+03:00,767009935.5997123,0,-20.39,100.4473,1,0.7,2025-04-22T13:17:51.654+03:00,90,1.5,2025-04-22T09:54:17.825+03:00,0.02225348692287972,0
2025-04-22T13:18:56.888+03:00,1745317135.028596,40.9522634397247,29.14028108201103,76.21932,-1,-1,-1,-1,30,24.85156048724523,-9999,32850.24658966667,-0.59844970703125,0.536529541015625,-0.5759735107421875,32850.23651266667,0.1657831291914296,-0.818190535148196,-0.5795526107089638,-0.2816641330718994,-0.06679838895797729,0.015285131521523,0.009723544120788574,-0.02114516496658325,-0.005924582481384277,XArbitraryZVertical,0.2296972684974583,0.4015921931774391,-0.1860676620304889,-0.8667996341082602,-0.6107214689254761,0.5476496815681458,-0.5719257593154907,0,0,0,-1,-1,32846.292754625,unknown,2,2025-04-22T13:18:52.929+03:00,2025-04-21T17:08:51.449+03:00,7440,1.01013,0,0,6196.233,5,20,2025-04-22T13:18:52.929+03:00,767009935.5997123,0,-20.39,100.4473,1,0.7,2025-04-22T13:17:51.654+03:00,90,1.5,2025-04-22T09:54:17.825+03:00,0.02225348692287972,0
2025-04-22T13:18:56.898+03:00,1745317135.028596,40.9522634397247,29.14028108201103,76.21932,-1,-1,-1,-1,30,24.85156048724523,-9999,32850.25666666667,-0.5993804931640625,0.534210205078125,-0.576629638671875,32850.24658966667,0.1634083869500997,-0.8201501969533115,-0.5815097549209708,-0.2984867691993713,-0.07644781470298767,0.008217369206249714,0.01143151521682739,-0.01561009883880615,-0.006756007671356201,XArbitraryZVertical,0.2308586783377151,0.4021274320311358,-0.1856153950021225,-0.8663397103959259,-0.6110560894012451,0.5492861866950989,-0.5699955821037292,0,0,0,-1,-1,32846.292754625,unknown,2,2025-04-22T13:18:52.929+03:00,2025-04-21T17:08:51.449+03:00,7440,1.01013,0,0,6196.233,5,20,2025-04-22T13:18:52.929+03:00,767009935.5997123,0,-20.39,100.4473,1,0.7,2025-04-22T13:17:51.654+03:00,90,1.5,2025-04-22T09:54:17.825+03:00,0.02225348692287972,0
2025-04-22T13:18:56.908+03:00,1745317135.028596,40.9522634397247,29.14028108201103,76.21932,-1,-1,-1,-1,30,24.85156048724523,-9999,32850.26674366667,-0.61163330078125,0.5430450439453125,-0.576324462890625,32850.25666666667,0.1607799676507743,-0.8222758993890118,-0.5835870793345974,-0.315373569726944,-0.07250067591667175,0.00219839159399271,0.01375746726989746,-0.01543742418289185,-0.008620381355285645,XArbitraryZVertical,0.2321093820253306,0.4026989078326721,-0.1850968678448946,-0.8658509318772121,-0.6114290356636047,0.5510208606719971,-0.5679176449775696,0,0,0,-1,-1,32846.292754625,unknown,2,2025-04-22T13:18:52.929+03:00,2025-04-21T17:08:51.449+03:00,7440,1.01013,0,0,6196.233,5,20,2025-04-22T13:18:52.929+03:00,767009935.5997123,0,-20.39,100.4473,1,0.7,2025-04-22T13:17:51.654+03:00,90,1.5,2025-04-22T09:54:17.825+03:00,0.02225348692287972,0
2025-04-22T13:18:56.918+03:00,1745317135.028596,40.9522634397247,29.14028108201103,76.21932,-1,-1,-1,-1,30,24.85156048724523,-9999,32850.27681966667,-0.619354248046875,0.5465087890625,-0.5792388916015625,32850.26674366667,0.1578386653764592,-0.8244645007150883,-0.585760835312763,-0.3589484989643097,-0.05438772588968277,-0.001323372591286898,0.005039215087890625,-0.01409155130386353,-0.01034718751907349,XArbitraryZVertical,0.2334605709458283,0.4032547593284812,-0.1844709149194876,-0.8653623813302443,-0.6117896437644958,0.5528335571289062,-0.565763533115387,0,0,0,-1,-1,32846.292754625,unknown,2,2025-04-22T13:18:52.929+03:00,2025-04-21T17:08:51.449+03:00,7440,1.01013,0,0,6196.233,5,20,2025-04-22T13:18:52.929+03:00,767009935.5997123,0,-20.39,100.4473,1,0.7,2025-04-22T13:17:51.654+03:00,90,1.5,2025-04-22T09:54:17.825+03:00,0.02225348692287972,0
2025-04-22T13:18:56.928+03:00,1745317135.028596,40.9522634397247,29.14028108201103,76.21932,-1,-1,-1,-1,30,24.85156048724523,-9999,32850.28689666667,-0.6161346435546875,0.5365447998046875,-0.580963134765625,32850.27681966667,0.1544738420170325,-0.8268012625170257,-0.5881368755509122,-0.3966009318828583,-0.05465790256857872,-0.009662462398409843,-0.005594968795776367,-0.007692813873291016,-0.01486682891845703,XArbitraryZVertical,0.2349736591024426,0.403815261942834,-0.1837193856190835,-0.8648512564801402,-0.6121418476104736,0.5548118948936462,-0.5634412169456482,0,0,0,-1,-1,32846.292754625,unknown,2,2025-04-22T13:18:52.929+03:00,2025-04-21T17:08:51.449+03:00,7440,1.01013,0,0,6196.233,5,20,2025-04-22T13:18:52.929+03:00,767009935.5997123,0,-20.39,100.4473,1,0.7,2025-04-22T13:17:51.654+03:00,90,1.5,2025-04-22T09:54:17.825+03:00,0.02225348692287972,0
2025-04-22T13:18:56.938+03:00,1745317135.028596,40.9522634397247,29.14028108201103,76.21932,-1,-1,-1,-1,30,24.85156048724523,-9999,32850.29697366667,-0.6055450439453125,0.534912109375,-0.57684326171875,32850.28689666667,0.1506562871492893,-0.829452742587964,-0.5907792483211051,-0.4427354037761688,-0.06511133909225464,-0.01301085483282804,-0.006208896636962891,-0.01533669233322144,-0.01954370737075806,XArbitraryZVertical,0.2366678449724837,0.4044455667579022,-0.1828621460282627,-0.8642762486957974,-0.6125501990318298,0.5570083856582642,-0.5608242154121399,0,0,0,-1,-1,32846.292754625,unknown,2,2025-04-22T13:18:52.929+03:00,2025-04-21T17:08:51.449+03:00,7440,1.01013,0,0,6196.233,5,20,2025-04-22T13:18:52.929+03:00,767009935.5997123,0,-20.39,100.4473,1,0.7,2025-04-22T13:17:51.654+03:00,90,1.5,2025-04-22T09:54:17.825+03:00,0.02225348692287972,0
2025-04-22T13:18:56.949+03:00,1745317135.028596,40.9522634397247,29.14028108201103,76.21932,-1,-1,-1,-1,30,24.85156048724523,-9999,32850.30705066667,-0.603790283203125,0.5430908203125,-0.571380615234375,32850.29697366667,0.1466299201292416,-0.8323804701196774,-0.5934787478130356,-0.4357872605323792,-0.08828862756490707,-0.01996639929711819,0.004905760288238525,-0.02563327550888062,-0.02101093530654907,XArbitraryZVertical,0.2384055085065354,0.4051613100357807,-0.1819634436543346,-0.8636528406228042,-0.6130752563476562,0.5592482686042786,-0.5580142736434937,0,0,0,-1,-1,32846.292754625,unknown,2,2025-04-22T13:18:52.929+03:00,2025-04-21T17:08:51.449+03:00,7440,1.01013,0,0,6196.233,5,20,2025-04-22T13:18:52.929+03:00,767009935.5997123,0,-20.39,100.4473,1,0.7,2025-04-22T13:17:51.654+03:00,90,1.5,2025-04-22T09:54:17.825+03:00,0.02225348692287972,0
2025-04-22T13:18:56.958+03:00,1745317135.028596,40.9522634397247,29.14028108201103,76.21932,-1,-1,-1,-1,30,24.85156048724523,-9999,32850.31712666667,-0.6062469482421875,0.5651702880859375,-0.568206787109375,32850.30705066667,0.1426990798210063,-0.8354123500430446,-0.5960587387922709,-0.4112662076950073,-0.0952562615275383,-0.01857542991638184,0.01028347015380859,-0.02244484424591064,-0.01793694496154785,XArbitraryZVertical,0.2400632026112796,0.405928687943224,-0.1811024813074753,-0.8630140800080309,-0.6136922836303711,0.5613852143287659,-0.5551831126213074,0,0,0,-1,-1,32846.292754625,unknown,2,2025-04-22T13:18:52.929+03:00,2025-04-21T17:08:51.449+03:00,7440,1.01013,0,0,6196.233,5,20,2025-04-22T13:18:52.929+03:00,767009935.5997123,0,-20.39,100.4473,1,0.7,2025-04-22T13:17:51.654+03:00,90,1.5,2025-04-22T09:54:17.825+03:00,0.02225348692287972,0
2025-04-22T13:18:56.968+03:00,1745317135.028596,40.9522634397247,29.14028108201103,76.21932,-1,-1,-1,-1,30,24.85156048724523,-9999,32850.32720366667,-0.6066131591796875,0.5820159912109375,-0.572662353515625,32850.31712666667,0.1391101614270754,-0.8384314254857878,-0.5984537226154735,-0.348492830991745,-0.1040303111076355,-0.0164309199899435,0.008452832698822021,-0.008525550365447998,-0.01635932922363281,XArbitraryZVertical,0.2415727462713652,0.4067296149116874,-0.1803591839202679,-0.8623712001305298,-0.6143640875816345,0.5633655786514282,-0.5524272322654724,0,0,0,-1,-1,32846.292754625,unknown,2,2025-04-22T13:18:52.929+03:00,2025-04-21T17:08:51.449+03:00,7440,1.01013,0,0,6196.233,5,20,2025-04-22T13:18:52.929+03:00,767009935.5997123,0,-20.39,100.4473,1,0.7,2025-04-22T13:17:51.654+03:00,90,1.5,2025-04-22T09:54:17.825+03:00,0.02225348692287972,0
2025-04-22T13:18:56.983+03:00,1745317135.028596,40.9522634397247,29.14028108201103,76.21932,-1,-1,-1,-1,30,24.85156048724523,-9999,32850.33728066667,-0.612060546875,0.57879638671875,-0.573974609375,32850.32720366667,0.1359808730623162,-0.8412238302716938,-0.6005310781266994,-0.3164640665054321,-0.09878042340278625,-0.02012179419398308,0.008661568164825439,0.01292210817337036,-0.02128440141677856,XArbitraryZVertical,0.2428709552336971,0.4074917930456637,-0.1797329127786506,-0.8617772702419669,-0.6150305271148682,0.5650807023048401,-0.5499282479286194,0,0,0,-1,-1,32846.292754625,unknown,2,2025-04-22T13:18:52.929+03:00,2025-04-21T17:08:51.449+03:00,7440,1.01013,0,0,6196.233,5,20,2025-04-22T13:18:52.929+03:00,767009935.5997123,0,-20.39,100.4473,1,0.7,2025-04-22T13:17:51.654+03:00,90,1.5,2025-04-22T09:54:17.825+03:00,0.02225348692287972,0
2025-04-22T13:18:56.989+03:00,1745317135.028596,40.9522634397247,29.14028108201103,76.21932,-1,-1,-1,-1,30,24.85156048724523,-9999,32850.34735766667,-0.62139892578125,0.5625762939453125,-0.5753021240234375,32850.33728066667,0.1328197172217977,-0.84393728251121,-0.6025756706422523,-0.3442526757717133,-0.08157946169376373,-0.02394669130444527,0.006143510341644287,0.01614981889724731,-0.02677595615386963,XArbitraryZVertical,0.2441695222028591,0.4082119493410648,-0.1790814687692981,-0.8612049450498865,-0.6156558394432068,0.5667663812637329,-0.5474885106086731,0,0,0,-1,-1,32846.292754625,unknown,2,2025-04-22T13:18:52.929+03:00,2025-04-21T17:08:51.449+03:00,7440,1.01013,0,0,6196.233,5,20,2025-04-22T13:18:52.929+03:00,767009935.5997123,0,-20.39,100.4473,1,0.7,2025-04-22T13:17:51.654+03:00,90,1.5,2025-04-22T09:54:17.825+03:00,0.02225348692287972,0
2025-04-22T13:18:56.999+03:00,1745317135.028596,40.9522634397247,29.14028108201103,76.21932,-1,-1,-1,-1,30,24.85156048724523,-9999,32850.35743366667,-0.628662109375,0.5445556640625,-0.5789031982421875,32850.34735766667,0.1289839031169673,-0.846793991325737,-0.6049915891825959,-0.4554162323474884,-0.05129373073577881,-0.0347474105656147,-0.002111673355102539,0.0005349516868591309,-0.02929294109344482,XArbitraryZVertical,0.2457571182728828,0.4088935942708108,-0.1782308996842888,-0.8606062256355018,-0.61618971824646,0.5687551498413086,-0.5448189377784729,0,0,0,-1,-1,32846.292754625,unknown,2,2025-04-22T13:18:52.929+03:00,2025-04-21T17:08:51.449+03:00,7440,1.01013,0,0,6196.233,5,20,2025-04-22T13:18:52.929+03:00,767009935.5997123,0,-20.39,100.4473,1,0.7,2025-04-22T13:17:51.654+03:00,90,1.5,2025-04-22T09:54:17.825+03:00,0.02225348692287972,0
2025-04-22T13:18:57.008+03:00,1745317135.028596,40.9522634397247,29.14028108201103,76.21932,-1,-1,-1,-1,30,24.85156048724523,-9999,32850.36751066667,-0.62677001953125,0.53924560546875,-0.5770263671875,32850.35743366667,0.1238156078785139,-0.8501716868426099,-0.6081344284742042,-0.5945659279823303,-0.03602829203009605,-0.05458386614918709,-0.0100134015083313,-0.01973217725753784,-0.03590118885040283,XArbitraryZVertical,0.2478909197425297,0.4096021093300332,-0.1770137610743241,-0.8599083272244056,-0.6166803240776062,0.5713373422622681,-0.5415524244308472,0,0,0,-1,-1,32846.292754625,unknown,2,2025-04-22T13:18:52.929+03:00,2025-04-21T17:08:51.449+03:00,7440,1.01013,0,0,6196.233,5,20,2025-04-22T13:18:52.929+03:00,767009935.5997123,0,-20.39,100.4473,1,0.7,2025-04-22T13:17:51.654+03:00,90,1.5,2025-04-22T09:54:17.825+03:00,0.02225348692287972,0
2025-04-22T13:18:57.018+03:00,1745317135.028596,40.9522634397247,29.14028108201103,76.21932,-1,-1,-1,-1,30,24.85156048724523,-9999,32850.37758766667,-0.619110107421875,0.564788818359375,-0.58123779296875,32850.36751066667,0.1173778091452334,-0.8541920552184933,-0.6119694667366126,-0.6935508251190186,-0.02900500223040581,-0.06291023641824722,-0.01119160652160645,-0.03688299655914307,-0.03958380222320557,XArbitraryZVertical,0.2505331706995632,0.4103904554489243,-0.1754710780765853,-0.8590824621013731,-0.6171958446502686,0.5744805932044983,-0.5376256108283997,0,0,0,-1,-1,32846.292754625,unknown,2,2025-04-22T13:18:52.929+03:00,2025-04-21T17:08:51.449+03:00,7440,1.01013,0,0,6196.233,5,20,2025-04-22T13:18:52.929+03:00,767009935.5997123,0,-20.39,100.4473,1,0.7,2025-04-22T13:17:51.654+03:00,90,1.5,2025-04-22T09:54:17.825+03:00,0.02225348692287972,0
2025-04-22T13:18:57.029+03:00,1745317135.028596,40.9522634397247,29.14028108201103,76.21932,-1,-1,-1,-1,30,24.85156048724523,-9999,32850.38766466667,-0.616790771484375,0.584808349609375,-0.5819091796875,32850.37758766667,0.1099209237856889,-0.8588108854174483,-0.6163674971333302,-0.7849584817886353,-0.03237283602356911,-0.07064991444349289,-0.00420987606048584,-0.02494388818740845,-0.04603409767150879,XArbitraryZVertical,0.253581208505625,0.4112662739152347,-0.173686672775297,-0.8581313633156652,-0.6177536249160767,0.5780749320983887,-0.5331132411956787,0,0,0,-1,-1,32846.292754625,unknown,2,2025-04-22T13:18:52.929+03:00,2025-04-21T17:08:51.449+03:00,7440,1.01013,0,0,6196.233,5,20,2025-04-22T13:18:52.929+03:00,767009935.5997123,0,-20.39,100.4473,1,0.7,2025-04-22T13:17:51.654+03:00,90,1.5,2025-04-22T09:54:17.825+03:00,0.02225348692287972,0
2025-04-22T13:18:57.039+03:00,1745317135.028596,40.9522634397247,29.14028108201103,76.21932,-1,-1,-1,-1,30,24.85156048724523,-9999,32850.39774066667,-0.6242828369140625,0.574951171875,-0.5770111083984375,32850.38766466667,0.1017003123144722,-0.863937567012024,-0.6211597810740018,-0.8344927430152893,-0.03404077515006065,-0.07043845951557159,0.001864135265350342,-0.001564919948577881,-0.05459904670715332,XArbitraryZVertical,0.2569180399849025,0.4122209362335913,-0.1717324090126606,-0.8570735273388774,-0.6183649897575378,0.5819786787033081,-0.5281340479850769,0,0,0,-1,-1,32846.292754625,unknown,2,2025-04-22T13:18:52.929+03:00,2025-04-21T17:08:51.449+03:00,7440,1.01013,0,0,6196.233,5,20,2025-04-22T13:18:52.929+03:00,767009935.5997123,0,-20.39,100.4473,1,0.7,2025-04-22T13:17:51.654+03:00,90,1.5,2025-04-22T09:54:17.825+03:00,0.02225348692287972,0
2025-04-22T13:18:57.049+03:00,1745317135.028596,40.9522634397247,29.14028108201103,76.21932,-1,-1,-1,-1,30,24.85156048724523,-9999,32850.40781766667,-0.628143310546875,0.5589599609375,-0.57037353515625,32850.39774066667,0.09336191816509279,-0.8690718567038432,-0.6261456671525168,-0.8278748393058777,-0.01950603909790516,-0.04981467500329018,-0.001867711544036865,-0.00536811351776123,-0.05711233615875244,XArbitraryZVertical,0.260366805788577,0.4131257440338495,-0.1697864935777693,-0.8559839996444115,-0.6188445091247559,0.5860259532928467,-0.5230724811553955,0,0,0,-1,-1,32846.292754625,unknown,2,2025-04-22T13:18:52.929+03:00,2025-04-21T17:08:51.449+03:00,7440,1.01013,0,0,6196.233,5,20,2025-04-22T13:18:52.929+03:00,767009935.5997123,0,-20.39,100.4473,1,0.7,2025-04-22T13:17:51.654+03:00,90,1.5,2025-04-22T09:54:17.825+03:00,0.02225348692287972,0
2025-04-22T13:18:57.059+03:00,1745317135.028596,40.9522634397247,29.14028108201103,76.21932,-1,-1,-1,-1,30,24.85156048724523,-9999,32850.41789466667,-0.6319122314453125,0.57220458984375,-0.5691680908203125,32850.40781766667,0.08542290330857835,-0.8739727206742384,-0.6311043963278846,-0.7722006440162659,-0.01631131209433079,-0.02039420232176781,-0.008307456970214844,-0.02659082412719727,-0.054607093334198,XArbitraryZVertical,0.263744386789091,0.4139540130621592,-0.1679961929273432,-0.8549023357306443,-0.6191644072532654,0.5900368094444275,-0.518161952495575,0,0,0,-1,-1,32846.292754625,unknown,2,2025-04-22T13:18:52.929+03:00,2025-04-21T17:08:51.449+03:00,7440,1.01013,0,0,6196.233,5,20,2025-04-22T13:18:52.929+03:00,767009935.5997123,0,-20.39,100.4473,1,0.7,2025-04-22T13:17:51.654+03:00,90,1.5,2025-04-22T09:54:17.825+03:00,0.02225348692287972,0
2025-04-22T13:18:57.069+03:00,1745317135.028596,40.9522634397247,29.14028108201103,76.21932,-1,-1,-1,-1,30,24.85156048724523,-9999,32850.42797166667,-0.6373443603515625,0.5998077392578125,-0.5787200927734375,32850.41789466667,0.0782940468570212,-0.8782462630897534,-0.6357124927595222,-0.6993795037269592,0.01943356916308403,-0.003371976083144546,-0.0110512375831604,-0.03076273202896118,-0.05442172288894653,XArbitraryZVertical,0.2668572969848398,0.4146110315035208,-0.166418891678368,-0.8539259746096708,-0.6192740797996521,0.5937509536743164,-0.5137697458267212,0,0,0,-1,-1,32846.292754625,unknown,2,2025-04-22T13:18:52.929+03:00,2025-04-21T17:08:51.449+03:00,7440,1.01013,0,0,6196.233,5,20,2025-04-22T13:18:52.929+03:00,767009935.5997123,0,-20.39,100.4473,1,0.7,2025-04-22T13:17:51.654+03:00,90,1.5,2025-04-22T09:54:17.825+03:00,0.02225348692287972,0
2025-04-22T13:18:57.079+03:00,1745317135.028596,40.9522634397247,29.14028108201103,76.21932,-1,-1,-1,-1,30,24.85156048724523,-9999,32850.43804766667,-0.6392669677734375,0.613311767578125,-0.582366943359375,32850.42797166667,0.07168686517808187,-0.8818569826679972,-0.6401062183419494,-0.6603221297264099,0.05708028003573418,0.004782356787472963,-0.01526355743408203,-0.006994485855102539,-0.06488579511642456,XArbitraryZVertical,0.269825627939548,0.4150429461232435,-0.1649483535423374,-0.8530682158797723,-0.6191052794456482,0.5972806215286255,-0.5098669528961182,0,0,0,-1,-1,32846.292754625,unknown,2,2025-04-22T13:18:52.929+03:00,2025-04-21T17:08:51.449+03:00,7440,1.01013,0,0,6196.233,5,20,2025-04-22T13:18:52.929+03:00,767009935.5997123,0,-20.39,100.4473,1,0.7,2025-04-22T13:17:51.654+03:00,90,1.5,2025-04-22T09:54:17.825+03:00,0.02225348692287972,0
2025-04-22T13:18:57.089+03:00,1745317135.028596,40.9522634397247,29.14028108201103,76.21932,-1,-1,-1,-1,30,24.85156048724523,-9999,32850.44812466667,-0.62841796875,0.620391845703125,-0.5792083740234375,32850.43804766667,0.06525976740334646,-0.8850895431680846,-0.6443840439225337,-0.6854891777038574,0.04830283299088478,0.0007374481065198779,-0.02120184898376465,0.009996354579925537,-0.07543981075286865,XArbitraryZVertical,0.2727379763788433,0.4153236845659468,-0.1634929565094121,-0.8522852704923706,-0.6187670230865479,0.6007061004638672,-0.5062404870986938,0,0,0,-1,-1,32846.292754625,unknown,2,2025-04-22T13:18:52.929+03:00,2025-04-21T17:08:51.449+03:00,7440,1.01013,0,0,6196.233,5,20,2025-04-22T13:18:52.929+03:00,767009935.5997123,0,-20.39,100.4473,1,0.7,2025-04-22T13:17:51.654+03:00,90,1.5,2025-04-22T09:54:17.825+03:00,0.02225348692287972,0
2025-04-22T13:18:57.099+03:00,1745317135.028596,40.9522634397247,29.14028108201103,76.21932,-1,-1,-1,-1,30,24.85156048724523,-9999,32850.45820166667,-0.62689208984375,0.6084747314453125,-0.56939697265625,32850.44812466667,0.05854464100756373,-0.8888006837149097,-0.6489802430577315,-0.7028324604034424,0.01872044242918491,0.03057603538036346,-0.01461082696914673,0.01229441165924072,-0.07997351884841919,XArbitraryZVertical,0.2758080727270141,0.4157311551576268,-0.162055898487895,-0.8513726643826106,-0.6184916496276855,0.6043742895126343,-0.5021950006484985,0,0,0,-1,-1,32846.292754625,unknown,2,2025-04-22T13:18:52.929+03:00,2025-04-21T17:08:51.449+03:00,7440,1.01013,0,0,6196.233,5,20,2025-04-22T13:18:52.929+03:00,767009935.5997123,0,-20.39,100.4473,1,0.7,2025-04-22T13:17:51.654+03:00,90,1.5,2025-04-22T09:54:17.825+03:00,0.02225348692287972,0
2025-04-22T13:18:57.109+03:00,1745317135.028596,40.9522634397247,29.14028108201103,76.21932,-1,-1,-1,-1,30,24.85156048724523,-9999,32850.46827866667,-0.6391754150390625,0.58154296875,-0.571502685546875,32850.45820166667,0.05188718308507412,-0.8927009679761139,-0.6537924939685422,-0.7131938934326172,0.006311043631285429,0.05627387762069702,-0.007360577583312988,0.009642362594604492,-0.07346242666244507,XArbitraryZVertical,0.2789435915043132,0.4161924307107443,-0.1607269943003639,-0.850377077801351,-0.6181734800338745,0.6082012057304382,-0.4979486763477325,0,0,0,-1,-1,32846.292754625,unknown,2,2025-04-22T13:18:52.929+03:00,2025-04-21T17:08:51.449+03:00,7440,1.01013,0,0,6196.233,5,20,2025-04-22T13:18:52.929+03:00,767009935.5997123,0,-20.39,100.4473,1,0.7,2025-04-22T13:17:51.654+03:00,90,1.5,2025-04-22T09:54:17.825+03:00,0.02225348692287972,0
2025-04-22T13:18:57.120+03:00,1745317135.028596,40.9522634397247,29.14028108201103,76.21932,-1,-1,-1,-1,30,24.85156048724523,-9999,32850.47835466667,-0.6348724365234375,0.604278564453125,-0.57086181640625,32850.46827866667,0.04558078441692023,-0.8966573040396396,-0.6586792475777375,-0.6480969190597534,-0.02636274509131908,0.08111344277858734,-0.0175057053565979,-0.02491480112075806,-0.07705610990524292,XArbitraryZVertical,0.2820330421557596,0.4166994803117463,-0.1595850898318602,-0.8493240396732599,-0.6178092360496521,0.6120729446411133,-0.4936378002166748,0,0,0,-1,-1,32846.292754625,unknown,2,2025-04-22T13:18:52.929+03:00,2025-04-21T17:08:51.449+03:00,7440,1.01013,0,0,6196.233,5,20,2025-04-22T13:18:52.929+03:00,767009935.5997123,0,-20.39,100.4473,1,0.7,2025-04-22T13:17:51.654+03:00,90,1.5,2025-04-22T09:54:17.825+03:00,0.02225348692287972,0
2025-04-22T13:18:57.129+03:00,1745317135.028596,40.9522634397247,29.14028108201103,76.21932,-1,-1,-1,-1,30,24.85156048724523,-9999,32850.48843166667,-0.62469482421875,0.628753662109375,-0.5897674560546875,32850.47835466667,0.04037960050199745,-0.900229709845292,-0.6631664448681542,-0.5418441891670227,-0.04490014538168907,0.1046520918607712,-0.02141368389129639,-0.0228266716003418,-0.07919272780418396,XArbitraryZVertical,0.2847510305507547,0.4172036726176216,-0.1587911502472278,-0.84831780575996,-0.6174107193946838,0.6156152486801147,-0.4897159039974213,0,0,0,-1,-1,32846.292754625,unknown,2,2025-04-22T13:18:52.929+03:00,2025-04-21T17:08:51.449+03:00,7440,1.01013,0,0,6196.233,5,20,2025-04-22T13:18:52.929+03:00,767009935.5997123,0,-20.39,100.4473,1,0.7,2025-04-22T13:17:51.654+03:00,90,1.5,2025-04-22T09:54:17.825+03:00,0.02225348692287972,0
2025-04-22T13:18:57.140+03:00,1745317135.028596,40.9522634397247,29.14028108201103,76.21932,-1,-1,-1,-1,30,24.85156048724523,-9999,32850.49850866667,-0.6154022216796875,0.6387939453125,-0.598785400390625,32850.48843166667,0.03635790299399074,-0.9033515137405593,-0.6670856761826965,-0.436096727848053,-0.08681856840848923,0.114332415163517,-0.01051139831542969,0.002318322658538818,-0.09540653228759766,XArbitraryZVertical,0.2870151400041937,0.4177054674329207,-0.158328429412107,-0.8473938722875424,-0.6170368194580078,0.6186990141868591,-0.4862889051437378,0,0,0,-1,-1,32846.292754625,unknown,2,2025-04-22T13:18:52.929+03:00,2025-04-21T17:08:51.449+03:00,7440,1.01013,0,0,6196.233,5,20,2025-04-22T13:18:52.929+03:00,767009935.5997123,0,-20.39,100.4473,1,0.7,2025-04-22T13:17:51.654+03:00,90,1.5,2025-04-22T09:54:17.825+03:00,0.02225348692287972,0
2025-04-22T13:18:57.150+03:00,1745317135.028596,40.9522634397247,29.14028108201103,76.21932,-1,-1,-1,-1,30,24.85156048724523,-9999,32850.50858566667,-0.6097564697265625,0.6363067626953125,-0.5993499755859375,32850.49850866667,0.03340042265703259,-0.9061686941746869,-0.6704860750108237,-0.3408772051334381,-0.1085610836744308,0.1357430815696716,-0.002594232559204102,0.01500082015991211,-0.1146062016487122,XArbitraryZVertical,0.2888588093698161,0.4182540057646615,-0.1581747017049044,-0.8465251685693118,-0.6167447566986084,0.6213669180870056,-0.4832483530044556,0,0,0,-1,-1,32846.292754625,unknown,2,2025-04-22T13:18:52.929+03:00,2025-04-21T17:08:51.449+03:00,7440,1.01013,0,0,6196.233,5,20,2025-04-22T13:18:52.929+03:00,767009935.5997123,0,-20.39,100.4473,1,0.7,2025-04-22T13:17:51.654+03:00,90,1.5,2025-04-22T09:54:17.825+03:00,0.02225348692287972,0
2025-04-22T13:18:57.160+03:00,1745317135.028596,40.9522634397247,29.14028108201103,76.21932,-1,-1,-1,-1,30,24.85156048724523,-9999,32850.51866166667,-0.611175537109375,0.6238861083984375,-0.5989837646484375,32850.50858566667,0.03147076762314393,-0.9086813715068266,-0.6734503275073394,-0.267628014087677,-0.1508097350597382,0.1438875496387482,0.004944682121276855,0.01510715484619141,-0.1177802085876465,XArbitraryZVertical,0.2903248144673788,0.4188438487864049,-0.1583282693974256,-0.8457029142221849,-0.6165016889572144,0.6236867308616638,-0.4805626571178436,0,0,0,-1,-1,32846.292754625,unknown,2,2025-04-22T13:18:52.929+03:00,2025-04-21T17:08:51.449+03:00,7440,1.01013,0,0,6196.233,5,20,2025-04-22T13:18:52.929+03:00,767009935.5997123,0,-20.39,100.4473,1,0.7,2025-04-22T13:17:51.654+03:00,90,1.5,2025-04-22T09:54:17.825+03:00,0.02225348692287972,0
2025-04-22T13:18:57.170+03:00,1745317135.028596,40.9522634397247,29.14028108201103,76.21932,-1,-1,-1,-1,30,24.85156048724523,-9999,32850.52873866667,-0.6009979248046875,0.6203460693359375,-0.592071533203125,32850.51866166667,0.02990602358715361,-0.9112975631266401,-0.6763419453150386,-0.2901107668876648,-0.1760560423135757,0.1589981615543365,0.005962073802947998,0.00314486026763916,-0.1230804920196533,XArbitraryZVertical,0.2916740278129883,0.4195303581198359,-0.1586404994914989,-0.844839378317802,-0.6163288950920105,0.6259444355964661,-0.4778410792350769,0,0,0,-1,-1,32846.292754625,unknown,2,2025-04-22T13:18:52.929+03:00,2025-04-21T17:08:51.449+03:00,7440,1.01013,0,0,6196.233,5,20,2025-04-22T13:18:52.929+03:00,767009935.5997123,0,-20.39,100.4473,1,0.7,2025-04-22T13:17:51.654+03:00,90,1.5,2025-04-22T09:54:17.825+03:00,0.02225348692287972,0
2025-04-22T13:18:57.180+03:00,1745317135.028596,40.9522634397247,29.14028108201103,76.21932,-1,-1,-1,-1,30,24.85156048724523,-9999,32850.53881566667,-0.5889892578125,0.62811279296875,-0.5731964111328125,32850.52873866667,0.02779535184700122,-0.9145859930555507,-0.6796453594642492,-0.3763010501861572,-0.2153046429157257,0.1556167453527451,0.009382665157318115,-0.008583247661590576,-0.1211402416229248,XArbitraryZVertical,0.2932577415111239,0.420388067645089,-0.1589097783137672,-0.8438134895542465,-0.6162552237510681,0.628517210483551,-0.4745475351810455,0,0,0,-1,-1,32846.292754625,unknown,2,2025-04-22T13:18:52.929+03:00,2025-04-21T17:08:51.449+03:00,7440,1.01013,0,0,6196.233,5,20,2025-04-22T13:18:52.929+03:00,767009935.5997123,0,-20.39,100.4473,1,0.7,2025-04-22T13:17:51.654+03:00,90,1.5,2025-04-22T09:54:17.825+03:00,0.02225348692287972,0
2025-04-22T13:18:57.190+03:00,1745317135.028596,40.9522634397247,29.14028108201103,76.21932,-1,-1,-1,-1,30,24.85156048724523,-9999,32850.54889266667,-0.5897369384765625,0.62786865234375,-0.554229736328125,32850.53881566667,0.02480719373299618,-0.9187934207423495,-0.6834484720911281,-0.4409304857254028,-0.2448586672544479,0.1675951778888702,0.02492660284042358,-0.006013035774230957,-0.1106951832771301,XArbitraryZVertical,0.2951629544583066,0.4214622734362332,-0.1590542849581994,-0.8425853399737799,-0.6163420081138611,0.6314707398414612,-0.4704967737197876,0,0,0,-1,-1,32846.292754625,unknown,2,2025-04-22T13:18:52.929+03:00,2025-04-21T17:08:51.449+03:00,7440,1.01013,0,0,6196.233,5,20,2025-04-22T13:18:52.929+03:00,767009935.5997123,0,-20.39,100.4473,1,0.7,2025-04-22T13:17:51.654+03:00,90,1.5,2025-04-22T09:54:17.825+03:00,0.02225348692287972,0
2025-04-22T13:18:57.200+03:00,1745317135.028596,40.9522634397247,29.14028108201103,76.21932,-1,-1,-1,-1,30,24.85156048724523,-9999,32850.55896966667,-0.5969085693359375,0.6315765380859375,-0.5374755859375,32850.54889266667,0.02149070458074463,-0.9234913409864266,-0.6876635993346528,-0.4689764976501465,-0.2729065418243408,0.1868522167205811,0.02770215272903442,-0.00591886043548584,-0.09469741582870483,XArbitraryZVertical,0.297270664605925,0.4226544292281275,-0.1592288477252086,-0.8412130944105198,-0.6164167523384094,0.6347334980964661,-0.4659867584705353,0,0,0,-1,-1,32846.292754625,unknown,2,2025-04-22T13:18:52.929+03:00,2025-04-21T17:08:51.449+03:00,7440,1.01013,0,0,6196.233,5,20,2025-04-22T13:18:52.929+03:00,767009935.5997123,0,-20.39,100.4473,1,0.7,2025-04-22T13:17:51.654+03:00,90,1.5,2025-04-22T09:54:17.825+03:00,0.02225348692287972,0
2025-04-22T13:18:57.211+03:00,1745317135.028596,40.9522634397247,29.14028108201103,76.21932,-1,-1,-1,-1,30,24.85156048724523,-9999,32850.56904566667,-0.6111602783203125,0.6551666259765625,-0.5248870849609375,32850.55896966667,0.01805924334417718,-0.9285339056953641,-0.6920699615414556,-0.4664425253868103,-0.2937609553337097,0.196846678853035,0.02395331859588623,-0.009302377700805664,-0.0832560658454895,XArbitraryZVertical,0.299453482814154,0.42394721046633,-0.1594584715576185,-0.8397436453961661,-0.6165131330490112,0.6381322741508484,-0.4611927568912506,0,0,0,-1,-1,32846.292754625,unknown,2,2025-04-22T13:18:52.929+03:00,2025-04-21T17:08:51.449+03:00,7440,1.01013,0,0,6196.233,5,20,2025-04-22T13:18:52.929+03:00,767009935.5997123,0,-20.39,100.4473,1,0.7,2025-04-22T13:17:51.654+03:00,90,1.5,2025-04-22T09:54:17.825+03:00,0.02225348692287972,0
2025-04-22T13:18:57.220+03:00,1745317135.028596,40.9522634397247,29.14028108201103,76.21932,-1,-1,-1,-1,30,24.85156048724523,-9999,32850.57912266667,-0.6129608154296875,0.684906005859375,-0.523773193359375,32850.56904566667,0.01501337862972198,-0.9335231309331119,-0.6963152293540207,-0.4105055034160614,-0.3070506453514099,0.1997585743665695,0.009461104869842529,0.001991748809814453,-0.07220667600631714,XArbitraryZVertical,0.3014881752931373,0.4252732671157861,-0.159820914727527,-0.838274878483977,-0.61662358045578,0.6413950324058533,-0.4564950466156006,0,0,0,-1,-1,32846.292754625,unknown,2,2025-04-22T13:18:52.929+03:00,2025-04-21T17:08:51.449+03:00,7440,1.01013,0,0,6196.233,5,20,2025-04-22T13:18:52.929+03:00,767009935.5997123,0,-20.39,100.4473,1,0.7,2025-04-22T13:17:51.654+03:00,90,1.5,2025-04-22T09:54:17.825+03:00,0.02225348692287972,0
2025-04-22T13:18:57.230+03:00,1745317135.028596,40.9522634397247,29.14028108201103,76.21932,-1,-1,-1,-1,30,24.85156048724523,-9999,32850.58919966667,-0.6146240234375,0.6871185302734375,-0.514068603515625,32850.57912266667,0.01255914136185911,-0.9382228010244396,-0.7002083985247283,-0.3442669212818146,-0.3132610321044922,0.1986640840768814,0.002867221832275391,0.03143465518951416,-0.07181334495544434,XArbitraryZVertical,0.3032692386096645,0.4265812761871139,-0.1603245542435441,-0.8368705010294269,-0.6167435646057129,0.6443770527839661,-0.4521123766899109,0,0,0,-1,-1,32846.292754625,unknown,2,2025-04-22T13:18:52.929+03:00,2025-04-21T17:08:51.449+03:00,7440,1.01013,0,0,6196.233,5,20,2025-04-22T13:18:52.929+03:00,767009935.5997123,0,-20.39,100.4473,1,0.7,2025-04-22T13:17:51.654+03:00,90,1.5,2025-04-22T09:54:17.825+03:00,0.02225348692287972,0
2025-04-22T13:18:57.240+03:00,1745317135.028596,40.9522634397247,29.14028108201103,76.21932,-1,-1,-1,-1,30,24.85156048724523,-9999,32850.59927666667,-0.6155548095703125,0.6674957275390625,-0.49774169921875,32850.58919966667,0.01062092807391091,-0.942631140636834,-0.7037224695066698,-0.3093201220035553,-0.3063234984874725,0.1966528594493866,0.003292858600616455,0.04303359985351562,-0.0712161660194397,XArbitraryZVertical,0.3048016575172033,0.42786463178482,-0.1609287903378493,-0.8355414598168838,-0.616894543170929,0.6470603346824646,-0.448055624961853,0,0,0,-1,-1,32846.292754625,unknown,2,2025-04-22T13:18:52.929+03:00,2025-04-21T17:08:51.449+03:00,7440,1.01013,0,0,6196.233,5,20,2025-04-22T13:18:52.929+03:00,767009935.5997123,0,-20.39,100.4473,1,0.7,2025-04-22T13:17:51.654+03:00,90,1.5,2025-04-22T09:54:17.825+03:00,0.02225348692287972,0
2025-04-22T13:18:57.250+03:00,1745317135.028596,40.9522634397247,29.14028108201103,76.21932,-1,-1,-1,-1,30,24.85156048724523,-9999,32850.60935266667,-0.60455322265625,0.6561279296875,-0.4698944091796875,32850.59927666667,0.008747145986306349,-0.9469590986083664,-0.7071285628795418,-0.318093329668045,-0.3091900646686554,0.1866331398487091,0.0004126429557800293,0.02621924877166748,-0.0603792667388916,XArbitraryZVertical,0.3062786493314897,0.4291242410116898,-0.1615324185217213,-0.8342379504120323,-0.6170355677604675,0.6496534943580627,-0.4440915584564209,0,0,0,-1,-1,32846.292754625,unknown,2,2025-04-22T13:18:52.929+03:00,2025-04-21T17:08:51.449+03:00,7440,1.01013,0,0,6196.233,5,20,2025-04-22T13:18:52.929+03:00,767009935.5997123,0,-20.39,100.4473,1,0.7,2025-04-22T13:17:51.654+03:00,90,1.5,2025-04-22T09:54:17.825+03:00,0.02225348692287972,0
2025-04-22T13:18:57.261+03:00,1745317135.028596,40.9522634397247,29.14028108201103,76.21932,-1,-1,-1,-1,30,24.85156048724523,-9999,32850.61942966667,-0.5857391357421875,0.661285400390625,-0.4403533935546875,32850.60935266667,0.006595795512812437,-0.9514728664947685,-0.7105553211299916,-0.3495130240917206,-0.3095163106918335,0.179128885269165,0.006759107112884521,0.005520999431610107,-0.04235374927520752,XArbitraryZVertical,0.3078060909342142,0.4304089808925591,-0.1620610034856661,-0.8329103894686418,-0.617217481136322,0.6522548198699951,-0.4400070309638977,0,0,0,-1,-1,32846.292754625,unknown,2,2025-04-22T13:18:52.929+03:00,2025-04-21T17:08:51.449+03:00,7440,1.01013,0,0,6196.233,5,20,2025-04-22T13:18:52.929+03:00,767009935.5997123,0,-20.39,100.4473,1,0.7,2025-04-22T13:17:51.654+03:00,90,1.5,2025-04-22T09:54:17.825+03:00,0.02225348692287972,0
2025-04-22T13:18:57.271+03:00,1745317135.028596,40.9522634397247,29.14028108201103,76.21932,-1,-1,-1,-1,30,24.85156048724523,-9999,32850.62950666667,-0.5794219970703125,0.667510986328125,-0.418731689453125,32850.61942966667,0.004148830200658894,-0.9561761698131614,-0.7140372635603227,-0.3429407477378845,-0.3112224340438843,0.1698628962039948,0.02521204948425293,0.003099262714385986,-0.01327919960021973,XArbitraryZVertical,0.3094022388727123,0.4317137882054332,-0.1625160954610583,-0.8315539031660538,-0.6174209117889404,0.6548901796340942,-0.4357869327068329,0,0,0,-1,-1,32846.292754625,unknown,2,2025-04-22T13:18:52.929+03:00,2025-04-21T17:08:51.449+03:00,7440,1.01013,0,0,6196.233,5,20,2025-04-22T13:18:52.929+03:00,767009935.5997123,0,-20.39,100.4473,1,0.7,2025-04-22T13:17:51.654+03:00,90,1.5,2025-04-22T09:54:17.825+03:00,0.02225348692287972,0
2025-04-22T13:18:57.281+03:00,1745317135.028596,40.9522634397247,29.14028108201103,76.21932,-1,-1,-1,-1,30,24.85156048724523,-9999,32850.63958366667,-0.5905303955078125,0.661865234375,-0.3865203857421875,32850.62950666667,0.001847243226742858,-0.9608269127721188,-0.7173330044351235,-0.3141149580478668,-0.3072663247585297,0.1656977087259293,0.03868895769119263,0.009538531303405762,0.004670083522796631,XArbitraryZVertical,0.3108913335061291,0.4330248990225939,-0.1629920615071094,-0.8302226037863851,-0.6176684498786926,0.6573772430419922,-0.4316720366477966,0,0,0,-1,-1,32846.292754625,unknown,2,2025-04-22T13:18:52.929+03:00,2025-04-21T17:08:51.449+03:00,7440,1.01013,0,0,6196.233,5,20,2025-04-22T13:18:52.929+03:00,767009935.5997123,0,-20.39,100.4473,1,0.7,2025-04-22T13:17:51.654+03:00,90,1.5,2025-04-22T09:54:17.825+03:00,0.02225348692287972,0
2025-04-22T13:18:57.291+03:00,1745317135.028596,40.9522634397247,29.14028108201103,76.21932,-1,-1,-1,-1,30,24.85156048724523,-9999,32850.64965966667,-0.6090850830078125,0.65362548828125,-0.352203369140625,32850.63958366667,-0.0002104749040205498,-0.9651436638981851,-0.7203462102727946,-0.2872592508792877,-0.2793072760105133,0.151781290769577,0.03227776288986206,0.005745053291320801,0.02801555395126343,XArbitraryZVertical,0.3122352654665612,0.4342500472176951,-0.1634639265744451,-0.8289846421979009,-0.6178948283195496,0.6596449017524719,-0.4278720617294312,0,0,0,-1,-1,32846.292754625,unknown,2,2025-04-22T13:18:52.929+03:00,2025-04-21T17:08:51.449+03:00,7440,1.01013,0,0,6196.233,5,20,2025-04-22T13:18:52.929+03:00,767009935.5997123,0,-20.39,100.4473,1,0.7,2025-04-22T13:17:51.654+03:00,90,1.5,2025-04-22T09:54:17.825+03:00,0.02225348692287972,0
2025-04-22T13:18:57.301+03:00,1745317135.028596,40.9522634397247,29.14028108201103,76.21932,-1,-1,-1,-1,30,24.85156048724523,-9999,32850.65973666667,-0.617095947265625,0.644744873046875,-0.3279266357421875,32850.64965966667,-0.002198345832695536,-0.9691195773671215,-0.7231288911572263,-0.2688046097755432,-0.2538399994373322,0.1331197321414948,0.01564323902130127,-0.004293680191040039,0.0607086718082428,XArbitraryZVertical,0.3134944147484865,0.4353568446805793,-0.1638679984233117,-0.8278483202006734,-0.6180754899978638,0.6617337465286255,-0.4243713319301605,0,0,0,-1,-1,32846.292754625,unknown,2,2025-04-22T13:18:52.929+03:00,2025-04-21T17:08:51.449+03:00,7440,1.01013,0,0,6196.233,5,20,2025-04-22T13:18:52.929+03:00,767009935.5997123,0,-20.39,100.4473,1,0.7,2025-04-22T13:17:51.654+03:00,90,1.5,2025-04-22T09:54:17.825+03:00,0.02225348692287972,0
2025-04-22T13:18:57.311+03:00,1745317135.028596,40.9522634397247,29.14028108201103,76.21932,-1,-1,-1,-1,30,24.85156048724523,-9999,32850.66981366667,-0.611297607421875,0.643341064453125,-0.3167266845703125,32850.65973666667,-0.004068085654205493,-0.9729040453643446,-0.7256910465141292,-0.2505650818347931,-0.2472928017377853,0.1291011869907379,0.002001702785491943,-0.01532196998596191,0.08505967259407043,XArbitraryZVertical,0.314650671352786,0.436415216394068,-0.1642485480172324,-0.8267762447675018,-0.6182736158370972,0.6636525392532349,-0.4210734367370605,0,0,0,-1,-1,32846.292754625,unknown,2,2025-04-22T13:18:52.929+03:00,2025-04-21T17:08:51.449+03:00,7440,1.01013,0,0,6196.233,5,20,2025-04-22T13:18:52.929+03:00,767009935.5997123,0,-20.39,100.4473,1,0.7,2025-04-22T13:17:51.654+03:00,90,1.5,2025-04-22T09:54:17.825+03:00,0.02225348692287972,0
2025-04-22T13:18:57.321+03:00,1745317135.028596,40.9522634397247,29.14028108201103,76.21932,-1,-1,-1,-1,30,24.85156048724523,-9999,32850.67989066667,-0.6106414794921875,0.661773681640625,-0.3300323486328125,32850.66981366667,-0.005962277523992702,-0.976546370490686,-0.7282061055296617,-0.2674708366394043,-0.2250103950500488,0.124061681330204,0.005167603492736816,-0.02344202995300293,0.09967613220214844,XArbitraryZVertical,0.3158030205834763,0.4374094350420593,-0.1645914683707199,-0.8257426973301453,-0.6184183359146118,0.6655318140983582,-0.417882889509201,0,0,0,-1,-1,32846.292754625,unknown,2,2025-04-22T13:18:52.929+03:00,2025-04-21T17:08:51.449+03:00,7440,1.01013,0,0,6196.233,5,20,2025-04-22T13:18:52.929+03:00,767009935.5997123,0,-20.39,100.4473,1,0.7,2025-04-22T13:17:51.654+03:00,90,1.5,2025-04-22T09:54:17.825+03:00,0.02225348692287972,0
2025-04-22T13:18:57.331+03:00,1745317135.028596,40.9522634397247,29.14028108201103,76.21932,-1,-1,-1,-1,30,24.85156048724523,-9999,32850.68996666667,-0.6048736572265625,0.6697845458984375,-0.346160888671875,32850.67989066667,-0.008097121596339726,-0.9802053512873072,-0.7307308415259498,-0.2782770097255707,-0.2189688831567764,0.1152785047888756,0.008453428745269775,-0.01365131139755249,0.0918806791305542,XArbitraryZVertical,0.3170093311552598,0.4383661841366243,-0.164845003920719,-0.8247219548147904,-0.6185456514358521,0.6674140691757202,-0.4146803319454193,0,0,0,-1,-1,32846.292754625,unknown,2,2025-04-22T13:18:52.929+03:00,2025-04-21T17:08:51.449+03:00,7440,1.01013,0,0,6196.233,5,20,2025-04-22T13:18:52.929+03:00,767009935.5997123,0,-20.39,100.4473,1,0.7,2025-04-22T13:17:51.654+03:00,90,1.5,2025-04-22T09:54:17.825+03:00,0.02225348692287972,0
2025-04-22T13:18:57.341+03:00,1745317135.028596,40.9522634397247,29.14028108201103,76.21932,-1,-1,-1,-1,30,24.85156048724523,-9999,32850.70004366667,-0.6001739501953125,0.6533660888671875,-0.3455657958984375,32850.68996666667,-0.01062386182764535,-0.9840918599551376,-0.7333095424052601,-0.3228844106197357,-0.2154785394668579,0.1021533831954002,0.0105934739112854,0.001276254653930664,0.0699189305305481,XArbitraryZVertical,0.3183039455931975,0.4393439332181919,-0.1649906992948937,-0.8236731689441835,-0.6187172532081604,0.6693321466445923,-0.4113190174102783,0,0,0,-1,-1,32846.292754625,unknown,2,2025-04-22T13:18:52.929+03:00,2025-04-21T17:08:51.449+03:00,7440,1.01013,0,0,6196.233,5,20,2025-04-22T13:18:52.929+03:00,767009935.5997123,0,-20.39,100.4473,1,0.7,2025-04-22T13:17:51.654+03:00,90,1.5,2025-04-22T09:54:17.825+03:00,0.02225348692287972,0
2025-04-22T13:18:57.351+03:00,1745317135.028596,40.9522634397247,29.14028108201103,76.21932,-1,-1,-1,-1,30,24.85156048724523,-9999,32850.71012066667,-0.601654052734375,0.64337158203125,-0.3428192138671875,32850.70004366667,-0.01393650191322765,-0.988436706704127,-0.7360762389514378,-0.3895211219787598,-0.2078766822814941,0.09092796593904495,0.0174022912979126,-0.01078647375106812,0.06123238801956177,XArbitraryZVertical,0.3198098798191625,0.4403614586650896,-0.1649343202156983,-0.8225570124631016,-0.6189495325088501,0.6713851690292358,-0.407606840133667,0,0,0,-1,-1,32846.292754625,unknown,2,2025-04-22T13:18:52.929+03:00,2025-04-21T17:08:51.449+03:00,7440,1.01013,0,0,6196.233,5,20,2025-04-22T13:18:52.929+03:00,767009935.5997123,0,-20.39,100.4473,1,0.7,2025-04-22T13:17:51.654+03:00,90,1.5,2025-04-22T09:54:17.825+03:00,0.02225348692287972,0
2025-04-22T13:18:57.361+03:00,1745317135.028596,40.9522634397247,29.14028108201103,76.21932,-1,-1,-1,-1,30,24.85156048724523,-9999,32850.72019766667,-0.6020965576171875,0.656036376953125,-0.341033935546875,32850.71012066667,-0.01785450688399005,-0.9931225386720132,-0.7390730695011881,-0.4131167232990265,-0.201054722070694,0.09645375609397888,0.01767826080322266,-0.02910244464874268,0.06062984466552734,XArbitraryZVertical,0.3215149168551349,0.4413925291155539,-0.1647435223732302,-0.8213771202240642,-0.6191644668579102,0.6736031174659729,-0.4036015868186951,0,0,0,-1,-1,32846.292754625,unknown,2,2025-04-22T13:18:52.929+03:00,2025-04-21T17:08:51.449+03:00,7440,1.01013,0,0,6196.233,5,20,2025-04-22T13:18:52.929+03:00,767009935.5997123,0,-20.39,100.4473,1,0.7,2025-04-22T13:17:51.654+03:00,90,1.5,2025-04-22T09:54:17.825+03:00,0.02225348692287972,0
2025-04-22T13:18:57.371+03:00,1745317135.028596,40.9522634397247,29.14028108201103,76.21932,-1,-1,-1,-1,30,24.85156048724523,-9999,32850.73027466667,-0.6099853515625,0.671539306640625,-0.3414306640625,32850.72019766667,-0.02162607377053231,-0.9976517962662346,-0.7420326198088826,-0.3729776740074158,-0.1910578906536102,0.08950044214725494,0.01786792278289795,-0.02747219800949097,0.05887472629547119,XArbitraryZVertical,0.323184874646127,0.4423758748219221,-0.1645888803642749,-0.8202228588160131,-0.6193083524703979,0.6757875680923462,-0.3997102379798889,0,0,0,-1,-1,32846.292754625,unknown,2,2025-04-22T13:18:52.929+03:00,2025-04-21T17:08:51.449+03:00,7440,1.01013,0,0,6196.233,5,20,2025-04-22T13:18:52.929+03:00,767009935.5997123,0,-20.39,100.4473,1,0.7,2025-04-22T13:17:51.654+03:00,90,1.5,2025-04-22T09:54:17.825+03:00,0.02225348692287972,0
2025-04-22T13:18:57.382+03:00,1745317135.028596,40.9522634397247,29.14028108201103,76.21932,-1,-1,-1,-1,30,24.85156048724523,-9999,32850.74035066667,-0.6181182861328125,0.678741455078125,-0.3432464599609375,32850.73027466667,-0.02540026388995398,-1.002051755390506,-0.7447972685684264,-0.3794581890106201,-0.179288849234581,0.08236823230981827,0.01369529962539673,-0.00971674919128418,0.05445152521133423,XArbitraryZVertical,0.3247861073387713,0.4433138091964823,-0.1643773599333477,-0.8191256521191063,-0.6194844841957092,0.6778227686882019,-0.3959737122058868,0,0,0,-1,-1,32846.292754625,unknown,2,2025-04-22T13:18:52.929+03:00,2025-04-21T17:08:51.449+03:00,7440,1.01013,0,0,6196.233,5,20,2025-04-22T13:18:52.929+03:00,767009935.5997123,0,-20.39,100.4473,1,0.7,2025-04-22T13:17:51.654+03:00,90,1.5,2025-04-22T09:54:17.825+03:00,0.02225348692287972,0
2025-04-22T13:18:57.392+03:00,1745317135.028596,40.9522634397247,29.14028108201103,76.21932,-1,-1,-1,-1,30,24.85156048724523,-9999,32850.75042766667,-0.62847900390625,0.67816162109375,-0.3457489013671875,32850.74035066667,-0.02870002789098218,-1.005990693286375,-0.747387526081169,-0.2934026122093201,-0.1551309823989868,0.09213913232088089,0.003617942333221436,-0.005042374134063721,0.0515250563621521,XArbitraryZVertical,0.3262486700797041,0.4441475813841228,-0.1642536983137869,-0.8181169783833289,-0.6195542812347412,0.6797249317169189,-0.3925894498825073,0,0,0,-1,-1,32846.292754625,unknown,2,2025-04-22T13:18:52.929+03:00,2025-04-21T17:08:51.449+03:00,7440,1.01013,0,0,6196.233,5,20,2025-04-22T13:18:52.929+03:00,767009935.5997123,0,-20.39,100.4473,1,0.7,2025-04-22T13:17:51.654+03:00,90,1.5,2025-04-22T09:54:17.825+03:00,0.02225348692287972,0
2025-04-22T13:18:57.402+03:00,1745317135.028596,40.9522634397247,29.14028108201103,76.21932,-1,-1,-1,-1,30,24.85156048724523,-9999,32850.76050466667,-0.6423187255859375,0.670623779296875,-0.34161376953125,32850.75042766667,-0.03070715701683523,-1.008769557103452,-0.749587328253447,-0.1832145899534225,-0.1285206824541092,0.1218940988183022,-0.002724766731262207,-0.000672757625579834,0.04337358474731445,XArbitraryZVertical,0.3273600377942316,0.4447484104556876,-0.1643864501733311,-0.8173195687585388,-0.6193760633468628,0.6813367605209351,-0.3900685012340546,0,0,0,-1,-1,32846.292754625,unknown,2,2025-04-22T13:18:52.929+03:00,2025-04-21T17:08:51.449+03:00,7440,1.01013,0,0,6196.233,5,20,2025-04-22T13:18:52.929+03:00,767009935.5997123,0,-20.39,100.4473,1,0.7,2025-04-22T13:17:51.654+03:00,90,1.5,2025-04-22T09:54:17.825+03:00,0.02225348692287972,0
2025-04-22T13:18:57.412+03:00,1745317135.028596,40.9522634397247,29.14028108201103,76.21932,-1,-1,-1,-1,30,24.85156048724523,-9999,32850.77058166667,-0.63360595703125,0.690765380859375,-0.3281402587890625,32850.76050466667,-0.03130398109304766,-1.010395196241813,-0.7514116082615525,-0.08772589266300201,-0.1116689890623093,0.135719358921051,-0.02050989866256714,-0.01155900955200195,0.04535171389579773,XArbitraryZVertical,0.3280992666640435,0.4451415549298383,-0.1648240025860045,-0.8167206809852247,-0.6189553737640381,0.6826709508895874,-0.3883997201919556,0,0,0,-1,-1,32846.292754625,unknown,2,2025-04-22T13:18:52.929+03:00,2025-04-21T17:08:51.449+03:00,7440,1.01013,0,0,6196.233,5,20,2025-04-22T13:18:52.929+03:00,767009935.5997123,0,-20.39,100.4473,1,0.7,2025-04-22T13:17:51.654+03:00,90,1.5,2025-04-22T09:54:17.825+03:00,0.02225348692287972,0
2025-04-22T13:18:57.422+03:00,1745317135.028596,40.9522634397247,29.14028108201103,76.21932,-1,-1,-1,-1,30,24.85156048724523,-9999,32850.78065766667,-0.6261138916015625,0.7002410888671875,-0.3079986572265625,32850.77058166667,-0.03096762678302045,-1.011187665756202,-0.7529175063581615,-0.03541048988699913,-0.08878897875547409,0.1421514302492142,-0.01893800497055054,-0.002114832401275635,0.05218842625617981,XArbitraryZVertical,0.3285695697942205,0.4453768878560548,-0.1654342098453487,-0.8162798158807388,-0.6183910369873047,0.6837705373764038,-0.38736292719841,0,0,0,-1,-1,32846.292754625,unknown,2,2025-04-22T13:18:52.929+03:00,2025-04-21T17:08:51.449+03:00,7440,1.01013,0,0,6196.233,5,20,2025-04-22T13:18:52.929+03:00,767009935.5997123,0,-20.39,100.4473,1,0.7,2025-04-22T13:17:51.654+03:00,90,1.5,2025-04-22T09:54:17.825+03:00,0.02225348692287972,0
2025-04-22T13:18:57.432+03:00,1745317135.028596,40.9522634397247,29.14028108201103,76.21932,-1,-1,-1,-1,30,24.85156048724523,-9999,32850.79073466667,-0.6218109130859375,0.6806488037109375,-0.3074951171875,32850.78065766667,-0.03013715906396281,-1.011405600724355,-0.7542828992956642,-0.01722096651792526,-0.06784893572330475,0.1517841517925262,-0.01087164878845215,0.01602411270141602,0.07296597957611084,XArbitraryZVertical,0.3289199725036211,0.4454721591348398,-0.1661196706448418,-0.815947520101912,-0.6176836490631104,0.6847662329673767,-0.3867323994636536,0,0,0,-1,-1,32846.292754625,unknown,2,2025-04-22T13:18:52.929+03:00,2025-04-21T17:08:51.449+03:00,7440,1.01013,0,0,6196.233,5,20,2025-04-22T13:18:52.929+03:00,767009935.5997123,0,-20.39,100.4473,1,0.7,2025-04-22T13:17:51.654+03:00,90,1.5,2025-04-22T09:54:17.825+03:00,0.02225348692287972,0
2025-04-22T13:18:57.442+03:00,1745317135.028596,40.9522634397247,29.14028108201103,76.21932,-1,-1,-1,-1,30,24.85156048724523,-9999,32850.80081166667,-0.6279449462890625,0.6627197265625,-0.3156280517578125,32850.79073466667,-0.02926350884564621,-1.011391850061972,-0.755768394504602,-0.03280258923768997,-0.04544509574770927,0.1660256683826447,-0.006078779697418213,0.004139065742492676,0.08021622896194458,XArbitraryZVertical,0.3293285068156884,0.4454687281476618,-0.1668117323358121,-0.8156433994335078,-0.6168155670166016,0.68584805727005,-0.3862006962299347,0,0,0,-1,-1,32846.292754625,unknown,2,2025-04-22T13:18:52.929+03:00,2025-04-21T17:08:51.449+03:00,7440,1.01013,0,0,6196.233,5,20,2025-04-22T13:18:52.929+03:00,767009935.5997123,0,-20.39,100.4473,1,0.7,2025-04-22T13:17:51.654+03:00,90,1.5,2025-04-22T09:54:17.825+03:00,0.02225348692287972,0
2025-04-22T13:18:57.452+03:00,1745317135.028596,40.9522634397247,29.14028108201103,76.21932,-1,-1,-1,-1,30,24.85156048724523,-9999,32850.81088866667,-0.63421630859375,0.6699981689453125,-0.329345703125,32850.80081166667,-0.02836925963839403,-1.011117597374569,-0.7574234413470594,-0.02881211042404175,-0.02058608457446098,0.1787431985139847,-0.009146392345428467,-0.01987636089324951,0.07370918989181519,XArbitraryZVertical,0.3298228668659364,0.4453465548797383,-0.1675074770439628,-0.8153676963056029,-0.615746796131134,0.6870515942573547,-0.3857666552066803,0,0,0,-1,-1,32846.292754625,unknown,2,2025-04-22T13:18:52.929+03:00,2025-04-21T17:08:51.449+03:00,7440,1.01013,0,0,6196.233,5,20,2025-04-22T13:18:52.929+03:00,767009935.5997123,0,-20.39,100.4473,1,0.7,2025-04-22T13:17:51.654+03:00,90,1.5,2025-04-22T09:54:17.825+03:00,0.02225348692287972,0
2025-04-22T13:18:57.462+03:00,1745317135.028596,40.9522634397247,29.14028108201103,76.21932,-1,-1,-1,-1,30,24.85156048724523,-9999,32850.82096466667,-0.6396636962890625,0.6824951171875,-0.35504150390625,32850.81088866667,-0.0271376695780275,-1.010365643545016,-0.7590877391456053,0.004712826572358608,0.001381798647344112,0.1934286653995514,-0.0178980827331543,-0.02293103933334351,0.06265372037887573,XArbitraryZVertical,0.330286107876739,0.4450847952531231,-0.1682633757196793,-0.815167465287622,-0.6144871711730957,0.6882598996162415,-0.3856212198734283,0,0,0,-1,-1,32846.292754625,unknown,2,2025-04-22T13:18:52.929+03:00,2025-04-21T17:08:51.449+03:00,7440,1.01013,0,0,6196.233,5,20,2025-04-22T13:18:52.929+03:00,767009935.5997123,0,-20.39,100.4473,1,0.7,2025-04-22T13:17:51.654+03:00,90,1.5,2025-04-22T09:54:17.825+03:00,0.02225348692287972,0
2025-04-22T13:18:57.488+03:00,1745317135.028596,40.9522634397247,29.14028108201103,76.21932,-1,-1,-1,-1,30,24.85156048724523,-9999,32850.83104166667,-0.639984130859375,0.697845458984375,-0.37921142578125,32850.82096466667,-0.02522075296464269,-1.008935568755677,-0.7605939785228089,0.07551249861717224,0.02224320359528065,0.2047147750854492,-0.02402794361114502,-0.01175487041473389,0.04167807102203369,XArbitraryZVertical,0.3305906999650026,0.4446755893641362,-0.1691498315980788,-0.8150838159125982,-0.613057017326355,0.6893518567085266,-0.3859468102455139,0,0,0,-1,-1,32846.292754625,unknown,2,2025-04-22T13:18:52.929+03:00,2025-04-21T17:08:51.449+03:00,7440,1.01013,0,0,6196.233,5,20,2025-04-22T13:18:52.929+03:00,767009935.5997123,0,-20.39,100.4473,1,0.7,2025-04-22T13:17:51.654+03:00,90,1.5,2025-04-22T09:54:17.825+03:00,0.02225348692287972,0
2025-04-22T13:18:57.492+03:00,1745317135.028596,40.9522634397247,29.14028108201103,76.21932,-1,-1,-1,-1,30,24.85156048724523,-9999,32850.84111866667,-0.6365509033203125,0.7102508544921875,-0.3847198486328125,32850.83104166667,-0.02229427748234534,-1.006625640471992,-0.7617615799819186,0.1610580235719681,0.03220662474632263,0.2142462283372879,-0.02929419279098511,0.001498878002166748,0.01504415273666382,XArbitraryZVertical,0.330609802421015,0.4441075433469897,-0.1702246388841155,-0.8151620668958848,-0.6114833950996399,0.690197229385376,-0.386931300163269,0,0,0,-1,-1,32846.292754625,unknown,2,2025-04-22T13:18:52.929+03:00,2025-04-21T17:08:51.449+03:00,7440,1.01013,0,0,6196.233,5,20,2025-04-22T13:18:52.929+03:00,767009935.5997123,0,-20.39,100.4473,1,0.7,2025-04-22T13:17:51.654+03:00,90,1.5,2025-04-22T09:54:17.825+03:00,0.02225348692287972,0
2025-04-22T13:18:57.494+03:00,1745317135.028596,40.9522634397247,29.14028108201103,76.21932,-1,-1,-1,-1,30,24.85156048724523,-9999,32850.85119566667,-0.635101318359375,0.71142578125,-0.381561279296875,32850.84111866667,-0.01827690838802337,-1.003450880503871,-0.7624569302688529,0.2530980408191681,0.04567436128854752,0.209021583199501,-0.02717691659927368,0.01573586463928223,0.003740251064300537,XArbitraryZVertical,0.3302718337061918,0.4434119752309267,-0.1714943274814893,-0.8154115845911236,-0.6098470091819763,0.6907002329826355,-0.3886126577854156,0,0,0,-1,-1,32846.292754625,unknown,2,2025-04-22T13:18:52.929+03:00,2025-04-21T17:08:51.449+03:00,7440,1.01013,0,0,6196.233,5,20,2025-04-22T13:18:52.929+03:00,767009935.5997123,0,-20.39,100.4473,1,0.7,2025-04-22T13:17:51.654+03:00,90,1.5,2025-04-22T09:54:17.825+03:00,0.02225348692287972,0
2025-04-22T13:18:57.502+03:00,1745317135.028596,40.9522634397247,29.14028108201103,76.21932,-1,-1,-1,-1,30,24.85156048724523,-9999,32850.86127266667,-0.6368255615234375,0.7174224853515625,-0.3832855224609375,32850.85119566667,-0.01320081703225969,-0.9994214740633401,-0.7626262988299571,0.3401996791362762,0.05794753879308701,0.213624581694603,-0.02655738592147827,0.0213201642036438,0.008892953395843506,XArbitraryZVertical,0.3295632888431854,0.4425904273902005,-0.1729377292754598,-0.8158395582455613,-0.6081777215003967,0.6908227205276489,-0.3910035192966461,0,0,0,-1,-1,32846.292754625,unknown,2,2025-04-22T13:18:52.929+03:00,2025-04-21T17:08:51.449+03:00,7440,1.01013,0,0,6196.233,5,20,2025-04-22T13:18:52.929+03:00,767009935.5997123,0,-20.39,100.4473,1,0.7,2025-04-22T13:17:51.654+03:00,90,1.5,2025-04-22T09:54:17.825+03:00,0.02225348692287972,0
2025-04-22T13:18:57.513+03:00,1745317135.028596,40.9522634397247,29.14028108201103,76.21932,-1,-1,-1,-1,30,24.85156048724523,-9999,32850.87134866667,-0.6388092041015625,0.7269287109375,-0.3844146728515625,32850.86127266667,-0.007225606383225175,-0.9946354628001854,-0.7623538760446419,0.4048535823822021,0.07233826071023941,0.2053401917219162,-0.0303683876991272,0.02365338802337646,0.01181018352508545,XArbitraryZVertical,0.3285472438390503,0.4416453118718505,-0.1745279185331234,-0.8164226684764553,-0.6064571738243103,0.6906257271766663,-0.3940122425556183,0,0,0,-1,-1,32846.292754625,unknown,2,2025-04-22T13:18:52.929+03:00,2025-04-21T17:08:51.449+03:00,7440,1.01013,0,0,6196.233,5,20,2025-04-22T13:18:52.929+03:00,767009935.5997123,0,-20.39,100.4473,1,0.7,2025-04-22T13:17:51.654+03:00,90,1.5,2025-04-22T09:54:17.825+03:00,0.02225348692287972,0
2025-04-22T13:18:57.523+03:00,1745317135.028596,40.9522634397247,29.14028108201103,76.21932,-1,-1,-1,-1,30,24.85156048724523,-9999,32850.88142566667,-0.63983154296875,0.722137451171875,-0.3836822509765625,32850.87134866667,-0.0006855943675072662,-0.9892882342637941,-0.7616937717403447,0.4440622329711914,0.08997371047735214,0.199786975979805,-0.03312540054321289,0.03353029489517212,0.01329883933067322,XArbitraryZVertical,0.3273042489570036,0.4405928096435279,-0.1761760205119788,-0.8171363326794359,-0.6047224402427673,0.6901481747627258,-0.3974997997283936,0,0,0,-1,-1,32846.292754625,unknown,2,2025-04-22T13:18:52.929+03:00,2025-04-21T17:08:51.449+03:00,7440,1.01013,0,0,6196.233,5,20,2025-04-22T13:18:52.929+03:00,767009935.5997123,0,-20.39,100.4473,1,0.7,2025-04-22T13:17:51.654+03:00,90,1.5,2025-04-22T09:54:17.825+03:00,0.02225348692287972,0
2025-04-22T13:18:57.532+03:00,1745317135.028596,40.9522634397247,29.14028108201103,76.21932,-1,-1,-1,-1,30,24.85156048724523,-9999,32850.89150266667,-0.6336212158203125,0.715087890625,-0.377044677734375,32850.88142566667,0.005990811903639689,-0.983683211355614,-0.7608735918934881,0.4420033991336823,0.1047165095806122,0.1930593252182007,-0.03841668367385864,0.03563469648361206,0.01673603057861328,XArbitraryZVertical,0.3259959324101938,0.4394638243047549,-0.1778095961840372,-0.8179130009331878,-0.6029559373855591,0.6895543932914734,-0.4011963903903961,0,0,0,-1,-1,32846.292754625,unknown,2,2025-04-22T13:18:52.929+03:00,2025-04-21T17:08:51.449+03:00,7440,1.01013,0,0,6196.233,5,20,2025-04-22T13:18:52.929+03:00,767009935.5997123,0,-20.39,100.4473,1,0.7,2025-04-22T13:17:51.654+03:00,90,1.5,2025-04-22T09:54:17.825+03:00,0.02225348692287972,0
2025-04-22T13:18:57.543+03:00,1745317135.028596,40.9522634397247,29.14028108201103,76.21932,-1,-1,-1,-1,30,24.85156048724523,-9999,32850.90157966667,-0.6337432861328125,0.705078125,-0.3803863525390625,32850.89150266667,0.01220749862922516,-0.9782595161989383,-0.7600964157652951,0.3853643536567688,0.1194014474749565,0.1769450753927231,-0.03429770469665527,0.02835482358932495,0.02487719058990479,XArbitraryZVertical,0.3247972782266875,0.438322610812802,-0.1793012296410142,-0.8186764437100172,-0.601215660572052,0.6889913082122803,-0.4047600328922272,0,0,0,-1,-1,32846.292754625,unknown,2,2025-04-22T13:18:52.929+03:00,2025-04-21T17:08:51.449+03:00,7440,1.01013,0,0,6196.233,5,20,2025-04-22T13:18:52.929+03:00,767009935.5997123,0,-20.39,100.4473,1,0.7,2025-04-22T13:17:51.654+03:00,90,1.5,2025-04-22T09:54:17.825+03:00,0.02225348692287972,0
2025-04-22T13:18:57.553+03:00,1745317135.028596,40.9522634397247,29.14028108201103,76.21932,-1,-1,-1,-1,30,24.85156048724523,-9999,32850.91165666667,-0.632232666015625,0.694061279296875,-0.3891754150390625,32850.90157966667,0.01763770731012443,-0.9732784155867912,-0.7594918394443246,0.3302183449268341,0.127906322479248,0.1610119491815567,-0.03399336338043213,0.02035492658615112,0.03093931078910828,XArbitraryZVertical,0.3238085029515578,0.4372140199200403,-0.1805864828102733,-0.8193780183117775,-0.5995362401008606,0.6885530352592468,-0.4079838991165161,0,0,0,-1,-1,32846.292754625,unknown,2,2025-04-22T13:18:52.929+03:00,2025-04-21T17:08:51.449+03:00,7440,1.01013,0,0,6196.233,5,20,2025-04-22T13:18:52.929+03:00,767009935.5997123,0,-20.39,100.4473,1,0.7,2025-04-22T13:17:51.654+03:00,90,1.5,2025-04-22T09:54:17.825+03:00,0.02225348692287972,0
2025-04-22T13:18:57.563+03:00,1745317135.028596,40.9522634397247,29.14028108201103,76.21932,-1,-1,-1,-1,30,24.85156048724523,-9999,32850.92173266667,-0.630828857421875,0.692047119140625,-0.3925018310546875,32850.91165666667,0.02239584558138203,-0.9686649088224621,-0.7589821766450057,0.2932347655296326,0.1371299177408218,0.143577829003334,-0.03493666648864746,0.009204268455505371,0.02498853206634521,XArbitraryZVertical,0.322977665239654,0.4361344673531351,-0.1816809842547626,-0.8200391416900472,-0.5979368686676025,0.6881833076477051,-0.4109443128108978,0,0,0,-1,-1,32846.292754625,unknown,2,2025-04-22T13:18:52.929+03:00,2025-04-21T17:08:51.449+03:00,7440,1.01013,0,0,6196.233,5,20,2025-04-22T13:18:52.929+03:00,767009935.5997123,0,-20.39,100.4473,1,0.7,2025-04-22T13:17:51.654+03:00,90,1.5,2025-04-22T09:54:17.825+03:00,0.02225348692287972,0
2025-04-22T13:18:57.573+03:00,1745317135.028596,40.9522634397247,29.14028108201103,76.21932,-1,-1,-1,-1,30,24.85156048724523,-9999,32850.93180966667,-0.6253509521484375,0.70013427734375,-0.3925018310546875,32850.92173266667,0.02671374499694073,-0.9642764764874834,-0.7584643345958237,0.2829241454601288,0.1452006846666336,0.1243887096643448,-0.03576648235321045,0.003568112850189209,0.02160131931304932,XArbitraryZVertical,0.3222234135867657,0.4350728344345171,-0.1826335698989517,-0.8206879070442807,-0.5964204072952271,0.6878075003623962,-0.413767397403717,0,0,0,-1,-1,32846.292754625,unknown,2,2025-04-22T13:18:52.929+03:00,2025-04-21T17:08:51.449+03:00,7440,1.01013,0,0,6196.233,5,20,2025-04-22T13:18:52.929+03:00,767009935.5997123,0,-20.39,100.4473,1,0.7,2025-04-22T13:17:51.654+03:00,90,1.5,2025-04-22T09:54:17.825+03:00,0.02225348692287972,0
