loggingTime(txt),locationTimestamp_since1970(s),locationLatitude(WGS84),locationLongitude(WGS84),locationAltitude(m),locationSpeed(m/s),locationSpeedAccuracy(m/s),locationCourse(°),locationCourseAccuracy(°),locationVerticalAccuracy(m),locationHorizontalAccuracy(m),locationFloor(Z),accelerometerTimestamp_sinceReboot(s),accelerometerAccelerationX(G),accelerometerAccelerationY(G),accelerometerAccelerationZ(G),motionTimestamp_sinceReboot(s),motionYaw(rad),motionRoll(rad),motionPitch(rad),motionRotationRateX(rad/s),motionRotationRateY(rad/s),motionRotationRateZ(rad/s),motionUserAccelerationX(G),motionUserAccelerationY(G),motionUserAccelerationZ(G),motionAttitudeReferenceFrame(txt),motionQuaternionX(R),motionQuaternionY(R),motionQuaternionZ(R),motionQuaternionW(R),motionGravityX(G),motionGravityY(G),motionGravityZ(G),motionMagneticFieldX(µT),motionMagneticFieldY(µT),motionMagneticFieldZ(µT),motionHeading(°),motionMagneticFieldCalibrationAccuracy(Z),activityTimestamp_sinceReboot(s),activity(txt),activityActivityConfidence(Z),activityActivityStartDate(txt),pedometerStartDate(txt),pedometerNumberofSteps(N),pedometerAverageActivePace(s/m),pedometerCurrentPace(s/m),pedometerCurrentCadence(steps/s),pedometerDistance(m),pedometerFloorAscended(N),pedometerFloorDescended(N),pedometerEndDate(txt),altimeterTimestamp_sinceReboot(s),altimeterReset(bool),altimeterRelativeAltitude(m),altimeterPressure(kPa),batteryState(N),batteryLevel(R),heartRateBPMTimestamp(txt),heartRateBPM(N),heartRateBPS(R),heartRateVariabilityTimestamp(txt),heartRateVariability(ms),label
2025-04-22T12:53:16.877+03:00,1745315590.818619,40.95220438681564,29.14026845981508,76.46294,-1,-1,-1,-1,30,34.69433513337849,-9999,31539.536244375,-0.6839141845703125,0.6575164794921875,-0.3209381103515625,31539.526168375,-0.02326281221251767,-1.129698322672175,-0.7212091405956427,-0.001413795864209533,0.0117456866428256,-0.03891275078058243,-0.001234948635101318,0.008026421070098877,-0.001437485218048096,XArbitraryZVertical,0.3038385527228336,0.4973602994281819,-0.1796658141845958,-0.7924865655867561,-0.6791239380836487,0.6602932214736938,-0.320629745721817,0,0,0,-1,-1,31535.58748875,unknown,2,2025-04-22T12:53:12.898+03:00,2025-04-21T17:08:51.449+03:00,7380,0.9939646,0,0,6149.357,5,20,2025-04-22T12:52:31.625+03:00,767008395.5673326,0,-22.57999,100.4731,1,0.75,2025-04-22T12:48:51.593+03:00,81,1.35,2025-04-22T09:54:17.825+03:00,0.02225348692287972,0
2025-04-22T12:53:16.879+03:00,1745315590.818619,40.95220438681564,29.14026845981508,76.46294,-1,-1,-1,-1,30,34.69433513337849,-9999,31539.546321375,-0.67926025390625,0.65643310546875,-0.3223876953125,31539.536244375,-0.02348327993343229,-1.129733290746219,-0.7208643625355765,0.0008391052251681685,0.009936735033988953,-0.03642129898071289,-0.003428816795349121,0.002654850482940674,0.0009247660636901855,XArbitraryZVertical,0.3037543772448431,0.4973748066974919,-0.1794968159997694,-0.7925480355576543,-0.6793409585952759,0.6600342392921448,-0.3207031488418579,0,0,0,-1,-1,31535.58748875,unknown,2,2025-04-22T12:53:12.898+03:00,2025-04-21T17:08:51.449+03:00,7380,0.9939646,0,0,6149.357,5,20,2025-04-22T12:52:31.625+03:00,767008395.5673326,0,-22.57999,100.4731,1,0.75,2025-04-22T12:48:51.593+03:00,81,1.35,2025-04-22T09:54:17.825+03:00,0.02225348692287972,0
2025-04-22T12:53:16.880+03:00,1745315590.818619,40.95220438681564,29.14026845981508,76.46294,-1,-1,-1,-1,30,34.69433513337849,-9999,31539.556397375,-0.67877197265625,0.6560211181640625,-0.322723388671875,31539.546321375,-0.02367185582378421,-1.129695357736088,-0.7205501839843025,-0.0004200373659841716,0.0204801894724369,-0.0343719981610775,-0.004046916961669922,-0.002388596534729004,-0.0007920265197753906,XArbitraryZVertical,0.3036808675347089,0.4973622476151756,-0.17933708662081,-0.7926202506047443,-0.6795163154602051,0.6597982048988342,-0.3208174407482147,0,0,0,-1,-1,31535.58748875,unknown,2,2025-04-22T12:53:12.898+03:00,2025-04-21T17:08:51.449+03:00,7380,0.9939646,0,0,6149.357,5,20,2025-04-22T12:52:31.625+03:00,767008395.5673326,0,-22.57999,100.4731,1,0.75,2025-04-22T12:48:51.593+03:00,81,1.35,2025-04-22T09:54:17.825+03:00,0.02225348692287972,0
2025-04-22T12:53:16.882+03:00,1745315590.818619,40.95220438681564,29.14026845981508,76.46294,-1,-1,-1,-1,30,34.69433513337849,-9999,31539.566474375,-0.6769256591796875,0.654388427734375,-0.3220367431640625,31539.556397375,-0.02388207292882883,-1.129640699321971,-0.7202681604260114,-0.0002050536568276584,0.01446870248764753,-0.03408687189221382,0.001368105411529541,-0.002863287925720215,-0.001270532608032227,XArbitraryZVertical,0.3036268952780784,0.4973365878671991,-0.1791743252771861,-0.7926938705991312,-0.679667055606842,0.6595862507820129,-0.3209340572357178,0,0,0,-1,-1,31535.58748875,unknown,2,2025-04-22T12:53:12.898+03:00,2025-04-21T17:08:51.449+03:00,7380,0.9939646,0,0,6149.357,5,20,2025-04-22T12:52:31.625+03:00,767008395.5673326,0,-22.57999,100.4731,1,0.75,2025-04-22T12:48:51.593+03:00,81,1.35,2025-04-22T09:54:17.825+03:00,0.02225348692287972,0
2025-04-22T12:53:16.892+03:00,1745315590.818619,40.95220438681564,29.14026845981508,76.46294,-1,-1,-1,-1,30,34.69433513337849,-9999,31539.576551375,-0.6761627197265625,0.655426025390625,-0.3249359130859375,31539.566474375,-0.02406152280186713,-1.129602688143933,-0.7199743233589389,-0.0009696471970528364,0.01697127521038055,-0.03034459985792637,0.001271665096282959,-0.003878355026245117,-0.001955389976501465,XArbitraryZVertical,0.3035591265605037,0.4973233885736729,-0.1790233344210995,-0.7927621724728633,-0.679830014705658,0.6593653559684753,-0.3210425972938538,0,0,0,-1,-1,31535.58748875,unknown,2,2025-04-22T12:53:12.898+03:00,2025-04-21T17:08:51.449+03:00,7380,0.9939646,0,0,6149.357,5,20,2025-04-22T12:52:31.625+03:00,767008395.5673326,0,-22.57999,100.4731,1,0.75,2025-04-22T12:48:51.593+03:00,81,1.35,2025-04-22T09:54:17.825+03:00,0.02225348692287972,0
2025-04-22T12:53:16.903+03:00,1745315590.818619,40.95220438681564,29.14026845981508,76.46294,-1,-1,-1,-1,30,34.69433513337849,-9999,31539.586627375,-0.6768646240234375,0.651641845703125,-0.3245391845703125,31539.576551375,-0.02427067884146294,-1.129579209620359,-0.7197071227594399,-0.007336333394050598,0.01306561566889286,-0.03080432862043381,0.003071308135986328,-0.004898250102996826,-0.001040250062942505,XArbitraryZVertical,0.3035079375852445,0.4973088142486904,-0.1788694950909558,-0.792825564494717,-0.6799816489219666,0.6591644287109375,-0.3211337625980377,0,0,0,-1,-1,31535.58748875,unknown,2,2025-04-22T12:53:12.898+03:00,2025-04-21T17:08:51.449+03:00,7380,0.9939646,0,0,6149.357,5,20,2025-04-22T12:52:31.625+03:00,767008395.5673326,0,-22.57999,100.4731,1,0.75,2025-04-22T12:48:51.593+03:00,81,1.35,2025-04-22T09:54:17.825+03:00,0.02225348692287972,0
2025-04-22T12:53:16.912+03:00,1745315590.818619,40.95220438681564,29.14026845981508,76.46294,-1,-1,-1,-1,30,34.69433513337849,-9999,31539.596704375,-0.67230224609375,0.651031494140625,-0.3211822509765625,31539.586627375,-0.02457374051633563,-1.129681480538373,-0.7194635147780045,-0.0129931541159749,0.008684982545673847,-0.02998380921781063,0.00335615873336792,-0.004150450229644775,-0.003894656896591187,XArbitraryZVertical,0.3034781428156421,0.4973274961071852,-0.1787034124487195,-0.7928627061141381,-0.6801596879959106,0.6589812636375427,-0.3211327493190765,0,0,0,-1,-1,31535.58748875,unknown,2,2025-04-22T12:53:12.898+03:00,2025-04-21T17:08:51.449+03:00,7380,0.9939646,0,0,6149.357,5,20,2025-04-22T12:52:31.625+03:00,767008395.5673326,0,-22.57999,100.4731,1,0.75,2025-04-22T12:48:51.593+03:00,81,1.35,2025-04-22T09:54:17.825+03:00,0.02225348692287972,0
2025-04-22T12:53:16.922+03:00,1745315590.818619,40.95220438681564,29.14026845981508,76.46294,-1,-1,-1,-1,30,34.69433513337849,-9999,31539.606781375,-0.6749420166015625,0.6541595458984375,-0.3199462890625,31539.596704375,-0.02492273885932633,-1.129861690153151,-0.7192333065190075,-0.01240812335163355,0.006300587672740221,-0.03255844861268997,0.003535985946655273,-0.00808185338973999,-0.003540456295013428,XArbitraryZVertical,0.303458095482235,0.4973687750899067,-0.1785342638007939,-0.7928826823947368,-0.6803548336029053,0.6588080525398254,-0.3210749626159668,0,0,0,-1,-1,31535.58748875,unknown,2,2025-04-22T12:53:12.898+03:00,2025-04-21T17:08:51.449+03:00,7380,0.9939646,0,0,6149.357,5,20,2025-04-22T12:52:31.625+03:00,767008395.5673326,0,-22.57999,100.4731,1,0.75,2025-04-22T12:48:51.593+03:00,81,1.35,2025-04-22T09:54:17.825+03:00,0.02225348692287972,0
2025-04-22T12:53:16.932+03:00,1745315590.818619,40.95220438681564,29.14026845981508,76.46294,-1,-1,-1,-1,30,34.69433513337849,-9999,31539.616857375,-0.6790771484375,0.6548614501953125,-0.322113037109375,31539.606781375,-0.02525707293102976,-1.129992471694313,-0.7189985635143109,-0.01330720633268356,0.01052489317953587,-0.0339166633784771,0.008219242095947266,-0.007737338542938232,0.0004343390464782715,XArbitraryZVertical,0.3034370554354246,0.4973931583270323,-0.1783622811938224,-0.7929141982024739,-0.6805367469787598,0.658631443977356,-0.3210519850254059,0,0,0,-1,-1,31535.58748875,unknown,2,2025-04-22T12:53:12.898+03:00,2025-04-21T17:08:51.449+03:00,7380,0.9939646,0,0,6149.357,5,20,2025-04-22T12:52:31.625+03:00,767008395.5673326,0,-22.57999,100.4731,1,0.75,2025-04-22T12:48:51.593+03:00,81,1.35,2025-04-22T09:54:17.825+03:00,0.02225348692287972,0
2025-04-22T12:53:16.942+03:00,1745315590.818619,40.95220438681564,29.14026845981508,76.46294,-1,-1,-1,-1,30,34.69433513337849,-9999,31539.626934375,-0.6751708984375,0.6506195068359375,-0.3232879638671875,31539.616857375,-0.0256373412951314,-1.130166646312297,-0.7187633597709664,-0.01520996913313866,0.004025781992822886,-0.03277573361992836,0.005195498466491699,-0.004310309886932373,0.0003055036067962646,XArbitraryZVertical,0.3034234450606243,0.497427887918254,-0.1781786410040907,-0.7929387338181508,-0.6807325482368469,0.6584544777870178,-0.320999413728714,0,0,0,-1,-1,31535.58748875,unknown,2,2025-04-22T12:53:12.898+03:00,2025-04-21T17:08:51.449+03:00,7380,0.9939646,0,0,6149.357,5,20,2025-04-22T12:52:31.625+03:00,767008395.5673326,0,-22.57999,100.4731,1,0.75,2025-04-22T12:48:51.593+03:00,81,1.35,2025-04-22T09:54:17.825+03:00,0.02225348692287972,0
2025-04-22T12:53:16.952+03:00,1745315590.818619,40.95220438681564,29.14026845981508,76.46294,-1,-1,-1,-1,30,34.69433513337849,-9999,31539.637010375,-0.6762237548828125,0.6553955078125,-0.32525634765625,31539.626934375,-0.0260106630961609,-1.130352237939166,-0.7185402434423722,-0.01308450009673834,0.006659115664660931,-0.03171073645353317,0.001695454120635986,-0.003730297088623047,-0.001390814781188965,XArbitraryZVertical,0.3034118325835884,0.4974669459169029,-0.1780023613233914,-0.7929584193798488,-0.680925190448761,0.6582865118980408,-0.3209357857704163,0,0,0,-1,-1,31535.58748875,unknown,2,2025-04-22T12:53:12.898+03:00,2025-04-21T17:08:51.449+03:00,7380,0.9939646,0,0,6149.357,5,20,2025-04-22T12:52:31.625+03:00,767008395.5673326,0,-22.57999,100.4731,1,0.75,2025-04-22T12:48:51.593+03:00,81,1.35,2025-04-22T09:54:17.825+03:00,0.02225348692287972,0
2025-04-22T12:53:16.962+03:00,1745315590.818619,40.95220438681564,29.14026845981508,76.46294,-1,-1,-1,-1,30,34.69433513337849,-9999,31539.647087375,-0.674774169921875,0.6555023193359375,-0.3247222900390625,31539.637010375,-0.02634016185983239,-1.13051846148242,-0.7183346188363893,-0.0111810714006424,0.0007035550661385059,-0.03002958185970783,0.006738722324371338,-0.007558047771453857,-0.003033280372619629,XArbitraryZVertical,0.3033979887435959,0.4975032902410652,-0.1778450014402389,-0.7929761998493886,-0.6811009049415588,0.6581317186355591,-0.320880264043808,0,0,0,-1,-1,31535.58748875,unknown,2,2025-04-22T12:53:12.898+03:00,2025-04-21T17:08:51.449+03:00,7380,0.9939646,0,0,6149.357,5,20,2025-04-22T12:52:31.625+03:00,767008395.5673326,0,-22.57999,100.4731,1,0.75,2025-04-22T12:48:51.593+03:00,81,1.35,2025-04-22T09:54:17.825+03:00,0.02225348692287972,0
2025-04-22T12:53:16.972+03:00,1745315590.818619,40.95220438681564,29.14026845981508,76.46294,-1,-1,-1,-1,30,34.69433513337849,-9999,31539.657164375,-0.673370361328125,0.6550750732421875,-0.32379150390625,31539.647087375,-0.02666076313923133,-1.130721151205386,-0.7181305127123987,-0.01603255420923233,-0.0004772902466356754,-0.02661247923970222,0.004682242870330811,-0.0020180344581604,-0.004136443138122559,XArbitraryZVertical,0.3033793062588532,0.4975552960990567,-0.1776970445339843,-0.7929839117627741,-0.6812874674797058,0.6579780578613281,-0.3207994401454926,0,0,0,-1,-1,31535.58748875,unknown,2,2025-04-22T12:53:12.898+03:00,2025-04-21T17:08:51.449+03:00,7380,0.9939646,0,0,6149.357,5,20,2025-04-22T12:52:31.625+03:00,767008395.5673326,0,-22.57999,100.4731,1,0.75,2025-04-22T12:48:51.593+03:00,81,1.35,2025-04-22T09:54:17.825+03:00,0.02225348692287972,0
2025-04-22T12:53:16.982+03:00,1745315590.818619,40.95220438681564,29.14026845981508,76.46294,-1,-1,-1,-1,30,34.69433513337849,-9999,31539.667240375,-0.6756591796875,0.6537017822265625,-0.322296142578125,31539.657164375,-0.02697400120655402,-1.13093947571779,-0.7179446264592997,-0.01543766912072897,-0.00324651226401329,-0.02728562615811825,0.00680077075958252,-0.002045869827270508,-0.004187345504760742,XArbitraryZVertical,0.3033646165528666,0.4976128296717273,-0.1775589869209437,-0.79298433727645,-0.68146812915802,0.6578380465507507,-0.3207027614116669,0,0,0,-1,-1,31535.58748875,unknown,2,2025-04-22T12:53:12.898+03:00,2025-04-21T17:08:51.449+03:00,7380,0.9939646,0,0,6149.357,5,20,2025-04-22T12:52:31.625+03:00,767008395.5673326,0,-22.57999,100.4731,1,0.75,2025-04-22T12:48:51.593+03:00,81,1.35,2025-04-22T09:54:17.825+03:00,0.02225348692287972,0
2025-04-22T12:53:16.992+03:00,1745315590.818619,40.95220438681564,29.14026845981508,76.46294,-1,-1,-1,-1,30,34.69433513337849,-9999,31539.677317375,-0.6795806884765625,0.65277099609375,-0.319061279296875,31539.667240375,-0.02730306332879083,-1.131177715653469,-0.7177615132495058,-0.0144690778106451,-0.002119728364050388,-0.02587335184216499,0.008099973201751709,-0.002701401710510254,-0.00390172004699707,XArbitraryZVertical,0.3033532279063961,0.4976756077814561,-0.1774183879958195,-0.7929806934140758,-0.6816534399986267,0.6577001214027405,-0.3205916285514832,0,0,0,-1,-1,31535.58748875,unknown,2,2025-04-22T12:53:12.898+03:00,2025-04-21T17:08:51.449+03:00,7380,0.9939646,0,0,6149.357,5,20,2025-04-22T12:52:31.625+03:00,767008395.5673326,0,-22.57999,100.4731,1,0.75,2025-04-22T12:48:51.593+03:00,81,1.35,2025-04-22T09:54:17.825+03:00,0.02225348692287972,0
2025-04-22T12:53:17.002+03:00,1745315590.818619,40.95220438681564,29.14026845981508,76.46294,-1,-1,-1,-1,30,34.69433513337849,-9999,31539.687394375,-0.6793060302734375,0.6537017822265625,-0.3198699951171875,31539.677317375,-0.02760872694483323,-1.131398857437567,-0.7175924760511307,-0.01462414022535086,-0.003640460316091776,-0.02524248324334621,0.005524873733520508,-0.00423729419708252,-0.001136541366577148,XArbitraryZVertical,0.303343098468925,0.4977337511975317,-0.1772879845873982,-0.7929772387703806,-0.6818249225616455,0.6575727462768555,-0.3204881548881531,0,0,0,-1,-1,31535.58748875,unknown,2,2025-04-22T12:53:12.898+03:00,2025-04-21T17:08:51.449+03:00,7380,0.9939646,0,0,6149.357,5,20,2025-04-22T12:52:31.625+03:00,767008395.5673326,0,-22.57999,100.4731,1,0.75,2025-04-22T12:48:51.593+03:00,81,1.35,2025-04-22T09:54:17.825+03:00,0.02225348692287972,0
2025-04-22T12:53:17.012+03:00,1745315590.818619,40.95220438681564,29.14026845981508,76.46294,-1,-1,-1,-1,30,34.69433513337849,-9999,31539.697470375,-0.677581787109375,0.6558380126953125,-0.321746826171875,31539.687394375,-0.02787657539959596,-1.131566270366427,-0.7174490751711246,-0.01029890030622482,0.001859233947470784,-0.01972893998026848,0.002123892307281494,-0.004831135272979736,0.001581788063049316,XArbitraryZVertical,0.3033384354424021,0.4977737743798761,-0.1771708777367405,-0.7929801164626774,-0.6819639205932617,0.6574647426605225,-0.320414125919342,0,0,0,-1,-1,31535.58748875,unknown,2,2025-04-22T12:53:12.898+03:00,2025-04-21T17:08:51.449+03:00,7380,0.9939646,0,0,6149.357,5,20,2025-04-22T12:52:31.625+03:00,767008395.5673326,0,-22.57999,100.4731,1,0.75,2025-04-22T12:48:51.593+03:00,81,1.35,2025-04-22T09:54:17.825+03:00,0.02225348692287972,0
2025-04-22T12:53:17.023+03:00,1745315590.818619,40.95220438681564,29.14026845981508,76.46294,-1,-1,-1,-1,30,34.69433513337849,-9999,31539.707547375,-0.6731719970703125,0.6565399169921875,-0.323760986328125,31539.697470375,-0.02809254343045974,-1.131710484637964,-0.7173240635459754,-0.008858263492584229,-0.003159626387059689,-0.01976402662694454,0.002961635589599609,-0.003089010715484619,0.0005875825881958008,XArbitraryZVertical,0.3033301781798232,0.4978106492162266,-0.1770754805279826,-0.7929814505318994,-0.6820845603942871,0.6573705077171326,-0.320350706577301,0,0,0,-1,-1,31535.58748875,unknown,2,2025-04-22T12:53:12.898+03:00,2025-04-21T17:08:51.449+03:00,7380,0.9939646,0,0,6149.357,5,20,2025-04-22T12:52:31.625+03:00,767008395.5673326,0,-22.57999,100.4731,1,0.75,2025-04-22T12:48:51.593+03:00,81,1.35,2025-04-22T09:54:17.825+03:00,0.02225348692287972,0
2025-04-22T12:53:17.033+03:00,1745315590.818619,40.95220438681564,29.14026845981508,76.46294,-1,-1,-1,-1,30,34.69433513337849,-9999,31539.717624375,-0.67413330078125,0.6529083251953125,-0.3234710693359375,31539.707547375,-0.02827683327621599,-1.131850263571285,-0.7172168747931773,-0.009304342791438103,-0.001828046049922705,-0.01235351525247097,0.00583195686340332,-0.001222968101501465,-0.00216338038444519,XArbitraryZVertical,0.3033214759648004,0.4978488210835401,-0.1769965241812161,-0.7929783543079155,-0.6821929812431335,0.6572897434234619,-0.3202852606773376,0,0,0,-1,-1,31535.58748875,unknown,2,2025-04-22T12:53:12.898+03:00,2025-04-21T17:08:51.449+03:00,7380,0.9939646,0,0,6149.357,5,20,2025-04-22T12:52:31.625+03:00,767008395.5673326,0,-22.57999,100.4731,1,0.75,2025-04-22T12:48:51.593+03:00,81,1.35,2025-04-22T09:54:17.825+03:00,0.02225348692287972,0
2025-04-22T12:53:17.043+03:00,1745315590.818619,40.95220438681564,29.14026845981508,76.46294,-1,-1,-1,-1,30,34.69433513337849,-9999,31539.727700375,-0.677734375,0.652984619140625,-0.323974609375,31539.717624375,-0.02846064318440158,-1.131968555300367,-0.7171340789419861,-0.01263489201664925,0.001670282799750566,-0.009324568323791027,0.009382963180541992,-0.0005501508712768555,-0.00324326753616333,XArbitraryZVertical,0.3033241397150166,0.4978760721417691,-0.1769205666663159,-0.7929773046568348,-0.6822803020477295,0.6572273373603821,-0.3202277719974518,0,0,0,-1,-1,31535.58748875,unknown,2,2025-04-22T12:53:12.898+03:00,2025-04-21T17:08:51.449+03:00,7380,0.9939646,0,0,6149.357,5,20,2025-04-22T12:52:31.625+03:00,767008395.5673326,0,-22.57999,100.4731,1,0.75,2025-04-22T12:48:51.593+03:00,81,1.35,2025-04-22T09:54:17.825+03:00,0.02225348692287972,0
2025-04-22T12:53:17.053+03:00,1745315590.818619,40.95220438681564,29.14026845981508,76.46294,-1,-1,-1,-1,30,34.69433513337849,-9999,31539.737777375,-0.6771697998046875,0.654205322265625,-0.3224029541015625,31539.727700375,-0.02863699727633301,-1.13208478689847,-0.7171117193456836,-0.009736306965351105,-0.003459231462329626,-0.008463835343718529,0.007098793983459473,-0.004012405872344971,-0.003133267164230347,XArbitraryZVertical,0.3033489730872537,0.4978976624025328,-0.176862664860347,-0.7929670554091162,-0.6823306679725647,0.6572104692459106,-0.3201546370983124,0,0,0,-1,-1,31535.58748875,unknown,2,2025-04-22T12:53:12.898+03:00,2025-04-21T17:08:51.449+03:00,7380,0.9939646,0,0,6149.357,5,20,2025-04-22T12:52:31.625+03:00,767008395.5673326,0,-22.57999,100.4731,1,0.75,2025-04-22T12:48:51.593+03:00,81,1.35,2025-04-22T09:54:17.825+03:00,0.02225348692287972,0
2025-04-22T12:53:17.063+03:00,1745315590.818619,40.95220438681564,29.14026845981508,76.46294,-1,-1,-1,-1,30,34.69433513337849,-9999,31539.747853375,-0.6786041259765625,0.6550445556640625,-0.3210296630859375,31539.737777375,-0.02876426611131911,-1.132161311949478,-0.7171072777306009,-0.0123638492077589,3.21059487760067e-05,-0.003538085846230388,0.003967344760894775,-0.003963232040405273,-0.004054039716720581,XArbitraryZVertical,0.3033721481534346,0.4979091516639599,-0.1768227090438793,-0.7929598412982654,-0.6823577284812927,0.6572071313858032,-0.320103645324707,0,0,0,-1,-1,31535.58748875,unknown,2,2025-04-22T12:53:12.898+03:00,2025-04-21T17:08:51.449+03:00,7380,0.9939646,0,0,6149.357,5,20,2025-04-22T12:52:31.625+03:00,767008395.5673326,0,-22.57999,100.4731,1,0.75,2025-04-22T12:48:51.593+03:00,81,1.35,2025-04-22T09:54:17.825+03:00,0.02225348692287972,0
2025-04-22T12:53:17.073+03:00,1745315590.818619,40.95220438681564,29.14026845981508,76.46294,-1,-1,-1,-1,30,34.69433513337849,-9999,31539.757930375,-0.68157958984375,0.6556243896484375,-0.320892333984375,31539.747853375,-0.02891942632563337,-1.132260546268216,-0.7171349940732324,-0.01305307541042566,-0.0009074574336409569,-0.00420387601479888,0.004898190498352051,-0.003114402294158936,-0.00190165638923645,XArbitraryZVertical,0.3034129117205726,0.4979221839795077,-0.1767832449141588,-0.7929449002750559,-0.682373046875,0.6572280526161194,-0.3200282156467438,0,0,0,-1,-1,31535.58748875,unknown,2,2025-04-22T12:53:12.898+03:00,2025-04-21T17:08:51.449+03:00,7380,0.9939646,0,0,6149.357,5,20,2025-04-22T12:52:31.625+03:00,767008395.5673326,0,-22.57999,100.4731,1,0.75,2025-04-22T12:48:51.593+03:00,81,1.35,2025-04-22T09:54:17.825+03:00,0.02225348692287972,0
2025-04-22T12:53:17.083+03:00,1745315590.818619,40.95220438681564,29.14026845981508,76.46294,-1,-1,-1,-1,30,34.69433513337849,-9999,31539.768007375,-0.6835174560546875,0.655670166015625,-0.3211517333984375,31539.757930375,-0.02904092642852962,-1.132315262624867,-0.7171486023189658,-0.005743895657360554,0.003089813748374581,-0.002054372103884816,0.004053115844726562,-0.001522481441497803,-0.0004626810550689697,XArbitraryZVertical,0.3034436811721709,0.4979240833252175,-0.1767468161283927,-0.7929400647767497,-0.6823825240135193,0.6572383046150208,-0.3199870884418488,0,0,0,-1,-1,31535.58748875,unknown,2,2025-04-22T12:53:12.898+03:00,2025-04-21T17:08:51.449+03:00,7380,0.9939646,0,0,6149.357,5,20,2025-04-22T12:52:31.625+03:00,767008395.5673326,0,-22.57999,100.4731,1,0.75,2025-04-22T12:48:51.593+03:00,81,1.35,2025-04-22T09:54:17.825+03:00,0.02225348692287972,0
2025-04-22T12:53:17.093+03:00,1745315590.818619,40.95220438681564,29.14026845981508,76.46294,-1,-1,-1,-1,30,34.69433513337849,-9999,31539.778083375,-0.68231201171875,0.6576995849609375,-0.321624755859375,31539.768007375,-0.02911426448341203,-1.132325788131059,-0.717154991603885,-0.004316175356507301,0.005704771727323532,-0.0005025481223128736,0.0004973411560058594,-0.001084804534912109,-0.001143008470535278,XArbitraryZVertical,0.3034635259464378,0.4979164923553788,-0.176720957895788,-0.792942994104485,-0.6823820471763611,0.6572431325912476,-0.3199781179428101,0,0,0,-1,-1,31535.58748875,unknown,2,2025-04-22T12:53:12.898+03:00,2025-04-21T17:08:51.449+03:00,7380,0.9939646,0,0,6149.357,5,20,2025-04-22T12:52:31.625+03:00,767008395.5673326,0,-22.57999,100.4731,1,0.75,2025-04-22T12:48:51.593+03:00,81,1.35,2025-04-22T09:54:17.825+03:00,0.02225348692287972,0
2025-04-22T12:53:17.103+03:00,1745315590.818619,40.95220438681564,29.14026845981508,76.46294,-1,-1,-1,-1,30,34.69433513337849,-9999,31539.788160375,-0.6797943115234375,0.6566009521484375,-0.32305908203125,31539.778083375,-0.02915563989752205,-1.13230253118237,-0.7171727046221953,-0.002019664971157908,0.004331179894506931,0.000298164552077651,-0.0006192922592163086,-0.0006861686706542969,-0.001956075429916382,XArbitraryZVertical,0.3034828584238056,0.4978992284545716,-0.1767055197811443,-0.7929498573460989,-0.6823640465736389,0.6572564840316772,-0.319989025592804,0,0,0,-1,-1,31535.58748875,unknown,2,2025-04-22T12:53:12.898+03:00,2025-04-21T17:08:51.449+03:00,7380,0.9939646,0,0,6149.357,5,20,2025-04-22T12:52:31.625+03:00,767008395.5673326,0,-22.57999,100.4731,1,0.75,2025-04-22T12:48:51.593+03:00,81,1.35,2025-04-22T09:54:17.825+03:00,0.02225348692287972,0
2025-04-22T12:53:17.113+03:00,1745315597.046434,40.9522316398238,29.1402719199613,76.44794,-1,-1,-1,-1,30,34.30805834696292,-9999,31539.798237375,-0.678802490234375,0.6542816162109375,-0.322418212890625,31539.788160375,-0.02918621999010526,-1.132268832984763,-0.7171953738668935,-0.005009329877793789,0.006326686590909958,0.001648919889703393,0.001080751419067383,0.0002428293228149414,-0.002275139093399048,XArbitraryZVertical,0.3035023685259501,0.4978789556294915,-0.1766940059892737,-0.7929577212333311,-0.6823398470878601,0.657273530960083,-0.3200057148933411,0,0,0,-1,-1,31535.58748875,unknown,2,2025-04-22T12:53:12.898+03:00,2025-04-21T17:08:51.449+03:00,7380,0.9939646,0,0,6149.357,5,20,2025-04-22T12:52:31.625+03:00,767008395.5673326,0,-22.57999,100.4731,1,0.75,2025-04-22T12:48:51.593+03:00,81,1.35,2025-04-22T09:54:17.825+03:00,0.02225348692287972,0
2025-04-22T12:53:17.124+03:00,1745315597.046434,40.9522316398238,29.1402719199613,76.44794,-1,-1,-1,-1,30,34.30805834696292,-9999,31539.808313375,-0.67974853515625,0.6554718017578125,-0.3214569091796875,31539.798237375,-0.02917095127097691,-1.132187034684581,-0.7172351483872532,-4.806031938642263e-05,0.004924332723021507,0.006619077175855637,0.003029763698577881,-0.0005653500556945801,-0.002978116273880005,XArbitraryZVertical,0.3035214633993137,0.4978448804082436,-0.176697745692417,-0.7929709179389496,-0.6822898983955383,0.657303512096405,-0.3200503885746002,0,0,0,-1,-1,31535.58748875,unknown,2,2025-04-22T12:53:12.898+03:00,2025-04-21T17:08:51.449+03:00,7380,0.9939646,0,0,6149.357,5,20,2025-04-22T12:52:31.625+03:00,767008395.5673326,0,-22.57999,100.4731,1,0.75,2025-04-22T12:48:51.593+03:00,81,1.35,2025-04-22T09:54:17.825+03:00,0.02225348692287972,0
2025-04-22T12:53:17.133+03:00,1745315597.046434,40.9522316398238,29.1402719199613,76.44794,-1,-1,-1,-1,30,34.30805834696292,-9999,31539.818390375,-0.6753387451171875,0.656219482421875,-0.3223724365234375,31539.808313375,-0.02911875968442721,-1.132081267111134,-0.7172887446370825,0.0003567401727195829,0.006801594980061054,0.006606560666114092,0.003238677978515625,-0.00289452075958252,-0.001669645309448242,XArbitraryZVertical,0.3035389057173726,0.4978054920732436,-0.1767159129144861,-0.7929850186899458,-0.6822242736816406,0.6573439240455627,-0.320107638835907,0,0,0,-1,-1,31535.58748875,unknown,2,2025-04-22T12:53:12.898+03:00,2025-04-21T17:08:51.449+03:00,7380,0.9939646,0,0,6149.357,5,20,2025-04-22T12:52:31.625+03:00,767008395.5673326,0,-22.57999,100.4731,1,0.75,2025-04-22T12:48:51.593+03:00,81,1.35,2025-04-22T09:54:17.825+03:00,0.02225348692287972,0
2025-04-22T12:53:17.144+03:00,1745315597.046434,40.9522316398238,29.1402719199613,76.44794,-1,-1,-1,-1,30,34.30805834696292,-9999,31539.828467375,-0.67767333984375,0.654541015625,-0.320526123046875,31539.818390375,-0.02905942477046165,-1.131980204518844,-0.7173494468174151,0.001294705434702337,0.003291015978902578,0.008477963507175446,0.002788722515106201,-0.002497732639312744,-0.001800775527954102,XArbitraryZVertical,0.3035569712696939,0.4977683670820511,-0.1767394746301189,-0.7929961476786642,-0.6821557879447937,0.6573896408081055,-0.3201596438884735,0,0,0,-1,-1,31535.58748875,unknown,2,2025-04-22T12:53:12.898+03:00,2025-04-21T17:08:51.449+03:00,7380,0.9939646,0,0,6149.357,5,20,2025-04-22T12:52:31.625+03:00,767008395.5673326,0,-22.57999,100.4731,1,0.75,2025-04-22T12:48:51.593+03:00,81,1.35,2025-04-22T09:54:17.825+03:00,0.02225348692287972,0
2025-04-22T12:53:17.154+03:00,1745315597.046434,40.9522316398238,29.1402719199613,76.44794,-1,-1,-1,-1,30,34.30805834696292,-9999,31539.838543375,-0.6793670654296875,0.6554718017578125,-0.3212127685546875,31539.828467375,-0.0290147661626403,-1.131880754254737,-0.7174246030689919,0.0003207874833606184,0.006563774310052395,0.007797526195645332,0.0069541335105896,-0.001440465450286865,-0.002257496118545532,XArbitraryZVertical,0.3035842338621109,0.4977282006286861,-0.1767610953721848,-0.793006143959427,-0.6820792555809021,0.6574462652206421,-0.320206493139267,0,0,0,-1,-1,31535.58748875,unknown,2,2025-04-22T12:53:12.898+03:00,2025-04-21T17:08:51.449+03:00,7380,0.9939646,0,0,6149.357,5,20,2025-04-22T12:52:31.625+03:00,767008395.5673326,0,-22.57999,100.4731,1,0.75,2025-04-22T12:48:51.593+03:00,81,1.35,2025-04-22T09:54:17.825+03:00,0.02225348692287972,0
2025-04-22T12:53:17.164+03:00,1745315597.046434,40.9522316398238,29.1402719199613,76.44794,-1,-1,-1,-1,30,34.30805834696292,-9999,31539.848620375,-0.676666259765625,0.65338134765625,-0.3229522705078125,31539.838543375,-0.0289713831405158,-1.13180789543936,-0.7175084863387268,-0.002433919813483953,0.003516652155667543,0.01044740527868271,0.004149556159973145,-0.003136396408081055,-0.0005527734756469727,XArbitraryZVertical,0.3036129112034391,0.4976975257109035,-0.1767884803292932,-0.7930082957892611,-0.6820060014724731,0.6575095057487488,-0.3202327489852905,0,0,0,-1,-1,31535.58748875,unknown,2,2025-04-22T12:53:12.898+03:00,2025-04-21T17:08:51.449+03:00,7380,0.9939646,0,0,6149.357,5,20,2025-04-22T12:52:31.625+03:00,767008395.5673326,0,-22.57999,100.4731,1,0.75,2025-04-22T12:48:51.593+03:00,81,1.35,2025-04-22T09:54:17.825+03:00,0.02225348692287972,0
2025-04-22T12:53:17.174+03:00,1745315597.046434,40.9522316398238,29.1402719199613,76.44794,-1,-1,-1,-1,30,34.30805834696292,-9999,31539.858696375,-0.67877197265625,0.6539306640625,-0.32049560546875,31539.848620375,-0.02895876957975121,-1.131769259019034,-0.7176019293137389,0.00182074645999819,0.004413338378071785,0.009858580306172371,0.003288149833679199,-0.002459049224853516,-0.001284927129745483,XArbitraryZVertical,0.3036499764184936,0.497674781273364,-0.176811247448161,-0.7930033493219361,-0.6819380521774292,0.6575798988342285,-0.320233017206192,0,0,0,-1,-1,31535.58748875,unknown,2,2025-04-22T12:53:12.898+03:00,2025-04-21T17:08:51.449+03:00,7380,0.9939646,0,0,6149.357,5,20,2025-04-22T12:52:31.625+03:00,767008395.5673326,0,-22.57999,100.4731,1,0.75,2025-04-22T12:48:51.593+03:00,81,1.35,2025-04-22T09:54:17.825+03:00,0.02225348692287972,0
2025-04-22T12:53:17.184+03:00,1745315597.046434,40.9522316398238,29.1402719199613,76.44794,-1,-1,-1,-1,30,34.30805834696292,-9999,31539.868773375,-0.6794586181640625,0.655426025390625,-0.3184051513671875,31539.858696375,-0.02889251723380901,-1.131683292088474,-0.7176786869614544,0.002874026540666819,0.003246874082833529,0.007422853261232376,0.004817008972167969,-0.003997087478637695,-0.002239614725112915,XArbitraryZVertical,0.3036713364278041,0.4976431176827327,-0.1768439535849901,-0.793007620356327,-0.6818646788597107,0.6576377153396606,-0.3202700912952423,0,0,0,-1,-1,31535.58748875,unknown,2,2025-04-22T12:53:12.898+03:00,2025-04-21T17:08:51.449+03:00,7380,0.9939646,0,0,6149.357,5,20,2025-04-22T12:52:31.625+03:00,767008395.5673326,0,-22.57999,100.4731,1,0.75,2025-04-22T12:48:51.593+03:00,81,1.35,2025-04-22T09:54:17.825+03:00,0.02225348692287972,0
2025-04-22T12:53:17.194+03:00,1745315597.046434,40.9522316398238,29.1402719199613,76.44794,-1,-1,-1,-1,30,34.30805834696292,-9999,31539.878850375,-0.6779327392578125,0.6534423828125,-0.3192596435546875,31539.868773375,-0.02885444436962258,-1.131632310278825,-0.7177765258849677,-0.004870712291449308,0.002609313232824206,0.01182212866842747,0.003475964069366455,-0.003262042999267578,-0.0005232691764831543,XArbitraryZVertical,0.3037048953201238,0.4976189108516607,-0.1768760590480606,-0.7930028236782994,-0.6817901730537415,0.6577114462852478,-0.3202775120735168,0,0,0,-1,-1,31535.58748875,unknown,2,2025-04-22T12:53:12.898+03:00,2025-04-21T17:08:51.449+03:00,7380,0.9939646,0,0,6149.357,5,20,2025-04-22T12:52:31.625+03:00,767008395.5673326,0,-22.57999,100.4731,1,0.75,2025-04-22T12:48:51.593+03:00,81,1.35,2025-04-22T09:54:17.825+03:00,0.02225348692287972,0
2025-04-22T12:53:17.204+03:00,1745315597.046434,40.9522316398238,29.1402719199613,76.44794,-1,-1,-1,-1,30,34.30805834696292,-9999,31539.888926375,-0.6780548095703125,0.65423583984375,-0.3204498291015625,31539.878850375,-0.02884249354981339,-1.131592391919049,-0.7179128313201864,-0.006326662376523018,0.001958969049155712,0.01302268169820309,0.002634406089782715,-0.003227412700653076,0.002090424299240112,XArbitraryZVertical,0.3037591261614981,0.4975912870396733,-0.1769092279303024,-0.7929919946241261,-0.6816962361335754,0.657814085483551,-0.3202666044235229,0,0,0,-1,-1,31535.58748875,unknown,2,2025-04-22T12:53:12.898+03:00,2025-04-21T17:08:51.449+03:00,7380,0.9939646,0,0,6149.357,5,20,2025-04-22T12:52:31.625+03:00,767008395.5673326,0,-22.57999,100.4731,1,0.75,2025-04-22T12:48:51.593+03:00,81,1.35,2025-04-22T09:54:17.825+03:00,0.02225348692287972,0
2025-04-22T12:53:17.238+03:00,1745315597.046434,40.9522316398238,29.1402719199613,76.44794,-1,-1,-1,-1,30,34.30805834696292,-9999,31539.899003375,-0.678558349609375,0.6538238525390625,-0.318328857421875,31539.888926375,-0.02884375444359442,-1.13156379625889,-0.7180390489412731,-0.008529629558324814,0.001707033952698112,0.01082743797451258,0.004548966884613037,-0.004161715507507324,0.0006097257137298584,XArbitraryZVertical,0.3038116777453109,0.4975671629477394,-0.1769363469151035,-0.7929809054127835,-0.6816118359565735,0.6579091548919678,-0.3202507793903351,0,0,0,-1,-1,31535.58748875,unknown,2,2025-04-22T12:53:12.898+03:00,2025-04-21T17:08:51.449+03:00,7380,0.9939646,0,0,6149.357,5,20,2025-04-22T12:52:31.625+03:00,767008395.5673326,0,-22.57999,100.4731,1,0.75,2025-04-22T12:48:51.593+03:00,81,1.35,2025-04-22T09:54:17.825+03:00,0.02225348692287972,0
2025-04-22T12:53:17.241+03:00,1745315597.046434,40.9522316398238,29.1402719199613,76.44794,-1,-1,-1,-1,30,34.30805834696292,-9999,31539.909080375,-0.6801605224609375,0.6558074951171875,-0.3184814453125,31539.899003375,-0.02889349712179025,-1.13158599309753,-0.7181883406039314,-0.007485536858439445,0.001376403030008078,0.01182978507131338,0.003216028213500977,-0.003633201122283936,-0.000301659107208252,XArbitraryZVertical,0.3038808590581806,0.4975534728478485,-0.176957727140076,-0.7929583206378935,-0.6815301775932312,0.6580215692520142,-0.3201939165592194,0,0,0,-1,-1,31535.58748875,unknown,2,2025-04-22T12:53:12.898+03:00,2025-04-21T17:08:51.449+03:00,7380,0.9939646,0,0,6149.357,5,20,2025-04-22T12:52:31.625+03:00,767008395.5673326,0,-22.57999,100.4731,1,0.75,2025-04-22T12:48:51.593+03:00,81,1.35,2025-04-22T09:54:17.825+03:00,0.02225348692287972,0
2025-04-22T12:53:17.242+03:00,1745315597.046434,40.9522316398238,29.1402719199613,76.44794,-1,-1,-1,-1,30,34.30805834696292,-9999,31539.919156375,-0.6819000244140625,0.661651611328125,-0.3189697265625,31539.909080375,-0.02889009666409654,-1.131535390171495,-0.7183330531584157,-0.004305722191929817,0.003711462486535311,0.009874491952359676,0.002686381340026855,-0.00432199239730835,0.002225279808044434,XArbitraryZVertical,0.3039414725249008,0.4975194700033812,-0.1769880072276238,-0.7929496641845231,-0.6814277768135071,0.6581305265426636,-0.3201879262924194,0,0,0,-1,-1,31535.58748875,unknown,2,2025-04-22T12:53:12.898+03:00,2025-04-21T17:08:51.449+03:00,7380,0.9939646,0,0,6149.357,5,20,2025-04-22T12:52:31.625+03:00,767008395.5673326,0,-22.57999,100.4731,1,0.75,2025-04-22T12:48:51.593+03:00,81,1.35,2025-04-22T09:54:17.825+03:00,0.02225348692287972,0
2025-04-22T12:53:17.245+03:00,1745315597.046434,40.9522316398238,29.1402719199613,76.44794,-1,-1,-1,-1,30,34.30805834696292,-9999,31539.929233375,-0.678802490234375,0.6591644287109375,-0.318817138671875,31539.919156375,-0.02884916003935132,-1.1314524473886,-0.7184363351054864,-0.0008845591801218688,0.007145409006625414,0.01019437145441771,0.0007367134094238281,-0.002065181732177734,0.002008795738220215,XArbitraryZVertical,0.3039792949331354,0.4974824837834308,-0.1770177563896122,-0.7929517501711389,-0.6813397407531738,0.6582083106040955,-0.3202155232429504,0,0,0,-1,-1,31535.58748875,unknown,2,2025-04-22T12:53:12.898+03:00,2025-04-21T17:08:51.449+03:00,7380,0.9939646,0,0,6149.357,5,20,2025-04-22T12:52:31.625+03:00,767008395.5673326,0,-22.57999,100.4731,1,0.75,2025-04-22T12:48:51.593+03:00,81,1.35,2025-04-22T09:54:17.825+03:00,0.02225348692287972,0
2025-04-22T12:53:17.266+03:00,1745315597.046434,40.9522316398238,29.1402719199613,76.44794,-1,-1,-1,-1,30,34.30805834696292,-9999,31539.939310375,-0.679534912109375,0.6548309326171875,-0.3190155029296875,31539.929233375,-0.02880683669719823,-1.131343403321655,-0.7185369074036659,-0.001873657340183854,0.008133707568049431,0.007870230823755264,-0.0005331039428710938,0.003809988498687744,0.0005900561809539795,XArbitraryZVertical,0.30401803545725,0.4974356552177085,-0.1770434515541978,-0.7929604469655359,-0.6812447905540466,0.6582840085029602,-0.3202615976333618,0,0,0,-1,-1,31535.58748875,unknown,2,2025-04-22T12:53:12.898+03:00,2025-04-21T17:08:51.449+03:00,7380,0.9939646,0,0,6149.357,5,20,2025-04-22T12:52:31.625+03:00,767008395.5673326,0,-22.57999,100.4731,1,0.75,2025-04-22T12:48:51.593+03:00,81,1.35,2025-04-22T09:54:17.825+03:00,0.02225348692287972,0
2025-04-22T12:53:17.271+03:00,1745315597.046434,40.9522316398238,29.1402719199613,76.44794,-1,-1,-1,-1,30,34.30805834696292,-9999,31539.949386375,-0.6794891357421875,0.6554412841796875,-0.318359375,31539.939310375,-0.02873983487708921,-1.131212646309027,-0.7186169774508321,0.002569827018305659,0.007588292472064495,0.01184686273336411,0.002474844455718994,-0.0002633333206176758,0.001206010580062866,XArbitraryZVertical,0.3040444771060137,0.4973859989269185,-0.1770703960951409,-0.7929754395030709,-0.6811552047729492,0.6583442687988281,-0.3203282356262207,0,0,0,-1,-1,31535.58748875,unknown,2,2025-04-22T12:53:12.898+03:00,2025-04-21T17:08:51.449+03:00,7380,0.9939646,0,0,6149.357,5,20,2025-04-22T12:52:31.625+03:00,767008395.5673326,0,-22.57999,100.4731,1,0.75,2025-04-22T12:48:51.593+03:00,81,1.35,2025-04-22T09:54:17.825+03:00,0.02225348692287972,0
2025-04-22T12:53:17.275+03:00,1745315597.046434,40.9522316398238,29.1402719199613,76.44794,-1,-1,-1,-1,30,34.30805834696292,-9999,31539.959463375,-0.6767730712890625,0.6509246826171875,-0.3171539306640625,31539.949386375,-0.0286352521878483,-1.131073920774282,-0.7187238301162184,-0.001097079366445541,0.007462325505912304,0.01201677229255438,0.001435995101928711,-0.003441214561462402,0.001941949129104614,XArbitraryZVertical,0.3040728112901231,0.4973361954829579,-0.1771177389057408,-0.7929853652089831,-0.681047260761261,0.6584246754646301,-0.3203928768634796,0,0,0,-1,-1,31535.58748875,unknown,2,2025-04-22T12:53:12.898+03:00,2025-04-21T17:08:51.449+03:00,7380,0.9939646,0,0,6149.357,5,20,2025-04-22T12:52:31.625+03:00,767008395.5673326,0,-22.57999,100.4731,1,0.75,2025-04-22T12:48:51.593+03:00,81,1.35,2025-04-22T09:54:17.825+03:00,0.02225348692287972,0
2025-04-22T12:53:17.285+03:00,1745315597.046434,40.9522316398238,29.1402719199613,76.44794,-1,-1,-1,-1,30,34.30805834696292,-9999,31539.969539375,-0.67840576171875,0.65338134765625,-0.315582275390625,31539.959463375,-0.02859046188644027,-1.130969822767037,-0.7188411102646096,-0.003367424244061112,0.009468218311667442,0.01174299977719784,0.001088559627532959,-0.003575325012207031,0.002285122871398926,XArbitraryZVertical,0.3041170931100827,0.4972900393961147,-0.1771493778440481,-0.7929901643018302,-0.6809439063072205,0.6585129499435425,-0.3204308152198792,0,0,0,-1,-1,31535.58748875,unknown,2,2025-04-22T12:53:12.898+03:00,2025-04-21T17:08:51.449+03:00,7380,0.9939646,0,0,6149.357,5,20,2025-04-22T12:52:31.625+03:00,767008395.5673326,0,-22.57999,100.4731,1,0.75,2025-04-22T12:48:51.593+03:00,81,1.35,2025-04-22T09:54:17.825+03:00,0.02225348692287972,0
2025-04-22T12:53:17.295+03:00,1745315597.046434,40.9522316398238,29.1402719199613,76.44794,-1,-1,-1,-1,30,34.30805834696292,-9999,31539.979616375,-0.6810760498046875,0.6546478271484375,-0.3158416748046875,31539.969539375,-0.02854819132286118,-1.130840530737974,-0.7189525175817419,-0.002343172673135996,0.01202911324799061,0.009524852968752384,0.004368245601654053,-0.00736701488494873,0.003303229808807373,XArbitraryZVertical,0.3041619070491864,0.4972340742616326,-0.1771746423725861,-0.7930024393947471,-0.6808361411094666,0.6585968136787415,-0.3204876184463501,0,0,0,-1,-1,31535.58748875,unknown,2,2025-04-22T12:53:12.898+03:00,2025-04-21T17:08:51.449+03:00,7380,0.9939646,0,0,6149.357,5,20,2025-04-22T12:52:31.625+03:00,767008395.5673326,0,-22.57999,100.4731,1,0.75,2025-04-22T12:48:51.593+03:00,81,1.35,2025-04-22T09:54:17.825+03:00,0.02225348692287972,0
2025-04-22T12:53:17.305+03:00,1745315597.046434,40.9522316398238,29.1402719199613,76.44794,-1,-1,-1,-1,30,34.30805834696292,-9999,31539.989693375,-0.680389404296875,0.6583404541015625,-0.3158416748046875,31539.979616375,-0.02849641312753238,-1.130699355339609,-0.7190518857513669,-0.001415327191352844,0.009851180016994476,0.0137909697368741,0.001105189323425293,-0.004954695701599121,0.004393786191940308,XArbitraryZVertical,0.304200681067559,0.4971760576440338,-0.1771988445172416,-0.7930184942741314,-0.6807315945625305,0.6586715579032898,-0.3205558359622955,0,0,0,-1,-1,31535.58748875,unknown,2,2025-04-22T12:53:12.898+03:00,2025-04-21T17:08:51.449+03:00,7380,0.9939646,0,0,6149.357,5,20,2025-04-22T12:52:31.625+03:00,767008395.5673326,0,-22.57999,100.4731,1,0.75,2025-04-22T12:48:51.593+03:00,81,1.35,2025-04-22T09:54:17.825+03:00,0.02225348692287972,0
2025-04-22T12:53:17.315+03:00,1745315597.046434,40.9522316398238,29.1402719199613,76.44794,-1,-1,-1,-1,30,34.30805834696292,-9999,31539.999769375,-0.6807403564453125,0.657440185546875,-0.32025146484375,31539.989693375,-0.02844234444673698,-1.130548105399971,-0.7191672816458049,-8.854037150740623e-05,0.01436151005327702,0.01309987995773554,-0.000736236572265625,-0.002981483936309814,0.005379855632781982,XArbitraryZVertical,0.3042460783456348,0.4971127710266838,-0.1772264146515215,-0.793034663667704,-0.6806144118309021,0.6587584018707275,-0.320626437664032,0,0,0,-1,-1,31535.58748875,unknown,2,2025-04-22T12:53:12.898+03:00,2025-04-21T17:08:51.449+03:00,7380,0.9939646,0,0,6149.357,5,20,2025-04-22T12:52:31.625+03:00,767008395.5673326,0,-22.57999,100.4731,1,0.75,2025-04-22T12:48:51.593+03:00,81,1.35,2025-04-22T09:54:17.825+03:00,0.02225348692287972,0
2025-04-22T12:53:17.325+03:00,1745315597.046434,40.9522316398238,29.1402719199613,76.44794,-1,-1,-1,-1,30,34.30805834696292,-9999,31540.009846375,-0.6806640625,0.6563568115234375,-0.3175201416015625,31539.999769375,-0.02836579566643626,-1.130362361094161,-0.7192674483454807,0.002916570520028472,0.01390690915286541,0.009884778410196304,0.0003957152366638184,-0.0002186894416809082,0.004181206226348877,XArbitraryZVertical,0.3042829643671532,0.4970407638246695,-0.1772538293840495,-0.7930595162869613,-0.6804952025413513,0.6588337421417236,-0.3207247257232666,0,0,0,-1,-1,31535.58748875,unknown,2,2025-04-22T12:53:12.898+03:00,2025-04-21T17:08:51.449+03:00,7380,0.9939646,0,0,6149.357,5,20,2025-04-22T12:52:31.625+03:00,767008395.5673326,0,-22.57999,100.4731,1,0.75,2025-04-22T12:48:51.593+03:00,81,1.35,2025-04-22T09:54:17.825+03:00,0.02225348692287972,0
2025-04-22T12:53:17.335+03:00,1745315597.046434,40.9522316398238,29.1402719199613,76.44794,-1,-1,-1,-1,30,34.30805834696292,-9999,31540.019923375,-0.6793060302734375,0.6542205810546875,-0.3149261474609375,31540.009846375,-0.02830431749943391,-1.130186020281558,-0.7193575096422593,0.0006347741582430899,0.01412475481629372,0.008037609979510307,-0.001530349254608154,-0.001507163047790527,0.0004153847694396973,XArbitraryZVertical,0.3043187888960587,0.4969712021159431,-0.1772741387660711,-0.7930848207493578,-0.6803849339485168,0.6589015126228333,-0.3208194077014923,0,0,0,-1,-1,31535.58748875,unknown,2,2025-04-22T12:53:12.898+03:00,2025-04-21T17:08:51.449+03:00,7380,0.9939646,0,0,6149.357,5,20,2025-04-22T12:52:31.625+03:00,767008395.5673326,0,-22.57999,100.4731,1,0.75,2025-04-22T12:48:51.593+03:00,81,1.35,2025-04-22T09:54:17.825+03:00,0.02225348692287972,0
2025-04-22T12:53:17.345+03:00,1745315597.046434,40.9522316398238,29.1402719199613,76.44794,-1,-1,-1,-1,30,34.30805834696292,-9999,31540.029999375,-0.6817474365234375,0.6539459228515625,-0.3170928955078125,31540.019923375,-0.028268005051681,-1.130015785229783,-0.7194526942877661,-0.003160629887133837,0.01497070863842964,0.009671126492321491,-0.0003142356872558594,-0.003058850765228271,0.004380166530609131,XArbitraryZVertical,0.3043623548644669,0.4968997300499558,-0.1772867066617108,-0.7931100291894576,-0.6802735328674316,0.6589730978012085,-0.3209084272384644,0,0,0,-1,-1,31535.58748875,unknown,2,2025-04-22T12:53:12.898+03:00,2025-04-21T17:08:51.449+03:00,7380,0.9939646,0,0,6149.357,5,20,2025-04-22T12:52:31.625+03:00,767008395.5673326,0,-22.57999,100.4731,1,0.75,2025-04-22T12:48:51.593+03:00,81,1.35,2025-04-22T09:54:17.825+03:00,0.02225348692287972,0
2025-04-22T12:53:17.356+03:00,1745315597.046434,40.9522316398238,29.1402719199613,76.44794,-1,-1,-1,-1,30,34.30805834696292,-9999,31540.040076375,-0.68035888671875,0.656158447265625,-0.3167877197265625,31540.029999375,-0.02824198890673248,-1.129832623565316,-0.7195322851935702,6.712137837894261e-05,0.01677633076906204,0.00763300945982337,0.0008003115653991699,-0.005026102066040039,0.005581021308898926,XArbitraryZVertical,0.3044034691159651,0.4968230966462858,-0.1772892249965469,-0.793141758639258,-0.6801673769950867,0.659032940864563,-0.3210106790065765,0,0,0,-1,-1,31535.58748875,unknown,2,2025-04-22T12:53:12.898+03:00,2025-04-21T17:08:51.449+03:00,7380,0.9939646,0,0,6149.357,5,20,2025-04-22T12:52:31.625+03:00,767008395.5673326,0,-22.57999,100.4731,1,0.75,2025-04-22T12:48:51.593+03:00,81,1.35,2025-04-22T09:54:17.825+03:00,0.02225348692287972,0
2025-04-22T12:53:17.365+03:00,1745315597.046434,40.9522316398238,29.1402719199613,76.44794,-1,-1,-1,-1,30,34.30805834696292,-9999,31540.050152375,-0.6741180419921875,0.6589508056640625,-0.316741943359375,31540.040076375,-0.02823619818503053,-1.129665298704911,-0.7195922740015165,-0.004990687593817711,0.01558143831789494,0.007521989289671183,-0.002295136451721191,-0.00482708215713501,0.003633260726928711,XArbitraryZVertical,0.3044404941768262,0.4967516342923601,-0.1772812075686304,-0.7931740955780727,-0.6800779104232788,0.659078061580658,-0.3211075961589813,0,0,0,-1,-1,31535.58748875,unknown,2,2025-04-22T12:53:12.898+03:00,2025-04-21T17:08:51.449+03:00,7380,0.9939646,0,0,6149.357,5,20,2025-04-22T12:52:31.625+03:00,767008395.5673326,0,-22.57999,100.4731,1,0.75,2025-04-22T12:48:51.593+03:00,81,1.35,2025-04-22T09:54:17.825+03:00,0.02225348692287972,0
2025-04-22T12:53:17.375+03:00,1745315597.046434,40.9522316398238,29.1402719199613,76.44794,-1,-1,-1,-1,30,34.30805834696292,-9999,31540.060229375,-0.6725006103515625,0.6551055908203125,-0.31634521484375,31540.050152375,-0.02824076755587377,-1.129521084043586,-0.719678668971229,-0.004312912933528423,0.01596253551542759,0.009236797690391541,-0.0002262592315673828,-0.002175986766815186,0.004714071750640869,XArbitraryZVertical,0.3044884508993614,0.4966851286807354,-0.1772792764901015,-0.7931977345721145,-0.6799800395965576,0.6591430306434631,-0.3211813271045685,0,0,0,-1,-1,31535.58748875,unknown,2,2025-04-22T12:53:12.898+03:00,2025-04-21T17:08:51.449+03:00,7380,0.9939646,0,0,6149.357,5,20,2025-04-22T12:52:31.625+03:00,767008395.5673326,0,-22.57999,100.4731,1,0.75,2025-04-22T12:48:51.593+03:00,81,1.35,2025-04-22T09:54:17.825+03:00,0.02225348692287972,0
2025-04-22T12:53:17.386+03:00,1745315597.046434,40.9522316398238,29.1402719199613,76.44794,-1,-1,-1,-1,30,34.30805834696292,-9999,31540.070306375,-0.6740264892578125,0.6552276611328125,-0.317474365234375,31540.060229375,-0.02824125474032746,-1.129377280908423,-0.7197604003816007,-0.002644375897943974,0.01320649683475494,0.009307937696576118,0.006423294544219971,-0.001047253608703613,0.004132747650146484,XArbitraryZVertical,0.3045335113261637,0.4966198577468946,-0.1772778129092537,-0.793221662402903,-0.67988520860672,0.6592045426368713,-0.3212561011314392,0,0,0,-1,-1,31535.58748875,unknown,2,2025-04-22T12:53:12.898+03:00,2025-04-21T17:08:51.449+03:00,7380,0.9939646,0,0,6149.357,5,20,2025-04-22T12:52:31.625+03:00,767008395.5673326,0,-22.57999,100.4731,1,0.75,2025-04-22T12:48:51.593+03:00,81,1.35,2025-04-22T09:54:17.825+03:00,0.02225348692287972,0
2025-04-22T12:53:17.396+03:00,1745315597.046434,40.9522316398238,29.1402719199613,76.44794,-1,-1,-1,-1,30,34.30805834696292,-9999,31540.080382375,-0.67352294921875,0.6576385498046875,-0.32098388671875,31540.070306375,-0.02822539127508115,-1.129246312788153,-0.7198564586072228,-0.0008257033186964691,0.01265176013112068,0.01212556194514036,0.006873250007629395,-0.005422413349151611,0.005445927381515503,XArbitraryZVertical,0.3045790193434166,0.4965607355912897,-0.1772883996192586,-0.7932388690552824,-0.6797859072685242,0.6592767238616943,-0.321318119764328,0,0,0,-1,-1,31535.58748875,unknown,2,2025-04-22T12:53:12.898+03:00,2025-04-21T17:08:51.449+03:00,7380,0.9939646,0,0,6149.357,5,20,2025-04-22T12:52:31.625+03:00,767008395.5673326,0,-22.57999,100.4731,1,0.75,2025-04-22T12:48:51.593+03:00,81,1.35,2025-04-22T09:54:17.825+03:00,0.02225348692287972,0
2025-04-22T12:53:17.406+03:00,1745315597.046434,40.9522316398238,29.1402719199613,76.44794,-1,-1,-1,-1,30,34.30805834696292,-9999,31540.090459375,-0.6797637939453125,0.655914306640625,-0.3194427490234375,31540.080382375,-0.0281615629783376,-1.129068457744013,-0.7199519125462748,0.0009871104266494513,0.01692426949739456,0.009412466548383236,0.006438732147216797,-0.003556370735168457,0.003296852111816406,XArbitraryZVertical,0.3046165586901002,0.4964904069842851,-0.1773107667765341,-0.7932633920902595,-0.6796717643737793,0.6593485474586487,-0.321412056684494,0,0,0,-1,-1,31535.58748875,unknown,2,2025-04-22T12:53:12.898+03:00,2025-04-21T17:08:51.449+03:00,7380,0.9939646,0,0,6149.357,5,20,2025-04-22T12:52:31.625+03:00,767008395.5673326,0,-22.57999,100.4731,1,0.75,2025-04-22T12:48:51.593+03:00,81,1.35,2025-04-22T09:54:17.825+03:00,0.02225348692287972,0
2025-04-22T12:53:17.416+03:00,1745315597.046434,40.9522316398238,29.1402719199613,76.44794,-1,-1,-1,-1,30,34.30805834696292,-9999,31540.100536375,-0.6824493408203125,0.6573638916015625,-0.3155975341796875,31540.090459375,-0.02811583743339058,-1.128867484492762,-0.7199968092209448,0.001191907445900142,0.01756103150546551,0.008126160129904747,0.006072700023651123,-0.001835405826568604,0.0003385245800018311,XArbitraryZVertical,0.304640718900481,0.49641318363282,-0.1773096383835215,-0.7933026660210578,-0.6795803308486938,0.6593822836875916,-0.3215359747409821,0,0,0,-1,-1,31535.58748875,unknown,2,2025-04-22T12:53:12.898+03:00,2025-04-21T17:08:51.449+03:00,7380,0.9939646,0,0,6149.357,5,20,2025-04-22T12:52:31.625+03:00,767008395.5673326,0,-22.57999,100.4731,1,0.75,2025-04-22T12:48:51.593+03:00,81,1.35,2025-04-22T09:54:17.825+03:00,0.02225348692287972,0
2025-04-22T12:53:17.426+03:00,1745315597.046434,40.9522316398238,29.1402719199613,76.44794,-1,-1,-1,-1,30,34.30805834696292,-9999,31540.110612375,-0.6795196533203125,0.657318115234375,-0.315673828125,31540.100536375,-0.0280678408264824,-1.128674126884174,-0.7200520615161558,0.0003126648371107876,0.01569721847772598,0.006140174344182014,-0.000965118408203125,-0.003967344760894775,0.002895772457122803,XArbitraryZVertical,0.3046677084305737,0.4963382703197166,-0.177313133480916,-0.7933384633382535,-0.6794853210449219,0.659423828125,-0.321651816368103,0,0,0,-1,-1,31535.58748875,unknown,2,2025-04-22T12:53:12.898+03:00,2025-04-21T17:08:51.449+03:00,7380,0.9939646,0,0,6149.357,5,20,2025-04-22T12:52:31.625+03:00,767008395.5673326,0,-22.57999,100.4731,1,0.75,2025-04-22T12:48:51.593+03:00,81,1.35,2025-04-22T09:54:17.825+03:00,0.02225348692287972,0
2025-04-22T12:53:17.436+03:00,1745315597.046434,40.9522316398238,29.1402719199613,76.44794,-1,-1,-1,-1,30,34.30805834696292,-9999,31540.120689375,-0.6785888671875,0.65472412109375,-0.31689453125,31540.110612375,-0.0280784968516869,-1.128550444346798,-0.7201275753870832,-0.005322317592799664,0.01371396146714687,0.006623271852731705,-0.002163827419281006,-0.001796305179595947,0.006345927715301514,XArbitraryZVertical,0.3047110794100871,0.4962800619333957,-0.1773091400733922,-0.7933590688830279,-0.6794004440307617,0.6594805717468262,-0.3217145204544067,0,0,0,-1,-1,31535.58748875,unknown,2,2025-04-22T12:53:12.898+03:00,2025-04-21T17:08:51.449+03:00,7380,0.9939646,0,0,6149.357,5,20,2025-04-22T12:52:31.625+03:00,767008395.5673326,0,-22.57999,100.4731,1,0.75,2025-04-22T12:48:51.593+03:00,81,1.35,2025-04-22T09:54:17.825+03:00,0.02225348692287972,0
2025-04-22T12:53:17.446+03:00,1745315597.046434,40.9522316398238,29.1402719199613,76.44794,-1,-1,-1,-1,30,34.30805834696292,-9999,31540.130766375,-0.680511474609375,0.6571044921875,-0.31756591796875,31540.120689375,-0.02809550302515969,-1.12843158474336,-0.7201723318445202,-0.001930715399794281,0.01346342638134956,0.002739351009950042,0.0001363754272460938,-0.002715051174163818,0.005941003561019897,XArbitraryZVertical,0.3047434751415751,0.4962258606599888,-0.1772955864620143,-0.793383536852196,-0.6793355345726013,0.6595142483711243,-0.3217826187610626,0,0,0,-1,-1,31535.58748875,unknown,2,2025-04-22T12:53:12.898+03:00,2025-04-21T17:08:51.449+03:00,7380,0.9939646,0,0,6149.357,5,20,2025-04-22T12:52:31.625+03:00,767008395.5673326,0,-22.57999,100.4731,1,0.75,2025-04-22T12:48:51.593+03:00,81,1.35,2025-04-22T09:54:17.825+03:00,0.02225348692287972,0
2025-04-22T12:53:17.456+03:00,1745315597.046434,40.9522316398238,29.1402719199613,76.44794,-1,-1,-1,-1,30,34.30805834696292,-9999,31540.140842375,-0.678924560546875,0.6600189208984375,-0.3197021484375,31540.130766375,-0.02813335063463343,-1.128321441688611,-0.7202334210586286,-0.005642629228532314,0.01348819397389889,0.008074727840721607,0.000186622142791748,-0.004942893981933594,0.005601882934570312,XArbitraryZVertical,0.304786691984117,0.4961702933127864,-0.1772791730588924,-0.7934054134015286,-0.679263710975647,0.6595601439476013,-0.321840226650238,0,0,0,-1,-1,31535.58748875,unknown,2,2025-04-22T12:53:12.898+03:00,2025-04-21T17:08:51.449+03:00,7380,0.9939646,0,0,6149.357,5,20,2025-04-22T12:52:31.625+03:00,767008395.5673326,0,-22.57999,100.4731,1,0.75,2025-04-22T12:48:51.593+03:00,81,1.35,2025-04-22T09:54:17.825+03:00,0.02225348692287972,0
2025-04-22T12:53:17.466+03:00,1745315597.046434,40.9522316398238,29.1402719199613,76.44794,-1,-1,-1,-1,30,34.30805834696292,-9999,31540.150919375,-0.6769866943359375,0.658233642578125,-0.3215484619140625,31540.140842375,-0.02816972421353586,-1.128205693748707,-0.7203329345565133,-0.006429926492273808,0.01545646786689758,0.005853085778653622,-0.001420557498931885,-0.002774655818939209,0.003516137599945068,XArbitraryZVertical,0.3048451865416394,0.4961089003701216,-0.1772721994473389,-0.793422902865616,-0.6791671514511108,0.6596349477767944,-0.3218907415866852,0,0,0,-1,-1,31535.58748875,unknown,2,2025-04-22T12:53:12.898+03:00,2025-04-21T17:08:51.449+03:00,7380,0.9939646,0,0,6149.357,5,20,2025-04-22T12:52:31.625+03:00,767008395.5673326,0,-22.57999,100.4731,1,0.75,2025-04-22T12:48:51.593+03:00,81,1.35,2025-04-22T09:54:17.825+03:00,0.02225348692287972,0
2025-04-22T12:53:17.476+03:00,1745315597.046434,40.9522316398238,29.1402719199613,76.44794,-1,-1,-1,-1,30,34.30805834696292,-9999,31540.160995375,-0.6788330078125,0.6599578857421875,-0.3197784423828125,31540.150919375,-0.02817988819501562,-1.128055777802209,-0.7204176052491523,-0.00239150901325047,0.01571373082697392,0.008809461258351803,0.0002353787422180176,0.0001829266548156738,0.001640915870666504,XArbitraryZVertical,0.3048943677579845,0.496039438187882,-0.177266692760797,-0.7934486206971236,-0.679068386554718,0.6596985459327698,-0.3219686150550842,0,0,0,-1,-1,31535.58748875,unknown,2,2025-04-22T12:53:12.898+03:00,2025-04-21T17:08:51.449+03:00,7380,0.9939646,0,0,6149.357,5,20,2025-04-22T12:52:31.625+03:00,767008395.5673326,0,-22.57999,100.4731,1,0.75,2025-04-22T12:48:51.593+03:00,81,1.35,2025-04-22T09:54:17.825+03:00,0.02225348692287972,0
2025-04-22T12:53:17.486+03:00,1745315597.046434,40.9522316398238,29.1402719199613,76.44794,-1,-1,-1,-1,30,34.30805834696292,-9999,31540.171072375,-0.6810150146484375,0.6609954833984375,-0.3185272216796875,31540.160995375,-0.02812235403402097,-1.127845311978748,-0.7204807883578057,0.002795063890516758,0.01657905802130699,0.004615548066794872,0.001625359058380127,-0.002016067504882812,0.001521795988082886,XArbitraryZVertical,0.3049236528022357,0.4959584063778679,-0.1772733648791806,-0.793486532881427,-0.6789629459381104,0.6597460508346558,-0.3220936357975006,0,0,0,-1,-1,31535.58748875,unknown,2,2025-04-22T12:53:12.898+03:00,2025-04-21T17:08:51.449+03:00,7380,0.9939646,0,0,6149.357,5,20,2025-04-22T12:52:31.625+03:00,767008395.5673326,0,-22.57999,100.4731,1,0.75,2025-04-22T12:48:51.593+03:00,81,1.35,2025-04-22T09:54:17.825+03:00,0.02225348692287972,0
2025-04-22T12:53:17.497+03:00,1745315597.046434,40.9522316398238,29.1402719199613,76.44794,-1,-1,-1,-1,30,34.30805834696292,-9999,31540.181149375,-0.6787109375,0.65716552734375,-0.31829833984375,31540.171072375,-0.02806189025023686,-1.127602756699561,-0.720532748476343,0.0001766438945196569,0.02354082837700844,0.007247017230838537,-0.0002079010009765625,0.000950932502746582,0.002129554748535156,XArbitraryZVertical,0.304950624515208,0.4958661887784653,-0.1772734322128646,-0.7935338714241077,-0.6788539290428162,0.6597850918769836,-0.3222436904907227,0,0,0,-1,-1,31535.58748875,unknown,2,2025-04-22T12:53:12.898+03:00,2025-04-21T17:08:51.449+03:00,7380,0.9939646,0,0,6149.357,5,20,2025-04-22T12:52:31.625+03:00,767008395.5673326,0,-22.57999,100.4731,1,0.75,2025-04-22T12:48:51.593+03:00,81,1.35,2025-04-22T09:54:17.825+03:00,0.02225348692287972,0
2025-04-22T12:53:17.506+03:00,1745315597.046434,40.9522316398238,29.1402719199613,76.44794,-1,-1,-1,-1,30,34.30805834696292,-9999,31540.191225375,-0.678436279296875,0.6560516357421875,-0.3180694580078125,31540.181149375,-0.02800651505985665,-1.12735732484634,-0.7205810792758542,0.003462318796664476,0.0206676758825779,0.00780794583261013,-0.00207066535949707,0.0005483627319335938,0.003884613513946533,XArbitraryZVertical,0.3049777082925131,0.495772442851619,-0.1772701907493888,-0.7935827032060584,-0.6787459850311279,0.6598213911056519,-0.3223965764045715,0,0,0,-1,-1,31535.58748875,unknown,2,2025-04-22T12:53:12.898+03:00,2025-04-21T17:08:51.449+03:00,7380,0.9939646,0,0,6149.357,5,20,2025-04-22T12:52:31.625+03:00,767008395.5673326,0,-22.57999,100.4731,1,0.75,2025-04-22T12:48:51.593+03:00,81,1.35,2025-04-22T09:54:17.825+03:00,0.02225348692287972,0
2025-04-22T12:53:17.517+03:00,1745315597.046434,40.9522316398238,29.1402719199613,76.44794,-1,-1,-1,-1,30,34.30805834696292,-9999,31540.201302375,-0.676849365234375,0.6556396484375,-0.3191070556640625,31540.191225375,-0.02794413237168986,-1.127139333578142,-0.7206256855738762,0.004095352254807949,0.01801862940192223,0.006653199438005686,4.500150680541992e-05,-0.003437161445617676,0.004477739334106445,XArbitraryZVertical,0.3049991463433172,0.4956910041932786,-0.1772729330305419,-0.7936247466505741,-0.6786491274833679,0.6598549485206604,-0.3225319087505341,0,0,0,-1,-1,31535.58748875,unknown,2,2025-04-22T12:53:12.898+03:00,2025-04-21T17:08:51.449+03:00,7380,0.9939646,0,0,6149.357,5,20,2025-04-22T12:52:31.625+03:00,767008395.5673326,0,-22.57999,100.4731,1,0.75,2025-04-22T12:48:51.593+03:00,81,1.35,2025-04-22T09:54:17.825+03:00,0.02225348692287972,0
2025-04-22T12:53:17.527+03:00,1745315597.046434,40.9522316398238,29.1402719199613,76.44794,-1,-1,-1,-1,30,34.30805834696292,-9999,31540.211379375,-0.67645263671875,0.6598663330078125,-0.3202362060546875,31540.201302375,-0.02785374617547222,-1.126905157963895,-0.7206731115597658,0.004791635554283857,0.01824140176177025,0.006892018485814333,0.0005057454109191895,-0.003594875335693359,0.004195988178253174,XArbitraryZVertical,0.3050161983545056,0.4956071343762547,-0.1772850368852164,-0.7936678709172308,-0.6785452961921692,0.6598905920982361,-0.3226773738861084,0,0,0,-1,-1,31535.58748875,unknown,2,2025-04-22T12:53:12.898+03:00,2025-04-21T17:08:51.449+03:00,7380,0.9939646,0,0,6149.357,5,20,2025-04-22T12:52:31.625+03:00,767008395.5673326,0,-22.57999,100.4731,1,0.75,2025-04-22T12:48:51.593+03:00,81,1.35,2025-04-22T09:54:17.825+03:00,0.02225348692287972,0
2025-04-22T12:53:17.537+03:00,1745315597.046434,40.9522316398238,29.1402719199613,76.44794,-1,-1,-1,-1,30,34.30805834696292,-9999,31540.221455375,-0.675262451171875,0.66015625,-0.3172607421875,31540.211379375,-0.02779113311216991,-1.126711997976163,-0.7207121331673343,5.706795491278172e-05,0.01303332485258579,0.004434186965227127,0.001106798648834229,-0.003380000591278076,0.003278344869613647,XArbitraryZVertical,0.3050331821565612,0.4955361307340903,-0.1772902333353935,-0.7937045645525997,-0.6784597635269165,0.6599199175834656,-0.3227973878383636,0,0,0,-1,-1,31535.58748875,unknown,2,2025-04-22T12:53:12.898+03:00,2025-04-21T17:08:51.449+03:00,7380,0.9939646,0,0,6149.357,5,20,2025-04-22T12:52:31.625+03:00,767008395.5673326,0,-22.57999,100.4731,1,0.75,2025-04-22T12:48:51.593+03:00,81,1.35,2025-04-22T09:54:17.825+03:00,0.02225348692287972,0
2025-04-22T12:53:17.547+03:00,1745315597.046434,40.9522316398238,29.1402719199613,76.44794,-1,-1,-1,-1,30,34.30805834696292,-9999,31540.231532375,-0.67681884765625,0.657257080078125,-0.317718505859375,31540.221455375,-0.02779982616860767,-1.126614005721887,-0.7207534984962953,-0.004096597898751497,0.01157104969024658,0.003650318365544081,0.00213390588760376,-0.0003135800361633301,0.002814352512359619,XArbitraryZVertical,0.3050603340070709,0.4954917998195604,-0.1772822693605644,-0.793723558572887,-0.6784034371376038,0.6599509716033936,-0.3228521347045898,0,0,0,-1,-1,31535.58748875,unknown,2,2025-04-22T12:53:12.898+03:00,2025-04-21T17:08:51.449+03:00,7380,0.9939646,0,0,6149.357,5,20,2025-04-22T12:52:31.625+03:00,767008395.5673326,0,-22.57999,100.4731,1,0.75,2025-04-22T12:48:51.593+03:00,81,1.35,2025-04-22T09:54:17.825+03:00,0.02225348692287972,0
2025-04-22T12:53:17.557+03:00,1745315597.046434,40.9522316398238,29.1402719199613,76.44794,-1,-1,-1,-1,30,34.30805834696292,-9999,31540.241609375,-0.67730712890625,0.660736083984375,-0.318511962890625,31540.231532375,-0.02780277496726469,-1.12649276268224,-0.7207926978243667,-0.000974307709839195,0.01279344037175179,0.003210897091776133,0.002925872802734375,-0.0007549524307250977,0.005555719137191772,XArbitraryZVertical,0.3050872668295729,0.495439328452455,-0.1772724819753557,-0.7937481391689784,-0.6783409118652344,0.6599804162979126,-0.3229232728481293,0,0,0,-1,-1,31535.58748875,unknown,2,2025-04-22T12:53:12.898+03:00,2025-04-21T17:08:51.449+03:00,7380,0.9939646,0,0,6149.357,5,20,2025-04-22T12:52:31.625+03:00,767008395.5673326,0,-22.57999,100.4731,1,0.75,2025-04-22T12:48:51.593+03:00,81,1.35,2025-04-22T09:54:17.825+03:00,0.02225348692287972,0
2025-04-22T12:53:17.567+03:00,1745315597.046434,40.9522316398238,29.1402719199613,76.44794,-1,-1,-1,-1,30,34.30805834696292,-9999,31540.251685375,-0.6745452880859375,0.65753173828125,-0.31787109375,31540.241609375,-0.02779080759782024,-1.126384942994776,-0.7208071294607591,-0.0004745656042359769,0.009478203952312469,0.0005629826337099075,0.0007767677307128906,-0.002200126647949219,0.005792587995529175,XArbitraryZVertical,0.3050995425291717,0.4953969159087739,-0.1772643991727547,-0.7937717381699093,-0.6782975792884827,0.6599912643432617,-0.3229923248291016,0,0,0,-1,-1,31535.58748875,unknown,2,2025-04-22T12:53:12.898+03:00,2025-04-21T17:08:51.449+03:00,7380,0.9939646,0,0,6149.357,5,20,2025-04-22T12:52:31.625+03:00,767008395.5673326,0,-22.57999,100.4731,1,0.75,2025-04-22T12:48:51.593+03:00,81,1.35,2025-04-22T09:54:17.825+03:00,0.02225348692287972,0
2025-04-22T12:53:17.577+03:00,1745315597.046434,40.9522316398238,29.1402719199613,76.44794,-1,-1,-1,-1,30,34.30805834696292,-9999,31540.261762375,-0.6740875244140625,0.6542510986328125,-0.3193359375,31540.251685375,-0.02782820201898601,-1.126316222983068,-0.7208438077731723,-0.001045014709234238,0.009708302095532417,0.003006699262186885,0.001022517681121826,0.001220703125,0.004730135202407837,XArbitraryZVertical,0.3051293870115447,0.4953603256798269,-0.1772484062161724,-0.7937864735924993,-0.6782532334327698,0.6600188016891479,-0.3230284154415131,0,0,0,-1,-1,31535.58748875,unknown,2,2025-04-22T12:53:12.898+03:00,2025-04-21T17:08:51.449+03:00,7380,0.9939646,0,0,6149.357,5,20,2025-04-22T12:52:31.625+03:00,767008395.5673326,0,-22.57999,100.4731,1,0.75,2025-04-22T12:48:51.593+03:00,81,1.35,2025-04-22T09:54:17.825+03:00,0.02225348692287972,0
2025-04-22T12:53:17.587+03:00,1745315597.046434,40.9522316398238,29.1402719199613,76.44794,-1,-1,-1,-1,30,34.30805834696292,-9999,31540.271839375,-0.675048828125,0.655303955078125,-0.3247222900390625,31540.261762375,-0.02785217879754804,-1.126255884080288,-0.7208675037194388,-0.003143186215311289,0.006015961989760399,0.001587034668773413,0.004422247409820557,-0.004152894020080566,0.004764378070831299,XArbitraryZVertical,0.3051499958707676,0.4953303306849188,-0.1772355901141617,-0.7938002583592626,-0.6782197952270508,0.6600366234779358,-0.3230626881122589,0,0,0,-1,-1,31535.58748875,unknown,2,2025-04-22T12:53:12.898+03:00,2025-04-21T17:08:51.449+03:00,7380,0.9939646,0,0,6149.357,5,20,2025-04-22T12:52:31.625+03:00,767008395.5673326,0,-22.57999,100.4731,1,0.75,2025-04-22T12:48:51.593+03:00,81,1.35,2025-04-22T09:54:17.825+03:00,0.02225348692287972,0
2025-04-22T12:53:17.597+03:00,1745315597.046434,40.9522316398238,29.1402719199613,76.44794,-1,-1,-1,-1,30,34.30805834696292,-9999,31540.281915375,-0.6749420166015625,0.65380859375,-0.3245697021484375,31540.271839375,-0.0279149440691274,-1.126276579867997,-0.7209096096357859,-0.007334202993661165,0.002028943737968802,0.001235497416928411,0.003656148910522461,-0.005939245223999023,0.002800494432449341,XArbitraryZVertical,0.3051803005669884,0.4953247619586578,-0.1772244168896803,-0.7937946251940017,-0.67820143699646,0.6600682735443115,-0.3230367302894592,0,0,0,-1,-1,31535.58748875,unknown,2,2025-04-22T12:53:12.898+03:00,2025-04-21T17:08:51.449+03:00,7380,0.9939646,0,0,6149.357,5,20,2025-04-22T12:52:31.625+03:00,767008395.5673326,0,-22.57999,100.4731,1,0.75,2025-04-22T12:48:51.593+03:00,81,1.35,2025-04-22T09:54:17.825+03:00,0.02225348692287972,0
2025-04-22T12:53:17.607+03:00,1745315597.046434,40.9522316398238,29.1402719199613,76.44794,-1,-1,-1,-1,30,34.30805834696292,-9999,31540.291992375,-0.674774169921875,0.652984619140625,-0.3184356689453125,31540.281915375,-0.02801556474489815,-1.126318981142182,-0.7209781731010173,-0.00898556225001812,0.00345859513618052,0.00527887511998415,0.002911746501922607,-0.004449725151062012,-0.00202372670173645,XArbitraryZVertical,0.3052285160888261,0.4953194314259569,-0.177208283127741,-0.7937828789102309,-0.6781741380691528,0.6601197719573975,-0.3229884207248688,0,0,0,-1,-1,31535.58748875,unknown,2,2025-04-22T12:53:12.898+03:00,2025-04-21T17:08:51.449+03:00,7380,0.9939646,0,0,6149.357,5,20,2025-04-22T12:52:31.625+03:00,767008395.5673326,0,-22.57999,100.4731,1,0.75,2025-04-22T12:48:51.593+03:00,81,1.35,2025-04-22T09:54:17.825+03:00,0.02225348692287972,0
2025-04-22T12:53:17.617+03:00,1745315597.046434,40.9522316398238,29.1402719199613,76.44794,-1,-1,-1,-1,30,34.30805834696292,-9999,31540.302068375,-0.673980712890625,0.6566314697265625,-0.3180084228515625,31540.291992375,-0.02815334907035091,-1.126410244642671,-0.72108347354348,-0.01562242675572634,0.001385324168950319,0.006906332448124886,0.002649605274200439,-0.00756525993347168,-0.001276254653930664,XArbitraryZVertical,0.3052960608639218,0.4953241133281078,-0.1771940270798293,-0.7937572078829878,-0.6781408786773682,0.6601988673210144,-0.3228966891765594,0,0,0,-1,-1,31535.58748875,unknown,2,2025-04-22T12:53:12.898+03:00,2025-04-21T17:08:51.449+03:00,7380,0.9939646,0,0,6149.357,5,20,2025-04-22T12:52:31.625+03:00,767008395.5673326,0,-22.57999,100.4731,1,0.75,2025-04-22T12:48:51.593+03:00,81,1.35,2025-04-22T09:54:17.825+03:00,0.02225348692287972,0
2025-04-22T12:53:17.628+03:00,1745315597.046434,40.9522316398238,29.1402719199613,76.44794,-1,-1,-1,-1,30,34.30805834696292,-9999,31540.312145375,-0.675048828125,0.6585845947265625,-0.3173065185546875,31540.302068375,-0.02828536417608218,-1.126477873043636,-0.721212118659227,-0.01248262543231249,0.00480688689276576,0.005118119530379772,0.00340348482131958,-0.007555067539215088,0.004424452781677246,XArbitraryZVertical,0.3053734741224562,0.4953179598827686,-0.1771843478794898,-0.7937334555167161,-0.6780860424041748,0.6602954864501953,-0.3228143155574799,0,0,0,-1,-1,31535.58748875,unknown,2,2025-04-22T12:53:12.898+03:00,2025-04-21T17:08:51.449+03:00,7380,0.9939646,0,0,6149.357,5,20,2025-04-22T12:52:31.625+03:00,767008395.5673326,0,-22.57999,100.4731,1,0.75,2025-04-22T12:48:51.593+03:00,81,1.35,2025-04-22T09:54:17.825+03:00,0.02225348692287972,0
2025-04-22T12:53:17.637+03:00,1745315597.046434,40.9522316398238,29.1402719199613,76.44794,-1,-1,-1,-1,30,34.30805834696292,-9999,31540.322222375,-0.673736572265625,0.660064697265625,-0.3159637451171875,31540.312145375,-0.02840436692456907,-1.126523319393101,-0.7213308897564559,-0.01262617018073797,0.005305164493620396,0.007518959231674671,0.004079699516296387,-0.003997385501861572,0.004832923412322998,XArbitraryZVertical,0.3054457407637423,0.4953059732827723,-0.1771739839213227,-0.7937154270692104,-0.6780298948287964,0.6603846549987793,-0.3227497935295105,0,0,0,-1,-1,31535.58748875,unknown,2,2025-04-22T12:53:12.898+03:00,2025-04-21T17:08:51.449+03:00,7380,0.9939646,0,0,6149.357,5,20,2025-04-22T12:52:31.625+03:00,767008395.5673326,0,-22.57999,100.4731,1,0.75,2025-04-22T12:48:51.593+03:00,81,1.35,2025-04-22T09:54:17.825+03:00,0.02225348692287972,0
2025-04-22T12:53:17.648+03:00,1745315597.046434,40.9522316398238,29.1402719199613,76.44794,-1,-1,-1,-1,30,34.30805834696292,-9999,31540.332298375,-0.6696929931640625,0.6597747802734375,-0.314697265625,31540.322222375,-0.02846899715206787,-1.126521084322023,-0.7214545322518128,-0.005320919677615166,0.005142644979059696,0.01031098421663046,0.002586305141448975,-0.001526772975921631,0.005211412906646729,XArbitraryZVertical,0.305510671214356,0.4952828568273442,-0.1771791071843441,-0.7937037830257652,-0.6779555678367615,0.6604775190353394,-0.322716236114502,0,0,0,-1,-1,31535.58748875,unknown,2,2025-04-22T12:53:12.898+03:00,2025-04-21T17:08:51.449+03:00,7380,0.9939646,0,0,6149.357,5,20,2025-04-22T12:52:31.625+03:00,767008395.5673326,0,-22.57999,100.4731,1,0.75,2025-04-22T12:48:51.593+03:00,81,1.35,2025-04-22T09:54:17.825+03:00,0.02225348692287972,0
2025-04-22T12:53:17.658+03:00,1745315597.046434,40.9522316398238,29.1402719199613,76.44794,-1,-1,-1,-1,30,34.30805834696292,-9999,31540.342375375,-0.6699676513671875,0.6558990478515625,-0.317230224609375,31540.332298375,-0.02848278241800549,-1.126481196727682,-0.7215887557106712,-0.007533207535743713,0.004526122938841581,0.01110753510147333,0.004522740840911865,2.038478851318359e-05,0.006985604763031006,XArbitraryZVertical,0.3055705276840976,0.495251521716803,-0.1772013594016325,-0.7936953095768683,-0.6778625845909119,0.6605782508850098,-0.3227051794528961,0,0,0,-1,-1,31535.58748875,unknown,2,2025-04-22T12:53:12.898+03:00,2025-04-21T17:08:51.449+03:00,7380,0.9939646,0,0,6149.357,5,20,2025-04-22T12:52:31.625+03:00,767008395.5673326,0,-22.57999,100.4731,1,0.75,2025-04-22T12:48:51.593+03:00,81,1.35,2025-04-22T09:54:17.825+03:00,0.02225348692287972,0
2025-04-22T12:53:17.668+03:00,1745315597.046434,40.9522316398238,29.1402719199613,76.44794,-1,-1,-1,-1,30,34.30805834696292,-9999,31540.352452375,-0.6715240478515625,0.6556243896484375,-0.3228302001953125,31540.342375375,-0.02850898363045184,-1.126450870366909,-0.7217256047501687,-0.009765002876520157,0.004316199570894241,0.01264947280287743,0.007971346378326416,-0.001226723194122314,0.007470786571502686,XArbitraryZVertical,0.3056336476725445,0.4952218218113087,-0.1772208105483773,-0.7936851644211741,-0.6777711510658264,0.6606810092926025,-0.3226868510246277,0,0,0,-1,-1,31535.58748875,unknown,2,2025-04-22T12:53:12.898+03:00,2025-04-21T17:08:51.449+03:00,7380,0.9939646,0,0,6149.357,5,20,2025-04-22T12:52:31.625+03:00,767008395.5673326,0,-22.57999,100.4731,1,0.75,2025-04-22T12:48:51.593+03:00,81,1.35,2025-04-22T09:54:17.825+03:00,0.02225348692287972,0
2025-04-22T12:53:17.678+03:00,1745315597.046434,40.9522316398238,29.1402719199613,76.44794,-1,-1,-1,-1,30,34.30805834696292,-9999,31540.362528375,-0.6703033447265625,0.6607208251953125,-0.3229522705078125,31540.352452375,-0.02856166374839889,-1.126465450039415,-0.7218752307505663,-0.01238368917256594,3.836397081613541e-05,0.01168514229357243,0.006666064262390137,-0.005519986152648926,0.004214078187942505,XArbitraryZVertical,0.3057043856140555,0.4952046241620154,-0.1772398541839288,-0.7936643258769237,-0.6776865124702454,0.6607933044433594,-0.3226344287395477,0,0,0,-1,-1,31535.58748875,unknown,2,2025-04-22T12:53:12.898+03:00,2025-04-21T17:08:51.449+03:00,7380,0.9939646,0,0,6149.357,5,20,2025-04-22T12:52:31.625+03:00,767008395.5673326,0,-22.57999,100.4731,1,0.75,2025-04-22T12:48:51.593+03:00,81,1.35,2025-04-22T09:54:17.825+03:00,0.02225348692287972,0
2025-04-22T12:53:17.688+03:00,1745315597.046434,40.9522316398238,29.1402719199613,76.44794,-1,-1,-1,-1,30,34.30805834696292,-9999,31540.372605375,-0.6746063232421875,0.658599853515625,-0.3233795166015625,31540.362528375,-0.02866587506543687,-1.126551686900541,-0.7220075385573456,-0.01705274172127247,-0.006184644531458616,0.007808645255863667,0.006111443042755127,-0.005207300186157227,-0.001314073801040649,XArbitraryZVertical,0.3057746874545514,0.4952096848931791,-0.1772449936111986,-0.793632969405402,-0.6776353716850281,0.6608926057815552,-0.3225384056568146,0,0,0,-1,-1,31535.58748875,unknown,2,2025-04-22T12:53:12.898+03:00,2025-04-21T17:08:51.449+03:00,7380,0.9939646,0,0,6149.357,5,20,2025-04-22T12:52:31.625+03:00,767008395.5673326,0,-22.57999,100.4731,1,0.75,2025-04-22T12:48:51.593+03:00,81,1.35,2025-04-22T09:54:17.825+03:00,0.02225348692287972,0
2025-04-22T12:53:17.698+03:00,1745315597.046434,40.9522316398238,29.1402719199613,76.44794,-1,-1,-1,-1,30,34.30805834696292,-9999,31540.382682375,-0.6797332763671875,0.657958984375,-0.3224029541015625,31540.372605375,-0.02883894892046467,-1.126725884917803,-0.7221233711649053,-0.01808897778391838,-0.00905127078294754,0.004407788161188364,0.007044494152069092,0.0001227259635925293,-0.0001069605350494385,XArbitraryZVertical,0.30584774039866,0.4952407420043892,-0.1772320884206608,-0.7935884115216597,-0.6776225566864014,0.6609795689582825,-0.3223875463008881,0,0,0,-1,-1,31535.58748875,unknown,2,2025-04-22T12:53:12.898+03:00,2025-04-21T17:08:51.449+03:00,7380,0.9939646,0,0,6149.357,5,20,2025-04-22T12:52:31.625+03:00,767008395.5673326,0,-22.57999,100.4731,1,0.75,2025-04-22T12:48:51.593+03:00,81,1.35,2025-04-22T09:54:17.825+03:00,0.02225348692287972,0
2025-04-22T12:53:17.708+03:00,1745315597.046434,40.9522316398238,29.1402719199613,76.44794,-1,-1,-1,-1,30,34.30805834696292,-9999,31540.392758375,-0.6783599853515625,0.659454345703125,-0.32196044921875,31540.382682375,-0.02907630847789257,-1.126978354505053,-0.7222184783705166,-0.02246381901204586,-0.009094747714698315,-0.003140708897262812,0.001728475093841553,-0.003320932388305664,-0.001190096139907837,XArbitraryZVertical,0.3059216435187168,0.4952951246472389,-0.1772005437716746,-0.7935329065141769,-0.6776469945907593,0.6610509157180786,-0.3221893608570099,0,0,0,-1,-1,31535.58748875,unknown,2,2025-04-22T12:53:12.898+03:00,2025-04-21T17:08:51.449+03:00,7380,0.9939646,0,0,6149.357,5,20,2025-04-22T12:52:31.625+03:00,767008395.5673326,0,-22.57999,100.4731,1,0.75,2025-04-22T12:48:51.593+03:00,81,1.35,2025-04-22T09:54:17.825+03:00,0.02225348692287972,0
2025-04-22T12:53:17.726+03:00,1745315597.046434,40.9522316398238,29.1402719199613,76.44794,-1,-1,-1,-1,30,34.30805834696292,-9999,31540.402835375,-0.676544189453125,0.660736083984375,-0.3188629150390625,31540.392758375,-0.02933199151815613,-1.127291966796876,-0.7222714151662423,-0.01638568751513958,-0.01683762110769749,-0.001624571159482002,-0.002505123615264893,-0.00275033712387085,-0.0003800690174102783,XArbitraryZVertical,0.3059780479212317,0.4953751451105033,-0.1771604368715199,-0.7934701222869801,-0.6777163743972778,0.661090612411499,-0.3219617903232574,0,0,0,-1,-1,31535.58748875,unknown,2,2025-04-22T12:53:12.898+03:00,2025-04-21T17:08:51.449+03:00,7380,0.9939646,0,0,6149.357,5,20,2025-04-22T12:52:31.625+03:00,767008395.5673326,0,-22.57999,100.4731,1,0.75,2025-04-22T12:48:51.593+03:00,81,1.35,2025-04-22T09:54:17.825+03:00,0.02225348692287972,0
2025-04-22T12:53:17.730+03:00,1745315597.046434,40.9522316398238,29.1402719199613,76.44794,-1,-1,-1,-1,30,34.30805834696292,-9999,31540.412911375,-0.675018310546875,0.65704345703125,-0.3198394775390625,31540.402835375,-0.02953926174642298,-1.127597106110136,-0.7223398646007255,-0.01642909646034241,-0.0153806060552597,-0.001809927169233561,-0.000326693058013916,-0.002389609813690186,0.0001262426376342773,XArbitraryZVertical,0.3060293000426146,0.4954575888966534,-0.1771420668492849,-0.7934031581136949,-0.6777738928794861,0.6611419916152954,-0.321735680103302,0,0,0,-1,-1,31535.58748875,unknown,2,2025-04-22T12:53:12.898+03:00,2025-04-21T17:08:51.449+03:00,7380,0.9939646,0,0,6149.357,5,20,2025-04-22T12:52:31.625+03:00,767008395.5673326,0,-22.57999,100.4731,1,0.75,2025-04-22T12:48:51.593+03:00,81,1.35,2025-04-22T09:54:17.825+03:00,0.02225348692287972,0
2025-04-22T12:53:17.739+03:00,1745315597.046434,40.9522316398238,29.1402719199613,76.44794,-1,-1,-1,-1,30,34.30805834696292,-9999,31540.422988375,-0.6712799072265625,0.6580657958984375,-0.31903076171875,31540.412911375,-0.02976555734933945,-1.127962822916347,-0.7224072960921583,-0.01512814313173294,-0.02290510199964046,0.0002119446871802211,0.00165790319442749,0.0005809664726257324,0.00231584906578064,XArbitraryZVertical,0.3060795565015686,0.4955612992816736,-0.1771253346623985,-0.7933225959540438,-0.6778510808944702,0.6611925959587097,-0.3214686214923859,0,0,0,-1,-1,31535.58748875,unknown,2,2025-04-22T12:53:12.898+03:00,2025-04-21T17:08:51.449+03:00,7380,0.9939646,0,0,6149.357,5,20,2025-04-22T12:52:31.625+03:00,767008395.5673326,0,-22.57999,100.4731,1,0.75,2025-04-22T12:48:51.593+03:00,81,1.35,2025-04-22T09:54:17.825+03:00,0.02225348692287972,0
2025-04-22T12:53:17.748+03:00,1745315597.046434,40.9522316398238,29.1402719199613,76.44794,-1,-1,-1,-1,30,34.30805834696292,-9999,31540.433065375,-0.668365478515625,0.660400390625,-0.3173980712890625,31540.422988375,-0.02992410385052599,-1.128310633713872,-0.7224766188818025,-0.01089318469166756,-0.02288086712360382,-0.001880101393908262,0.003803491592407227,-0.005254089832305908,0.001114398241043091,XArbitraryZVertical,0.3061153375223268,0.4956680255619274,-0.1771331526405814,-0.7932403975374561,-0.67792147397995,0.6612445712089539,-0.3212132155895233,0,0,0,-1,-1,31535.58748875,unknown,2,2025-04-22T12:53:12.898+03:00,2025-04-21T17:08:51.449+03:00,7380,0.9939646,0,0,6149.357,5,20,2025-04-22T12:52:31.625+03:00,767008395.5673326,0,-22.57999,100.4731,1,0.75,2025-04-22T12:48:51.593+03:00,81,1.35,2025-04-22T09:54:17.825+03:00,0.02225348692287972,0
2025-04-22T12:53:17.758+03:00,1745315597.046434,40.9522316398238,29.1402719199613,76.44794,-1,-1,-1,-1,30,34.30805834696292,-9999,31540.443141375,-0.6717376708984375,0.6546173095703125,-0.313507080078125,31540.433065375,-0.03008278360507663,-1.12866614993975,-0.722530712150055,-0.01410282682627439,-0.02574456483125687,-0.001358654582872987,0.007822096347808838,-0.001602053642272949,0.002185612916946411,XArbitraryZVertical,0.306144476417985,0.4957792963532636,-0.177138273524857,-0.7931584962605015,-0.6780033111572266,0.6612851619720459,-0.3209568858146667,0,0,0,-1,-1,31535.58748875,unknown,2,2025-04-22T12:53:12.898+03:00,2025-04-21T17:08:51.449+03:00,7380,0.9939646,0,0,6149.357,5,20,2025-04-22T12:52:31.625+03:00,767008395.5673326,0,-22.57999,100.4731,1,0.75,2025-04-22T12:48:51.593+03:00,81,1.35,2025-04-22T09:54:17.825+03:00,0.02225348692287972,0
2025-04-22T12:53:17.769+03:00,1745315597.046434,40.9522316398238,29.1402719199613,76.44794,-1,-1,-1,-1,30,34.30805834696292,-9999,31540.453218375,-0.6737213134765625,0.656097412109375,-0.3126678466796875,31540.443141375,-0.03028101245056988,-1.129041530464766,-0.722592035994803,-0.01747092604637146,-0.02245369553565979,0.0006409799098037183,0.009019792079925537,-0.0020904541015625,0.004233032464981079,XArbitraryZVertical,0.3061845057548629,0.4958916318494063,-0.1771325706317648,-0.793074166192971,-0.6780871748924255,0.6613311767578125,-0.320685088634491,0,0,0,-1,-1,31535.58748875,unknown,2,2025-04-22T12:53:12.898+03:00,2025-04-21T17:08:51.449+03:00,7380,0.9939646,0,0,6149.357,5,20,2025-04-22T12:52:31.625+03:00,767008395.5673326,0,-22.57999,100.4731,1,0.75,2025-04-22T12:48:51.593+03:00,81,1.35,2025-04-22T09:54:17.825+03:00,0.02225348692287972,0
2025-04-22T12:53:17.778+03:00,1745315597.046434,40.9522316398238,29.1402719199613,76.44794,-1,-1,-1,-1,30,34.30805834696292,-9999,31540.463295375,-0.6782379150390625,0.656890869140625,-0.3165130615234375,31540.453218375,-0.03047408806994734,-1.129385507598568,-0.7226919265515771,-0.0167020708322525,-0.02147738076746464,0.00205804780125618,0.005728602409362793,-0.007368683815002441,0.007572650909423828,XArbitraryZVertical,0.3062412510558307,0.4959884340129025,-0.1771339382819362,-0.7929913348298288,-0.6781376004219055,0.6614060997962952,-0.3204235434532166,0,0,0,-1,-1,31535.58748875,unknown,2,2025-04-22T12:53:12.898+03:00,2025-04-21T17:08:51.449+03:00,7380,0.9939646,0,0,6149.357,5,20,2025-04-22T12:52:31.625+03:00,767008395.5673326,0,-22.57999,100.4731,1,0.75,2025-04-22T12:48:51.593+03:00,81,1.35,2025-04-22T09:54:17.825+03:00,0.02225348692287972,0
2025-04-22T12:53:17.789+03:00,1745315597.046434,40.9522316398238,29.1402719199613,76.44794,-1,-1,-1,-1,30,34.30805834696292,-9999,31540.473371375,-0.6786041259765625,0.656158447265625,-0.3156280517578125,31540.463295375,-0.0306558094372384,-1.129715442963296,-0.7227795430261944,-0.01532281935214996,-0.0223463699221611,0.003793763229623437,0.004301786422729492,-0.005420207977294922,0.007080018520355225,XArbitraryZVertical,0.3062915811934637,0.4960825957935995,-0.177134535050575,-0.7929128784725491,-0.6781909465789795,0.6614717841148376,-0.3201750516891479,0,0,0,-1,-1,31535.58748875,unknown,2,2025-04-22T12:53:12.898+03:00,2025-04-21T17:08:51.449+03:00,7380,0.9939646,0,0,6149.357,5,20,2025-04-22T12:52:31.625+03:00,767008395.5673326,0,-22.57999,100.4731,1,0.75,2025-04-22T12:48:51.593+03:00,81,1.35,2025-04-22T09:54:17.825+03:00,0.02225348692287972,0
2025-04-22T12:53:17.799+03:00,1745315597.046434,40.9522316398238,29.1402719199613,76.44794,-1,-1,-1,-1,30,34.30805834696292,-9999,31540.483448375,-0.6796112060546875,0.6577911376953125,-0.31805419921875,31540.473371375,-0.03083876951988734,-1.130049977223634,-0.7228830240058227,-0.01430203020572662,-0.02014420181512833,0.005078205838799477,-0.0005053281784057617,-0.004795968532562256,0.003680616617202759,XArbitraryZVertical,0.3063480662410873,0.4961767811605317,-0.1771394035780954,-0.7928309951193832,-0.6782360076904297,0.6615493893623352,-0.3199189305305481,0,0,0,-1,-1,31535.58748875,unknown,2,2025-04-22T12:53:12.898+03:00,2025-04-21T17:08:51.449+03:00,7380,0.9939646,0,0,6149.357,5,20,2025-04-22T12:52:31.625+03:00,767008395.5673326,0,-22.57999,100.4731,1,0.75,2025-04-22T12:48:51.593+03:00,81,1.35,2025-04-22T09:54:17.825+03:00,0.02225348692287972,0
2025-04-22T12:53:17.809+03:00,1745315597.046434,40.9522316398238,29.1402719199613,76.44794,-1,-1,-1,-1,30,34.30805834696292,-9999,31540.493525375,-0.6775054931640625,0.6571807861328125,-0.3198089599609375,31540.483448375,-0.03101940841216791,-1.13038258704966,-0.7229780759769766,-0.01512767747044563,-0.02539975196123123,0.00163310719653964,3.236532211303711e-05,-0.005050301551818848,0.003718078136444092,XArbitraryZVertical,0.3064008242329317,0.4962713731798576,-0.1771427699321151,-0.792750654432878,-0.678285539150238,0.6616206765174866,-0.3196665048599243,0,0,0,-1,-1,31535.58748875,unknown,2,2025-04-22T12:53:12.898+03:00,2025-04-21T17:08:51.449+03:00,7380,0.9939646,0,0,6149.357,5,20,2025-04-22T12:52:31.625+03:00,767008395.5673326,0,-22.57999,100.4731,1,0.75,2025-04-22T12:48:51.593+03:00,81,1.35,2025-04-22T09:54:17.825+03:00,0.02225348692287972,0
2025-04-22T12:53:17.819+03:00,1745315597.046434,40.9522316398238,29.1402719199613,76.44794,-1,-1,-1,-1,30,34.30805834696292,-9999,31540.50360166667,-0.67230224609375,0.659759521484375,-0.3209075927734375,31540.493525375,-0.03119841645302942,-1.130758727938361,-0.7230669522870365,-0.01464404724538326,-0.02588497847318649,0.003245118539780378,-0.001487553119659424,-0.00337749719619751,0.0008285939693450928,XArbitraryZVertical,0.3064468998125391,0.4963840729803953,-0.1771519299309886,-0.7926602076492796,-0.6783524751663208,0.6616873145103455,-0.3193863034248352,0,0,0,-1,-1,31535.58748875,unknown,2,2025-04-22T12:53:12.898+03:00,2025-04-21T17:08:51.449+03:00,7380,0.9939646,0,0,6149.357,5,20,2025-04-22T12:52:31.625+03:00,767008395.5673326,0,-22.57999,100.4731,1,0.75,2025-04-22T12:48:51.593+03:00,81,1.35,2025-04-22T09:54:17.825+03:00,0.02225348692287972,0
2025-04-22T12:53:17.829+03:00,1745315597.046434,40.9522316398238,29.1402719199613,76.44794,-1,-1,-1,-1,30,34.30805834696292,-9999,31540.51367866667,-0.6748199462890625,0.6636962890625,-0.32012939453125,31540.50360166667,-0.03130817889746987,-1.13109654427588,-0.723141695803474,-0.008049528114497662,-0.02703386545181274,0.002161478623747826,0.00112384557723999,-0.004181087017059326,-0.0007795989513397217,XArbitraryZVertical,0.3064736027439803,0.4964935658463299,-0.1771790402612446,-0.7925753596910438,-0.6784157156944275,0.6617433428764343,-0.3191361427307129,0,0,0,-1,-1,31535.58748875,unknown,2,2025-04-22T12:53:12.898+03:00,2025-04-21T17:08:51.449+03:00,7380,0.9939646,0,0,6149.357,5,20,2025-04-22T12:52:31.625+03:00,767008395.5673326,0,-22.57999,100.4731,1,0.75,2025-04-22T12:48:51.593+03:00,81,1.35,2025-04-22T09:54:17.825+03:00,0.02225348692287972,0
2025-04-22T12:53:17.839+03:00,1745315597.046434,40.9522316398238,29.1402719199613,76.44794,-1,-1,-1,-1,30,34.30805834696292,-9999,31540.52375566667,-0.6760711669921875,0.6622314453125,-0.3179168701171875,31540.51367866667,-0.03141906530077695,-1.131441734210401,-0.7232130259108597,-0.008239943534135818,-0.02752602100372314,0.003353243228048086,0.006089270114898682,-0.001671254634857178,-0.002193599939346313,XArbitraryZVertical,0.3064986215133216,0.4966061814913006,-0.1772060953134578,-0.7924889652937803,-0.6784830093383789,0.6617968082427979,-0.3188817799091339,0,0,0,-1,-1,31535.58748875,unknown,2,2025-04-22T12:53:12.898+03:00,2025-04-21T17:08:51.449+03:00,7380,0.9939646,0,0,6149.357,5,20,2025-04-22T12:52:31.625+03:00,767008395.5673326,0,-22.57999,100.4731,1,0.75,2025-04-22T12:48:51.593+03:00,81,1.35,2025-04-22T09:54:17.825+03:00,0.02225348692287972,0
2025-04-22T12:53:17.849+03:00,1745315597.046434,40.9522316398238,29.1402719199613,76.44794,-1,-1,-1,-1,30,34.30805834696292,-9999,31540.53383166667,-0.6767425537109375,0.661834716796875,-0.321533203125,31540.52375566667,-0.03150446550297081,-1.131789884231271,-0.7232723947306351,-0.006705563515424728,-0.03085643425583839,3.900565207004547e-05,0.003677487373352051,0.002129495143890381,-0.001073211431503296,XArbitraryZVertical,0.3065123265796891,0.4967250424062501,-0.1772406392840424,-0.7924014336539983,-0.6785584092140198,0.6618413329124451,-0.3186288475990295,0,0,0,-1,-1,31535.58748875,unknown,2,2025-04-22T12:53:12.898+03:00,2025-04-21T17:08:51.449+03:00,7380,0.9939646,0,0,6149.357,5,20,2025-04-22T12:52:31.625+03:00,767008395.5673326,0,-22.57999,100.4731,1,0.75,2025-04-22T12:48:51.593+03:00,81,1.35,2025-04-22T09:54:17.825+03:00,0.02225348692287972,0
2025-04-22T12:53:17.859+03:00,1745315597.046434,40.9522316398238,29.1402719199613,76.44794,-1,-1,-1,-1,30,34.30805834696292,-9999,31540.54390866667,-0.6783905029296875,0.663848876953125,-0.3219146728515625,31540.53383166667,-0.03153687753992994,-1.132110329023045,-0.7232910341970604,6.845296593382955e-05,-0.02605289220809937,0.002214009175077081,0.002456128597259521,5.561113357543945e-05,0.000504612922668457,XArbitraryZVertical,0.3064992992130138,0.496845137134817,-0.1772816064681667,-0.792322051140998,-0.678649365901947,0.6618553400039673,-0.3184061646461487,0,0,0,-1,-1,31535.58748875,unknown,2,2025-04-22T12:53:12.898+03:00,2025-04-21T17:08:51.449+03:00,7380,0.9939646,0,0,6149.357,5,20,2025-04-22T12:52:31.625+03:00,767008395.5673326,0,-22.57999,100.4731,1,0.75,2025-04-22T12:48:51.593+03:00,81,1.35,2025-04-22T09:54:17.825+03:00,0.02225348692287972,0
2025-04-22T12:53:17.869+03:00,1745315597.046434,40.9522316398238,29.1402719199613,76.44794,-1,-1,-1,-1,30,34.30805834696292,-9999,31540.55398566667,-0.6788177490234375,0.662841796875,-0.319580078125,31540.54390866667,-0.03151154901448518,-1.132367294606905,-0.7232892513684133,0.002047780901193619,-0.02770611271262169,5.222164327278733e-05,0.002050697803497314,0.000652015209197998,-0.004216462373733521,XArbitraryZVertical,0.3064695362821325,0.4969510103507121,-0.1773306031361412,-0.7922561237926351,-0.6787320971488953,0.6618539690971375,-0.3182322382926941,0,0,0,-1,-1,31535.58748875,unknown,2,2025-04-22T12:53:12.898+03:00,2025-04-21T17:08:51.449+03:00,7380,0.9939646,0,0,6149.357,5,20,2025-04-22T12:52:31.625+03:00,767008395.5673326,0,-22.57999,100.4731,1,0.75,2025-04-22T12:48:51.593+03:00,81,1.35,2025-04-22T09:54:17.825+03:00,0.02225348692287972,0
2025-04-22T12:53:17.879+03:00,1745315597.046434,40.9522316398238,29.1402719199613,76.44794,-1,-1,-1,-1,30,34.30805834696292,-9999,31540.56406166667,-0.6784210205078125,0.6590423583984375,-0.3207550048828125,31540.55398566667,-0.03149774945378966,-1.132621026865084,-0.7232734203246439,0.002369757043197751,-0.02269164845347404,-0.0006729571614414454,-0.0003462433815002441,0.002571284770965576,-0.003422856330871582,XArbitraryZVertical,0.3064373670046496,0.4970552089325055,-0.177370887221796,-0.7921942890325809,-0.6788224577903748,0.6618421077728271,-0.3180645108222961,0,0,0,-1,-1,31535.58748875,unknown,2,2025-04-22T12:53:12.898+03:00,2025-04-21T17:08:51.449+03:00,7380,0.9939646,0,0,6149.357,5,20,2025-04-22T12:52:31.625+03:00,767008395.5673326,0,-22.57999,100.4731,1,0.75,2025-04-22T12:48:51.593+03:00,81,1.35,2025-04-22T09:54:17.825+03:00,0.02225348692287972,0
2025-04-22T12:53:17.889+03:00,1745315597.046434,40.9522316398238,29.1402719199613,76.44794,-1,-1,-1,-1,30,34.30805834696292,-9999,31540.57413866667,-0.67694091796875,0.656524658203125,-0.32354736328125,31540.56406166667,-0.03148197912436908,-1.13286296510702,-0.72326345391112,-0.002196165965870023,-0.02494195476174355,0.001964271301403642,0.0008199810981750488,0.0008849501609802246,-0.0008072555065155029,XArbitraryZVertical,0.3064080836491342,0.4971544783248975,-0.1774117178302746,-0.7921340942862657,-0.6789052486419678,0.6618346571922302,-0.3179030120372772,0,0,0,-1,-1,31535.58748875,unknown,2,2025-04-22T12:53:12.898+03:00,2025-04-21T17:08:51.449+03:00,7380,0.9939646,0,0,6149.357,5,20,2025-04-22T12:52:31.625+03:00,767008395.5673326,0,-22.57999,100.4731,1,0.75,2025-04-22T12:48:51.593+03:00,81,1.35,2025-04-22T09:54:17.825+03:00,0.02225348692287972,0
2025-04-22T12:53:17.900+03:00,1745315597.046434,40.9522316398238,29.1402719199613,76.44794,-1,-1,-1,-1,30,34.30805834696292,-9999,31540.58421466667,-0.6762847900390625,0.65789794921875,-0.3255157470703125,31540.57413866667,-0.03148264171988816,-1.133144936063938,-0.7232543461690913,-0.001343954470939934,-0.02951966039836407,0.001102472422644496,0.0009608864784240723,-0.003136515617370605,-0.002872973680496216,XArbitraryZVertical,0.306379650948933,0.4972669695150903,-0.1774523386441618,-0.7920653953517541,-0.6790003180503845,0.6618278026580811,-0.3177141547203064,0,0,0,-1,-1,31535.58748875,unknown,2,2025-04-22T12:53:12.898+03:00,2025-04-21T17:08:51.449+03:00,7380,0.9939646,0,0,6149.357,5,20,2025-04-22T12:52:31.625+03:00,767008395.5673326,0,-22.57999,100.4731,1,0.75,2025-04-22T12:48:51.593+03:00,81,1.35,2025-04-22T09:54:17.825+03:00,0.02225348692287972,0
2025-04-22T12:53:17.910+03:00,1745315597.046434,40.9522316398238,29.1402719199613,76.44794,-1,-1,-1,-1,30,34.30805834696292,-9999,31540.59429166667,-0.67138671875,0.6574859619140625,-0.325653076171875,31540.58421466667,-0.0315099106910448,-1.133469530583594,-0.7232663050516739,-0.002357953228056431,-0.03166896477341652,0.0009351593325845897,0.002231776714324951,-0.005769908428192139,-0.006133228540420532,XArbitraryZVertical,0.3063623086630483,0.4973900987285549,-0.1774942310597548,-0.7919855300592561,-0.6790964603424072,0.6618368029594421,-0.3174904584884644,0,0,0,-1,-1,31535.58748875,unknown,2,2025-04-22T12:53:12.898+03:00,2025-04-21T17:08:51.449+03:00,7380,0.9939646,0,0,6149.357,5,20,2025-04-22T12:52:31.625+03:00,767008395.5673326,0,-22.57999,100.4731,1,0.75,2025-04-22T12:48:51.593+03:00,81,1.35,2025-04-22T09:54:17.825+03:00,0.02225348692287972,0
2025-04-22T12:53:17.920+03:00,1745315597.046434,40.9522316398238,29.1402719199613,76.44794,-1,-1,-1,-1,30,34.30805834696292,-9999,31540.60436866667,-0.6681365966796875,0.65118408203125,-0.3267059326171875,31540.59429166667,-0.03158461366679684,-1.133838471846808,-0.7233009680661587,-0.01286811754107475,-0.03530497848987579,-2.810597652569413e-05,0.003213107585906982,-0.003507137298583984,-0.008117735385894775,XArbitraryZVertical,0.3063617720324209,0.4975212468144039,-0.1775299717650026,-0.7918953019130343,-0.6791926622390747,0.6618627905845642,-0.3172301352024078,0,0,0,-1,-1,31535.58748875,unknown,2,2025-04-22T12:53:12.898+03:00,2025-04-21T17:08:51.449+03:00,7380,0.9939646,0,0,6149.357,5,20,2025-04-22T12:52:31.625+03:00,767008395.5673326,0,-22.57999,100.4731,1,0.75,2025-04-22T12:48:51.593+03:00,81,1.35,2025-04-22T09:54:17.825+03:00,0.02225348692287972,0
2025-04-22T12:53:17.930+03:00,1745315597.046434,40.9522316398238,29.1402719199613,76.44794,-1,-1,-1,-1,30,34.30805834696292,-9999,31540.61444466667,-0.6673583984375,0.6538238525390625,-0.32666015625,31540.60436866667,-0.03174258478496556,-1.134292167315437,-0.7233782625129247,-0.01730873994529247,-0.03612769395112991,0.002187078120186925,0.008971512317657471,-0.005106210708618164,-0.008066058158874512,XArbitraryZVertical,0.3063911764431871,0.4976688574086874,-0.1775565464516255,-0.7917851617441012,-0.6792901158332825,0.6619207262992859,-0.3169003129005432,0,0,0,-1,-1,31535.58748875,unknown,2,2025-04-22T12:53:12.898+03:00,2025-04-21T17:08:51.449+03:00,7380,0.9939646,0,0,6149.357,5,20,2025-04-22T12:52:31.625+03:00,767008395.5673326,0,-22.57999,100.4731,1,0.75,2025-04-22T12:48:51.593+03:00,81,1.35,2025-04-22T09:54:17.825+03:00,0.02225348692287972,0
2025-04-22T12:53:17.940+03:00,1745315597.046434,40.9522316398238,29.1402719199613,76.44794,-1,-1,-1,-1,30,34.30805834696292,-9999,31540.62452166667,-0.6705780029296875,0.6535186767578125,-0.322479248046875,31540.61444466667,-0.03196869957320052,-1.134824260633163,-0.7234903476379628,-0.02327501960098743,-0.04211314767599106,0.003404142567887902,0.01117855310440063,-0.01117169857025146,-0.01001527905464172,XArbitraryZVertical,0.3064442426590337,0.4978334929002262,-0.1775769928866302,-0.7916565180794846,-0.6793913841247559,0.6620047092437744,-0.316507488489151,0,0,0,-1,-1,31535.58748875,unknown,2,2025-04-22T12:53:12.898+03:00,2025-04-21T17:08:51.449+03:00,7380,0.9939646,0,0,6149.357,5,20,2025-04-22T12:52:31.625+03:00,767008395.5673326,0,-22.57999,100.4731,1,0.75,2025-04-22T12:48:51.593+03:00,81,1.35,2025-04-22T09:54:17.825+03:00,0.02225348692287972,0
2025-04-22T12:53:17.950+03:00,1745315597.046434,40.9522316398238,29.1402719199613,76.44794,-1,-1,-1,-1,30,34.30805834696292,-9999,31540.63459866667,-0.6770782470703125,0.6535797119140625,-0.3144378662109375,31540.62452166667,-0.03222345362128168,-1.135399654483203,-0.7235910173393688,-0.02416391484439373,-0.03946936503052711,-0.001294838497415185,0.01195621490478516,-0.007859647274017334,-0.01118206977844238,XArbitraryZVertical,0.3064961130494474,0.4980119800268341,-0.1775898766803566,-0.7915212773866009,-0.6795129179954529,0.6620801687240601,-0.3160884082317352,0,0,0,-1,-1,31535.58748875,unknown,2,2025-04-22T12:53:12.898+03:00,2025-04-21T17:08:51.449+03:00,7380,0.9939646,0,0,6149.357,5,20,2025-04-22T12:52:31.625+03:00,767008395.5673326,0,-22.57999,100.4731,1,0.75,2025-04-22T12:48:51.593+03:00,81,1.35,2025-04-22T09:54:17.825+03:00,0.02225348692287972,0
2025-04-22T12:53:17.960+03:00,1745315597.046434,40.9522316398238,29.1402719199613,76.44794,-1,-1,-1,-1,30,34.30805834696292,-9999,31540.64467466667,-0.6822357177734375,0.6526641845703125,-0.3161163330078125,31540.63459866667,-0.03253700697865649,-1.136007688119133,-0.723686998841545,-0.02986068278551102,-0.04164703190326691,-0.00230923667550087,0.007696151733398438,-0.00797736644744873,-0.005732178688049316,XArbitraryZVertical,0.3065578983220825,0.4981947867935694,-0.177583343415054,-0.7913837835502463,-0.6796473860740662,0.662152111530304,-0.3156484067440033,0,0,0,-1,-1,31535.58748875,unknown,2,2025-04-22T12:53:12.898+03:00,2025-04-21T17:08:51.449+03:00,7380,0.9939646,0,0,6149.357,5,20,2025-04-22T12:52:31.625+03:00,767008395.5673326,0,-22.57999,100.4731,1,0.75,2025-04-22T12:48:51.593+03:00,81,1.35,2025-04-22T09:54:17.825+03:00,0.02225348692287972,0
2025-04-22T12:53:17.970+03:00,1745315597.046434,40.9522316398238,29.1402719199613,76.44794,-1,-1,-1,-1,30,34.30805834696292,-9999,31540.65475166667,-0.678985595703125,0.6581878662109375,-0.320068359375,31540.64467466667,-0.03286947900846619,-1.136628006636906,-0.7237930894563505,-0.02571161277592182,-0.04279471933841705,-0.001796644646674395,0.002090752124786377,-0.008651912212371826,0.001232415437698364,XArbitraryZVertical,0.3066272914620136,0.4983784559260144,-0.1775738172118373,-0.7912434279454804,-0.6797794103622437,0.6622315645217896,-0.315197229385376,0,0,0,-1,-1,31535.58748875,unknown,2,2025-04-22T12:53:12.898+03:00,2025-04-21T17:08:51.449+03:00,7380,0.9939646,0,0,6149.357,5,20,2025-04-22T12:52:31.625+03:00,767008395.5673326,0,-22.57999,100.4731,1,0.75,2025-04-22T12:48:51.593+03:00,81,1.35,2025-04-22T09:54:17.825+03:00,0.02225348692287972,0
2025-04-22T12:53:17.980+03:00,1745315597.046434,40.9522316398238,29.1402719199613,76.44794,-1,-1,-1,-1,30,34.30805834696292,-9999,31540.66482866667,-0.6735992431640625,0.6654815673828125,-0.32208251953125,31540.65475166667,-0.03318096785950565,-1.137262219911313,-0.7238658408161155,-0.02369373477995396,-0.04356463998556137,-0.005382590927183628,-0.001995205879211426,-0.009606778621673584,-0.002041906118392944,XArbitraryZVertical,0.306677190446326,0.4985742072478753,-0.1775663984732026,-0.7911022750651394,-0.6799352765083313,0.662286102771759,-0.3147457242012024,0,0,0,-1,-1,31535.58748875,unknown,2,2025-04-22T12:53:12.898+03:00,2025-04-21T17:08:51.449+03:00,7380,0.9939646,0,0,6149.357,5,20,2025-04-22T12:52:31.625+03:00,767008395.5673326,0,-22.57999,100.4731,1,0.75,2025-04-22T12:48:51.593+03:00,81,1.35,2025-04-22T09:54:17.825+03:00,0.02225348692287972,0
2025-04-22T12:53:17.991+03:00,1745315597.046434,40.9522316398238,29.1402719199613,76.44794,-1,-1,-1,-1,30,34.30805834696292,-9999,31540.67490466667,-0.673126220703125,0.665069580078125,-0.3232574462890625,31540.66482866667,-0.03344278758048443,-1.137849048893142,-0.7239107640954371,-0.02036798000335693,-0.04118696972727776,-0.003517845645546913,0.001565217971801758,-0.002667129039764404,-0.005322039127349854,XArbitraryZVertical,0.3067079694940476,0.4987615456813239,-0.1775641726567135,-0.7909729169619645,-0.6800930500030518,0.6623197793960571,-0.3143342733383179,0,0,0,-1,-1,31535.58748875,unknown,2,2025-04-22T12:53:12.898+03:00,2025-04-21T17:08:51.449+03:00,7380,0.9939646,0,0,6149.357,5,20,2025-04-22T12:52:31.625+03:00,767008395.5673326,0,-22.57999,100.4731,1,0.75,2025-04-22T12:48:51.593+03:00,81,1.35,2025-04-22T09:54:17.825+03:00,0.02225348692287972,0
2025-04-22T12:53:18.000+03:00,1745315597.046434,40.9522316398238,29.1402719199613,76.44794,-1,-1,-1,-1,30,34.30805834696292,-9999,31540.68498166667,-0.6748504638671875,0.6620330810546875,-0.317657470703125,31540.67490466667,-0.03367099493439527,-1.138413148895742,-0.7239462912206609,-0.0181873831897974,-0.04415745660662651,-0.00596742145717144,0.007046341896057129,0.002875745296478271,-0.008950471878051758,XArbitraryZVertical,0.3067287487612958,0.498946007622681,-0.1775694926660246,-0.7908472833625235,-0.6802488565444946,0.662346363067627,-0.313940703868866,0,0,0,-1,-1,31535.58748875,unknown,2,2025-04-22T12:53:12.898+03:00,2025-04-21T17:08:51.449+03:00,7380,0.9939646,0,0,6149.357,5,20,2025-04-22T12:52:31.625+03:00,767008395.5673326,0,-22.57999,100.4731,1,0.75,2025-04-22T12:48:51.593+03:00,81,1.35,2025-04-22T09:54:17.825+03:00,0.02225348692287972,0
2025-04-22T12:53:18.010+03:00,1745315597.046434,40.9522316398238,29.1402719199613,76.44794,-1,-1,-1,-1,30,34.30805834696292,-9999,31540.69505866667,-0.6782379150390625,0.6582794189453125,-0.31329345703125,31540.68498166667,-0.0338786722803384,-1.138980852422911,-0.7239606290661583,-0.01770828105509281,-0.04461099579930305,-0.00452039297670126,0.00785672664642334,0.002376675605773926,-0.00943225622177124,XArbitraryZVertical,0.3067357884516197,0.4991371611056777,-0.1775781001324257,-0.7907219776500944,-0.6804183125495911,0.6623570919036865,-0.3135505020618439,0,0,0,-1,-1,31535.58748875,unknown,2,2025-04-22T12:53:12.898+03:00,2025-04-21T17:08:51.449+03:00,7380,0.9939646,0,0,6149.357,5,20,2025-04-22T12:52:31.625+03:00,767008395.5673326,0,-22.57999,100.4731,1,0.75,2025-04-22T12:48:51.593+03:00,81,1.35,2025-04-22T09:54:17.825+03:00,0.02225348692287972,0
2025-04-22T12:53:18.020+03:00,1745315597.046434,40.9522316398238,29.1402719199613,76.44794,-1,-1,-1,-1,30,34.30805834696292,-9999,31540.70513466667,-0.6789703369140625,0.6529998779296875,-0.311065673828125,31540.69505866667,-0.03409806109248226,-1.139540872897767,-0.7240124141055019,-0.02603225596249104,-0.04683287069201469,-0.001514482777565718,0.005452811717987061,-0.0002865791320800781,-0.003388494253158569,XArbitraryZVertical,0.3067611220463103,0.499319603359599,-0.1775904268929718,-0.7905942344597878,-0.6805627346038818,0.6623958945274353,-0.3131550848484039,0,0,0,-1,-1,31535.58748875,unknown,2,2025-04-22T12:53:12.898+03:00,2025-04-21T17:08:51.449+03:00,7380,0.9939646,0,0,6149.357,5,20,2025-04-22T12:52:31.625+03:00,767008395.5673326,0,-22.57999,100.4731,1,0.75,2025-04-22T12:48:51.593+03:00,81,1.35,2025-04-22T09:54:17.825+03:00,0.02225348692287972,0
2025-04-22T12:53:18.031+03:00,1745315597.046434,40.9522316398238,29.1402719199613,76.44794,-1,-1,-1,-1,30,34.30805834696292,-9999,31540.71521166667,-0.677947998046875,0.6529541015625,-0.3093719482421875,31540.70513466667,-0.03437281437046157,-1.140164453961944,-0.7241029713000732,-0.0258286576718092,-0.04794274643063545,-0.0004562091489788145,0.002831518650054932,-0.004688024520874023,8.353590965270996e-05,XArbitraryZVertical,0.3068098816252703,0.4995147097492767,-0.177600638559957,-0.7904495857142391,-0.6807031035423279,0.6624637246131897,-0.3127055168151855,0,0,0,-1,-1,31535.58748875,unknown,2,2025-04-22T12:53:12.898+03:00,2025-04-21T17:08:51.449+03:00,7380,0.9939646,0,0,6149.357,5,20,2025-04-22T12:52:31.625+03:00,767008395.5673326,0,-22.57999,100.4731,1,0.75,2025-04-22T12:48:51.593+03:00,81,1.35,2025-04-22T09:54:17.825+03:00,0.02225348692287972,0
2025-04-22T12:53:18.040+03:00,1745315597.046434,40.9522316398238,29.1402719199613,76.44794,-1,-1,-1,-1,30,34.30805834696292,-9999,31540.72528766667,-0.6770782470703125,0.6597442626953125,-0.3101806640625,31540.71521166667,-0.03466251889311283,-1.140798235921214,-0.7242063324428234,-0.02849128656089306,-0.0460822619497776,0.002897509606555104,0.001945078372955322,-0.00975501537322998,0.001942873001098633,XArbitraryZVertical,0.3068664585779632,0.499710119696468,-0.1776096820237641,-0.7903021814142025,-0.6808390617370605,0.6625411510467529,-0.3122455477714539,0,0,0,-1,-1,31535.58748875,unknown,2,2025-04-22T12:53:12.898+03:00,2025-04-21T17:08:51.449+03:00,7380,0.9939646,0,0,6149.357,5,20,2025-04-22T12:52:31.625+03:00,767008395.5673326,0,-22.57999,100.4731,1,0.75,2025-04-22T12:48:51.593+03:00,81,1.35,2025-04-22T09:54:17.825+03:00,0.02225348692287972,0
2025-04-22T12:53:18.051+03:00,1745315597.046434,40.9522316398238,29.1402719199613,76.44794,-1,-1,-1,-1,30,34.30805834696292,-9999,31540.73536466667,-0.674072265625,0.66070556640625,-0.3117828369140625,31540.72528766667,-0.0350013632674577,-1.141484936616506,-0.7243378601224836,-0.02813941612839699,-0.04709552600979805,0.001537599833682179,0.003056704998016357,-0.00899893045425415,0.001759439706802368,XArbitraryZVertical,0.3069416725929572,0.499915946940598,-0.1776146915684121,-0.7901417368085512,-0.6809741854667664,0.6626396775245667,-0.3117417097091675,0,0,0,-1,-1,31535.58748875,unknown,2,2025-04-22T12:53:12.898+03:00,2025-04-21T17:08:51.449+03:00,7380,0.9939646,0,0,6149.357,5,20,2025-04-22T12:52:31.625+03:00,767008395.5673326,0,-22.57999,100.4731,1,0.75,2025-04-22T12:48:51.593+03:00,81,1.35,2025-04-22T09:54:17.825+03:00,0.02225348692287972,0
2025-04-22T12:53:18.061+03:00,1745315597.046434,40.9522316398238,29.1402719199613,76.44794,-1,-1,-1,-1,30,34.30805834696292,-9999,31540.74544166667,-0.67779541015625,0.663360595703125,-0.31304931640625,31540.73536466667,-0.03530502702573246,-1.142148720254818,-0.7244377294105085,-0.02194330468773842,-0.04556873440742493,0.003417524974793196,0.004408597946166992,-0.002390503883361816,0.0013713538646698,XArbitraryZVertical,0.30699778572053,0.50012134412409,-0.1776221978099614,-0.7899880660073094,-0.6811205148696899,0.6627144813537598,-0.3112620115280151,0,0,0,-1,-1,31535.58748875,unknown,2,2025-04-22T12:53:12.898+03:00,2025-04-21T17:08:51.449+03:00,7380,0.9939646,0,0,6149.357,5,20,2025-04-22T12:52:31.625+03:00,767008395.5673326,0,-22.57999,100.4731,1,0.75,2025-04-22T12:48:51.593+03:00,81,1.35,2025-04-22T09:54:17.825+03:00,0.02225348692287972,0
2025-04-22T12:53:18.071+03:00,1745315597.046434,40.9522316398238,29.1402719199613,76.44794,-1,-1,-1,-1,30,34.30805834696292,-9999,31540.75551766667,-0.681915283203125,0.661407470703125,-0.31109619140625,31540.74544166667,-0.03552538890958533,-1.142707018408987,-0.724554726084475,-0.02098856307566166,-0.04316683113574982,0.001963305985555053,0.006861567497253418,-0.001059055328369141,-0.001925140619277954,XArbitraryZVertical,0.3070491256049073,0.5002960021302373,-0.1776507523608851,-0.7898510805847281,-0.6812236309051514,0.6628021001815796,-0.3108494877815247,0,0,0,-1,-1,31535.58748875,unknown,2,2025-04-22T12:53:12.898+03:00,2025-04-21T17:08:51.449+03:00,7380,0.9939646,0,0,6149.357,5,20,2025-04-22T12:52:31.625+03:00,767008395.5673326,0,-22.57999,100.4731,1,0.75,2025-04-22T12:48:51.593+03:00,81,1.35,2025-04-22T09:54:17.825+03:00,0.02225348692287972,0
2025-04-22T12:53:18.081+03:00,1745315597.046434,40.9522316398238,29.1402719199613,76.44794,-1,-1,-1,-1,30,34.30805834696292,-9999,31540.76559466667,-0.682098388671875,0.659820556640625,-0.3107452392578125,31540.75551766667,-0.03574005636702357,-1.143248340752209,-0.7246605934682691,-0.02348021604120731,-0.04171673953533173,0.001412031473591924,0.002571344375610352,0.00104367733001709,-0.001651614904403687,XArbitraryZVertical,0.3070961907593386,0.5004659183753379,-0.1776761414511984,-0.7897194215776938,-0.6813279986381531,0.6628813743591309,-0.3104515969753265,0,0,0,-1,-1,31535.58748875,unknown,2,2025-04-22T12:53:12.898+03:00,2025-04-21T17:08:51.449+03:00,7380,0.9939646,0,0,6149.357,5,20,2025-04-22T12:52:31.625+03:00,767008395.5673326,0,-22.57999,100.4731,1,0.75,2025-04-22T12:48:51.593+03:00,81,1.35,2025-04-22T09:54:17.825+03:00,0.02225348692287972,0
2025-04-22T12:53:18.091+03:00,1745315597.046434,40.9522316398238,29.1402719199613,76.44794,-1,-1,-1,-1,30,34.30805834696292,-9999,31540.77567166667,-0.6829071044921875,0.6593475341796875,-0.312835693359375,31540.76559466667,-0.03598248381241605,-1.143795927862673,-0.7248021237313794,-0.02486852183938026,-0.03978301584720612,0.003678115550428629,-0.0002127885818481445,-0.002785384654998779,-0.0004462003707885742,XArbitraryZVertical,0.3071635988425747,0.5006303106942592,-0.1777006666202254,-0.7895835335885178,-0.6814125180244446,0.6629872918128967,-0.3100396394729614,0,0,0,-1,-1,31535.58748875,unknown,2,2025-04-22T12:53:12.898+03:00,2025-04-21T17:08:51.449+03:00,7380,0.9939646,0,0,6149.357,5,20,2025-04-22T12:52:31.625+03:00,767008395.5673326,0,-22.57999,100.4731,1,0.75,2025-04-22T12:48:51.593+03:00,81,1.35,2025-04-22T09:54:17.825+03:00,0.02225348692287972,0
2025-04-22T12:53:18.101+03:00,1745315597.046434,40.9522316398238,29.1402719199613,76.44794,-1,-1,-1,-1,30,34.30805834696292,-9999,31540.78574766667,-0.682464599609375,0.6583404541015625,-0.3116455078125,31540.77567166667,-0.03628001912809347,-1.144399910089831,-0.7249442035245786,-0.0286233127117157,-0.04379560053348541,0.002451729727908969,-0.0005997419357299805,-0.003898859024047852,-0.00147661566734314,XArbitraryZVertical,0.3072400259543805,0.5008084028785224,-0.1777123461710562,-0.7894381664290425,-0.6815138459205627,0.6630936861038208,-0.3095890283584595,0,0,0,-1,-1,31535.58748875,unknown,2,2025-04-22T12:53:12.898+03:00,2025-04-21T17:08:51.449+03:00,7380,0.9939646,0,0,6149.357,5,20,2025-04-22T12:52:31.625+03:00,767008395.5673326,0,-22.57999,100.4731,1,0.75,2025-04-22T12:48:51.593+03:00,81,1.35,2025-04-22T09:54:17.825+03:00,0.02225348692287972,0
2025-04-22T12:53:18.112+03:00,1745315597.046434,40.9522316398238,29.1402719199613,76.44794,-1,-1,-1,-1,30,34.30805834696292,-9999,31540.79582466667,-0.6807861328125,0.6609954833984375,-0.3106231689453125,31540.78574766667,-0.03665056358850018,-1.145076609740638,-0.7250917906828948,-0.03516776487231255,-0.04513277485966682,-0.00030597357545048,-0.001837491989135742,-0.004558563232421875,-0.003961861133575439,XArbitraryZVertical,0.3073304230740374,0.5010033067692125,-0.1777077992119734,-0.7892803943755349,-0.6816341280937195,0.6632041335105896,-0.3090873956680298,0,0,0,-1,-1,31535.58748875,unknown,2,2025-04-22T12:53:12.898+03:00,2025-04-21T17:08:51.449+03:00,7380,0.9939646,0,0,6149.357,5,20,2025-04-22T12:52:31.625+03:00,767008395.5673326,0,-22.57999,100.4731,1,0.75,2025-04-22T12:48:51.593+03:00,81,1.35,2025-04-22T09:54:17.825+03:00,0.02225348692287972,0
2025-04-22T12:53:18.122+03:00,1745315597.046434,40.9522316398238,29.1402719199613,76.44794,-1,-1,-1,-1,30,34.30805834696292,-9999,31540.80590166667,-0.6810150146484375,0.6614532470703125,-0.3114013671875,31540.79582466667,-0.03707191773712028,-1.145798301996727,-0.7252135615294013,-0.03458879142999649,-0.04540814459323883,0.003232035785913467,0.0002650022506713867,-0.004664957523345947,-0.002778172492980957,XArbitraryZVertical,0.3074194845720096,0.5012107351724385,-0.1776835990163052,-0.7891195060627134,-0.6817835569381714,0.6632952690124512,-0.3085621297359467,0,0,0,-1,-1,31535.58748875,unknown,2,2025-04-22T12:53:12.898+03:00,2025-04-21T17:08:51.449+03:00,7380,0.9939646,0,0,6149.357,5,20,2025-04-22T12:52:31.625+03:00,767008395.5673326,0,-22.57999,100.4731,1,0.75,2025-04-22T12:48:51.593+03:00,81,1.35,2025-04-22T09:54:17.825+03:00,0.02225348692287972,0
2025-04-22T12:53:18.131+03:00,1745315597.046434,40.9522316398238,29.1402719199613,76.44794,-1,-1,-1,-1,30,34.30805834696292,-9999,31540.81597766667,-0.678497314453125,0.663177490234375,-0.3089447021484375,31540.80590166667,-0.03747144633574533,-1.146530825025755,-0.7253421830267267,-0.03505431115627289,-0.04832910001277924,0.001468490576371551,0.0007029175758361816,-0.002304613590240479,-0.002290517091751099,XArbitraryZVertical,0.3075048558936251,0.501425025954382,-0.1776716064775294,-0.7889526596975137,-0.6819314360618591,0.6633915305137634,-0.3080274164676666,0,0,0,-1,-1,31535.58748875,unknown,2,2025-04-22T12:53:12.898+03:00,2025-04-21T17:08:51.449+03:00,7380,0.9939646,0,0,6149.357,5,20,2025-04-22T12:52:31.625+03:00,767008395.5673326,0,-22.57999,100.4731,1,0.75,2025-04-22T12:48:51.593+03:00,81,1.35,2025-04-22T09:54:17.825+03:00,0.02225348692287972,0
2025-04-22T12:53:18.141+03:00,1745315597.046434,40.9522316398238,29.1402719199613,76.44794,-1,-1,-1,-1,30,34.30805834696292,-9999,31540.82605466667,-0.6790313720703125,0.6610107421875,-0.308807373046875,31540.81597766667,-0.0378827428426954,-1.147305896265385,-0.7254928371980441,-0.03589613735675812,-0.05055763572454453,0.0004487662226893008,0.001643776893615723,-0.002127408981323242,-0.003501087427139282,XArbitraryZVertical,0.3075980155279298,0.501651873326353,-0.1776671775574402,-0.7887731407155941,-0.6820788979530334,0.6635042428970337,-0.3074577152729034,0,0,0,-1,-1,31535.58748875,unknown,2,2025-04-22T12:53:12.898+03:00,2025-04-21T17:08:51.449+03:00,7380,0.9939646,0,0,6149.357,5,20,2025-04-22T12:52:31.625+03:00,767008395.5673326,0,-22.57999,100.4731,1,0.75,2025-04-22T12:48:51.593+03:00,81,1.35,2025-04-22T09:54:17.825+03:00,0.02225348692287972,0
2025-04-22T12:53:18.151+03:00,1745315597.046434,40.9522316398238,29.1402719199613,76.44794,-1,-1,-1,-1,30,34.30805834696292,-9999,31540.83613166667,-0.6807403564453125,0.6635284423828125,-0.3128509521484375,31540.82605466667,-0.03832285641800491,-1.14808374136635,-0.7256488856871955,-0.03701040521264076,-0.05231558531522751,-0.003608559723943472,0.00409233570098877,-0.001206576824188232,-0.001770168542861938,XArbitraryZVertical,0.3077003031532813,0.5018747187726007,-0.1776533206804511,-0.788594564092455,-0.682223379611969,0.6636210083961487,-0.3068845868110657,0,0,0,-1,-1,31535.58748875,unknown,2,2025-04-22T12:53:12.898+03:00,2025-04-21T17:08:51.449+03:00,7380,0.9939646,0,0,6149.357,5,20,2025-04-22T12:52:31.625+03:00,767008395.5673326,0,-22.57999,100.4731,1,0.75,2025-04-22T12:48:51.593+03:00,81,1.35,2025-04-22T09:54:17.825+03:00,0.02225348692287972,0
2025-04-22T12:53:18.162+03:00,1745315597.046434,40.9522316398238,29.1402719199613,76.44794,-1,-1,-1,-1,30,34.30805834696292,-9999,31540.84620766667,-0.6831207275390625,0.6663665771484375,-0.3104400634765625,31540.83613166667,-0.03876891089561244,-1.148876604977686,-0.7257884701633818,-0.03777779638767242,-0.04649218544363976,-0.0002240148023702204,0.003305017948150635,-0.002638459205627441,-0.003005146980285645,XArbitraryZVertical,0.3077963332337441,0.5021041395513144,-0.1776352491819528,-0.7884152045363133,-0.6823821067810059,0.6637254357337952,-0.3063057065010071,0,0,0,-1,-1,31535.58748875,unknown,2,2025-04-22T12:53:12.898+03:00,2025-04-21T17:08:51.449+03:00,7380,0.9939646,0,0,6149.357,5,20,2025-04-22T12:52:31.625+03:00,767008398.1451,0,-22.55,100.4729,1,0.75,2025-04-22T12:48:51.593+03:00,81,1.35,2025-04-22T09:54:17.825+03:00,0.02225348692287972,0
2025-04-22T12:53:18.171+03:00,1745315597.046434,40.9522316398238,29.1402719199613,76.44794,-1,-1,-1,-1,30,34.30805834696292,-9999,31540.85628466667,-0.6861572265625,0.66741943359375,-0.3110504150390625,31540.84620766667,-0.03915950928212971,-1.149564088327451,-0.7258985218340457,-0.02784407138824463,-0.04170315712690353,-0.002581245265901089,0.001098871231079102,-0.0003708600997924805,-0.006540745496749878,XArbitraryZVertical,0.3078763175919066,0.5023035427669638,-0.1776153647813223,-0.7882614482908388,-0.6825259327888489,0.6638076901435852,-0.3058066368103027,0,0,0,-1,-1,31535.58748875,unknown,2,2025-04-22T12:53:12.898+03:00,2025-04-21T17:08:51.449+03:00,7380,0.9939646,0,0,6149.357,5,20,2025-04-22T12:52:31.625+03:00,767008398.1451,0,-22.55,100.4729,1,0.75,2025-04-22T12:48:51.593+03:00,81,1.35,2025-04-22T09:54:17.825+03:00,0.02225348692287972,0
2025-04-22T12:53:18.182+03:00,1745315597.046434,40.9522316398238,29.1402719199613,76.44794,-1,-1,-1,-1,30,34.30805834696292,-9999,31540.86636166667,-0.6855316162109375,0.66412353515625,-0.3119354248046875,31540.85628466667,-0.03947369419392424,-1.150151674386337,-0.7259825839191749,-0.02202666364610195,-0.03585059568285942,0.001232667709700763,-0.0005424618721008301,0.003304719924926758,-0.004981011152267456,XArbitraryZVertical,0.3079358637688661,0.5024779714636313,-0.1776035989882299,-0.7881296898845945,-0.6826545596122742,0.6638705730438232,-0.3053827881813049,0,0,0,-1,-1,31535.58748875,unknown,2,2025-04-22T12:53:12.898+03:00,2025-04-21T17:08:51.449+03:00,7380,0.9939646,0,0,6149.357,5,20,2025-04-22T12:52:31.625+03:00,767008398.1451,0,-22.55,100.4729,1,0.75,2025-04-22T12:48:51.593+03:00,81,1.35,2025-04-22T09:54:17.825+03:00,0.02225348692287972,0
2025-04-22T12:53:18.192+03:00,1745315597.046434,40.9522316398238,29.1402719199613,76.44794,-1,-1,-1,-1,30,34.30805834696292,-9999,31540.87643766667,-0.6831817626953125,0.6611480712890625,-0.3105316162109375,31540.86636166667,-0.03975039247066479,-1.150660623816697,-0.7260539003269201,-0.02185449004173279,-0.03163174539804459,-0.002962409984320402,-0.004123091697692871,0.003190219402313232,-0.00675162672996521,XArbitraryZVertical,0.3079880489539316,0.5026284995917649,-0.1775913517728745,-0.7880159154115414,-0.6827664971351624,0.6639239192008972,-0.30501589179039,0,0,0,-1,-1,31535.58748875,unknown,2,2025-04-22T12:53:12.898+03:00,2025-04-21T17:08:51.449+03:00,7380,0.9939646,0,0,6149.357,5,20,2025-04-22T12:52:31.625+03:00,767008398.1451,0,-22.55,100.4729,1,0.75,2025-04-22T12:48:51.593+03:00,81,1.35,2025-04-22T09:54:17.825+03:00,0.02225348692287972,0
2025-04-22T12:53:18.202+03:00,1745315597.046434,40.9522316398238,29.1402719199613,76.44794,-1,-1,-1,-1,30,34.30805834696292,-9999,31540.88651466667,-0.6822357177734375,0.6630859375,-0.3104095458984375,31540.87643766667,-0.03997771538514037,-1.151101698702836,-0.726123308392587,-0.01957162842154503,-0.02922504954040051,0.002282419241964817,-0.002733707427978516,-0.0003864765167236328,-0.006873160600662231,XArbitraryZVertical,0.3080330969884724,0.5027600158752397,-0.1775875694894452,-0.7879152695341695,-0.6828588843345642,0.6639758348464966,-0.3046959638595581,0,0,0,-1,-1,31535.58748875,unknown,2,2025-04-22T12:53:12.898+03:00,2025-04-21T17:08:51.449+03:00,7380,0.9939646,0,0,6149.357,5,20,2025-04-22T12:52:31.625+03:00,767008398.1451,0,-22.55,100.4729,1,0.75,2025-04-22T12:53:16.958+03:00,81,1.35,2025-04-22T09:54:17.825+03:00,0.02225348692287972,0
2025-04-22T12:53:18.221+03:00,1745315597.046434,40.9522316398238,29.1402719199613,76.44794,-1,-1,-1,-1,30,34.30805834696292,-9999,31540.89659166667,-0.683258056640625,0.6631011962890625,-0.31085205078125,31540.88651466667,-0.040215016072424,-1.151524645898601,-0.7262146311838091,-0.0198498610407114,-0.02532797865569592,0.0004721687873825431,0.0003914833068847656,-0.003521740436553955,-0.006118595600128174,XArbitraryZVertical,0.3080908199994359,0.5028805283404861,-0.1775827302440006,-0.7878169002078489,-0.6829323172569275,0.6640440821647644,-0.3043824434280396,0,0,0,-1,-1,31535.58748875,unknown,2,2025-04-22T12:53:12.898+03:00,2025-04-21T17:08:51.449+03:00,7380,0.9939646,0,0,6149.357,5,20,2025-04-22T12:52:31.625+03:00,767008398.1451,0,-22.55,100.4729,1,0.75,2025-04-22T12:53:16.958+03:00,70,1.166666666666667,2025-04-22T09:54:17.825+03:00,0.02225348692287972,0
2025-04-22T12:53:18.223+03:00,1745315597.046434,40.9522316398238,29.1402719199613,76.44794,-1,-1,-1,-1,30,34.30805834696292,-9999,31540.90666766667,-0.6849517822265625,0.6673583984375,-0.3140106201171875,31540.89659166667,-0.04038037325481255,-1.151868535872406,-0.7262928172031876,-0.01222549751400948,-0.02213484793901443,0.002496437635272741,0.0003876686096191406,-0.0004979372024536133,-0.005565851926803589,XArbitraryZVertical,0.3081323617299418,0.5029823351490256,-0.1775907173777685,-0.7877338345254232,-0.6829895377159119,0.6641025543212891,-0.3041264414787292,0,0,0,-1,-1,31535.58748875,unknown,2,2025-04-22T12:53:12.898+03:00,2025-04-21T17:08:51.449+03:00,7380,0.9939646,0,0,6149.357,5,20,2025-04-22T12:52:31.625+03:00,767008398.1451,0,-22.55,100.4729,1,0.75,2025-04-22T12:53:16.958+03:00,70,1.166666666666667,2025-04-22T09:54:17.825+03:00,0.02225348692287972,0
