loggingTime(txt),locationTimestamp_since1970(s),locationLatitude(WGS84),locationLongitude(WGS84),locationAltitude(m),locationSpeed(m/s),locationSpeedAccuracy(m/s),locationCourse(°),locationCourseAccuracy(°),locationVerticalAccuracy(m),locationHorizontalAccuracy(m),locationFloor(Z),accelerometerTimestamp_sinceReboot(s),accelerometerAccelerationX(G),accelerometerAccelerationY(G),accelerometerAccelerationZ(G),motionTimestamp_sinceReboot(s),motionYaw(rad),motionRoll(rad),motionPitch(rad),motionRotationRateX(rad/s),motionRotationRateY(rad/s),motionRotationRateZ(rad/s),motionUserAccelerationX(G),motionUserAccelerationY(G),motionUserAccelerationZ(G),motionAttitudeReferenceFrame(txt),motionQuaternionX(R),motionQuaternionY(R),motionQuaternionZ(R),motionQuaternionW(R),motionGravityX(G),motionGravityY(G),motionGravityZ(G),motionMagneticFieldX(µT),motionMagneticFieldY(µT),motionMagneticFieldZ(µT),motionHeading(°),motionMagneticFieldCalibrationAccuracy(Z),activityTimestamp_sinceReboot(s),activity(txt),activityActivityConfidence(Z),activityActivityStartDate(txt),pedometerStartDate(txt),pedometerNumberofSteps(N),pedometerAverageActivePace(s/m),pedometerCurrentPace(s/m),pedometerCurrentCadence(steps/s),pedometerDistance(m),pedometerFloorAscended(N),pedometerFloorDescended(N),pedometerEndDate(txt),altimeterTimestamp_sinceReboot(s),altimeterReset(bool),altimeterRelativeAltitude(m),altimeterPressure(kPa),batteryState(N),batteryLevel(R),heartRateBPMTimestamp(txt),heartRateBPM(N),heartRateBPS(R),heartRateVariabilityTimestamp(txt),heartRateVariability(ms),label
2025-04-21T17:00:51.064+03:00,1745244050.777066,40.95225368581861,29.14027810012393,76.51794,-1,-1,-1,-1,30,26.17599130966446,-9999,21099.18202825,-0.642578125,0.65948486328125,-0.0991668701171875,21099.17699025,1.861568585145431,-1.3669765752081,-0.7825923029553163,0.02518713660538197,-0.01773572340607643,-0.02767040021717548,-0.03210639953613281,-0.01617050170898438,0.001407086849212646,XArbitraryZVertical,0.2916309936826861,-0.5858221405456234,0.718746378061707,0.2348775147470953,-0.6944103240966797,0.7051199674606323,-0.1435275673866272,0,0,0,-1,-1,21095.701989625,unknown,2,2025-04-21T17:00:47.567+03:00,2025-04-20T21:57:49.637+03:00,6869,0.9902488,0,0,5622.382,5,6,2025-04-21T17:00:39.829+03:00,766936814.1330497,0,-39.12,100.2019,1,0.3,2025-04-21T16:59:59.105+03:00,92.00000000000001,1.533333333333333,2025-04-21T12:30:07.995+03:00,0.02023345852159405,0
2025-04-21T17:00:51.066+03:00,1745244050.777066,40.95225368581861,29.14027810012393,76.51794,-1,-1,-1,-1,30,26.17599130966446,-9999,21099.19210425,-0.7006378173828125,0.70513916015625,-0.1288299560546875,21099.18706625,1.861831836310045,-1.366755718002338,-0.7822760352609396,0.02700893953442574,0.02041479013860226,-0.02002503164112568,0.04428255558013916,-0.04725730419158936,0.04388768970966339,XArbitraryZVertical,0.2917270130871644,-0.5856896041198486,0.7187918417130184,0.2349493735807109,-0.6945968270301819,0.7048956751823425,-0.1437260806560516,0,0,0,-1,-1,21095.701989625,unknown,2,2025-04-21T17:00:47.567+03:00,2025-04-20T21:57:49.637+03:00,6869,0.9902488,0,0,5622.382,5,6,2025-04-21T17:00:39.829+03:00,766936814.1330497,0,-39.12,100.2019,1,0.3,2025-04-21T16:59:59.105+03:00,92.00000000000001,1.533333333333333,2025-04-21T12:30:07.995+03:00,0.02023345852159405,0
2025-04-21T17:00:51.072+03:00,1745244050.777066,40.95225368581861,29.14027810012393,76.51794,-1,-1,-1,-1,30,26.17599130966446,-9999,21099.20218025,-0.7054290771484375,0.726531982421875,-0.1381378173828125,21099.19714225,1.862223150355886,-1.366264956886394,-0.7820509746657635,0.03124656155705452,0.01941051334142685,-0.01187069900333881,0.01790845394134521,-0.02138656377792358,0.02672839164733887,XArbitraryZVertical,0.2917350720676859,-0.5855263129204125,0.718896896356352,0.2350250392448626,-0.6946815848350525,0.7047359943389893,-0.1440991759300232,0,0,0,-1,-1,21095.701989625,unknown,2,2025-04-21T17:00:47.567+03:00,2025-04-20T21:57:49.637+03:00,6869,0.9902488,0,0,5622.382,5,6,2025-04-21T17:00:39.829+03:00,766936814.1330497,0,-39.12,100.2019,1,0.3,2025-04-21T16:59:59.105+03:00,92.00000000000001,1.533333333333333,2025-04-21T12:30:07.995+03:00,0.02023345852159405,0
2025-04-21T17:00:51.082+03:00,1745244050.777066,40.95225368581861,29.14027810012393,76.51794,-1,-1,-1,-1,30,26.17599130966446,-9999,21099.21225725,-0.6899261474609375,0.701416015625,-0.1359710693359375,21099.20721825,1.862606291586231,-1.365811318221962,-0.7819196369569261,0.03022057749330997,0.02065700478851795,-0.004692081827670336,-0.01761925220489502,0.0227130651473999,0.006279930472373962,XArbitraryZVertical,0.2917249051084705,-0.5853887650978901,0.7190008251431659,0.2350625356273599,-0.6947068572044373,0.7046428322792053,-0.1444331407546997,0,0,0,-1,-1,21095.701989625,unknown,2,2025-04-21T17:00:47.567+03:00,2025-04-20T21:57:49.637+03:00,6869,0.9902488,0,0,5622.382,5,6,2025-04-21T17:00:39.829+03:00,766936814.1330497,0,-39.12,100.2019,1,0.3,2025-04-21T16:59:59.105+03:00,92.00000000000001,1.533333333333333,2025-04-21T12:30:07.995+03:00,0.02023345852159405,0
2025-04-21T17:00:51.092+03:00,1745244050.777066,40.95225368581861,29.14027810012393,76.51794,-1,-1,-1,-1,30,26.17599130966446,-9999,21099.22233325,-0.702239990234375,0.692230224609375,-0.139495849609375,21099.21729525,1.862954366260842,-1.365348898619771,-0.7817727437340757,0.03527552634477615,0.03437414765357971,-0.003801786806434393,0.003289282321929932,0.006826102733612061,0.009292528033256531,XArbitraryZVertical,0.2917061065724301,-0.5852519077820059,0.7191010599037714,0.2351201265801162,-0.6947413682937622,0.7045385837554932,-0.1447755098342896,0,0,0,-1,-1,21095.701989625,unknown,2,2025-04-21T17:00:47.567+03:00,2025-04-20T21:57:49.637+03:00,6869,0.9902488,0,0,5622.382,5,6,2025-04-21T17:00:39.829+03:00,766936814.1330497,0,-39.12,100.2019,1,0.3,2025-04-21T16:59:59.105+03:00,92.00000000000001,1.533333333333333,2025-04-21T12:30:07.995+03:00,0.02023345852159405,0
2025-04-21T17:00:51.103+03:00,1745244050.777066,40.95225368581861,29.14027810012393,76.51794,-1,-1,-1,-1,30,26.17599130966446,-9999,21099.23240925,-0.7109375,0.6999969482421875,-0.1425628662109375,21099.22737125,1.863489464860231,-1.364565742435435,-0.7816100620042226,0.04101656377315521,0.04165290296077728,-0.00615199375897646,-0.001289844512939453,-0.01173526048660278,0.0073881596326828,XArbitraryZVertical,0.2916315686445409,-0.5850466007933888,0.7192691755783552,0.2352091906002734,-0.6947398781776428,0.7044231295585632,-0.145343005657196,0,0,0,-1,-1,21095.701989625,unknown,2,2025-04-21T17:00:47.567+03:00,2025-04-20T21:57:49.637+03:00,6869,0.9902488,0,0,5622.382,5,6,2025-04-21T17:00:39.829+03:00,766936814.1330497,0,-39.12,100.2019,1,0.3,2025-04-21T16:59:59.105+03:00,92.00000000000001,1.533333333333333,2025-04-21T12:30:07.995+03:00,0.02023345852159405,0
2025-04-21T17:00:51.113+03:00,1745244050.777066,40.95225368581861,29.14027810012393,76.51794,-1,-1,-1,-1,30,26.17599130966446,-9999,21099.24248525,-0.701507568359375,0.7086029052734375,-0.13824462890625,21099.23744725,1.864033366781984,-1.363733002423518,-0.7815339780240261,0.0307460855692625,0.03464718908071518,-0.01060639601200819,-0.0155646800994873,-0.008736312389373779,0.003964602947235107,XArbitraryZVertical,0.2915147838637598,-0.5848528763449696,0.7194503266751269,0.2352814958312094,-0.6946709156036377,0.7043691277503967,-0.1459324806928635,0,0,0,-1,-1,21095.701989625,unknown,2,2025-04-21T17:00:47.567+03:00,2025-04-20T21:57:49.637+03:00,6869,0.9902488,0,0,5622.382,5,6,2025-04-21T17:00:39.829+03:00,766936814.1330497,0,-39.12,100.2019,1,0.3,2025-04-21T16:59:59.105+03:00,92.00000000000001,1.533333333333333,2025-04-21T12:30:07.995+03:00,0.02023345852159405,0
2025-04-21T17:00:51.122+03:00,1745244050.777066,40.95225368581861,29.14027810012393,76.51794,-1,-1,-1,-1,30,26.17599130966446,-9999,21099.25256125,-0.692901611328125,0.705352783203125,-0.1360015869140625,21099.24752325,1.864405217804677,-1.363103468433364,-0.7814311527824093,0.02368571236729622,0.0320713147521019,-0.008122099563479424,-0.01131331920623779,0.002246677875518799,0.006476700305938721,XArbitraryZVertical,0.291428936474308,-0.5847023327346161,0.7195801795165399,0.2353649164906747,-0.6946498155593872,0.7042961120605469,-0.1463847160339355,0,0,0,-1,-1,21095.701989625,unknown,2,2025-04-21T17:00:47.567+03:00,2025-04-20T21:57:49.637+03:00,6869,0.9902488,0,0,5622.382,5,6,2025-04-21T17:00:39.829+03:00,766936814.1330497,0,-39.12,100.2019,1,0.3,2025-04-21T16:59:59.105+03:00,92.00000000000001,1.533333333333333,2025-04-21T12:30:07.995+03:00,0.02023345852159405,0
2025-04-21T17:00:51.132+03:00,1745244050.777066,40.95225368581861,29.14027810012393,76.51794,-1,-1,-1,-1,30,26.17599130966446,-9999,21099.26263725,-0.691497802734375,0.7055816650390625,-0.1404266357421875,21099.25759925,1.864670571616512,-1.362601374280586,-0.7812715313166931,0.01979376934468746,0.03226572275161743,-0.009658478200435638,-0.0006720423698425293,0.002466797828674316,0.01055663824081421,XArbitraryZVertical,0.2913753622714007,-0.5845699605751346,0.7196758306645259,0.2354676517456352,-0.694686233997345,0.7041828036308289,-0.14675672352314,0,0,0,-1,-1,21095.701989625,unknown,2,2025-04-21T17:00:47.567+03:00,2025-04-20T21:57:49.637+03:00,6869,0.9902488,0,0,5622.382,5,6,2025-04-21T17:00:39.829+03:00,766936814.1330497,0,-39.12,100.2019,1,0.3,2025-04-21T16:59:59.105+03:00,92.00000000000001,1.533333333333333,2025-04-21T12:30:07.995+03:00,0.02023345852159405,0
2025-04-21T17:00:51.142+03:00,1745244050.777066,40.95225368581861,29.14027810012393,76.51794,-1,-1,-1,-1,30,26.17599130966446,-9999,21099.27271325,-0.689453125,0.7134552001953125,-0.145355224609375,21099.26767525,1.864960872459686,-1.362099861866978,-0.7811322700265215,0.03251595795154572,0.02903424575924873,-0.0110471835359931,0.002127289772033691,0.0007498860359191895,0.009353652596473694,XArbitraryZVertical,0.2913229615388133,-0.5844383912009508,0.7197754338213942,0.2355545167255138,-0.6947084069252014,0.7040839195251465,-0.1471253931522369,0,0,0,-1,-1,21095.701989625,unknown,2,2025-04-21T17:00:47.567+03:00,2025-04-20T21:57:49.637+03:00,6869,0.9902488,0,0,5622.382,5,6,2025-04-21T17:00:39.829+03:00,766936814.1330497,0,-39.12,100.2019,1,0.3,2025-04-21T16:59:59.105+03:00,92.00000000000001,1.533333333333333,2025-04-21T12:30:07.995+03:00,0.02023345852159405,0
2025-04-21T17:00:51.153+03:00,1745244050.777066,40.95225368581861,29.14027810012393,76.51794,-1,-1,-1,-1,30,26.17599130966446,-9999,21099.28279025,-0.68731689453125,0.7180938720703125,-0.1464996337890625,21099.27775225,1.865432927359712,-1.361526875926595,-0.7809233012172953,0.04117123037576675,0.02374840155243874,-0.01352152600884438,0.004933357238769531,0.005872666835784912,0.003159940242767334,XArbitraryZVertical,0.2913194696503719,-0.5842567620182784,0.7199031023640954,0.2356193435998182,-0.694767951965332,0.7039355039596558,-0.1475540101528168,0,0,0,-1,-1,21095.701989625,unknown,2,2025-04-21T17:00:47.567+03:00,2025-04-20T21:57:49.637+03:00,6869,0.9902488,0,0,5622.382,5,6,2025-04-21T17:00:39.829+03:00,766936814.1330497,0,-39.12,100.2019,1,0.3,2025-04-21T16:59:59.105+03:00,92.00000000000001,1.533333333333333,2025-04-21T12:30:07.995+03:00,0.02023345852159405,0
2025-04-21T17:00:51.163+03:00,1745244050.777066,40.95225368581861,29.14027810012393,76.51794,-1,-1,-1,-1,30,26.17599130966446,-9999,21099.292866375,-0.6867828369140625,0.7141265869140625,-0.143890380859375,21099.28782825,1.865988768079551,-1.360914276348253,-0.780656534205137,0.04748205468058586,0.02106839790940285,-0.02002473175525665,0.007010102272033691,0.01358479261398315,0.001656234264373779,XArbitraryZVertical,0.2913440406167156,-0.5840456271081937,0.7200432949437051,0.235684019035519,-0.694861114025116,0.7037460207939148,-0.1480187177658081,0,0,0,-1,-1,21095.701989625,unknown,2,2025-04-21T17:00:47.567+03:00,2025-04-20T21:57:49.637+03:00,6869,0.9902488,0,0,5622.382,5,6,2025-04-21T17:00:39.829+03:00,766936814.1330497,0,-39.12,100.2019,1,0.3,2025-04-21T16:59:59.105+03:00,92.00000000000001,1.533333333333333,2025-04-21T12:30:07.995+03:00,0.02023345852159405,0
2025-04-21T17:00:51.173+03:00,1745244050.777066,40.95225368581861,29.14027810012393,76.51794,-1,-1,-1,-1,30,26.17599130966446,-9999,21099.302942375,-0.6868133544921875,0.7124176025390625,-0.1456756591796875,21099.297904375,1.866613523505176,-1.360290428412661,-0.7803498642126721,0.0536360889673233,0.01770056411623955,-0.0212700255215168,0.008379936218261719,0.01245987415313721,0.004103183746337891,XArbitraryZVertical,0.2913969302415972,-0.5838143530485481,0.7201911481319678,0.2357398874515591,-0.6949796676635742,0.703528106212616,-0.1484972536563873,0,0,0,-1,-1,21095.701989625,unknown,2,2025-04-21T17:00:47.567+03:00,2025-04-20T21:57:49.637+03:00,6869,0.9902488,0,0,5622.382,5,6,2025-04-21T17:00:39.829+03:00,766936814.1330497,0,-39.12,100.2019,1,0.3,2025-04-21T16:59:59.105+03:00,92.00000000000001,1.533333333333333,2025-04-21T12:30:07.995+03:00,0.02023345852159405,0
2025-04-21T17:00:51.183+03:00,1745244050.777066,40.95225368581861,29.14027810012393,76.51794,-1,-1,-1,-1,30,26.17599130966446,-9999,21099.313018375,-0.685455322265625,0.709197998046875,-0.1469573974609375,21099.307980375,1.867312581200613,-1.359634142736807,-0.7800261427843531,0.05784947425127029,0.01607763208448887,-0.02021261863410473,0.007925093173980713,0.00950092077255249,0.005141019821166992,XArbitraryZVertical,0.2914649827268525,-0.5835645967021865,0.7203516265891213,0.2357837421895329,-0.6951046586036682,0.703298032283783,-0.1490010470151901,0,0,0,-1,-1,21095.701989625,unknown,2,2025-04-21T17:00:47.567+03:00,2025-04-20T21:57:49.637+03:00,6869,0.9902488,0,0,5622.382,5,6,2025-04-21T17:00:39.829+03:00,766936814.1330497,0,-39.12,100.2019,1,0.3,2025-04-21T16:59:59.105+03:00,92.00000000000001,1.533333333333333,2025-04-21T12:30:07.995+03:00,0.02023345852159405,0
2025-04-21T17:00:51.194+03:00,1745244050.777066,40.95225368581861,29.14027810012393,76.51794,-1,-1,-1,-1,30,26.17599130966446,-9999,21099.323094375,-0.6869354248046875,0.7060546875,-0.14483642578125,21099.318056375,1.868022840115071,-1.359012573198592,-0.779668558070345,0.05648646876215935,0.01311806216835976,-0.01854761131107807,0.009787142276763916,0.007527351379394531,0.002452075481414795,XArbitraryZVertical,0.2915591194661762,-0.5833097922459777,0.7205066400397447,0.2358242185284974,-0.6952577233314514,0.7030437588691711,-0.1494859308004379,0,0,0,-1,-1,21095.701989625,unknown,2,2025-04-21T17:00:47.567+03:00,2025-04-20T21:57:49.637+03:00,6869,0.9902488,0,0,5622.382,5,6,2025-04-21T17:00:39.829+03:00,766936814.1330497,0,-39.12,100.2019,1,0.3,2025-04-21T16:59:59.105+03:00,92.00000000000001,1.533333333333333,2025-04-21T12:30:07.995+03:00,0.02023345852159405,0
2025-04-21T17:00:51.203+03:00,1745244050.777066,40.95225368581861,29.14027810012393,76.51794,-1,-1,-1,-1,30,26.17599130966446,-9999,21099.333170375,-0.688720703125,0.7041473388671875,-0.144073486328125,21099.328132375,1.86864946069456,-1.358487655080227,-0.7793602355024997,0.05153938382863998,0.01394577138125896,-0.01753840409219265,0.008943915367126465,0.004359245300292969,0.004281759262084961,XArbitraryZVertical,0.2916482448108174,-0.5830892113039392,0.7206404601963534,0.235850720042998,-0.695391058921814,0.7028244733810425,-0.1498965471982956,0,0,0,-1,-1,21095.701989625,unknown,2,2025-04-21T17:00:47.567+03:00,2025-04-20T21:57:49.637+03:00,6869,0.9902488,0,0,5622.382,5,6,2025-04-21T17:00:39.829+03:00,766936814.1330497,0,-39.12,100.2019,1,0.3,2025-04-21T16:59:59.105+03:00,92.00000000000001,1.533333333333333,2025-04-21T12:30:07.995+03:00,0.02023345852159405,0
2025-04-21T17:00:51.214+03:00,1745244050.777066,40.95225368581861,29.14027810012393,76.51794,-1,-1,-1,-1,30,26.17599130966446,-9999,21099.343247375,-0.6896209716796875,0.702789306640625,-0.1446075439453125,21099.338208375,1.869235078628994,-1.358002817547616,-0.779117911768577,0.04924533516168594,0.01190472580492496,-0.01557006314396858,0.008152604103088379,0.002349615097045898,0.006501197814941406,XArbitraryZVertical,0.291719310068876,-0.5828936621991444,0.7207671999937612,0.2358589295128864,-0.6954847574234009,0.7026520371437073,-0.1502696424722672,0,0,0,-1,-1,21095.701989625,unknown,2,2025-04-21T17:00:47.567+03:00,2025-04-20T21:57:49.637+03:00,6869,0.9902488,0,0,5622.382,5,6,2025-04-21T17:00:39.829+03:00,766936814.1330497,0,-39.12,100.2019,1,0.3,2025-04-21T16:59:59.105+03:00,92.00000000000001,1.533333333333333,2025-04-21T12:30:07.995+03:00,0.02023345852159405,0
2025-04-21T17:00:51.223+03:00,1745244050.777066,40.95225368581861,29.14027810012393,76.51794,-1,-1,-1,-1,30,26.17599130966446,-9999,21099.353323375,-0.6895751953125,0.7045135498046875,-0.1462860107421875,21099.348285375,1.869767971595812,-1.357581604399689,-0.7789114923849919,0.04374796897172928,0.01014910265803337,-0.0133965564891696,0.005774378776550293,0.0005891919136047363,0.006183922290802002,XArbitraryZVertical,0.2917867024420347,-0.5827210997960754,0.7208804296254714,0.2358560285305655,-0.6955631971359253,0.7025051712989807,-0.1505932807922363,0,0,0,-1,-1,21095.701989625,unknown,2,2025-04-21T17:00:47.567+03:00,2025-04-20T21:57:49.637+03:00,6869,0.9902488,0,0,5622.382,5,6,2025-04-21T17:00:39.829+03:00,766936814.1330497,0,-39.12,100.2019,1,0.3,2025-04-21T16:59:59.105+03:00,92.00000000000001,1.533333333333333,2025-04-21T12:30:07.995+03:00,0.02023345852159405,0
2025-04-21T17:00:51.233+03:00,1745244050.777066,40.95225368581861,29.14027810012393,76.51794,-1,-1,-1,-1,30,26.17599130966446,-9999,21099.363399375,-0.6911468505859375,0.7042694091796875,-0.148284912109375,21099.358361375,1.870343723786857,-1.357082608364387,-0.7787529897892554,0.04743697866797447,0.01326819788664579,-0.01052779983729124,0.005823075771331787,0.0014495849609375,0.00583745539188385,XArbitraryZVertical,0.2918237168424567,-0.5825435273687308,0.7210125827111202,0.2358445566580614,-0.6955965757369995,0.7023923397064209,-0.1509639173746109,0,0,0,-1,-1,21095.701989625,unknown,2,2025-04-21T17:00:47.567+03:00,2025-04-20T21:57:49.637+03:00,6869,0.9902488,0,0,5622.382,5,6,2025-04-21T17:00:39.829+03:00,766936814.1330497,0,-39.12,100.2019,1,0.3,2025-04-21T16:59:59.105+03:00,92.00000000000001,1.533333333333333,2025-04-21T12:30:07.995+03:00,0.02023345852159405,0
2025-04-21T17:00:51.243+03:00,1745244050.777066,40.95225368581861,29.14027810012393,76.51794,-1,-1,-1,-1,30,26.17599130966446,-9999,21099.373475375,-0.690887451171875,0.70709228515625,-0.1450958251953125,21099.368437375,1.870934276516963,-1.356547811610618,-0.7786463159755773,0.04749936610460281,0.01259608194231987,-0.01245363242924213,0.004808366298675537,0.002059578895568848,0.003280416131019592,XArbitraryZVertical,0.2918359309463124,-0.5823709141264873,0.7211545460092006,0.2358216157550701,-0.6955888867378235,0.7023164033889771,-0.1513518095016479,0,0,0,-1,-1,21095.701989625,unknown,2,2025-04-21T17:00:47.567+03:00,2025-04-20T21:57:49.637+03:00,6869,0.9902488,0,0,5622.382,5,6,2025-04-21T17:00:39.829+03:00,766936814.1330497,0,-39.12,100.2019,1,0.3,2025-04-21T16:59:59.105+03:00,92.00000000000001,1.533333333333333,2025-04-21T12:30:07.995+03:00,0.02023345852159405,0
2025-04-21T17:00:51.254+03:00,1745244050.777066,40.95225368581861,29.14027810012393,76.51794,-1,-1,-1,-1,30,26.17599130966446,-9999,21099.383551375,-0.69183349609375,0.7066802978515625,-0.1435394287109375,21099.378513375,1.871528143559605,-1.356002776823656,-0.7785286690537547,0.04849272593855858,0.01771947182714939,-0.01157585345208645,0.00372314453125,0.004065990447998047,0.005691289901733398,XArbitraryZVertical,0.2918486592499615,-0.5821941991587249,0.7212978723770138,0.2358040729500869,-0.695587158203125,0.7022326588630676,-0.1517485529184341,0,0,0,-1,-1,21095.701989625,unknown,2,2025-04-21T17:00:47.567+03:00,2025-04-20T21:57:49.637+03:00,6869,0.9902488,0,0,5622.382,5,6,2025-04-21T17:00:39.829+03:00,766936814.1330497,0,-39.12,100.2019,1,0.3,2025-04-21T16:59:59.105+03:00,92.00000000000001,1.533333333333333,2025-04-21T12:30:07.995+03:00,0.02023345852159405,0
2025-04-21T17:00:51.263+03:00,1745244050.777066,40.95225368581861,29.14027810012393,76.51794,-1,-1,-1,-1,30,26.17599130966446,-9999,21099.393627375,-0.69500732421875,0.7019195556640625,-0.1444091796875,21099.388589375,1.872118814489773,-1.355395472519807,-0.7784042778905997,0.04580026865005493,0.02397390641272068,-0.009795530699193478,0.00507432222366333,0.005924642086029053,0.007841333746910095,XArbitraryZVertical,0.2918399726166989,-0.5820091085280725,0.7214495775221706,0.2358079084370122,-0.6955803632736206,0.7021440863609314,-0.1521896570920944,0,0,0,-1,-1,21095.701989625,unknown,2,2025-04-21T17:00:47.567+03:00,2025-04-20T21:57:49.637+03:00,6869,0.9902488,0,0,5622.382,5,6,2025-04-21T17:00:39.829+03:00,766936814.1330497,0,-39.12,100.2019,1,0.3,2025-04-21T16:59:59.105+03:00,92.00000000000001,1.533333333333333,2025-04-21T12:30:07.995+03:00,0.02023345852159405,0
2025-04-21T17:00:51.273+03:00,1745244050.777066,40.95225368581861,29.14027810012393,76.51794,-1,-1,-1,-1,30,26.17599130966446,-9999,21099.403704375,-0.695709228515625,0.705963134765625,-0.142730712890625,21099.398665375,1.872734866179189,-1.35473667334962,-0.7782831066714605,0.049209114164114,0.02446073107421398,-0.01162165962159634,0.001684784889221191,0.000548243522644043,0.008684039115905762,XArbitraryZVertical,0.2918190701164792,-0.5818149055063467,0.7216119100228086,0.2358161683471187,-0.6955629587173462,0.7020578384399414,-0.1526660919189453,0,0,0,-1,-1,21095.701989625,unknown,2,2025-04-21T17:00:47.567+03:00,2025-04-20T21:57:49.637+03:00,6869,0.9902488,0,0,5622.382,5,6,2025-04-21T17:00:39.829+03:00,766936814.1330497,0,-39.12,100.2019,1,0.3,2025-04-21T16:59:59.105+03:00,92.00000000000001,1.533333333333333,2025-04-21T12:30:07.995+03:00,0.02023345852159405,0
2025-04-21T17:00:51.284+03:00,1745244050.777066,40.95225368581861,29.14027810012393,76.51794,-1,-1,-1,-1,30,26.17599130966446,-9999,21099.413780375,-0.694244384765625,0.7053375244140625,-0.14605712890625,21099.408742375,1.873371503749448,-1.354053681633276,-0.7781295066711276,0.05404601618647575,0.02595536410808563,-0.01153187826275826,-0.0005421638488769531,0.00146639347076416,0.01018927991390228,XArbitraryZVertical,0.2918053013950851,-0.5816076946313589,0.7217785376494112,0.2358344268030248,-0.6955638527870178,0.7019484043121338,-0.1531643122434616,0,0,0,-1,-1,21095.701989625,unknown,2,2025-04-21T17:00:47.567+03:00,2025-04-20T21:57:49.637+03:00,6869,0.9902488,0,0,5622.382,5,6,2025-04-21T17:00:39.829+03:00,766936814.1330497,0,-39.12,100.2019,1,0.3,2025-04-21T16:59:59.105+03:00,92.00000000000001,1.533333333333333,2025-04-21T12:30:07.995+03:00,0.02023345852159405,0
2025-04-21T17:00:51.294+03:00,1745244050.777066,40.95225368581861,29.14027810012393,76.51794,-1,-1,-1,-1,30,26.17599130966446,-9999,21099.423856375,-0.692901611328125,0.69927978515625,-0.1552276611328125,21099.418818375,1.873954396626733,-1.353413195054204,-0.7779675398606037,0.04196831583976746,0.02414175122976303,-0.01051934435963631,0.001271069049835205,0.004663944244384766,0.01033884286880493,XArbitraryZVertical,0.2917937480931848,-0.5814114467572806,0.721932182687646,0.2358621565967954,-0.6955764889717102,0.7018330693244934,-0.1536342799663544,0,0,0,-1,-1,21095.701989625,unknown,2,2025-04-21T17:00:47.567+03:00,2025-04-20T21:57:49.637+03:00,6869,0.9902488,0,0,5622.382,5,6,2025-04-21T17:00:39.829+03:00,766936814.1330497,0,-39.12,100.2019,1,0.3,2025-04-21T16:59:59.105+03:00,92.00000000000001,1.533333333333333,2025-04-21T12:30:07.995+03:00,0.02023345852159405,0
2025-04-21T17:00:51.304+03:00,1745244050.777066,40.95225368581861,29.14027810012393,76.51794,-1,-1,-1,-1,30,26.17599130966446,-9999,21099.433932375,-0.6815185546875,0.70050048828125,-0.1545257568359375,21099.428894375,1.874402853130261,-1.352959281139969,-0.7778555275571489,0.0304278377443552,0.00656575383618474,-0.00557035906240344,0.002071380615234375,-0.0007647275924682617,0.002645388245582581,XArbitraryZVertical,0.2917949342358647,-0.5812677875344314,0.7220453846092159,0.2358680043783317,-0.6955833435058594,0.7017532587051392,-0.153966948390007,0,0,0,-1,-1,21095.701989625,unknown,2,2025-04-21T17:00:47.567+03:00,2025-04-20T21:57:49.637+03:00,6869,0.9902488,0,0,5622.382,5,6,2025-04-21T17:00:39.829+03:00,766936814.1330497,0,-39.12,100.2019,1,0.3,2025-04-21T16:59:59.105+03:00,92.00000000000001,1.533333333333333,2025-04-21T12:30:07.995+03:00,0.02023345852159405,0
2025-04-21T17:00:51.314+03:00,1745244050.777066,40.95225368581861,29.14027810012393,76.51794,-1,-1,-1,-1,30,26.17599130966446,-9999,21099.444008375,-0.6822509765625,0.696014404296875,-0.141021728515625,21099.438970375,1.874703706879437,-1.352722777131536,-0.7777831607454562,0.02091795578598976,0.006796916015446186,-0.005792999640107155,0.008661270141601562,-0.002742528915405273,-0.003114700317382812,XArbitraryZVertical,0.2918192741520463,-0.5811800631745495,0.7221116535944261,0.2358515933289737,-0.6955966949462891,0.7017017006874084,-0.1541424840688705,0,0,0,-1,-1,21095.701989625,unknown,2,2025-04-21T17:00:47.567+03:00,2025-04-20T21:57:49.637+03:00,6869,0.9902488,0,0,5622.382,5,6,2025-04-21T17:00:39.829+03:00,766936814.1330497,0,-39.12,100.2019,1,0.3,2025-04-21T16:59:59.105+03:00,92.00000000000001,1.533333333333333,2025-04-21T12:30:07.995+03:00,0.02023345852159405,0
2025-04-21T17:00:51.324+03:00,1745244050.777066,40.95225368581861,29.14027810012393,76.51794,-1,-1,-1,-1,30,26.17599130966446,-9999,21099.454084375,-0.6937255859375,0.685028076171875,-0.14642333984375,21099.449046375,1.874805165425324,-1.352515421433948,-0.7777874380158835,-0.00185133854392916,0.01771367900073528,0.002561303786933422,0.01683557033538818,-0.002135157585144043,0.00973944365978241,XArbitraryZVertical,0.2917725412895121,-0.5811417560383244,0.7221541135609236,0.2358739105012311,-0.6955618262290955,0.701704740524292,-0.1542860865592957,0,0,0,-1,-1,21095.701989625,unknown,2,2025-04-21T17:00:47.567+03:00,2025-04-20T21:57:49.637+03:00,6869,0.9902488,0,0,5622.382,5,6,2025-04-21T17:00:39.829+03:00,766936814.1330497,0,-39.12,100.2019,1,0.3,2025-04-21T16:59:59.105+03:00,92.00000000000001,1.533333333333333,2025-04-21T12:30:07.995+03:00,0.02023345852159405,0
2025-04-21T17:00:51.334+03:00,1745244050.777066,40.95225368581861,29.14027810012393,76.51794,-1,-1,-1,-1,30,26.17599130966446,-9999,21099.464161375,-0.6913604736328125,0.6907806396484375,-0.1410980224609375,21099.459122375,1.874666507575367,-1.352506125539975,-0.7778771779146768,-0.008767567574977875,0.01160385552793741,0.006620493717491627,0.004870772361755371,-0.01378059387207031,0.01099872589111328,XArbitraryZVertical,0.2917011798535231,-0.5811806731053887,0.7221437723448577,0.2358977682131653,-0.6954988241195679,0.701768696308136,-0.154278889298439,0,0,0,-1,-1,21095.701989625,unknown,2,2025-04-21T17:00:47.567+03:00,2025-04-20T21:57:49.637+03:00,6869,0.9902488,0,0,5622.382,5,6,2025-04-21T17:00:39.829+03:00,766936814.1330497,0,-39.12,100.2019,1,0.3,2025-04-21T16:59:59.105+03:00,92.00000000000001,1.533333333333333,2025-04-21T12:30:07.995+03:00,0.02023345852159405,0
2025-04-21T17:00:51.344+03:00,1745244050.777066,40.95225368581861,29.14027810012393,76.51794,-1,-1,-1,-1,30,26.17599130966446,-9999,21099.474237375,-0.6868743896484375,0.6954803466796875,-0.135223388671875,21099.469199375,1.874518221080544,-1.352489953234044,-0.7780312399838373,-0.006896630860865116,0.02221368812024593,0.009385021403431892,0.0008412003517150879,-0.01466846466064453,0.008255228400230408,XArbitraryZVertical,0.2916045774059852,-0.5812343764588488,0.7221367062142927,0.2359066488901414,-0.6953908205032349,0.7018784284591675,-0.154266744852066,0,0,0,-1,-1,21095.701989625,unknown,2,2025-04-21T17:00:47.567+03:00,2025-04-20T21:57:49.637+03:00,6869,0.9902488,0,0,5622.382,5,6,2025-04-21T17:00:39.829+03:00,766936814.1330497,0,-39.12,100.2019,1,0.3,2025-04-21T16:59:59.105+03:00,92.00000000000001,1.533333333333333,2025-04-21T12:30:07.995+03:00,0.02023345852159405,0
2025-04-21T17:00:51.354+03:00,1745244050.777066,40.95225368581861,29.14027810012393,76.51794,-1,-1,-1,-1,30,26.17599130966446,-9999,21099.484313375,-0.69775390625,0.6903228759765625,-0.142913818359375,21099.479275375,1.874374240359607,-1.35229083927741,-0.778192141646799,-0.01022824458777905,0.04525988548994064,0.0149971004575491,0.008909463882446289,-0.006680667400360107,0.01923345029354095,XArbitraryZVertical,0.2914410623372212,-0.5812673614253343,0.7221571520511777,0.2359649046551722,-0.6952499151229858,0.7019930481910706,-0.1543807238340378,0,0,0,-1,-1,21095.701989625,unknown,2,2025-04-21T17:00:47.567+03:00,2025-04-20T21:57:49.637+03:00,6869,0.9902488,0,0,5622.382,5,6,2025-04-21T17:00:39.829+03:00,766936814.1330497,0,-39.12,100.2019,1,0.3,2025-04-21T16:59:59.105+03:00,92.00000000000001,1.533333333333333,2025-04-21T12:30:07.995+03:00,0.02023345852159405,0
2025-04-21T17:00:51.364+03:00,1745244050.777066,40.95225368581861,29.14027810012393,76.51794,-1,-1,-1,-1,30,26.17599130966446,-9999,21099.494389375,-0.6992034912109375,0.6949462890625,-0.1483001708984375,21099.489351375,1.874227904168002,-1.351957516294183,-0.7783794323792987,-0.00634788628667593,0.04648054763674736,0.01638680510222912,0.002122640609741211,-0.009621679782867432,0.01545411348342896,XArbitraryZVertical,0.2912202417981459,-0.5812906463001282,0.722198201926916,0.2360545158311331,-0.6950700283050537,0.7021263837814331,-0.1545839160680771,0,0,0,-1,-1,21095.701989625,unknown,2,2025-04-21T17:00:47.567+03:00,2025-04-20T21:57:49.637+03:00,6869,0.9902488,0,0,5622.382,5,6,2025-04-21T17:00:39.829+03:00,766936814.1330497,0,-39.12,100.2019,1,0.3,2025-04-21T16:59:59.105+03:00,92.00000000000001,1.533333333333333,2025-04-21T12:30:07.995+03:00,0.02023345852159405,0
2025-04-21T17:00:51.374+03:00,1745244050.777066,40.95225368581861,29.14027810012393,76.51794,-1,-1,-1,-1,30,26.17599130966446,-9999,21099.504465375,-0.6894073486328125,0.7001190185546875,-0.15264892578125,21099.499427375,1.874093375203693,-1.351639644012562,-0.7785741103574472,-0.01506840717047453,0.04120589047670364,0.01248340960592031,-0.005964040756225586,-0.01009595394134521,0.007588669657707214,XArbitraryZVertical,0.2910061181248971,-0.5813156394565017,0.7222387381583157,0.236133055136224,-0.6948874592781067,0.7022650241851807,-0.1547751277685165,0,0,0,-1,-1,21095.701989625,unknown,2,2025-04-21T17:00:47.567+03:00,2025-04-20T21:57:49.637+03:00,6869,0.9902488,0,0,5622.382,5,6,2025-04-21T17:00:39.829+03:00,766936814.1330497,0,-39.12,100.2019,1,0.3,2025-04-21T16:59:59.105+03:00,92.00000000000001,1.533333333333333,2025-04-21T12:30:07.995+03:00,0.02023345852159405,0
2025-04-21T17:00:51.385+03:00,1745244050.777066,40.95225368581861,29.14027810012393,76.51794,-1,-1,-1,-1,30,26.17599130966446,-9999,21099.514541375,-0.688720703125,0.7011260986328125,-0.161773681640625,21099.509503375,1.873896571743055,-1.351424090772841,-0.7787072363848854,-0.01580257341265678,0.03206918388605118,0.007247135974466801,0.001525282859802246,-0.003309071063995361,0.005200445652008057,XArbitraryZVertical,0.2908299746127241,-0.5813481473712838,0.7222537069067352,0.236223794400883,-0.6947625875473022,0.7023597955703735,-0.1549045145511627,0,0,0,-1,-1,21095.701989625,unknown,2,2025-04-21T17:00:47.567+03:00,2025-04-20T21:57:49.637+03:00,6869,0.9902488,0,0,5622.382,5,6,2025-04-21T17:00:39.829+03:00,766936814.1330497,0,-39.12,100.2019,1,0.3,2025-04-21T16:59:59.105+03:00,92.00000000000001,1.533333333333333,2025-04-21T12:30:07.995+03:00,0.02023345852159405,0
2025-04-21T17:00:51.401+03:00,1745244050.777066,40.95225368581861,29.14027810012393,76.51794,-1,-1,-1,-1,30,26.17599130966446,-9999,21099.524618375,-0.694854736328125,0.7026824951171875,-0.16455078125,21099.519579375,1.873734767908945,-1.351282542351204,-0.7787901941302282,-0.01492958981543779,0.01527821831405163,0.0006515508284792304,0.006863415241241455,-0.001735448837280273,-0.003319904208183289,XArbitraryZVertical,0.2907061448518495,-0.5813732454528819,0.72225949563987,0.2362967882568586,-0.6946837902069092,0.7024188637733459,-0.154990166425705,0,0,0,-1,-1,21095.701989625,unknown,2,2025-04-21T17:00:47.567+03:00,2025-04-20T21:57:49.637+03:00,6869,0.9902488,0,0,5622.382,5,6,2025-04-21T17:00:39.829+03:00,766936814.1330497,0,-39.12,100.2019,1,0.3,2025-04-21T16:59:59.105+03:00,92.00000000000001,1.533333333333333,2025-04-21T12:30:07.995+03:00,0.02023345852159405,0
2025-04-21T17:00:51.405+03:00,1745244050.777066,40.95225368581861,29.14027810012393,76.51794,-1,-1,-1,-1,30,26.17599130966446,-9999,21099.534694375,-0.69976806640625,0.7093048095703125,-0.1598968505859375,21099.529656375,1.87352212203978,-1.351391040764202,-0.7788424459287374,-0.009339149110019207,-0.001524796709418297,-0.00791453942656517,0.002816081047058105,-0.001116514205932617,-0.009827181696891785,XArbitraryZVertical,0.2906673385727241,-0.5814284923703618,0.7222213211153583,0.236325280149072,-0.6946647763252258,0.7024560570716858,-0.1549068093299866,0,0,0,-1,-1,21095.701989625,unknown,2,2025-04-21T17:00:47.567+03:00,2025-04-20T21:57:49.637+03:00,6869,0.9902488,0,0,5622.382,5,6,2025-04-21T17:00:39.829+03:00,766936814.1330497,0,-39.12,100.2019,1,0.3,2025-04-21T16:59:59.105+03:00,92.00000000000001,1.533333333333333,2025-04-21T12:30:07.995+03:00,0.02023345852159405,0
2025-04-21T17:00:51.415+03:00,1745244050.777066,40.95225368581861,29.14027810012393,76.51794,-1,-1,-1,-1,30,26.17599130966446,-9999,21099.544770375,-0.7003021240234375,0.703338623046875,-0.153717041015625,21099.539732375,1.8733022215398,-1.351618023769848,-0.7787144175031465,-0.008775890804827213,-0.004275575280189514,-0.01613358780741692,-0.003423869609832764,0.00550544261932373,-0.007768034934997559,XArbitraryZVertical,0.2907249560224257,-0.5814590672654061,0.7221557005744452,0.2363798790187795,-0.6947878003120422,0.7023649215698242,-0.154768705368042,0,0,0,-1,-1,21095.701989625,unknown,2,2025-04-21T17:00:47.567+03:00,2025-04-20T21:57:49.637+03:00,6869,0.9902488,0,0,5622.382,5,6,2025-04-21T17:00:39.829+03:00,766936814.1330497,0,-39.12,100.2019,1,0.3,2025-04-21T16:59:59.105+03:00,92.00000000000001,1.533333333333333,2025-04-21T12:30:07.995+03:00,0.02023345852159405,0
2025-04-21T17:00:51.425+03:00,1745244050.777066,40.95225368581861,29.14027810012393,76.51794,-1,-1,-1,-1,30,26.17599130966446,-9999,21099.554846375,-0.702972412109375,0.70050048828125,-0.1505889892578125,21099.549808375,1.873045044121895,-1.351850985766875,-0.7785155085224724,-0.01003390084952116,0.001380246132612228,-0.01828432269394398,-0.005448639392852783,0.004945158958435059,-0.001780763268470764,XArbitraryZVertical,0.2907957944111699,-0.5814801764498295,0.7220810965368892,0.2364690100542033,-0.694960355758667,0.7022233009338379,-0.1546372175216675,0,0,0,-1,-1,21095.701989625,unknown,2,2025-04-21T17:00:47.567+03:00,2025-04-20T21:57:49.637+03:00,6869,0.9902488,0,0,5622.382,5,6,2025-04-21T17:00:39.829+03:00,766936814.1330497,0,-39.12,100.2019,1,0.3,2025-04-21T16:59:59.105+03:00,92.00000000000001,1.533333333333333,2025-04-21T12:30:07.995+03:00,0.02023345852159405,0
2025-04-21T17:00:51.435+03:00,1745244050.777066,40.95225368581861,29.14027810012393,76.51794,-1,-1,-1,-1,30,26.17599130966446,-9999,21099.564922375,-0.6984710693359375,0.7026519775390625,-0.1508331298828125,21099.559884375,1.872771651202875,-1.352056511529666,-0.7783546451410315,-0.005437817890197039,0.004533961415290833,-0.02457471005618572,-0.007107257843017578,-0.001730501651763916,0.003655076026916504,XArbitraryZVertical,0.2908403716823688,-0.5815087740395946,0.7220103996331941,0.2365593214332959,-0.6951022148132324,0.7021087408065796,-0.1545188426971436,0,0,0,-1,-1,21095.701989625,unknown,2,2025-04-21T17:00:47.567+03:00,2025-04-20T21:57:49.637+03:00,6869,0.9902488,0,0,5622.382,5,6,2025-04-21T17:00:39.829+03:00,766936814.1330497,0,-39.12,100.2019,1,0.3,2025-04-21T16:59:59.105+03:00,92.00000000000001,1.533333333333333,2025-04-21T12:30:07.995+03:00,0.02023345852159405,0
2025-04-21T17:00:51.445+03:00,1745244050.777066,40.95225368581861,29.14027810012393,76.51794,-1,-1,-1,-1,30,26.17599130966446,-9999,21099.574998375,-0.6921844482421875,0.6988067626953125,-0.1497955322265625,21099.569960375,1.872544134892202,-1.352236646364281,-0.7781272765395651,-0.006181905046105385,0.004460724536329508,-0.02129942178726196,-0.0053977370262146,0.0001099109649658203,0.00402224063873291,XArbitraryZVertical,0.2909096092418323,-0.581513091850917,0.7219453716865234,0.2366620486478135,-0.6952858567237854,0.7019468545913696,-0.154428243637085,0,0,0,-1,-1,21095.701989625,unknown,2,2025-04-21T17:00:47.567+03:00,2025-04-20T21:57:49.637+03:00,6869,0.9902488,0,0,5622.382,5,6,2025-04-21T17:00:39.829+03:00,766936814.1330497,0,-39.12,100.2019,1,0.3,2025-04-21T16:59:59.105+03:00,92.00000000000001,1.533333333333333,2025-04-21T12:30:07.995+03:00,0.02023345852159405,0
2025-04-21T17:00:51.455+03:00,1745244050.777066,40.95225368581861,29.14027810012393,76.51794,-1,-1,-1,-1,30,26.17599130966446,-9999,21099.585075375,-0.6912384033203125,0.6943817138671875,-0.150634765625,21099.580037375,1.872335694357692,-1.352357379888733,-0.7778875307775711,-0.007749175652861595,0.01043792348355055,-0.01857474073767662,0.0009497404098510742,-0.001046836376190186,0.004340946674346924,XArbitraryZVertical,0.2909667707215534,-0.581504902159812,0.7218905573604194,0.2367791472657832,-0.6954687833786011,0.7017760872840881,-0.1543807685375214,0,0,0,-1,-1,21095.701989625,unknown,2,2025-04-21T17:00:47.567+03:00,2025-04-20T21:57:49.637+03:00,6869,0.9902488,0,0,5622.382,5,6,2025-04-21T17:00:39.829+03:00,766936814.1330497,0,-39.12,100.2019,1,0.3,2025-04-21T16:59:59.105+03:00,92.00000000000001,1.533333333333333,2025-04-21T12:30:07.995+03:00,0.02023345852159405,0
2025-04-21T17:00:51.465+03:00,1745244050.777066,40.95225368581861,29.14027810012393,76.51794,-1,-1,-1,-1,30,26.17599130966446,-9999,21099.595151375,-0.6934814453125,0.693115234375,-0.152130126953125,21099.590113375,1.872161042718467,-1.352385575559333,-0.7777611408617753,-0.00943482294678688,0.00840100459754467,-0.01102514564990997,0.00496220588684082,-0.00585484504699707,0.004477843642234802,XArbitraryZVertical,0.2909652585033929,-0.5815058203893367,0.7218591482500057,0.2368746194257147,-0.6955597996711731,0.7016860246658325,-0.1543803960084915,0,0,0,-1,-1,21095.701989625,unknown,2,2025-04-21T17:00:47.567+03:00,2025-04-20T21:57:49.637+03:00,6869,0.9902488,0,0,5622.382,5,6,2025-04-21T17:00:39.829+03:00,766936814.1330497,0,-39.12,100.2019,1,0.3,2025-04-21T16:59:59.105+03:00,92.00000000000001,1.533333333333333,2025-04-21T12:30:07.995+03:00,0.02023345852159405,0
2025-04-21T17:00:51.475+03:00,1745244050.777066,40.95225368581861,29.14027810012393,76.51794,-1,-1,-1,-1,30,26.17599130966446,-9999,21099.605227375,-0.693328857421875,0.6961669921875,-0.1513214111328125,21099.600189375,1.87201821988381,-1.35238685889817,-0.7777033925010837,-0.008690202608704567,0.009805821813642979,-0.008889823220670223,0.003125190734863281,-0.009201109409332275,0.003356680274009705,XArbitraryZVertical,0.2909420506886271,-0.5815140367214207,0.7218390185034858,0.2369443779547409,-0.6955996155738831,0.7016448974609375,-0.1543882936239243,0,0,0,-1,-1,21095.701989625,unknown,2,2025-04-21T17:00:47.567+03:00,2025-04-20T21:57:49.637+03:00,6869,0.9902488,0,0,5622.382,5,6,2025-04-21T17:00:39.829+03:00,766936814.1330497,0,-39.12,100.2019,1,0.3,2025-04-21T16:59:59.105+03:00,92.00000000000001,1.533333333333333,2025-04-21T12:30:07.995+03:00,0.02023345852159405,0
2025-04-21T17:00:51.485+03:00,1745244050.777066,40.95225368581861,29.14027810012393,76.51794,-1,-1,-1,-1,30,26.17599130966446,-9999,21099.615303375,-0.6924285888671875,0.694549560546875,-0.1509857177734375,21099.610265375,1.871876621210295,-1.352336189628504,-0.7776621791763422,-0.01507493201643229,0.01441142614930868,-0.003145950380712748,0.001665472984313965,-0.006562530994415283,0.002497896552085876,XArbitraryZVertical,0.2908953562533776,-0.5815195521145492,0.7218274339816073,0.2370234155912202,-0.6956200003623962,0.7016155123710632,-0.1544298082590103,0,0,0,-1,-1,21095.701989625,unknown,2,2025-04-21T17:00:47.567+03:00,2025-04-20T21:57:49.637+03:00,6869,0.9902488,0,0,5622.382,5,6,2025-04-21T17:00:39.829+03:00,766936814.1330497,0,-39.12,100.2019,1,0.3,2025-04-21T16:59:59.105+03:00,92.00000000000001,1.533333333333333,2025-04-21T12:30:07.995+03:00,0.02023345852159405,0
2025-04-21T17:00:51.495+03:00,1745244050.777066,40.95225368581861,29.14027810012393,76.51794,-1,-1,-1,-1,30,26.17599130966446,-9999,21099.625379375,-0.6961822509765625,0.6963043212890625,-0.1484832763671875,21099.620341375,1.871672689540239,-1.352291882259346,-0.7776760586731358,-0.01534018386155367,0.0173795185983181,-0.002302261069417,0.003251254558563232,-0.005702674388885498,0.003396332263946533,XArbitraryZVertical,0.2908157992391292,-0.5815470072452472,0.7218104147817785,0.2371053655863681,-0.6956035494804382,0.7016254067420959,-0.1544584929943085,0,0,0,-1,-1,21095.701989625,unknown,2,2025-04-21T17:00:47.567+03:00,2025-04-20T21:57:49.637+03:00,6869,0.9902488,0,0,5622.382,5,6,2025-04-21T17:00:39.829+03:00,766936814.1330497,0,-39.12,100.2019,1,0.3,2025-04-21T16:59:59.105+03:00,92.00000000000001,1.533333333333333,2025-04-21T12:30:07.995+03:00,0.02023345852159405,0
2025-04-21T17:00:51.506+03:00,1745244050.777066,40.95225368581861,29.14027810012393,76.51794,-1,-1,-1,-1,30,26.17599130966446,-9999,21099.635455375,-0.698089599609375,0.7001495361328125,-0.15093994140625,21099.630417375,1.871558827882907,-1.352162190425847,-0.7776940116527512,-0.003377862507477403,0.02455267682671547,0.001317474292591214,0.0003350377082824707,-0.007271826267242432,0.004933401942253113,XArbitraryZVertical,0.2907303003326056,-0.5815521429667493,0.7218167369904682,0.2371784912819013,-0.6955713033676147,0.7016382217407227,-0.1545459926128387,0,0,0,-1,-1,21095.701989625,unknown,2,2025-04-21T17:00:47.567+03:00,2025-04-20T21:57:49.637+03:00,6869,0.9902488,0,0,5622.382,5,6,2025-04-21T17:00:39.829+03:00,766936814.1330497,0,-39.12,100.2019,1,0.3,2025-04-21T16:59:59.105+03:00,92.00000000000001,1.533333333333333,2025-04-21T12:30:07.995+03:00,0.02023345852159405,0
2025-04-21T17:00:51.516+03:00,1745244050.777066,40.95225368581861,29.14027810012393,76.51794,-1,-1,-1,-1,30,26.17599130966446,-9999,21099.645532375,-0.700225830078125,0.7001800537109375,-0.153472900390625,21099.640494375,1.871502088857848,-1.351972862773067,-0.7776795804611664,-0.001639883732423186,0.02561767399311066,-0.0008197124116122723,-0.001576483249664307,-0.00279080867767334,0.005296170711517334,XArbitraryZVertical,0.2906499839569122,-0.581534744981723,0.7218367284987899,0.2372585129834156,-0.6955518126487732,0.7016279101371765,-0.1546798497438431,0,0,0,-1,-1,21095.701989625,unknown,2,2025-04-21T17:00:47.567+03:00,2025-04-20T21:57:49.637+03:00,6869,0.9902488,0,0,5622.382,5,6,2025-04-21T17:00:39.829+03:00,766936814.1330497,0,-39.12,100.2019,1,0.3,2025-04-21T16:59:59.105+03:00,92.00000000000001,1.533333333333333,2025-04-21T12:30:07.995+03:00,0.02023345852159405,0
2025-04-21T17:00:51.526+03:00,1745244050.777066,40.95225368581861,29.14027810012393,76.51794,-1,-1,-1,-1,30,26.17599130966446,-9999,21099.655608375,-0.699432373046875,0.701690673828125,-0.1526641845703125,21099.650570375,1.871444469762938,-1.351761036000836,-0.7776917195669572,-0.003274931339547038,0.02387530170381069,0.003068702295422554,-0.003158807754516602,-0.0006479620933532715,0.002450942993164062,XArbitraryZVertical,0.2905530446677987,-0.5815206510093447,0.7218612891501207,0.2373369284613038,-0.6955106258392334,0.7016365528106689,-0.1548253148794174,0,0,0,-1,-1,21095.701989625,unknown,2,2025-04-21T17:00:47.567+03:00,2025-04-20T21:57:49.637+03:00,6869,0.9902488,0,0,5622.382,5,6,2025-04-21T17:00:39.829+03:00,766936814.1330497,0,-39.12,100.2019,1,0.3,2025-04-21T16:59:59.105+03:00,92.00000000000001,1.533333333333333,2025-04-21T12:30:07.995+03:00,0.02023345852159405,0
2025-04-21T17:00:51.536+03:00,1745244050.777066,40.95225368581861,29.14027810012393,76.51794,-1,-1,-1,-1,30,26.17599130966446,-9999,21099.665684375,-0.6963043212890625,0.7009124755859375,-0.1552276611328125,21099.660646375,1.871345072542292,-1.351635393146767,-0.7777188010724826,-0.006233969703316689,0.01891090348362923,-0.0003366816963534802,-0.00440216064453125,-0.0005909204483032227,0.001832231879234314,XArbitraryZVertical,0.2904703691582089,-0.5815261515044079,0.721869201728756,0.237400775888074,-0.6954727172851562,0.7016558647155762,-0.1549085974693298,0,0,0,-1,-1,21095.701989625,unknown,2,2025-04-21T17:00:47.567+03:00,2025-04-20T21:57:49.637+03:00,6869,0.9902488,0,0,5622.382,5,6,2025-04-21T17:00:39.829+03:00,766936814.1330497,0,-39.12,100.2019,1,0.3,2025-04-21T16:59:59.105+03:00,92.00000000000001,1.533333333333333,2025-04-21T12:30:07.995+03:00,0.02023345852159405,0
2025-04-21T17:00:51.546+03:00,1745244050.777066,40.95225368581861,29.14027810012393,76.51794,-1,-1,-1,-1,30,26.17599130966446,-9999,21099.675760375,-0.6967010498046875,0.7028961181640625,-0.158233642578125,21099.670722375,1.871251683000138,-1.351510239550516,-0.7777177666019263,-0.004531877115368843,0.0201655849814415,-0.002768647158518434,-0.002299845218658447,-0.0004528164863586426,0.001522764563560486,XArbitraryZVertical,0.2903983527973222,-0.581524629892939,0.7218762427203163,0.2374712355994038,-0.6954540610313416,0.7016550898551941,-0.1549957990646362,0,0,0,-1,-1,21095.701989625,unknown,2,2025-04-21T17:00:47.567+03:00,2025-04-20T21:57:49.637+03:00,6869,0.9902488,0,0,5622.382,5,6,2025-04-21T17:00:39.829+03:00,766936814.1330497,0,-39.12,100.2019,1,0.3,2025-04-21T16:59:59.105+03:00,92.00000000000001,1.533333333333333,2025-04-21T12:30:07.995+03:00,0.02023345852159405,0
2025-04-21T17:00:51.556+03:00,1745244050.777066,40.95225368581861,29.14027810012393,76.51794,-1,-1,-1,-1,30,26.17599130966446,-9999,21099.685836375,-0.6934967041015625,0.70245361328125,-0.15435791015625,21099.680798375,1.871135123427398,-1.351449299549771,-0.7776998215980616,-0.01059349719434977,0.0132994232699275,0.0001435196027159691,-0.001534104347229004,0.0002160072326660156,-0.002063751220703125,XArbitraryZVertical,0.2903480462518365,-0.581530358102611,0.721870284794112,0.2375367081091292,-0.695456862449646,0.7016423344612122,-0.15504090487957,0,0,0,-1,-1,21095.701989625,unknown,2,2025-04-21T17:00:47.567+03:00,2025-04-20T21:57:49.637+03:00,6869,0.9902488,0,0,5622.382,5,6,2025-04-21T17:00:39.829+03:00,766936814.1330497,0,-39.12,100.2019,1,0.3,2025-04-21T16:59:59.105+03:00,92.00000000000001,1.533333333333333,2025-04-21T12:30:07.995+03:00,0.02023345852159405,0
2025-04-21T17:00:51.566+03:00,1745244050.777066,40.95225368581861,29.14027810012393,76.51794,-1,-1,-1,-1,30,26.17599130966446,-9999,21099.695913375,-0.6912994384765625,0.7015380859375,-0.1502227783203125,21099.690875375,1.870982976960447,-1.351433044341696,-0.7776922797300432,-0.01342210825532675,0.01254754699766636,-0.0003027263446711004,0.0003911256790161133,0.001579403877258301,-0.001318857073783875,XArbitraryZVertical,0.2903003002383836,-0.5815488461003037,0.721854154408666,0.2375986910660896,-0.6954594254493713,0.7016369700431824,-0.1550533473491669,0,0,0,-1,-1,21095.701989625,unknown,2,2025-04-21T17:00:47.567+03:00,2025-04-20T21:57:49.637+03:00,6869,0.9902488,0,0,5622.382,5,6,2025-04-21T17:00:39.829+03:00,766936814.1330497,0,-39.12,100.2019,1,0.3,2025-04-21T16:59:59.105+03:00,92.00000000000001,1.533333333333333,2025-04-21T12:30:07.995+03:00,0.02023345852159405,0
2025-04-21T17:00:51.576+03:00,1745244050.777066,40.95225368581861,29.14027810012393,76.51794,-1,-1,-1,-1,30,26.17599130966446,-9999,21099.705989375,-0.694854736328125,0.701171875,-0.154296875,21099.700951375,1.87078517225101,-1.351449500462319,-0.7776931141530076,-0.01213313825428486,0.01752659305930138,-0.00288093276321888,0.004406213760375977,0.001105785369873047,0.0040559321641922,XArbitraryZVertical,0.2902484465250644,-0.5815796979483335,0.7218283209555852,0.237665080464459,-0.6954614520072937,0.7016375660896301,-0.1550417840480804,0,0,0,-1,-1,21095.701989625,unknown,2,2025-04-21T17:00:47.567+03:00,2025-04-20T21:57:49.637+03:00,6869,0.9902488,0,0,5622.382,5,6,2025-04-21T17:00:39.829+03:00,766936814.1330497,0,-39.12,100.2019,1,0.3,2025-04-21T16:59:59.105+03:00,92.00000000000001,1.533333333333333,2025-04-21T12:30:07.995+03:00,0.02023345852159405,0
2025-04-21T17:00:51.586+03:00,1745244050.777066,40.95225368581861,29.14027810012393,76.51794,-1,-1,-1,-1,30,26.17599130966446,-9999,21099.716065375,-0.6950836181640625,0.7026214599609375,-0.1626129150390625,21099.711027375,1.87056746569002,-1.351464415834631,-0.7776489054183171,-0.01396665722131729,0.01555911544710398,-0.004076525568962097,0.001966893672943115,-0.0001291632652282715,0.003731906414031982,XArbitraryZVertical,0.2902041859900155,-0.5816033360520849,0.721797970992397,0.2377535721352682,-0.6954941153526306,0.7016060352325439,-0.1550381779670715,0,0,0,-1,-1,21095.701989625,unknown,2,2025-04-21T17:00:47.567+03:00,2025-04-20T21:57:49.637+03:00,6869,0.9902488,0,0,5622.382,5,6,2025-04-21T17:00:39.829+03:00,766936814.1330497,0,-39.12,100.2019,1,0.3,2025-04-21T16:59:59.105+03:00,92.00000000000001,1.533333333333333,2025-04-21T12:30:07.995+03:00,0.02023345852159405,0
2025-04-21T17:00:51.596+03:00,1745244050.777066,40.95225368581861,29.14027810012393,76.51794,-1,-1,-1,-1,30,26.17599130966446,-9999,21099.726141375,-0.68853759765625,0.7000732421875,-0.1641387939453125,21099.721103375,1.870305869295295,-1.351572846019925,-0.7776223175579742,-0.01846127584576607,0.00565987965092063,-0.004801437724381685,-0.0001953840255737305,0.001736104488372803,-0.005204856395721436,XArbitraryZVertical,0.2901754891619665,-0.5816483283341332,0.721749721817719,0.2378249323094847,-0.6955291032791138,0.7015870809555054,-0.1549668163061142,0,0,0,-1,-1,21095.701989625,unknown,2,2025-04-21T17:00:47.567+03:00,2025-04-20T21:57:49.637+03:00,6869,0.9902488,0,0,5622.382,5,6,2025-04-21T17:00:39.829+03:00,766936814.1330497,0,-39.12,100.2019,1,0.3,2025-04-21T16:59:59.105+03:00,92.00000000000001,1.533333333333333,2025-04-21T12:30:07.995+03:00,0.02023345852159405,0
2025-04-21T17:00:51.606+03:00,1745244050.777066,40.95225368581861,29.14027810012393,76.51794,-1,-1,-1,-1,30,26.17599130966446,-9999,21099.736217375,-0.684326171875,0.699615478515625,-0.162506103515625,21099.731179375,1.870058828041548,-1.351746358116793,-0.7776338899191356,-0.02007082290947437,-0.002774817403405905,0.000561402877792716,0.004218041896820068,-0.0002557635307312012,-0.009874403476715088,XArbitraryZVertical,0.2901626780745863,-0.5817073489845123,0.7216957741247721,0.2378598783959742,-0.6955480575561523,0.7015953660011292,-0.1548443585634232,0,0,0,-1,-1,21095.701989625,unknown,2,2025-04-21T17:00:47.567+03:00,2025-04-20T21:57:49.637+03:00,6869,0.9902488,0,0,5622.382,5,6,2025-04-21T17:00:39.829+03:00,766936814.1330497,0,-39.12,100.2019,1,0.3,2025-04-21T16:59:59.105+03:00,92.00000000000001,1.533333333333333,2025-04-21T12:30:07.995+03:00,0.02023345852159405,0
2025-04-21T17:00:51.617+03:00,1745244050.777066,40.95225368581861,29.14027810012393,76.51794,-1,-1,-1,-1,30,26.17599130966446,-9999,21099.746293375,-0.68572998046875,0.696807861328125,-0.159820556640625,21099.741255375,1.869723583175161,-1.352062247059101,-0.7776783718313982,-0.02597158960998058,-0.009424464777112007,0.003445339854806662,0.01090461015701294,-0.001950681209564209,-0.008117258548736572,XArbitraryZVertical,0.2901653599972494,-0.5818033429134045,0.7216124311615248,0.2378747087712282,-0.6955664753913879,0.7016270756721497,-0.1546178609132767,0,0,0,-1,-1,21095.701989625,unknown,2,2025-04-21T17:00:47.567+03:00,2025-04-20T21:57:49.637+03:00,6869,0.9902488,0,0,5622.382,5,6,2025-04-21T17:00:39.829+03:00,766936814.1330497,0,-39.12,100.2019,1,0.3,2025-04-21T16:59:59.105+03:00,92.00000000000001,1.533333333333333,2025-04-21T12:30:07.995+03:00,0.02023345852159405,0
2025-04-21T17:00:51.626+03:00,1745244050.777066,40.95225368581861,29.14027810012393,76.51794,-1,-1,-1,-1,30,26.17599130966446,-9999,21099.756370375,-0.6907958984375,0.695068359375,-0.1592254638671875,21099.751332375,1.86930834933129,-1.352428412513745,-0.7777793784249951,-0.03057100065052509,-0.006559036206454039,0.00432518171146512,0.01023578643798828,-0.003228127956390381,-0.007029280066490173,XArbitraryZVertical,0.290145422928155,-0.5819293288395967,0.7215152339460359,0.2378854260667464,-0.695553719997406,0.7016990184783936,-0.1543477773666382,0,0,0,-1,-1,21095.701989625,unknown,2,2025-04-21T17:00:47.567+03:00,2025-04-20T21:57:49.637+03:00,6869,0.9902488,0,0,5622.382,5,6,2025-04-21T17:00:39.829+03:00,766936814.1330497,0,-39.12,100.2019,1,0.3,2025-04-21T16:59:59.105+03:00,92.00000000000001,1.533333333333333,2025-04-21T12:30:07.995+03:00,0.02023345852159405,0
2025-04-21T17:00:51.637+03:00,1745244050.777066,40.95225368581861,29.14027810012393,76.51794,-1,-1,-1,-1,30,26.17599130966446,-9999,21099.766446375,-0.6950531005859375,0.7009124755859375,-0.15972900390625,21099.761408375,1.868939139820472,-1.352718805420221,-0.7778917681377465,-0.02902823127806187,-0.004261794034391642,0.004971264861524105,0.006800949573516846,-0.00730597972869873,-0.004105031490325928,XArbitraryZVertical,0.2901078509621619,-0.5820421394159959,0.721435217220892,0.2378982631427808,-0.6955216526985168,0.7017790675163269,-0.154128760099411,0,0,0,-1,-1,21095.701989625,unknown,2,2025-04-21T17:00:47.567+03:00,2025-04-20T21:57:49.637+03:00,6869,0.9902488,0,0,5622.382,5,6,2025-04-21T17:00:39.829+03:00,766936814.1330497,0,-39.12,100.2019,1,0.3,2025-04-21T16:59:59.105+03:00,92.00000000000001,1.533333333333333,2025-04-21T12:30:07.995+03:00,0.02023345852159405,0
2025-04-21T17:00:51.647+03:00,1745244050.777066,40.95225368581861,29.14027810012393,76.51794,-1,-1,-1,-1,30,26.17599130966446,-9999,21099.776522375,-0.6921234130859375,0.7019500732421875,-0.16064453125,21099.771484375,1.868591191874727,-1.352989744859029,-0.7780435555720334,-0.02690515853464603,-0.000917928759008646,0.01065804623067379,0.001245439052581787,-0.002882242202758789,-0.006406962871551514,XArbitraryZVertical,0.2900572951744204,-0.582158161069142,0.7213625889132089,0.2378961457823722,-0.6954593062400818,0.7018871903419495,-0.1539172828197479,0,0,0,-1,-1,21095.701989625,unknown,2,2025-04-21T17:00:47.567+03:00,2025-04-20T21:57:49.637+03:00,6869,0.9902488,0,0,5622.382,5,6,2025-04-21T17:00:39.829+03:00,766936814.1330497,0,-39.12,100.2019,1,0.3,2025-04-21T16:59:59.105+03:00,92.00000000000001,1.533333333333333,2025-04-21T12:30:07.995+03:00,0.02023345852159405,0
2025-04-21T17:00:51.657+03:00,1745244050.777066,40.95225368581861,29.14027810012393,76.51794,-1,-1,-1,-1,30,26.17599130966446,-9999,21099.786598375,-0.69329833984375,0.700347900390625,-0.1576080322265625,21099.781560375,1.868248804819083,-1.353258454300137,-0.7782360728149486,-0.02575760334730148,-0.003169631119817495,0.01053740456700325,0.002238154411315918,0.0007799863815307617,-0.006439894437789917,XArbitraryZVertical,0.289994928367626,-0.582282012328412,0.7212931066649392,0.2378794656893572,-0.6953685283660889,0.7020243406295776,-0.1537012010812759,0,0,0,-1,-1,21095.701989625,unknown,2,2025-04-21T17:00:47.567+03:00,2025-04-20T21:57:49.637+03:00,6869,0.9902488,0,0,5622.382,5,6,2025-04-21T17:00:39.829+03:00,766936814.1330497,0,-39.12,100.2019,1,0.3,2025-04-21T16:59:59.105+03:00,92.00000000000001,1.533333333333333,2025-04-21T12:30:07.995+03:00,0.02023345852159405,0
2025-04-21T17:00:51.667+03:00,1745244050.777066,40.95225368581861,29.14027810012393,76.51794,-1,-1,-1,-1,30,26.17599130966446,-9999,21099.796674375,-0.694580078125,0.702484130859375,-0.155853271484375,21099.791636375,1.867923273299841,-1.353504495153177,-0.7783954862783381,-0.02592032216489315,0.0003217728808522224,0.01218070834875107,0.002700746059417725,-0.001744389533996582,-0.005948528647422791,XArbitraryZVertical,0.2899394429173401,-0.582393445986664,0.7212272320648296,0.2378741242927973,-0.6952971220016479,0.70213782787323,-0.1535059809684753,0,0,0,-1,-1,21095.701989625,unknown,2,2025-04-21T17:00:47.567+03:00,2025-04-20T21:57:49.637+03:00,6869,0.9902488,0,0,5622.382,5,6,2025-04-21T17:00:39.829+03:00,766936814.1330497,0,-39.12,100.2019,1,0.3,2025-04-21T16:59:59.105+03:00,92.00000000000001,1.533333333333333,2025-04-21T12:30:07.995+03:00,0.02023345852159405,0
2025-04-21T17:00:51.677+03:00,1745244050.777066,40.95225368581861,29.14027810012393,76.51794,-1,-1,-1,-1,30,26.17599130966446,-9999,21099.806751375,-0.6896209716796875,0.7105712890625,-0.1543426513671875,21099.801713375,1.86765491965934,-1.353705455383296,-0.778518453515201,-0.01906907372176647,-0.009729528799653053,0.002926223445683718,0.0004194378852844238,-0.001999735832214355,-0.002994000911712646,XArbitraryZVertical,0.2898956182093189,-0.5824832143591026,0.7211727654427215,0.2378729723616543,-0.6952436566352844,0.702225387096405,-0.1533476710319519,0,0,0,-1,-1,21095.701989625,unknown,2,2025-04-21T17:00:47.567+03:00,2025-04-20T21:57:49.637+03:00,6869,0.9902488,0,0,5622.382,5,6,2025-04-21T17:00:39.829+03:00,766936814.1330497,0,-39.12,100.2019,1,0.3,2025-04-21T16:59:59.105+03:00,92.00000000000001,1.533333333333333,2025-04-21T12:30:07.995+03:00,0.02023345852159405,0
2025-04-21T17:00:51.687+03:00,1745244050.777066,40.95225368581861,29.14027810012393,76.51794,-1,-1,-1,-1,30,26.17599130966446,-9999,21099.816827375,-0.6866302490234375,0.709014892578125,-0.1660614013671875,21099.811789375,1.867486509772631,-1.353893714982849,-0.7785664566031412,-0.01674393564462662,-0.01079539395868778,0.0005362692754715681,0.003100991249084473,0.006068527698516846,-0.000324547290802002,XArbitraryZVertical,0.2898995410185946,-0.5825405433930987,0.7211280337528723,0.2378635393605563,-0.6952396631240845,0.7022596001625061,-0.1532095372676849,0,0,0,-1,-1,21095.701989625,unknown,2,2025-04-21T17:00:47.567+03:00,2025-04-20T21:57:49.637+03:00,6869,0.9902488,0,0,5622.382,5,6,2025-04-21T17:00:39.829+03:00,766936814.1330497,0,-39.12,100.2019,1,0.3,2025-04-21T16:59:59.105+03:00,92.00000000000001,1.533333333333333,2025-04-21T12:30:07.995+03:00,0.02023345852159405,0
2025-04-21T17:00:51.707+03:00,1745244050.777066,40.95225368581861,29.14027810012393,76.51794,-1,-1,-1,-1,30,26.17599130966446,-9999,21099.826903375,-0.687957763671875,0.70391845703125,-0.1715240478515625,21099.821865375,1.867293054142914,-1.354135071976583,-0.7786244643783565,-0.0213935486972332,-0.0192211028188467,0.0001487793633714318,0.008438766002655029,0.008270263671875,-0.007947385311126709,XArbitraryZVertical,0.2899122100126575,-0.5826100031965507,0.7210731567564215,0.2378444168374645,-0.6952369213104248,0.7023008465766907,-0.1530329883098602,0,0,0,-1,-1,21095.701989625,unknown,2,2025-04-21T17:00:47.567+03:00,2025-04-20T21:57:49.637+03:00,6869,0.9902488,0,0,5622.382,5,6,2025-04-21T17:00:39.829+03:00,766936814.1330497,0,-39.12,100.2019,1,0.3,2025-04-21T16:59:59.105+03:00,92.00000000000001,1.533333333333333,2025-04-21T12:30:07.995+03:00,0.02023345852159405,0
2025-04-21T17:00:51.710+03:00,1745244050.777066,40.95225368581861,29.14027810012393,76.51794,-1,-1,-1,-1,30,26.17599130966446,-9999,21099.836979375,-0.6853179931640625,0.70147705078125,-0.1654052734375,21099.831941375,1.866970761171438,-1.354570767747423,-0.778691780514474,-0.0309874527156353,-0.02846799790859222,0.001498535857535899,0.007574141025543213,0.002744436264038086,-0.01978087425231934,XArbitraryZVertical,0.2899545495735887,-0.5827232697601682,0.7209752498078397,0.2378119664926484,-0.6952572464942932,0.7023487687110901,-0.1527199000120163,0,0,0,-1,-1,21095.701989625,unknown,2,2025-04-21T17:00:47.567+03:00,2025-04-20T21:57:49.637+03:00,6869,0.9902488,0,0,5622.382,5,6,2025-04-21T17:00:39.829+03:00,766936814.1330497,0,-39.12,100.2019,1,0.3,2025-04-21T16:59:59.105+03:00,92.00000000000001,1.533333333333333,2025-04-21T12:30:07.995+03:00,0.02023345852159405,0
2025-04-21T17:00:51.717+03:00,1745244050.777066,40.95225368581861,29.14027810012393,76.51794,-1,-1,-1,-1,30,26.17599130966446,-9999,21099.847055375,-0.6857147216796875,0.702392578125,-0.1605682373046875,21099.842017375,1.866435778867232,-1.355211733687761,-0.7787622340623401,-0.04662952944636345,-0.02745732665061951,-0.0004783285548910499,0.009424209594726562,0.0007564425468444824,-0.01570522785186768,XArbitraryZVertical,0.2900077905304042,-0.5828924799846671,0.7208225298986944,0.2377955567714494,-0.6953067779541016,0.702398955821991,-0.1522636711597443,0,0,0,-1,-1,21095.701989625,unknown,2,2025-04-21T17:00:47.567+03:00,2025-04-20T21:57:49.637+03:00,6869,0.9902488,0,0,5622.382,5,6,2025-04-21T17:00:39.829+03:00,766936814.1330497,0,-39.12,100.2019,1,0.3,2025-04-21T16:59:59.105+03:00,92.00000000000001,1.533333333333333,2025-04-21T12:30:07.995+03:00,0.02023345852159405,0
2025-04-21T17:00:51.727+03:00,1745244050.777066,40.95225368581861,29.14027810012393,76.51794,-1,-1,-1,-1,30,26.17599130966446,-9999,21099.857132375,-0.6893310546875,0.7091064453125,-0.161041259765625,21099.852094375,1.865792786391757,-1.355924379733246,-0.7788790365446907,-0.06069221720099449,-0.02940316498279572,0.003545241896063089,0.01087135076522827,-0.001951277256011963,-0.009626492857933044,XArbitraryZVertical,0.290040994058607,-0.5830959762721515,0.7206489970261638,0.2377818900625411,-0.6953348517417908,0.7024820446968079,-0.1517506092786789,0,0,0,-1,-1,21095.701989625,unknown,2,2025-04-21T17:00:47.567+03:00,2025-04-20T21:57:49.637+03:00,6869,0.9902488,0,0,5622.382,5,6,2025-04-21T17:00:39.829+03:00,766936814.1330497,0,-39.12,100.2019,1,0.3,2025-04-21T16:59:59.105+03:00,92.00000000000001,1.533333333333333,2025-04-21T12:30:07.995+03:00,0.02023345852159405,0
2025-04-21T17:00:51.737+03:00,1745244050.777066,40.95225368581861,29.14027810012393,76.51794,-1,-1,-1,-1,30,26.17599130966446,-9999,21099.867208375,-0.691192626953125,0.699859619140625,-0.1641998291015625,21099.862170375,1.864787184938836,-1.35687162699031,-0.7791395364494363,-0.09518148750066757,-0.02469656057655811,0.01351105701178312,0.006212592124938965,0.004790961742401123,-0.007852092385292053,XArbitraryZVertical,0.2900081197826206,-0.5834113119409757,0.7204062189356079,0.2377844299790989,-0.6952995657920837,0.7026674151420593,-0.1510530561208725,0,0,0,-1,-1,21095.701989625,unknown,2,2025-04-21T17:00:47.567+03:00,2025-04-20T21:57:49.637+03:00,6869,0.9902488,0,0,5622.382,5,6,2025-04-21T17:00:39.829+03:00,766936814.1330497,0,-39.12,100.2019,1,0.3,2025-04-21T16:59:59.105+03:00,92.00000000000001,1.533333333333333,2025-04-21T12:30:07.995+03:00,0.02023345852159405,0
2025-04-21T17:00:51.747+03:00,1745244050.777066,40.95225368581861,29.14027810012393,76.51794,-1,-1,-1,-1,30,26.17599130966446,-9999,21099.877284375,-0.6967010498046875,0.6789093017578125,-0.15509033203125,21099.872246375,1.863230545379562,-1.358115110922604,-0.7795162807934736,-0.138702929019928,-0.01342666335403919,0.01252738479524851,0.005164504051208496,0.003805756568908691,-0.01409806311130524,XArbitraryZVertical,0.2898847366536319,-0.5838669456678219,0.7200613486501376,0.2378610682445949,-0.6952280402183533,0.7029354572296143,-0.1501324623823166,0,0,0,-1,-1,21095.701989625,unknown,2,2025-04-21T17:00:47.567+03:00,2025-04-20T21:57:49.637+03:00,6869,0.9902488,0,0,5622.382,5,6,2025-04-21T17:00:39.829+03:00,766936814.1330497,0,-39.12,100.2019,1,0.3,2025-04-21T16:59:59.105+03:00,92.00000000000001,1.533333333333333,2025-04-21T12:30:07.995+03:00,0.02023345852159405,0
2025-04-21T17:00:51.757+03:00,1745244050.777066,40.95225368581861,29.14027810012393,76.51794,-1,-1,-1,-1,30,26.17599130966446,-9999,21099.887360375,-0.6950531005859375,0.6830596923828125,-0.1527557373046875,21099.882322375,1.861164421204529,-1.359661212278506,-0.7800024992246943,-0.1701948195695877,-0.01299043744802475,0.02359255217015743,0.0009721517562866211,-0.01778024435043335,-0.009095489978790283,XArbitraryZVertical,0.2896867489752851,-0.5844559195759513,0.7196181985998751,0.2379967957965514,-0.6951249837875366,0.7032812237739563,-0.1489857286214828,0,0,0,-1,-1,21095.701989625,unknown,2,2025-04-21T17:00:47.567+03:00,2025-04-20T21:57:49.637+03:00,6869,0.9902488,0,0,5622.382,5,6,2025-04-21T17:00:39.829+03:00,766936814.1330497,0,-39.12,100.2019,1,0.3,2025-04-21T16:59:59.105+03:00,92.00000000000001,1.533333333333333,2025-04-21T12:30:07.995+03:00,0.02023345852159405,0
2025-04-21T17:00:51.767+03:00,1745244050.777066,40.95225368581861,29.14027810012393,76.51794,-1,-1,-1,-1,30,26.17599130966446,-9999,21099.897436375,-0.690032958984375,0.6968536376953125,-0.1562042236328125,21099.892398375,1.858789402706228,-1.361456012701448,-0.7806602450226602,-0.1865977495908737,-0.01285062171518803,0.03011756390333176,-0.001701414585113525,-0.02609068155288696,-0.003893449902534485,XArbitraryZVertical,0.2894334048724015,-0.5851559128406539,0.7191120902397802,0.2381147750645198,-0.6949386596679688,0.7037486433982849,-0.1476417183876038,0,0,0,-1,-1,21095.701989625,unknown,2,2025-04-21T17:00:47.567+03:00,2025-04-20T21:57:49.637+03:00,6869,0.9902488,0,0,5622.382,5,6,2025-04-21T17:00:39.829+03:00,766936814.1330497,0,-39.12,100.2019,1,0.3,2025-04-21T16:59:59.105+03:00,92.00000000000001,1.533333333333333,2025-04-21T12:30:07.995+03:00,0.02023345852159405,0
2025-04-21T17:00:51.777+03:00,1745244050.777066,40.95225368581861,29.14027810012393,76.51794,-1,-1,-1,-1,30,26.17599130966446,-9999,21099.907513375,-0.691558837890625,0.697479248046875,-0.1591796875,21099.902475375,1.856437393840472,-1.363225508578975,-0.7813978338829942,-0.1726499795913696,-0.01549114659428596,0.03136365488171577,0.00236886739730835,-0.0109131932258606,-0.009289219975471497,XArbitraryZVertical,0.2891514109976986,-0.5858660806880333,0.7186173125999125,0.2382048657382758,-0.6946907043457031,0.704272449016571,-0.1463048011064529,0,0,0,-1,-1,21095.701989625,unknown,2,2025-04-21T17:00:47.567+03:00,2025-04-20T21:57:49.637+03:00,6869,0.9902488,0,0,5622.382,5,6,2025-04-21T17:00:39.829+03:00,766936814.1330497,0,-39.12,100.2019,1,0.3,2025-04-21T16:59:59.105+03:00,92.00000000000001,1.533333333333333,2025-04-21T12:30:07.995+03:00,0.02023345852159405,0
2025-04-21T17:00:51.788+03:00,1745244050.777066,40.95225368581861,29.14027810012393,76.51794,-1,-1,-1,-1,30,26.17599130966446,-9999,21099.917589375,-0.6940460205078125,0.70257568359375,-0.1688995361328125,21099.912551375,1.854357124822376,-1.364799469057967,-0.7820973476074983,-0.1555082648992538,-0.02661357261240482,0.04076022282242775,0.004725098609924316,-0.0062522292137146,-0.01245200634002686,XArbitraryZVertical,0.2888893507333262,-0.5865046967362405,0.7181814809438204,0.2382654793539689,-0.6944376230239868,0.7047688961029053,-0.1451103687286377,0,0,0,-1,-1,21095.701989625,unknown,2,2025-04-21T17:00:47.567+03:00,2025-04-20T21:57:49.637+03:00,6869,0.9902488,0,0,5622.382,5,6,2025-04-21T17:00:39.829+03:00,766936814.1330497,0,-39.12,100.2019,1,0.3,2025-04-21T16:59:59.105+03:00,92.00000000000001,1.533333333333333,2025-04-21T12:30:07.995+03:00,0.02023345852159405,0
2025-04-21T17:00:51.798+03:00,1745244050.777066,40.95225368581861,29.14027810012393,76.51794,-1,-1,-1,-1,30,26.17599130966446,-9999,21099.927665375,-0.69085693359375,0.71490478515625,-0.173126220703125,21099.922627375,1.852576592878476,-1.366291527125945,-0.7827840508353184,-0.1350203007459641,-0.03567977249622345,0.03746749088168144,1.126527786254883e-05,-0.006464540958404541,-0.02091085910797119,XArbitraryZVertical,0.2886886320361396,-0.5870868689626447,0.717792974876918,0.2382458721370252,-0.6941794157028198,0.705255925655365,-0.1439757645130157,0,0,0,-1,-1,21095.701989625,unknown,2,2025-04-21T17:00:47.567+03:00,2025-04-20T21:57:49.637+03:00,6869,0.9902488,0,0,5622.382,5,6,2025-04-21T17:00:39.829+03:00,766936814.1330497,0,-39.12,100.2019,1,0.3,2025-04-21T16:59:59.105+03:00,92.00000000000001,1.533333333333333,2025-04-21T12:30:07.995+03:00,0.02023345852159405,0
2025-04-21T17:00:51.808+03:00,1745244050.777066,40.95225368581861,29.14027810012393,76.51794,-1,-1,-1,-1,30,26.17599130966446,-9999,21099.937741375,-0.691802978515625,0.7114105224609375,-0.1714324951171875,21099.932703375,1.851029612386088,-1.367688606678144,-0.7834404905164692,-0.1181679591536522,-0.03758672624826431,0.04254500567913055,0.001436531543731689,0.00558239221572876,-0.02949678897857666,XArbitraryZVertical,0.2885310275817734,-0.5876169366773704,0.7174446354796948,0.2381790542771414,-0.6939261555671692,0.7057211399078369,-0.142912358045578,0,0,0,-1,-1,21095.701989625,unknown,2,2025-04-21T17:00:47.567+03:00,2025-04-20T21:57:49.637+03:00,6869,0.9902488,0,0,5622.382,5,6,2025-04-21T17:00:39.829+03:00,766936814.1330497,0,-39.12,100.2019,1,0.3,2025-04-21T16:59:59.105+03:00,92.00000000000001,1.533333333333333,2025-04-21T12:30:07.995+03:00,0.02023345852159405,0
2025-04-21T17:00:51.818+03:00,1745244050.777066,40.95225368581861,29.14027810012393,76.51794,-1,-1,-1,-1,30,26.17599130966446,-9999,21099.947817375,-0.69610595703125,0.7024688720703125,-0.1744537353515625,21099.942779375,1.849557779417946,-1.369035677437235,-0.7840990128162949,-0.1271569281816483,-0.03597445040941238,0.03928636014461517,0.003919601440429688,0.007496356964111328,-0.03139466047286987,XArbitraryZVertical,0.288376116858893,-0.5881301355607504,0.7171130099205547,0.2380987691266425,-0.6936626434326172,0.7061875462532043,-0.1418843120336533,0,0,0,-1,-1,21095.701989625,unknown,2,2025-04-21T17:00:47.567+03:00,2025-04-20T21:57:49.637+03:00,6869,0.9902488,0,0,5622.382,5,6,2025-04-21T17:00:39.829+03:00,766936814.1330497,0,-39.12,100.2019,1,0.3,2025-04-21T16:59:59.105+03:00,92.00000000000001,1.533333333333333,2025-04-21T12:30:07.995+03:00,0.02023345852159405,0
2025-04-21T17:00:51.828+03:00,1745244050.777066,40.95225368581861,29.14027810012393,76.51794,-1,-1,-1,-1,30,26.17599130966446,-9999,21099.957894375,-0.692352294921875,0.7000579833984375,-0.1944580078125,21099.952856375,1.847604945746688,-1.370666332888593,-0.7848110625154813,-0.1972338855266571,-0.03203789889812469,0.04221750423312187,-0.001164793968200684,-0.001384735107421875,-0.0302455872297287,XArbitraryZVertical,0.2881639037400145,-0.5887572292901155,0.7166867048571804,0.238089224796258,-0.693399965763092,0.7066915035247803,-0.140652984380722,0,0,0,-1,-1,21095.701989625,unknown,2,2025-04-21T17:00:47.567+03:00,2025-04-20T21:57:49.637+03:00,6869,0.9902488,0,0,5622.382,5,6,2025-04-21T17:00:39.829+03:00,766936814.1330497,0,-39.12,100.2019,1,0.3,2025-04-21T16:59:59.105+03:00,92.00000000000001,1.533333333333333,2025-04-21T12:30:07.995+03:00,0.02023345852159405,0
2025-04-21T17:00:51.838+03:00,1745244050.777066,40.95225368581861,29.14027810012393,76.51794,-1,-1,-1,-1,30,26.17599130966446,-9999,21099.967970375,-0.685791015625,0.689056396484375,-0.20806884765625,21099.962932375,1.843937752006617,-1.373489914862318,-0.7856673795400745,-0.3603916466236115,-0.02506893873214722,0.03616573661565781,-0.001318156719207764,-0.006750941276550293,-0.04828335344791412,XArbitraryZVertical,0.2878270928439465,-0.5898030225023873,0.7158936022298105,0.2382946290695498,-0.693200945854187,0.707297146320343,-0.1385759115219116,0,0,0,-1,-1,21095.701989625,unknown,2,2025-04-21T17:00:47.567+03:00,2025-04-20T21:57:49.637+03:00,6869,0.9902488,0,0,5622.382,5,6,2025-04-21T17:00:39.829+03:00,766936814.1330497,0,-39.12,100.2019,1,0.3,2025-04-21T16:59:59.105+03:00,92.00000000000001,1.533333333333333,2025-04-21T12:30:07.995+03:00,0.02023345852159405,0
2025-04-21T17:00:51.848+03:00,1745244050.777066,40.95225368581861,29.14027810012393,76.51794,-1,-1,-1,-1,30,26.17599130966446,-9999,21099.978046375,-0.686859130859375,0.666778564453125,-0.2281646728515625,21099.973008375,1.837236276122886,-1.378371192796399,-0.786850199242367,-0.6310363411903381,-0.01327313203364611,0.03574755415320396,0.006294906139373779,-0.0128510594367981,-0.06917807459831238,XArbitraryZVertical,0.2872233585688436,-0.5915974373847275,0.7144631298286316,0.2388669471821096,-0.6930471658706665,0.708132803440094,-0.1350304335355759,0,0,0,-1,-1,21095.701989625,unknown,2,2025-04-21T17:00:47.567+03:00,2025-04-20T21:57:49.637+03:00,6869,0.9902488,0,0,5622.382,5,6,2025-04-21T17:00:39.829+03:00,766936814.1330497,0,-39.12,100.2019,1,0.3,2025-04-21T16:59:59.105+03:00,92.00000000000001,1.533333333333333,2025-04-21T12:30:07.995+03:00,0.02023345852159405,0
2025-04-21T17:00:51.858+03:00,1745244050.777066,40.95225368581861,29.14027810012393,76.51794,-1,-1,-1,-1,30,26.17599130966446,-9999,21099.988122375,-0.687255859375,0.6483001708984375,-0.2594757080078125,21099.983084375,1.826802609208325,-1.38578957174822,-0.7886488185689523,-0.8805657029151917,-0.01025576982647181,0.05215848237276077,0.006589055061340332,-0.03359001874923706,-0.08938907086849213,XArbitraryZVertical,0.2862117088273892,-0.5943545835145473,0.7122624266894494,0.2398072303805671,-0.6927767395973206,0.7094016075134277,-0.1296509802341461,0,0,0,-1,-1,21095.701989625,unknown,2,2025-04-21T17:00:47.567+03:00,2025-04-20T21:57:49.637+03:00,6869,0.9902488,0,0,5622.382,5,6,2025-04-21T17:00:39.829+03:00,766936814.1330497,0,-39.12,100.2019,1,0.3,2025-04-21T16:59:59.105+03:00,92.00000000000001,1.533333333333333,2025-04-21T12:30:07.995+03:00,0.02023345852159405,0
2025-04-21T17:00:51.868+03:00,1745244050.777066,40.95225368581861,29.14027810012393,76.51794,-1,-1,-1,-1,30,26.17599130966446,-9999,21099.998198375,-0.68756103515625,0.6234283447265625,-0.2969207763671875,21099.993160375,1.812733724669806,-1.395963241748151,-0.7911159780900918,-1.158285617828369,-0.04194106161594391,0.08180861920118332,0.005002379417419434,-0.05594122409820557,-0.1239702254533768,XArbitraryZVertical,0.2848563878663979,-0.5980895118783995,0.7092791304445921,0.2409749575713936,-0.6923345923423767,0.7111383080482483,-0.1222915500402451,0,0,0,-1,-1,21095.701989625,unknown,2,2025-04-21T17:00:47.567+03:00,2025-04-20T21:57:49.637+03:00,6869,0.9902488,0,0,5622.382,5,6,2025-04-21T17:00:39.829+03:00,766936814.1330497,0,-39.12,100.2019,1,0.3,2025-04-21T16:59:59.105+03:00,92.00000000000001,1.533333333333333,2025-04-21T12:30:07.995+03:00,0.02023345852159405,0
2025-04-21T17:00:51.878+03:00,1745244050.777066,40.95225368581861,29.14027810012393,76.51794,-1,-1,-1,-1,30,26.17599130966446,-9999,21100.008275375,-0.6880950927734375,0.5866546630859375,-0.3234100341796875,21100.003237375,1.794701208631788,-1.408808054531795,-0.7944009813225621,-1.40189003944397,0.09675344079732895,0.1475269049406052,0.004084587097167969,-0.07938051223754883,-0.1704665422439575,XArbitraryZVertical,0.2829467039991079,-0.6028560937391042,0.705502491087047,0.2424289744863965,-0.6915387511253357,0.7134439945220947,-0.1130113825201988,0,0,0,-1,-1,21095.701989625,unknown,2,2025-04-21T17:00:47.567+03:00,2025-04-20T21:57:49.637+03:00,6869,0.9902488,0,0,5622.382,5,6,2025-04-21T17:00:39.829+03:00,766936814.1330497,0,-39.12,100.2019,1,0.3,2025-04-21T16:59:59.105+03:00,92.00000000000001,1.533333333333333,2025-04-21T12:30:07.995+03:00,0.02023345852159405,0
2025-04-21T17:00:51.888+03:00,1745244050.777066,40.95225368581861,29.14027810012393,76.51794,-1,-1,-1,-1,30,26.17599130966446,-9999,21100.018351375,-0.661407470703125,0.5305633544921875,-0.3468475341796875,21100.013313375,1.774937164693121,-1.422429642909193,-0.7985003491435995,-1.405712485313416,-0.05148889124393463,0.2348349839448929,0.001318633556365967,-0.1134053468704224,-0.2099165916442871,XArbitraryZVertical,0.2804515461069174,-0.6080895177849837,0.701481382923231,0.2439217858219496,-0.6901156306266785,0.716310441493988,-0.1031481400132179,0,0,0,-1,-1,21095.701989625,unknown,2,2025-04-21T17:00:47.567+03:00,2025-04-20T21:57:49.637+03:00,6869,0.9902488,0,0,5622.382,5,6,2025-04-21T17:00:39.829+03:00,766936814.1330497,0,-39.12,100.2019,1,0.3,2025-04-21T16:59:59.105+03:00,92.00000000000001,1.533333333333333,2025-04-21T12:30:07.995+03:00,0.02023345852159405,0
2025-04-21T17:00:51.898+03:00,1745244050.777066,40.95225368581861,29.14027810012393,76.51794,-1,-1,-1,-1,30,26.17599130966446,-9999,21100.028427375,-0.63885498046875,0.5703887939453125,-0.3132171630859375,21100.023389375,1.757281082032903,-1.436983311474916,-0.8028737629348446,-1.065562605857849,-0.298784464597702,0.2720041871070862,0.01181191205978394,-0.1694287061691284,-0.2505258321762085,XArbitraryZVertical,0.2787544309009248,-0.613154515138466,0.6976326344851298,0.2442255413283879,-0.6884323358535767,0.7193552851676941,-0.09267501533031464,0,0,0,-1,-1,21095.701989625,unknown,2,2025-04-21T17:00:47.567+03:00,2025-04-20T21:57:49.637+03:00,6869,0.9902488,0,0,5622.382,5,6,2025-04-21T17:00:39.829+03:00,766936814.1330497,0,-39.12,100.2019,1,0.3,2025-04-21T16:59:59.105+03:00,92.00000000000001,1.533333333333333,2025-04-21T12:30:07.995+03:00,0.02023345852159405,0
2025-04-21T17:00:51.909+03:00,1745244050.777066,40.95225368581861,29.14027810012393,76.51794,-1,-1,-1,-1,30,26.17599130966446,-9999,21100.038503375,-0.7046661376953125,0.69970703125,-0.3390960693359375,21100.033465375,1.746939088375279,-1.448181741185379,-0.8064966911655096,-0.4537482857704163,-0.4218243360519409,0.2521085143089294,0.04930835962295532,-0.1836288571357727,-0.2438353896141052,XArbitraryZVertical,0.2783128211990712,-0.6166211398693974,0.6951082328440057,0.2431969401214787,-0.6868358254432678,0.7218672037124634,-0.08464068919420242,0,0,0,-1,-1,21095.701989625,unknown,2,2025-04-21T17:00:47.567+03:00,2025-04-20T21:57:49.637+03:00,6869,0.9902488,0,0,5622.382,5,6,2025-04-21T17:00:39.829+03:00,766936814.1330497,0,-39.12,100.2019,1,0.3,2025-04-21T16:59:59.105+03:00,92.00000000000001,1.533333333333333,2025-04-21T12:30:07.995+03:00,0.02023345852159405,0
2025-04-21T17:00:51.919+03:00,1745244050.777066,40.95225368581861,29.14027810012393,76.51794,-1,-1,-1,-1,30,26.17599130966446,-9999,21100.048579375,-0.7486114501953125,0.80975341796875,-0.396728515625,21100.043541375,1.744575559111523,-1.454665261451865,-0.8091747110146944,0.02647184580564499,-0.5342281460762024,0.2488062083721161,0.01157361268997192,-0.07384628057479858,-0.2354530692100525,XArbitraryZVertical,0.2789755472810516,-0.618216692142519,0.694142234578787,0.2411371556947279,-0.6854474544525146,0.7237178683280945,-0.07996153086423874,0,0,0,-1,-1,21095.701989625,unknown,2,2025-04-21T17:00:47.567+03:00,2025-04-20T21:57:49.637+03:00,6869,0.9902488,0,0,5622.382,5,6,2025-04-21T17:00:39.829+03:00,766936814.1330497,0,-39.12,100.2019,1,0.3,2025-04-21T16:59:59.105+03:00,92.00000000000001,1.533333333333333,2025-04-21T12:30:07.995+03:00,0.02023345852159405,0
2025-04-21T17:00:51.929+03:00,1745244050.777066,40.95225368581861,29.14027810012393,76.51794,-1,-1,-1,-1,30,26.17599130966446,-9999,21100.058656375,-0.713836669921875,0.8346405029296875,-0.39495849609375,21100.053618375,1.746424491588779,-1.45924719570033,-0.8117476723636501,0.1261158138513565,-0.6338745951652527,0.2928839027881622,-0.05846244096755981,0.04971623420715332,-0.3065206408500671,XArbitraryZVertical,0.2803117306185823,-0.6189661421869925,0.693939132711865,0.238232218257747,-0.6839539408683777,0.7254911065101624,-0.07661249488592148,0,0,0,-1,-1,21095.701989625,unknown,2,2025-04-21T17:00:47.567+03:00,2025-04-20T21:57:49.637+03:00,6869,0.9902488,0,0,5622.382,5,6,2025-04-21T17:00:39.829+03:00,766936814.1330497,0,-39.12,100.2019,1,0.3,2025-04-21T16:59:59.105+03:00,92.00000000000001,1.533333333333333,2025-04-21T12:30:07.995+03:00,0.02023345852159405,0
2025-04-21T17:00:51.939+03:00,1745244050.777066,40.95225368581861,29.14027810012393,76.51794,-1,-1,-1,-1,30,26.17599130966446,-9999,21100.068732375,-0.6625823974609375,0.7967376708984375,-0.374725341796875,21100.063694375,1.747823532174035,-1.465089085385982,-0.8150009579791156,-0.02961359545588493,-0.7288346290588379,0.3771596252918243,-0.05119132995605469,0.1077838540077209,-0.3253694772720337,XArbitraryZVertical,0.2817279611702509,-0.6200372907744842,0.6935570470470814,0.2348652379066877,-0.6820392608642578,0.7277262806892395,-0.07236623018980026,0,0,0,-1,-1,21095.701989625,unknown,2,2025-04-21T17:00:47.567+03:00,2025-04-20T21:57:49.637+03:00,6869,0.9902488,0,0,5622.382,5,6,2025-04-21T17:00:39.829+03:00,766936814.1330497,0,-39.12,100.2019,1,0.3,2025-04-21T16:59:59.105+03:00,92.00000000000001,1.533333333333333,2025-04-21T12:30:07.995+03:00,0.02023345852159405,0
2025-04-21T17:00:51.949+03:00,1745244050.777066,40.95225368581861,29.14027810012393,76.51794,-1,-1,-1,-1,30,26.17599130966446,-9999,21100.078808375,-0.636474609375,0.707275390625,-0.323974609375,21100.073770375,1.746621809859158,-1.473872054953709,-0.8194549175130145,-0.2268610745668411,-0.8512265682220459,0.4829413294792175,0.0008267760276794434,0.08639514446258545,-0.3218502402305603,XArbitraryZVertical,0.2829699947031001,-0.62201170210334,0.6925533915770746,0.2310824043835582,-0.6794155836105347,0.7307738661766052,-0.06605885177850723,0,0,0,-1,-1,21095.701989625,unknown,2,2025-04-21T17:00:47.567+03:00,2025-04-20T21:57:49.637+03:00,6869,0.9902488,0,0,5622.382,5,6,2025-04-21T17:00:39.829+03:00,766936814.1330497,0,-39.12,100.2019,1,0.3,2025-04-21T16:59:59.105+03:00,92.00000000000001,1.533333333333333,2025-04-21T12:30:07.995+03:00,0.02023345852159405,0
2025-04-21T17:00:51.959+03:00,1745244050.777066,40.95225368581861,29.14027810012393,76.51794,-1,-1,-1,-1,30,26.17599130966446,-9999,21100.088884375,-0.6283721923828125,0.6402130126953125,-0.316253662109375,21100.083846375,1.742855038180889,-1.485861955883586,-0.8250138833614327,-0.3358120918273926,-0.9695966243743896,0.5676546096801758,0.03147798776626587,0.01004111766815186,-0.284692108631134,XArbitraryZVertical,0.2841590758334618,-0.6248778106982372,0.6908986686353981,0.2268048130030143,-0.6761008501052856,0.7345572113990784,-0.0575626827776432,0,0,0,-1,-1,21095.701989625,unknown,2,2025-04-21T17:00:47.567+03:00,2025-04-20T21:57:49.637+03:00,6869,0.9902488,0,0,5622.382,5,6,2025-04-21T17:00:39.829+03:00,766936814.1330497,0,-39.12,100.2019,1,0.3,2025-04-21T16:59:59.105+03:00,92.00000000000001,1.533333333333333,2025-04-21T12:30:07.995+03:00,0.02023345852159405,0
2025-04-21T17:00:51.969+03:00,1745244050.777066,40.95225368581861,29.14027810012393,76.51794,-1,-1,-1,-1,30,26.17599130966446,-9999,21100.098961375,-0.6384735107421875,0.667633056640625,-0.368743896484375,21100.093922375,1.738615320314679,-1.499262082656823,-0.8312380242888954,-0.3281987607479095,-1.063827633857727,0.6141805052757263,0.04371309280395508,-0.08424073457717896,-0.2623920440673828,XArbitraryZVertical,0.2854558102749351,-0.6280365186765269,0.6890585462649464,0.2219985346150368,-0.6722379326820374,0.7387663125991821,-0.04817022383213043,0,0,0,-1,-1,21095.701989625,unknown,2,2025-04-21T17:00:47.567+03:00,2025-04-20T21:57:49.637+03:00,6869,0.9902488,0,0,5622.382,5,6,2025-04-21T17:00:39.829+03:00,766936814.1330497,0,-39.12,100.2019,1,0.3,2025-04-21T16:59:59.105+03:00,92.00000000000001,1.533333333333333,2025-04-21T12:30:07.995+03:00,0.02023345852159405,0
2025-04-21T17:00:51.979+03:00,1745244050.777066,40.95225368581861,29.14027810012393,76.51794,-1,-1,-1,-1,30,26.17599130966446,-9999,21100.109037375,-0.65191650390625,0.7510986328125,-0.403564453125,21100.103999375,1.734586730347601,-1.513422148784332,-0.8377516624423204,-0.2843418419361115,-1.155541300773621,0.6405175924301147,0.0342755913734436,-0.09596973657608032,-0.3073179721832275,XArbitraryZVertical,0.2869670299030674,-0.6312407739985216,0.6871711478606771,0.2167502258523877,-0.6680340766906738,0.7431405782699585,-0.03837001696228981,0,0,0,-1,-1,21095.701989625,unknown,2,2025-04-21T17:00:47.567+03:00,2025-04-20T21:57:49.637+03:00,6869,0.9902488,0,0,5622.382,5,6,2025-04-21T17:00:39.829+03:00,766936814.1330497,0,-39.12,100.2019,1,0.3,2025-04-21T16:59:59.105+03:00,92.00000000000001,1.533333333333333,2025-04-21T12:30:07.995+03:00,0.02023345852159405,0
2025-04-21T17:00:51.989+03:00,1745244050.777066,40.95225368581861,29.14027810012393,76.51794,-1,-1,-1,-1,30,26.17599130966446,-9999,21100.119113375,-0.6615142822265625,0.7989349365234375,-0.401885986328125,21100.114075375,1.731461224887769,-1.527739770163037,-0.8443645177790368,-0.1927669644355774,-1.22620701789856,0.6403796076774597,0.01478707790374756,-0.02878397703170776,-0.3677575588226318,XArbitraryZVertical,0.2887659377899179,-0.6342865521977046,0.6853774893049666,0.2110745444543941,-0.6635908484458923,0.7475491762161255,-0.02858960628509521,0,0,0,-1,-1,21095.701989625,unknown,2,2025-04-21T17:00:47.567+03:00,2025-04-20T21:57:49.637+03:00,6869,0.9902488,0,0,5622.382,5,6,2025-04-21T17:00:39.829+03:00,766936814.1330497,0,-39.12,100.2019,1,0.3,2025-04-21T16:59:59.105+03:00,92.00000000000001,1.533333333333333,2025-04-21T12:30:07.995+03:00,0.02023345852159405,0
2025-04-21T17:00:51.999+03:00,1745244050.777066,40.95225368581861,29.14027810012393,76.51794,-1,-1,-1,-1,30,26.17599130966446,-9999,21100.129189375,-0.6987762451171875,0.8059234619140625,-0.3699493408203125,21100.124151375,1.729344013358719,-1.542147790962509,-0.8504889069097499,-0.1247232034802437,-1.302121996879578,0.5735496878623962,0.002408325672149658,0.03777980804443359,-0.3864248991012573,XArbitraryZVertical,0.291056053770588,-0.6370550639735889,0.6836357530953484,0.2051567896285607,-0.6593449711799622,0.7516030073165894,-0.01889443770051003,0,0,0,-1,-1,21095.701989625,unknown,2,2025-04-21T17:00:47.567+03:00,2025-04-20T21:57:49.637+03:00,6869,0.9902488,0,0,5622.382,5,6,2025-04-21T17:00:39.829+03:00,766936814.1330497,0,-39.12,100.2019,1,0.3,2025-04-21T16:59:59.105+03:00,92.00000000000001,1.533333333333333,2025-04-21T12:30:07.995+03:00,0.02023345852159405,0
2025-04-21T17:00:52.009+03:00,1745244050.777066,40.95225368581861,29.14027810012393,76.51794,-1,-1,-1,-1,30,26.17599130966446,-9999,21100.139265375,-0.727752685546875,0.852294921875,-0.310302734375,21100.134227375,1.728739112564891,-1.55583417206881,-0.8563086592387146,0.01835226640105247,-1.332666873931885,0.5714830160140991,-0.02457642555236816,0.04812902212142944,-0.3766714930534363,XArbitraryZVertical,0.2936665574800927,-0.639420290768668,0.6821213403862439,0.1990274555802584,-0.6551568508148193,0.7554290294647217,-0.009803289547562599,0,0,0,-1,-1,21095.701989625,unknown,2,2025-04-21T17:00:47.567+03:00,2025-04-20T21:57:49.637+03:00,6869,0.9902488,0,0,5622.382,5,6,2025-04-21T17:00:39.829+03:00,766936814.1330497,0,-39.12,100.2019,1,0.3,2025-04-21T16:59:59.105+03:00,92.00000000000001,1.533333333333333,2025-04-21T12:30:07.995+03:00,0.02023345852159405,0
2025-04-21T17:00:52.019+03:00,1745244050.777066,40.95225368581861,29.14027810012393,76.51794,-1,-1,-1,-1,30,26.17599130966446,-9999,21100.149342375,-0.669036865234375,0.9717559814453125,-0.2437591552734375,21100.144304375,1.730043455154787,-1.568692171227131,-0.8618003410811863,0.1380914449691772,-1.414433360099792,0.5271663665771484,-0.07456123828887939,0.06656062602996826,-0.3331333994865417,XArbitraryZVertical,0.2967026119546139,-0.6413131702195015,0.6808739901573555,0.1926018943262017,-0.6510704159736633,0.7590159177780151,-0.001369955483824015,0,0,0,-1,-1,21095.701989625,unknown,2,2025-04-21T17:00:47.567+03:00,2025-04-20T21:57:49.637+03:00,6869,0.9902488,0,0,5622.382,5,6,2025-04-21T17:00:39.829+03:00,766936814.1330497,0,-39.12,100.2019,1,0.3,2025-04-21T16:59:59.105+03:00,92.00000000000001,1.533333333333333,2025-04-21T12:30:07.995+03:00,0.02023345852159405,0
2025-04-21T17:00:52.029+03:00,1745244050.777066,40.95225368581861,29.14027810012393,76.51794,-1,-1,-1,-1,30,26.17599130966446,-9999,21100.159418375,-0.6203155517578125,1.051528930664062,-0.2146453857421875,21100.154380375,1.733182043154233,-1.580906953912552,-0.8669577771038706,0.2736416161060333,-1.48651909828186,0.488776683807373,-0.04993653297424316,0.1606249213218689,-0.2733429670333862,XArbitraryZVertical,0.300211756988177,-0.6427630853279466,0.6798427152314764,0.1858553217390077,-0.6471154093742371,0.7623636722564697,0.006542965769767761,0,0,0,-1,-1,21095.701989625,unknown,2,2025-04-21T17:00:47.567+03:00,2025-04-20T21:57:49.637+03:00,6869,0.9902488,0,0,5622.382,5,6,2025-04-21T17:00:39.829+03:00,766936814.1330497,0,-39.12,100.2019,1,0.3,2025-04-21T16:59:59.105+03:00,92.00000000000001,1.533333333333333,2025-04-21T12:30:07.995+03:00,0.02023345852159405,0
2025-04-21T17:00:52.040+03:00,1745244050.777066,40.95225368581861,29.14027810012393,76.51794,-1,-1,-1,-1,30,26.17599130966446,-9999,21100.169494375,-0.6342620849609375,1.02001953125,-0.181915283203125,21100.164456375,1.738211061476679,-1.592307814535929,-0.8716382654020904,0.3715902864933014,-1.53413462638855,0.4337387382984161,0.0123666524887085,0.2699853181838989,-0.234302282333374,XArbitraryZVertical,0.3042038553609742,-0.6437247779542256,0.6790291144647937,0.1788791004275274,-0.643424391746521,0.765384316444397,0.01384315080940723,0,0,0,-1,-1,21095.701989625,unknown,2,2025-04-21T17:00:47.567+03:00,2025-04-20T21:57:49.637+03:00,6869,0.9902488,0,0,5622.382,5,6,2025-04-21T17:00:39.829+03:00,766936814.1330497,0,-39.12,100.2019,1,0.3,2025-04-21T16:59:59.105+03:00,92.00000000000001,1.533333333333333,2025-04-21T12:30:07.995+03:00,0.02023345852159405,0
2025-04-21T17:00:52.050+03:00,1745244050.777066,40.95225368581861,29.14027810012393,76.51794,-1,-1,-1,-1,30,26.17599130966446,-9999,21100.179570375,-0.659637451171875,0.97869873046875,-0.100555419921875,21100.174532375,1.743986903815007,-1.603510124839097,-0.8758293462904188,0.3859273493289948,-1.56414806842804,0.3755469024181366,0.01619219779968262,0.2716588377952576,-0.2208199501037598,XArbitraryZVertical,0.3085257687655506,-0.6444255452722929,0.6782235591675394,0.1718727218684711,-0.6400172114372253,0.7680748701095581,0.02094486728310585,0,0,0,-1,-1,21095.701989625,unknown,2,2025-04-21T17:00:47.567+03:00,2025-04-20T21:57:49.637+03:00,6869,0.9902488,0,0,5622.382,5,6,2025-04-21T17:00:39.829+03:00,766936814.1330497,0,-39.12,100.2019,1,0.3,2025-04-21T16:59:59.105+03:00,92.00000000000001,1.533333333333333,2025-04-21T12:30:07.995+03:00,0.02023345852159405,0
2025-04-21T17:00:52.060+03:00,1745244050.777066,40.95225368581861,29.14027810012393,76.51794,-1,-1,-1,-1,30,26.17599130966446,-9999,21100.189646375,-0.6729583740234375,0.9263916015625,-0.0027313232421875,21100.184608375,1.749762418481591,-1.614659904520403,-0.879564145766049,0.3775330483913422,-1.52599024772644,0.3387593030929565,-0.01530230045318604,0.2209327220916748,-0.1619257926940918,XArbitraryZVertical,0.3129751251431865,-0.6449986916349427,0.6773380240630136,0.1650341667050012,-0.6368735432624817,0.7704610824584961,0.02795348316431046,0,0,0,-1,-1,21095.701989625,unknown,2,2025-04-21T17:00:47.567+03:00,2025-04-20T21:57:49.637+03:00,6869,0.9902488,0,0,5622.382,5,6,2025-04-21T17:00:39.829+03:00,766936814.1330497,0,-39.12,100.2019,1,0.3,2025-04-21T16:59:59.105+03:00,92.00000000000001,1.533333333333333,2025-04-21T12:30:07.995+03:00,0.02023345852159405,0
2025-04-21T17:00:52.070+03:00,1745244050.777066,40.95225368581861,29.14027810012393,76.51794,-1,-1,-1,-1,30,26.17599130966446,-9999,21100.199723375,-0.666778564453125,0.80584716796875,0.153839111328125,21100.194685375,1.755473699001118,-1.625320118686366,-0.8829493915482036,0.37591552734375,-1.455383062362671,0.2870234847068787,-0.03579205274581909,0.1812577247619629,-0.07848310470581055,XArbitraryZVertical,0.3173482408472926,-0.6454373804722308,0.6764472907933677,0.1584915083247151,-0.6339313983917236,0.7726147174835205,0.03459863737225533,0,0,0,-1,-1,21095.701989625,unknown,2,2025-04-21T17:00:47.567+03:00,2025-04-20T21:57:49.637+03:00,6869,0.9902488,0,0,5622.382,5,6,2025-04-21T17:00:39.829+03:00,766936814.1330497,0,-39.12,100.2019,1,0.3,2025-04-21T16:59:59.105+03:00,92.00000000000001,1.533333333333333,2025-04-21T12:30:07.995+03:00,0.02023345852159405,0
2025-04-21T17:00:52.080+03:00,1745244050.777066,40.95225368581861,29.14027810012393,76.51794,-1,-1,-1,-1,30,26.17599130966446,-9999,21100.209799375,-0.64501953125,0.7098388671875,0.3197784423828125,21100.204761375,1.761697950651551,-1.634508898082625,-0.8856901781344141,0.4372670352458954,-1.325897574424744,0.1948549151420593,-0.04058688879013062,0.08128458261489868,0.04865610599517822,XArbitraryZVertical,0.3215928233130794,-0.6455398111150394,0.675728394164179,0.1524711800482,-0.6314712166786194,0.7743518948554993,0.04028718173503876,0,0,0,-1,-1,21095.701989625,unknown,2,2025-04-21T17:00:47.567+03:00,2025-04-20T21:57:49.637+03:00,6869,0.9902488,0,0,5622.382,5,6,2025-04-21T17:00:39.829+03:00,766936814.1330497,0,-39.12,100.2019,1,0.3,2025-04-21T16:59:59.105+03:00,92.00000000000001,1.533333333333333,2025-04-21T12:30:07.995+03:00,0.02023345852159405,0
2025-04-21T17:00:52.090+03:00,1745244050.777066,40.95225368581861,29.14027810012393,76.51794,-1,-1,-1,-1,30,26.17599130966446,-9999,21100.219875375,-0.621246337890625,0.7657012939453125,0.50732421875,21100.214837375,1.768402764953306,-1.641915465570315,-0.8870016893316254,0.4161789417266846,-1.178376913070679,0.01735103502869606,-0.02471941709518433,-0.04048579931259155,0.2149356603622437,XArbitraryZVertical,0.325842081131474,-0.6451917346527899,0.6751587693318866,0.1473606940084915,-0.6301420927047729,0.7751810550689697,0.0448908731341362,0,0,0,-1,-1,21095.701989625,unknown,2,2025-04-21T17:00:47.567+03:00,2025-04-20T21:57:49.637+03:00,6869,0.9902488,0,0,5622.382,5,6,2025-04-21T17:00:39.829+03:00,766936814.1330497,0,-39.12,100.2019,1,0.3,2025-04-21T16:59:59.105+03:00,92.00000000000001,1.533333333333333,2025-04-21T12:30:07.995+03:00,0.02023345852159405,0
2025-04-21T17:00:52.100+03:00,1745244050.777066,40.95225368581861,29.14027810012393,76.51794,-1,-1,-1,-1,30,26.17599130966446,-9999,21100.229951375,-0.582550048828125,1.005844116210938,0.6766510009765625,21100.224913375,1.775287433725041,-1.647653870329814,-0.8871379601465874,0.453582227230072,-1.02266538143158,-0.04105981066823006,0.0006793737411499023,-0.05616623163223267,0.3805484771728516,XArbitraryZVertical,0.3299553214495381,-0.644498637797244,0.6747310879553039,0.1431396357503342,-0.6297688484191895,0.7752671837806702,0.04849801585078239,0,0,0,-1,-1,21095.701989625,unknown,2,2025-04-21T17:00:47.567+03:00,2025-04-20T21:57:49.637+03:00,6869,0.9902488,0,0,5622.382,5,6,2025-04-21T17:00:39.829+03:00,766936814.1330497,0,-39.12,100.2019,1,0.3,2025-04-21T16:59:59.105+03:00,92.00000000000001,1.533333333333333,2025-04-21T12:30:07.995+03:00,0.02023345852159405,0
2025-04-21T17:00:52.110+03:00,1745244050.777066,40.95225368581861,29.14027810012393,76.51794,-1,-1,-1,-1,30,26.17599130966446,-9999,21100.240028375,-0.531341552734375,1.144454956054688,0.663848876953125,21100.234990375,1.783009062920854,-1.651314075040729,-0.8868752378264947,0.4973697364330292,-0.884945273399353,-0.09544884413480759,0.02828836441040039,0.1328117251396179,0.5806809663772583,XArbitraryZVertical,0.3337592759673407,-0.6434394372393544,0.6746440476481083,0.1394477776253,-0.6297898292541504,0.7751011848449707,0.05081912875175476,0,0,0,-1,-1,21095.701989625,unknown,2,2025-04-21T17:00:47.567+03:00,2025-04-20T21:57:49.637+03:00,6869,0.9902488,0,0,5622.382,5,6,2025-04-21T17:00:39.829+03:00,766936814.1330497,0,-39.12,100.2019,1,0.3,2025-04-21T16:59:59.105+03:00,92.00000000000001,1.533333333333333,2025-04-21T12:30:07.995+03:00,0.02023345852159405,0
2025-04-21T17:00:52.120+03:00,1745244050.777066,40.95225368581861,29.14027810012393,76.51794,-1,-1,-1,-1,30,26.17599130966446,-9999,21100.250104375,-0.5494384765625,1.06158447265625,0.5719451904296875,21100.245066375,1.789862134540702,-1.653948096469038,-0.8857864587995696,0.3037896156311035,-0.6886847019195557,-0.1917042881250381,0.08519113063812256,0.3481303453445435,0.6338990926742554,XArbitraryZVertical,0.3371932480864483,-0.6423197492520984,0.6745717806134834,0.1366705155508427,-0.6304944157600403,0.7744128108024597,0.05254789441823959,0,0,0,-1,-1,21095.701989625,unknown,2,2025-04-21T17:00:47.567+03:00,2025-04-20T21:57:49.637+03:00,6869,0.9902488,0,0,5622.382,5,6,2025-04-21T17:00:39.829+03:00,766936814.1330497,0,-39.12,100.2019,1,0.3,2025-04-21T16:59:59.105+03:00,92.00000000000001,1.533333333333333,2025-04-21T12:30:07.995+03:00,0.02023345852159405,0
2025-04-21T17:00:52.130+03:00,1745244050.777066,40.95225368581861,29.14027810012393,76.51794,-1,-1,-1,-1,30,26.17599130966446,-9999,21100.260180375,-0.5818939208984375,0.94610595703125,0.4505157470703125,21100.255142375,1.793288985617196,-1.657312041059942,-0.8835970590251879,0.08851051330566406,-0.505078911781311,-0.2770871222019196,0.09690660238265991,0.3332057595252991,0.5546514987945557,XArbitraryZVertical,0.3401150336999647,-0.6416613004663916,0.6740272867005273,0.1352023338444063,-0.6320018172264099,0.7730257511138916,0.05481491982936859,0,0,0,-1,-1,21095.701989625,unknown,2,2025-04-21T17:00:47.567+03:00,2025-04-20T21:57:49.637+03:00,6869,0.9902488,0,0,5622.382,5,6,2025-04-21T17:00:39.829+03:00,766936814.1330497,0,-39.12,100.2019,1,0.3,2025-04-21T16:59:59.105+03:00,92.00000000000001,1.533333333333333,2025-04-21T12:30:07.995+03:00,0.02023345852159405,0
2025-04-21T17:00:52.140+03:00,1745244050.777066,40.95225368581861,29.14027810012393,76.51794,-1,-1,-1,-1,30,26.17599130966446,-9999,21100.270256375,-0.573944091796875,0.8475494384765625,0.3324127197265625,21100.265218375,1.794084488994182,-1.660980781503072,-0.8804635228874198,-0.03249260410666466,-0.3529258966445923,-0.3537438213825226,0.05997180938720703,0.2153090238571167,0.4423130750656128,XArbitraryZVertical,0.3425883191779396,-0.641333593207685,0.6731553941053211,0.1348560356211278,-0.6342057585716248,0.7710341215133667,0.05735106766223907,0,0,0,-1,-1,21095.701989625,unknown,2,2025-04-21T17:00:47.567+03:00,2025-04-20T21:57:49.637+03:00,6869,0.9902488,0,0,5622.382,5,6,2025-04-21T17:00:39.829+03:00,766936814.1330497,0,-39.12,100.2019,1,0.3,2025-04-21T16:59:59.105+03:00,92.00000000000001,1.533333333333333,2025-04-21T12:30:07.995+03:00,0.02023345852159405,0
2025-04-21T17:00:52.150+03:00,1745244050.777066,40.95225368581861,29.14027810012393,76.51794,-1,-1,-1,-1,30,26.17599130966446,-9999,21100.280333375,-0.5604095458984375,0.78302001953125,0.2575531005859375,21100.275294375,1.793415984889968,-1.664408229781295,-0.8765279750092726,-0.1127313151955605,-0.2250625491142273,-0.4168168306350708,0.05631798505783081,0.1142444610595703,0.3120794296264648,XArbitraryZVertical,0.3447587952131109,-0.6411280543892683,0.6721407350106835,0.1353620729648113,-0.6370217204093933,0.7685220241546631,0.05980761721730232,0,0,0,-1,-1,21095.701989625,unknown,2,2025-04-21T17:00:47.567+03:00,2025-04-20T21:57:49.637+03:00,6869,0.9902488,0,0,5622.382,5,6,2025-04-21T17:00:39.829+03:00,766936814.1330497,0,-39.12,100.2019,1,0.3,2025-04-21T16:59:59.105+03:00,92.00000000000001,1.533333333333333,2025-04-21T12:30:07.995+03:00,0.02023345852159405,0
2025-04-21T17:00:52.161+03:00,1745244050.777066,40.95225368581861,29.14027810012393,76.51794,-1,-1,-1,-1,30,26.17599130966446,-9999,21100.2904105,-0.56854248046875,0.7657623291015625,0.2228851318359375,21100.285371375,1.79235994609274,-1.666885251152038,-0.8719087187198792,-0.08841612190008163,-0.1115343868732452,-0.4825004935264587,0.07696759700775146,0.03600090742111206,0.2194634675979614,XArbitraryZVertical,0.3466962565466148,-0.6408309800512727,0.6711879515807728,0.1365427623696296,-0.640398383140564,0.7655583620071411,0.06172527745366096,0,0,0,-1,-1,21095.701989625,unknown,2,2025-04-21T17:00:47.567+03:00,2025-04-20T21:57:49.637+03:00,6869,0.9902488,0,0,5622.382,5,6,2025-04-21T17:00:39.829+03:00,766936814.1330497,0,-39.12,100.2019,1,0.3,2025-04-21T16:59:59.105+03:00,92.00000000000001,1.533333333333333,2025-04-21T12:30:07.995+03:00,0.02023345852159405,0
2025-04-21T17:00:52.171+03:00,1745244050.777066,40.95225368581861,29.14027810012393,76.51794,-1,-1,-1,-1,30,26.17599130966446,-9999,21100.3004865,-0.583984375,0.7795257568359375,0.2261505126953125,21100.2954485,1.792898768623556,-1.66711351494313,-0.8668799299483742,0.0755009725689888,-0.02164437808096409,-0.5106298327445984,0.08132672309875488,0.004608452320098877,0.1676630973815918,XArbitraryZVertical,0.3485150773677264,-0.6400450718299325,0.6706869691105309,0.1380520799571903,-0.6442081332206726,0.7623133063316345,0.06224090605974197,0,0,0,-1,-1,21095.701989625,unknown,2,2025-04-21T17:00:47.567+03:00,2025-04-20T21:57:49.637+03:00,6869,0.9902488,0,0,5622.382,5,6,2025-04-21T17:00:39.829+03:00,766936814.1330497,0,-39.12,100.2019,1,0.3,2025-04-21T16:59:59.105+03:00,92.00000000000001,1.533333333333333,2025-04-21T12:30:07.995+03:00,0.02023345852159405,0
2025-04-21T17:00:52.180+03:00,1745244050.777066,40.95225368581861,29.14027810012393,76.51794,-1,-1,-1,-1,30,26.17599130966446,-9999,21100.3105625,-0.5958709716796875,0.771392822265625,0.2164154052734375,21100.3055245,1.796888010396061,-1.663926898298496,-0.8620107841838364,0.3434629142284393,0.05105112865567207,-0.4978466629981995,0.06932556629180908,0.01411652565002441,0.1642754077911377,XArbitraryZVertical,0.3502385613350671,-0.6384348545895628,0.6710369307776382,0.1394389432721811,-0.6480913758277893,0.7591529488563538,0.06053222715854645,0,0,0,-1,-1,21095.701989625,unknown,2,2025-04-21T17:00:47.567+03:00,2025-04-20T21:57:49.637+03:00,6869,0.9902488,0,0,5622.382,5,6,2025-04-21T17:00:39.829+03:00,766936814.1330497,0,-39.12,100.2019,1,0.3,2025-04-21T16:59:59.105+03:00,92.00000000000001,1.533333333333333,2025-04-21T12:30:07.995+03:00,0.02023345852159405,0
2025-04-21T17:00:52.191+03:00,1745244050.777066,40.95225368581861,29.14027810012393,76.51794,-1,-1,-1,-1,30,26.17599130966446,-9999,21100.3206385,-0.626983642578125,0.7195281982421875,0.2327880859375,21100.3156005,1.804060894864856,-1.657806962938281,-0.8574520591906262,0.4913676083087921,0.1377313733100891,-0.4618263840675354,0.06132966279983521,0.02484321594238281,0.1639904975891113,XArbitraryZVertical,0.3518869643051143,-0.6360880921446395,0.6721648063628872,0.1405768555264775,-0.6518905758857727,0.7561777234077454,0.05686499178409576,0,0,0,-1,-1,21095.701989625,unknown,2,2025-04-21T17:00:47.567+03:00,2025-04-20T21:57:49.637+03:00,6869,0.9902488,0,0,5622.382,5,6,2025-04-21T17:00:39.829+03:00,766936814.1330497,0,-39.12,100.2019,1,0.3,2025-04-21T16:59:59.105+03:00,92.00000000000001,1.533333333333333,2025-04-21T12:30:07.995+03:00,0.02023345852159405,0
2025-04-21T17:00:52.209+03:00,1745244050.777066,40.95225368581861,29.14027810012393,76.51794,-1,-1,-1,-1,30,26.17599130966446,-9999,21100.3307155,-0.652740478515625,0.6747589111328125,0.2767333984375,21100.3256775,1.812856664922765,-1.649345313026591,-0.8538994132960315,0.5513840913772583,0.2216670215129852,-0.3411396443843842,0.04299235343933105,-0.01407188177108765,0.1683673858642578,XArbitraryZVertical,0.3529339791023231,-0.6334163835463908,0.6739331956869054,0.1415454831958126,-0.6550223231315613,0.7538482546806335,0.05155741795897484,0,0,0,-1,-1,21095.701989625,unknown,2,2025-04-21T17:00:47.567+03:00,2025-04-20T21:57:49.637+03:00,6869,0.9902488,0,0,5622.382,5,6,2025-04-21T17:00:39.829+03:00,766936814.1330497,0,-39.12,100.2019,1,0.3,2025-04-21T16:59:59.105+03:00,92.00000000000001,1.533333333333333,2025-04-21T12:30:07.995+03:00,0.02023345852159405,0
2025-04-21T17:00:52.211+03:00,1745244050.777066,40.95225368581861,29.14027810012393,76.51794,-1,-1,-1,-1,30,26.17599130966446,-9999,21100.3407915,-0.649566650390625,0.6077117919921875,0.29595947265625,21100.3357535,1.821224811658466,-1.640490447741643,-0.8513816940997405,0.5050507783889771,0.2842345833778381,-0.2433231770992279,0.009700596332550049,-0.05968689918518066,0.2177995443344116,XArbitraryZVertical,0.3533713483473039,-0.6309297725396489,0.6758536682885679,0.1424009336570246,-0.6573446393013,0.7521916031837463,0.04588737711310387,0,0,0,-1,-1,21095.701989625,unknown,2,2025-04-21T17:00:47.567+03:00,2025-04-20T21:57:49.637+03:00,6869,0.9902488,0,0,5622.382,5,6,2025-04-21T17:00:39.829+03:00,766936814.1330497,0,-39.12,100.2019,1,0.3,2025-04-21T16:59:59.105+03:00,92.00000000000001,1.533333333333333,2025-04-21T12:30:07.995+03:00,0.02023345852159405,0
2025-04-21T17:00:52.221+03:00,1745244050.777066,40.95225368581861,29.14027810012393,76.51794,-1,-1,-1,-1,30,26.17599130966446,-9999,21100.3508675,-0.6366729736328125,0.544219970703125,0.3075103759765625,21100.3458295,1.828677036813187,-1.631699605115972,-0.8497464916454486,0.436204582452774,0.3520879447460175,-0.1484765559434891,0.006743013858795166,-0.1164544820785522,0.2488194704055786,XArbitraryZVertical,0.3532495025836673,-0.628733429376245,0.6777886310053155,0.1432184195995789,-0.6589494347572327,0.7511130571365356,0.04018187150359154,0,0,0,-1,-1,21095.701989625,unknown,2,2025-04-21T17:00:47.567+03:00,2025-04-20T21:57:49.637+03:00,6869,0.9902488,0,0,5622.382,5,6,2025-04-21T17:00:39.829+03:00,766936814.1330497,0,-39.12,100.2019,1,0.3,2025-04-21T16:59:59.105+03:00,92.00000000000001,1.533333333333333,2025-04-21T12:30:07.995+03:00,0.02023345852159405,0
2025-04-21T17:00:52.231+03:00,1745244050.777066,40.95225368581861,29.14027810012393,76.51794,-1,-1,-1,-1,30,26.17599130966446,-9999,21100.3609435,-0.62774658203125,0.5160064697265625,0.300872802734375,21100.3559055,1.834454013254769,-1.623520638337555,-0.848919812863083,0.3114351332187653,0.4097535610198975,-0.06258989870548248,0.01764869689941406,-0.1854885220527649,0.2706265449523926,XArbitraryZVertical,0.352543363229242,-0.6269968613357679,0.6795727549681494,0.1441140548247495,-0.6598758697509766,0.7505670785903931,0.03482377529144287,0,0,0,-1,-1,21095.701989625,unknown,2,2025-04-21T17:00:47.567+03:00,2025-04-20T21:57:49.637+03:00,6869,0.9902488,0,0,5622.382,5,6,2025-04-21T17:00:39.829+03:00,766936814.1330497,0,-39.12,100.2019,1,0.3,2025-04-21T16:59:59.105+03:00,92.00000000000001,1.533333333333333,2025-04-21T12:30:07.995+03:00,0.02023345852159405,0
2025-04-21T17:00:52.241+03:00,1745244050.777066,40.95225368581861,29.14027810012393,76.51794,-1,-1,-1,-1,30,26.17599130966446,-9999,21100.3710205,-0.624725341796875,0.5121307373046875,0.284393310546875,21100.3659815,1.839140161906638,-1.61561129230804,-0.8487429076869332,0.3259813189506531,0.4674142003059387,-0.005575352348387241,0.03018224239349365,-0.2280502915382385,0.2757034301757812,XArbitraryZVertical,0.3513745594907219,-0.6255722774483558,0.6812880005000022,0.1450583392939163,-0.6602634787559509,0.7504501342773438,0.02960951067507267,0,0,0,-1,-1,21095.701989625,unknown,2,2025-04-21T17:00:47.567+03:00,2025-04-20T21:57:49.637+03:00,6869,0.9902488,0,0,5622.382,5,6,2025-04-21T17:00:39.829+03:00,766936814.1330497,0,-39.12,100.2019,1,0.3,2025-04-21T16:59:59.105+03:00,92.00000000000001,1.533333333333333,2025-04-21T12:30:07.995+03:00,0.02023345852159405,0
2025-04-21T17:00:52.251+03:00,1745244050.777066,40.95225368581861,29.14027810012393,76.51794,-1,-1,-1,-1,30,26.17599130966446,-9999,21100.3810965,-0.627197265625,0.542144775390625,0.325469970703125,21100.3760585,1.84448015429202,-1.606425777449564,-0.8490458441311188,0.3597804307937622,0.5634039640426636,0.03589306026697159,0.03586006164550781,-0.2385197877883911,0.2657406330108643,XArbitraryZVertical,0.3498154982436619,-0.624016672449622,0.6833125504253363,0.1460005516848726,-0.660280168056488,0.7506503462791443,0.02353538013994694,0,0,0,-1,-1,21095.701989625,unknown,2,2025-04-21T17:00:47.567+03:00,2025-04-20T21:57:49.637+03:00,6869,0.9902488,0,0,5622.382,5,6,2025-04-21T17:00:39.829+03:00,766936814.1330497,0,-39.12,100.2019,1,0.3,2025-04-21T16:59:59.105+03:00,92.00000000000001,1.533333333333333,2025-04-21T12:30:07.995+03:00,0.02023345852159405,0
2025-04-21T17:00:52.261+03:00,1745244050.777066,40.95225368581861,29.14027810012393,76.51794,-1,-1,-1,-1,30,26.17599130966446,-9999,21100.3911725,-0.6138916015625,0.5975189208984375,0.4208526611328125,21100.3861345,1.8506253571175,-1.595600800195663,-0.8498636954424447,0.4461613893508911,0.6746287941932678,0.1086442247033119,0.03323429822921753,-0.227173388004303,0.282349705696106,XArbitraryZVertical,0.3477723882240041,-0.622286156450141,0.6857180746782083,0.1469859227050705,-0.6598822474479675,0.7511904239654541,0.01637138985097408,0,0,0,-1,-1,21095.701989625,unknown,2,2025-04-21T17:00:47.567+03:00,2025-04-20T21:57:49.637+03:00,6869,0.9902488,0,0,5622.382,5,6,2025-04-21T17:00:39.829+03:00,766936814.1330497,0,-39.12,100.2019,1,0.3,2025-04-21T16:59:59.105+03:00,92.00000000000001,1.533333333333333,2025-04-21T12:30:07.995+03:00,0.02023345852159405,0
2025-04-21T17:00:52.271+03:00,1745244050.777066,40.95225368581861,29.14027810012393,76.51794,-1,-1,-1,-1,30,26.17599130966446,-9999,21100.4012485,-0.5997467041015625,0.5640106201171875,0.4919281005859375,21100.3962105,1.856765378209809,-1.583291016466536,-0.8513169264435666,0.3397962749004364,0.8635554909706116,0.1611931622028351,0.03845810890197754,-0.1698432564735413,0.3793089389801025,XArbitraryZVertical,0.3450018750733724,-0.620556649255085,0.6884188083139494,0.1481975065294309,-0.6589414477348328,0.7521489262580872,0.008233697153627872,0,0,0,-1,-1,21095.701989625,unknown,2,2025-04-21T17:00:47.567+03:00,2025-04-20T21:57:49.637+03:00,6869,0.9902488,0,0,5622.382,5,6,2025-04-21T17:00:39.829+03:00,766936814.1330497,0,-39.12,100.2019,1,0.3,2025-04-21T16:59:59.105+03:00,92.00000000000001,1.533333333333333,2025-04-21T12:30:07.995+03:00,0.02023345852159405,0
2025-04-21T17:00:52.281+03:00,1745244050.777066,40.95225368581861,29.14027810012393,76.51794,-1,-1,-1,-1,30,26.17599130966446,-9999,21100.4113255,-0.60418701171875,0.4990692138671875,0.624755859375,21100.4062865,1.861303515084419,-1.569782018110896,-0.8533377267403096,0.2480327934026718,1.149280667304993,0.245200976729393,0.05482542514801025,-0.1674350500106812,0.4627028703689575,XArbitraryZVertical,0.3411234889930451,-0.6191133383574122,0.6912287965425388,0.1501199407816757,-0.6574712991714478,0.7534790635108948,-0.0006668790592812002,0,0,0,-1,-1,21095.701989625,unknown,2,2025-04-21T17:00:47.567+03:00,2025-04-20T21:57:49.637+03:00,6869,0.9902488,0,0,5622.382,5,6,2025-04-21T17:00:39.829+03:00,766936814.1330497,0,-39.12,100.2019,1,0.3,2025-04-21T16:59:59.105+03:00,92.00000000000001,1.533333333333333,2025-04-21T12:30:07.995+03:00,0.02023345852159405,0
2025-04-21T17:00:52.291+03:00,1745244050.777066,40.95225368581861,29.14027810012393,76.51794,-1,-1,-1,-1,30,26.17599130966446,-9999,21100.4214015,-0.5951385498046875,0.4939117431640625,0.783111572265625,21100.4163635,1.862555475559941,-1.555446202135131,-0.856178685184273,-0.09260228276252747,1.510395765304565,0.3084421455860138,0.05342930555343628,-0.2348820567131042,0.5784639716148376,XArbitraryZVertical,0.335665716632612,-0.6183033543578031,0.6939575056854694,0.1531414070182229,-0.6552512049674988,0.7553438544273376,-0.01005897764116526,0,0,0,-1,-1,21095.701989625,unknown,2,2025-04-21T17:00:47.567+03:00,2025-04-20T21:57:49.637+03:00,6869,0.9902488,0,0,5622.382,5,6,2025-04-21T17:00:39.829+03:00,766936814.1330497,0,-39.12,100.2019,1,0.3,2025-04-21T16:59:59.105+03:00,92.00000000000001,1.533333333333333,2025-04-21T12:30:07.995+03:00,0.02023345852159405,0
2025-04-21T17:00:52.302+03:00,1745244050.777066,40.95225368581861,29.14027810012393,76.51794,-1,-1,-1,-1,30,26.17599130966446,-9999,21100.4314775,-0.565948486328125,0.5669097900390625,0.935272216796875,21100.4264395,1.859349761680485,-1.540737888530944,-0.8593752357803633,-0.326812356710434,1.893002510070801,0.3112062215805054,0.04980212450027466,-0.2741128206253052,0.7417750954627991,XArbitraryZVertical,0.3285686509066447,-0.6182486390766287,0.6963768174181481,0.1577040956112725,-0.6526158452033997,0.7574347853660583,-0.01962252333760262,0,0,0,-1,-1,21095.701989625,unknown,2,2025-04-21T17:00:47.567+03:00,2025-04-20T21:57:49.637+03:00,6869,0.9902488,0,0,5622.382,5,6,2025-04-21T17:00:39.829+03:00,766936814.1330497,0,-39.12,100.2019,1,0.3,2025-04-21T16:59:59.105+03:00,92.00000000000001,1.533333333333333,2025-04-21T12:30:07.995+03:00,0.02023345852159405,0
2025-04-21T17:00:52.312+03:00,1745244050.777066,40.95225368581861,29.14027810012393,76.51794,-1,-1,-1,-1,30,26.17599130966446,-9999,21100.4415535,-0.5353240966796875,0.6546783447265625,1.025848388671875,21100.4365155,1.853715644320589,-1.523958312723782,-0.8624084925451708,-0.4022925496101379,2.299924612045288,0.2608537971973419,0.07157331705093384,-0.2221652269363403,0.9149529933929443,XArbitraryZVertical,0.320027554010815,-0.6183456066601142,0.6988523234254718,0.1638183531067614,-0.6498967409133911,0.7594117522239685,-0.03046215139329433,0,0,0,-1,-1,21095.701989625,unknown,2,2025-04-21T17:00:47.567+03:00,2025-04-20T21:57:49.637+03:00,6869,0.9902488,0,0,5622.382,5,6,2025-04-21T17:00:39.829+03:00,766936814.1330497,0,-39.12,100.2019,1,0.3,2025-04-21T16:59:59.105+03:00,92.00000000000001,1.533333333333333,2025-04-21T12:30:07.995+03:00,0.02023345852159405,0
2025-04-21T17:00:52.322+03:00,1745244050.777066,40.95225368581861,29.14027810012393,76.51794,-1,-1,-1,-1,30,26.17599130966446,-9999,21100.4516305,-0.503875732421875,0.7786865234375,1.049240112304688,21100.4465915,1.847237614282313,-1.503619655063187,-0.8651052385188297,-0.4480413794517517,2.692499876022339,0.2267424464225769,0.1009544134140015,-0.1439152359962463,1.04081916809082,XArbitraryZVertical,0.3100585072409227,-0.618139190043441,0.7016912822232221,0.1714551252156889,-0.6470969915390015,0.7611635327339172,-0.04353532940149307,0,0,0,-1,-1,21095.701989625,unknown,2,2025-04-21T17:00:47.567+03:00,2025-04-20T21:57:49.637+03:00,6869,0.9902488,0,0,5622.382,5,6,2025-04-21T17:00:39.829+03:00,766936814.1330497,0,-39.12,100.2019,1,0.3,2025-04-21T16:59:59.105+03:00,92.00000000000001,1.533333333333333,2025-04-21T12:30:07.995+03:00,0.02023345852159405,0
2025-04-21T17:00:52.332+03:00,1745244050.777066,40.95225368581861,29.14027810012393,76.51794,-1,-1,-1,-1,30,26.17599130966446,-9999,21100.4617065,-0.4575042724609375,0.787841796875,0.9626007080078125,21100.4566685,1.841143525972049,-1.479515999056944,-0.8679468359225937,-0.431447446346283,3.036265134811401,0.2719607055187225,0.1262778043746948,-0.03044432401657104,1.113501787185669,XArbitraryZVertical,0.2988043670121938,-0.6174587875932699,0.705004217815858,0.1800822189982867,-0.6437034010887146,0.763003408908844,-0.05892119184136391,0,0,0,-1,-1,21095.701989625,unknown,2,2025-04-21T17:00:47.567+03:00,2025-04-20T21:57:49.637+03:00,6869,0.9902488,0,0,5622.382,5,6,2025-04-21T17:00:39.829+03:00,766936814.1330497,0,-39.12,100.2019,1,0.3,2025-04-21T16:59:59.105+03:00,92.00000000000001,1.533333333333333,2025-04-21T12:30:07.995+03:00,0.02023345852159405,0
2025-04-21T17:00:52.342+03:00,1745244050.777066,40.95225368581861,29.14027810012393,76.51794,-1,-1,-1,-1,30,26.17599130966446,-9999,21100.4717825,-0.4675140380859375,0.606414794921875,1.050064086914062,21100.4667445,1.833032162935438,-1.452407545481574,-0.8710462925896795,-0.6549407243728638,3.591354370117188,0.2270323634147644,0.165931224822998,0.04748135805130005,1.072298407554626,XArbitraryZVertical,0.285741515626773,-0.6166993082776565,0.7084000651563295,0.1902706792864184,-0.6395182013511658,0.7650032043457031,-0.07606749981641769,0,0,0,-1,-1,21095.701989625,unknown,2,2025-04-21T17:00:47.567+03:00,2025-04-20T21:57:49.637+03:00,6869,0.9902488,0,0,5622.382,5,6,2025-04-21T17:00:39.829+03:00,766936814.1330497,0,-39.12,100.2019,1,0.3,2025-04-21T16:59:59.105+03:00,92.00000000000001,1.533333333333333,2025-04-21T12:30:07.995+03:00,0.02023345852159405,0
2025-04-21T17:00:52.352+03:00,1745244050.777066,40.95225368581861,29.14027810012393,76.51794,-1,-1,-1,-1,30,26.17599130966446,-9999,21100.4818585,-0.54168701171875,0.4264678955078125,1.289810180664062,21100.4768205,1.820912900822775,-1.422169696470389,-0.8748280384383793,-0.9886598587036133,4.22850227355957,0.3203637599945068,0.1821408867835999,-0.08548760414123535,1.076780319213867,XArbitraryZVertical,0.2700664490737045,-0.6161127581097083,0.7116243416784033,0.2026323671210379,-0.6340605020523071,0.7674332857131958,-0.09493836760520935,0,0,0,-1,-1,21095.701989625,unknown,2,2025-04-21T17:00:47.567+03:00,2025-04-20T21:57:49.637+03:00,6869,0.9902488,0,0,5622.382,5,6,2025-04-21T17:00:39.829+03:00,766936814.1330497,0,-39.12,100.2019,1,0.3,2025-04-21T16:59:59.105+03:00,92.00000000000001,1.533333333333333,2025-04-21T12:30:07.995+03:00,0.02023345852159405,0
2025-04-21T17:00:52.362+03:00,1745244050.777066,40.95225368581861,29.14027810012393,76.51794,-1,-1,-1,-1,30,26.17599130966446,-9999,21100.4919345,-0.5794677734375,0.249603271484375,1.478668212890625,21100.4868965,1.80432181412396,-1.388831763038654,-0.880610179789548,-1.290232539176941,4.964229106903076,0.4822836816310883,0.110223650932312,-0.2803897261619568,1.318339824676514,XArbitraryZVertical,0.2512127920836386,-0.615860871316845,0.7145340230762529,0.2169069079349324,-0.6261691451072693,0.7711275219917297,-0.115215040743351,0,0,0,-1,-1,21095.701989625,unknown,2,2025-04-21T17:00:47.567+03:00,2025-04-20T21:57:49.637+03:00,6869,0.9902488,0,0,5622.382,5,6,2025-04-21T17:00:39.829+03:00,766936814.1330497,0,-39.12,100.2019,1,0.3,2025-04-21T16:59:59.105+03:00,92.00000000000001,1.533333333333333,2025-04-21T12:30:07.995+03:00,0.02023345852159405,0
2025-04-21T17:00:52.372+03:00,1745244050.777066,40.95225368581861,29.14027810012393,76.51794,-1,-1,-1,-1,30,26.17599130966446,-9999,21100.5020115,-0.601104736328125,0.082366943359375,1.57440185546875,21100.4969735,1.783176750492655,-1.350843982890211,-0.8898074142154404,-1.655550956726074,5.796359062194824,0.7905824780464172,0.04678231477737427,-0.4588050246238708,1.55242908000946,XArbitraryZVertical,0.2281215539884963,-0.6158577097735272,0.7171557497174924,0.233167966761092,-0.614393949508667,0.7769505381584167,-0.1373596787452698,0,0,0,-1,-1,21095.701989625,unknown,2,2025-04-21T17:00:47.567+03:00,2025-04-20T21:57:49.637+03:00,6869,0.9902488,0,0,5622.382,5,6,2025-04-21T17:00:39.829+03:00,766936814.1330497,0,-39.12,100.2019,1,0.3,2025-04-21T16:59:59.105+03:00,92.00000000000001,1.533333333333333,2025-04-21T12:30:07.995+03:00,0.02023345852159405,0
2025-04-21T17:00:52.382+03:00,1745244050.777066,40.95225368581861,29.14027810012393,76.51794,-1,-1,-1,-1,30,26.17599130966446,-9999,21100.5120875,-0.512603759765625,-0.0131683349609375,1.489654541015625,21100.5070495,1.75849602193707,-1.308882858273865,-0.9027422872056915,-1.80280613899231,6.272354125976562,0.8693699836730957,-0.001474201679229736,-0.6465247273445129,1.716136455535889,XArbitraryZVertical,0.2012090935346647,-0.6158870209055116,0.7192428681928771,0.250774201684476,-0.5983335375785828,0.7850285768508911,-0.1603961586952209,0,0,0,-1,-1,21095.701989625,unknown,2,2025-04-21T17:00:47.567+03:00,2025-04-20T21:57:49.637+03:00,6869,0.9902488,0,0,5622.382,5,6,2025-04-21T17:00:39.829+03:00,766936814.1330497,0,-39.12,100.2019,1,0.3,2025-04-21T16:59:59.105+03:00,92.00000000000001,1.533333333333333,2025-04-21T12:30:07.995+03:00,0.02023345852159405,0
2025-04-21T17:00:52.392+03:00,1745244050.777066,40.95225368581861,29.14027810012393,76.51794,-1,-1,-1,-1,30,26.17599130966446,-9999,21100.5221635,-0.1899871826171875,0.405181884765625,-0.6202850341796875,21100.5171255,1.73885655293329,-1.278974010681017,-0.906747435114839,2.276933670043945,1.895256757736206,-0.2327277064323425,0.02927941083908081,-0.7763186693191528,1.71652615070343,XArbitraryZVertical,0.1830799847414515,-0.6146755866273792,0.7197408698017587,0.2657607921418645,-0.5902536511421204,0.7875033020973206,-0.1773112863302231,0,0,0,-1,-1,21095.701989625,unknown,2,2025-04-21T17:00:47.567+03:00,2025-04-20T21:57:49.637+03:00,6869,0.9902488,0,0,5622.382,5,6,2025-04-21T17:00:39.829+03:00,766936814.1330497,0,-39.12,100.2019,1,0.3,2025-04-21T16:59:59.105+03:00,92.00000000000001,1.533333333333333,2025-04-21T12:30:07.995+03:00,0.02023345852159405,0
2025-04-21T17:00:52.402+03:00,1745244050.777066,40.95225368581861,29.14027810012393,76.51794,-1,-1,-1,-1,30,26.17599130966446,-9999,21100.5322395,1.2325439453125,3.909759521484375,-8.71893310546875,21100.5272015,1.780304583004621,-1.248622675746104,-0.869929309846419,3.247238636016846,-1.253420948982239,-4.142704010009766,0.2183294296264648,-0.6902325749397278,1.176462531089783,XArbitraryZVertical,0.1968333176504541,-0.5993018187229718,0.7268544715509546,0.27161829750931,-0.6117010116577148,0.7642833590507507,-0.2041879445314407,0,0,0,-1,-1,21095.701989625,unknown,2,2025-04-21T17:00:47.567+03:00,2025-04-20T21:57:49.637+03:00,6869,0.9902488,0,0,5622.382,5,6,2025-04-21T17:00:39.829+03:00,766936814.1330497,0,-39.12,100.2019,1,0.3,2025-04-21T16:59:59.105+03:00,92.00000000000001,1.533333333333333,2025-04-21T12:30:07.995+03:00,0.02023345852159405,0
