loggingTime(txt),locationTimestamp_since1970(s),locationLatitude(WGS84),locationLongitude(WGS84),locationAltitude(m),locationSpeed(m/s),locationSpeedAccuracy(m/s),locationCourse(°),locationCourseAccuracy(°),locationVerticalAccuracy(m),locationHorizontalAccuracy(m),locationFloor(Z),accelerometerTimestamp_sinceReboot(s),accelerometerAccelerationX(G),accelerometerAccelerationY(G),accelerometerAccelerationZ(G),motionTimestamp_sinceReboot(s),motionYaw(rad),motionRoll(rad),motionPitch(rad),motionRotationRateX(rad/s),motionRotationRateY(rad/s),motionRotationRateZ(rad/s),motionUserAccelerationX(G),motionUserAccelerationY(G),motionUserAccelerationZ(G),motionAttitudeReferenceFrame(txt),motionQuaternionX(R),motionQuaternionY(R),motionQuaternionZ(R),motionQuaternionW(R),motionGravityX(G),motionGravityY(G),motionGravityZ(G),motionMagneticFieldX(µT),motionMagneticFieldY(µT),motionMagneticFieldZ(µT),motionHeading(°),motionMagneticFieldCalibrationAccuracy(Z),activityTimestamp_sinceReboot(s),activity(txt),activityActivityConfidence(Z),activityActivityStartDate(txt),pedometerStartDate(txt),pedometerNumberofSteps(N),pedometerAverageActivePace(s/m),pedometerCurrentPace(s/m),pedometerCurrentCadence(steps/s),pedometerDistance(m),pedometerFloorAscended(N),pedometerFloorDescended(N),pedometerEndDate(txt),altimeterTimestamp_sinceReboot(s),altimeterReset(bool),altimeterRelativeAltitude(m),altimeterPressure(kPa),batteryState(N),batteryLevel(R),heartRateBPMTimestamp(txt),heartRateBPM(N),heartRateBPS(R),heartRateVariabilityTimestamp(txt),heartRateVariability(ms),label
2025-04-18T10:45:20.801+03:00,1744962319.922001,40.95359498604372,29.14098320424353,93.80547,-1,-1,-1,-1,30,35.56216926140436,-9999,61943.004867125,-0.740447998046875,0.484283447265625,-0.4352264404296875,61942.999829125,1.429072565674052,-1.014699761483763,-0.5754724232324059,-0.007830983027815819,0.001391041558235884,-0.004306025803089142,0.008943557739257812,0.02359414100646973,0.005825996398925781,XArbitraryZVertical,-0.1179158158033247,0.5144602803086219,-0.6533346244279485,-0.5427526546950674,-0.7125263214111328,0.5442311763763428,-0.4428529739379883,0,0,0,-1,-1,61937.41118925,unknown,2,2025-04-18T10:45:15.179+03:00,2025-04-17T15:44:39.500+03:00,7159,1.080567,0,0,5908.069,4,10,2025-04-18T10:45:17.758+03:00,766655120.4251046,0,107.72,100.5628,1,0.7,2025-04-18T10:44:07.044+03:00,81,1.35,2025-04-18T08:51:18.885+03:00,0.03057091307199995,1
2025-04-18T10:45:20.803+03:00,1744962319.922001,40.95359498604372,29.14098320424353,93.80547,-1,-1,-1,-1,30,35.56216926140436,-9999,61943.014944125,-0.7008056640625,0.5347137451171875,-0.4267730712890625,61943.009906125,1.42881765369724,-1.015136662148799,-0.5755143310747571,-0.02633868716657162,-0.0476657822728157,-0.006406893953680992,-0.02704578638076782,-0.05674797296524048,0.006357192993164062,XArbitraryZVertical,-0.1179777850376764,0.5146031956830589,-0.6532436552488905,-0.5427132050718092,-0.712700366973877,0.5442663431167603,-0.4425295889377594,0,0,0,-1,-1,61937.41118925,unknown,2,2025-04-18T10:45:15.179+03:00,2025-04-17T15:44:39.500+03:00,7159,1.080567,0,0,5908.069,4,10,2025-04-18T10:45:17.758+03:00,766655120.4251046,0,107.72,100.5628,1,0.7,2025-04-18T10:44:07.044+03:00,81,1.35,2025-04-18T08:51:18.885+03:00,0.03057091307199995,1
2025-04-18T10:45:20.803+03:00,1744962319.922001,40.95359498604372,29.14098320424353,93.80547,-1,-1,-1,-1,30,35.56216926140436,-9999,61943.025020125,-0.70074462890625,0.549041748046875,-0.4349212646484375,61943.01998212501,1.428527072953239,-1.015585750379387,-0.5755834702592512,-0.01797875948250294,-8.734595030546188e-05,-0.006626604590564966,0.006736040115356445,-0.01788091659545898,0.01601168513298035,XArbitraryZVertical,-0.1180246935443642,0.5147575790841833,-0.6531448684858472,-0.5426754219983861,-0.7128670215606689,0.5443243384361267,-0.4421896040439606,0,0,0,-1,-1,61937.41118925,unknown,2,2025-04-18T10:45:15.179+03:00,2025-04-17T15:44:39.500+03:00,7159,1.080567,0,0,5908.069,4,10,2025-04-18T10:45:17.758+03:00,766655120.4251046,0,107.72,100.5628,1,0.7,2025-04-18T10:44:07.044+03:00,81,1.35,2025-04-18T08:51:18.885+03:00,0.03057091307199995,1
2025-04-18T10:45:20.808+03:00,1744962319.922001,40.95359498604372,29.14098320424353,93.80547,-1,-1,-1,-1,30,35.56216926140436,-9999,61943.035097125,-0.733642578125,0.537353515625,-0.43988037109375,61943.03005912501,1.428334653410733,-1.01559869900679,-0.5756379942763669,-0.01123596727848053,0.01030264422297478,-0.005158570129424334,0.01687884330749512,0.006884157657623291,0.007884413003921509,XArbitraryZVertical,-0.1179596986500406,0.5147845710505214,-0.653097066649853,-0.5427214049883913,-0.7128474712371826,0.5443700551986694,-0.4421647191047668,0,0,0,-1,-1,61937.41118925,unknown,2,2025-04-18T10:45:15.179+03:00,2025-04-17T15:44:39.500+03:00,7159,1.080567,0,0,5908.069,4,10,2025-04-18T10:45:17.758+03:00,766655120.4251046,0,107.72,100.5628,1,0.7,2025-04-18T10:44:07.044+03:00,81,1.35,2025-04-18T08:51:18.885+03:00,0.03057091307199995,1
2025-04-18T10:45:20.819+03:00,1744962319.922001,40.95359498604372,29.14098320424353,93.80547,-1,-1,-1,-1,30,35.56216926140436,-9999,61943.04517312501,-0.7176055908203125,0.548675537109375,-0.4401092529296875,61943.040135125,1.428259950366522,-1.015534777419279,-0.5756737551453146,-0.000674670038279146,0.005741181783378124,-0.00373883917927742,-0.01945137977600098,-0.007656872272491455,0.001526296138763428,XArbitraryZVertical,-0.1179066323121474,0.51477956980754,-0.6530839587043074,-0.5427535278272468,-0.7128027081489563,0.5444000959396362,-0.4422000348567963,0,0,0,-1,-1,61937.41118925,unknown,2,2025-04-18T10:45:15.179+03:00,2025-04-17T15:44:39.500+03:00,7159,1.080567,0,0,5908.069,4,10,2025-04-18T10:45:17.758+03:00,766655120.4251046,0,107.72,100.5628,1,0.7,2025-04-18T10:44:07.044+03:00,81,1.35,2025-04-18T08:51:18.885+03:00,0.03057091307199995,1
2025-04-18T10:45:20.828+03:00,1744962319.922001,40.95359498604372,29.14098320424353,93.80547,-1,-1,-1,-1,30,35.56216926140436,-9999,61943.05525012501,-0.71417236328125,0.551483154296875,-0.4423980712890625,61943.050212125,1.428322087380897,-1.015366898026772,-0.5756024045084273,0.01050647813826799,0.01800357364118099,-0.001719297375530005,-0.007728040218353271,0.003877580165863037,0.002810835838317871,XArbitraryZVertical,-0.1178935968941177,0.5147144827023972,-0.6531039470696434,-0.5427940901895507,-0.7127615213394165,0.5443402528762817,-0.4423401951789856,0,0,0,-1,-1,61937.41118925,unknown,2,2025-04-18T10:45:15.179+03:00,2025-04-17T15:44:39.500+03:00,7159,1.080567,0,0,5908.069,4,10,2025-04-18T10:45:17.758+03:00,766655120.4251046,0,107.72,100.5628,1,0.7,2025-04-18T10:44:07.044+03:00,81,1.35,2025-04-18T08:51:18.885+03:00,0.03057091307199995,1
2025-04-18T10:45:20.839+03:00,1744962319.922001,40.95359498604372,29.14098320424353,93.80547,-1,-1,-1,-1,30,35.56216926140436,-9999,61943.065326125,-0.7202606201171875,0.545745849609375,-0.4349517822265625,61943.060288125,1.42842000877995,-1.015092635338187,-0.5755625726022361,0.00530798826366663,0.02214026264846325,-0.001527816173620522,-3.373622894287109e-05,0.006886422634124756,-0.000430762767791748,XArbitraryZVertical,-0.1178436731413421,0.5146254278279974,-0.6531429082660845,-0.5428424054957204,-0.7126585245132446,0.5443068146705627,-0.442547082901001,0,0,0,-1,-1,61937.41118925,unknown,2,2025-04-18T10:45:15.179+03:00,2025-04-17T15:44:39.500+03:00,7159,1.080567,0,0,5908.069,4,10,2025-04-18T10:45:17.758+03:00,766655120.4251046,0,107.72,100.5628,1,0.7,2025-04-18T10:44:07.044+03:00,81,1.35,2025-04-18T08:51:18.885+03:00,0.03057091307199995,1
2025-04-18T10:45:20.848+03:00,1744962319.922001,40.95359498604372,29.14098320424353,93.80547,-1,-1,-1,-1,30,35.56216926140436,-9999,61943.075403125,-0.7147216796875,0.5354156494140625,-0.432037353515625,61943.070365125,1.428441124917076,-1.014876985069994,-0.5756737462265578,-0.00822779443114996,0.01562696881592274,0.001771840383298695,-0.007428526878356934,0.00213921070098877,0.006374329328536987,XArbitraryZVertical,-0.1177384519991365,0.5145903679727366,-0.6531718807436536,-0.5428636307709442,-0.7125116586685181,0.5444000959396362,-0.4426688253879547,0,0,0,-1,-1,61937.41118925,unknown,2,2025-04-18T10:45:15.179+03:00,2025-04-17T15:44:39.500+03:00,7159,1.080567,0,0,5908.069,4,10,2025-04-18T10:45:17.758+03:00,766655120.4251046,0,107.72,100.5628,1,0.7,2025-04-18T10:44:07.044+03:00,81,1.35,2025-04-18T08:51:18.885+03:00,0.03057091307199995,1
2025-04-18T10:45:20.860+03:00,1744962319.922001,40.95359498604372,29.14098320424353,93.80547,-1,-1,-1,-1,30,35.56216926140436,-9999,61943.085479125,-0.70953369140625,0.5370025634765625,-0.4337615966796875,61943.08044112501,1.428330270312121,-1.014809203130715,-0.5758724210375521,-0.009724224917590618,0.01120026223361492,-0.0001211345079354942,-0.003354191780090332,-0.007793009281158447,0.01127886772155762,XArbitraryZVertical,-0.1176158703581987,0.5146226531569723,-0.6531646066628966,-0.5428684607810795,-0.7123898863792419,0.5445666909217834,-0.4426600635051727,0,0,0,-1,-1,61937.41118925,unknown,2,2025-04-18T10:45:15.179+03:00,2025-04-17T15:44:39.500+03:00,7159,1.080567,0,0,5908.069,4,10,2025-04-18T10:45:17.758+03:00,766655120.4251046,0,107.72,100.5628,1,0.7,2025-04-18T10:44:07.044+03:00,81,1.35,2025-04-18T08:51:18.885+03:00,0.03057091307199995,1
2025-04-18T10:45:20.869+03:00,1744962319.922001,40.95359498604372,29.14098320424353,93.80547,-1,-1,-1,-1,30,35.56216926140436,-9999,61943.095556125,-0.7118377685546875,0.548126220703125,-0.4363555908203125,61943.09051812501,1.428175524305816,-1.014848583203576,-0.5755961519768521,-0.007689503021538258,0.01849818974733353,-0.002199964597821236,0.00255882740020752,-0.008553087711334229,0.008583664894104004,XArbitraryZVertical,-0.1176888434563756,0.5145810194336392,-0.6530940975492153,-0.5429770107645161,-0.7125350832939148,0.5443350076675415,-0.4427114129066467,0,0,0,-1,-1,61937.41118925,unknown,2,2025-04-18T10:45:15.179+03:00,2025-04-17T15:44:39.500+03:00,7159,1.080567,0,0,5908.069,4,10,2025-04-18T10:45:17.758+03:00,766655120.4251046,0,107.72,100.5628,1,0.7,2025-04-18T10:44:07.044+03:00,81,1.35,2025-04-18T08:51:18.885+03:00,0.03057091307199995,1
2025-04-18T10:45:20.879+03:00,1744962319.922001,40.95359498604372,29.14098320424353,93.80547,-1,-1,-1,-1,30,35.56216926140436,-9999,61943.105633125,-0.715118408203125,0.5475006103515625,-0.4417724609375,61943.100594125,1.428062042018079,-1.014800948000385,-0.5755324757610735,-0.00236504478380084,0.01340303011238575,-0.00703759677708149,0.002155125141143799,0.003020644187927246,0.006820052862167358,XArbitraryZVertical,-0.117667201467469,0.514560626408199,-0.6530600503778742,-0.5430417843283204,-0.7125433087348938,0.544281542301178,-0.4427635967731476,0,0,0,-1,-1,61937.41118925,unknown,2,2025-04-18T10:45:15.179+03:00,2025-04-17T15:44:39.500+03:00,7159,1.080567,0,0,5908.069,4,10,2025-04-18T10:45:17.758+03:00,766655120.4251046,0,107.72,100.5628,1,0.7,2025-04-18T10:44:07.044+03:00,81,1.35,2025-04-18T08:51:18.885+03:00,0.03057091307199995,1
2025-04-18T10:45:20.889+03:00,1744962319.922001,40.95359498604372,29.14098320424353,93.80547,-1,-1,-1,-1,30,35.56216926140436,-9999,61943.11570912501,-0.7109375,0.5378265380859375,-0.44537353515625,61943.110671125,1.427931601604033,-1.014806689646953,-0.5755817261423147,-0.01240136753767729,0.001842047553509474,-0.01129689067602158,-0.003312468528747559,0.004093289375305176,0.001110315322875977,XArbitraryZVertical,-0.1176176578092183,0.514580796123341,-0.6530289656627224,-0.5430708863175007,-0.7125231623649597,0.5443229079246521,-0.4427453875541687,0,0,0,-1,-1,61937.41118925,unknown,2,2025-04-18T10:45:15.179+03:00,2025-04-17T15:44:39.500+03:00,7159,1.080567,0,0,5908.069,4,10,2025-04-18T10:45:17.758+03:00,766655120.4251046,0,107.72,100.5628,1,0.7,2025-04-18T10:44:07.044+03:00,81,1.35,2025-04-18T08:51:18.885+03:00,0.03057091307199995,1
2025-04-18T10:45:20.899+03:00,1744962319.922001,40.95359498604372,29.14098320424353,93.80547,-1,-1,-1,-1,30,35.56216926140436,-9999,61943.12578612501,-0.711883544921875,0.535797119140625,-0.444610595703125,61943.120747125,1.427681071690559,-1.014988149956106,-0.5755028096593582,-0.01351616624742746,0.002478276845067739,-0.009628686122596264,0.000664830207824707,-0.005529820919036865,-0.002719521522521973,XArbitraryZVertical,-0.1176410019157669,0.5146272681051397,-0.6529427742656403,-0.5431254167405128,-0.7126399874687195,0.5442566871643066,-0.4426387250423431,0,0,0,-1,-1,61937.41118925,unknown,2,2025-04-18T10:45:15.179+03:00,2025-04-17T15:44:39.500+03:00,7159,1.080567,0,0,5908.069,4,10,2025-04-18T10:45:17.758+03:00,766655120.4251046,0,107.72,100.5628,1,0.7,2025-04-18T10:44:07.044+03:00,81,1.35,2025-04-18T08:51:18.885+03:00,0.03057091307199995,1
2025-04-18T10:45:20.909+03:00,1744962319.922001,40.95359498604372,29.14098320424353,93.80547,-1,-1,-1,-1,30,35.56216926140436,-9999,61943.135862125,-0.712127685546875,0.5360107421875,-0.4433746337890625,61943.130824125,1.427441677413974,-1.015125884850545,-0.5754976890751696,-0.01478915754705667,0.002431138884276152,-0.01129489298909903,0.002009928226470947,-0.008195817470550537,-0.001671731472015381,XArbitraryZVertical,-0.1176261973956257,0.5146776107497267,-0.6528691739910496,-0.5431694464247426,-0.7127033472061157,0.5442523956298828,-0.4425420761108398,0,0,0,-1,-1,61937.41118925,unknown,2,2025-04-18T10:45:15.179+03:00,2025-04-17T15:44:39.500+03:00,7159,1.080567,0,0,5908.069,4,10,2025-04-18T10:45:17.758+03:00,766655120.4251046,0,107.72,100.5628,1,0.7,2025-04-18T10:44:07.044+03:00,81,1.35,2025-04-18T08:51:18.885+03:00,0.03057091307199995,1
2025-04-18T10:45:20.919+03:00,1744962319.922001,40.95359498604372,29.14098320424353,93.80547,-1,-1,-1,-1,30,35.56216926140436,-9999,61943.145939125,-0.7092437744140625,0.5411224365234375,-0.44244384765625,61943.14090012501,1.427265480128679,-1.015230606784987,-0.5755066693057679,-0.007709676399827003,-0.001653084997087717,-0.009601655416190624,-0.0002367496490478516,-0.008615374565124512,-0.0006504058837890625,XArbitraryZVertical,-0.1176118023003722,0.5147184135192703,-0.6528160144982608,-0.5431977499882669,-0.7127454876899719,0.5442599058151245,-0.4424648284912109,0,0,0,-1,-1,61937.41118925,unknown,2,2025-04-18T10:45:15.179+03:00,2025-04-17T15:44:39.500+03:00,7159,1.080567,0,0,5908.069,4,10,2025-04-18T10:45:17.758+03:00,766655120.4251046,0,107.72,100.5628,1,0.7,2025-04-18T10:44:07.044+03:00,81,1.35,2025-04-18T08:51:18.885+03:00,0.03057091307199995,1
2025-04-18T10:45:20.929+03:00,1744962319.922001,40.95359498604372,29.14098320424353,93.80547,-1,-1,-1,-1,30,35.56216926140436,-9999,61943.156015125,-0.7093963623046875,0.548553466796875,-0.4428558349609375,61943.15097712501,1.427111339651597,-1.01535223145173,-0.5754429648992606,0.0002106978790834546,0.004530375823378563,-0.01120760757476091,0.003478169441223145,-0.003923237323760986,0.0001510381698608398,XArbitraryZVertical,-0.1176348807160789,0.5147463632491194,-0.6527609414583943,-0.5432324602423916,-0.7128287553787231,0.544206440448761,-0.4423964321613312,0,0,0,-1,-1,61937.41118925,unknown,2,2025-04-18T10:45:15.179+03:00,2025-04-17T15:44:39.500+03:00,7159,1.080567,0,0,5908.069,4,10,2025-04-18T10:45:17.758+03:00,766655120.4251046,0,107.72,100.5628,1,0.7,2025-04-18T10:44:07.044+03:00,81,1.35,2025-04-18T08:51:18.885+03:00,0.03057091307199995,1
2025-04-18T10:45:20.939+03:00,1744962319.922001,40.95359498604372,29.14098320424353,93.80547,-1,-1,-1,-1,30,35.56216926140436,-9999,61943.166092125,-0.713775634765625,0.5440673828125,-0.440826416015625,61943.161053125,1.427012244601954,-1.015435054978744,-0.5753175650943486,-0.0004287270712666214,0.001684521790593863,-0.01141799706965685,0.004259407520294189,0.004375934600830078,-0.0007876157760620117,XArbitraryZVertical,-0.1176817835206841,0.5147468396364512,-0.6527172281386432,-0.5432743941170097,-0.7129234075546265,0.5441012382507324,-0.4423733651638031,0,0,0,-1,-1,61937.41118925,unknown,2,2025-04-18T10:45:15.179+03:00,2025-04-17T15:44:39.500+03:00,7159,1.080567,0,0,5908.069,4,10,2025-04-18T10:45:17.758+03:00,766655120.4251046,0,107.72,100.5628,1,0.7,2025-04-18T10:44:07.044+03:00,81,1.35,2025-04-18T08:51:18.885+03:00,0.03057091307199995,1
2025-04-18T10:45:20.949+03:00,1744962319.922001,40.95359498604372,29.14098320424353,93.80547,-1,-1,-1,-1,30,35.56216926140436,-9999,61943.17616812501,-0.7102813720703125,0.542633056640625,-0.4399566650390625,61943.171130125,1.426894865456066,-1.01553955333644,-0.5752069683603471,-0.00521888816729188,-0.00603431835770607,-0.0140666114166379,6.908178329467773e-05,0.0008066296577453613,0.001656770706176758,XArbitraryZVertical,-0.1177256958674484,0.5147575733608668,-0.6526686706351049,-0.5433130633782334,-0.7130208015441895,0.5440084934234619,-0.4423305988311768,0,0,0,-1,-1,61937.41118925,unknown,2,2025-04-18T10:45:15.179+03:00,2025-04-17T15:44:39.500+03:00,7159,1.080567,0,0,5908.069,4,10,2025-04-18T10:45:17.758+03:00,766655120.4251046,0,107.72,100.5628,1,0.7,2025-04-18T10:44:07.044+03:00,81,1.35,2025-04-18T08:51:18.885+03:00,0.03057091307199995,1
2025-04-18T10:45:20.959+03:00,1744962319.922001,40.95359498604372,29.14098320424353,93.80547,-1,-1,-1,-1,30,35.56216926140436,-9999,61943.18624512501,-0.708892822265625,0.5421600341796875,-0.4397430419921875,61943.181206125,1.42670671514532,-1.015728835463915,-0.5751748431472055,-0.01497884094715118,-0.008860996924340725,-0.01078612916171551,0.002319097518920898,-0.001470446586608887,0.001759946346282959,XArbitraryZVertical,-0.1177506515609527,0.5148129353339346,-0.6526033564723622,-0.5433336801910714,-0.7131193280220032,0.5439814925193787,-0.4422048628330231,0,0,0,-1,-1,61937.41118925,unknown,2,2025-04-18T10:45:15.179+03:00,2025-04-17T15:44:39.500+03:00,7159,1.080567,0,0,5908.069,4,10,2025-04-18T10:45:17.758+03:00,766655120.4251046,0,107.72,100.5628,1,0.7,2025-04-18T10:44:07.044+03:00,81,1.35,2025-04-18T08:51:18.885+03:00,0.03057091307199995,1
2025-04-18T10:45:20.970+03:00,1744962319.922001,40.95359498604372,29.14098320424353,93.80547,-1,-1,-1,-1,30,35.56216926140436,-9999,61943.196321125,-0.712371826171875,0.537933349609375,-0.4409942626953125,61943.191283125,1.426488171882369,-1.015935743031595,-0.5751604116268201,-0.008006751537322998,-0.004836228210479021,-0.01035899110138416,0.004660248756408691,-0.001351594924926758,0.002196311950683594,XArbitraryZVertical,-0.1177671888062611,0.5148788274181348,-0.6525304263159467,-0.543355084387705,-0.7132173776626587,0.5439693927764893,-0.4420613646507263,0,0,0,-1,-1,61937.41118925,unknown,2,2025-04-18T10:45:15.179+03:00,2025-04-17T15:44:39.500+03:00,7159,1.080567,0,0,5908.069,4,10,2025-04-18T10:45:17.758+03:00,766655120.4251046,0,107.72,100.5628,1,0.7,2025-04-18T10:44:07.044+03:00,81,1.35,2025-04-18T08:51:18.885+03:00,0.03057091307199995,1
2025-04-18T10:45:20.980+03:00,1744962319.922001,40.95359498604372,29.14098320424353,93.80547,-1,-1,-1,-1,30,35.56216926140436,-9999,61943.206398125,-0.717193603515625,0.54022216796875,-0.4444427490234375,61943.20135912501,1.426358301490261,-1.015991051018588,-0.5750916580208756,-0.005130538251250982,0.004303208086639643,-0.009265230968594551,0.00163424015045166,-0.00533747673034668,0.001184761524200439,XArbitraryZVertical,-0.1177766459096233,0.5148862330473252,-0.6524853324979579,-0.5434002719459055,-0.7132737040519714,0.5439116954803467,-0.4420416653156281,0,0,0,-1,-1,61937.41118925,unknown,2,2025-04-18T10:45:15.179+03:00,2025-04-17T15:44:39.500+03:00,7159,1.080567,0,0,5908.069,4,10,2025-04-18T10:45:17.758+03:00,766655120.4251046,0,107.72,100.5628,1,0.7,2025-04-18T10:44:07.044+03:00,81,1.35,2025-04-18T08:51:18.885+03:00,0.03057091307199995,1
2025-04-18T10:45:20.990+03:00,1744962319.922001,40.95359498604372,29.14098320424353,93.80547,-1,-1,-1,-1,30,35.56216926140436,-9999,61943.216474125,-0.7162628173828125,0.5435791015625,-0.4474029541015625,61943.21143612501,1.426309769732679,-1.015918041272887,-0.5749989266708738,0.001816717209294438,0.01084592938423157,-0.006638355553150177,-0.003543198108673096,-0.004038989543914795,-0.001742571592330933,XArbitraryZVertical,-0.1177739462874863,0.5148486873297115,-0.6524676040751894,-0.5434575856882833,-0.7132841944694519,0.5438339114189148,-0.4421202540397644,0,0,0,-1,-1,61937.41118925,unknown,2,2025-04-18T10:45:15.179+03:00,2025-04-17T15:44:39.500+03:00,7159,1.080567,0,0,5908.069,4,10,2025-04-18T10:45:17.758+03:00,766655120.4251046,0,107.72,100.5628,1,0.7,2025-04-18T10:44:07.044+03:00,81,1.35,2025-04-18T08:51:18.885+03:00,0.03057091307199995,1
2025-04-18T10:45:21.000+03:00,1744962319.922001,40.95359498604372,29.14098320424353,93.80547,-1,-1,-1,-1,30,35.56216926140436,-9999,61943.226551125,-0.7162628173828125,0.5468597412109375,-0.446380615234375,61943.221512125,1.426332498077002,-1.015740752312132,-0.5748978661696907,0.006683643907308578,0.02157553844153881,-0.004500103648751974,-0.003208637237548828,-0.0005819201469421387,-0.004669427871704102,XArbitraryZVertical,-0.1177584975458605,0.5147767307655109,-0.6524745861276291,-0.543520822078028,-0.7132526040077209,0.5437490940093994,-0.4422757029533386,0,0,0,-1,-1,61937.41118925,unknown,2,2025-04-18T10:45:15.179+03:00,2025-04-17T15:44:39.500+03:00,7159,1.080567,0,0,5908.069,4,10,2025-04-18T10:45:17.758+03:00,766655120.4251046,0,107.72,100.5628,1,0.7,2025-04-18T10:44:07.044+03:00,81,1.35,2025-04-18T08:51:18.885+03:00,0.03057091307199995,1
2025-04-18T10:45:21.010+03:00,1744962319.922001,40.95359498604372,29.14098320424353,93.80547,-1,-1,-1,-1,30,35.56216926140436,-9999,61943.23662712501,-0.71533203125,0.550537109375,-0.4431304931640625,61943.231589125,1.426398817300296,-1.015505831443515,-0.5748156906703837,0.01038803439587355,0.01307013444602489,-0.001560672884806991,-0.001992881298065186,0.002294659614562988,-0.004371523857116699,XArbitraryZVertical,-0.1177287009028465,0.5146907473177603,-0.6524986084754664,-0.5435797786848463,-0.7131866216659546,0.5436801314353943,-0.4424667656421661,0,0,0,-1,-1,61937.41118925,unknown,2,2025-04-18T10:45:15.179+03:00,2025-04-17T15:44:39.500+03:00,7159,1.080567,0,0,5908.069,4,10,2025-04-18T10:45:17.758+03:00,766655120.4251046,0,107.72,100.5628,1,0.7,2025-04-18T10:44:07.044+03:00,81,1.35,2025-04-18T08:51:18.885+03:00,0.03057091307199995,1
2025-04-18T10:45:21.020+03:00,1744962319.922001,40.95359498604372,29.14098320424353,93.80547,-1,-1,-1,-1,30,35.56216926140436,-9999,61943.24670412501,-0.7060089111328125,0.5454559326171875,-0.4420166015625,61943.241665125,1.426480973254835,-1.015448267072936,-0.574773515273692,0.005274232942610979,-0.009029841050505638,-0.002966023050248623,-0.002899110317230225,0.007319629192352295,-0.0006867945194244385,XArbitraryZVertical,-0.1177463260178864,0.5146609008423982,-0.6525203080628327,-0.5435781776047384,-0.7131806015968323,0.5436447262763977,-0.4425199329853058,0,0,0,-1,-1,61937.41118925,unknown,2,2025-04-18T10:45:15.179+03:00,2025-04-17T15:44:39.500+03:00,7159,1.080567,0,0,5908.069,4,10,2025-04-18T10:45:17.758+03:00,766655120.4251046,0,107.72,100.5628,1,0.7,2025-04-18T10:44:07.044+03:00,81,1.35,2025-04-18T08:51:18.885+03:00,0.03057091307199995,1
2025-04-18T10:45:21.030+03:00,1744962319.922001,40.95359498604372,29.14098320424353,93.80547,-1,-1,-1,-1,30,35.56216926140436,-9999,61943.256780125,-0.705535888671875,0.5447235107421875,-0.442230224609375,61943.251742125,1.426537388145711,-1.015420601364375,-0.5747256838409683,0.01177700608968735,0.01319650188088417,0.0007775159319862723,0.005579352378845215,0.002980470657348633,-8.878111839294434e-05,XArbitraryZVertical,-0.1177691267777416,0.5146394381574333,-0.6525327132165747,-0.543578674248153,-0.7131904363632202,0.5436045527458191,-0.4425533711910248,0,0,0,-1,-1,61937.41118925,unknown,2,2025-04-18T10:45:15.179+03:00,2025-04-17T15:44:39.500+03:00,7159,1.080567,0,0,5908.069,4,10,2025-04-18T10:45:17.758+03:00,766655120.4251046,0,107.72,100.5628,1,0.7,2025-04-18T10:44:07.044+03:00,81,1.35,2025-04-18T08:51:18.885+03:00,0.03057091307199995,1
2025-04-18T10:45:21.040+03:00,1744962319.922001,40.95359498604372,29.14098320424353,93.80547,-1,-1,-1,-1,30,35.56216926140436,-9999,61943.266857125,-0.7192230224609375,0.5535736083984375,-0.4459991455078125,61943.261819125,1.426718560816823,-1.01510185115204,-0.5746372779843395,0.0212048627436161,0.02681217901408672,-0.0005162477609701455,0.008607089519500732,-0.0005005598068237305,0.0008047223091125488,XArbitraryZVertical,-0.1177437244511744,0.5145224959467054,-0.6525923045359645,-0.5436233732888639,-0.713090181350708,0.5435303449630737,-0.4428060352802277,0,0,0,-1,-1,61937.41118925,unknown,2,2025-04-18T10:45:15.179+03:00,2025-04-17T15:44:39.500+03:00,7159,1.080567,0,0,5908.069,4,10,2025-04-18T10:45:17.758+03:00,766655120.4251046,0,107.72,100.5628,1,0.7,2025-04-18T10:44:07.044+03:00,81,1.35,2025-04-18T08:51:18.885+03:00,0.03057091307199995,1
2025-04-18T10:45:21.050+03:00,1744962319.922001,40.95359498604372,29.14098320424353,93.80547,-1,-1,-1,-1,30,35.56216926140436,-9999,61943.276933125,-0.7139739990234375,0.5496978759765625,-0.446990966796875,61943.27189512501,1.426975082424457,-1.014772321117947,-0.57451278144437,0.03104737401008606,0.0131435040384531,0.0003637938061729074,-0.004680216312408447,0.009689927101135254,-0.00313606858253479,XArbitraryZVertical,-0.1177472911040139,0.5143901727672916,-0.6526695842889179,-0.5436549034555067,-0.7130016088485718,0.5434258580207825,-0.4430766403675079,0,0,0,-1,-1,61937.41118925,unknown,2,2025-04-18T10:45:15.179+03:00,2025-04-17T15:44:39.500+03:00,7159,1.080567,0,0,5908.069,4,10,2025-04-18T10:45:17.758+03:00,766655120.4251046,0,107.72,100.5628,1,0.7,2025-04-18T10:44:07.044+03:00,81,1.35,2025-04-18T08:51:18.885+03:00,0.03057091307199995,1
2025-04-18T10:45:21.060+03:00,1744962319.922001,40.95359498604372,29.14098320424353,93.80547,-1,-1,-1,-1,30,35.56216926140436,-9999,61943.287010125,-0.7113189697265625,0.543243408203125,-0.4482574462890625,61943.28197212501,1.427266221258021,-1.014477192263851,-0.5743643822848961,0.02605927176773548,0.0176844596862793,0.001454624580219388,-0.00205695629119873,0.006655991077423096,-0.003752768039703369,XArbitraryZVertical,-0.1177794852518507,0.5142597969455589,-0.6527519913831344,-0.543672514133933,-0.712939441204071,0.5433012843132019,-0.4433297216892242,0,0,0,-1,-1,61937.41118925,unknown,2,2025-04-18T10:45:15.179+03:00,2025-04-17T15:44:39.500+03:00,7159,1.080567,0,0,5908.069,4,10,2025-04-18T10:45:17.758+03:00,766655120.4251046,0,107.72,100.5628,1,0.7,2025-04-18T10:44:07.044+03:00,81,1.35,2025-04-18T08:51:18.885+03:00,0.03057091307199995,1
2025-04-18T10:45:21.070+03:00,1744962319.922001,40.95359498604372,29.14098320424353,93.80547,-1,-1,-1,-1,30,35.56216926140436,-9999,61943.29708612501,-0.720672607421875,0.540740966796875,-0.4470062255859375,61943.292048125,1.42752976766382,-1.014100125159644,-0.5742109595334616,0.02702813036739826,0.02747477404773235,0.001744509558193386,0.002637863159179688,0.0008034110069274902,-0.004248678684234619,XArbitraryZVertical,-0.1177796753742877,0.5141076441791526,-0.6528312625410559,-0.5437212306837438,-0.7128430008888245,0.5431724786758423,-0.4436425566673279,0,0,0,-1,-1,61937.41118925,unknown,2,2025-04-18T10:45:15.179+03:00,2025-04-17T15:44:39.500+03:00,7159,1.080567,0,0,5908.069,4,10,2025-04-18T10:45:17.758+03:00,766655120.4251046,0,107.72,100.5628,1,0.7,2025-04-18T10:44:07.044+03:00,81,1.35,2025-04-18T08:51:18.885+03:00,0.03057091307199995,1
2025-04-18T10:45:21.083+03:00,1744962319.922001,40.95359498604372,29.14098320424353,93.80547,-1,-1,-1,-1,30,35.56216926140436,-9999,61943.30716312501,-0.717132568359375,0.5367279052734375,-0.44549560546875,61943.302125125,1.42778502943847,-1.013727236797305,-0.5740925680258089,0.01923891715705395,0.02032658271491528,0.002459834795445204,-0.006552040576934814,-0.001004576683044434,-0.002575576305389404,XArbitraryZVertical,-0.1177664187549148,0.5139648948166931,-0.6529113776619564,-0.5437628123900049,-0.7127320766448975,0.5430730581283569,-0.4439423084259033,0,0,0,-1,-1,61937.41118925,unknown,2,2025-04-18T10:45:15.179+03:00,2025-04-17T15:44:39.500+03:00,7159,1.080567,0,0,5908.069,4,10,2025-04-18T10:45:17.758+03:00,766655120.4251046,0,107.72,100.5628,1,0.7,2025-04-18T10:44:07.044+03:00,81,1.35,2025-04-18T08:51:18.885+03:00,0.03057091307199995,1
2025-04-18T10:45:21.091+03:00,1744962319.922001,40.95359498604372,29.14098320424353,93.80547,-1,-1,-1,-1,30,35.56216926140436,-9999,61943.317239125,-0.711212158203125,0.537872314453125,-0.4474334716796875,61943.312201125,1.427973287851527,-1.013426234539983,-0.5740019026336457,0.01751225627958775,0.01963589154183865,-0.0004505342221818864,-0.004690766334533691,-0.006162166595458984,-0.001297354698181152,XArbitraryZVertical,-0.1177492955222911,0.513851776518119,-0.6529716845176231,-0.5438011129094754,-0.7126402258872986,0.5429969429969788,-0.4441829025745392,0,0,0,-1,-1,61937.41118925,unknown,2,2025-04-18T10:45:15.179+03:00,2025-04-17T15:44:39.500+03:00,7159,1.080567,0,0,5908.069,4,10,2025-04-18T10:45:17.758+03:00,766655120.4251046,0,107.72,100.5628,1,0.7,2025-04-18T10:44:07.044+03:00,81,1.35,2025-04-18T08:51:18.885+03:00,0.03057091307199995,1
2025-04-18T10:45:21.100+03:00,1744962319.922001,40.95359498604372,29.14098320424353,93.80547,-1,-1,-1,-1,30,35.56216926140436,-9999,61943.327316125,-0.7108612060546875,0.53924560546875,-0.4493865966796875,61943.322278125,1.428115367069446,-1.013176462820186,-0.5739556939974524,0.01408929564058781,0.01733385398983955,-0.001483840751461685,0.001185774803161621,-0.005253612995147705,-0.002235352993011475,XArbitraryZVertical,-0.1177209895444556,0.513765213527056,-0.6530206387405099,-0.5438301850746052,-0.7125505208969116,0.54295814037323,-0.444374144077301,0,0,0,-1,-1,61937.41118925,unknown,2,2025-04-18T10:45:15.179+03:00,2025-04-17T15:44:39.500+03:00,7159,1.080567,0,0,5908.069,4,10,2025-04-18T10:45:17.758+03:00,766655120.4251046,0,107.72,100.5628,1,0.7,2025-04-18T10:44:07.044+03:00,81,1.35,2025-04-18T08:51:18.885+03:00,0.03057091307199995,1
2025-04-18T10:45:21.111+03:00,1744962319.922001,40.95359498604372,29.14098320424353,93.80547,-1,-1,-1,-1,30,35.56216926140436,-9999,61943.337392125,-0.70989990234375,0.535736083984375,-0.449981689453125,61943.33235412501,1.428267396416229,-1.012940323979989,-0.5738942663686938,0.02073268406093121,0.01085797976702452,-0.001816935604438186,0.001429438591003418,-0.004332304000854492,-0.004109323024749756,XArbitraryZVertical,-0.1177051902361048,0.5136783784200776,-0.653070055611581,-0.5438562174014008,-0.7124738097190857,0.5429065227508545,-0.4445600211620331,0,0,0,-1,-1,61937.41118925,unknown,2,2025-04-18T10:45:15.179+03:00,2025-04-17T15:44:39.500+03:00,7159,1.080567,0,0,5908.069,4,10,2025-04-18T10:45:17.758+03:00,766655120.4251046,0,107.72,100.5628,1,0.7,2025-04-18T10:44:07.044+03:00,81,1.35,2025-04-18T08:51:18.885+03:00,0.03057091307199995,1
2025-04-18T10:45:21.120+03:00,1744962319.922001,40.95359498604372,29.14098320424353,93.80547,-1,-1,-1,-1,30,35.56216926140436,-9999,61943.347469125,-0.7079620361328125,0.5394287109375,-0.4477386474609375,61943.34243112501,1.428491504685333,-1.012702985190735,-0.5737989278109539,0.02012575045228004,0.01090831309556961,-0.001094952691346407,0.002115547657012939,-0.006281673908233643,-0.005148828029632568,XArbitraryZVertical,-0.1177197342808317,0.5135794031719241,-0.6531359368350387,-0.5438674403776126,-0.7124122381210327,0.5428264737129211,-0.4447565078735352,0,0,0,-1,-1,61937.41118925,unknown,2,2025-04-18T10:45:15.179+03:00,2025-04-17T15:44:39.500+03:00,7159,1.080567,0,0,5908.069,4,10,2025-04-18T10:45:17.758+03:00,766655120.4251046,0,107.72,100.5628,1,0.7,2025-04-18T10:44:07.044+03:00,81,1.35,2025-04-18T08:51:18.885+03:00,0.03057091307199995,1
2025-04-18T10:45:21.131+03:00,1744962319.922001,40.95359498604372,29.14098320424353,93.80547,-1,-1,-1,-1,30,35.56216926140436,-9999,61943.35754512501,-0.712982177734375,0.546234130859375,-0.442718505859375,61943.352507125,1.428716755992576,-1.012412366957378,-0.5737224193018795,0.02138582430779934,0.02340799197554588,0.002772023668512702,0.004127204418182373,-0.003867506980895996,-0.003042936325073242,XArbitraryZVertical,-0.1177103263369837,0.5134700562857732,-0.6532070550938567,-0.5438873521734561,-0.7123181819915771,0.5427622199058533,-0.444985568523407,0,0,0,-1,-1,61937.41118925,unknown,2,2025-04-18T10:45:15.179+03:00,2025-04-17T15:44:39.500+03:00,7159,1.080567,0,0,5908.069,4,10,2025-04-18T10:45:17.758+03:00,766655120.4251046,0,107.72,100.5628,1,0.7,2025-04-18T10:44:07.044+03:00,81,1.35,2025-04-18T08:51:18.885+03:00,0.03057091307199995,1
2025-04-18T10:45:21.141+03:00,1744962319.922001,40.95359498604372,29.14098320424353,93.80547,-1,-1,-1,-1,30,35.56216926140436,-9999,61943.36762212501,-0.7149200439453125,0.5340118408203125,-0.4407196044921875,61943.362584125,1.428883964873567,-1.012089476316185,-0.5736606134233326,0.009017571806907654,0.02178026735782623,-0.001395556959323585,0.0001819729804992676,0.003462791442871094,0.001278877258300781,XArbitraryZVertical,-0.1176701488472981,0.5133586224429049,-0.6532656831506783,-0.5439308241306897,-0.7122029066085815,0.5427103042602539,-0.4452333152294159,0,0,0,-1,-1,61937.41118925,unknown,2,2025-04-18T10:45:15.179+03:00,2025-04-17T15:44:39.500+03:00,7159,1.080567,0,0,5908.069,4,10,2025-04-18T10:45:17.758+03:00,766655120.4251046,0,107.72,100.5628,1,0.7,2025-04-18T10:44:07.044+03:00,81,1.35,2025-04-18T08:51:18.885+03:00,0.03057091307199995,1
2025-04-18T10:45:21.151+03:00,1744962319.922001,40.95359498604372,29.14098320424353,93.80547,-1,-1,-1,-1,30,35.56216926140436,-9999,61943.377698125,-0.7065277099609375,0.5265655517578125,-0.4397735595703125,61943.372660125,1.428942229499014,-1.011874027243785,-0.5736398428942974,-0.0009317316580563784,0.01469279825687408,9.847641922533512e-05,-0.003658056259155273,-0.006956756114959717,0.004444301128387451,XArbitraryZVertical,-0.1176222401681946,0.513291964192967,-0.6532922397916031,-0.5439722076303898,-0.712116539478302,0.5426928400993347,-0.4453927278518677,0,0,0,-1,-1,61937.41118925,unknown,2,2025-04-18T10:45:15.179+03:00,2025-04-17T15:44:39.500+03:00,7159,1.080567,0,0,5908.069,4,10,2025-04-18T10:45:17.758+03:00,766655120.4251046,0,107.72,100.5628,1,0.7,2025-04-18T10:44:07.044+03:00,81,1.35,2025-04-18T08:51:18.885+03:00,0.03057091307199995,1
2025-04-18T10:45:21.161+03:00,1744962319.922001,40.95359498604372,29.14098320424353,93.80547,-1,-1,-1,-1,30,35.56216926140436,-9999,61943.387775125,-0.70648193359375,0.5314483642578125,-0.440216064453125,61943.382737125,1.428874847028551,-1.011757432803963,-0.5736623253130448,-0.009256507270038128,0.01925133168697357,0.0005797095946036279,0.004626214504241943,-0.01561212539672852,0.006153523921966553,XArbitraryZVertical,-0.1175587329178781,0.5132692292236058,-0.6532828915531808,-0.5440185985928825,-0.7120542526245117,0.5427117347717285,-0.4454692900180817,0,0,0,-1,-1,61937.41118925,unknown,2,2025-04-18T10:45:15.179+03:00,2025-04-17T15:44:39.500+03:00,7159,1.080567,0,0,5908.069,4,10,2025-04-18T10:45:17.758+03:00,766655120.4251046,0,107.72,100.5628,1,0.7,2025-04-18T10:44:07.044+03:00,81,1.35,2025-04-18T08:51:18.885+03:00,0.03057091307199995,1
2025-04-18T10:45:21.171+03:00,1744962319.922001,40.95359498604372,29.14098320424353,93.80547,-1,-1,-1,-1,30,35.56216926140436,-9999,61943.397851125,-0.7083587646484375,0.52880859375,-0.4417724609375,61943.39281312501,1.428763475582423,-1.011632225211177,-0.5736953482683793,-0.01036518067121506,0.01825877092778683,0.0006975545547902584,0.006432116031646729,-0.01196247339248657,0.005866944789886475,XArbitraryZVertical,-0.117477281157231,0.5132490735518088,-0.6532630732205212,-0.5440790700296693,-0.711983323097229,0.5427394509315491,-0.445548951625824,0,0,0,-1,-1,61937.41118925,unknown,2,2025-04-18T10:45:15.179+03:00,2025-04-17T15:44:39.500+03:00,7159,1.080567,0,0,5908.069,4,10,2025-04-18T10:45:17.758+03:00,766655120.4251046,0,107.72,100.5628,1,0.7,2025-04-18T10:44:07.044+03:00,81,1.35,2025-04-18T08:51:18.885+03:00,0.03057091307199995,1
2025-04-18T10:45:21.181+03:00,1744962319.922001,40.95359498604372,29.14098320424353,93.80547,-1,-1,-1,-1,30,35.56216926140436,-9999,61943.407928125,-0.7063140869140625,0.5326385498046875,-0.4453125,61943.40289012501,1.428649160649932,-1.011545988179878,-0.5737250263296517,-0.01257134322077036,0.01123654842376709,-0.001449486007913947,0.003740191459655762,-0.01404732465744019,0.004775404930114746,XArbitraryZVertical,-0.1174090528098558,0.5132389489923431,-0.653239841058708,-0.5441312020059688,-0.7119311690330505,0.54276442527771,-0.4456017911434174,0,0,0,-1,-1,61937.41118925,unknown,2,2025-04-18T10:45:15.179+03:00,2025-04-17T15:44:39.500+03:00,7159,1.080567,0,0,5908.069,4,10,2025-04-18T10:45:17.758+03:00,766655120.4251046,0,107.72,100.5628,1,0.7,2025-04-18T10:44:07.044+03:00,81,1.35,2025-04-18T08:51:18.885+03:00,0.03057091307199995,1
2025-04-18T10:45:21.191+03:00,1744962319.922001,40.95359498604372,29.14098320424353,93.80547,-1,-1,-1,-1,30,35.56216926140436,-9999,61943.418005125,-0.705841064453125,0.53692626953125,-0.4483184814453125,61943.412966125,1.4285571679295,-1.011465256556964,-0.5737560268932118,-0.006346936337649822,0.01240068301558495,-0.001155306585133076,0.005154788494110107,-0.01176929473876953,0.0006124973297119141,XArbitraryZVertical,-0.1173478737681204,0.5132293012559366,-0.6532224783291118,-0.5441743025266426,-0.7118809223175049,0.542790412902832,-0.4456503093242645,0,0,0,-1,-1,61937.41118925,unknown,2,2025-04-18T10:45:15.179+03:00,2025-04-17T15:44:39.500+03:00,7159,1.080567,0,0,5908.069,4,10,2025-04-18T10:45:17.758+03:00,766655120.4251046,0,107.72,100.5628,1,0.7,2025-04-18T10:44:07.044+03:00,81,1.35,2025-04-18T08:51:18.885+03:00,0.03057091307199995,1
2025-04-18T10:45:21.201+03:00,1744962319.922001,40.95359498604372,29.14098320424353,93.80547,-1,-1,-1,-1,30,35.56216926140436,-9999,61943.428080625,-0.7082672119140625,0.5357818603515625,-0.4483642578125,61943.423043125,1.428506228128894,-1.011354665058448,-0.5737679588579673,-0.004088043235242367,0.01263903547078371,0.0009624391095712781,0.006824195384979248,-0.005950450897216797,-0.002028226852416992,XArbitraryZVertical,-0.1172943872424483,0.5132048654369019,-0.6532162317979047,-0.5442163130359738,-0.7118260860443115,0.5428004860877991,-0.4457255899906158,0,0,0,-1,-1,61937.41118925,unknown,2,2025-04-18T10:45:15.179+03:00,2025-04-17T15:44:39.500+03:00,7159,1.080567,0,0,5908.069,4,10,2025-04-18T10:45:17.758+03:00,766655120.4251046,0,107.72,100.5628,1,0.7,2025-04-18T10:44:07.044+03:00,81,1.35,2025-04-18T08:51:18.885+03:00,0.03057091307199995,1
2025-04-18T10:45:21.211+03:00,1744962319.922001,40.95359498604372,29.14098320424353,93.80547,-1,-1,-1,-1,30,35.56216926140436,-9999,61943.438157625,-0.708526611328125,0.5381317138671875,-0.445098876953125,61943.43311862501,1.428463338285269,-1.011248285165902,-0.5738237537610379,-0.01095706876367331,0.009028654545545578,0.00479715783149004,0.002860128879547119,-0.006912887096405029,-0.003128230571746826,XArbitraryZVertical,-0.1172284783273295,0.5131908862065204,-0.653216066379083,-0.5442438044510787,-0.7117529511451721,0.5428473353385925,-0.4457851946353912,0,0,0,-1,-1,61937.41118925,unknown,2,2025-04-18T10:45:15.179+03:00,2025-04-17T15:44:39.500+03:00,7159,1.080567,0,0,5908.069,4,10,2025-04-18T10:45:17.758+03:00,766655120.4251046,0,107.72,100.5628,1,0.7,2025-04-18T10:44:07.044+03:00,81,1.35,2025-04-18T08:51:18.885+03:00,0.03057091307199995,1
2025-04-18T10:45:21.222+03:00,1744962319.922001,40.95359498604372,29.14098320424353,93.80547,-1,-1,-1,-1,30,35.56216926140436,-9999,61943.448233625,-0.7059173583984375,0.5330657958984375,-0.4485321044921875,61943.443195625,1.428346737187444,-1.011251013788295,-0.5739555773730076,-0.01699898205697536,0.003849871456623077,0.005484519526362419,0.003395795822143555,-0.00543665885925293,2.080202102661133e-05,XArbitraryZVertical,-0.1171517339331308,0.5132278586568142,-0.653196623094691,-0.544248818275613,-0.7116935253143311,0.5429580211639404,-0.4457452595233917,0,0,0,-1,-1,61937.41118925,unknown,2,2025-04-18T10:45:15.179+03:00,2025-04-17T15:44:39.500+03:00,7159,1.080567,0,0,5908.069,4,10,2025-04-18T10:45:17.758+03:00,766655120.4251046,0,107.72,100.5628,1,0.7,2025-04-18T10:44:07.044+03:00,81,1.35,2025-04-18T08:51:18.885+03:00,0.03057091307199995,1
2025-04-18T10:45:21.232+03:00,1744962319.922001,40.95359498604372,29.14098320424353,93.80547,-1,-1,-1,-1,30,35.56216926140436,-9999,61943.45831062501,-0.7093658447265625,0.533111572265625,-0.4490203857421875,61943.453271625,1.428161187931027,-1.011360550457379,-0.5740727007800186,-0.02236398681998253,0.0001469454728066921,0.006231903098523617,0.005649030208587646,-0.008846163749694824,-0.002257645130157471,XArbitraryZVertical,-0.1170974756774583,0.5132946412862004,-0.6531507753986838,-0.5442526005806936,-0.7116885185241699,0.5430563688278198,-0.445633590221405,0,0,0,-1,-1,61937.41118925,unknown,2,2025-04-18T10:45:15.179+03:00,2025-04-17T15:44:39.500+03:00,7159,1.080567,0,0,5908.069,4,10,2025-04-18T10:45:17.758+03:00,766655120.4251046,0,107.72,100.5628,1,0.7,2025-04-18T10:44:07.044+03:00,81,1.35,2025-04-18T08:51:18.885+03:00,0.03057091307199995,1
2025-04-18T10:45:21.242+03:00,1744962319.922001,40.95359498604372,29.14098320424353,93.80547,-1,-1,-1,-1,30,35.56216926140436,-9999,61943.46838662501,-0.709381103515625,0.532867431640625,-0.45025634765625,61943.463348625,1.427979462103468,-1.011459663803713,-0.574190867536702,-0.02027180790901184,0.001671072794124484,0.008744860999286175,0.002434432506561279,-0.01033389568328857,-0.003796517848968506,XArbitraryZVertical,-0.1170404283095767,0.5133585901143036,-0.6531066818301108,-0.5442574740936591,-0.7116782665252686,0.5431556105613708,-0.4455289840698242,0,0,0,-1,-1,61937.41118925,unknown,2,2025-04-18T10:45:15.179+03:00,2025-04-17T15:44:39.500+03:00,7159,1.080567,0,0,5908.069,4,10,2025-04-18T10:45:17.758+03:00,766655120.4251046,0,107.72,100.5628,1,0.7,2025-04-18T10:44:07.044+03:00,81,1.35,2025-04-18T08:51:18.885+03:00,0.03057091307199995,1
2025-04-18T10:45:21.252+03:00,1744962319.922001,40.95359498604372,29.14098320424353,93.80547,-1,-1,-1,-1,30,35.56216926140436,-9999,61943.478463625,-0.708709716796875,0.539520263671875,-0.4550628662109375,61943.473424625,1.427837164279024,-1.011493271054367,-0.5743288440031549,-0.01564842648804188,0.01134140975773335,0.007614016532897949,0.002553761005401611,-0.01034301519393921,-0.004913061857223511,XArbitraryZVertical,-0.1169649557546504,0.5134068154191106,-0.6530790251077214,-0.544261334000972,-0.7116296887397766,0.5432714223861694,-0.4454652965068817,0,0,0,-1,-1,61937.41118925,unknown,2,2025-04-18T10:45:15.179+03:00,2025-04-17T15:44:39.500+03:00,7159,1.080567,0,0,5908.069,4,10,2025-04-18T10:45:17.758+03:00,766655120.4251046,0,107.72,100.5628,1,0.7,2025-04-18T10:44:07.044+03:00,81,1.35,2025-04-18T08:51:18.885+03:00,0.03057091307199995,1
2025-04-18T10:45:21.262+03:00,1744962319.922001,40.95359498604372,29.14098320424353,93.80547,-1,-1,-1,-1,30,35.56216926140436,-9999,61943.488539625,-0.7133636474609375,0.5440673828125,-0.4527740478515625,61943.48350162501,1.427734707279976,-1.011411501003901,-0.5744040766973927,-0.008222201839089394,0.01896683871746063,0.004687202628701925,0.002299606800079346,-0.005263864994049072,-0.008843779563903809,XArbitraryZVertical,-0.1168846648896265,0.5134073006835068,-0.6530630294196649,-0.5442974681106693,-0.7115586996078491,0.5433346033096313,-0.445501834154129,0,0,0,-1,-1,61937.41118925,unknown,2,2025-04-18T10:45:15.179+03:00,2025-04-17T15:44:39.500+03:00,7159,1.080567,0,0,5908.069,4,10,2025-04-18T10:45:17.758+03:00,766655120.4251046,0,107.72,100.5628,1,0.7,2025-04-18T10:44:07.044+03:00,81,1.35,2025-04-18T08:51:18.885+03:00,0.03057091307199995,1
2025-04-18T10:45:21.272+03:00,1744962319.922001,40.95359498604372,29.14098320424353,93.80547,-1,-1,-1,-1,30,35.56216926140436,-9999,61943.498616625,-0.7146453857421875,0.5388336181640625,-0.451812744140625,61943.49357762501,1.427699409483018,-1.011204594056885,-0.5744383941555845,-0.007470124866813421,0.02489743381738663,0.00581531785428524,-0.001256883144378662,0.001558482646942139,-0.007790923118591309,XArbitraryZVertical,-0.1167956189904403,0.513360696994013,-0.6530687506269707,-0.5443536729764256,-0.7114506959915161,0.5433633923530579,-0.4456391632556915,0,0,0,-1,-1,61937.41118925,unknown,2,2025-04-18T10:45:15.179+03:00,2025-04-17T15:44:39.500+03:00,7159,1.080567,0,0,5908.069,4,10,2025-04-18T10:45:17.758+03:00,766655120.4251046,0,107.72,100.5628,1,0.7,2025-04-18T10:44:07.044+03:00,81,1.35,2025-04-18T08:51:18.885+03:00,0.03057091307199995,1
2025-04-18T10:45:21.282+03:00,1744962319.922001,40.95359498604372,29.14098320424353,93.80547,-1,-1,-1,-1,30,35.56216926140436,-9999,61943.508692625,-0.7132110595703125,0.539794921875,-0.44744873046875,61943.503654625,1.427695964655074,-1.010913690155885,-0.5744797171127063,-0.005359570030122995,0.0311710424721241,0.004231269471347332,-0.004091143608093262,-0.004656076431274414,-0.005703896284103394,XArbitraryZVertical,-0.1166848292244693,0.5132909371182409,-0.6530886925086622,-0.544419163741607,-0.7113019227981567,0.5433980822563171,-0.4458341300487518,0,0,0,-1,-1,61937.41118925,unknown,2,2025-04-18T10:45:15.179+03:00,2025-04-17T15:44:39.500+03:00,7159,1.080567,0,0,5908.069,4,10,2025-04-18T10:45:17.758+03:00,766655120.4251046,0,107.72,100.5628,1,0.7,2025-04-18T10:44:07.044+03:00,81,1.35,2025-04-18T08:51:18.885+03:00,0.03057091307199995,1
2025-04-18T10:45:21.292+03:00,1744962319.922001,40.95359498604372,29.14098320424353,93.80547,-1,-1,-1,-1,30,35.56216926140436,-9999,61943.51876962501,-0.7125091552734375,0.5314788818359375,-0.44451904296875,61943.513730625,1.427587110133339,-1.010609517868596,-0.5745248432724581,-0.01978724449872971,0.03563636168837547,-0.002038211096078157,-0.002187609672546387,-0.003366410732269287,-0.001945257186889648,XArbitraryZVertical,-0.1165411925578924,0.5132245239232748,-0.653081050483716,-0.5445218047429479,-0.7111455798149109,0.5434359908103943,-0.4460374712944031,0,0,0,-1,-1,61937.41118925,unknown,2,2025-04-18T10:45:15.179+03:00,2025-04-17T15:44:39.500+03:00,7159,1.080567,0,0,5908.069,4,10,2025-04-18T10:45:17.758+03:00,766655120.4251046,0,107.72,100.5628,1,0.7,2025-04-18T10:44:07.044+03:00,81,1.35,2025-04-18T08:51:18.885+03:00,0.03057091307199995,1
2025-04-18T10:45:21.302+03:00,1744962319.922001,40.95359498604372,29.14098320424353,93.80547,-1,-1,-1,-1,30,35.56216926140436,-9999,61943.52884562501,-0.709808349609375,0.5252685546875,-0.447174072265625,61943.523807625,1.427289395336297,-1.01039804265645,-0.5746305343760536,-0.04009091854095459,0.03788167238235474,-0.00599753251299262,-0.001689791679382324,-0.01108449697494507,0.001226305961608887,XArbitraryZVertical,-0.1163575166182983,0.5132078396001682,-0.6530222631885485,-0.5446471900666757,-0.71100252866745,0.5435246825218201,-0.4461572766304016,0,0,0,-1,-1,61937.41118925,unknown,2,2025-04-18T10:45:15.179+03:00,2025-04-17T15:44:39.500+03:00,7159,1.080567,0,0,5908.069,4,10,2025-04-18T10:45:17.758+03:00,766655120.4251046,0,107.72,100.5628,1,0.7,2025-04-18T10:44:07.044+03:00,81,1.35,2025-04-18T08:51:18.885+03:00,0.03057091307199995,1
2025-04-18T10:45:21.312+03:00,1744962319.922001,40.95359498604372,29.14098320424353,93.80547,-1,-1,-1,-1,30,35.56216926140436,-9999,61943.538922625,-0.702789306640625,0.5277099609375,-0.4547576904296875,61943.533883625,1.426583661857257,-1.010367236097186,-0.5747859108030345,-0.07375181466341019,0.04010554775595665,-0.02284102700650692,0.0007579326629638672,-0.0190732479095459,-0.0009939372539520264,XArbitraryZVertical,-0.11611007024623,0.5132750707717741,-0.6528464835425646,-0.5448473745762695,-0.7109172344207764,0.5436550974845886,-0.4461342990398407,0,0,0,-1,-1,61937.41118925,unknown,2,2025-04-18T10:45:15.179+03:00,2025-04-17T15:44:39.500+03:00,7159,1.080567,0,0,5908.069,4,10,2025-04-18T10:45:17.758+03:00,766655120.4251046,0,107.72,100.5628,1,0.7,2025-04-18T10:44:07.044+03:00,81,1.35,2025-04-18T08:51:18.885+03:00,0.03057091307199995,1
2025-04-18T10:45:21.322+03:00,1744962319.922001,40.95359498604372,29.14098320424353,93.80547,-1,-1,-1,-1,30,35.56216926140436,-9999,61943.548998625,-0.6974334716796875,0.520751953125,-0.4653778076171875,61943.543960625,1.42546409026323,-1.010606058547819,-0.5749897398213178,-0.114515483379364,0.02753595821559429,-0.03798562660813332,0.007102906703948975,-0.01608568429946899,-0.008226394653320312,XArbitraryZVertical,-0.1158268143020103,0.5134504314324964,-0.6525468097610085,-0.5451013324172043,-0.7109298706054688,0.543826162815094,-0.4459055960178375,0,0,0,-1,-1,61937.41118925,unknown,2,2025-04-18T10:45:15.179+03:00,2025-04-17T15:44:39.500+03:00,7159,1.080567,0,0,5908.069,4,10,2025-04-18T10:45:17.758+03:00,766655120.4251046,0,107.72,100.5628,1,0.7,2025-04-18T10:44:07.044+03:00,81,1.35,2025-04-18T08:51:18.885+03:00,0.03057091307199995,1
2025-04-18T10:45:21.333+03:00,1744962319.922001,40.95359498604372,29.14098320424353,93.80547,-1,-1,-1,-1,30,35.56216926140436,-9999,61943.559075625,-0.6975250244140625,0.511138916015625,-0.467041015625,61943.55403662501,1.423900097474788,-1.011247944631494,-0.5753039764405519,-0.1435512602329254,0.01147803012281656,-0.03774334490299225,0.01259994506835938,-0.02191883325576782,-0.0195157527923584,XArbitraryZVertical,-0.1155206460407542,0.5137857063476277,-0.6521130431199035,-0.5453694427407787,-0.7110710740089417,0.5440898537635803,-0.4453584551811218,0,0,0,-1,-1,61937.41118925,unknown,2,2025-04-18T10:45:15.179+03:00,2025-04-17T15:44:39.500+03:00,7159,1.080567,0,0,5908.069,4,10,2025-04-18T10:45:17.758+03:00,766655120.4251046,0,107.72,100.5628,1,0.7,2025-04-18T10:44:07.044+03:00,81,1.35,2025-04-18T08:51:18.885+03:00,0.03057091307199995,1
2025-04-18T10:45:21.342+03:00,1744962319.922001,40.95359498604372,29.14098320424353,93.80547,-1,-1,-1,-1,30,35.56216926140436,-9999,61943.569151625,-0.703399658203125,0.5181121826171875,-0.4710845947265625,61943.56411362501,1.422116544215762,-1.012056756178262,-0.5757557981416029,-0.156978651881218,0.01836682856082916,-0.03965123370289803,0.01476567983627319,-0.03230762481689453,-0.02244913578033447,XArbitraryZVertical,-0.1151620542108009,0.5142093655070806,-0.6516228049037748,-0.5456319952868609,-0.7112225890159607,0.544468879699707,-0.4446528553962708,0,0,0,-1,-1,61937.41118925,unknown,2,2025-04-18T10:45:15.179+03:00,2025-04-17T15:44:39.500+03:00,7159,1.080567,0,0,5908.069,4,10,2025-04-18T10:45:17.758+03:00,766655120.4251046,0,107.72,100.5628,1,0.7,2025-04-18T10:44:07.044+03:00,81,1.35,2025-04-18T08:51:18.885+03:00,0.03057091307199995,1
2025-04-18T10:45:21.353+03:00,1744962319.922001,40.95359498604372,29.14098320424353,93.80547,-1,-1,-1,-1,30,35.56216926140436,-9999,61943.57922862501,-0.7104644775390625,0.5349884033203125,-0.4815826416015625,61943.574190625,1.42040428256911,-1.012849999622819,-0.5762144587371146,-0.1401478052139282,0.005625400692224503,-0.03417633846402168,0.009702980518341064,-0.02808409929275513,-0.02639579772949219,XArbitraryZVertical,-0.1148136261270122,0.5146257699224909,-0.6511536139211164,-0.5458729517958266,-0.7113631963729858,0.5448535680770874,-0.4439562857151031,0,0,0,-1,-1,61937.41118925,unknown,2,2025-04-18T10:45:15.179+03:00,2025-04-17T15:44:39.500+03:00,7159,1.080567,0,0,5908.069,4,10,2025-04-18T10:45:17.758+03:00,766655120.4251046,0,107.72,100.5628,1,0.7,2025-04-18T10:44:07.044+03:00,81,1.35,2025-04-18T08:51:18.885+03:00,0.03057091307199995,1
2025-04-18T10:45:21.380+03:00,1744962319.922001,40.95359498604372,29.14098320424353,93.80547,-1,-1,-1,-1,30,35.56216926140436,-9999,61943.58930462501,-0.705047607421875,0.5421295166015625,-0.4891357421875,61943.584266625,1.418859080784117,-1.013639844116351,-0.5765480280598849,-0.1232292875647545,0.004495954141020775,-0.0394749641418457,0.0017203688621521,-0.01180803775787354,-0.03718584775924683,XArbitraryZVertical,-0.1145519465830834,0.5150036790817994,-0.6507183365323777,-0.5460904274256271,-0.7115592360496521,0.5451332330703735,-0.4432981312274933,0,0,0,-1,-1,61937.41118925,unknown,2,2025-04-18T10:45:15.179+03:00,2025-04-17T15:44:39.500+03:00,7159,1.080567,0,0,5908.069,4,10,2025-04-18T10:45:17.758+03:00,766655120.4251046,0,107.72,100.5628,1,0.7,2025-04-18T10:44:07.044+03:00,81,1.35,2025-04-18T08:51:18.885+03:00,0.03057091307199995,1
2025-04-18T10:45:21.383+03:00,1744962319.922001,40.95359498604372,29.14098320424353,93.80547,-1,-1,-1,-1,30,35.56216926140436,-9999,61943.599381625,-0.70782470703125,0.5457916259765625,-0.5036468505859375,61943.594343625,1.41727997486768,-1.014317272656132,-0.5768287305142551,-0.1294821202754974,0.0340687595307827,-0.04346144944429398,0.005476295948028564,-0.003956198692321777,-0.04522562026977539,XArbitraryZVertical,-0.1142636737577397,0.5153409196793319,-0.6502751816302014,-0.5463603573544142,-0.7117293477058411,0.5453685522079468,-0.4427351057529449,0,0,0,-1,-1,61937.41118925,unknown,2,2025-04-18T10:45:15.179+03:00,2025-04-17T15:44:39.500+03:00,7159,1.080567,0,0,5908.069,4,10,2025-04-18T10:45:17.758+03:00,766655120.4251046,0,107.72,100.5628,1,0.7,2025-04-18T10:44:07.044+03:00,81,1.35,2025-04-18T08:51:18.885+03:00,0.03057091307199995,1
2025-04-18T10:45:21.384+03:00,1744962319.922001,40.95359498604372,29.14098320424353,93.80547,-1,-1,-1,-1,30,35.56216926140436,-9999,61943.609457625,-0.704986572265625,0.54339599609375,-0.5349884033203125,61943.604419625,1.415841112184466,-1.014681470825338,-0.5769613226922082,-0.09586823731660843,0.04095090180635452,-0.04658027738332748,0.005133628845214844,0.0003576874732971191,-0.0588744580745697,XArbitraryZVertical,-0.1139630651126605,0.5155517193931102,-0.6498739352653068,-0.5467015948546197,-0.7118291258811951,0.5454796552658081,-0.4424376785755157,0,0,0,-1,-1,61937.41118925,unknown,2,2025-04-18T10:45:15.179+03:00,2025-04-17T15:44:39.500+03:00,7159,1.080567,0,0,5908.069,4,10,2025-04-18T10:45:17.758+03:00,766655120.4251046,0,107.72,100.5628,1,0.7,2025-04-18T10:44:07.044+03:00,81,1.35,2025-04-18T08:51:18.885+03:00,0.03057091307199995,1
2025-04-18T10:45:21.393+03:00,1744962319.922001,40.95359498604372,29.14098320424353,93.80547,-1,-1,-1,-1,30,35.56216926140436,-9999,61943.619534625,-0.6836395263671875,0.55926513671875,-0.56402587890625,61943.61449662501,1.414652406064327,-1.015066547390917,-0.5768920562181942,-0.07024895399808884,0.008675718680024147,-0.0579376295208931,0.004847824573516846,-0.002254486083984375,-0.08828818798065186,XArbitraryZVertical,-0.1138067729488636,0.5157094501952737,-0.6495203201444215,-0.5470057529912631,-0.7120317220687866,0.5454216003417969,-0.4421835541725159,0,0,0,-1,-1,61937.41118925,unknown,2,2025-04-18T10:45:15.179+03:00,2025-04-17T15:44:39.500+03:00,7159,1.080567,0,0,5908.069,4,10,2025-04-18T10:45:17.758+03:00,766655120.4251046,0,107.72,100.5628,1,0.7,2025-04-18T10:44:07.044+03:00,81,1.35,2025-04-18T08:51:18.885+03:00,0.03057091307199995,1
2025-04-18T10:45:21.403+03:00,1744962319.922001,40.95359498604372,29.14098320424353,93.80547,-1,-1,-1,-1,30,35.56216926140436,-9999,61943.629610625,-0.671478271484375,0.5812225341796875,-0.5731048583984375,61943.62457262501,1.413607352490532,-1.015824477543156,-0.5765981843260368,-0.07391852140426636,-0.05706281587481499,-0.09226097911596298,0.02639126777648926,0.01054984331130981,-0.1202225089073181,XArbitraryZVertical,-0.1138901490190291,0.5159117670433208,-0.6491629452881977,-0.5472217128145622,-0.7125027775764465,0.5451752543449402,-0.4417281746864319,0,0,0,-1,-1,61937.41118925,unknown,2,2025-04-18T10:45:15.179+03:00,2025-04-17T15:44:39.500+03:00,7159,1.080567,0,0,5908.069,4,10,2025-04-18T10:45:17.758+03:00,766655120.4251046,0,107.72,100.5628,1,0.7,2025-04-18T10:44:07.044+03:00,81,1.35,2025-04-18T08:51:18.885+03:00,0.03057091307199995,1
2025-04-18T10:45:21.413+03:00,1744962319.922001,40.95359498604372,29.14098320424353,93.80547,-1,-1,-1,-1,30,35.56216926140436,-9999,61943.63968762501,-0.6632080078125,0.5707244873046875,-0.5779266357421875,61943.634649625,1.411805058771881,-1.017768185068919,-0.5761651997784168,-0.1356018632650375,-0.1592626869678497,-0.1267397254705429,0.04115176200866699,0.03497600555419922,-0.1319975256919861,XArbitraryZVertical,-0.1142129190362326,0.5164515515976392,-0.6485169145905701,-0.5474113026915111,-0.7135608792304993,0.5448122620582581,-0.4404664039611816,0,0,0,-1,-1,61937.41118925,unknown,2,2025-04-18T10:45:15.179+03:00,2025-04-17T15:44:39.500+03:00,7159,1.080567,0,0,5908.069,4,10,2025-04-18T10:45:17.758+03:00,766655120.4251046,0,107.72,100.5628,1,0.7,2025-04-18T10:44:07.044+03:00,81,1.35,2025-04-18T08:51:18.885+03:00,0.03057091307199995,1
2025-04-18T10:45:21.423+03:00,1744962319.922001,40.95359498604372,29.14098320424353,93.80547,-1,-1,-1,-1,30,35.56216926140436,-9999,61943.64976362501,-0.644256591796875,0.516571044921875,-0.5752105712890625,61943.644725625,1.408965543456298,-1.02179489692291,-0.575980176793592,-0.269370824098587,-0.3366885781288147,-0.1583613008260727,0.05014663934707642,0.03008049726486206,-0.1402234435081482,XArbitraryZVertical,-0.1148507627549665,0.5176758100605656,-0.6474910827961136,-0.5473357444161061,-0.7154146432876587,0.5446571111679077,-0.4376421272754669,0,0,0,-1,-1,61937.41118925,unknown,2,2025-04-18T10:45:15.179+03:00,2025-04-17T15:44:39.500+03:00,7159,1.080567,0,0,5908.069,4,10,2025-04-18T10:45:17.758+03:00,766655120.4251046,0,107.72,100.5628,1,0.7,2025-04-18T10:44:07.044+03:00,81,1.35,2025-04-18T08:51:18.885+03:00,0.03057091307199995,1
2025-04-18T10:45:21.433+03:00,1744962319.922001,40.95359498604372,29.14098320424353,93.80547,-1,-1,-1,-1,30,35.56216926140436,-9999,61943.65984062501,-0.639251708984375,0.48016357421875,-0.571990966796875,61943.654802625,1.404028060361756,-1.028433409455701,-0.576494415874714,-0.4850448071956635,-0.4483006000518799,-0.1679364293813705,0.07067948579788208,-0.02070474624633789,-0.1434789896011353,XArbitraryZVertical,-0.1155293618427394,0.5198881227339056,-0.6458088490605328,-0.5470834993870959,-0.7180641889572144,0.5450882911682129,-0.4327386021614075,0,0,0,-1,-1,61937.41118925,unknown,2,2025-04-18T10:45:15.179+03:00,2025-04-17T15:44:39.500+03:00,7159,1.080567,0,0,5908.069,4,10,2025-04-18T10:45:17.758+03:00,766655120.4251046,0,107.72,100.5628,1,0.7,2025-04-18T10:44:07.044+03:00,81,1.35,2025-04-18T08:51:18.885+03:00,0.03057091307199995,1
2025-04-18T10:45:21.443+03:00,1744962319.922001,40.95359498604372,29.14098320424353,93.80547,-1,-1,-1,-1,30,35.56216926140436,-9999,61943.669916625,-0.657196044921875,0.4754638671875,-0.6104888916015625,61943.664878625,1.397013196754575,-1.036851706233331,-0.5781928222491378,-0.6886664032936096,-0.4555236399173737,-0.1377273947000504,0.08228802680969238,-0.06343340873718262,-0.1449755430221558,XArbitraryZVertical,-0.1157958510842853,0.5229607766405222,-0.6435755925847996,-0.5467301990235688,-0.7208836674690247,0.5465114116668701,-0.4262067079544067,0,0,0,-1,-1,61937.41118925,unknown,2,2025-04-18T10:45:15.179+03:00,2025-04-17T15:44:39.500+03:00,7159,1.080567,0,0,5908.069,4,10,2025-04-18T10:45:17.758+03:00,766655120.4251046,0,107.72,100.5628,1,0.7,2025-04-18T10:44:07.044+03:00,81,1.35,2025-04-18T08:51:18.885+03:00,0.03057091307199995,1
2025-04-18T10:45:21.453+03:00,1744962319.922001,40.95359498604372,29.14098320424353,93.80547,-1,-1,-1,-1,30,35.56216926140436,-9999,61943.679993625,-0.6812744140625,0.478759765625,-0.674041748046875,61943.67495562501,1.388380874219614,-1.045791929042018,-0.5813365826093188,-0.8637493252754211,-0.381109744310379,-0.04378112778067589,0.0686337947845459,-0.07326561212539673,-0.1841914057731628,XArbitraryZVertical,-0.1152562320057186,0.5265692649193572,-0.6410250056311286,-0.5463768919376191,-0.7231748104095459,0.5491414666175842,-0.4188816249370575,0,0,0,-1,-1,61937.41118925,unknown,2,2025-04-18T10:45:15.179+03:00,2025-04-17T15:44:39.500+03:00,7159,1.080567,0,0,5908.069,4,10,2025-04-18T10:45:17.758+03:00,766655120.4251046,0,107.72,100.5628,1,0.7,2025-04-18T10:44:07.044+03:00,81,1.35,2025-04-18T08:51:18.885+03:00,0.03057091307199995,1
2025-04-18T10:45:21.464+03:00,1744962319.922001,40.95359498604372,29.14098320424353,93.80547,-1,-1,-1,-1,30,35.56216926140436,-9999,61943.690069625,-0.69940185546875,0.48468017578125,-0.718048095703125,61943.68503162501,1.378272788001314,-1.055106412767784,-0.5860748549366599,-1.056604862213135,-0.3780726790428162,0.02904141135513783,0.04668796062469482,-0.07526618242263794,-0.2560150027275085,XArbitraryZVertical,-0.1138334233816623,0.5306807289840986,-0.6382311753871265,-0.5459678906673501,-0.7247733473777771,0.5530951619148254,-0.4108398258686066,0,0,0,-1,-1,61937.41118925,unknown,2,2025-04-18T10:45:15.179+03:00,2025-04-17T15:44:39.500+03:00,7159,1.080567,0,0,5908.069,4,10,2025-04-18T10:45:17.758+03:00,766655120.4251046,0,107.72,100.5628,1,0.7,2025-04-18T10:44:07.044+03:00,81,1.35,2025-04-18T08:51:18.885+03:00,0.03057091307199995,1
2025-04-18T10:45:21.474+03:00,1744962319.922001,40.95359498604372,29.14098320424353,93.80547,-1,-1,-1,-1,30,35.56216926140436,-9999,61943.700146625,-0.6710205078125,0.501312255859375,-0.7336578369140625,61943.695108625,1.36725253971142,-1.065280388496025,-0.5915539096582292,-1.110212564468384,-0.4562672674655914,0.04801087453961372,0.02704977989196777,-0.07455825805664062,-0.3123993873596191,XArbitraryZVertical,-0.1121315207579659,0.5352017043157907,-0.6352403567745648,-0.5453947513132836,-0.72625333070755,0.5576515793800354,-0.401971310377121,0,0,0,-1,-1,61937.41118925,unknown,2,2025-04-18T10:45:15.179+03:00,2025-04-17T15:44:39.500+03:00,7159,1.080567,0,0,5908.069,4,10,2025-04-18T10:45:17.758+03:00,766655120.4251046,0,107.72,100.5628,1,0.7,2025-04-18T10:44:07.044+03:00,81,1.35,2025-04-18T08:51:18.885+03:00,0.03057091307199995,1
2025-04-18T10:45:21.484+03:00,1744962319.922001,40.95359498604372,29.14098320424353,93.80547,-1,-1,-1,-1,30,35.56216926140436,-9999,61943.71022362501,-0.615631103515625,0.5339813232421875,-0.7470245361328125,61943.705184625,1.355637311771017,-1.076986539320155,-0.5979697187508616,-1.164495587348938,-0.5596362948417664,0.1841415464878082,0.05049747228622437,-0.06383544206619263,-0.3397068083286285,XArbitraryZVertical,-0.1103657681756141,0.5403241588991862,-0.6321324854040146,-0.5443139733459976,-0.7277435660362244,0.5629656314849854,-0.3917384147644043,0,0,0,-1,-1,61937.41118925,unknown,2,2025-04-18T10:45:15.179+03:00,2025-04-17T15:44:39.500+03:00,7159,1.080567,0,0,5908.069,4,10,2025-04-18T10:45:17.758+03:00,766655120.4251046,0,107.72,100.5628,1,0.7,2025-04-18T10:44:07.044+03:00,81,1.35,2025-04-18T08:51:18.885+03:00,0.03057091307199995,1
2025-04-18T10:45:21.494+03:00,1744962319.922001,40.95359498604372,29.14098320424353,93.80547,-1,-1,-1,-1,30,35.56216926140436,-9999,61943.72029962501,-0.5518646240234375,0.585906982421875,-0.8075408935546875,61943.715261625,1.350921565221635,-1.083770421242907,-0.6061190757715272,-0.4348798990249634,-0.407082587480545,0.8695563077926636,0.1051356196403503,-0.04130077362060547,-0.3608965277671814,XArbitraryZVertical,-0.1082391336847308,0.5440294073320726,-0.6313927948128349,-0.5419035141023277,-0.7263057231903076,0.5696821808815002,-0.3846325874328613,0,0,0,-1,-1,61937.41118925,unknown,2,2025-04-18T10:45:15.179+03:00,2025-04-17T15:44:39.500+03:00,7159,1.080567,0,0,5908.069,4,10,2025-04-18T10:45:17.758+03:00,766655120.4251046,0,107.72,100.5628,1,0.7,2025-04-18T10:44:07.044+03:00,81,1.35,2025-04-18T08:51:18.885+03:00,0.03057091307199995,1
2025-04-18T10:45:21.504+03:00,1744962319.922001,40.95359498604372,29.14098320424353,93.80547,-1,-1,-1,-1,30,35.56216926140436,-9999,61943.730376625,-0.4534454345703125,0.6372833251953125,-0.8459625244140625,61943.725337625,1.347310394349652,-1.093113666533164,-0.6138262250264235,-0.6710647940635681,-0.8545136451721191,0.261028528213501,0.159906804561615,0.002339184284210205,-0.4148949682712555,XArbitraryZVertical,-0.107371100692063,0.5482438925154163,-0.6307817659087475,-0.5385298454185079,-0.725946843624115,0.5759994387626648,-0.3758001625537872,0,0,0,-1,-1,61937.41118925,unknown,2,2025-04-18T10:45:15.179+03:00,2025-04-17T15:44:39.500+03:00,7159,1.080567,0,0,5908.069,4,10,2025-04-18T10:45:17.758+03:00,766655120.4251046,0,107.72,100.5628,1,0.7,2025-04-18T10:44:07.044+03:00,81,1.35,2025-04-18T08:51:18.885+03:00,0.03057091307199995,1
2025-04-18T10:45:21.514+03:00,1744962319.922001,40.95359498604372,29.14098320424353,93.80547,-1,-1,-1,-1,30,35.56216926140436,-9999,61943.740452625,-0.614288330078125,0.47747802734375,-0.7162933349609375,61943.73541462501,1.340080474251676,-1.10638213577988,-0.6206785403315792,-0.9820583462715149,-0.9599237442016602,0.4062735438346863,0.2777228951454163,0.05804592370986938,-0.4973049759864807,XArbitraryZVertical,-0.1070414303911297,0.5535004300223636,-0.6289122411232836,-0.5353960391960328,-0.7273232340812683,0.5815872550010681,-0.3643588125705719,0,0,0,-1,-1,61937.41118925,unknown,2,2025-04-18T10:45:15.179+03:00,2025-04-17T15:44:39.500+03:00,7159,1.080567,0,0,5908.069,4,10,2025-04-18T10:45:17.758+03:00,766655120.4251046,0,107.72,100.5628,1,0.7,2025-04-18T10:44:07.044+03:00,81,1.35,2025-04-18T08:51:18.885+03:00,0.03057091307199995,1
2025-04-18T10:45:21.524+03:00,1744962319.922001,40.95359498604372,29.14098320424353,93.80547,-1,-1,-1,-1,30,35.56216926140436,-9999,61943.750529625,-0.6280975341796875,0.4261322021484375,-0.689178466796875,61943.74549062501,1.330158099808148,-1.123372930863994,-0.629300385095753,-1.227983236312866,-1.255259990692139,0.4208469092845917,0.1321199536323547,-0.08844196796417236,-0.3729507327079773,XArbitraryZVertical,-0.1064429649344171,0.5601666027504149,-0.6263666754487002,-0.5315526473507308,-0.7288607358932495,0.5885792970657349,-0.3497665524482727,0,0,0,-1,-1,61937.41118925,unknown,2,2025-04-18T10:45:15.179+03:00,2025-04-17T15:44:39.500+03:00,7159,1.080567,0,0,5908.069,4,10,2025-04-18T10:45:17.758+03:00,766655120.4251046,0,107.72,100.5628,1,0.7,2025-04-18T10:44:07.044+03:00,81,1.35,2025-04-18T08:51:18.885+03:00,0.03057091307199995,1
2025-04-18T10:45:21.534+03:00,1744962319.922001,40.95359498604372,29.14098320424353,93.80547,-1,-1,-1,-1,30,35.56216926140436,-9999,61943.760605625,-0.6362762451171875,0.5089569091796875,-0.6292266845703125,61943.755567625,1.317346299693822,-1.144982482364788,-0.6385659288610945,-1.404915452003479,-1.53019905090332,0.3441800177097321,0.09918534755706787,-0.1750392913818359,-0.3629570007324219,XArbitraryZVertical,-0.1061722792956715,0.5682367825193591,-0.6229440654793725,-0.5270438685214076,-0.7312502264976501,0.5960445404052734,-0.3316688239574432,0,0,0,-1,-1,61937.41118925,unknown,2,2025-04-18T10:45:15.179+03:00,2025-04-17T15:44:39.500+03:00,7159,1.080567,0,0,5908.069,4,10,2025-04-18T10:45:17.758+03:00,766655120.4251046,0,107.72,100.5628,1,0.7,2025-04-18T10:44:07.044+03:00,81,1.35,2025-04-18T08:51:18.885+03:00,0.03057091307199995,1
2025-04-18T10:45:21.544+03:00,1744962319.922001,40.95359498604372,29.14098320424353,93.80547,-1,-1,-1,-1,30,35.56216926140436,-9999,61943.77068262501,-0.695526123046875,0.561676025390625,-0.6056060791015625,61943.765643625,1.301754186191731,-1.170745433471912,-0.6468052200738209,-1.502151727676392,-1.714516758918762,0.1654345095157623,0.1021906137466431,-0.1039064526557922,-0.3246843218803406,XArbitraryZVertical,-0.1066742048280655,0.5772533170566159,-0.6185154655755142,-0.5223390200831937,-0.7350031733512878,0.6026400327682495,-0.3107984364032745,0,0,0,-1,-1,61937.41118925,unknown,2,2025-04-18T10:45:15.179+03:00,2025-04-17T15:44:39.500+03:00,7159,1.080567,0,0,5908.069,4,10,2025-04-18T10:45:17.758+03:00,766655120.4251046,0,107.72,100.5628,1,0.7,2025-04-18T10:44:07.044+03:00,81,1.35,2025-04-18T08:51:18.885+03:00,0.03057091307199995,1
2025-04-18T10:45:21.554+03:00,1744962319.922001,40.95359498604372,29.14098320424353,93.80547,-1,-1,-1,-1,30,35.56216926140436,-9999,61943.78075862501,-0.741790771484375,0.6308746337890625,-0.6115264892578125,61943.775720625,1.284693950948496,-1.199031392439095,-0.6532936221247871,-1.45499575138092,-1.857513427734375,0.03421400114893913,0.05249291658401489,-0.05122560262680054,-0.3184734582901001,XArbitraryZVertical,-0.1080378064123519,0.5865985176780422,-0.6134136026292523,-0.5176424164390427,-0.7398402690887451,0.6078051328659058,-0.2884600162506104,0,0,0,-1,-1,61937.41118925,unknown,2,2025-04-18T10:45:15.179+03:00,2025-04-17T15:44:39.500+03:00,7159,1.080567,0,0,5908.069,4,10,2025-04-18T10:45:17.758+03:00,766655120.4251046,0,107.72,100.5628,1,0.7,2025-04-18T10:44:07.044+03:00,81,1.35,2025-04-18T08:51:18.885+03:00,0.03057091307199995,1
2025-04-18T10:45:21.564+03:00,1744962319.922001,40.95359498604372,29.14098320424353,93.80547,-1,-1,-1,-1,30,35.56216926140436,-9999,61943.790835625,-0.745391845703125,0.7191619873046875,-0.601470947265625,61943.785796625,1.267569634489177,-1.228291428064504,-0.6584699049213916,-1.438812613487244,-1.850130081176758,-0.0339466780424118,0.005716264247894287,0.006760239601135254,-0.3445672392845154,XArbitraryZVertical,-0.1100109994834694,0.5958873415307075,-0.6081211431297057,-0.512839678024376,-0.7449893951416016,0.6119073629379272,-0.2656317055225372,0,0,0,-1,-1,61937.41118925,unknown,2,2025-04-18T10:45:15.179+03:00,2025-04-17T15:44:39.500+03:00,7159,1.080567,0,0,5908.069,4,10,2025-04-18T10:45:17.758+03:00,766655120.4251046,0,107.72,100.5628,1,0.7,2025-04-18T10:44:07.044+03:00,81,1.35,2025-04-18T08:51:18.885+03:00,0.03057091307199995,1
2025-04-18T10:45:21.574+03:00,1744962319.922001,40.95359498604372,29.14098320424353,93.80547,-1,-1,-1,-1,30,35.56216926140436,-9999,61943.800911625,-0.7405548095703125,0.7376708984375,-0.5862274169921875,61943.795873625,1.250886791742447,-1.257308483379699,-0.6622101165273742,-1.293179273605347,-1.870871424674988,-0.08188644051551819,0.003984272480010986,0.09635078907012939,-0.3606837391853333,XArbitraryZVertical,-0.1124171588536675,0.6047837359223578,-0.6027911032446801,-0.5081750150384732,-0.750200092792511,0.6148613095283508,-0.243198037147522,0,0,0,-1,-1,61937.41118925,unknown,2,2025-04-18T10:45:15.179+03:00,2025-04-17T15:44:39.500+03:00,7159,1.080567,0,0,5908.069,4,10,2025-04-18T10:45:17.758+03:00,766655120.4251046,0,107.72,100.5628,1,0.7,2025-04-18T10:44:07.044+03:00,81,1.35,2025-04-18T08:51:18.885+03:00,0.03057091307199995,1
2025-04-18T10:45:21.584+03:00,1744962319.922001,40.95359498604372,29.14098320424353,93.80547,-1,-1,-1,-1,30,35.56216926140436,-9999,61943.810988625,-0.7034149169921875,0.73089599609375,-0.5625,61943.80594962501,1.235435901132076,-1.285903474707955,-0.6643066550537418,-1.142715454101562,-1.940002799034119,-0.2404078990221024,0.01378673315048218,0.1232632398605347,-0.3654745817184448,XArbitraryZVertical,-0.1155270994843046,0.6131966055078595,-0.5975719125206542,-0.5035388123271562,-0.755608081817627,0.6165133714675903,-0.2212868183851242,0,0,0,-1,-1,61937.41118925,unknown,2,2025-04-18T10:45:15.179+03:00,2025-04-17T15:44:39.500+03:00,7159,1.080567,0,0,5908.069,4,10,2025-04-18T10:45:17.758+03:00,766655120.4251046,0,107.72,100.5628,1,0.7,2025-04-18T10:44:07.044+03:00,81,1.35,2025-04-18T08:51:18.885+03:00,0.03057091307199995,1
2025-04-18T10:45:21.594+03:00,1744962319.922001,40.95359498604372,29.14098320424353,93.80547,-1,-1,-1,-1,30,35.56216926140436,-9999,61943.821064625,-0.6465911865234375,0.7311859130859375,-0.489105224609375,61943.81602662501,1.220861129916665,-1.315409955182792,-0.6647163376765034,-1.0653076171875,-2.127517223358154,-0.2862735986709595,0.05192261934280396,0.1135414242744446,-0.369219571352005,XArbitraryZVertical,-0.1196557870808833,0.6215023617251191,-0.5922502735261111,-0.4986553559469439,-0.7615633010864258,0.61683589220047,-0.1988346129655838,0,0,0,-1,-1,61937.41118925,unknown,2,2025-04-18T10:45:15.179+03:00,2025-04-17T15:44:39.500+03:00,7159,1.080567,0,0,5908.069,4,10,2025-04-18T10:45:17.758+03:00,766655120.4251046,0,107.72,100.5628,1,0.7,2025-04-18T10:44:07.044+03:00,81,1.35,2025-04-18T08:51:18.885+03:00,0.03057091307199995,1
2025-04-18T10:45:21.605+03:00,1744962319.922001,40.95359498604372,29.14098320424353,93.80547,-1,-1,-1,-1,30,35.56216926140436,-9999,61943.83114162501,-0.6317596435546875,0.686065673828125,-0.4106292724609375,61943.826103625,1.207829720307567,-1.345382532129966,-0.6642231191887997,-0.8793377876281738,-2.227156162261963,-0.2858251333236694,0.1144305467605591,0.1163557767868042,-0.3237193822860718,XArbitraryZVertical,-0.1245957896546407,0.6296670228130895,-0.5871062570889929,-0.4932562017742259,-0.7674762606620789,0.6164476275444031,-0.1759906560182571,0,0,0,-1,-1,61937.41118925,unknown,2,2025-04-18T10:45:15.179+03:00,2025-04-17T15:44:39.500+03:00,7159,1.080567,0,0,5908.069,4,10,2025-04-18T10:45:17.758+03:00,766655120.4251046,0,107.72,100.5628,1,0.7,2025-04-18T10:44:07.044+03:00,81,1.35,2025-04-18T08:51:18.885+03:00,0.03057091307199995,1
2025-04-18T10:45:21.615+03:00,1744962319.922001,40.95359498604372,29.14098320424353,93.80547,-1,-1,-1,-1,30,35.56216926140436,-9999,61943.84121762501,-0.6807403564453125,0.659912109375,-0.317657470703125,61943.836179625,1.197046643471811,-1.374610585713647,-0.6630981162528566,-0.7205256819725037,-2.241708278656006,-0.2950061857700348,0.1432410478591919,0.07900339365005493,-0.2661473155021667,XArbitraryZVertical,-0.1301319989962211,0.6373811233551204,-0.5824058203122405,-0.4874571957382531,-0.7729712724685669,0.6155613660812378,-0.1536219269037247,0,0,0,-1,-1,61937.41118925,unknown,2,2025-04-18T10:45:15.179+03:00,2025-04-17T15:44:39.500+03:00,7159,1.080567,0,0,5908.069,4,10,2025-04-18T10:45:17.758+03:00,766655120.4251046,0,107.72,100.5628,1,0.7,2025-04-18T10:44:07.044+03:00,81,1.35,2025-04-18T08:51:18.885+03:00,0.03057091307199995,1
2025-04-18T10:45:21.625+03:00,1744962319.922001,40.95359498604372,29.14098320424353,93.80547,-1,-1,-1,-1,30,35.56216926140436,-9999,61943.851294625,-0.7303924560546875,0.6974029541015625,-0.189544677734375,61943.846256625,1.188504312127837,-1.402311815963836,-0.6614229173076207,-0.5344521999359131,-2.20512843132019,-0.2744135558605194,0.1036134958267212,0.04275739192962646,-0.1996744275093079,XArbitraryZVertical,-0.1360335880985247,0.6444623787528644,-0.5781913264030989,-0.4815163390189796,-0.7779452204704285,0.6142403483390808,-0.1323262155056,0,0,0,-1,-1,61937.41118925,unknown,2,2025-04-18T10:45:15.179+03:00,2025-04-17T15:44:39.500+03:00,7159,1.080567,0,0,5908.069,4,10,2025-04-18T10:45:17.758+03:00,766655120.4251046,0,107.72,100.5628,1,0.7,2025-04-18T10:44:07.044+03:00,81,1.35,2025-04-18T08:51:18.885+03:00,0.03057091307199995,1
2025-04-18T10:45:21.635+03:00,1744962319.922001,40.95359498604372,29.14098320424353,93.80547,-1,-1,-1,-1,30,35.56216926140436,-9999,61943.861370625,-0.7567596435546875,0.6834869384765625,-0.0648345947265625,61943.856332625,1.181929004603759,-1.428241065413332,-0.659392317315212,-0.4412843286991119,-2.139718770980835,-0.2845681309700012,0.05659359693527222,0.08137881755828857,-0.09248350560665131,XArbitraryZVertical,-0.1421009801689333,0.6508937015680606,-0.5744368356934196,-0.4755701271200254,-0.7823472619056702,0.6126366853713989,-0.1122893989086151,0,0,0,-1,-1,61937.41118925,unknown,2,2025-04-18T10:45:15.179+03:00,2025-04-17T15:44:39.500+03:00,7159,1.080567,0,0,5908.069,4,10,2025-04-18T10:45:17.758+03:00,766655120.4251046,0,107.72,100.5628,1,0.7,2025-04-18T10:44:07.044+03:00,81,1.35,2025-04-18T08:51:18.885+03:00,0.03057091307199995,1
2025-04-18T10:45:21.645+03:00,1744962319.922001,40.95359498604372,29.14098320424353,93.80547,-1,-1,-1,-1,30,35.56216926140436,-9999,61943.871447625,-0.7678070068359375,0.6287689208984375,0.0705718994140625,61943.86640962501,1.17522193029405,-1.453533145440144,-0.6571457657260324,-0.5693325996398926,-2.070487022399902,-0.2855934500694275,0.03186154365539551,0.07751023769378662,0.01204758882522583,XArbitraryZVertical,-0.1479449558393945,0.6571131394136595,-0.5705861835603875,-0.469836302542185,-0.7863019108772278,0.6108595132827759,-0.09262922406196594,0,0,0,-1,-1,61937.41118925,unknown,2,2025-04-18T10:45:15.179+03:00,2025-04-17T15:44:39.500+03:00,7159,1.080567,0,0,5908.069,4,10,2025-04-18T10:45:17.758+03:00,766655120.4251046,0,107.72,100.5628,1,0.7,2025-04-18T10:44:07.044+03:00,81,1.35,2025-04-18T08:51:18.885+03:00,0.03057091307199995,1
2025-04-18T10:45:21.655+03:00,1744962319.922001,40.95359498604372,29.14098320424353,93.80547,-1,-1,-1,-1,30,35.56216926140436,-9999,61943.881523625,-0.7532806396484375,0.5751953125,0.22265625,61943.87648562501,1.165826341677566,-1.479787741498182,-0.6552010142642483,-0.8616920709609985,-2.003060102462769,-0.261927455663681,0.02202022075653076,0.02685081958770752,0.1237908005714417,XArbitraryZVertical,-0.1529886901195349,0.663748993491772,-0.5660314603163757,-0.4643708599023662,-0.789644181728363,0.6093186736106873,-0.07206346839666367,0,0,0,-1,-1,61937.41118925,unknown,2,2025-04-18T10:45:15.179+03:00,2025-04-17T15:44:39.500+03:00,7159,1.080567,0,0,5908.069,4,10,2025-04-18T10:45:17.758+03:00,766655120.4251046,0,107.72,100.5628,1,0.7,2025-04-18T10:44:07.044+03:00,81,1.35,2025-04-18T08:51:18.885+03:00,0.03057091307199995,1
2025-04-18T10:45:21.665+03:00,1744962319.922001,40.95359498604372,29.14098320424353,93.80547,-1,-1,-1,-1,30,35.56216926140436,-9999,61943.891600625,-0.7556915283203125,0.5209808349609375,0.32830810546875,61943.886562625,1.15283158109814,-1.507536077979539,-0.6532490404147193,-1.138171076774597,-1.930647253990173,-0.2882538735866547,0.03661978244781494,-0.02618098258972168,0.2547006607055664,XArbitraryZVertical,-0.1571515051234637,0.6709711238958032,-0.5604797980421012,-0.4593077379163765,-0.7925249338150024,0.6077697277069092,-0.05020231008529663,0,0,0,-1,-1,61937.41118925,unknown,2,2025-04-18T10:45:15.179+03:00,2025-04-17T15:44:39.500+03:00,7159,1.080567,0,0,5908.069,4,10,2025-04-18T10:45:17.758+03:00,766655120.4251046,0,107.72,100.5628,1,0.7,2025-04-18T10:44:07.044+03:00,81,1.35,2025-04-18T08:51:18.885+03:00,0.03057091307199995,1
2025-04-18T10:45:21.675+03:00,1744962319.922001,40.95359498604372,29.14098320424353,93.80547,-1,-1,-1,-1,30,35.56216926140436,-9999,61943.90167662501,-0.790435791015625,0.4865264892578125,0.3764495849609375,61943.896638625,1.137392741866746,-1.535693582387198,-0.6508076590100532,-1.241011500358582,-1.793403625488281,-0.3074398338794708,0.0416409969329834,-0.07770717144012451,0.3469374179840088,XArbitraryZVertical,-0.160639938808204,0.6784054063544398,-0.5541975799738922,-0.4547813496331728,-0.7951048016548157,0.6058291792869568,-0.02792182937264442,0,0,0,-1,-1,61937.41118925,unknown,2,2025-04-18T10:45:15.179+03:00,2025-04-17T15:44:39.500+03:00,7159,1.080567,0,0,5908.069,4,10,2025-04-18T10:45:17.758+03:00,766655120.4251046,0,107.72,100.5628,1,0.7,2025-04-18T10:44:07.044+03:00,81,1.35,2025-04-18T08:51:18.885+03:00,0.03057091307199995,1
2025-04-18T10:45:21.685+03:00,1744962319.922001,40.95359498604372,29.14098320424353,93.80547,-1,-1,-1,-1,30,35.56216926140436,-9999,61943.91175362501,-0.82220458984375,0.5000152587890625,0.4049224853515625,61943.906715625,1.121650148481821,-1.562294905988227,-0.6479721056154953,-1.220256209373474,-1.590219616889954,-0.3194858431816101,0.01113253831863403,-0.115503191947937,0.3792605400085449,XArbitraryZVertical,-0.1635819412536216,0.6854574079611058,-0.547856236591073,-0.4508243452802616,-0.7972805500030518,0.6035707592964172,-0.006778180599212646,0,0,0,-1,-1,61937.41118925,unknown,2,2025-04-18T10:45:15.179+03:00,2025-04-17T15:44:39.500+03:00,7159,1.080567,0,0,5908.069,4,10,2025-04-18T10:45:17.758+03:00,766655120.4251046,0,107.72,100.5628,1,0.7,2025-04-18T10:44:07.044+03:00,81,1.35,2025-04-18T08:51:18.885+03:00,0.03057091307199995,1
2025-04-18T10:45:21.695+03:00,1744962319.922001,40.95359498604372,29.14098320424353,93.80547,-1,-1,-1,-1,30,35.56216926140436,-9999,61943.921829625,-0.848297119140625,0.5343475341796875,0.4196929931640625,61943.916791625,1.10709015546173,-1.585948084343442,-0.6446354200250098,-1.077473282814026,-1.365002751350403,-0.3251882493495941,-0.01945263147354126,-0.1043402552604675,0.3895008563995361,XArbitraryZVertical,-0.1661592972155323,0.6916982000901436,-0.5418828306483418,-0.4475575454958142,-0.799227237701416,0.6009070873260498,0.0121106244623661,0,0,0,-1,-1,61937.41118925,unknown,2,2025-04-18T10:45:15.179+03:00,2025-04-17T15:44:39.500+03:00,7159,1.080567,0,0,5908.069,4,10,2025-04-18T10:45:17.758+03:00,766655120.4251046,0,107.72,100.5628,1,0.7,2025-04-18T10:44:07.044+03:00,81,1.35,2025-04-18T08:51:18.885+03:00,0.03057091307199995,1
2025-04-18T10:45:21.705+03:00,1744962319.922001,40.95359498604372,29.14098320424353,93.80547,-1,-1,-1,-1,30,35.56216926140436,-9999,61943.931906625,-0.8510589599609375,0.5625152587890625,0.43377685546875,61943.92686862501,1.09476185607031,-1.605952991085376,-0.6412296506192053,-0.9023797512054443,-1.135365843772888,-0.3047271966934204,-0.04444074630737305,-0.06778579950332642,0.3907322883605957,XArbitraryZVertical,-0.1684364221636774,0.6969310266416234,-0.5366694661325213,-0.4448619690013449,-0.8008655905723572,0.5981813073158264,0.0281673688441515,0,0,0,-1,-1,61937.41118925,unknown,2,2025-04-18T10:45:15.179+03:00,2025-04-17T15:44:39.500+03:00,7159,1.080567,0,0,5908.069,4,10,2025-04-18T10:45:17.758+03:00,766655120.4251046,0,107.72,100.5628,1,0.7,2025-04-18T10:44:07.044+03:00,81,1.35,2025-04-18T08:51:18.885+03:00,0.03057091307199995,1
2025-04-18T10:45:21.715+03:00,1744962319.922001,40.95359498604372,29.14098320424353,93.80547,-1,-1,-1,-1,30,35.56216926140436,-9999,61943.941983625,-0.8480224609375,0.56256103515625,0.474853515625,61943.93694462501,1.084552714866523,-1.622463079213286,-0.6380390612985712,-0.7470738887786865,-0.9301528930664062,-0.2602588534355164,-0.04950636625289917,-0.03611212968826294,0.3890889883041382,XArbitraryZVertical,-0.1703633402632282,0.7012261818621059,-0.5322500305558043,-0.4426829141978275,-0.8021934628486633,0.5956214070320129,0.04148365184664726,0,0,0,-1,-1,61937.41118925,unknown,2,2025-04-18T10:45:15.179+03:00,2025-04-17T15:44:39.500+03:00,7159,1.080567,0,0,5908.069,4,10,2025-04-18T10:45:17.758+03:00,766655120.4251046,0,107.72,100.5628,1,0.7,2025-04-18T10:44:07.044+03:00,81,1.35,2025-04-18T08:51:18.885+03:00,0.03057091307199995,1
2025-04-18T10:45:21.725+03:00,1744962319.922001,40.95359498604372,29.14098320424353,93.80547,-1,-1,-1,-1,30,35.56216926140436,-9999,61943.952059625,-0.8475799560546875,0.52642822265625,0.5413970947265625,61943.947021625,1.076261141227511,-1.635656600185673,-0.6353186070299028,-0.605748176574707,-0.7118711471557617,-0.1952271163463593,-0.04512214660644531,-0.02890461683273315,0.4162765741348267,XArbitraryZVertical,-0.1718678660502308,0.7046599134777608,-0.5286337999557394,-0.44097862274461,-0.8031902313232422,0.5934339761734009,0.05216831341385841,0,0,0,-1,-1,61937.41118925,unknown,2,2025-04-18T10:45:15.179+03:00,2025-04-17T15:44:39.500+03:00,7159,1.080567,0,0,5908.069,4,10,2025-04-18T10:45:17.758+03:00,766655120.4251046,0,107.72,100.5628,1,0.7,2025-04-18T10:44:07.044+03:00,81,1.35,2025-04-18T08:51:18.885+03:00,0.03057091307199995,1
2025-04-18T10:45:21.736+03:00,1744962319.922001,40.95359498604372,29.14098320424353,93.80547,-1,-1,-1,-1,30,35.56216926140436,-9999,61943.96213662501,-0.850128173828125,0.4922943115234375,0.6111602783203125,61943.957097625,1.069643553604156,-1.645697136705842,-0.6334381223043696,-0.4717330634593964,-0.50982266664505,-0.1053238213062286,-0.04329323768615723,-0.05955547094345093,0.471272349357605,XArbitraryZVertical,-0.1728120600095059,0.7073137202671812,-0.5258522625760843,-0.4396848011497,-0.8037374019622803,0.5919193625450134,0.06031341478228569,0,0,0,-1,-1,61937.41118925,unknown,2,2025-04-18T10:45:15.179+03:00,2025-04-17T15:44:39.500+03:00,7159,1.080567,0,0,5908.069,4,10,2025-04-18T10:45:17.758+03:00,766655120.4251046,0,107.72,100.5628,1,0.7,2025-04-18T10:44:07.044+03:00,81,1.35,2025-04-18T08:51:18.885+03:00,0.03057091307199995,1
2025-04-18T10:45:21.746+03:00,1744962319.922001,40.95359498604372,29.14098320424353,93.80547,-1,-1,-1,-1,30,35.56216926140436,-9999,61943.97221262501,-0.8504486083984375,0.4737091064453125,0.646575927734375,61943.967174625,1.064526446136895,-1.652888155621837,-0.6324600342094846,-0.3506015837192535,-0.3169136345386505,-0.01761900261044502,-0.04631441831588745,-0.09523534774780273,0.5376361608505249,XArbitraryZVertical,-0.1732154489528938,0.7092713722692505,-0.5238651317404925,-0.4387435823389221,-0.8038595914840698,0.5911307334899902,0.06613894551992416,0,0,0,-1,-1,61937.41118925,unknown,2,2025-04-18T10:45:15.179+03:00,2025-04-17T15:44:39.500+03:00,7159,1.080567,0,0,5908.069,4,10,2025-04-18T10:45:17.758+03:00,766655120.4251046,0,107.72,100.5628,1,0.7,2025-04-18T10:44:07.044+03:00,81,1.35,2025-04-18T08:51:18.885+03:00,0.03057091307199995,1
2025-04-18T10:45:21.756+03:00,1744962319.922001,40.95359498604372,29.14098320424353,93.80547,-1,-1,-1,-1,30,35.56216926140436,-9999,61943.982289625,-0.84967041015625,0.4534454345703125,0.641143798828125,61943.977250625,1.061075752596268,-1.657132487516702,-0.6326501529907029,-0.1961112767457962,-0.1168656945228577,0.1028392687439919,-0.04665327072143555,-0.1153319478034973,0.5743193626403809,XArbitraryZVertical,-0.173037469421837,0.7105126900115748,-0.5227885087433786,-0.438089093461006,-0.8034597039222717,0.5912840962409973,0.06954050064086914,0,0,0,-1,-1,61937.41118925,unknown,2,2025-04-18T10:45:15.179+03:00,2025-04-17T15:44:39.500+03:00,7159,1.080567,0,0,5908.069,4,10,2025-04-18T10:45:17.758+03:00,766655120.4251046,0,107.72,100.5628,1,0.7,2025-04-18T10:44:07.044+03:00,81,1.35,2025-04-18T08:51:18.885+03:00,0.03057091307199995,1
2025-04-18T10:45:21.766+03:00,1744962319.922001,40.95359498604372,29.14098320424353,93.80547,-1,-1,-1,-1,30,35.56216926140436,-9999,61943.992365625,-0.8415069580078125,0.4669952392578125,0.615631103515625,61943.98732762501,1.059505999835364,-1.657992869691198,-0.6341857005248163,-0.02582982555031776,0.1348357796669006,0.2234844714403152,-0.04786300659179688,-0.137886106967926,0.5735089778900146,XArbitraryZVertical,-0.1721900521540745,0.7109338124739101,-0.5227527846763548,-0.4377822940158216,-0.8024941086769104,0.5925217270851135,0.07015260308980942,0,0,0,-1,-1,61937.41118925,unknown,2,2025-04-18T10:45:15.179+03:00,2025-04-17T15:44:39.500+03:00,7159,1.080567,0,0,5908.069,4,10,2025-04-18T10:45:17.758+03:00,766655120.4251046,0,107.72,100.5628,1,0.7,2025-04-18T10:44:07.044+03:00,81,1.35,2025-04-18T08:51:18.885+03:00,0.03057091307199995,1
2025-04-18T10:45:21.776+03:00,1744962319.922001,40.95359498604372,29.14098320424353,93.80547,-1,-1,-1,-1,30,35.56216926140436,-9999,61944.002442625,-0.8343048095703125,0.4901123046875,0.5840606689453125,61943.99740362501,1.060103954541577,-1.654866896515616,-0.6371404541151319,0.1668437570333481,0.4129105508327484,0.3524357974529266,-0.04187315702438354,-0.1310017108917236,0.5521326065063477,XArbitraryZVertical,-0.1705938761001274,0.7103843420072952,-0.5238859006904266,-0.4379445261511956,-0.8009613156318665,0.5948993563652039,0.06749636679887772,0,0,0,-1,-1,61937.41118925,unknown,2,2025-04-18T10:45:15.179+03:00,2025-04-17T15:44:39.500+03:00,7159,1.080567,0,0,5908.069,4,10,2025-04-18T10:45:17.758+03:00,766655120.4251046,0,107.72,100.5628,1,0.7,2025-04-18T10:44:07.044+03:00,81,1.35,2025-04-18T08:51:18.885+03:00,0.03057091307199995,1
2025-04-18T10:45:21.786+03:00,1744962319.922001,40.95359498604372,29.14098320424353,93.80547,-1,-1,-1,-1,30,35.56216926140436,-9999,61944.012518625,-0.81390380859375,0.514404296875,0.5601654052734375,61944.007480625,1.063063741120683,-1.64757213849316,-0.6414657685540623,0.3837475478649139,0.6832261681556702,0.4615068733692169,-0.0371239185333252,-0.110684335231781,0.5267572402954102,XArbitraryZVertical,-0.1682753909426592,0.7088090939422487,-0.5262205367038265,-0.4385944869671541,-0.7988594770431519,0.5983704924583435,0.06145387887954712,0,0,0,-1,-1,61937.41118925,unknown,2,2025-04-18T10:45:15.179+03:00,2025-04-17T15:44:39.500+03:00,7159,1.080567,0,0,5908.069,4,10,2025-04-18T10:45:17.758+03:00,766655120.4251046,0,107.72,100.5628,1,0.7,2025-04-18T10:44:07.044+03:00,81,1.35,2025-04-18T08:51:18.885+03:00,0.03057091307199995,1
2025-04-18T10:45:21.796+03:00,1744962319.922001,40.95359498604372,29.14098320424353,93.80547,-1,-1,-1,-1,30,35.56216926140436,-9999,61944.02259562501,-0.79254150390625,0.538238525390625,0.5391845703125,61944.017556625,1.069004106037377,-1.635954628492584,-0.6467916646107656,0.6492705941200256,0.9106255173683167,0.5248517394065857,-0.02007824182510376,-0.09107822179794312,0.5108747482299805,XArbitraryZVertical,-0.1655133087548594,0.7061060949633809,-0.5297944314843518,-0.4397016886842443,-0.7963281273841858,0.6026291847229004,0.05196094512939453,0,0,0,-1,-1,61937.41118925,unknown,2,2025-04-18T10:45:15.179+03:00,2025-04-17T15:44:39.500+03:00,7159,1.080567,0,0,5908.069,4,10,2025-04-18T10:45:17.758+03:00,766655120.4251046,0,107.72,100.5628,1,0.7,2025-04-18T10:44:07.044+03:00,81,1.35,2025-04-18T08:51:18.885+03:00,0.03057091307199995,1
2025-04-18T10:45:21.806+03:00,1744962319.922001,40.95359498604372,29.14098320424353,93.80547,-1,-1,-1,-1,30,35.56216926140436,-9999,61944.03267162501,-0.78314208984375,0.5721435546875,0.5020904541015625,61944.027633625,1.078713692426635,-1.619931790276966,-0.6526678585682978,0.9470271468162537,1.09886622428894,0.5478066205978394,-0.001597404479980469,-0.07265543937683105,0.5038716793060303,XArbitraryZVertical,-0.1626763890777757,0.7021728970594954,-0.5346574797637569,-0.4411700287641129,-0.7935075759887695,0.6073080897331238,0.03902076929807663,0,0,0,-1,-1,61937.41118925,unknown,2,2025-04-18T10:45:15.179+03:00,2025-04-17T15:44:39.500+03:00,7159,1.080567,0,0,5908.069,4,10,2025-04-18T10:45:17.758+03:00,766655120.4251046,0,107.72,100.5628,1,0.7,2025-04-18T10:44:07.044+03:00,81,1.35,2025-04-18T08:51:18.885+03:00,0.03057091307199995,1
2025-04-18T10:45:21.816+03:00,1744962319.922001,40.95359498604372,29.14098320424353,93.80547,-1,-1,-1,-1,30,35.56216926140436,-9999,61944.042748625,-0.783111572265625,0.5843963623046875,0.4763336181640625,61944.037709625,1.092026032073349,-1.599931961903274,-0.6585726584516207,1.181373357772827,1.252841472625732,0.5440178513526917,0.006412267684936523,-0.04396486282348633,0.4850938320159912,XArbitraryZVertical,-0.159943989294039,0.6970921699302723,-0.5405982688050728,-0.4429832033088169,-0.7905311584472656,0.6119886636734009,0.02303914539515972,0,0,0,-1,-1,61937.41118925,unknown,2,2025-04-18T10:45:15.179+03:00,2025-04-17T15:44:39.500+03:00,7159,1.080567,0,0,5908.069,4,10,2025-04-18T10:45:17.758+03:00,766655120.4251046,0,107.72,100.5628,1,0.7,2025-04-18T10:44:07.044+03:00,81,1.35,2025-04-18T08:51:18.885+03:00,0.03057091307199995,1
2025-04-18T10:45:21.826+03:00,1744962319.922001,40.95359498604372,29.14098320424353,93.80547,-1,-1,-1,-1,30,35.56216926140436,-9999,61944.052824625,-0.7706756591796875,0.561859130859375,0.4853668212890625,61944.047786625,1.107990267716977,-1.576944047843176,-0.6640839377274145,1.306701183319092,1.360936164855957,0.4982602596282959,0.004034817218780518,-0.03181958198547363,0.4720113277435303,XArbitraryZVertical,-0.1573419851864535,0.6911324717159514,-0.5472235972310273,-0.4451131888400289,-0.787466824054718,0.6163380146026611,0.004841187503188848,0,0,0,-1,-1,61937.41118925,unknown,2,2025-04-18T10:45:15.179+03:00,2025-04-17T15:44:39.500+03:00,7159,1.080567,0,0,5908.069,4,10,2025-04-18T10:45:17.758+03:00,766655120.4251046,0,107.72,100.5628,1,0.7,2025-04-18T10:44:07.044+03:00,81,1.35,2025-04-18T08:51:18.885+03:00,0.03057091307199995,1
2025-04-18T10:45:21.836+03:00,1744962319.922001,40.95359498604372,29.14098320424353,93.80547,-1,-1,-1,-1,30,35.56216926140436,-9999,61944.062901625,-0.7593231201171875,0.5100250244140625,0.4862823486328125,61944.05786362501,1.12438592893123,-1.552789135117875,-0.6685988061559993,1.230421304702759,1.414082169532776,0.4181668162345886,0.01169091463088989,-0.05296200513839722,0.4984281063079834,XArbitraryZVertical,-0.1547742619360622,0.6848213401914791,-0.5537665518873441,-0.4476687887300427,-0.7845638990402222,0.619887113571167,-0.01412932015955448,0,0,0,-1,-1,61937.41118925,unknown,2,2025-04-18T10:45:15.179+03:00,2025-04-17T15:44:39.500+03:00,7159,1.080567,0,0,5908.069,4,10,2025-04-18T10:45:17.758+03:00,766655120.4251046,0,107.72,100.5628,1,0.7,2025-04-18T10:44:07.044+03:00,81,1.35,2025-04-18T08:51:18.885+03:00,0.03057091307199995,1
2025-04-18T10:45:21.846+03:00,1744962319.922001,40.95359498604372,29.14098320424353,93.80547,-1,-1,-1,-1,30,35.56216926140436,-9999,61944.072977625,-0.7362060546875,0.4456787109375,0.502960205078125,61944.06793962501,1.139169516698074,-1.529200855199059,-0.6722205072013778,1.046431183815002,1.443824172019958,0.3737687170505524,0.02144914865493774,-0.1045059561729431,0.5196124911308289,XArbitraryZVertical,-0.1519894150515856,0.6786979530691033,-0.5596718299157689,-0.4505949125945313,-0.7817640900611877,0.6227249503135681,-0.03253661096096039,0,0,0,-1,-1,61937.41118925,unknown,2,2025-04-18T10:45:15.179+03:00,2025-04-17T15:44:39.500+03:00,7159,1.080567,0,0,5908.069,4,10,2025-04-18T10:45:17.758+03:00,766655120.4251046,0,107.72,100.5628,1,0.7,2025-04-18T10:44:07.044+03:00,81,1.35,2025-04-18T08:51:18.885+03:00,0.03057091307199995,1
2025-04-18T10:45:21.870+03:00,1744962319.922001,40.95359498604372,29.14098320424353,93.80547,-1,-1,-1,-1,30,35.56216926140436,-9999,61944.08305462501,-0.71734619140625,0.407623291015625,0.5408477783203125,61944.078016625,1.151896184869952,-1.506602675742581,-0.6753026331463795,0.8903136849403381,1.472655415534973,0.3402050137519836,0.03913354873657227,-0.1716118454933167,0.5484220385551453,XArbitraryZVertical,-0.1488596582779767,0.6729085081289931,-0.5648899667265508,-0.4537998245729287,-0.7789101600646973,0.6251335740089417,-0.05006988346576691,0,0,0,-1,-1,61937.41118925,unknown,2,2025-04-18T10:45:15.179+03:00,2025-04-17T15:44:39.500+03:00,7159,1.080567,0,0,5908.069,4,10,2025-04-18T10:45:17.758+03:00,766655120.4251046,0,107.72,100.5628,1,0.7,2025-04-18T10:44:07.044+03:00,81,1.35,2025-04-18T08:51:18.885+03:00,0.03057091307199995,1
2025-04-18T10:45:21.873+03:00,1744962319.922001,40.95359498604372,29.14098320424353,93.80547,-1,-1,-1,-1,30,35.56216926140436,-9999,61944.09313062501,-0.7213592529296875,0.416534423828125,0.57958984375,61944.088092625,1.163106100297136,-1.484435950948359,-0.6780220539571759,0.818901002407074,1.544613003730774,0.3379152417182922,0.0571015477180481,-0.2172043323516846,0.6034300923347473,XArbitraryZVertical,-0.1453732110583058,0.6672923149819388,-0.5696230938351827,-0.4572934270405014,-0.7759126424789429,0.6272537708282471,-0.06717519462108612,0,0,0,-1,-1,61937.41118925,unknown,2,2025-04-18T10:45:15.179+03:00,2025-04-17T15:44:39.500+03:00,7159,1.080567,0,0,5908.069,4,10,2025-04-18T10:45:17.758+03:00,766655120.4251046,0,107.72,100.5628,1,0.7,2025-04-18T10:44:07.044+03:00,81,1.35,2025-04-18T08:51:18.885+03:00,0.03057091307199995,1
2025-04-18T10:45:21.877+03:00,1744962319.922001,40.95359498604372,29.14098320424353,93.80547,-1,-1,-1,-1,30,35.56216926140436,-9999,61944.103207625,-0.72454833984375,0.4526519775390625,0.6280670166015625,61944.098169625,1.175043292460763,-1.460536933205927,-0.6808621430321676,0.973522424697876,1.727515816688538,0.4203532934188843,0.05163931846618652,-0.216697633266449,0.6589725613594055,XArbitraryZVertical,-0.1414985522833076,0.6612317703503612,-0.5746340927265592,-0.4610275710254333,-0.7723119258880615,0.6294631958007812,-0.08550141006708145,0,0,0,-1,-1,61937.41118925,unknown,2,2025-04-18T10:45:15.179+03:00,2025-04-17T15:44:39.500+03:00,7159,1.080567,0,0,5908.069,4,10,2025-04-18T10:45:17.758+03:00,766655120.4251046,0,107.72,100.5628,1,0.7,2025-04-18T10:44:07.044+03:00,81,1.35,2025-04-18T08:51:18.885+03:00,0.03057091307199995,1
2025-04-18T10:45:21.886+03:00,1744962319.922001,40.95359498604372,29.14098320424353,93.80547,-1,-1,-1,-1,30,35.56216926140436,-9999,61944.113283625,-0.728790283203125,0.5144195556640625,0.6360321044921875,61944.108245625,1.190522845242721,-1.431812070534744,-0.6842218975686211,1.32530152797699,2.058682441711426,0.5261849164962769,0.04322612285614014,-0.1843773722648621,0.7299737334251404,XArbitraryZVertical,-0.1370972540940689,0.6538557356123704,-0.5808534703191476,-0.4650658555117668,-0.7674387693405151,0.6320702433586121,-0.107354037463665,0,0,0,-1,-1,61937.41118925,unknown,2,2025-04-18T10:45:15.179+03:00,2025-04-17T15:44:39.500+03:00,7159,1.080567,0,0,5908.069,4,10,2025-04-18T10:45:17.758+03:00,766655120.4251046,0,107.72,100.5628,1,0.7,2025-04-18T10:44:07.044+03:00,81,1.35,2025-04-18T08:51:18.885+03:00,0.03057091307199995,1
2025-04-18T10:45:21.897+03:00,1744962319.922001,40.95359498604372,29.14098320424353,93.80547,-1,-1,-1,-1,30,35.56216926140436,-9999,61944.123360625,-0.76025390625,0.5986328125,0.6786956787109375,61944.11832262501,1.212084755898643,-1.395110062757381,-0.6871298673902033,1.882394313812256,2.520856380462646,0.5712955594062805,0.03401225805282593,-0.1294839382171631,0.7718542218208313,XArbitraryZVertical,-0.132322542379819,0.6441511185175055,-0.5888893360406184,-0.4698612255122203,-0.7611699104309082,0.6343209743499756,-0.1351201683282852,0,0,0,-1,-1,61937.41118925,unknown,2,2025-04-18T10:45:15.179+03:00,2025-04-17T15:44:39.500+03:00,7159,1.080567,0,0,5908.069,4,10,2025-04-18T10:45:17.758+03:00,766655120.4251046,0,107.72,100.5628,1,0.7,2025-04-18T10:44:07.044+03:00,81,1.35,2025-04-18T08:51:18.885+03:00,0.03057091307199995,1
2025-04-18T10:45:21.907+03:00,1744962319.922001,40.95359498604372,29.14098320424353,93.80547,-1,-1,-1,-1,30,35.56216926140436,-9999,61944.133436625,-0.758270263671875,0.6777496337890625,0.734954833984375,61944.12839862501,1.241744054928847,-1.34874095116044,-0.6886371401553515,2.466564893722534,2.930201530456543,0.5965202450752258,-0.002429664134979248,-0.04762530326843262,0.8377709984779358,XArbitraryZVertical,-0.1274670296922325,0.6314499232291391,-0.5991656150953594,-0.4754196925444889,-0.7531551718711853,0.6354854702949524,-0.1700462996959686,0,0,0,-1,-1,61937.41118925,unknown,2,2025-04-18T10:45:15.179+03:00,2025-04-17T15:44:39.500+03:00,7159,1.080567,0,0,5908.069,4,10,2025-04-18T10:45:17.758+03:00,766655120.4251046,0,107.72,100.5628,1,0.7,2025-04-18T10:44:07.044+03:00,81,1.35,2025-04-18T08:51:18.885+03:00,0.03057091307199995,1
2025-04-18T10:45:21.917+03:00,1744962319.922001,40.95359498604372,29.14098320424353,93.80547,-1,-1,-1,-1,30,35.56216926140436,-9999,61944.143513625,-0.7298431396484375,0.6530914306640625,0.6922607421875,61944.138475625,1.27686506576202,-1.295044747190141,-0.6864328098672157,2.777382135391235,3.273198843002319,0.2991514801979065,-0.01793313026428223,0.03597211837768555,0.9455590844154358,XArbitraryZVertical,-0.12297746723112,0.6160961153636528,-0.6105953867019576,-0.4821571679530051,-0.7442892789840698,0.6337819695472717,-0.2106042355298996,0,0,0,-1,-1,61937.41118925,unknown,2,2025-04-18T10:45:15.179+03:00,2025-04-17T15:44:39.500+03:00,7159,1.080567,0,0,5908.069,4,10,2025-04-18T10:45:17.758+03:00,766655120.4251046,0,107.72,100.5628,1,0.7,2025-04-18T10:44:07.044+03:00,81,1.35,2025-04-18T08:51:18.885+03:00,0.03057091307199995,1
2025-04-18T10:45:21.927+03:00,1744962319.922001,40.95359498604372,29.14098320424353,93.80547,-1,-1,-1,-1,30,35.56216926140436,-9999,61944.15359062501,-0.7038116455078125,0.4699859619140625,0.7308349609375,61944.148551625,1.31213881888234,-1.238227669528286,-0.6800363486989024,2.793094396591187,3.595404148101807,0.1484357565641403,0.002767741680145264,0.03711801767349243,0.9502594470977783,XArbitraryZVertical,-0.1185111389159954,0.5991919370926043,-0.62170178833712,-0.4903172452759347,-0.7349454760551453,0.6288213133811951,-0.2538482546806335,0,0,0,-1,-1,61937.41118925,unknown,2,2025-04-18T10:45:15.179+03:00,2025-04-17T15:44:39.500+03:00,7159,1.080567,0,0,5908.069,4,10,2025-04-18T10:45:17.758+03:00,766655120.4251046,0,107.72,100.5628,1,0.7,2025-04-18T10:44:07.044+03:00,81,1.35,2025-04-18T08:51:18.885+03:00,0.03057091307199995,1
2025-04-18T10:45:21.937+03:00,1744962319.922001,40.95359498604372,29.14098320424353,93.80547,-1,-1,-1,-1,30,35.56216926140436,-9999,61944.16366662501,-0.66986083984375,0.3163299560546875,0.6722259521484375,61944.158628625,1.346537126527118,-1.177880601262354,-0.6720720482208116,2.815118074417114,4.117854118347168,0.2495503425598145,0.01410037279129028,-0.1258435845375061,1.023007869720459,XArbitraryZVertical,-0.1126319249143904,0.5809513425833509,-0.6326946573472536,-0.4995069215518739,-0.7229016423225403,0.6226087808609009,-0.2996191680431366,0,0,0,-1,-1,61937.41118925,unknown,2,2025-04-18T10:45:15.179+03:00,2025-04-17T15:44:39.500+03:00,7159,1.080567,0,0,5908.069,4,10,2025-04-18T10:45:17.758+03:00,766655120.4251046,0,107.72,100.5628,1,0.7,2025-04-18T10:44:07.044+03:00,81,1.35,2025-04-18T08:51:18.885+03:00,0.03057091307199995,1
2025-04-18T10:45:21.947+03:00,1744962319.922001,40.95359498604372,29.14098320424353,93.80547,-1,-1,-1,-1,30,35.56216926140436,-9999,61944.173743625,-0.6685791015625,0.4219818115234375,0.4113006591796875,61944.168704625,1.383104946772306,-1.110728697759655,-0.6621075706852692,3.254408836364746,4.734622001647949,0.3162436187267303,0.033977210521698,-0.2918586730957031,1.044982671737671,XArbitraryZVertical,-0.105252347250812,0.5602030578130889,-0.6444686205936901,-0.5096614618221519,-0.7066915035247803,0.6147804260253906,-0.3501889407634735,0,0,0,-1,-1,61937.41118925,unknown,2,2025-04-18T10:45:15.179+03:00,2025-04-17T15:44:39.500+03:00,7159,1.080567,0,0,5908.069,4,10,2025-04-18T10:45:17.758+03:00,766655120.4251046,0,107.72,100.5628,1,0.7,2025-04-18T10:44:07.044+03:00,81,1.35,2025-04-18T08:51:18.885+03:00,0.03057091307199995,1
2025-04-18T10:45:21.957+03:00,1744962319.922001,40.95359498604372,29.14098320424353,93.80547,-1,-1,-1,-1,30,35.56216926140436,-9999,61944.183819625,-0.623626708984375,0.548919677734375,0.1581573486328125,61944.17878162501,1.42316541432627,-1.036182571247992,-0.6483604830078952,3.449693918228149,5.182910919189453,0.2509519159793854,0.01666605472564697,-0.2057785987854004,0.8523905277252197,XArbitraryZVertical,-0.09697646123505627,0.5362249984238799,-0.657246229429661,-0.5206589071369792,-0.6858554482460022,0.6038804054260254,-0.4061166346073151,0,0,0,-1,-1,61937.41118925,unknown,2,2025-04-18T10:45:15.179+03:00,2025-04-17T15:44:39.500+03:00,7159,1.080567,0,0,5908.069,4,10,2025-04-18T10:45:17.758+03:00,766655120.4251046,0,107.72,100.5628,1,0.7,2025-04-18T10:44:07.044+03:00,81,1.35,2025-04-18T08:51:18.885+03:00,0.03057091307199995,1
2025-04-18T10:45:21.967+03:00,1744962319.922001,40.95359498604372,29.14098320424353,93.80547,-1,-1,-1,-1,30,35.56216926140436,-9999,61944.193896625,-0.57391357421875,0.35675048828125,0.05560302734375,61944.18885762501,1.457303947182012,-0.9607399553889063,-0.6319598561614332,2.77562141418457,5.768210411071777,-0.05490628629922867,0.02965635061264038,-0.04426419734954834,0.6484858989715576,XArbitraryZVertical,-0.08686544149812157,0.5111952399978126,-0.6684053749320482,-0.533261832060009,-0.6613245010375977,0.5907272696495056,-0.4622676372528076,0,0,0,-1,-1,61937.41118925,unknown,2,2025-04-18T10:45:15.179+03:00,2025-04-17T15:44:39.500+03:00,7159,1.080567,0,0,5908.069,4,10,2025-04-18T10:45:17.758+03:00,766655120.4251046,0,107.72,100.5628,1,0.7,2025-04-18T10:44:07.044+03:00,81,1.35,2025-04-18T08:51:18.885+03:00,0.03057091307199995,1
2025-04-18T10:45:21.977+03:00,1744962319.922001,40.95359498604372,29.14098320424353,93.80547,-1,-1,-1,-1,30,35.56216926140436,-9999,61944.203972625,-0.48345947265625,0.001007080078125,-0.114959716796875,61944.198934625,1.48418393234138,-0.8781378364900878,-0.617344759611405,2.984267234802246,8.062335968017578,0.7552398443222046,0.0495336651802063,-0.1790155172348022,0.5768208503723145,XArbitraryZVertical,-0.07104093612971886,0.4843512039740318,-0.6780004777850289,-0.5483361268372802,-0.6275060772895813,0.5788720846176147,-0.5207141637802124,0,0,0,-1,-1,61937.41118925,unknown,2,2025-04-18T10:45:15.179+03:00,2025-04-17T15:44:39.500+03:00,7159,1.080567,0,0,5908.069,4,10,2025-04-18T10:45:17.758+03:00,766655120.4251046,0,107.72,100.5628,1,0.7,2025-04-18T10:44:07.044+03:00,81,1.35,2025-04-18T08:51:18.885+03:00,0.03057091307199995,1
2025-04-18T10:45:21.987+03:00,1744962319.922001,40.95359498604372,29.14098320424353,93.80547,-1,-1,-1,-1,30,35.56216926140436,-9999,61944.21404962501,0.07989501953125,0.4144134521484375,-2.365997314453125,61944.209010625,1.520437168165916,-0.8039260650701844,-0.5991404675885186,3.296707153320312,2.207513570785522,0.1879165023565292,0.08541494607925415,-0.5360092520713806,0.53924161195755,XArbitraryZVertical,-0.06076355077557369,0.4580344147677234,-0.6895815844884774,-0.5576643556317535,-0.5946617722511292,0.5639328360557556,-0.5730245113372803,0,0,0,-1,-1,61937.41118925,unknown,2,2025-04-18T10:45:15.179+03:00,2025-04-17T15:44:39.500+03:00,7159,1.080567,0,0,5908.069,4,10,2025-04-18T10:45:17.758+03:00,766655120.4251046,0,107.72,100.5628,1,0.7,2025-04-18T10:44:07.044+03:00,81,1.35,2025-04-18T08:51:18.885+03:00,0.03057091307199995,1
2025-04-18T10:45:21.997+03:00,1744962319.922001,40.95359498604372,29.14098320424353,93.80547,-1,-1,-1,-1,30,35.56216926140436,-9999,61944.22412562501,0.729248046875,1.068740844726562,-3.871246337890625,61944.219087625,1.548667420388858,-0.7720709847463098,-0.5749840985013213,3.268660545349121,-0.2607992887496948,-0.5366441011428833,0.5731757283210754,-0.2462292313575745,-1.373425483703613,XArbitraryZVertical,-0.06468381564732062,0.4417985099939533,-0.6975180729921322,-0.5604450182660166,-0.5854437947273254,0.5438214540481567,-0.6012601852416992,0,0,0,-1,-1,61937.41118925,unknown,2,2025-04-18T10:45:15.179+03:00,2025-04-17T15:44:39.500+03:00,7159,1.080567,0,0,5908.069,4,10,2025-04-18T10:45:17.758+03:00,766655120.4251046,0,107.72,100.5628,1,0.7,2025-04-18T10:44:07.044+03:00,81,1.35,2025-04-18T08:51:18.885+03:00,0.03057091307199995,1
2025-04-18T10:45:22.008+03:00,1744962319.922001,40.95359498604372,29.14098320424353,93.80547,-1,-1,-1,-1,30,35.56216926140436,-9999,61944.234202625,1.5030517578125,0.1355743408203125,-3.604736328125,61944.229163625,1.567065175139373,-0.779225342800392,-0.5588758614925557,1.070568442344666,-2.186820268630981,1.091101288795471,1.239501476287842,0.5491580367088318,-3.276900768280029,XArbitraryZVertical,-0.07692948436856034,0.4387212978683134,-0.7017835326141829,-0.5559723609574871,-0.5958095192909241,0.5302334427833557,-0.6032109260559082,0,0,0,-1,-1,61937.41118925,unknown,2,2025-04-18T10:45:15.179+03:00,2025-04-17T15:44:39.500+03:00,7159,1.080567,0,0,5908.069,4,10,2025-04-18T10:45:17.758+03:00,766655120.4251046,0,107.72,100.5628,1,0.7,2025-04-18T10:44:07.044+03:00,81,1.35,2025-04-18T08:51:18.885+03:00,0.03057091307199995,1
2025-04-18T10:45:22.018+03:00,1744962319.922001,40.95359498604372,29.14098320424353,93.80547,-1,-1,-1,-1,30,35.56216926140436,-9999,61944.244278625,1.359649658203125,-0.2395782470703125,-3.178329467773438,61944.23924062501,1.579742049979164,-0.7952070843195933,-0.5583256690229076,0.2977233827114105,-2.138707876205444,0.3314934372901917,2.028830051422119,-0.269116222858429,-2.992288827896118,XArbitraryZVertical,-0.08553443581051957,0.442465376003312,-0.7046115513300554,-0.5481158585781927,-0.6055817008018494,0.529766857624054,-0.5938165187835693,0,0,0,-1,-1,61937.41118925,unknown,2,2025-04-18T10:45:15.179+03:00,2025-04-17T15:44:39.500+03:00,7159,1.080567,0,0,5908.069,4,10,2025-04-18T10:45:17.758+03:00,766655120.4251046,0,107.72,100.5628,1,0.7,2025-04-18T10:44:07.044+03:00,81,1.35,2025-04-18T08:51:18.885+03:00,0.03057091307199995,1
2025-04-18T10:45:22.028+03:00,1744962319.922001,40.95359498604372,29.14098320424353,93.80547,-1,-1,-1,-1,30,35.56216926140436,-9999,61944.254355625,-0.3201904296875,-0.07861328125,-1.488906860351562,61944.24931662501,1.584465179580299,-0.8092248327495319,-0.5571908899946072,0.7100020051002502,-1.102133870124817,0.0808953195810318,2.094688177108765,-0.7587388157844543,-2.766381978988647,XArbitraryZVertical,-0.09192050794192123,0.4457674892231217,-0.7052312506928241,-0.5435906399019161,-0.6142805218696594,0.5288040637969971,-0.5856839418411255,0,0,0,-1,-1,61937.41118925,unknown,2,2025-04-18T10:45:15.179+03:00,2025-04-17T15:44:39.500+03:00,7159,1.080567,0,0,5908.069,4,10,2025-04-18T10:45:17.758+03:00,766655120.4251046,0,107.72,100.5628,1,0.7,2025-04-18T10:44:07.044+03:00,81,1.35,2025-04-18T08:51:18.885+03:00,0.03057091307199995,1
2025-04-18T10:45:22.038+03:00,1744962319.922001,40.95359498604372,29.14098320424353,93.80547,-1,-1,-1,-1,30,35.56216926140436,-9999,61944.264431625,-1.274124145507812,0.5694732666015625,-0.8831939697265625,61944.25939362501,1.595131986058195,-0.8091358460710331,-0.5490248677470703,1.627399444580078,0.03327580541372299,-0.1001297235488892,0.517570972442627,-0.6562855839729309,-1.05664074420929,XArbitraryZVertical,-0.09710107838073642,0.4429692740711979,-0.7077781629819624,-0.5416639211219283,-0.6173329949378967,0.5218556523323059,-0.5886992216110229,0,0,0,-1,-1,61937.41118925,unknown,2,2025-04-18T10:45:15.179+03:00,2025-04-17T15:44:39.500+03:00,7159,1.080567,0,0,5908.069,4,10,2025-04-18T10:45:17.758+03:00,766655120.4251046,0,107.72,100.5628,1,0.7,2025-04-18T10:44:07.044+03:00,81,1.35,2025-04-18T08:51:18.885+03:00,0.03057091307199995,1
2025-04-18T10:45:22.048+03:00,1744962319.922001,40.95359498604372,29.14098320424353,93.80547,-1,-1,-1,-1,30,35.56216926140436,-9999,61944.27450862501,-1.302505493164062,0.9962921142578125,-0.4308319091796875,61944.269470625,1.609390595884223,-0.7959993510006161,-0.5369930992969001,1.692229032516479,0.9754326939582825,0.09699026495218277,-0.6192874908447266,-0.02307498455047607,-0.336377739906311,XArbitraryZVertical,-0.09973512529890137,0.4353153030038008,-0.7117793691884405,-0.5421473968165519,-0.6139889359474182,0.5115545988082886,-0.6011070013046265,0,0,0,-1,-1,61937.41118925,unknown,2,2025-04-18T10:45:15.179+03:00,2025-04-17T15:44:39.500+03:00,7159,1.080567,0,0,5908.069,4,10,2025-04-18T10:45:17.758+03:00,766655120.4251046,0,107.72,100.5628,1,0.7,2025-04-18T10:44:07.044+03:00,81,1.35,2025-04-18T08:51:18.885+03:00,0.03057091307199995,1
2025-04-18T10:45:22.058+03:00,1744962319.922001,40.95359498604372,29.14098320424353,93.80547,-1,-1,-1,-1,30,35.56216926140436,-9999,61944.28458462501,-1.010971069335938,0.98956298828125,-0.31976318359375,61944.279546625,1.62124905374376,-0.7800380609529548,-0.5266934597309054,1.15379011631012,0.9073460698127747,-0.1102465391159058,-0.7057611346244812,0.4671557545661926,0.1409103274345398,XArbitraryZVertical,-0.1001447580586507,0.4274335784391786,-0.7153805389359257,-0.5436013476132495,-0.6079901456832886,0.5026776790618896,-0.6145431399345398,0,0,0,-1,-1,61937.41118925,unknown,2,2025-04-18T10:45:15.179+03:00,2025-04-17T15:44:39.500+03:00,7159,1.080567,0,0,5908.069,4,10,2025-04-18T10:45:17.758+03:00,766655120.4251046,0,107.72,100.5628,1,0.7,2025-04-18T10:44:07.044+03:00,81,1.35,2025-04-18T08:51:18.885+03:00,0.03057091307199995,1
2025-04-18T10:45:22.068+03:00,1744962319.922001,40.95359498604372,29.14098320424353,93.80547,-1,-1,-1,-1,30,35.56216926140436,-9999,61944.294661625,-0.6586761474609375,0.7164154052734375,-0.3314666748046875,61944.289623625,1.629062370367806,-0.7689893558964718,-0.5192426724720285,0.8922762274742126,0.5486648678779602,0.07011764496564865,-0.4597254991531372,0.5119712352752686,0.3041645288467407,XArbitraryZVertical,-0.1004005525848653,0.4218662698798343,-0.7177733454725852,-0.5447477771298965,-0.6037511229515076,0.4962227642536163,-0.6238971352577209,0,0,0,-1,-1,61937.41118925,unknown,2,2025-04-18T10:45:15.179+03:00,2025-04-17T15:44:39.500+03:00,7159,1.080567,0,0,5908.069,4,10,2025-04-18T10:45:17.758+03:00,766655120.4251046,0,107.72,100.5628,1,0.7,2025-04-18T10:44:07.044+03:00,81,1.35,2025-04-18T08:51:18.885+03:00,0.03057091307199995,1
2025-04-18T10:45:22.078+03:00,1744962319.922001,40.95359498604372,29.14098320424353,93.80547,-1,-1,-1,-1,30,35.56216926140436,-9999,61944.304737625,-0.6715545654296875,0.4941253662109375,-0.39697265625,61944.299699625,1.636568393675156,-0.7590550276588276,-0.5137874029683013,0.7764192223548889,0.747201144695282,0.08961867541074753,-0.08697807788848877,0.2668826580047607,0.3011759519577026,XArbitraryZVertical,-0.1002690321982593,0.41717717564044,-0.7201149737063364,-0.5452924323868825,-0.5993775725364685,0.4914791584014893,-0.6318186521530151,0,0,0,-1,-1,61937.41118925,unknown,2,2025-04-18T10:45:15.179+03:00,2025-04-17T15:44:39.500+03:00,7159,1.080567,0,0,5908.069,4,10,2025-04-18T10:45:17.758+03:00,766655120.4251046,0,107.72,100.5628,1,0.7,2025-04-18T10:44:07.044+03:00,81,1.35,2025-04-18T08:51:18.885+03:00,0.03057091307199995,1
2025-04-18T10:45:22.088+03:00,1744962319.922001,40.95359498604372,29.14098320424353,93.80547,-1,-1,-1,-1,30,35.56216926140436,-9999,61944.314814625,-0.829681396484375,0.4814300537109375,-0.535675048828125,61944.30977662501,1.643247686026929,-0.7476091345987371,-0.5091575877145863,0.6870848536491394,0.8058636784553528,0.1252083629369736,-0.05561405420303345,0.01727312803268433,0.2594399452209473,XArbitraryZVertical,-0.09910497543723168,0.4123451820578601,-0.7223442339228536,-0.5462312349002587,-0.5936474800109863,0.4874418675899506,-0.6402993202209473,0,0,0,-1,-1,61937.41118925,unknown,2,2025-04-18T10:45:15.179+03:00,2025-04-17T15:44:39.500+03:00,7159,1.080567,0,0,5908.069,4,10,2025-04-18T10:45:17.758+03:00,766655120.4251046,0,107.72,100.5628,1,0.7,2025-04-18T10:44:07.044+03:00,81,1.35,2025-04-18T08:51:18.885+03:00,0.03057091307199995,1
2025-04-18T10:45:22.098+03:00,1744962319.922001,40.95359498604372,29.14098320424353,93.80547,-1,-1,-1,-1,30,35.56216926140436,-9999,61944.324890625,-0.61798095703125,0.324951171875,-0.5904998779296875,61944.31985262501,1.649563053623202,-0.7380575014539195,-0.505746559523276,0.5499004125595093,0.4765164852142334,0.2169296592473984,-0.2393068075180054,0.002905070781707764,0.1257432699203491,XArbitraryZVertical,-0.09810586400032599,0.408401702095709,-0.72442578036056,-0.5466175202625952,-0.5886198878288269,0.4844606816768646,-0.6471665501594543,0,0,0,-1,-1,61937.41118925,unknown,2,2025-04-18T10:45:15.179+03:00,2025-04-17T15:44:39.500+03:00,7159,1.080567,0,0,5908.069,4,10,2025-04-18T10:45:17.758+03:00,766655120.4251046,0,107.72,100.5628,1,0.7,2025-04-18T10:44:07.044+03:00,81,1.35,2025-04-18T08:51:18.885+03:00,0.03057091307199995,1
2025-04-18T10:45:22.108+03:00,1744962319.922001,40.95359498604372,29.14098320424353,93.80547,-1,-1,-1,-1,30,35.56216926140436,-9999,61944.33496762501,-0.4412384033203125,0.279388427734375,-0.623138427734375,61944.329929625,1.655269589264908,-0.7314957510836376,-0.5036604912781993,0.4172534048557281,0.3116569817066193,0.2263631075620651,-0.07109349966049194,-0.1351462602615356,0.06440913677215576,XArbitraryZVertical,-0.09759510462390814,0.4056998385402978,-0.7262389330883061,-0.5463149684249572,-0.5850344896316528,0.4826346933841705,-0.6517656445503235,0,0,0,-1,-1,61937.41118925,unknown,2,2025-04-18T10:45:15.179+03:00,2025-04-17T15:44:39.500+03:00,7159,1.080567,0,0,5908.069,4,10,2025-04-18T10:45:17.758+03:00,766655120.4251046,0,107.72,100.5628,1,0.7,2025-04-18T10:44:07.044+03:00,81,1.35,2025-04-18T08:51:18.885+03:00,0.03057091307199995,1
2025-04-18T10:45:22.118+03:00,1744962319.922001,40.95359498604372,29.14098320424353,93.80547,-1,-1,-1,-1,30,35.56216926140436,-9999,61944.34504362501,-0.47479248046875,0.4085235595703125,-0.6597747802734375,61944.340005625,1.65977462802866,-0.7262377348623744,-0.5022689933211664,0.3202203214168549,0.3056579232215881,0.1749764829874039,0.135603129863739,-0.2115943729877472,0.03820782899856567,XArbitraryZVertical,-0.09706644781776359,0.4036223504325211,-0.7276819890470152,-0.5460274904924216,-0.582044780254364,0.4814155399799347,-0.6553342342376709,0,0,0,-1,-1,61937.41118925,unknown,2,2025-04-18T10:45:15.179+03:00,2025-04-17T15:44:39.500+03:00,7159,1.080567,0,0,5908.069,4,10,2025-04-18T10:45:17.758+03:00,766655120.4251046,0,107.72,100.5628,1,0.7,2025-04-18T10:44:07.044+03:00,81,1.35,2025-04-18T08:51:18.885+03:00,0.03057091307199995,1
2025-04-18T10:45:22.128+03:00,1744962319.922001,40.95359498604372,29.14098320424353,93.80547,-1,-1,-1,-1,30,35.56216926140436,-9999,61944.355120625,-0.463775634765625,0.4337310791015625,-0.6547698974609375,61944.350082625,1.663441667490102,-0.7213921271196377,-0.5013005592599451,0.2457961589097977,0.3055186569690704,0.1772790551185608,0.1092299222946167,-0.08626410365104675,0.0004613995552062988,XArbitraryZVertical,-0.09636756144576809,0.4018270364965804,-0.7288883724594335,-0.5458664033802778,-0.5791701674461365,0.4805664718151093,-0.6584966778755188,0,0,0,-1,-1,61937.41118925,unknown,2,2025-04-18T10:45:15.179+03:00,2025-04-17T15:44:39.500+03:00,7159,1.080567,0,0,5908.069,4,10,2025-04-18T10:45:17.758+03:00,766655120.4251046,0,107.72,100.5628,1,0.7,2025-04-18T10:44:07.044+03:00,81,1.35,2025-04-18T08:51:18.885+03:00,0.03057091307199995,1
2025-04-18T10:45:22.139+03:00,1744962319.922001,40.95359498604372,29.14098320424353,93.80547,-1,-1,-1,-1,30,35.56216926140436,-9999,61944.365197625,-0.43658447265625,0.4008331298828125,-0.6333160400390625,61944.360158625,1.666615448397454,-0.7168133997107475,-0.5007836822230435,0.1896636486053467,0.3048733770847321,0.1716902703046799,0.1069974899291992,-0.04154500365257263,0.005170345306396484,XArbitraryZVertical,-0.09550846110970583,0.4002670890145984,-0.72995920430797,-0.5457325625341248,-0.5763121247291565,0.48011314868927,-0.6613287925720215,0,0,0,-1,-1,61937.41118925,unknown,2,2025-04-18T10:45:15.179+03:00,2025-04-17T15:44:39.500+03:00,7159,1.080567,0,0,5908.069,4,10,2025-04-18T10:45:17.758+03:00,766655120.4251046,0,107.72,100.5628,1,0.7,2025-04-18T10:44:07.044+03:00,81,1.35,2025-04-18T08:51:18.885+03:00,0.03057091307199995,1
2025-04-18T10:45:22.149+03:00,1744962319.922001,40.95359498604372,29.14098320424353,93.80547,-1,-1,-1,-1,30,35.56216926140436,-9999,61944.375273625,-0.46795654296875,0.4054107666015625,-0.6127777099609375,61944.37023562501,1.669169831629947,-0.7124975696584603,-0.5006714600375626,0.114163301885128,0.3068741858005524,0.144122302532196,0.1366133689880371,-0.07849490642547607,0.02743709087371826,XArbitraryZVertical,-0.09448046309117493,0.398933707740357,-0.7308580460829325,-0.5456849216997823,-0.5734878182411194,0.4800146818161011,-0.6638506650924683,0,0,0,-1,-1,61937.41118925,unknown,2,2025-04-18T10:45:15.179+03:00,2025-04-17T15:44:39.500+03:00,7159,1.080567,0,0,5908.069,4,10,2025-04-18T10:45:17.758+03:00,766655120.4251046,0,107.72,100.5628,1,0.7,2025-04-18T10:44:07.044+03:00,81,1.35,2025-04-18T08:51:18.885+03:00,0.03057091307199995,1
2025-04-18T10:45:22.159+03:00,1744962319.922001,40.95359498604372,29.14098320424353,93.80547,-1,-1,-1,-1,30,35.56216926140436,-9999,61944.385350625,-0.5142669677734375,0.3875274658203125,-0.6274566650390625,61944.38031162501,1.670760867030676,-0.7087630108080361,-0.5010129922815715,0.0107363760471344,0.2725834548473358,0.1114485636353493,0.1091364026069641,-0.07435417175292969,0.0509340763092041,XArbitraryZVertical,-0.09331711551795685,0.3979450722966115,-0.7314767405742046,-0.5457779713027293,-0.5708979368209839,0.4803142845630646,-0.6658632755279541,0,0,0,-1,-1,61937.41118925,unknown,2,2025-04-18T10:45:15.179+03:00,2025-04-17T15:44:39.500+03:00,7159,1.080567,0,0,5908.069,4,10,2025-04-18T10:45:17.758+03:00,766655120.4251046,0,107.72,100.5628,1,0.7,2025-04-18T10:44:07.044+03:00,81,1.35,2025-04-18T08:51:18.885+03:00,0.03057091307199995,1
2025-04-18T10:45:22.169+03:00,1744962319.922001,40.95359498604372,29.14098320424353,93.80547,-1,-1,-1,-1,30,35.56216926140436,-9999,61944.395426625,-0.5366668701171875,0.3805999755859375,-0.6746978759765625,61944.390388625,1.671388226625494,-0.7060809463924038,-0.5019834678805026,-0.07898924499750137,0.1970365047454834,0.0985463485121727,0.05849230289459229,-0.09118112921714783,0.04435640573501587,XArbitraryZVertical,-0.09213404463033054,0.3974830963392748,-0.73179774069674,-0.5458851443764364,-0.5688071846961975,0.4811652600765228,-0.6670370101928711,0,0,0,-1,-1,61937.41118925,unknown,2,2025-04-18T10:45:15.179+03:00,2025-04-17T15:44:39.500+03:00,7159,1.080567,0,0,5908.069,4,10,2025-04-18T10:45:17.758+03:00,766655120.4251046,0,107.72,100.5628,1,0.7,2025-04-18T10:44:07.044+03:00,81,1.35,2025-04-18T08:51:18.885+03:00,0.03057091307199995,1
