loggingTime(txt),locationTimestamp_since1970(s),locationLatitude(WGS84),locationLongitude(WGS84),locationAltitude(m),locationSpeed(m/s),locationSpeedAccuracy(m/s),locationCourse(°),locationCourseAccuracy(°),locationVerticalAccuracy(m),locationHorizontalAccuracy(m),locationFloor(Z),accelerometerTimestamp_sinceReboot(s),accelerometerAccelerationX(G),accelerometerAccelerationY(G),accelerometerAccelerationZ(G),motionTimestamp_sinceReboot(s),motionYaw(rad),motionRoll(rad),motionPitch(rad),motionRotationRateX(rad/s),motionRotationRateY(rad/s),motionRotationRateZ(rad/s),motionUserAccelerationX(G),motionUserAccelerationY(G),motionUserAccelerationZ(G),motionAttitudeReferenceFrame(txt),motionQuaternionX(R),motionQuaternionY(R),motionQuaternionZ(R),motionQuaternionW(R),motionGravityX(G),motionGravityY(G),motionGravityZ(G),motionMagneticFieldX(µT),motionMagneticFieldY(µT),motionMagneticFieldZ(µT),motionHeading(°),motionMagneticFieldCalibrationAccuracy(Z),activityTimestamp_sinceReboot(s),activity(txt),activityActivityConfidence(Z),activityActivityStartDate(txt),pedometerStartDate(txt),pedometerNumberofSteps(N),pedometerAverageActivePace(s/m),pedometerCurrentPace(s/m),pedometerCurrentCadence(steps/s),pedometerDistance(m),pedometerFloorAscended(N),pedometerFloorDescended(N),pedometerEndDate(txt),altimeterTimestamp_sinceReboot(s),altimeterReset(bool),altimeterRelativeAltitude(m),altimeterPressure(kPa),batteryState(N),batteryLevel(R),heartRateBPMTimestamp(txt),heartRateBPM(N),heartRateBPS(R),heartRateVariabilityTimestamp(txt),heartRateVariability(ms),label
2025-04-18T14:18:49.562+03:00,1744975125.239541,40.95360023396433,29.14098414716288,93.09959,-1,-1,-1,-1,30,20.15231660333657,-9999,68725.73278812501,-0.57659912109375,0.7179412841796875,-0.3539886474609375,68725.72271112501,1.230446959255769,-1.031543056888489,-0.8042778887372527,-0.04450510069727898,-0.04127604886889458,-0.0361427515745163,0.0001682043075561523,-0.006111860275268555,0.0009366273880004883,XArbitraryZVertical,0.01610341683346801,0.567144074049464,-0.6196514229163484,-0.5423285905962467,-0.5951998829841614,0.7203299403190613,-0.3561765551567078,0,0,0,-1,-1,68724.95065425,unknown,2,2025-04-18T14:18:48.757+03:00,2025-04-18T14:06:46.055+03:00,21,5.43046,0,0,19.39724,0,0,2025-04-18T14:18:35.860+03:00,766667928.8450204,0,1.740005,100.4106,1,0.3,2025-04-18T14:06:59.545+03:00,78,1.3,2025-04-18T08:51:18.885+03:00,0.03057091307199995,0
2025-04-18T14:18:49.569+03:00,1744975125.239541,40.95360023396433,29.14098414716288,93.09959,-1,-1,-1,-1,30,20.15231660333657,-9999,68725.742864125,-0.59173583984375,0.72711181640625,-0.36016845703125,68725.73278812501,1.229629192901474,-1.032464731051121,-0.804152661386153,-0.0427236407995224,-0.03267716988921165,-0.04018819332122803,0.02358400821685791,-0.006665825843811035,0.005027055740356445,XArbitraryZVertical,0.01600199014642897,0.5673683721952687,-0.6194261231739753,-0.5423544766797976,-0.5956054329872131,0.7202430963516235,-0.355674147605896,0,0,0,-1,-1,68724.95065425,unknown,2,2025-04-18T14:18:48.757+03:00,2025-04-18T14:06:46.055+03:00,21,5.43046,0,0,19.39724,0,0,2025-04-18T14:18:35.860+03:00,766667928.8450204,0,1.740005,100.4106,1,0.3,2025-04-18T14:06:59.545+03:00,78,1.3,2025-04-18T08:51:18.885+03:00,0.03057091307199995,0
2025-04-18T14:18:49.570+03:00,1744975125.239541,40.95360023396433,29.14098414716288,93.09959,-1,-1,-1,-1,30,20.15231660333657,-9999,68725.75294012501,-0.582366943359375,0.7212982177734375,-0.3579864501953125,68725.742864125,1.22882351233148,-1.033397241814816,-0.8040338838117631,-0.04816261678934097,-0.04058276116847992,-0.03541234508156776,0.01066803932189941,0.002144575119018555,-0.002396881580352783,XArbitraryZVertical,0.01589641903667261,0.5675967812701129,-0.6192046654802205,-0.542371540611151,-0.5960103869438171,0.7201606631278992,-0.3551623821258545,0,0,0,-1,-1,68724.95065425,unknown,2,2025-04-18T14:18:48.757+03:00,2025-04-18T14:06:46.055+03:00,21,5.43046,0,0,19.39724,0,0,2025-04-18T14:18:35.860+03:00,766667928.8450204,0,1.740005,100.4106,1,0.3,2025-04-18T14:06:59.545+03:00,78,1.3,2025-04-18T08:51:18.885+03:00,0.03057091307199995,0
2025-04-18T14:18:49.575+03:00,1744975125.239541,40.95360023396433,29.14098414716288,93.09959,-1,-1,-1,-1,30,20.15231660333657,-9999,68725.763016125,-0.5879364013671875,0.724578857421875,-0.3586578369140625,68725.75294012501,1.22809089837858,-1.034182270264694,-0.8039927292111724,-0.0454968586564064,-0.02245043218135834,-0.03250833973288536,0.007187843322753906,0.005911529064178467,-0.004543542861938477,XArbitraryZVertical,0.01584555802178916,0.5677976558940285,-0.6190086282162681,-0.5423864075651854,-0.5963143706321716,0.7201321125030518,-0.3547094762325287,0,0,0,-1,-1,68724.95065425,unknown,2,2025-04-18T14:18:48.757+03:00,2025-04-18T14:06:46.055+03:00,21,5.43046,0,0,19.39724,0,0,2025-04-18T14:18:35.860+03:00,766667928.8450204,0,1.740005,100.4106,1,0.3,2025-04-18T14:06:59.545+03:00,78,1.3,2025-04-18T08:51:18.885+03:00,0.03057091307199995,0
2025-04-18T14:18:49.584+03:00,1744975125.239541,40.95360023396433,29.14098414716288,93.09959,-1,-1,-1,-1,30,20.15231660333657,-9999,68725.773092125,-0.594085693359375,0.7247161865234375,-0.3611602783203125,68725.763016125,1.227403597824806,-1.034756265284836,-0.8039091582958957,-0.04431548342108727,-0.009086157195270061,-0.03365456312894821,0.01388239860534668,0.0002627968788146973,-0.003359705209732056,XArbitraryZVertical,0.01583116136670963,0.5679352056453685,-0.6188193862551632,-0.5424589030181958,-0.5965697765350342,0.7200741171836853,-0.3543979525566101,0,0,0,-1,-1,68724.95065425,unknown,2,2025-04-18T14:18:48.757+03:00,2025-04-18T14:06:46.055+03:00,21,5.43046,0,0,19.39724,0,0,2025-04-18T14:18:35.860+03:00,766667928.8450204,0,1.740005,100.4106,1,0.3,2025-04-18T14:06:59.545+03:00,78,1.3,2025-04-18T08:51:18.885+03:00,0.03057091307199995,0
2025-04-18T14:18:49.595+03:00,1744975125.239541,40.95360023396433,29.14098414716288,93.09959,-1,-1,-1,-1,30,20.15231660333657,-9999,68725.78316812501,-0.593475341796875,0.7099761962890625,-0.3547210693359375,68725.773092125,1.22658753790746,-1.035344423868297,-0.803841673856739,-0.05728907138109207,-0.008309046737849712,-0.03862135857343674,0.004916131496429443,0.007343888282775879,-0.006050944328308105,XArbitraryZVertical,0.01585510467984369,0.5680781115492988,-0.6185967473630453,-0.5425623791535327,-0.5968198180198669,0.7200273275375366,-0.3540717363357544,0,0,0,-1,-1,68724.95065425,unknown,2,2025-04-18T14:18:48.757+03:00,2025-04-18T14:06:46.055+03:00,21,5.43046,0,0,19.39724,0,0,2025-04-18T14:18:35.860+03:00,766667928.8450204,0,1.740005,100.4106,1,0.3,2025-04-18T14:06:59.545+03:00,78,1.3,2025-04-18T08:51:18.885+03:00,0.03057091307199995,0
2025-04-18T14:18:49.605+03:00,1744975125.239541,40.95360023396433,29.14098414716288,93.09959,-1,-1,-1,-1,30,20.15231660333657,-9999,68725.793244125,-0.5907440185546875,0.697662353515625,-0.347015380859375,68725.78316812501,1.225676105327031,-1.036385589761681,-0.8038052928057068,-0.03030192852020264,-0.1398913115262985,-0.06477200239896774,0.00333857536315918,-0.001832008361816406,-0.00586584210395813,XArbitraryZVertical,0.01577808137691049,0.5683479074390604,-0.6183545381560439,-0.542557987421292,-0.5972105264663696,0.7200020551681519,-0.3534634113311768,0,0,0,-1,-1,68724.95065425,unknown,2,2025-04-18T14:18:48.757+03:00,2025-04-18T14:06:46.055+03:00,21,5.43046,0,0,19.39724,0,0,2025-04-18T14:18:35.860+03:00,766667928.8450204,0,1.740005,100.4106,1,0.3,2025-04-18T14:06:59.545+03:00,78,1.3,2025-04-18T08:51:18.885+03:00,0.03057091307199995,0
2025-04-18T14:18:49.615+03:00,1744975125.239541,40.95360023396433,29.14098414716288,93.09959,-1,-1,-1,-1,30,20.15231660333657,-9999,68725.803321125,-0.595306396484375,0.6566162109375,-0.341522216796875,68725.793244125,1.224736769129303,-1.038466871107561,-0.8041266918725707,-0.1146585568785667,-0.1115080714225769,-0.02228749170899391,0.004255115985870361,-0.01206469535827637,-0.0008945465087890625,XArbitraryZVertical,0.01552487859040266,0.5689532579160517,-0.6181446446336384,-0.5421700907685695,-0.5977456569671631,0.7202250957489014,-0.3521023392677307,0,0,0,-1,-1,68724.95065425,unknown,2,2025-04-18T14:18:48.757+03:00,2025-04-18T14:06:46.055+03:00,21,5.43046,0,0,19.39724,0,0,2025-04-18T14:18:35.860+03:00,766667928.8450204,0,1.740005,100.4106,1,0.3,2025-04-18T14:06:59.545+03:00,78,1.3,2025-04-18T08:51:18.885+03:00,0.03057091307199995,0
2025-04-18T14:18:49.625+03:00,1744975125.239541,40.95360023396433,29.14098414716288,93.09959,-1,-1,-1,-1,30,20.15231660333657,-9999,68725.81339712501,-0.629608154296875,0.733062744140625,-0.366119384765625,68725.803321125,1.223061191912655,-1.040117774426753,-0.8046073134314043,-0.1322394162416458,-0.009332166984677315,-0.009345061145722866,0.01018267869949341,-0.04317498207092285,0.009631186723709106,XArbitraryZVertical,0.01567562180309064,0.5694597178182069,-0.6177463086703809,-0.5420880566227038,-0.5980275273323059,0.7205584049224854,-0.3509398102760315,0,0,0,-1,-1,68724.95065425,unknown,2,2025-04-18T14:18:48.757+03:00,2025-04-18T14:06:46.055+03:00,21,5.43046,0,0,19.39724,0,0,2025-04-18T14:18:35.860+03:00,766667928.8450204,0,1.740005,100.4106,1,0.3,2025-04-18T14:06:59.545+03:00,78,1.3,2025-04-18T08:51:18.885+03:00,0.03057091307199995,0
2025-04-18T14:18:49.635+03:00,1744975125.239541,40.95360023396433,29.14098414716288,93.09959,-1,-1,-1,-1,30,20.15231660333657,-9999,68725.823473125,-0.57940673828125,0.7382049560546875,-0.35272216796875,68725.81339712501,1.221727955778212,-1.041267723691831,-0.8039989083009773,0.2169568687677383,-0.09882083535194397,-0.4036850929260254,-0.0128244161605835,-0.04299718141555786,-0.001425027847290039,XArbitraryZVertical,0.01546731263904506,0.5696702191069096,-0.617339130336007,-0.5423365750864063,-0.5988088250160217,0.7201364040374756,-0.3504731953144073,0,0,0,-1,-1,68724.95065425,unknown,2,2025-04-18T14:18:48.757+03:00,2025-04-18T14:06:46.055+03:00,21,5.43046,0,0,19.39724,0,0,2025-04-18T14:18:35.860+03:00,766667928.8450204,0,1.740005,100.4106,1,0.3,2025-04-18T14:06:59.545+03:00,78,1.3,2025-04-18T08:51:18.885+03:00,0.03057091307199995,0
2025-04-18T14:18:49.645+03:00,1744975125.239541,40.95360023396433,29.14098414716288,93.09959,-1,-1,-1,-1,30,20.15231660333657,-9999,68725.833549125,-0.46630859375,0.764556884765625,-0.303924560546875,68725.823473125,1.220947631013259,-1.045118546060481,-0.8022503592397586,0.002107943408191204,-0.4259805977344513,-0.003505714237689972,-0.02272003889083862,0.02704954147338867,-0.01642310619354248,XArbitraryZVertical,0.01383219331213504,0.5704477546698113,-0.6169971963342968,-0.5419524821204726,-0.6012423038482666,0.7189221382141113,-0.3487960696220398,0,0,0,-1,-1,68724.95065425,unknown,2,2025-04-18T14:18:48.757+03:00,2025-04-18T14:06:46.055+03:00,21,5.43046,0,0,19.39724,0,0,2025-04-18T14:18:35.860+03:00,766667928.8450204,0,1.740005,100.4106,1,0.3,2025-04-18T14:06:59.545+03:00,78,1.3,2025-04-18T08:51:18.885+03:00,0.03057091307199995,0
2025-04-18T14:18:49.655+03:00,1744975125.239541,40.95360023396433,29.14098414716288,93.09959,-1,-1,-1,-1,30,20.15231660333657,-9999,68725.84362512501,-0.7593841552734375,0.7008819580078125,-0.3775787353515625,68725.833549125,1.220940105968098,-1.046391623653091,-0.8018899234542419,0.02721489407122135,0.09017624706029892,-0.02744500339031219,0.08176857233047485,0.02543854713439941,0.01429766416549683,XArbitraryZVertical,0.01330367685636825,0.5707389770659239,-0.6169708467065317,-0.5416890245739757,-0.6019101142883301,0.7186715602874756,-0.348160058259964,0,0,0,-1,-1,68724.95065425,unknown,2,2025-04-18T14:18:48.757+03:00,2025-04-18T14:06:46.055+03:00,21,5.43046,0,0,19.39724,0,0,2025-04-18T14:18:35.860+03:00,766667928.8450204,0,1.740005,100.4106,1,0.3,2025-04-18T14:06:59.545+03:00,78,1.3,2025-04-18T08:51:18.885+03:00,0.03057091307199995,0
2025-04-18T14:18:49.665+03:00,1744975125.239541,40.95360023396433,29.14098414716288,93.09959,-1,-1,-1,-1,30,20.15231660333657,-9999,68725.853701125,-0.63946533203125,0.707122802734375,-0.36163330078125,68725.84362512501,1.220982348889566,-1.045569626830871,-0.8016268032074764,0.002997971838340163,-0.01758723333477974,-0.01173261739313602,0.05474454164505005,0.03254902362823486,0.02919989824295044,XArbitraryZVertical,0.01344451502816149,0.57047741768647,-0.6169527164450227,-0.5419816489071581,-0.6017873287200928,0.7184885740280151,-0.3487495183944702,0,0,0,-1,-1,68724.95065425,unknown,2,2025-04-18T14:18:48.757+03:00,2025-04-18T14:06:46.055+03:00,21,5.43046,0,0,19.39724,0,0,2025-04-18T14:18:35.860+03:00,766667928.8450204,0,1.740005,100.4106,1,0.3,2025-04-18T14:06:59.545+03:00,78,1.3,2025-04-18T08:51:18.885+03:00,0.03057091307199995,0
2025-04-18T14:18:49.675+03:00,1744975125.239541,40.95360023396433,29.14098414716288,93.09959,-1,-1,-1,-1,30,20.15231660333657,-9999,68725.86377712501,-0.5167388916015625,0.7262725830078125,-0.34368896484375,68725.853701125,1.220880640702085,-1.046394597204421,-0.8014588319290505,0.002762481803074479,-0.09695935249328613,-0.01628998667001724,-0.1876918077468872,-0.02969682216644287,-0.04173183441162109,XArbitraryZVertical,0.01315479232277273,0.5706752665313549,-0.6169152629373427,-0.5418231105006002,-0.6021792888641357,0.7183716893196106,-0.3483133912086487,0,0,0,-1,-1,68724.95065425,unknown,2,2025-04-18T14:18:48.757+03:00,2025-04-18T14:06:46.055+03:00,21,5.43046,0,0,19.39724,0,0,2025-04-18T14:18:35.860+03:00,766667928.8450204,0,1.740005,100.4106,1,0.3,2025-04-18T14:06:59.545+03:00,78,1.3,2025-04-18T08:51:18.885+03:00,0.03057091307199995,0
2025-04-18T14:18:49.685+03:00,1744975125.239541,40.95360023396433,29.14098414716288,93.09959,-1,-1,-1,-1,30,20.15231660333657,-9999,68725.87385412501,-0.6364898681640625,0.70819091796875,-0.3670654296875,68725.86377712501,1.220681902412632,-1.046943754962561,-0.8013060340037326,-0.01811057515442371,-0.009906476363539696,-0.01589503884315491,0.06315886974334717,0.0006981492042541504,0.005355566740036011,XArbitraryZVertical,0.01298359753416741,0.5708000454328777,-0.6168510244646734,-0.541768792177781,-0.6024653911590576,0.7182654142379761,-0.3480374813079834,0,0,0,-1,-1,68724.95065425,unknown,2,2025-04-18T14:18:48.757+03:00,2025-04-18T14:06:46.055+03:00,21,5.43046,0,0,19.39724,0,0,2025-04-18T14:18:35.860+03:00,766667928.8450204,0,1.740005,100.4106,1,0.3,2025-04-18T14:06:59.545+03:00,78,1.3,2025-04-18T08:51:18.885+03:00,0.03057091307199995,0
2025-04-18T14:18:49.695+03:00,1744975125.239541,40.95360023396433,29.14098414716288,93.09959,-1,-1,-1,-1,30,20.15231660333657,-9999,68725.883930125,-0.582061767578125,0.69329833984375,-0.35052490234375,68725.87385412501,1.220196075657413,-1.047589723627161,-0.8013263617938926,-0.04115377366542816,-0.06142686307430267,-0.01124019920825958,0.03297543525695801,0.004529297351837158,-0.007202267646789551,XArbitraryZVertical,0.01293087988985115,0.5709748713502544,-0.6167254620326474,-0.541728877872691,-0.6026775240898132,0.7182795405387878,-0.3476409912109375,0,0,0,-1,-1,68724.95065425,unknown,2,2025-04-18T14:18:48.757+03:00,2025-04-18T14:06:46.055+03:00,21,5.43046,0,0,19.39724,0,0,2025-04-18T14:18:35.860+03:00,766667928.8450204,0,1.740005,100.4106,1,0.3,2025-04-18T14:06:59.545+03:00,78,1.3,2025-04-18T08:51:18.885+03:00,0.03057091307199995,0
2025-04-18T14:18:49.705+03:00,1744975125.239541,40.95360023396433,29.14098414716288,93.09959,-1,-1,-1,-1,30,20.15231660333657,-9999,68725.894006125,-0.5811767578125,0.7190399169921875,-0.3401031494140625,68725.883930125,1.219668743635516,-1.048535023235129,-0.801399550441238,-0.02601557038724422,-0.0458497665822506,-0.01012300327420235,-0.02614426612854004,-0.0205765962600708,-0.01754868030548096,XArbitraryZVertical,0.01281799941346932,0.5712383538606731,-0.6165954700073577,-0.54160174253694,-0.6029603481292725,0.718330442905426,-0.3470448851585388,0,0,0,-1,-1,68724.95065425,unknown,2,2025-04-18T14:18:48.757+03:00,2025-04-18T14:06:46.055+03:00,21,5.43046,0,0,19.39724,0,0,2025-04-18T14:18:35.860+03:00,766667928.8450204,0,1.740005,100.4106,1,0.3,2025-04-18T14:06:59.545+03:00,78,1.3,2025-04-18T08:51:18.885+03:00,0.03057091307199995,0
2025-04-18T14:18:49.715+03:00,1744975125.239541,40.95360023396433,29.14098414716288,93.09959,-1,-1,-1,-1,30,20.15231660333657,-9999,68725.90408212501,-0.607269287109375,0.7252197265625,-0.3385772705078125,68725.894006125,1.21933805112747,-1.049065976588591,-0.8013847902641792,-0.01802016049623489,-0.02370391599833965,-0.008007488213479519,0.0357251763343811,-0.01731622219085693,0.002430617809295654,XArbitraryZVertical,0.01274314813095257,0.5713778229807536,-0.616507947169556,-0.5415560539890235,-0.6031537055969238,0.7183201909065247,-0.3467299938201904,0,0,0,-1,-1,68724.95065425,unknown,2,2025-04-18T14:18:48.757+03:00,2025-04-18T14:06:46.055+03:00,21,5.43046,0,0,19.39724,0,0,2025-04-18T14:18:35.860+03:00,766667928.8450204,0,1.740005,100.4106,1,0.3,2025-04-18T14:06:59.545+03:00,78,1.3,2025-04-18T08:51:18.885+03:00,0.03057091307199995,0
2025-04-18T14:18:49.725+03:00,1744975125.239541,40.95360023396433,29.14098414716288,93.09959,-1,-1,-1,-1,30,20.15231660333657,-9999,68725.914158125,-0.5938262939453125,0.713775634765625,-0.3360137939453125,68725.90408212501,1.219104103855644,-1.04948113751656,-0.8014248195862216,-0.01484194491058588,-0.02675643190741539,-0.003859348827973008,0.005769073963165283,0.007726132869720459,0.005950033664703369,XArbitraryZVertical,0.01269732049951451,0.5714946819561414,-0.6164509504304979,-0.5414986594122831,-0.6032726764678955,0.7183480262756348,-0.3464652001857758,0,0,0,-1,-1,68724.95065425,unknown,2,2025-04-18T14:18:48.757+03:00,2025-04-18T14:06:46.055+03:00,21,5.43046,0,0,19.39724,0,0,2025-04-18T14:18:35.860+03:00,766667928.8450204,0,1.740005,100.4106,1,0.3,2025-04-18T14:06:59.545+03:00,78,1.3,2025-04-18T08:51:18.885+03:00,0.03057091307199995,0
2025-04-18T14:18:49.741+03:00,1744975125.239541,40.95360023396433,29.14098414716288,93.09959,-1,-1,-1,-1,30,20.15231660333657,-9999,68725.92423412501,-0.5994110107421875,0.7081756591796875,-0.3439788818359375,68725.914158125,1.218992801171922,-1.049755702440163,-0.8015175898657317,-0.008545633405447006,-0.01694581098854542,-0.0004379524034447968,0.0005421042442321777,0.002885580062866211,0.009184449911117554,XArbitraryZVertical,0.0126799995292461,0.5715820344730308,-0.6164311396916384,-0.5414294205938992,-0.6033099889755249,0.7184125781059265,-0.3462663888931274,0,0,0,-1,-1,68724.95065425,unknown,2,2025-04-18T14:18:48.757+03:00,2025-04-18T14:06:46.055+03:00,21,5.43046,0,0,19.39724,0,0,2025-04-18T14:18:35.860+03:00,766667928.8450204,0,1.740005,100.4106,1,0.3,2025-04-18T14:06:59.545+03:00,78,1.3,2025-04-18T08:51:18.885+03:00,0.03057091307199995,0
2025-04-18T14:18:49.746+03:00,1744975125.239541,40.95360023396433,29.14098414716288,93.09959,-1,-1,-1,-1,30,20.15231660333657,-9999,68725.934310125,-0.5985565185546875,0.7161865234375,-0.347747802734375,68725.92423412501,1.218967740360063,-1.04998120784408,-0.8015864695959853,0.0003831471258308738,-0.02460159920156002,0.0005780435167253017,0.008832275867462158,-0.008743703365325928,0.007604718208312988,XArbitraryZVertical,0.01264403188719165,0.5716530959197226,-0.6164321500000483,-0.5413541295318736,-0.6033451557159424,0.7184605002403259,-0.3461057245731354,0,0,0,-1,-1,68724.95065425,unknown,2,2025-04-18T14:18:48.757+03:00,2025-04-18T14:06:46.055+03:00,21,5.43046,0,0,19.39724,0,0,2025-04-18T14:18:35.860+03:00,766667928.8450204,0,1.740005,100.4106,1,0.3,2025-04-18T14:06:59.545+03:00,78,1.3,2025-04-18T08:51:18.885+03:00,0.03057091307199995,0
2025-04-18T14:18:49.756+03:00,1744975125.239541,40.95360023396433,29.14098414716288,93.09959,-1,-1,-1,-1,30,20.15231660333657,-9999,68725.944386125,-0.5902862548828125,0.715301513671875,-0.349609375,68725.934310125,1.218975383427788,-1.050305672550114,-0.8014624595062209,0.005908806808292866,-0.03905550763010979,0.0001183153945021331,0.0026894211769104,-0.007513105869293213,-0.000389784574508667,XArbitraryZVertical,0.01249438979254114,0.5717226300284854,-0.6164247761286891,-0.541292553254742,-0.6035346984863281,0.7183742523193359,-0.3459542393684387,0,0,0,-1,-1,68724.95065425,unknown,2,2025-04-18T14:18:48.757+03:00,2025-04-18T14:06:46.055+03:00,21,5.43046,0,0,19.39724,0,0,2025-04-18T14:18:35.860+03:00,766667928.8450204,0,1.740005,100.4106,1,0.3,2025-04-18T14:06:59.545+03:00,78,1.3,2025-04-18T08:51:18.885+03:00,0.03057091307199995,0
2025-04-18T14:18:49.766+03:00,1744975125.239541,40.95360023396433,29.14098414716288,93.09959,-1,-1,-1,-1,30,20.15231660333657,-9999,68725.954463125,-0.5894775390625,0.712158203125,-0.3503570556640625,68725.944386125,1.219048759402665,-1.050724727989841,-0.8014702074180295,0.000985953607596457,-0.05715515092015266,0.0007739856373518705,0.008460044860839844,-0.0008960962295532227,-0.002369701862335205,XArbitraryZVertical,0.01234725280879315,0.5718376113129841,-0.6164479375506756,-0.5411481650272482,-0.6036748886108398,0.7183796167373657,-0.3456985950469971,0,0,0,-1,-1,68724.95065425,unknown,2,2025-04-18T14:18:48.757+03:00,2025-04-18T14:06:46.055+03:00,21,5.43046,0,0,19.39724,0,0,2025-04-18T14:18:35.860+03:00,766667928.8450204,0,1.740005,100.4106,1,0.3,2025-04-18T14:06:59.545+03:00,78,1.3,2025-04-18T08:51:18.885+03:00,0.03057091307199995,0
2025-04-18T14:18:49.776+03:00,1744975125.239541,40.95360023396433,29.14098414716288,93.09959,-1,-1,-1,-1,30,20.15231660333657,-9999,68725.96453912501,-0.5972137451171875,0.710662841796875,-0.34881591796875,68725.954463125,1.218974225662895,-1.051403525675523,-0.8015104700234136,-0.01402621809393167,-0.06744793802499771,-0.001454381039366126,0.01568841934204102,-0.004265844821929932,-0.004930227994918823,XArbitraryZVertical,0.01217468735083909,0.5720267725891997,-0.6164356974575503,-0.5409659130316813,-0.6038841605186462,0.7184076309204102,-0.3452742993831635,0,0,0,-1,-1,68724.95065425,unknown,2,2025-04-18T14:18:48.757+03:00,2025-04-18T14:06:46.055+03:00,21,5.43046,0,0,19.39724,0,0,2025-04-18T14:18:35.860+03:00,766667928.8450204,0,1.740005,100.4106,1,0.3,2025-04-18T14:06:59.545+03:00,78,1.3,2025-04-18T08:51:18.885+03:00,0.03057091307199995,0
2025-04-18T14:18:49.786+03:00,1744975125.239541,40.95360023396433,29.14098414716288,93.09959,-1,-1,-1,-1,30,20.15231660333657,-9999,68725.974615125,-0.604095458984375,0.714111328125,-0.34619140625,68725.96453912501,1.218723043337921,-1.052266346492419,-0.8015438276898895,-0.0186284277588129,-0.06755739450454712,-0.00608748197555542,0.01201319694519043,-0.006959378719329834,-0.006241470575332642,XArbitraryZVertical,0.01199333438322039,0.5722635444372008,-0.6163761010427674,-0.5407873121299004,-0.6041609048843384,0.7184308171272278,-0.3447411954402924,0,0,0,-1,-1,68724.95065425,unknown,2,2025-04-18T14:18:48.757+03:00,2025-04-18T14:06:46.055+03:00,21,5.43046,0,0,19.39724,0,0,2025-04-18T14:18:35.860+03:00,766667928.8450204,0,1.740005,100.4106,1,0.3,2025-04-18T14:06:59.545+03:00,78,1.3,2025-04-18T08:51:18.885+03:00,0.03057091307199995,0
2025-04-18T14:18:49.796+03:00,1744975125.239541,40.95360023396433,29.14098414716288,93.09959,-1,-1,-1,-1,30,20.15231660333657,-9999,68725.98469112501,-0.609283447265625,0.719451904296875,-0.346435546875,68725.974615125,1.218411867101703,-1.053163005966915,-0.8016203285595409,-0.02467806451022625,-0.06764713674783707,-0.006658064667135477,0.004065096378326416,-0.007119357585906982,-0.002675443887710571,XArbitraryZVertical,0.01183533751387541,0.5725153762033813,-0.6163044392620924,-0.5406059046942937,-0.6044220328330994,0.7184840440750122,-0.3441721498966217,0,0,0,-1,-1,68724.95065425,unknown,2,2025-04-18T14:18:48.757+03:00,2025-04-18T14:06:46.055+03:00,21,5.43046,0,0,19.39724,0,0,2025-04-18T14:18:35.860+03:00,766667928.8450204,0,1.740005,100.4106,1,0.3,2025-04-18T14:06:59.545+03:00,78,1.3,2025-04-18T08:51:18.885+03:00,0.03057091307199995,0
2025-04-18T14:18:49.806+03:00,1744975125.239541,40.95360023396433,29.14098414716288,93.09959,-1,-1,-1,-1,30,20.15231660333657,-9999,68725.994767125,-0.614410400390625,0.719940185546875,-0.3477325439453125,68725.98469112501,1.218078039980397,-1.054046341301481,-0.801683454781425,-0.0202710647135973,-0.05995086580514908,-0.006458061281591654,-0.0009500384330749512,-0.00231093168258667,-0.00214838981628418,XArbitraryZVertical,0.01168295354890313,0.5727613990099407,-0.6162252741573109,-0.5404390152716251,-0.6046865582466125,0.7185279726982117,-0.3436157703399658,0,0,0,-1,-1,68724.95065425,unknown,2,2025-04-18T14:18:48.757+03:00,2025-04-18T14:06:46.055+03:00,21,5.43046,0,0,19.39724,0,0,2025-04-18T14:18:35.860+03:00,766667928.8450204,0,1.740005,100.4106,1,0.3,2025-04-18T14:06:59.545+03:00,78,1.3,2025-04-18T08:51:18.885+03:00,0.03057091307199995,0
2025-04-18T14:18:49.816+03:00,1744975125.239541,40.95360023396433,29.14098414716288,93.09959,-1,-1,-1,-1,30,20.15231660333657,-9999,68726.004843125,-0.6167755126953125,0.7214508056640625,-0.3498382568359375,68725.994767125,1.217789985651755,-1.05481587813013,-0.8016927861673394,-0.01145040895789862,-0.05269428715109825,-0.01261342596262693,-0.006612062454223633,0.001207351684570312,-0.003425955772399902,XArbitraryZVertical,0.01153191996816732,0.5729690290569298,-0.6161527936722514,-0.5403047440525468,-0.6049449443817139,0.7185344099998474,-0.3431470096111298,0,0,0,-1,-1,68724.95065425,unknown,2,2025-04-18T14:18:48.757+03:00,2025-04-18T14:06:46.055+03:00,21,5.43046,0,0,19.39724,0,0,2025-04-18T14:18:35.860+03:00,766667928.8450204,0,1.740005,100.4106,1,0.3,2025-04-18T14:06:59.545+03:00,78,1.3,2025-04-18T08:51:18.885+03:00,0.03057091307199995,0
2025-04-18T14:18:49.826+03:00,1744975125.239541,40.95360023396433,29.14098414716288,93.09959,-1,-1,-1,-1,30,20.15231660333657,-9999,68726.01491912501,-0.61260986328125,0.725799560546875,-0.3472137451171875,68726.004843125,1.217628985860867,-1.055406778530239,-0.8016485674437811,-0.003215382806956768,-0.04564782977104187,-0.008120939135551453,-0.01080667972564697,0.002031564712524414,-0.005934476852416992,XArbitraryZVertical,0.01137915509234561,0.5731211975568438,-0.6161085222724592,-0.540197196232217,-0.6051753163337708,0.7185036540031433,-0.3428052067756653,0,0,0,-1,-1,68724.95065425,unknown,2,2025-04-18T14:18:48.757+03:00,2025-04-18T14:06:46.055+03:00,21,5.43046,0,0,19.39724,0,0,2025-04-18T14:18:35.860+03:00,766667928.8450204,0,1.740005,100.4106,1,0.3,2025-04-18T14:06:59.545+03:00,78,1.3,2025-04-18T08:51:18.885+03:00,0.03057091307199995,0
2025-04-18T14:18:49.837+03:00,1744975125.239541,40.95360023396433,29.14098414716288,93.09959,-1,-1,-1,-1,30,20.15231660333657,-9999,68726.024995125,-0.610107421875,0.7242889404296875,-0.3460540771484375,68726.01491912501,1.217662760504213,-1.055777934715674,-0.8015231571626723,0.01135324034839869,-0.0366276353597641,-0.009097620844841003,-0.01086056232452393,0.003797292709350586,-0.006816685199737549,XArbitraryZVertical,0.01120711582563081,0.5732032438553327,-0.6161079994946606,-0.5401141830501223,-0.6053808331489563,0.7184164524078369,-0.3426248729228973,0,0,0,-1,-1,68724.95065425,unknown,2,2025-04-18T14:18:48.757+03:00,2025-04-18T14:06:46.055+03:00,21,5.43046,0,0,19.39724,0,0,2025-04-18T14:18:35.860+03:00,766667928.8450204,0,1.740005,100.4106,1,0.3,2025-04-18T14:06:59.545+03:00,78,1.3,2025-04-18T08:51:18.885+03:00,0.03057091307199995,0
2025-04-18T14:18:49.848+03:00,1744975125.239541,40.95360023396433,29.14098414716288,93.09959,-1,-1,-1,-1,30,20.15231660333657,-9999,68726.035072125,-0.6089935302734375,0.726531982421875,-0.348541259765625,68726.024995125,1.217896681864857,-1.055888881916535,-0.8014115190490241,0.02200668305158615,-0.02917930856347084,-0.004459458403289318,-0.005229055881500244,0.00706404447555542,-0.00367051362991333,XArbitraryZVertical,0.01106322725111406,0.5732180938828645,-0.6161612947163569,-0.5400406547359856,-0.605488657951355,0.7183387875556946,-0.3425972461700439,0,0,0,-1,-1,68724.95065425,unknown,2,2025-04-18T14:18:48.757+03:00,2025-04-18T14:06:46.055+03:00,21,5.43046,0,0,19.39724,0,0,2025-04-18T14:18:35.860+03:00,766667928.8450204,0,1.740005,100.4106,1,0.3,2025-04-18T14:06:59.545+03:00,78,1.3,2025-04-18T08:51:18.885+03:00,0.03057091307199995,0
2025-04-18T14:18:49.857+03:00,1744975125.239541,40.95360023396433,29.14098414716288,93.09959,-1,-1,-1,-1,30,20.15231660333657,-9999,68726.04514812501,-0.6063232421875,0.722625732421875,-0.3489990234375,68726.035072125,1.218300754263853,-1.055763872121955,-0.8012859399827676,0.02828375436365604,-0.02029633335769176,-0.004929373972117901,-0.004674553871154785,0.006037473678588867,-0.004038691520690918,XArbitraryZVertical,0.01093792190537497,0.5731681044705051,-0.6162579225421223,-0.5399860223420884,-0.6055243611335754,0.7182514071464539,-0.3427173793315887,0,0,0,-1,-1,68724.95065425,unknown,2,2025-04-18T14:18:48.757+03:00,2025-04-18T14:06:46.055+03:00,21,5.43046,0,0,19.39724,0,0,2025-04-18T14:18:35.860+03:00,766667928.8450204,0,1.740005,100.4106,1,0.3,2025-04-18T14:06:59.545+03:00,78,1.3,2025-04-18T08:51:18.885+03:00,0.03057091307199995,0
2025-04-18T14:18:49.878+03:00,1744975125.239541,40.95360023396433,29.14098414716288,93.09959,-1,-1,-1,-1,30,20.15231660333657,-9999,68726.055224125,-0.608428955078125,0.719482421875,-0.3463592529296875,68726.04514812501,1.218761659190912,-1.055515094017631,-0.801101132665252,0.03456348925828934,-0.0110865905880928,-0.004197270609438419,-0.002492904663085938,0.00790560245513916,-0.006584465503692627,XArbitraryZVertical,0.01081180942899829,0.5730762770571503,-0.6163636921179827,-0.5399652323673132,-0.6055545210838318,0.7181228399276733,-0.3429333567619324,0,0,0,-1,-1,68724.95065425,unknown,2,2025-04-18T14:18:48.757+03:00,2025-04-18T14:06:46.055+03:00,21,5.43046,0,0,19.39724,0,0,2025-04-18T14:18:35.860+03:00,766667928.8450204,0,1.740005,100.4106,1,0.3,2025-04-18T14:06:59.545+03:00,78,1.3,2025-04-18T08:51:18.885+03:00,0.03057091307199995,0
2025-04-18T14:18:49.880+03:00,1744975125.239541,40.95360023396433,29.14098414716288,93.09959,-1,-1,-1,-1,30,20.15231660333657,-9999,68726.065300125,-0.6045074462890625,0.7133636474609375,-0.3415069580078125,68726.055224125,1.219172654247966,-1.055286096846174,-0.8008838705907201,0.0317663699388504,-0.01024822704493999,-0.004483826458454132,-0.001352310180664062,0.003158748149871826,-0.004842996597290039,XArbitraryZVertical,0.01068156745324352,0.5729846669766405,-0.6164530628077969,-0.5399630453227127,-0.6056117415428162,0.7179716229438782,-0.343148946762085,0,0,0,-1,-1,68724.95065425,unknown,2,2025-04-18T14:18:48.757+03:00,2025-04-18T14:06:46.055+03:00,21,5.43046,0,0,19.39724,0,0,2025-04-18T14:18:35.860+03:00,766667928.8450204,0,1.740005,100.4106,1,0.3,2025-04-18T14:06:59.545+03:00,78,1.3,2025-04-18T08:51:18.885+03:00,0.03057091307199995,0
2025-04-18T14:18:49.887+03:00,1744975125.239541,40.95360023396433,29.14098414716288,93.09959,-1,-1,-1,-1,30,20.15231660333657,-9999,68726.07537612501,-0.602081298828125,0.708648681640625,-0.3428955078125,68726.065300125,1.219466123536512,-1.055136012422367,-0.800722976348346,0.01685985922813416,-0.004943210631608963,-0.003552785608917475,-0.001669585704803467,-9.894371032714844e-06,-0.00188755989074707,XArbitraryZVertical,0.01058223625858874,0.5729220011565724,-0.6165164316474271,-0.5399591371394565,-0.6056606769561768,0.7178596258163452,-0.3432967960834503,0,0,0,-1,-1,68724.95065425,unknown,2,2025-04-18T14:18:48.757+03:00,2025-04-18T14:06:46.055+03:00,21,5.43046,0,0,19.39724,0,0,2025-04-18T14:18:35.860+03:00,766667928.8450204,0,1.740005,100.4106,1,0.3,2025-04-18T14:06:59.545+03:00,78,1.3,2025-04-18T08:51:18.885+03:00,0.03057091307199995,0
2025-04-18T14:18:49.897+03:00,1744975125.239541,40.95360023396433,29.14098414716288,93.09959,-1,-1,-1,-1,30,20.15231660333657,-9999,68726.085452125,-0.60186767578125,0.7174835205078125,-0.350341796875,68726.07537612501,1.219709549641957,-1.054972315903899,-0.8005696851974865,0.02482743747532368,0.0001082071103155613,-0.003286236431449652,0.002657651901245117,-0.006998538970947266,0.003087610006332397,XArbitraryZVertical,0.01050434587014672,0.5728564957892457,-0.6165669488778777,-0.5399724363843466,-0.6057001948356628,0.7177528738975525,-0.3434501886367798,0,0,0,-1,-1,68724.95065425,unknown,2,2025-04-18T14:18:48.757+03:00,2025-04-18T14:06:46.055+03:00,21,5.43046,0,0,19.39724,0,0,2025-04-18T14:18:35.860+03:00,766667928.8450204,0,1.740005,100.4106,1,0.3,2025-04-18T14:06:59.545+03:00,78,1.3,2025-04-18T08:51:18.885+03:00,0.03057091307199995,0
2025-04-18T14:18:49.907+03:00,1744975125.239541,40.95360023396433,29.14098414716288,93.09959,-1,-1,-1,-1,30,20.15231660333657,-9999,68726.09552812501,-0.600067138671875,0.7176666259765625,-0.3462677001953125,68726.085452125,1.22004199910848,-1.054779100708843,-0.8003582114539669,0.03308802843093872,-0.006596567574888468,-0.001438268925994635,0.003577709197998047,-0.007141232490539551,-0.00215265154838562,XArbitraryZVertical,0.01038780456024577,0.5727748858669509,-0.6166359310929794,-0.5399823909878451,-0.605765700340271,0.7176055908203125,-0.3436420559883118,0,0,0,-1,-1,68724.95065425,unknown,2,2025-04-18T14:18:48.757+03:00,2025-04-18T14:06:46.055+03:00,21,5.43046,0,0,19.39724,0,0,2025-04-18T14:18:35.860+03:00,766667928.8450204,0,1.740005,100.4106,1,0.3,2025-04-18T14:06:59.545+03:00,78,1.3,2025-04-18T08:51:18.885+03:00,0.03057091307199995,0
2025-04-18T14:18:49.917+03:00,1744975125.239541,40.95360023396433,29.14098414716288,93.09959,-1,-1,-1,-1,30,20.15231660333657,-9999,68726.10560512501,-0.6056976318359375,0.703948974609375,-0.341827392578125,68726.09552812501,1.220360872173078,-1.054603725877772,-0.8001874916196557,0.01806127838790417,-0.005141282919794321,0.002305935835465789,0.005455076694488525,0.003719866275787354,-0.005632787942886353,XArbitraryZVertical,0.01028532159743019,0.5727039602713923,-0.6167051440850286,-0.5399806014706653,-0.6058120131492615,0.7174866795539856,-0.3438087701797485,0,0,0,-1,-1,68724.95065425,unknown,2,2025-04-18T14:18:48.757+03:00,2025-04-18T14:06:46.055+03:00,21,5.43046,0,0,19.39724,0,0,2025-04-18T14:18:35.860+03:00,766667928.8450204,0,1.740005,100.4106,1,0.3,2025-04-18T14:06:59.545+03:00,78,1.3,2025-04-18T08:51:18.885+03:00,0.03057091307199995,0
2025-04-18T14:18:49.927+03:00,1744975125.239541,40.95360023396433,29.14098414716288,93.09959,-1,-1,-1,-1,30,20.15231660333657,-9999,68726.11568112501,-0.603790283203125,0.7049102783203125,-0.3438720703125,68726.10560512501,1.220537893847708,-1.054564646600414,-0.8001660473491036,0.007865364663302898,-0.008324826136231422,0.002624183427542448,0.00296783447265625,-0.005481481552124023,0.0002425611019134521,XArbitraryZVertical,0.01023846666191981,0.5726911593072005,-0.6167507390869329,-0.5399429491915584,-0.6058119535446167,0.7174717783927917,-0.3438400328159332,0,0,0,-1,-1,68724.95065425,unknown,2,2025-04-18T14:18:48.757+03:00,2025-04-18T14:06:46.055+03:00,21,5.43046,0,0,19.39724,0,0,2025-04-18T14:18:35.860+03:00,766667928.8450204,0,1.740005,100.4106,1,0.3,2025-04-18T14:06:59.545+03:00,78,1.3,2025-04-18T08:51:18.885+03:00,0.03057091307199995,0
2025-04-18T14:18:49.937+03:00,1744975125.239541,40.95360023396433,29.14098414716288,93.09959,-1,-1,-1,-1,30,20.15231660333657,-9999,68726.125757125,-0.6037139892578125,0.7155609130859375,-0.344696044921875,68726.11568112501,1.220649127829858,-1.054561254802534,-0.8001681175652557,0.005271645728498697,-0.007402373477816582,0.006810772698372602,0.000386655330657959,-0.01485180854797363,0.001601964235305786,XArbitraryZVertical,0.01020846970750442,0.5726911088370614,-0.6167809372124148,-0.5399091161311991,-0.6058095097541809,0.7174732089042664,-0.3438413739204407,0,0,0,-1,-1,68724.95065425,unknown,2,2025-04-18T14:18:48.757+03:00,2025-04-18T14:06:46.055+03:00,21,5.43046,0,0,19.39724,0,0,2025-04-18T14:18:35.860+03:00,766667928.8450204,0,1.740005,100.4106,1,0.3,2025-04-18T14:06:59.545+03:00,78,1.3,2025-04-18T08:51:18.885+03:00,0.03057091307199995,0
2025-04-18T14:18:49.947+03:00,1744975125.239541,40.95360023396433,29.14098414716288,93.09959,-1,-1,-1,-1,30,20.15231660333657,-9999,68726.13583312501,-0.6034088134765625,0.7164764404296875,-0.3359222412109375,68726.125757125,1.220823593054471,-1.054510867304689,-0.8001965764852688,0.01015055645257235,-0.008299591951072216,0.003492740215733647,0.002289474010467529,-0.008432447910308838,-0.001993924379348755,XArbitraryZVertical,0.01018495286390908,0.5726825912269592,-0.616830425594712,-0.5398621077192367,-0.605774462223053,0.7174930572509766,-0.3438618183135986,0,0,0,-1,-1,68724.95065425,unknown,2,2025-04-18T14:18:48.757+03:00,2025-04-18T14:06:46.055+03:00,21,5.43046,0,0,19.39724,0,0,2025-04-18T14:18:35.860+03:00,766667928.8450204,0,1.740005,100.4106,1,0.3,2025-04-18T14:06:59.545+03:00,78,1.3,2025-04-18T08:51:18.885+03:00,0.03057091307199995,0
2025-04-18T14:18:49.958+03:00,1744975125.239541,40.95360023396433,29.14098414716288,93.09959,-1,-1,-1,-1,30,20.15231660333657,-9999,68726.145909125,-0.6083526611328125,0.712890625,-0.33837890625,68726.13583312501,1.221031263035839,-1.054397884115798,-0.8001790921340969,0.01401746645569801,-0.003271810710430145,0.00566774420440197,0.001590073108673096,-0.0001804828643798828,0.002353191375732422,XArbitraryZVertical,0.01015364166925375,0.5726505717283433,-0.6168842786910067,-0.5398350994583493,-0.6057465076446533,0.7174808382987976,-0.3439364433288574,0,0,0,-1,-1,68724.95065425,unknown,2,2025-04-18T14:18:48.757+03:00,2025-04-18T14:06:46.055+03:00,21,5.43046,0,0,19.39724,0,0,2025-04-18T14:18:35.860+03:00,766667928.8450204,0,1.740005,100.4106,1,0.3,2025-04-18T14:06:59.545+03:00,78,1.3,2025-04-18T08:51:18.885+03:00,0.03057091307199995,0
2025-04-18T14:18:49.968+03:00,1744975125.239541,40.95360023396433,29.14098414716288,93.09959,-1,-1,-1,-1,30,20.15231660333657,-9999,68726.15598512501,-0.610565185546875,0.7122955322265625,-0.34527587890625,68726.145909125,1.22124699207871,-1.054231478540714,-0.8001524389453145,0.01323423068970442,0.002199920359998941,0.00489915581420064,0.0009697079658508301,-0.002588033676147461,0.008917927742004395,XArbitraryZVertical,0.01013304579010347,0.5726027918250755,-0.6169391635907673,-0.5398235195154097,-0.6057059764862061,0.7174623012542725,-0.3440467417240143,0,0,0,-1,-1,68724.95065425,unknown,2,2025-04-18T14:18:48.757+03:00,2025-04-18T14:06:46.055+03:00,21,5.43046,0,0,19.39724,0,0,2025-04-18T14:18:35.860+03:00,766667928.8450204,0,1.740005,100.4106,1,0.3,2025-04-18T14:06:59.545+03:00,78,1.3,2025-04-18T08:51:18.885+03:00,0.03057091307199995,0
2025-04-18T14:18:49.978+03:00,1744975125.239541,40.95360023396433,29.14098414716288,93.09959,-1,-1,-1,-1,30,20.15231660333657,-9999,68726.166061125,-0.60791015625,0.712921142578125,-0.3458709716796875,68726.15598512501,1.221436512203051,-1.05407698919559,-0.8000924277229895,0.01436960231512785,0.001476672478020191,-0.0008021063986234367,-0.004066169261932373,-0.005475938320159912,0.002562999725341797,XArbitraryZVertical,0.01010349382504815,0.5725531783011968,-0.6169839437079074,-0.5398254889531955,-0.6056902408599854,0.7174204587936401,-0.3441615402698517,0,0,0,-1,-1,68724.95065425,unknown,2,2025-04-18T14:18:48.757+03:00,2025-04-18T14:06:46.055+03:00,21,5.43046,0,0,19.39724,0,0,2025-04-18T14:18:35.860+03:00,766667928.8450204,0,1.740005,100.4106,1,0.3,2025-04-18T14:06:59.545+03:00,78,1.3,2025-04-18T08:51:18.885+03:00,0.03057091307199995,0
2025-04-18T14:18:49.988+03:00,1744975125.239541,40.95360023396433,29.14098414716288,93.09959,-1,-1,-1,-1,30,20.15231660333657,-9999,68726.17613812501,-0.6052398681640625,0.7119598388671875,-0.3453521728515625,68726.166061125,1.221636131041818,-1.05391776951945,-0.8000151013636733,0.01183826848864555,-0.0009729033336043358,0.001879963092505932,-0.004439055919647217,-0.005803585052490234,-0.002470642328262329,XArbitraryZVertical,0.01006585838385986,0.5724997910102199,-0.6170298346339163,-0.539830229807705,-0.6056835055351257,0.717366635799408,-0.3442853391170502,0,0,0,-1,-1,68724.95065425,unknown,2,2025-04-18T14:18:48.757+03:00,2025-04-18T14:06:46.055+03:00,21,5.43046,0,0,19.39724,0,0,2025-04-18T14:18:35.860+03:00,766667928.8450204,0,1.740005,100.4106,1,0.3,2025-04-18T14:06:59.545+03:00,78,1.3,2025-04-18T08:51:18.885+03:00,0.03057091307199995,0
2025-04-18T14:18:49.998+03:00,1744975125.239541,40.95360023396433,29.14098414716288,93.09959,-1,-1,-1,-1,30,20.15231660333657,-9999,68726.186214,-0.606201171875,0.707611083984375,-0.3445281982421875,68726.17613812501,1.221789575301786,-1.053808189601492,-0.8000117712769107,0.008312510326504707,-0.004169495310634375,-0.00371640338562429,-0.001667022705078125,-0.002993583679199219,-0.001136600971221924,XArbitraryZVertical,0.01005452855293306,0.572470461408642,-0.6170703659195753,-0.5398153539033934,-0.6056479811668396,0.7173643112182617,-0.3443529605865479,0,0,0,-1,-1,68724.95065425,unknown,2,2025-04-18T14:18:48.757+03:00,2025-04-18T14:06:46.055+03:00,21,5.43046,0,0,19.39724,0,0,2025-04-18T14:18:35.860+03:00,766667928.8450204,0,1.740005,100.4106,1,0.3,2025-04-18T14:06:59.545+03:00,78,1.3,2025-04-18T08:51:18.885+03:00,0.03057091307199995,0
2025-04-18T14:18:50.008+03:00,1744975125.239541,40.95360023396433,29.14098414716288,93.09959,-1,-1,-1,-1,30,20.15231660333657,-9999,68726.19629000001,-0.6076507568359375,0.7162017822265625,-0.341827392578125,68726.186214,1.221865387581459,-1.053790418934027,-0.799945034684349,0.007734337355941534,-0.005426240619271994,-0.00163141475059092,0.001023530960083008,-0.008211374282836914,-0.000873267650604248,XArbitraryZVertical,0.01001282375504328,0.5724561474097607,-0.6170845135065669,-0.5398151869934406,-0.6056835055351257,0.7173178195953369,-0.344387412071228,0,0,0,-1,-1,68724.95065425,unknown,2,2025-04-18T14:18:48.757+03:00,2025-04-18T14:06:46.055+03:00,21,5.43046,0,0,19.39724,0,0,2025-04-18T14:18:35.860+03:00,766667928.8450204,0,1.740005,100.4106,1,0.3,2025-04-18T14:06:59.545+03:00,78,1.3,2025-04-18T08:51:18.885+03:00,0.03057091307199995,0
2025-04-18T14:18:50.018+03:00,1744975125.239541,40.95360023396433,29.14098414716288,93.09959,-1,-1,-1,-1,30,20.15231660333657,-9999,68726.206366,-0.6081390380859375,0.7137298583984375,-0.3437347412109375,68726.19629000001,1.221930236157162,-1.053772096139558,-0.7998388598816176,0.004758987110108137,0.000479518435895443,-0.002148234285414219,-0.001220583915710449,-0.007298111915588379,0.0009302198886871338,XArbitraryZVertical,0.009959361861181935,0.5724357780965151,-0.6170920226264838,-0.5398292619593559,-0.6057434678077698,0.7172437906265259,-0.3444361686706543,0,0,0,-1,-1,68724.95065425,unknown,2,2025-04-18T14:18:48.757+03:00,2025-04-18T14:06:46.055+03:00,21,5.43046,0,0,19.39724,0,0,2025-04-18T14:18:35.860+03:00,766667928.8450204,0,1.740005,100.4106,1,0.3,2025-04-18T14:06:59.545+03:00,78,1.3,2025-04-18T08:51:18.885+03:00,0.03057091307199995,0
2025-04-18T14:18:50.028+03:00,1744975125.239541,40.95360023396433,29.14098414716288,93.09959,-1,-1,-1,-1,30,20.15231660333657,-9999,68726.216442,-0.6080169677734375,0.7108306884765625,-0.349090576171875,68726.206366,1.222024773122197,-1.053669354483902,-0.7997630502095057,0.005208262242376804,0.00428490899503231,-0.001310137566179037,-0.001727581024169922,-0.0004856586456298828,0.003170818090438843,XArbitraryZVertical,0.009935032478664903,0.5723972791303136,-0.6171099661701467,-0.5398500285354865,-0.6057553887367249,0.7171909809112549,-0.3445253074169159,0,0,0,-1,-1,68724.95065425,unknown,2,2025-04-18T14:18:48.757+03:00,2025-04-18T14:06:46.055+03:00,21,5.43046,0,0,19.39724,0,0,2025-04-18T14:18:35.860+03:00,766667928.8450204,0,1.740005,100.4106,1,0.3,2025-04-18T14:06:59.545+03:00,78,1.3,2025-04-18T08:51:18.885+03:00,0.03057091307199995,0
2025-04-18T14:18:50.038+03:00,1744975125.239541,40.95360023396433,29.14098414716288,93.09959,-1,-1,-1,-1,30,20.15231660333657,-9999,68726.22651800001,-0.6065826416015625,0.7129058837890625,-0.3484039306640625,68726.216442,1.222119310964703,-1.053549256356771,-0.7997339383832897,0.009610000997781754,0.006814179942011833,0.00178475514985621,-0.0022849440574646,-0.00543975830078125,-0.00162893533706665,XArbitraryZVertical,0.009933850976245594,0.5723610459032291,-0.6171322001896253,-0.539862914257713,-0.6057320237159729,0.7171707153320312,-0.3446083068847656,0,0,0,-1,-1,68724.95065425,unknown,2,2025-04-18T14:18:48.757+03:00,2025-04-18T14:06:46.055+03:00,21,5.43046,0,0,19.39724,0,0,2025-04-18T14:18:35.860+03:00,766667928.8450204,0,1.740005,100.4106,1,0.3,2025-04-18T14:06:59.545+03:00,78,1.3,2025-04-18T08:51:18.885+03:00,0.03057091307199995,0
2025-04-18T14:18:50.048+03:00,1744975125.239541,40.95360023396433,29.14098414716288,93.09959,-1,-1,-1,-1,30,20.15231660333657,-9999,68726.236594,-0.6063079833984375,0.7130126953125,-0.346099853515625,68726.22651800001,1.222190016785053,-1.053474922718231,-0.7997047229334924,0.01062040403485298,0.003677242435514927,-0.001467230962589383,-0.000842750072479248,-0.006197631359100342,-0.004320144653320312,XArbitraryZVertical,0.009925365488189565,0.5723370116596762,-0.6171482060361725,-0.5398702013315724,-0.605724573135376,0.7171503305435181,-0.3446636497974396,0,0,0,-1,-1,68724.95065425,unknown,2,2025-04-18T14:18:48.757+03:00,2025-04-18T14:06:46.055+03:00,21,5.43046,0,0,19.39724,0,0,2025-04-18T14:18:35.860+03:00,766667928.8450204,0,1.740005,100.4106,1,0.3,2025-04-18T14:06:59.545+03:00,78,1.3,2025-04-18T08:51:18.885+03:00,0.03057091307199995,0
2025-04-18T14:18:50.058+03:00,1744975125.239541,40.95360023396433,29.14098414716288,93.09959,-1,-1,-1,-1,30,20.15231660333657,-9999,68726.246671,-0.6090545654296875,0.7086029052734375,-0.3383941650390625,68726.236594,1.222264969378553,-1.053399237653169,-0.7996312923309864,0.01118772476911545,0.005748449359089136,0.001997708110138774,-0.0007314682006835938,-0.003750860691070557,-0.003622621297836304,XArbitraryZVertical,0.009899223483161329,0.5723060521099269,-0.6171612210602752,-0.5398886678045743,-0.6057442426681519,0.7170991897583008,-0.3447355628013611,0,0,0,-1,-1,68724.95065425,unknown,2,2025-04-18T14:18:48.757+03:00,2025-04-18T14:06:46.055+03:00,21,5.43046,0,0,19.39724,0,0,2025-04-18T14:18:35.860+03:00,766667928.8450204,0,1.740005,100.4106,1,0.3,2025-04-18T14:06:59.545+03:00,78,1.3,2025-04-18T08:51:18.885+03:00,0.03057091307199995,0
2025-04-18T14:18:50.068+03:00,1744975125.239541,40.95360023396433,29.14098414716288,93.09959,-1,-1,-1,-1,30,20.15231660333657,-9999,68726.25674700001,-0.61273193359375,0.7102508544921875,-0.3407135009765625,68726.246671,1.222432786662183,-1.053182035187564,-0.7995434640763258,0.01247749291360378,0.01362181827425957,0.002794525818899274,-0.001026332378387451,-0.00584113597869873,0.002414673566818237,XArbitraryZVertical,0.009884617145946481,0.5722352416487219,-0.6171972956641255,-0.5399226442362555,-0.605724036693573,0.7170379161834717,-0.3448982536792755,0,0,0,-1,-1,68724.95065425,unknown,2,2025-04-18T14:18:48.757+03:00,2025-04-18T14:06:46.055+03:00,21,5.43046,0,0,19.39724,0,0,2025-04-18T14:18:35.860+03:00,766667928.8450204,0,1.740005,100.4106,1,0.3,2025-04-18T14:06:59.545+03:00,78,1.3,2025-04-18T08:51:18.885+03:00,0.03057091307199995,0
2025-04-18T14:18:50.078+03:00,1744975125.239541,40.95360023396433,29.14098414716288,93.09959,-1,-1,-1,-1,30,20.15231660333657,-9999,68726.266823,-0.6072998046875,0.7090911865234375,-0.3449859619140625,68726.25674700001,1.222594157320136,-1.052947940441047,-0.7994801801012529,0.01623042114078999,0.01027236133813858,0.002167218364775181,-0.005218029022216797,-0.008436799049377441,0.006241053342819214,XArbitraryZVertical,0.009886509984056968,0.5721634439079314,-0.617233816399362,-0.539956962951561,-0.6056826710700989,0.7169938087463379,-0.3450624942779541,0,0,0,-1,-1,68724.95065425,unknown,2,2025-04-18T14:18:48.757+03:00,2025-04-18T14:06:46.055+03:00,21,5.43046,0,0,19.39724,0,0,2025-04-18T14:18:35.860+03:00,766667928.8450204,0,1.740005,100.4106,1,0.3,2025-04-18T14:06:59.545+03:00,78,1.3,2025-04-18T08:51:18.885+03:00,0.03057091307199995,0
2025-04-18T14:18:50.089+03:00,1744975125.239541,40.95360023396433,29.14098414716288,93.09959,-1,-1,-1,-1,30,20.15231660333657,-9999,68726.276899,-0.6028594970703125,0.7109832763671875,-0.3482818603515625,68726.266823,1.222761282212716,-1.052743848422122,-0.7993983075478809,0.01022845413535833,0.005848051514476538,0.001727530499920249,-0.005573093891143799,-0.006151854991912842,0.002060294151306152,XArbitraryZVertical,0.009870482169779567,0.5720969616530673,-0.6172702851028317,-0.5399862168547246,-0.6056634187698364,0.7169367671012878,-0.3452152907848358,0,0,0,-1,-1,68724.95065425,unknown,2,2025-04-18T14:18:48.757+03:00,2025-04-18T14:06:46.055+03:00,21,5.43046,0,0,19.39724,0,0,2025-04-18T14:18:35.860+03:00,766667928.8450204,0,1.740005,100.4106,1,0.3,2025-04-18T14:06:59.545+03:00,78,1.3,2025-04-18T08:51:18.885+03:00,0.03057091307199995,0
2025-04-18T14:18:50.099+03:00,1744975125.239541,40.95360023396433,29.14098414716288,93.09959,-1,-1,-1,-1,30,20.15231660333657,-9999,68726.28697500001,-0.60260009765625,0.709716796875,-0.347198486328125,68726.276899,1.222865193260661,-1.052620548227796,-0.7993414579086358,0.005303536541759968,0.002860051346942782,0.002362461294978857,0.001240432262420654,-0.008568882942199707,-0.001201748847961426,XArbitraryZVertical,0.009857091718290353,0.5720557344984107,-0.6172924490841181,-0.5400048143285301,-0.6056562662124634,0.7168971300125122,-0.3453101515769958,0,0,0,-1,-1,68724.95065425,unknown,2,2025-04-18T14:18:48.757+03:00,2025-04-18T14:06:46.055+03:00,21,5.43046,0,0,19.39724,0,0,2025-04-18T14:18:35.860+03:00,766667928.8450204,0,1.740005,100.4106,1,0.3,2025-04-18T14:06:59.545+03:00,78,1.3,2025-04-18T08:51:18.885+03:00,0.03057091307199995,0
2025-04-18T14:18:50.108+03:00,1744975125.239541,40.95360023396433,29.14098414716288,93.09959,-1,-1,-1,-1,30,20.15231660333657,-9999,68726.297051,-0.60260009765625,0.705596923828125,-0.3451080322265625,68726.28697500001,1.222905261798528,-1.052612636416721,-0.7993451548147256,0.000279483589110896,-0.0009144465439021587,0.003485249821096659,0.002684831619262695,-0.004619479179382324,-0.003166675567626953,XArbitraryZVertical,0.009849431204654934,0.5720543751275572,-0.6173035944933631,-0.5399935206429892,-0.6056511402130127,0.7168996930122375,-0.345313549041748,0,0,0,-1,-1,68724.95065425,unknown,2,2025-04-18T14:18:48.757+03:00,2025-04-18T14:06:46.055+03:00,21,5.43046,0,0,19.39724,0,0,2025-04-18T14:18:35.860+03:00,766667928.8450204,0,1.740005,100.4106,1,0.3,2025-04-18T14:06:59.545+03:00,78,1.3,2025-04-18T08:51:18.885+03:00,0.03057091307199995,0
2025-04-18T14:18:50.119+03:00,1744975125.239541,40.95360023396433,29.14098414716288,93.09959,-1,-1,-1,-1,30,20.15231660333657,-9999,68726.30712700001,-0.6047210693359375,0.7110595703125,-0.3421783447265625,68726.297051,1.222895099973199,-1.052617955234143,-0.7993592743004041,-0.005886733066290617,0.0005732616409659386,0.004502344876527786,0.003059446811676025,-0.009573221206665039,-0.0008251368999481201,XArbitraryZVertical,0.009856076766280076,0.5720578679661731,-0.6173021950281862,-0.5399912603923576,-0.605644166469574,0.7169095277786255,-0.3453052937984467,0,0,0,-1,-1,68724.95065425,unknown,2,2025-04-18T14:18:48.757+03:00,2025-04-18T14:06:46.055+03:00,21,5.43046,0,0,19.39724,0,0,2025-04-18T14:18:35.860+03:00,766667928.8450204,0,1.740005,100.4106,1,0.3,2025-04-18T14:06:59.545+03:00,78,1.3,2025-04-18T08:51:18.885+03:00,0.03057091307199995,0
2025-04-18T14:18:50.129+03:00,1744975125.239541,40.95360023396433,29.14098414716288,93.09959,-1,-1,-1,-1,30,20.15231660333657,-9999,68726.31720400001,-0.6043548583984375,0.7173919677734375,-0.3401947021484375,68726.30712700001,1.222868086882358,-1.052621560328346,-0.7994012438174488,-0.01117976568639278,-0.001175103709101677,0.006354306824505329,0.002103805541992188,-0.01115882396697998,0.001294136047363281,XArbitraryZVertical,0.009878803799354444,0.5720649046354711,-0.6172987879717452,-0.5399874598638776,-0.6056194305419922,0.7169387936592102,-0.3452883064746857,0,0,0,-1,-1,68724.95065425,unknown,2,2025-04-18T14:18:48.757+03:00,2025-04-18T14:06:46.055+03:00,21,5.43046,0,0,19.39724,0,0,2025-04-18T14:18:35.860+03:00,766667928.8450204,0,1.740005,100.4106,1,0.3,2025-04-18T14:06:59.545+03:00,78,1.3,2025-04-18T08:51:18.885+03:00,0.03057091307199995,0
2025-04-18T14:18:50.139+03:00,1744975125.239541,40.95360023396433,29.14098414716288,93.09959,-1,-1,-1,-1,30,20.15231660333657,-9999,68726.32728,-0.6085052490234375,0.71435546875,-0.341094970703125,68726.31720400001,1.222780650607735,-1.052662764458937,-0.7994902285626533,-0.0122092105448246,0.002366767497733235,0.006530541460961103,0.0006587505340576172,-0.002614915370941162,0.004289299249649048,XArbitraryZVertical,0.009925063740107976,0.5720888404880407,-0.61728366805646,-0.5399784316322092,-0.6055781245231628,0.7170008420944214,-0.3452317118644714,0,0,0,-1,-1,68724.95065425,unknown,2,2025-04-18T14:18:48.757+03:00,2025-04-18T14:06:46.055+03:00,21,5.43046,0,0,19.39724,0,0,2025-04-18T14:18:35.860+03:00,766667928.8450204,0,1.740005,100.4106,1,0.3,2025-04-18T14:06:59.545+03:00,78,1.3,2025-04-18T08:51:18.885+03:00,0.03057091307199995,0
2025-04-18T14:18:50.149+03:00,1744975125.239541,40.95360023396433,29.14098414716288,93.09959,-1,-1,-1,-1,30,20.15231660333657,-9999,68726.337356,-0.6107635498046875,0.718353271484375,-0.3460235595703125,68726.32728,1.222664152536818,-1.052714039134423,-0.799572460408466,-0.009872552938759327,0.005695718806236982,0.006434667855501175,-0.0001376867294311523,-0.0003223419189453125,0.005739688873291016,XArbitraryZVertical,0.009973997819054415,0.5721143156570266,-0.6172601067819929,-0.5399774840217195,-0.6055445671081543,0.7170581817626953,-0.3451714515686035,0,0,0,-1,-1,68724.95065425,unknown,2,2025-04-18T14:18:48.757+03:00,2025-04-18T14:06:46.055+03:00,21,5.43046,0,0,19.39724,0,0,2025-04-18T14:18:35.860+03:00,766667928.8450204,0,1.740005,100.4106,1,0.3,2025-04-18T14:06:59.545+03:00,78,1.3,2025-04-18T08:51:18.885+03:00,0.03057091307199995,0
2025-04-18T14:18:50.159+03:00,1744975125.239541,40.95360023396433,29.14098414716288,93.09959,-1,-1,-1,-1,30,20.15231660333657,-9999,68726.34743200001,-0.611480712890625,0.721466064453125,-0.350921630859375,68726.337356,1.222605808831048,-1.052737398716771,-0.7996055189944544,0.000855059246532619,0.009008292108774185,0.007526630070060492,-0.00489574670791626,-0.002771556377410889,0.002326309680938721,XArbitraryZVertical,0.009996107206309654,0.5721252439836674,-0.617247545208874,-0.5399798392964178,-0.6055320501327515,0.7170811891555786,-0.3451455533504486,0,0,0,-1,-1,68724.95065425,unknown,2,2025-04-18T14:18:48.757+03:00,2025-04-18T14:06:46.055+03:00,21,5.43046,0,0,19.39724,0,0,2025-04-18T14:18:35.860+03:00,766667928.8450204,0,1.740005,100.4106,1,0.3,2025-04-18T14:06:59.545+03:00,78,1.3,2025-04-18T08:51:18.885+03:00,0.03057091307199995,0
2025-04-18T14:18:50.169+03:00,1744975125.239541,40.95360023396433,29.14098414716288,93.09959,-1,-1,-1,-1,30,20.15231660333657,-9999,68726.357508,-0.6092987060546875,0.7182159423828125,-0.3529052734375,68726.34743200001,1.22267228334068,-1.052587741152383,-0.7996180846290526,0.001690759207122028,0.01337694097310305,0.01107475906610489,-0.005748629570007324,0.002728164196014404,-0.00274503231048584,XArbitraryZVertical,0.01002811688081278,0.5720870176610198,-0.6172658971829801,-0.5399988487517448,-0.6054726243019104,0.7170899510383606,-0.3452317714691162,0,0,0,-1,-1,68724.95065425,unknown,2,2025-04-18T14:18:48.757+03:00,2025-04-18T14:06:46.055+03:00,21,5.43046,0,0,19.39724,0,0,2025-04-18T14:18:35.860+03:00,766667928.8450204,0,1.740005,100.4106,1,0.3,2025-04-18T14:06:59.545+03:00,78,1.3,2025-04-18T08:51:18.885+03:00,0.03057091307199995,0
2025-04-18T14:18:50.179+03:00,1744975125.239541,40.95360023396433,29.14098414716288,93.09959,-1,-1,-1,-1,30,20.15231660333657,-9999,68726.36758400001,-0.6046600341796875,0.72119140625,-0.3499603271484375,68726.357508,1.222858830791699,-1.052309263917255,-0.7996402678873209,0.01300912722945213,0.01532657444477081,0.01115608680993319,-0.005385637283325195,0.002819478511810303,-0.007039785385131836,XArbitraryZVertical,0.01006918099521177,0.5720160650811321,-0.6173169290591688,-0.540014892041456,-0.6053626537322998,0.7171053886413574,-0.3453924655914307,0,0,0,-1,-1,68724.95065425,unknown,2,2025-04-18T14:18:48.757+03:00,2025-04-18T14:06:46.055+03:00,21,5.43046,0,0,19.39724,0,0,2025-04-18T14:18:35.860+03:00,766667928.8450204,0,1.740005,100.4106,1,0.3,2025-04-18T14:06:59.545+03:00,78,1.3,2025-04-18T08:51:18.885+03:00,0.03057091307199995,0
2025-04-18T14:18:50.189+03:00,1744975125.239541,40.95360023396433,29.14098414716288,93.09959,-1,-1,-1,-1,30,20.15231660333657,-9999,68726.37766,-0.600006103515625,0.726287841796875,-0.3447113037109375,68726.36758400001,1.223166098510741,-1.051925653715045,-0.7996482252635259,0.01843238808214664,0.01522377692162991,0.01449462492018938,-0.003005445003509521,0.0009523630142211914,-0.006566345691680908,XArbitraryZVertical,0.0101027287345092,0.5719152366722474,-0.6173987114277805,-0.5400274842936647,-0.6052250862121582,0.7171109914779663,-0.345621794462204,0,0,0,-1,-1,68724.95065425,unknown,2,2025-04-18T14:18:48.757+03:00,2025-04-18T14:06:46.055+03:00,21,5.43046,0,0,19.39724,0,0,2025-04-18T14:18:35.860+03:00,766667928.8450204,0,1.740005,100.4106,1,0.3,2025-04-18T14:06:59.545+03:00,78,1.3,2025-04-18T08:51:18.885+03:00,0.03057091307199995,0
2025-04-18T14:18:50.199+03:00,1744975125.239541,40.95360023396433,29.14098414716288,93.09959,-1,-1,-1,-1,30,20.15231660333657,-9999,68726.387736,-0.60113525390625,0.71875,-0.3411407470703125,68726.37766,1.223507671122978,-1.051524539261147,-0.7996156648061806,0.02157911285758018,0.01804639399051666,0.01091490406543016,0.002079427242279053,0.007200658321380615,-0.001597046852111816,XArbitraryZVertical,0.01011647670967979,0.5718037968264039,-0.6174858884817375,-0.5400456250108405,-0.6051067113876343,0.7170882821083069,-0.345876157283783,0,0,0,-1,-1,68724.95065425,unknown,2,2025-04-18T14:18:48.757+03:00,2025-04-18T14:06:46.055+03:00,21,5.43046,0,0,19.39724,0,0,2025-04-18T14:18:35.860+03:00,766667928.8450204,0,1.740005,100.4106,1,0.3,2025-04-18T14:06:59.545+03:00,78,1.3,2025-04-18T08:51:18.885+03:00,0.03057091307199995,0
2025-04-18T14:18:50.209+03:00,1744975125.239541,40.95360023396433,29.14098414716288,93.09959,-1,-1,-1,-1,30,20.15231660333657,-9999,68726.397813,-0.6032562255859375,0.717926025390625,-0.3400421142578125,68726.387736,1.22385261717804,-1.051051808577606,-0.7995710431441765,0.02221054770052433,0.02643215656280518,0.01264728978276253,0.005086958408355713,0.007430136203765869,0.002992570400238037,XArbitraryZVertical,0.0101467802344401,0.5716712447981812,-0.6175725115413601,-0.5400863468910373,-0.6049709320068359,0.7170571684837341,-0.3461780548095703,0,0,0,-1,-1,68724.95065425,unknown,2,2025-04-18T14:18:48.757+03:00,2025-04-18T14:06:46.055+03:00,21,5.43046,0,0,19.39724,0,0,2025-04-18T14:18:35.860+03:00,766667928.8450204,0,1.740005,100.4106,1,0.3,2025-04-18T14:06:59.545+03:00,78,1.3,2025-04-18T08:51:18.885+03:00,0.03057091307199995,0
2025-04-18T14:18:50.219+03:00,1744975125.239541,40.95360023396433,29.14098414716288,93.09959,-1,-1,-1,-1,30,20.15231660333657,-9999,68726.40788900001,-0.6035614013671875,0.7168121337890625,-0.339813232421875,68726.397813,1.224156525911507,-1.050605877141096,-0.7995677382270621,0.01587482169270515,0.02536975592374802,0.01138212159276009,0.002371132373809814,-0.000303804874420166,0.005888044834136963,XArbitraryZVertical,0.01019637401605439,0.5715518681215729,-0.6176520056099588,-0.5401208745513014,-0.60481858253479,0.7170548439025879,-0.3464489877223969,0,0,0,-1,-1,68724.95065425,unknown,2,2025-04-18T14:18:48.757+03:00,2025-04-18T14:06:46.055+03:00,21,5.43046,0,0,19.39724,0,0,2025-04-18T14:18:35.860+03:00,766667928.8450204,0,1.740005,100.4106,1,0.3,2025-04-18T14:06:59.545+03:00,78,1.3,2025-04-18T08:51:18.885+03:00,0.03057091307199995,0
2025-04-18T14:18:50.230+03:00,1744975125.239541,40.95360023396433,29.14098414716288,93.09959,-1,-1,-1,-1,30,20.15231660333657,-9999,68726.417965,-0.60870361328125,0.707244873046875,-0.3408355712890625,68726.40788900001,1.224370622929976,-1.050181643578848,-0.7996184484427198,0.007153768092393875,0.03439147770404816,0.01197520736604929,0.001215875148773193,0.001110374927520752,0.006965667009353638,XArbitraryZVertical,0.01028552500339133,0.571445993942958,-0.617712362161124,-0.5401620055095963,-0.6046398282051086,0.7170901894569397,-0.346687376499176,0,0,0,-1,-1,68724.95065425,unknown,2,2025-04-18T14:18:48.757+03:00,2025-04-18T14:06:46.055+03:00,21,5.43046,0,0,19.39724,0,0,2025-04-18T14:18:35.860+03:00,766667928.8450204,0,1.740005,100.4106,1,0.3,2025-04-18T14:06:59.545+03:00,78,1.3,2025-04-18T08:51:18.885+03:00,0.03057091307199995,0
2025-04-18T14:18:50.247+03:00,1744975125.239541,40.95360023396433,29.14098414716288,93.09959,-1,-1,-1,-1,30,20.15231660333657,-9999,68726.42804100001,-0.605133056640625,0.7045745849609375,-0.3410797119140625,68726.417965,1.224470781937798,-1.049799017422694,-0.7996994541382048,-0.0002001517277676612,0.0343194417655468,0.01504336949437857,-0.0001574158668518066,-0.003142237663269043,0.006527215242385864,XArbitraryZVertical,0.01040606231045374,0.5713552460455519,-0.6177448933999133,-0.5402185152502805,-0.6044567823410034,0.7171466946601868,-0.3468897938728333,0,0,0,-1,-1,68724.95065425,unknown,2,2025-04-18T14:18:48.757+03:00,2025-04-18T14:06:46.055+03:00,21,5.43046,0,0,19.39724,0,0,2025-04-18T14:18:35.860+03:00,766667928.8450204,0,1.740005,100.4106,1,0.3,2025-04-18T14:06:59.545+03:00,78,1.3,2025-04-18T08:51:18.885+03:00,0.03057091307199995,0
2025-04-18T14:18:50.252+03:00,1744975125.239541,40.95360023396433,29.14098414716288,93.09959,-1,-1,-1,-1,30,20.15231660333657,-9999,68726.438117,-0.5982208251953125,0.712890625,-0.3439788818359375,68726.42804100001,1.22455862420618,-1.049429471673823,-0.7998283840674573,0.0002834783226717263,0.0280719306319952,0.01746844314038754,-0.004424571990966797,-0.01220422983169556,0.006551951169967651,XArbitraryZVertical,0.01054440580258484,0.5712751215904572,-0.6177785464945089,-0.5402621090623433,-0.6042484045028687,0.7172365188598633,-0.3470670878887177,0,0,0,-1,-1,68724.95065425,unknown,2,2025-04-18T14:18:48.757+03:00,2025-04-18T14:06:46.055+03:00,21,5.43046,0,0,19.39724,0,0,2025-04-18T14:18:35.860+03:00,766667928.8450204,0,1.740005,100.4106,1,0.3,2025-04-18T14:06:59.545+03:00,78,1.3,2025-04-18T08:51:18.885+03:00,0.03057091307199995,0
2025-04-18T14:18:50.260+03:00,1744975125.239541,40.95360023396433,29.14098414716288,93.09959,-1,-1,-1,-1,30,20.15231660333657,-9999,68726.448193,-0.5974273681640625,0.718109130859375,-0.345550537109375,68726.438117,1.22468875405992,-1.049075921627824,-0.7999307261515598,0.003958174493163824,0.02072327211499214,0.01379278115928173,0.002026557922363281,-0.01016980409622192,0.005721867084503174,XArbitraryZVertical,0.01065558937491121,0.5711955721313413,-0.6178212250763399,-0.5402952832295386,-0.604062020778656,0.7173078060150146,-0.3472441434860229,0,0,0,-1,-1,68724.95065425,unknown,2,2025-04-18T14:18:48.757+03:00,2025-04-18T14:06:46.055+03:00,21,5.43046,0,0,19.39724,0,0,2025-04-18T14:18:35.860+03:00,766667928.8450204,0,1.740005,100.4106,1,0.3,2025-04-18T14:06:59.545+03:00,78,1.3,2025-04-18T08:51:18.885+03:00,0.03057091307199995,0
2025-04-18T14:18:50.270+03:00,1744975125.239541,40.95360023396433,29.14098414716288,93.09959,-1,-1,-1,-1,30,20.15231660333657,-9999,68726.45826900001,-0.5976104736328125,0.70953369140625,-0.34893798828125,68726.448193,1.224882548861922,-1.048746733769902,-0.7999909509443875,0.004373627714812756,0.01587578654289246,0.01183908618986607,0.006223499774932861,-0.0007666349411010742,0.001809805631637573,XArbitraryZVertical,0.01072492546491387,0.5711166922434955,-0.6178773640214142,-0.5403130150521007,-0.6039102077484131,0.7173497676849365,-0.347421407699585,0,0,0,-1,-1,68724.95065425,unknown,2,2025-04-18T14:18:48.757+03:00,2025-04-18T14:06:46.055+03:00,21,5.43046,0,0,19.39724,0,0,2025-04-18T14:18:35.860+03:00,766667928.8450204,0,1.740005,100.4106,1,0.3,2025-04-18T14:06:59.545+03:00,78,1.3,2025-04-18T08:51:18.885+03:00,0.03057091307199995,0
2025-04-18T14:18:50.280+03:00,1744975125.239541,40.95360023396433,29.14098414716288,93.09959,-1,-1,-1,-1,30,20.15231660333657,-9999,68726.46834600001,-0.59918212890625,0.709381103515625,-0.34857177734375,68726.45826900001,1.225006845719574,-1.048545842106891,-0.8001265185966051,0.001423577661626041,0.006510446313768625,0.0113208033144474,0.006313562393188477,-0.001776576042175293,0.0007687509059906006,XArbitraryZVertical,0.01080331332698564,0.5710833487514477,-0.6179222999975316,-0.5402952991431632,-0.6037560701370239,0.7174442410469055,-0.3474941849708557,0,0,0,-1,-1,68724.95065425,unknown,2,2025-04-18T14:18:48.757+03:00,2025-04-18T14:06:46.055+03:00,21,5.43046,0,0,19.39724,0,0,2025-04-18T14:18:35.860+03:00,766667928.8450204,0,1.740005,100.4106,1,0.3,2025-04-18T14:06:59.545+03:00,78,1.3,2025-04-18T08:51:18.885+03:00,0.03057091307199995,0
2025-04-18T14:18:50.290+03:00,1744975125.239541,40.95360023396433,29.14098414716288,93.09959,-1,-1,-1,-1,30,20.15231660333657,-9999,68726.478422,-0.6027984619140625,0.710174560546875,-0.3394927978515625,68726.46834600001,1.225058009957175,-1.048444924703034,-0.8002874292929892,-0.005518218036741018,0.008648165501654148,0.009673637337982655,0.005186617374420166,-0.008831381797790527,-0.003347814083099365,XArbitraryZVertical,0.01088142607963986,0.5710803905696603,-0.6179503109424902,-0.5402649084705813,-0.6036210060119629,0.7175562977790833,-0.3474975526332855,0,0,0,-1,-1,68724.95065425,unknown,2,2025-04-18T14:18:48.757+03:00,2025-04-18T14:06:46.055+03:00,21,5.43046,0,0,19.39724,0,0,2025-04-18T14:18:35.860+03:00,766667928.8450204,0,1.740005,100.4106,1,0.3,2025-04-18T14:06:59.545+03:00,78,1.3,2025-04-18T08:51:18.885+03:00,0.03057091307199995,0
2025-04-18T14:18:50.300+03:00,1744975125.239541,40.95360023396433,29.14098414716288,93.09959,-1,-1,-1,-1,30,20.15231660333657,-9999,68726.48849800001,-0.604156494140625,0.711883544921875,-0.3345794677734375,68726.478422,1.224998655510967,-1.048443329546464,-0.80042490784636,-0.01558962743729353,0.004146491177380085,0.01092112902551889,0.002247214317321777,-0.00694352388381958,0.002142816781997681,XArbitraryZVertical,0.0109513936996981,0.5711001911294195,-0.6179468773040695,-0.5402464349291707,-0.6035349369049072,0.7176520824432373,-0.3474492728710175,0,0,0,-1,-1,68724.95065425,unknown,2,2025-04-18T14:18:48.757+03:00,2025-04-18T14:06:46.055+03:00,21,5.43046,0,0,19.39724,0,0,2025-04-18T14:18:35.860+03:00,766667928.8450204,0,1.740005,100.4106,1,0.3,2025-04-18T14:06:59.545+03:00,78,1.3,2025-04-18T08:51:18.885+03:00,0.03057091307199995,0
2025-04-18T14:18:50.310+03:00,1744975125.239541,40.95360023396433,29.14098414716288,93.09959,-1,-1,-1,-1,30,20.15231660333657,-9999,68726.498574,-0.608489990234375,0.711151123046875,-0.3365478515625,68726.48849800001,1.22475454159615,-1.048595876514066,-0.8006293119663268,-0.02246217988431454,0.00832738820463419,0.006898690480738878,0.0002657175064086914,-0.007528305053710938,0.01026314496994019,XArbitraryZVertical,0.01105213953162878,0.5711705651627962,-0.6179004970380199,-0.5402231143540046,-0.6034608483314514,0.7177944183349609,-0.3472840785980225,0,0,0,-1,-1,68724.95065425,unknown,2,2025-04-18T14:18:48.757+03:00,2025-04-18T14:06:46.055+03:00,21,5.43046,0,0,19.39724,0,0,2025-04-18T14:18:35.860+03:00,766667928.8450204,0,1.740005,100.4106,1,0.3,2025-04-18T14:06:59.545+03:00,78,1.3,2025-04-18T08:51:18.885+03:00,0.03057091307199995,0
2025-04-18T14:18:50.320+03:00,1744975125.239541,40.95360023396433,29.14098414716288,93.09959,-1,-1,-1,-1,30,20.15231660333657,-9999,68726.50865,-0.6068878173828125,0.7171173095703125,-0.3481903076171875,68726.498574,1.224511414025449,-1.0486846903918,-0.8007629993871976,-0.01682726480066776,0.01091724541038275,0.004006597213447094,-0.002060234546661377,-0.005683541297912598,0.01371699571609497,XArbitraryZVertical,0.01114522004230659,0.571213173465685,-0.6178475826565369,-0.5402366202256437,-0.6034084558486938,0.7178874611854553,-0.3471826016902924,0,0,0,-1,-1,68724.95065425,unknown,2,2025-04-18T14:18:48.757+03:00,2025-04-18T14:06:46.055+03:00,21,5.43046,0,0,19.39724,0,0,2025-04-18T14:18:35.860+03:00,766667928.8450204,0,1.740005,100.4106,1,0.3,2025-04-18T14:06:59.545+03:00,78,1.3,2025-04-18T08:51:18.885+03:00,0.03057091307199995,0
2025-04-18T14:18:50.330+03:00,1744975125.239541,40.95360023396433,29.14098414716288,93.09959,-1,-1,-1,-1,30,20.15231660333657,-9999,68726.51872600001,-0.60247802734375,0.718505859375,-0.3525238037109375,68726.50865,1.224290505025404,-1.048767254824639,-0.8008041584417253,-0.008678791113197803,0.01515593286603689,0.002791929291561246,-0.005459904670715332,-0.005101799964904785,0.005748331546783447,XArbitraryZVertical,0.01119854600195256,0.571240382100604,-0.6177921443183876,-0.5402701526509097,-0.6034114956855774,0.7179161310195923,-0.3471180498600006,0,0,0,-1,-1,68724.95065425,unknown,2,2025-04-18T14:18:48.757+03:00,2025-04-18T14:06:46.055+03:00,21,5.43046,0,0,19.39724,0,0,2025-04-18T14:18:35.860+03:00,766667928.8450204,0,1.740005,100.4106,1,0.3,2025-04-18T14:06:59.545+03:00,78,1.3,2025-04-18T08:51:18.885+03:00,0.03057091307199995,0
2025-04-18T14:18:50.340+03:00,1744975125.239541,40.95360023396433,29.14098414716288,93.09959,-1,-1,-1,-1,30,20.15231660333657,-9999,68726.528802,-0.5988616943359375,0.7261199951171875,-0.350830078125,68726.51872600001,1.224267268769495,-1.048663027284552,-0.8008181382231309,0.006032910197973251,0.01216693408787251,0.005286312662065029,-0.001018643379211426,0.0005189776420593262,-0.003867834806442261,XArbitraryZVertical,0.01124276817189504,0.5712141552566564,-0.617786545726129,-0.5403034762642037,-0.6033667325973511,0.7179258465766907,-0.3471759855747223,0,0,0,-1,-1,68724.95065425,unknown,2,2025-04-18T14:18:48.757+03:00,2025-04-18T14:06:46.055+03:00,21,5.43046,0,0,19.39724,0,0,2025-04-18T14:18:35.860+03:00,766667928.8450204,0,1.740005,100.4106,1,0.3,2025-04-18T14:06:59.545+03:00,78,1.3,2025-04-18T08:51:18.885+03:00,0.03057091307199995,0
2025-04-18T14:18:50.351+03:00,1744975125.239541,40.95360023396433,29.14098414716288,93.09959,-1,-1,-1,-1,30,20.15231660333657,-9999,68726.538879,-0.5930023193359375,0.716064453125,-0.3416900634765625,68726.528802,1.22443037254341,-1.048453015552061,-0.8008604723933899,0.007596451789140701,0.006008374039083719,0.009120731614530087,0.001262426376342773,0.002747774124145508,-0.006151914596557617,XArbitraryZVertical,0.01127720297585504,0.5711646779921884,-0.6178333241792061,-0.5403014761825354,-0.6032673716545105,0.7179553508758545,-0.3472874760627747,0,0,0,-1,-1,68724.95065425,unknown,2,2025-04-18T14:18:48.757+03:00,2025-04-18T14:06:46.055+03:00,21,5.43046,0,0,19.39724,0,0,2025-04-18T14:18:35.860+03:00,766667928.8450204,0,1.740005,100.4106,1,0.3,2025-04-18T14:06:59.545+03:00,78,1.3,2025-04-18T08:51:18.885+03:00,0.03057091307199995,0
2025-04-18T14:18:50.361+03:00,1744975125.239541,40.95360023396433,29.14098414716288,93.09959,-1,-1,-1,-1,30,20.15231660333657,-9999,68726.54895500001,-0.5976715087890625,0.7069091796875,-0.339080810546875,68726.538879,1.224562243747886,-1.048275319491695,-0.8009469989367599,-0.00175730197224766,0.008550427854061127,0.009458187967538834,0.007082581520080566,0.008028149604797363,-0.000780940055847168,XArbitraryZVertical,0.01132754441314869,0.5711303180928629,-0.6178758602043297,-0.5402881702203144,-0.6031518578529358,0.7180155515670776,-0.34736368060112,0,0,0,-1,-1,68724.95065425,unknown,2,2025-04-18T14:18:48.757+03:00,2025-04-18T14:06:46.055+03:00,21,5.43046,0,0,19.39724,0,0,2025-04-18T14:18:35.860+03:00,766667928.8450204,0,1.740005,100.4106,1,0.3,2025-04-18T14:06:59.545+03:00,78,1.3,2025-04-18T08:51:18.885+03:00,0.03057091307199995,0
2025-04-18T14:18:50.371+03:00,1744975125.239541,40.95360023396433,29.14098414716288,93.09959,-1,-1,-1,-1,30,20.15231660333657,-9999,68726.559031,-0.6041259765625,0.7135772705078125,-0.34332275390625,68726.54895500001,1.224639534262426,-1.048060844882415,-0.8010069930481423,-0.004384510219097137,0.01622406020760536,0.009044066071510315,0.009076476097106934,-0.008645713329315186,0.008146524429321289,XArbitraryZVertical,0.01139467656726199,0.5710817694169084,-0.6179010113324612,-0.5403093302664225,-0.6030400395393372,0.7180573344230652,-0.3474715352058411,0,0,0,-1,-1,68724.95065425,unknown,2,2025-04-18T14:18:48.757+03:00,2025-04-18T14:06:46.055+03:00,21,5.43046,0,0,19.39724,0,0,2025-04-18T14:18:35.860+03:00,766667928.8450204,0,1.740005,100.4106,1,0.3,2025-04-18T14:06:59.545+03:00,78,1.3,2025-04-18T08:51:18.885+03:00,0.03057091307199995,0
2025-04-18T14:18:50.381+03:00,1744975125.239541,40.95360023396433,29.14098414716288,93.09959,-1,-1,-1,-1,30,20.15231660333657,-9999,68726.569107,-0.6033172607421875,0.71728515625,-0.3475189208984375,68726.559031,1.224595647698292,-1.047952880672729,-0.801078372121268,-0.007047271821647882,0.01168110687285662,0.004982012789696455,0.002158641815185547,-0.008817434310913086,0.007163763046264648,XArbitraryZVertical,0.01146787091879917,0.5710629968431021,-0.6178950611289672,-0.5403344764781612,-0.6029581427574158,0.7181069850921631,-0.3475110828876495,0,0,0,-1,-1,68724.95065425,unknown,2,2025-04-18T14:18:48.757+03:00,2025-04-18T14:06:46.055+03:00,21,5.43046,0,0,19.39724,0,0,2025-04-18T14:18:35.860+03:00,766667928.8450204,0,1.740005,100.4106,1,0.3,2025-04-18T14:06:59.545+03:00,78,1.3,2025-04-18T08:51:18.885+03:00,0.03057091307199995,0
2025-04-18T14:18:50.391+03:00,1744975125.239541,40.95360023396433,29.14098414716288,93.09959,-1,-1,-1,-1,30,20.15231660333657,-9999,68726.57918300001,-0.60272216796875,0.716400146484375,-0.3470916748046875,68726.569107,1.224485091876319,-1.047972315288121,-0.8011386397224194,-0.003637094283476472,0.007951083593070507,0.004040319472551346,-0.001351237297058105,-0.001718342304229736,0.002018600702285767,XArbitraryZVertical,0.01151639138070234,0.5710766556490857,-0.6178708526477293,-0.5403464904242414,-0.6029272675514221,0.718148946762085,-0.3474776446819305,0,0,0,-1,-1,68724.95065425,unknown,2,2025-04-18T14:18:48.757+03:00,2025-04-18T14:06:46.055+03:00,21,5.43046,0,0,19.39724,0,0,2025-04-18T14:18:35.860+03:00,766667928.8450204,0,1.740005,100.4106,1,0.3,2025-04-18T14:06:59.545+03:00,78,1.3,2025-04-18T08:51:18.885+03:00,0.03057091307199995,0
2025-04-18T14:18:50.401+03:00,1744975125.239541,40.95360023396433,29.14098414716288,93.09959,-1,-1,-1,-1,30,20.15231660333657,-9999,68726.589259,-0.6030731201171875,0.7155914306640625,-0.3477783203125,68726.57918300001,1.224356365837715,-1.048082243119288,-0.801175867361968,-0.00440295273438096,0.002219761023297906,0.001495036529377103,-0.0001460909843444824,-0.0009660720825195312,-5.993247032165527e-05,XArbitraryZVertical,0.01153338606043075,0.5711111891096782,-0.6178401294170143,-0.5403446746937032,-0.6029422283172607,0.7181748151779175,-0.3473979830741882,0,0,0,-1,-1,68724.95065425,unknown,2,2025-04-18T14:18:48.757+03:00,2025-04-18T14:06:46.055+03:00,21,5.43046,0,0,19.39724,0,0,2025-04-18T14:18:35.860+03:00,766667928.8450204,0,1.740005,100.4106,1,0.3,2025-04-18T14:06:59.545+03:00,78,1.3,2025-04-18T08:51:18.885+03:00,0.03057091307199995,0
2025-04-18T14:18:50.411+03:00,1744975125.239541,40.95360023396433,29.14098414716288,93.09959,-1,-1,-1,-1,30,20.15231660333657,-9999,68726.59933500001,-0.601898193359375,0.716552734375,-0.347320556640625,68726.589259,1.22426619898884,-1.048161206341447,-0.8011911806550128,-0.002065762644633651,0.001178464852273464,0.003312111366540194,0.0006348490715026855,-0.002365231513977051,0.0009093582630157471,XArbitraryZVertical,0.01154063788537497,0.571134264116514,-0.6178176087691882,-0.5403459827788246,-0.6029601693153381,0.7181854844093323,-0.3473449349403381,0,0,0,-1,-1,68724.95065425,unknown,2,2025-04-18T14:18:48.757+03:00,2025-04-18T14:06:46.055+03:00,21,5.43046,0,0,19.39724,0,0,2025-04-18T14:18:35.860+03:00,766667928.8450204,0,1.740005,100.4106,1,0.3,2025-04-18T14:06:59.545+03:00,78,1.3,2025-04-18T08:51:18.885+03:00,0.03057091307199995,0
2025-04-18T14:18:50.421+03:00,1744975125.239541,40.95360023396433,29.14098414716288,93.09959,-1,-1,-1,-1,30,20.15231660333657,-9999,68726.60941200001,-0.598785400390625,0.720977783203125,-0.34234619140625,68726.59933500001,1.224292631711934,-1.048155063620181,-0.801205476319817,-0.000670998590067029,-0.007491123396903276,0.003312677145004272,0.0002423524856567383,-0.002604007720947266,-0.0005874037742614746,XArbitraryZVertical,0.01154047242876163,0.5711348788159313,-0.6178260152792117,-0.540335773088287,-0.6029492020606995,0.7181954383850098,-0.3473435342311859,0,0,0,-1,-1,68724.95065425,unknown,2,2025-04-18T14:18:48.757+03:00,2025-04-18T14:06:46.055+03:00,21,5.43046,0,0,19.39724,0,0,2025-04-18T14:18:35.860+03:00,766667928.8450204,0,1.740005,100.4106,1,0.3,2025-04-18T14:06:59.545+03:00,78,1.3,2025-04-18T08:51:18.885+03:00,0.03057091307199995,0
2025-04-18T14:18:50.431+03:00,1744975125.239541,40.95360023396433,29.14098414716288,93.09959,-1,-1,-1,-1,30,20.15231660333657,-9999,68726.61948800001,-0.5991973876953125,0.718719482421875,-0.3415985107421875,68726.60941200001,1.224362836659856,-1.048194893516549,-0.8012278676735273,0.004526958800852299,-0.0132488775998354,0.00196778099052608,0.001707077026367188,0.000340580940246582,0.001333653926849365,XArbitraryZVertical,0.01151668720723283,0.5711493807011268,-0.6178472582955457,-0.5402966780317778,-0.6029491424560547,0.7182109951972961,-0.3473114967346191,0,0,0,-1,-1,68724.95065425,unknown,2,2025-04-18T14:18:48.757+03:00,2025-04-18T14:06:46.055+03:00,21,5.43046,0,0,19.39724,0,0,2025-04-18T14:18:35.860+03:00,766667928.8450204,0,1.740005,100.4106,1,0.3,2025-04-18T14:06:59.545+03:00,78,1.3,2025-04-18T08:51:18.885+03:00,0.03057091307199995,0
2025-04-18T14:18:50.441+03:00,1744975125.239541,40.95360023396433,29.14098414716288,93.09959,-1,-1,-1,-1,30,20.15231660333657,-9999,68726.629564,-0.6058807373046875,0.7196197509765625,-0.34271240234375,68726.61948800001,1.224439020573195,-1.048211524836846,-0.801281864263521,0.003478073282167315,-0.006848369259387255,0.003210078924894333,0.005677103996276855,0.002729117870330811,0.006370216608047485,XArbitraryZVertical,0.01151041807203701,0.5711623783946062,-0.6178728843001436,-0.5402537229355634,-0.6029212474822998,0.7182486057281494,-0.3472820818424225,0,0,0,-1,-1,68724.95065425,unknown,2,2025-04-18T14:18:48.757+03:00,2025-04-18T14:06:46.055+03:00,21,5.43046,0,0,19.39724,0,0,2025-04-18T14:18:35.860+03:00,766667928.8450204,0,1.740005,100.4106,1,0.3,2025-04-18T14:06:59.545+03:00,78,1.3,2025-04-18T08:51:18.885+03:00,0.03057091307199995,0
2025-04-18T14:18:50.451+03:00,1744975125.239541,40.95360023396433,29.14098414716288,93.09959,-1,-1,-1,-1,30,20.15231660333657,-9999,68726.63964000001,-0.60516357421875,0.72406005859375,-0.3437347412109375,68726.629564,1.224516155720337,-1.048250647434641,-0.8012723315862355,0.005985705647617579,-0.00854853168129921,0.002331502037122846,0.0009663701057434082,-0.0006363391876220703,0.005434542894363403,XArbitraryZVertical,0.01147272526532512,0.5711719298841322,-0.6178930446853967,-0.5402215296970466,-0.6029409170150757,0.7182419300079346,-0.3472619950771332,0,0,0,-1,-1,68724.95065425,unknown,2,2025-04-18T14:18:48.757+03:00,2025-04-18T14:06:46.055+03:00,21,5.43046,0,0,19.39724,0,0,2025-04-18T14:18:35.860+03:00,766667928.8450204,0,1.740005,100.4106,1,0.3,2025-04-18T14:06:59.545+03:00,78,1.3,2025-04-18T08:51:18.885+03:00,0.03057091307199995,0
2025-04-18T14:18:50.461+03:00,1744975125.239541,40.95360023396433,29.14098414716288,93.09959,-1,-1,-1,-1,30,20.15231660333657,-9999,68726.649716,-0.605072021484375,0.720611572265625,-0.3455352783203125,68726.63964000001,1.224627949527357,-1.048259210953689,-0.8012377705073958,0.01065202988684177,-0.00416956190019846,0.003320833202451468,-0.003571510314941406,0.003660082817077637,0.00486186146736145,XArbitraryZVertical,0.01142487172564147,0.5711697636936812,-0.6179201548843506,-0.5401936571920252,-0.602965235710144,0.7182179093360901,-0.3472691476345062,0,0,0,-1,-1,68724.95065425,unknown,2,2025-04-18T14:18:48.757+03:00,2025-04-18T14:06:46.055+03:00,21,5.43046,0,0,19.39724,0,0,2025-04-18T14:18:35.860+03:00,766667928.8450204,0,1.740005,100.4106,1,0.3,2025-04-18T14:06:59.545+03:00,78,1.3,2025-04-18T08:51:18.885+03:00,0.03057091307199995,0
2025-04-18T14:18:50.471+03:00,1744975125.239541,40.95360023396433,29.14098414716288,93.09959,-1,-1,-1,-1,30,20.15231660333657,-9999,68726.65979200001,-0.60406494140625,0.7228240966796875,-0.3478240966796875,68726.649716,1.224828901514691,-1.048139710154749,-0.8011910042656757,0.0189291350543499,0.001001231838017702,0.00466226739808917,-0.001203596591949463,0.004364073276519775,0.00301283597946167,XArbitraryZVertical,0.01138652681093405,0.5711316539761486,-0.6179694711410727,-0.5401783383842904,-0.6029528379440308,0.7181853652000427,-0.3473579585552216,0,0,0,-1,-1,68724.95065425,unknown,2,2025-04-18T14:18:48.757+03:00,2025-04-18T14:06:46.055+03:00,21,5.43046,0,0,19.39724,0,0,2025-04-18T14:18:35.860+03:00,766667928.8450204,0,1.740005,100.4106,1,0.3,2025-04-18T14:06:59.545+03:00,78,1.3,2025-04-18T08:51:18.885+03:00,0.03057091307199995,0
2025-04-18T14:18:50.481+03:00,1744975125.239541,40.95360023396433,29.14098414716288,93.09959,-1,-1,-1,-1,30,20.15231660333657,-9999,68726.669868,-0.6005706787109375,0.7245635986328125,-0.345916748046875,68726.65979200001,1.225158018990316,-1.047884687264629,-0.8011379678645051,0.02686961553990841,0.002142129931598902,0.009141570888459682,-0.002342581748962402,0.002340972423553467,0.0004085004329681396,XArbitraryZVertical,0.01135104746556568,0.5710567423461036,-0.618052074386092,-0.540163704535467,-0.6028971672058105,0.7181484699249268,-0.3475306928157806,0,0,0,-1,-1,68724.95065425,unknown,2,2025-04-18T14:18:48.757+03:00,2025-04-18T14:06:46.055+03:00,21,5.43046,0,0,19.39724,0,0,2025-04-18T14:18:35.860+03:00,766667928.8450204,0,1.740005,100.4106,1,0.3,2025-04-18T14:06:59.545+03:00,78,1.3,2025-04-18T08:51:18.885+03:00,0.03057091307199995,0
2025-04-18T14:18:50.491+03:00,1744975125.239541,40.95360023396433,29.14098414716288,93.09959,-1,-1,-1,-1,30,20.15231660333657,-9999,68726.67994500001,-0.5978240966796875,0.720550537109375,-0.3457183837890625,68726.669868,1.22556027621652,-1.047603492260488,-0.8010756386177649,0.0258360430598259,-0.0005937353707849979,0.009041968733072281,0.0006044507026672363,0.006076991558074951,0.0005851089954376221,XArbitraryZVertical,0.01129928679652305,0.57097375526139,-0.6181534247965117,-0.5401365616807706,-0.6028382182121277,0.7181050777435303,-0.347722589969635,0,0,0,-1,-1,68724.95065425,unknown,2,2025-04-18T14:18:48.757+03:00,2025-04-18T14:06:46.055+03:00,21,5.43046,0,0,19.39724,0,0,2025-04-18T14:18:35.860+03:00,766667928.8450204,0,1.740005,100.4106,1,0.3,2025-04-18T14:06:59.545+03:00,78,1.3,2025-04-18T08:51:18.885+03:00,0.03057091307199995,0
2025-04-18T14:18:50.501+03:00,1744975125.239541,40.95360023396433,29.14098414716288,93.09959,-1,-1,-1,-1,30,20.15231660333657,-9999,68726.690021,-0.5943450927734375,0.7165069580078125,-0.3463897705078125,68726.67994500001,1.225971519291639,-1.047361102410235,-0.8010206956521194,0.02815206162631512,-0.008961521089076996,0.0110845472663641,0.002797365188598633,0.005779564380645752,0.002063214778900146,XArbitraryZVertical,0.01123585704832919,0.570902368828525,-0.6182580865390458,-0.5400936595231889,-0.6027882099151611,0.7180668711662292,-0.3478884696960449,0,0,0,-1,-1,68724.95065425,unknown,2,2025-04-18T14:18:48.757+03:00,2025-04-18T14:06:46.055+03:00,21,5.43046,0,0,19.39724,0,0,2025-04-18T14:18:35.860+03:00,766667928.8450204,0,1.740005,100.4106,1,0.3,2025-04-18T14:06:59.545+03:00,78,1.3,2025-04-18T08:51:18.885+03:00,0.03057091307199995,0
2025-04-18T14:18:50.512+03:00,1744975125.239541,40.95360023396433,29.14098414716288,93.09959,-1,-1,-1,-1,30,20.15231660333657,-9999,68726.70009700001,-0.594146728515625,0.714874267578125,-0.3451080322265625,68726.690021,1.226361988702586,-1.047197770291897,-0.8009880003422093,0.02427955903112888,-0.01373470481485128,0.008597420528531075,0.006529867649078369,0.001178920269012451,0.001685202121734619,XArbitraryZVertical,0.0111624374447694,0.5708555352149751,-0.6183596146345409,-0.5400285402606979,-0.6027517914772034,0.718044102191925,-0.347998708486557,0,0,0,-1,-1,68724.95065425,unknown,2,2025-04-18T14:18:48.757+03:00,2025-04-18T14:06:46.055+03:00,21,5.43046,0,0,19.39724,0,0,2025-04-18T14:18:35.860+03:00,766667928.8450204,0,1.740005,100.4106,1,0.3,2025-04-18T14:06:59.545+03:00,78,1.3,2025-04-18T08:51:18.885+03:00,0.03057091307199995,0
2025-04-18T14:18:50.522+03:00,1744975125.239541,40.95360023396433,29.14098414716288,93.09959,-1,-1,-1,-1,30,20.15231660333657,-9999,68726.710173,-0.5980377197265625,0.7176361083984375,-0.3419952392578125,68726.70009700001,1.226744816686734,-1.04707322602498,-0.801006735940992,0.02898749522864819,-0.01435308996587992,0.01213529706001282,0.008931457996368408,-0.003411769866943359,0.001188933849334717,XArbitraryZVertical,0.01109881359614831,0.5708268614641628,-0.6184639997873509,-0.5399405522542742,-0.6026967167854309,0.7180571556091309,-0.3480670154094696,0,0,0,-1,-1,68724.95065425,unknown,2,2025-04-18T14:18:48.757+03:00,2025-04-18T14:06:46.055+03:00,21,5.43046,0,0,19.39724,0,0,2025-04-18T14:18:35.860+03:00,766667928.8450204,0,1.740005,100.4106,1,0.3,2025-04-18T14:06:59.545+03:00,78,1.3,2025-04-18T08:51:18.885+03:00,0.03057091307199995,0
2025-04-18T14:18:50.532+03:00,1744975125.239541,40.95360023396433,29.14098414716288,93.09959,-1,-1,-1,-1,30,20.15231660333657,-9999,68726.72024900001,-0.6024627685546875,0.7184295654296875,-0.3428497314453125,68726.710173,1.22719644893251,-1.046889963012869,-0.8009782505858957,0.03448798507452011,-0.0129211088642478,0.01256619673222303,0.007512092590332031,-0.002659499645233154,0.003934085369110107,XArbitraryZVertical,0.01101567892804327,0.5707756324962036,-0.6185823244922913,-0.5398607903969017,-0.6026505827903748,0.7180373072624207,-0.348187655210495,0,0,0,-1,-1,68724.95065425,unknown,2,2025-04-18T14:18:48.757+03:00,2025-04-18T14:06:46.055+03:00,21,5.43046,0,0,19.39724,0,0,2025-04-18T14:18:35.860+03:00,766667928.8450204,0,1.740005,100.4106,1,0.3,2025-04-18T14:06:59.545+03:00,78,1.3,2025-04-18T08:51:18.885+03:00,0.03057091307199995,0
2025-04-18T14:18:50.542+03:00,1744975125.239541,40.95360023396433,29.14098414716288,93.09959,-1,-1,-1,-1,30,20.15231660333657,-9999,68726.73032500001,-0.6013641357421875,0.7221527099609375,-0.3470001220703125,68726.72024900001,1.227720758092669,-1.046639666383942,-0.8009130304168682,0.04458096623420715,-0.009491888806223869,0.01367307268083096,0.002353847026824951,0.0004834532737731934,0.006473511457443237,XArbitraryZVertical,0.01091861570544199,0.5707011320469733,-0.6187165169751097,-0.539787883184964,-0.6026040315628052,0.7179918885231018,-0.348361998796463,0,0,0,-1,-1,68724.95065425,unknown,2,2025-04-18T14:18:48.757+03:00,2025-04-18T14:06:46.055+03:00,21,5.43046,0,0,19.39724,0,0,2025-04-18T14:18:35.860+03:00,766667928.8450204,0,1.740005,100.4106,1,0.3,2025-04-18T14:06:59.545+03:00,78,1.3,2025-04-18T08:51:18.885+03:00,0.03057091307199995,0
2025-04-18T14:18:50.552+03:00,1744975125.239541,40.95360023396433,29.14098414716288,93.09959,-1,-1,-1,-1,30,20.15231660333657,-9999,68726.740401,-0.5998992919921875,0.7238311767578125,-0.3497772216796875,68726.73032500001,1.228343478506743,-1.046318755909835,-0.8008222862725765,0.04512931406497955,-0.01268262229859829,0.01106743514537811,-0.0002192854881286621,0.001950383186340332,0.003968179225921631,XArbitraryZVertical,0.01080555644977363,0.5706042774170199,-0.6188745912420313,-0.5397113436787131,-0.6025486588478088,0.7179287672042847,-0.3485879898071289,0,0,0,-1,-1,68724.95065425,unknown,2,2025-04-18T14:18:48.757+03:00,2025-04-18T14:06:46.055+03:00,21,5.43046,0,0,19.39724,0,0,2025-04-18T14:18:35.860+03:00,766667928.8450204,0,1.740005,100.4106,1,0.3,2025-04-18T14:06:59.545+03:00,78,1.3,2025-04-18T08:51:18.885+03:00,0.03057091307199995,0
2025-04-18T14:18:50.562+03:00,1744975125.239541,40.95360023396433,29.14098414716288,93.09959,-1,-1,-1,-1,30,20.15231660333657,-9999,68726.750478,-0.5999298095703125,0.71429443359375,-0.34979248046875,68726.740401,1.229001467589004,-1.045979955291213,-0.8007036680330012,0.04376783967018127,-0.01231836900115013,0.01213293429464102,0.002299666404724121,0.006534278392791748,0.000949561595916748,XArbitraryZVertical,0.01067732862988882,0.5704985816889482,-0.6190395895847428,-0.5396362781596097,-0.6025040745735168,0.717846155166626,-0.3488347232341766,0,0,0,-1,-1,68724.95065425,unknown,2,2025-04-18T14:18:48.757+03:00,2025-04-18T14:06:46.055+03:00,21,5.43046,0,0,19.39724,0,0,2025-04-18T14:18:35.860+03:00,766667928.8450204,0,1.740005,100.4106,1,0.3,2025-04-18T14:06:59.545+03:00,78,1.3,2025-04-18T08:51:18.885+03:00,0.03057091307199995,0
2025-04-18T14:18:50.572+03:00,1744975125.239541,40.95360023396433,29.14098414716288,93.09959,-1,-1,-1,-1,30,20.15231660333657,-9999,68726.76055400001,-0.5981597900390625,0.7136993408203125,-0.3428497314453125,68726.750478,1.229654041697536,-1.045677447806241,-0.8006297774407474,0.04679292440414429,-0.02186127379536629,0.0154256671667099,0.00224006175994873,0.002572715282440186,-0.001695007085800171,XArbitraryZVertical,0.01055665029982602,0.5704092857374685,-0.6192073412093129,-0.5395406692178294,-0.6024445295333862,0.7177947163581848,-0.349043607711792,0,0,0,-1,-1,68724.95065425,unknown,2,2025-04-18T14:18:48.757+03:00,2025-04-18T14:06:46.055+03:00,21,5.43046,0,0,19.39724,0,0,2025-04-18T14:18:35.860+03:00,766667928.8450204,0,1.740005,100.4106,1,0.3,2025-04-18T14:06:59.545+03:00,78,1.3,2025-04-18T08:51:18.885+03:00,0.03057091307199995,0
2025-04-18T14:18:50.582+03:00,1744975125.239541,40.95360023396433,29.14098414716288,93.09959,-1,-1,-1,-1,30,20.15231660333657,-9999,68726.77063,-0.5961456298828125,0.7116241455078125,-0.3423309326171875,68726.76055400001,1.230276428359204,-1.045493763135207,-0.8006044380103587,0.03483040258288383,-0.02908043749630451,0.01669326424598694,0.002878308296203613,-0.004276096820831299,0.001812249422073364,XArbitraryZVertical,0.01042636343347399,0.5703591764056546,-0.6193719616784927,-0.5394072448229272,-0.6023961305618286,0.7177770733833313,-0.3491634130477905,0,0,0,-1,-1,68724.95065425,unknown,2,2025-04-18T14:18:48.757+03:00,2025-04-18T14:06:46.055+03:00,21,5.43046,0,0,19.39724,0,0,2025-04-18T14:18:35.860+03:00,766667928.8450204,0,1.740005,100.4106,1,0.3,2025-04-18T14:06:59.545+03:00,78,1.3,2025-04-18T08:51:18.885+03:00,0.03057091307199995,0
2025-04-18T14:18:50.592+03:00,1744975125.239541,40.95360023396433,29.14098414716288,93.09959,-1,-1,-1,-1,30,20.15231660333657,-9999,68726.78070600001,-0.5995941162109375,0.71124267578125,-0.3460845947265625,68726.77063,1.230753497712809,-1.04544059325509,-0.8006249035412576,0.02509521879255772,-0.02891319058835506,0.01367909833788872,0.005410552024841309,-0.003557920455932617,0.007284253835678101,XArbitraryZVertical,0.01031459686595564,0.5703503998881684,-0.619502185462395,-0.5392691066913257,-0.6023648977279663,0.7177913188934326,-0.3491880595684052,0,0,0,-1,-1,68724.95065425,unknown,2,2025-04-18T14:18:48.757+03:00,2025-04-18T14:06:46.055+03:00,21,5.43046,0,0,19.39724,0,0,2025-04-18T14:18:35.860+03:00,766667928.8450204,0,1.740005,100.4106,1,0.3,2025-04-18T14:06:59.545+03:00,78,1.3,2025-04-18T08:51:18.885+03:00,0.03057091307199995,0
2025-04-18T14:18:50.602+03:00,1744975125.239541,40.95360023396433,29.14098414716288,93.09959,-1,-1,-1,-1,30,20.15231660333657,-9999,68726.79078200001,-0.5978240966796875,0.719879150390625,-0.344451904296875,68726.78070600001,1.231153895591187,-1.045446315546307,-0.8006560988478507,0.02201227657496929,-0.03271811455488205,0.01426815614104271,0.004309713840484619,-0.007470667362213135,0.005102872848510742,XArbitraryZVertical,0.01021051127036714,0.57035872906124,-0.6196129944076129,-0.5391348506255729,-0.6023474335670471,0.7178130745887756,-0.3491733372211456,0,0,0,-1,-1,68724.95065425,unknown,2,2025-04-18T14:18:48.757+03:00,2025-04-18T14:06:46.055+03:00,21,5.43046,0,0,19.39724,0,0,2025-04-18T14:18:35.860+03:00,766667928.8450204,0,1.740005,100.4106,1,0.3,2025-04-18T14:06:59.545+03:00,78,1.3,2025-04-18T08:51:18.885+03:00,0.03057091307199995,0
2025-04-18T14:18:50.612+03:00,1744975125.239541,40.95360023396433,29.14098414716288,93.09959,-1,-1,-1,-1,30,20.15231660333657,-9999,68726.800858,-0.5960693359375,0.7180938720703125,-0.3417510986328125,68726.79078200001,1.231555456286817,-1.045505930473317,-0.800658408844229,0.02502564154565334,-0.03340867161750793,0.008819062262773514,0.003322064876556396,-0.00353550910949707,0.002441644668579102,XArbitraryZVertical,0.01007841664444273,0.5703771758035199,-0.6197217334346399,-0.5389928507717021,-0.6023668050765991,0.7178146243095398,-0.3491365909576416,0,0,0,-1,-1,68724.95065425,unknown,2,2025-04-18T14:18:48.757+03:00,2025-04-18T14:06:46.055+03:00,21,5.43046,0,0,19.39724,0,0,2025-04-18T14:18:35.860+03:00,766667928.8450204,0,1.740005,100.4106,1,0.3,2025-04-18T14:06:59.545+03:00,78,1.3,2025-04-18T08:51:18.885+03:00,0.03057091307199995,0
2025-04-18T14:18:50.622+03:00,1744975125.239541,40.95360023396433,29.14098414716288,93.09959,-1,-1,-1,-1,30,20.15231660333657,-9999,68726.81093400001,-0.59893798828125,0.71063232421875,-0.3415069580078125,68726.800858,1.231904490041069,-1.045620905407722,-0.8006415505929193,0.02513623051345348,-0.03330687433481216,0.009650667198002338,0.005325734615325928,0.003159582614898682,0.006543993949890137,XArbitraryZVertical,0.0099367674587329,0.5704073792047267,-0.6198148565552435,-0.5388563257052003,-0.6024173498153687,0.7178029417991638,-0.3490733504295349,0,0,0,-1,-1,68724.95065425,unknown,2,2025-04-18T14:18:48.757+03:00,2025-04-18T14:06:46.055+03:00,21,5.43046,0,0,19.39724,0,0,2025-04-18T14:18:35.860+03:00,766667928.8450204,0,1.740005,100.4106,1,0.3,2025-04-18T14:06:59.545+03:00,78,1.3,2025-04-18T08:51:18.885+03:00,0.03057091307199995,0
2025-04-18T14:18:50.633+03:00,1744975125.239541,40.95360023396433,29.14098414716288,93.09959,-1,-1,-1,-1,30,20.15231660333657,-9999,68726.82101100001,-0.6018218994140625,0.711883544921875,-0.343231201171875,68726.81093400001,1.232237427336437,-1.045711500766789,-0.8006236589677612,0.02276921272277832,-0.03236944228410721,0.009006715379655361,0.005353271961212158,-0.002855181694030762,0.007808208465576172,XArbitraryZVertical,0.00980695239995763,0.5704306965617926,-0.6199033629868312,-0.5387323207273808,-0.6024602055549622,0.7177904844284058,-0.3490252792835236,0,0,0,-1,-1,68724.95065425,unknown,2,2025-04-18T14:18:48.757+03:00,2025-04-18T14:06:46.055+03:00,21,5.43046,0,0,19.39724,0,0,2025-04-18T14:18:35.860+03:00,766667928.8450204,0,1.740005,100.4106,1,0.3,2025-04-18T14:06:59.545+03:00,78,1.3,2025-04-18T08:51:18.885+03:00,0.03057091307199995,0
2025-04-18T14:18:50.643+03:00,1744975125.239541,40.95360023396433,29.14098414716288,93.09959,-1,-1,-1,-1,30,20.15231660333657,-9999,68726.831087,-0.598663330078125,0.71771240234375,-0.3458404541015625,68726.82101100001,1.232621567749903,-1.04578495603736,-0.8006273812267554,0.02749725617468357,-0.03698856011033058,0.01135196164250374,0.002233266830444336,-0.008579790592193604,0.006816506385803223,XArbitraryZVertical,0.009676022057426344,0.5704529235430233,-0.6200075238495697,-0.5385912280591743,-0.6024834513664246,0.7177930474281311,-0.3489796817302704,0,0,0,-1,-1,68724.95065425,unknown,2,2025-04-18T14:18:48.757+03:00,2025-04-18T14:06:46.055+03:00,21,5.43046,0,0,19.39724,0,0,2025-04-18T14:18:35.860+03:00,766667928.8450204,0,1.740005,100.4106,1,0.3,2025-04-18T14:06:59.545+03:00,78,1.3,2025-04-18T08:51:18.885+03:00,0.03057091307199995,0
2025-04-18T14:18:50.653+03:00,1744975125.239541,40.95360023396433,29.14098414716288,93.09959,-1,-1,-1,-1,30,20.15231660333657,-9999,68726.841163,-0.5946044921875,0.7188568115234375,-0.3463592529296875,68726.831087,1.233080795841786,-1.045843524158865,-0.8006102774459131,0.02919022738933563,-0.0413188599050045,0.01199804432690144,0.0008300542831420898,-0.003196835517883301,0.003811895847320557,XArbitraryZVertical,0.009520354839426879,0.5704683070617986,-0.6201299127123054,-0.5384367980452144,-0.6025145649909973,0.717781126499176,-0.3489505350589752,0,0,0,-1,-1,68724.95065425,unknown,2,2025-04-18T14:18:48.757+03:00,2025-04-18T14:06:46.055+03:00,21,5.43046,0,0,19.39724,0,0,2025-04-18T14:18:35.860+03:00,766667928.8450204,0,1.740005,100.4106,1,0.3,2025-04-18T14:06:59.545+03:00,78,1.3,2025-04-18T08:51:18.885+03:00,0.03057091307199995,0
2025-04-18T14:18:50.663+03:00,1744975125.239541,40.95360023396433,29.14098414716288,93.09959,-1,-1,-1,-1,30,20.15231660333657,-9999,68726.85123900001,-0.5959625244140625,0.718902587890625,-0.347808837890625,68726.841163,1.233573829527744,-1.045938332384936,-0.8005345295746712,0.03537921234965324,-0.04560355469584465,0.007562849204987288,0.006937384605407715,0.0005791187286376953,0.003019124269485474,XArbitraryZVertical,0.00932142959450458,0.5704846753866074,-0.6202562475431836,-0.5382774480315615,-0.6025947332382202,0.7177283763885498,-0.3489207029342651,0,0,0,-1,-1,68724.95065425,unknown,2,2025-04-18T14:18:48.757+03:00,2025-04-18T14:06:46.055+03:00,21,5.43046,0,0,19.39724,0,0,2025-04-18T14:18:35.860+03:00,766667928.8450204,0,1.740005,100.4106,1,0.3,2025-04-18T14:06:59.545+03:00,78,1.3,2025-04-18T08:51:18.885+03:00,0.03057091307199995,0
2025-04-18T14:18:50.673+03:00,1744975125.239541,40.95360023396433,29.14098414716288,93.09959,-1,-1,-1,-1,30,20.15231660333657,-9999,68726.861315,-0.596771240234375,0.7192230224609375,-0.34918212890625,68726.85123900001,1.234046025515772,-1.04608115154206,-0.800461896337312,0.0347757413983345,-0.04490740597248077,0.007269901689141989,0.008375048637390137,0.001178979873657227,0.002180933952331543,XArbitraryZVertical,0.009114670638834194,0.5705143115677176,-0.6203774557547,-0.5381097609901978,-0.6026895642280579,0.7176778316497803,-0.3488606810569763,0,0,0,-1,-1,68724.95065425,unknown,2,2025-04-18T14:18:48.757+03:00,2025-04-18T14:06:46.055+03:00,21,5.43046,0,0,19.39724,0,0,2025-04-18T14:18:35.860+03:00,766667928.8450204,0,1.740005,100.4106,1,0.3,2025-04-18T14:06:59.545+03:00,78,1.3,2025-04-18T08:51:18.885+03:00,0.03057091307199995,0
2025-04-18T14:18:50.683+03:00,1744975125.239541,40.95360023396433,29.14098414716288,93.09959,-1,-1,-1,-1,30,20.15231660333657,-9999,68726.87139100001,-0.597198486328125,0.7137451171875,-0.3465423583984375,68726.861315,1.234507417673291,-1.046211628274029,-0.8003474543074315,0.0295710600912571,-0.04378627985715866,0.007017001044005156,0.006858944892883301,0.001243412494659424,-6.914138793945312e-05,XArbitraryZVertical,0.008898894168582142,0.570534156071093,-0.6204918749835302,-0.5379603731557685,-0.6028061509132385,0.7175981402397156,-0.3488231599330902,0,0,0,-1,-1,68724.95065425,unknown,2,2025-04-18T14:18:48.757+03:00,2025-04-18T14:06:46.055+03:00,21,5.43046,0,0,19.39724,0,0,2025-04-18T14:18:35.860+03:00,766667928.8450204,0,1.740005,100.4106,1,0.3,2025-04-18T14:06:59.545+03:00,78,1.3,2025-04-18T08:51:18.885+03:00,0.03057091307199995,0
2025-04-18T14:18:50.693+03:00,1744975125.239541,40.95360023396433,29.14098414716288,93.09959,-1,-1,-1,-1,30,20.15231660333657,-9999,68726.881467,-0.6003875732421875,0.71295166015625,-0.34503173828125,68726.87139100001,1.234917989905563,-1.046348558760752,-0.8002810337455789,0.02496272698044777,-0.03848019987344742,0.00838080607354641,0.005559444427490234,0.000603020191192627,0.0004368424415588379,XArbitraryZVertical,0.008713954784038334,0.5705627126766106,-0.6205969182258004,-0.5378119702042445,-0.602895200252533,0.7175518870353699,-0.3487645089626312,0,0,0,-1,-1,68724.95065425,unknown,2,2025-04-18T14:18:48.757+03:00,2025-04-18T14:06:46.055+03:00,21,5.43046,0,0,19.39724,0,0,2025-04-18T14:18:35.860+03:00,766667928.8450204,0,1.740005,100.4106,1,0.3,2025-04-18T14:06:59.545+03:00,78,1.3,2025-04-18T08:51:18.885+03:00,0.03057091307199995,0
2025-04-18T14:18:50.703+03:00,1744975125.239541,40.95360023396433,29.14098414716288,93.09959,-1,-1,-1,-1,30,20.15231660333657,-9999,68726.891544,-0.6014862060546875,0.7154388427734375,-0.3474884033203125,68726.881467,1.235231936574088,-1.046525312004847,-0.800282877029254,0.02196626923978329,-0.03976663947105408,0.006940768100321293,0.004597663879394531,-0.005303442478179932,0.00385439395904541,XArbitraryZVertical,0.008570275069745828,0.5706118535306387,-0.6206822447541155,-0.5376637377145305,-0.6029557585716248,0.7175531387329102,-0.3486573398113251,0,0,0,-1,-1,68724.95065425,unknown,2,2025-04-18T14:18:48.757+03:00,2025-04-18T14:06:46.055+03:00,21,5.43046,0,0,19.39724,0,0,2025-04-18T14:18:35.860+03:00,766667928.8450204,0,1.740005,100.4106,1,0.3,2025-04-18T14:06:59.545+03:00,78,1.3,2025-04-18T08:51:18.885+03:00,0.03057091307199995,0
2025-04-18T14:18:50.713+03:00,1744975125.239541,40.95360023396433,29.14098414716288,93.09959,-1,-1,-1,-1,30,20.15231660333657,-9999,68726.90162,-0.59954833984375,0.7154693603515625,-0.3459625244140625,68726.891544,1.235530182263035,-1.046747099738748,-0.8002609622573809,0.02342355251312256,-0.04215682670474052,0.006316257175058126,0.001514673233032227,-0.003838539123535156,0.00244671106338501,XArbitraryZVertical,0.008407942121146686,0.5706694341443422,-0.620761399104938,-0.5375136843626858,-0.6030465960502625,0.7175378799438477,-0.3485313951969147,0,0,0,-1,-1,68724.95065425,unknown,2,2025-04-18T14:18:48.757+03:00,2025-04-18T14:06:46.055+03:00,21,5.43046,0,0,19.39724,0,0,2025-04-18T14:18:35.860+03:00,766667928.8450204,0,1.740005,100.4106,1,0.3,2025-04-18T14:06:59.545+03:00,78,1.3,2025-04-18T08:51:18.885+03:00,0.03057091307199995,0
2025-04-18T14:18:50.723+03:00,1744975125.239541,40.95360023396433,29.14098414716288,93.09959,-1,-1,-1,-1,30,20.15231660333657,-9999,68726.91169600001,-0.601287841796875,0.717620849609375,-0.3488616943359375,68726.90162,1.235922887623185,-1.046923273761672,-0.8001408513452939,0.03504771366715431,-0.04150435328483582,0.005524765700101852,0.002398431301116943,-0.001862823963165283,0.002185285091400146,XArbitraryZVertical,0.00819541633857563,0.5707001636085475,-0.6208568446229376,-0.5373741790018557,-0.6031826734542847,0.717454195022583,-0.3484683036804199,0,0,0,-1,-1,68724.95065425,unknown,2,2025-04-18T14:18:48.757+03:00,2025-04-18T14:06:46.055+03:00,21,5.43046,0,0,19.39724,0,0,2025-04-18T14:18:35.860+03:00,766667928.8450204,0,1.740005,100.4106,1,0.3,2025-04-18T14:06:59.545+03:00,78,1.3,2025-04-18T08:51:18.885+03:00,0.03057091307199995,0
2025-04-18T14:18:50.749+03:00,1744975125.239541,40.95360023396433,29.14098414716288,93.09959,-1,-1,-1,-1,30,20.15231660333657,-9999,68726.921772,-0.606048583984375,0.7225799560546875,-0.3488922119140625,68726.91169600001,1.236475540326062,-1.046949425386426,-0.7999843669718959,0.04796910658478737,-0.0420771986246109,0.006247281096875668,0.00331348180770874,-0.002013206481933594,0.001462697982788086,XArbitraryZVertical,0.007969891267755798,0.5706856762736542,-0.6209913619505201,-0.5372374715626994,-0.603289008140564,0.7173451781272888,-0.3485086858272552,0,0,0,-1,-1,68724.95065425,unknown,2,2025-04-18T14:18:48.757+03:00,2025-04-18T14:06:46.055+03:00,21,5.43046,0,0,19.39724,0,0,2025-04-18T14:18:35.860+03:00,766667928.8450204,0,1.740005,100.4106,1,0.3,2025-04-18T14:06:59.545+03:00,78,1.3,2025-04-18T08:51:18.885+03:00,0.03057091307199995,0
2025-04-18T14:18:50.752+03:00,1744975125.239541,40.95360023396433,29.14098414716288,93.09959,-1,-1,-1,-1,30,20.15231660333657,-9999,68726.93184800001,-0.6062164306640625,0.7148590087890625,-0.347076416015625,68726.921772,1.237131092346474,-1.046891677364574,-0.7998499008423302,0.04621008783578873,-0.0402662493288517,0.007883527316153049,0.0006150007247924805,0.00336003303527832,-0.0007888078689575195,XArbitraryZVertical,0.007749479083184149,0.5706523144534834,-0.6211551274257067,-0.5370867795861028,-0.6033523678779602,0.7172514796257019,-0.3485917747020721,0,0,0,-1,-1,68724.95065425,unknown,2,2025-04-18T14:18:48.757+03:00,2025-04-18T14:06:46.055+03:00,21,5.43046,0,0,19.39724,0,0,2025-04-18T14:18:35.860+03:00,766667928.8450204,0,1.740005,100.4106,1,0.3,2025-04-18T14:06:59.545+03:00,78,1.3,2025-04-18T08:51:18.885+03:00,0.03057091307199995,0
2025-04-18T14:18:50.756+03:00,1744975125.239541,40.95360023396433,29.14098414716288,93.09959,-1,-1,-1,-1,30,20.15231660333657,-9999,68726.941924,-0.6048583984375,0.714813232421875,-0.346771240234375,68726.93184800001,1.237788795125226,-1.046834519149312,-0.7997457697488595,0.04549689590930939,-0.0440058596432209,0.01033629849553108,-0.003261804580688477,0.003112137317657471,0.001495569944381714,XArbitraryZVertical,0.007539823100323237,0.570623667058225,-0.6213221758593812,-0.5369268524349564,-0.603397011756897,0.7171789407730103,-0.3486635684967041,0,0,0,-1,-1,68724.95065425,unknown,2,2025-04-18T14:18:48.757+03:00,2025-04-18T14:06:46.055+03:00,21,5.43046,0,0,19.39724,0,0,2025-04-18T14:18:35.860+03:00,766667928.8450204,0,1.740005,100.4106,1,0.3,2025-04-18T14:06:59.545+03:00,78,1.3,2025-04-18T08:51:18.885+03:00,0.03057091307199995,0
2025-04-18T14:18:50.764+03:00,1744975125.239541,40.95360023396433,29.14098414716288,93.09959,-1,-1,-1,-1,30,20.15231660333657,-9999,68726.952,-0.6045074462890625,0.713043212890625,-0.344573974609375,68726.941924,1.238428675132765,-1.046831854061179,-0.7996589720714884,0.03802672773599625,-0.04880620539188385,0.01028596423566341,-0.00203394889831543,-0.004060029983520508,0.002291262149810791,XArbitraryZVertical,0.007325016619863103,0.5706121013808854,-0.6214861290469339,-0.5367524063752053,-0.6034500598907471,0.7171184420585632,-0.3486963510513306,0,0,0,-1,-1,68724.95065425,unknown,2,2025-04-18T14:18:48.757+03:00,2025-04-18T14:06:46.055+03:00,21,5.43046,0,0,19.39724,0,0,2025-04-18T14:18:35.860+03:00,766667928.8450204,0,1.740005,100.4106,1,0.3,2025-04-18T14:06:59.545+03:00,78,1.3,2025-04-18T08:51:18.885+03:00,0.03057091307199995,0
2025-04-18T14:18:50.773+03:00,1744975125.239541,40.95360023396433,29.14098414716288,93.09959,-1,-1,-1,-1,30,20.15231660333657,-9999,68726.962077,-0.604827880859375,0.70867919921875,-0.3458099365234375,68726.952,1.238940983764584,-1.046910198921942,-0.7996288313613907,0.02896026335656643,-0.04477924108505249,0.01326684094965458,-0.001224875450134277,-0.001918017864227295,0.002270102500915527,XArbitraryZVertical,0.007143029475437239,0.5706303743232064,-0.6216211732309124,-0.5365790734402973,-0.6034961342811584,0.7170974612236023,-0.3486599028110504,0,0,0,-1,-1,68724.95065425,unknown,2,2025-04-18T14:18:48.757+03:00,2025-04-18T14:06:46.055+03:00,21,5.43046,0,0,19.39724,0,0,2025-04-18T14:18:35.860+03:00,766667928.8450204,0,1.740005,100.4106,1,0.3,2025-04-18T14:06:59.545+03:00,78,1.3,2025-04-18T08:51:18.885+03:00,0.03057091307199995,0
2025-04-18T14:18:50.784+03:00,1744975125.239541,40.95360023396433,29.14098414716288,93.09959,-1,-1,-1,-1,30,20.15231660333657,-9999,68726.97215300001,-0.605987548828125,0.7132720947265625,-0.3488616943359375,68726.962077,1.239317132605477,-1.047083762544904,-0.7996494786025917,0.02027889154851437,-0.04280157759785652,0.01494063716381788,-0.00102466344833374,-0.006143867969512939,0.003912687301635742,XArbitraryZVertical,0.006989625423044768,0.5706814080528732,-0.6217245364028062,-0.5364070362513915,-0.6035438179969788,0.7171118259429932,-0.3485477566719055,0,0,0,-1,-1,68724.95065425,unknown,2,2025-04-18T14:18:48.757+03:00,2025-04-18T14:06:46.055+03:00,21,5.43046,0,0,19.39724,0,0,2025-04-18T14:18:35.860+03:00,766667928.8450204,0,1.740005,100.4106,1,0.3,2025-04-18T14:06:59.545+03:00,78,1.3,2025-04-18T08:51:18.885+03:00,0.03057091307199995,0
2025-04-18T14:18:50.794+03:00,1744975125.239541,40.95360023396433,29.14098414716288,93.09959,-1,-1,-1,-1,30,20.15231660333657,-9999,68726.982229,-0.602935791015625,0.7220611572265625,-0.345550537109375,68726.97215300001,1.239651438932051,-1.047270343318048,-0.7996875591929056,0.02131246402859688,-0.04102018848061562,0.01559337787330151,-0.002539694309234619,-0.007574200630187988,0.001482367515563965,XArbitraryZVertical,0.006850724809614343,0.5707384127281757,-0.621818246410926,-0.5362394901860005,-0.6035851240158081,0.7171383500099182,-0.3484214544296265,0,0,0,-1,-1,68724.95065425,unknown,2,2025-04-18T14:18:48.757+03:00,2025-04-18T14:06:46.055+03:00,21,5.43046,0,0,19.39724,0,0,2025-04-18T14:18:35.860+03:00,766667928.8450204,0,1.740005,100.4106,1,0.3,2025-04-18T14:06:59.545+03:00,78,1.3,2025-04-18T08:51:18.885+03:00,0.03057091307199995,0
2025-04-18T14:18:50.804+03:00,1744975125.239541,40.95360023396433,29.14098414716288,93.09959,-1,-1,-1,-1,30,20.15231660333657,-9999,68726.99230500001,-0.5993804931640625,0.7290802001953125,-0.3442535400390625,68726.982229,1.240110347580423,-1.047375385768732,-0.799680714950988,0.03215812146663666,-0.04218458756804466,0.01399864349514246,-0.001079797744750977,-0.000611424446105957,0.0004295110702514648,XArbitraryZVertical,0.006684479250917244,0.5707670884280921,-0.6219410171221426,-0.5360686300402504,-0.6036259531974792,0.7171335816383362,-0.3483605086803436,0,0,0,-1,-1,68724.95065425,unknown,2,2025-04-18T14:18:48.757+03:00,2025-04-18T14:06:46.055+03:00,21,5.43046,0,0,19.39724,0,0,2025-04-18T14:18:35.860+03:00,766667928.8450204,0,1.740005,100.4106,1,0.3,2025-04-18T14:06:59.545+03:00,78,1.3,2025-04-18T08:51:18.885+03:00,0.03057091307199995,0
2025-04-18T14:18:50.814+03:00,1744975125.239541,40.95360023396433,29.14098414716288,93.09959,-1,-1,-1,-1,30,20.15231660333657,-9999,68727.002381,-0.600189208984375,0.7169952392578125,-0.3470306396484375,68726.99230500001,1.24068300640074,-1.047391638918243,-0.7996491036756226,0.03489398956298828,-0.04219124466180801,0.01716567575931549,0.002119362354278564,0.008520066738128662,0.004154175519943237,XArbitraryZVertical,0.006503934125592627,0.5707685163912609,-0.6220917155414305,-0.535894406777971,-0.603651225566864,0.7171115875244141,-0.348361998796463,0,0,0,-1,-1,68724.95065425,unknown,2,2025-04-18T14:18:48.757+03:00,2025-04-18T14:06:46.055+03:00,21,5.43046,0,0,19.39724,0,0,2025-04-18T14:18:35.860+03:00,766667928.8450204,0,1.740005,100.4106,1,0.3,2025-04-18T14:06:59.545+03:00,78,1.3,2025-04-18T08:51:18.885+03:00,0.03057091307199995,0
2025-04-18T14:18:50.824+03:00,1744975125.239541,40.95360023396433,29.14098414716288,93.09959,-1,-1,-1,-1,30,20.15231660333657,-9999,68727.012457,-0.602874755859375,0.7095794677734375,-0.35101318359375,68727.002381,1.241235549707431,-1.047381429469393,-0.7996535433824579,0.03109012730419636,-0.03552994504570961,0.01868044771254063,0.004722237586975098,0.009920835494995117,0.003502607345581055,XArbitraryZVertical,0.006351110023456651,0.570768237589708,-0.6222401104137872,-0.5357242135126294,-0.6036449074745178,0.7171146869659424,-0.3483665585517883,0,0,0,-1,-1,68724.95065425,unknown,2,2025-04-18T14:18:48.757+03:00,2025-04-18T14:06:46.055+03:00,21,5.43046,0,0,19.39724,0,0,2025-04-18T14:18:35.860+03:00,766667928.8450204,0,1.740005,100.4106,1,0.3,2025-04-18T14:06:59.545+03:00,78,1.3,2025-04-18T08:51:18.885+03:00,0.03057091307199995,0
2025-04-18T14:18:50.834+03:00,1744975125.239541,40.95360023396433,29.14098414716288,93.09959,-1,-1,-1,-1,30,20.15231660333657,-9999,68727.02253300001,-0.5997314453125,0.7142486572265625,-0.349822998046875,68727.012457,1.241755009961367,-1.047372293723549,-0.7996955884814504,0.02789539843797684,-0.03601038083434105,0.02254336327314377,0.001854836940765381,-0.00519949197769165,-0.0006573498249053955,XArbitraryZVertical,0.006221726093973795,0.5707738490735652,-0.6223829589732933,-0.5355537864742093,-0.6036155819892883,0.7171439528465271,-0.3483569920063019,0,0,0,-1,-1,68724.95065425,unknown,2,2025-04-18T14:18:48.757+03:00,2025-04-18T14:06:46.055+03:00,21,5.43046,0,0,19.39724,0,0,2025-04-18T14:18:35.860+03:00,766667928.8450204,0,1.740005,100.4106,1,0.3,2025-04-18T14:06:59.545+03:00,78,1.3,2025-04-18T08:51:18.885+03:00,0.03057091307199995,0
2025-04-18T14:18:50.844+03:00,1744975125.239541,40.95360023396433,29.14098414716288,93.09959,-1,-1,-1,-1,30,20.15231660333657,-9999,68727.03261000001,-0.598052978515625,0.710662841796875,-0.3442535400390625,68727.02253300001,1.242220108185855,-1.047420246077613,-0.799777473862923,0.01921295933425426,-0.03673103079199791,0.02735143341124058,0.0008289217948913574,-0.005973637104034424,-0.003202736377716064,XArbitraryZVertical,0.006105325465543219,0.5708006073679071,-0.6225149126467954,-0.5353733601322537,-0.6035815477371216,0.7172010540962219,-0.3482987880706787,0,0,0,-1,-1,68724.95065425,unknown,2,2025-04-18T14:18:48.757+03:00,2025-04-18T14:06:46.055+03:00,21,5.43046,0,0,19.39724,0,0,2025-04-18T14:18:35.860+03:00,766667928.8450204,0,1.740005,100.4106,1,0.3,2025-04-18T14:06:59.545+03:00,78,1.3,2025-04-18T08:51:18.885+03:00,0.03057091307199995,0
2025-04-18T14:18:50.854+03:00,1744975125.239541,40.95360023396433,29.14098414716288,93.09959,-1,-1,-1,-1,30,20.15231660333657,-9999,68727.042686,-0.603515625,0.7040252685546875,-0.3426361083984375,68727.03261000001,1.242596973072958,-1.0474889039501,-0.7999205981140657,0.01373670343309641,-0.02675163559615612,0.02553835324943066,0.004624426364898682,-0.002746939659118652,-0.0001673698425292969,XArbitraryZVertical,0.006030930846358279,0.5708420099821042,-0.6226287448034764,-0.5351976886759177,-0.6035165786743164,0.7173007726669312,-0.3482060432434082,0,0,0,-1,-1,68724.95065425,unknown,2,2025-04-18T14:18:48.757+03:00,2025-04-18T14:06:46.055+03:00,21,5.43046,0,0,19.39724,0,0,2025-04-18T14:18:35.860+03:00,766667928.8450204,0,1.740005,100.4106,1,0.3,2025-04-18T14:06:59.545+03:00,78,1.3,2025-04-18T08:51:18.885+03:00,0.03057091307199995,0
2025-04-18T14:18:50.864+03:00,1744975125.239541,40.95360023396433,29.14098414716288,93.09959,-1,-1,-1,-1,30,20.15231660333657,-9999,68727.05276200001,-0.6009674072265625,0.710357666015625,-0.3486480712890625,68727.042686,1.242899260188403,-1.047536905569307,-0.8000554021288462,0.01276917662471533,-0.02435772120952606,0.02210087887942791,0.003351867198944092,-0.01027184724807739,0.006118208169937134,XArbitraryZVertical,0.005981054926199991,0.5708763850078734,-0.6227217844507899,-0.5350533113801051,-0.6034495234489441,0.7173947095870972,-0.3481287658214569,0,0,0,-1,-1,68724.95065425,unknown,2,2025-04-18T14:18:48.757+03:00,2025-04-18T14:06:46.055+03:00,21,5.43046,0,0,19.39724,0,0,2025-04-18T14:18:35.860+03:00,766667928.8450204,0,1.740005,100.4106,1,0.3,2025-04-18T14:06:59.545+03:00,78,1.3,2025-04-18T08:51:18.885+03:00,0.03057091307199995,0
2025-04-18T14:18:50.874+03:00,1744975125.239541,40.95360023396433,29.14098414716288,93.09959,-1,-1,-1,-1,30,20.15231660333657,-9999,68727.062838,-0.5958099365234375,0.7145538330078125,-0.3548736572265625,68727.05276200001,1.243195149698014,-1.047580706175073,-0.8001447233906172,0.009324910119175911,-0.02190335281193256,0.01934717036783695,-0.001266002655029297,-0.01169216632843018,0.003603041172027588,XArbitraryZVertical,0.005916946884709799,0.570902667226871,-0.6228090322655599,-0.5349243351770716,-0.6034092307090759,0.7174569368362427,-0.3480702638626099,0,0,0,-1,-1,68724.95065425,unknown,2,2025-04-18T14:18:48.757+03:00,2025-04-18T14:06:46.055+03:00,21,5.43046,0,0,19.39724,0,0,2025-04-18T14:18:35.860+03:00,766667928.8450204,0,1.740005,100.4106,1,0.3,2025-04-18T14:06:59.545+03:00,78,1.3,2025-04-18T08:51:18.885+03:00,0.03057091307199995,0
2025-04-18T14:18:50.884+03:00,1744975125.239541,40.95360023396433,29.14098414716288,93.09959,-1,-1,-1,-1,30,20.15231660333657,-9999,68727.072914,-0.5974884033203125,0.715545654296875,-0.361846923828125,68727.062838,1.243465267263632,-1.047607265810268,-0.8002070646146784,0.01596430502831936,-0.02446677722036839,0.01050367765128613,0.005296289920806885,-0.00430452823638916,-0.002645641565322876,XArbitraryZVertical,0.005855354911357337,0.5709200849393998,-0.6228868840076177,-0.5348158626159754,-0.6033797860145569,0.7175003290176392,-0.3480319380760193,0,0,0,-1,-1,68724.95065425,unknown,2,2025-04-18T14:18:48.757+03:00,2025-04-18T14:06:46.055+03:00,21,5.43046,0,0,19.39724,0,0,2025-04-18T14:18:35.860+03:00,766667928.8450204,0,1.740005,100.4106,1,0.3,2025-04-18T14:06:59.545+03:00,78,1.3,2025-04-18T08:51:18.885+03:00,0.03057091307199995,0
2025-04-18T14:18:50.894+03:00,1744975125.239541,40.95360023396433,29.14098414716288,93.09959,-1,-1,-1,-1,30,20.15231660333657,-9999,68727.08299000001,-0.59228515625,0.71636962890625,-0.3551788330078125,68727.072914,1.243743914567663,-1.047707689005901,-0.8002605424243822,0.01940803788602352,-0.03631491586565971,0.008683940395712852,0.00648808479309082,-0.00327378511428833,-0.01021751761436462,XArbitraryZVertical,0.005764824100006564,0.5709559729632306,-0.6229664672553764,-0.5346856406397972,-0.603381335735321,0.7175375819206238,-0.3479520976543427,0,0,0,-1,-1,68724.95065425,unknown,2,2025-04-18T14:18:48.757+03:00,2025-04-18T14:06:46.055+03:00,21,5.43046,0,0,19.39724,0,0,2025-04-18T14:18:35.860+03:00,766667928.8450204,0,1.740005,100.4106,1,0.3,2025-04-18T14:06:59.545+03:00,78,1.3,2025-04-18T08:51:18.885+03:00,0.03057091307199995,0
2025-04-18T14:18:50.905+03:00,1744975125.239541,40.95360023396433,29.14098414716288,93.09959,-1,-1,-1,-1,30,20.15231660333657,-9999,68727.09306700001,-0.596649169921875,0.7022247314453125,-0.3513336181640625,68727.08299000001,1.244000917707355,-1.047902864200148,-0.8003037713807756,0.01502147875726223,-0.03688356652855873,0.003488612594082952,0.007475197315216064,-0.000450432300567627,-0.01350933313369751,XArbitraryZVertical,0.005647130267902103,0.5710154898563055,-0.6230395641992839,-0.5345381785947372,-0.6034224033355713,0.7175676822662354,-0.3478188514709473,0,0,0,-1,-1,68724.95065425,unknown,2,2025-04-18T14:18:48.757+03:00,2025-04-18T14:06:46.055+03:00,21,5.43046,0,0,19.39724,0,0,2025-04-18T14:18:35.860+03:00,766667928.8450204,0,1.740005,100.4106,1,0.3,2025-04-18T14:06:59.545+03:00,78,1.3,2025-04-18T08:51:18.885+03:00,0.03057091307199995,0
2025-04-18T14:18:50.914+03:00,1744975125.239541,40.95360023396433,29.14098414716288,93.09959,-1,-1,-1,-1,30,20.15231660333657,-9999,68727.103143,-0.609283447265625,0.6985015869140625,-0.3533782958984375,68727.09306700001,1.244167761503267,-1.04811873605426,-0.8002568657888827,0.002961619524285197,-0.0342467725276947,0.002770091407001019,0.01168406009674072,-0.004324018955230713,-0.004833757877349854,XArbitraryZVertical,0.005514400219480044,0.571066452326414,-0.6230805727089872,-0.5344373617276585,-0.6035266518592834,0.7175350189208984,-0.3477053940296173,0,0,0,-1,-1,68724.95065425,unknown,2,2025-04-18T14:18:48.757+03:00,2025-04-18T14:06:46.055+03:00,21,5.43046,0,0,19.39724,0,0,2025-04-18T14:18:35.860+03:00,766667928.8450204,0,1.740005,100.4106,1,0.3,2025-04-18T14:06:59.545+03:00,78,1.3,2025-04-18T08:51:18.885+03:00,0.03057091307199995,0
2025-04-18T14:18:50.927+03:00,1744975125.239541,40.95360023396433,29.14098414716288,93.09959,-1,-1,-1,-1,30,20.15231660333657,-9999,68727.11321900001,-0.61602783203125,0.70697021484375,-0.3543853759765625,68727.103143,1.244163320750145,-1.048388245141744,-0.8002443380632335,-0.006256246473640203,-0.02077610231935978,0.0004320357693359256,0.001012861728668213,-0.01946723461151123,-0.004228949546813965,XArbitraryZVertical,0.005426932150951591,0.5711365364720267,-0.6230790090366523,-0.5343651764757535,-0.6036281585693359,0.7175263166427612,-0.3475472033023834,0,0,0,-1,-1,68724.95065425,unknown,2,2025-04-18T14:18:48.757+03:00,2025-04-18T14:06:46.055+03:00,21,5.43046,0,0,19.39724,0,0,2025-04-18T14:18:35.860+03:00,766667928.8450204,0,1.740005,100.4106,1,0.3,2025-04-18T14:06:59.545+03:00,78,1.3,2025-04-18T08:51:18.885+03:00,0.03057091307199995,0
2025-04-18T14:18:50.935+03:00,1744975125.239541,40.95360023396433,29.14098414716288,93.09959,-1,-1,-1,-1,30,20.15231660333657,-9999,68727.123295,-0.61175537109375,0.704254150390625,-0.3619537353515625,68727.11321900001,1.244061447619637,-1.048601504052451,-0.8003029638625661,-0.01529821194708347,-0.01209739409387112,0.002012887969613075,-0.008730411529541016,-0.01470160484313965,-0.005843549966812134,XArbitraryZVertical,0.00541186711604933,0.571202235294121,-0.6230576088964388,-0.5343199462115474,-0.6036657094955444,0.7175671458244324,-0.3473974466323853,0,0,0,-1,-1,68724.95065425,unknown,2,2025-04-18T14:18:48.757+03:00,2025-04-18T14:06:46.055+03:00,21,5.43046,0,0,19.39724,0,0,2025-04-18T14:18:35.860+03:00,766667928.8450204,0,1.740005,100.4106,1,0.3,2025-04-18T14:06:59.545+03:00,78,1.3,2025-04-18T08:51:18.885+03:00,0.03057091307199995,0
