loggingTime(txt),locationTimestamp_since1970(s),locationLatitude(WGS84),locationLongitude(WGS84),locationAltitude(m),locationSpeed(m/s),locationSpeedAccuracy(m/s),locationCourse(°),locationCourseAccuracy(°),locationVerticalAccuracy(m),locationHorizontalAccuracy(m),locationFloor(Z),accelerometerTimestamp_sinceReboot(s),accelerometerAccelerationX(G),accelerometerAccelerationY(G),accelerometerAccelerationZ(G),motionTimestamp_sinceReboot(s),motionYaw(rad),motionRoll(rad),motionPitch(rad),motionRotationRateX(rad/s),motionRotationRateY(rad/s),motionRotationRateZ(rad/s),motionUserAccelerationX(G),motionUserAccelerationY(G),motionUserAccelerationZ(G),motionAttitudeReferenceFrame(txt),motionQuaternionX(R),motionQuaternionY(R),motionQuaternionZ(R),motionQuaternionW(R),motionGravityX(G),motionGravityY(G),motionGravityZ(G),motionMagneticFieldX(µT),motionMagneticFieldY(µT),motionMagneticFieldZ(µT),motionHeading(°),motionMagneticFieldCalibrationAccuracy(Z),activityTimestamp_sinceReboot(s),activity(txt),activityActivityConfidence(Z),activityActivityStartDate(txt),pedometerStartDate(txt),pedometerNumberofSteps(N),pedometerAverageActivePace(s/m),pedometerCurrentPace(s/m),pedometerCurrentCadence(steps/s),pedometerDistance(m),pedometerFloorAscended(N),pedometerFloorDescended(N),pedometerEndDate(txt),altimeterTimestamp_sinceReboot(s),altimeterReset(bool),altimeterRelativeAltitude(m),altimeterPressure(kPa),batteryState(N),batteryLevel(R),heartRateBPMTimestamp(txt),heartRateBPM(N),heartRateBPS(R),heartRateVariabilityTimestamp(txt),heartRateVariability(ms),label
2025-04-18T10:24:32.749+03:00,1744961070.736034,40.95357670179703,29.14098774185739,90.2052,-1,-1,-1,-1,30,28.42953063879919,-9999,61017.80322091667,-0.6842193603515625,0.4118499755859375,-0.6072845458984375,61017.79818391667,1.915610564191449,-0.8130491571713931,-0.4683734831402276,0.009611812420189381,0.03346453979611397,0.002010525669902563,-0.01088523864746094,0.009334146976470947,0.002047300338745117,XArbitraryZVertical,-0.1919744732635977,0.3956153469180043,-0.7835527578191008,-0.4389527765416822,-0.6481571793556213,0.4514355361461639,-0.6132686138153076,0,0,0,-1,-1,61012.46857112501,unknown,2,2025-04-18T10:24:13.823+03:00,2025-04-17T15:44:39.500+03:00,7123,1.071601,0,0,5881.288,4,10,2025-04-18T10:24:21.561+03:00,766653871.9649173,0,107.42,100.5673,1,0.75,2025-04-18T10:21:40.418+03:00,121,2.016666666666667,2025-04-18T08:51:18.885+03:00,0.03057091307199995,1
2025-04-18T10:24:32.753+03:00,1744961070.736034,40.95357670179703,29.14098774185739,90.2052,-1,-1,-1,-1,30,28.42953063879919,-9999,61017.81329691667,-0.6227569580078125,0.46209716796875,-0.60833740234375,61017.80825891667,1.915629118504774,-0.8127748997848181,-0.4682983214420684,0.00261409068480134,0.03047460876405239,-0.003355477703735232,-0.04353004693984985,-0.04447758197784424,0.006429314613342285,XArbitraryZVertical,-0.1918928234919137,0.3955278873603907,-0.7835813923658652,-0.4390162033418578,-0.6480135917663574,0.4513684809207916,-0.613469660282135,0,0,0,-1,-1,61012.46857112501,unknown,2,2025-04-18T10:24:13.823+03:00,2025-04-17T15:44:39.500+03:00,7123,1.071601,0,0,5881.288,4,10,2025-04-18T10:24:21.561+03:00,766653871.9649173,0,107.42,100.5673,1,0.75,2025-04-18T10:21:40.418+03:00,121,2.016666666666667,2025-04-18T08:51:18.885+03:00,0.03057091307199995,1
2025-04-18T10:24:32.754+03:00,1744961070.736034,40.95357670179703,29.14098774185739,90.2052,-1,-1,-1,-1,30,28.42953063879919,-9999,61017.82337191667,-0.6507110595703125,0.4468536376953125,-0.610107421875,61017.81833391667,1.915665549715509,-0.8124398252777273,-0.4682147108236347,0.008714860305190086,0.03415190055966377,-0.0005096237291581929,0.02291160821914673,0.007904231548309326,0.006123006343841553,XArbitraryZVertical,-0.1917933739680106,0.3954224877430954,-0.7836195689529523,-0.4390864450559612,-0.647835373878479,0.4512938559055328,-0.6137127280235291,0,0,0,-1,-1,61012.46857112501,unknown,2,2025-04-18T10:24:13.823+03:00,2025-04-17T15:44:39.500+03:00,7123,1.071601,0,0,5881.288,4,10,2025-04-18T10:24:21.561+03:00,766653871.9649173,0,107.42,100.5673,1,0.75,2025-04-18T10:21:40.418+03:00,121,2.016666666666667,2025-04-18T08:51:18.885+03:00,0.03057091307199995,1
2025-04-18T10:24:32.762+03:00,1744961070.736034,40.95357670179703,29.14098774185739,90.2052,-1,-1,-1,-1,30,28.42953063879919,-9999,61017.83344691667,-0.644500732421875,0.449920654296875,-0.605072021484375,61017.82840891667,1.91578603353501,-0.8121317018975938,-0.4681250121267359,0.01995632983744144,0.01999586820602417,0.006096879951655865,0.0006723999977111816,-0.0015677809715271,0.003405511379241943,XArbitraryZVertical,-0.1917228865194976,0.3953128708702409,-0.7836734597459495,-0.4391197183062649,-0.647675633430481,0.4512138068675995,-0.6139401197433472,0,0,0,-1,-1,61012.46857112501,unknown,2,2025-04-18T10:24:13.823+03:00,2025-04-17T15:44:39.500+03:00,7123,1.071601,0,0,5881.288,4,10,2025-04-18T10:24:21.561+03:00,766653871.9649173,0,107.42,100.5673,1,0.75,2025-04-18T10:21:40.418+03:00,121,2.016666666666667,2025-04-18T08:51:18.885+03:00,0.03057091307199995,1
2025-04-18T10:24:32.771+03:00,1744961070.736034,40.95357670179703,29.14098774185739,90.2052,-1,-1,-1,-1,30,28.42953063879919,-9999,61017.84352191667,-0.6333465576171875,0.459991455078125,-0.6077117919921875,61017.83848491667,1.916049461333876,-0.8117916878920193,-0.4680038587150649,0.02913937531411648,0.01960591413080692,0.001134844962507486,-0.000397026538848877,-0.002405703067779541,0.008195161819458008,XArbitraryZVertical,-0.1916774097554129,0.3951718803322232,-0.7837610395889852,-0.4391100643884108,-0.6475064754486084,0.4511056840419769,-0.6141979098320007,0,0,0,-1,-1,61012.46857112501,unknown,2,2025-04-18T10:24:13.823+03:00,2025-04-17T15:44:39.500+03:00,7123,1.071601,0,0,5881.288,4,10,2025-04-18T10:24:21.561+03:00,766653871.9649173,0,107.42,100.5673,1,0.75,2025-04-18T10:21:40.418+03:00,121,2.016666666666667,2025-04-18T08:51:18.885+03:00,0.03057091307199995,1
2025-04-18T10:24:32.781+03:00,1744961070.736034,40.95357670179703,29.14098774185739,90.2052,-1,-1,-1,-1,30,28.42953063879919,-9999,61017.85359691667,-0.6473236083984375,0.46563720703125,-0.6069488525390625,61017.84855991667,1.916345868226845,-0.8114071275157068,-0.4678348260479746,0.03650754317641258,0.02035852335393429,0.001198494574055076,0.01439088582992554,0.008578896522521973,0.007718443870544434,XArbitraryZVertical,-0.1916350107821936,0.3950016941086589,-0.7838590393166002,-0.4391067982952842,-0.6473255157470703,0.4509548246860504,-0.6144993901252747,0,0,0,-1,-1,61012.46857112501,unknown,2,2025-04-18T10:24:13.823+03:00,2025-04-17T15:44:39.500+03:00,7123,1.071601,0,0,5881.288,4,10,2025-04-18T10:24:21.561+03:00,766653871.9649173,0,107.42,100.5673,1,0.75,2025-04-18T10:21:40.418+03:00,121,2.016666666666667,2025-04-18T08:51:18.885+03:00,0.03057091307199995,1
2025-04-18T10:24:32.792+03:00,1744961070.736034,40.95357670179703,29.14098774185739,90.2052,-1,-1,-1,-1,30,28.42953063879919,-9999,61017.86367291667,-0.6425628662109375,0.4555816650390625,-0.604339599609375,61017.85863491667,1.916680103770521,-0.8110231209002643,-0.4676779572759167,0.03349317610263824,0.015593396499753,-0.001345589873380959,0.0007631778717041016,0.01409000158309937,0.007527351379394531,XArbitraryZVertical,-0.1915966698721463,0.3948321252100618,-0.7839655689172377,-0.4390858588979401,-0.6471408009529114,0.450814813375473,-0.6147966384887695,0,0,0,-1,-1,61012.46857112501,unknown,2,2025-04-18T10:24:13.823+03:00,2025-04-17T15:44:39.500+03:00,7123,1.071601,0,0,5881.288,4,10,2025-04-18T10:24:21.561+03:00,766653871.9649173,0,107.42,100.5673,1,0.75,2025-04-18T10:21:40.418+03:00,121,2.016666666666667,2025-04-18T08:51:18.885+03:00,0.03057091307199995,1
2025-04-18T10:24:32.801+03:00,1744961070.736034,40.95357670179703,29.14098774185739,90.2052,-1,-1,-1,-1,30,28.42953063879919,-9999,61017.87374791667,-0.63470458984375,0.4469146728515625,-0.6025238037109375,61017.86870991667,1.91695111277433,-0.8107742571159138,-0.4676367976856419,0.02693647518754005,-0.001482259482145309,0.004281669389456511,0.003187060356140137,0.007153481245040894,0.00992894172668457,XArbitraryZVertical,-0.1915647388632259,0.3947375622676879,-0.7840479365821382,-0.4390376770199683,-0.6470012068748474,0.450778067111969,-0.6149703860282898,0,0,0,-1,-1,61012.46857112501,unknown,2,2025-04-18T10:24:13.823+03:00,2025-04-17T15:44:39.500+03:00,7123,1.071601,0,0,5881.288,4,10,2025-04-18T10:24:21.561+03:00,766653871.9649173,0,107.42,100.5673,1,0.75,2025-04-18T10:21:40.418+03:00,121,2.016666666666667,2025-04-18T08:51:18.885+03:00,0.03057091307199995,1
2025-04-18T10:24:32.811+03:00,1744961070.736034,40.95357670179703,29.14098774185739,90.2052,-1,-1,-1,-1,30,28.42953063879919,-9999,61017.88382291667,-0.6341400146484375,0.4396820068359375,-0.6036834716796875,61017.87878591667,1.917088288452903,-0.8108023279076014,-0.4676063349370689,0.005149220116436481,-0.002801256719976664,0.003989154472947121,0.01136249303817749,-0.003531038761138916,0.01170557737350464,XArbitraryZVertical,-0.1916118020442449,0.3947202444965796,-0.7840746372325427,-0.4389849401503846,-0.647028386592865,0.4507508873939514,-0.6149616837501526,0,0,0,-1,-1,61012.46857112501,unknown,2,2025-04-18T10:24:13.823+03:00,2025-04-17T15:44:39.500+03:00,7123,1.071601,0,0,5881.288,4,10,2025-04-18T10:24:21.561+03:00,766653871.9649173,0,107.42,100.5673,1,0.75,2025-04-18T10:21:40.418+03:00,121,2.016666666666667,2025-04-18T08:51:18.885+03:00,0.03057091307199995,1
2025-04-18T10:24:32.821+03:00,1744961070.736034,40.95357670179703,29.14098774185739,90.2052,-1,-1,-1,-1,30,28.42953063879919,-9999,61017.89389791667,-0.641204833984375,0.43408203125,-0.6042327880859375,61017.88886091667,1.91697288701726,-0.8110559042200681,-0.4673683190068724,-0.01167769730091095,-0.000269921962171793,0.003989687189459801,0.0131678581237793,-0.01016974449157715,0.0109134316444397,XArbitraryZVertical,-0.1917584750363924,0.3947061559826519,-0.7840194857473846,-0.4390320645670884,-0.6472620964050293,0.4505383968353271,-0.6148715019226074,0,0,0,-1,-1,61012.46857112501,unknown,2,2025-04-18T10:24:13.823+03:00,2025-04-17T15:44:39.500+03:00,7123,1.071601,0,0,5881.288,4,10,2025-04-18T10:24:21.561+03:00,766653871.9649173,0,107.42,100.5673,1,0.75,2025-04-18T10:21:40.418+03:00,121,2.016666666666667,2025-04-18T08:51:18.885+03:00,0.03057091307199995,1
2025-04-18T10:24:32.831+03:00,1744961070.736034,40.95357670179703,29.14098774185739,90.2052,-1,-1,-1,-1,30,28.42953063879919,-9999,61017.90397391667,-0.6436614990234375,0.4442291259765625,-0.6064605712890625,61017.89893591667,1.916910085234436,-0.8110722494344824,-0.4676003647578933,-0.01655627600848675,-0.009181591682136059,0.003921010997146368,0.007212221622467041,-0.01699921488761902,0.01067823171615601,XArbitraryZVertical,-0.1916842015879423,0.3947945409563079,-0.7840095179314129,-0.4390028214329331,-0.6471962928771973,0.450745552778244,-0.6147888898849487,0,0,0,-1,-1,61012.46857112501,unknown,2,2025-04-18T10:24:13.823+03:00,2025-04-17T15:44:39.500+03:00,7123,1.071601,0,0,5881.288,4,10,2025-04-18T10:24:21.561+03:00,766653871.9649173,0,107.42,100.5673,1,0.75,2025-04-18T10:21:40.418+03:00,121,2.016666666666667,2025-04-18T08:51:18.885+03:00,0.03057091307199995,1
2025-04-18T10:24:32.841+03:00,1744961070.736034,40.95357670179703,29.14098774185739,90.2052,-1,-1,-1,-1,30,28.42953063879919,-9999,61017.91404891667,-0.640411376953125,0.44952392578125,-0.611083984375,61017.90901091667,1.916808371712679,-0.8112529249708678,-0.467742020581051,-0.01330695208162069,-0.01429379545152187,0.005030483938753605,0.003675878047943115,-0.00737529993057251,0.008320033550262451,XArbitraryZVertical,-0.1916932617896388,0.3948920326186581,-0.7839731563973894,-0.4389760891806209,-0.6472610831260681,0.450872004032135,-0.6146279573440552,0,0,0,-1,-1,61012.46857112501,unknown,2,2025-04-18T10:24:13.823+03:00,2025-04-17T15:44:39.500+03:00,7123,1.071601,0,0,5881.288,4,10,2025-04-18T10:24:21.561+03:00,766653871.9649173,0,107.42,100.5673,1,0.75,2025-04-18T10:21:40.418+03:00,121,2.016666666666667,2025-04-18T08:51:18.885+03:00,0.03057091307199995,1
2025-04-18T10:24:32.851+03:00,1744961070.736034,40.95357670179703,29.14098774185739,90.2052,-1,-1,-1,-1,30,28.42953063879919,-9999,61017.92412391667,-0.640777587890625,0.4521484375,-0.6139373779296875,61017.91908591667,1.91676150014391,-0.8114727394938698,-0.4678580972848638,-0.004943760577589273,-0.01859366893768311,0.006996463052928448,0.007435142993927002,-0.001588970422744751,0.004372835159301758,XArbitraryZVertical,-0.1917359409546064,0.3949841543047284,-0.7839445440810262,-0.4389259239941736,-0.647358238697052,0.4509755969047546,-0.614449679851532,0,0,0,-1,-1,61012.46857112501,unknown,2,2025-04-18T10:24:13.823+03:00,2025-04-17T15:44:39.500+03:00,7123,1.071601,0,0,5881.288,4,10,2025-04-18T10:24:21.561+03:00,766653871.9649173,0,107.42,100.5673,1,0.75,2025-04-18T10:21:40.418+03:00,121,2.016666666666667,2025-04-18T08:51:18.885+03:00,0.03057091307199995,1
2025-04-18T10:24:32.861+03:00,1744961070.736034,40.95357670179703,29.14098774185739,90.2052,-1,-1,-1,-1,30,28.42953063879919,-9999,61017.93419891667,-0.6415863037109375,0.4577484130859375,-0.6142120361328125,61017.92916191667,1.916803378935456,-0.8116413283759821,-0.4680093457290733,0.001451820600777864,-0.02045974507927895,0.006467025727033615,0.007107734680175781,4.604458808898926e-05,0.0006613731384277344,XArbitraryZVertical,-0.1917658033120657,0.3950684677219395,-0.7839410612649274,-0.4388431091622311,-0.6474123001098633,0.4511105716228485,-0.6142935752868652,0,0,0,-1,-1,61012.46857112501,unknown,2,2025-04-18T10:24:13.823+03:00,2025-04-17T15:44:39.500+03:00,7123,1.071601,0,0,5881.288,4,10,2025-04-18T10:24:21.561+03:00,766653871.9649173,0,107.42,100.5673,1,0.75,2025-04-18T10:21:40.418+03:00,121,2.016666666666667,2025-04-18T08:51:18.885+03:00,0.03057091307199995,1
2025-04-18T10:24:32.871+03:00,1744961070.736034,40.95357670179703,29.14098774185739,90.2052,-1,-1,-1,-1,30,28.42953063879919,-9999,61017.94427491667,-0.642608642578125,0.4529571533203125,-0.6130523681640625,61017.93923691667,1.916842522302076,-0.8118703444146271,-0.4681239350131458,0.0009070709347724915,-0.02063191868364811,0.005230586975812912,0.006310582160949707,0.005940496921539307,-8.702278137207031e-05,XArbitraryZVertical,-0.1918295687002959,0.3951538429014889,-0.7839303533810595,-0.4387575263656613,-0.6475154757499695,0.4512128531932831,-0.6141096949577332,0,0,0,-1,-1,61012.46857112501,unknown,2,2025-04-18T10:24:13.823+03:00,2025-04-17T15:44:39.500+03:00,7123,1.071601,0,0,5881.288,4,10,2025-04-18T10:24:21.561+03:00,766653871.9649173,0,107.42,100.5673,1,0.75,2025-04-18T10:21:40.418+03:00,121,2.016666666666667,2025-04-18T08:51:18.885+03:00,0.03057091307199995,1
2025-04-18T10:24:32.881+03:00,1744961070.736034,40.95357670179703,29.14098774185739,90.2052,-1,-1,-1,-1,30,28.42953063879919,-9999,61017.95434991667,-0.647735595703125,0.451446533203125,-0.6131591796875,61017.94931191667,1.916900169298012,-0.812060909462568,-0.4681825350521857,0.009505086578428745,-0.02055948227643967,0.004243619274348021,0.005721807479858398,0.002424448728561401,0.0007784366607666016,XArbitraryZVertical,-0.1918984045393391,0.3952099984272809,-0.7839260801843242,-0.4386844853163245,-0.6476133465766907,0.4512651562690735,-0.6139681339263916,0,0,0,-1,-1,61012.46857112501,unknown,2,2025-04-18T10:24:13.823+03:00,2025-04-17T15:44:39.500+03:00,7123,1.071601,0,0,5881.288,4,10,2025-04-18T10:24:21.561+03:00,766653871.9649173,0,107.42,100.5673,1,0.75,2025-04-18T10:21:40.418+03:00,121,2.016666666666667,2025-04-18T08:51:18.885+03:00,0.03057091307199995,1
2025-04-18T10:24:32.892+03:00,1744961070.736034,40.95357670179703,29.14098774185739,90.2052,-1,-1,-1,-1,30,28.42953063879919,-9999,61017.96442491667,-0.650482177734375,0.45599365234375,-0.6114501953125,61017.95938691667,1.917033134888843,-0.8121982926431933,-0.4681475960876374,0.01290993764996529,-0.01773093827068806,0.002352242358028889,0.001224696636199951,6.002187728881836e-05,0.0008224248886108398,XArbitraryZVertical,-0.1919888071957448,0.395215513124204,-0.7839412496739762,-0.438612865605723,-0.6477091312408447,0.4512339532375336,-0.6138899922370911,0,0,0,-1,-1,61012.46857112501,unknown,2,2025-04-18T10:24:13.823+03:00,2025-04-17T15:44:39.500+03:00,7123,1.071601,0,0,5881.288,4,10,2025-04-18T10:24:21.561+03:00,766653871.9649173,0,107.42,100.5673,1,0.75,2025-04-18T10:21:40.418+03:00,121,2.016666666666667,2025-04-18T08:51:18.885+03:00,0.03057091307199995,1
2025-04-18T10:24:32.902+03:00,1744961070.736034,40.95357670179703,29.14098774185739,90.2052,-1,-1,-1,-1,30,28.42953063879919,-9999,61017.97449991667,-0.6506195068359375,0.4534454345703125,-0.6097869873046875,61017.96946291667,1.91715789430501,-0.8122818739542456,-0.4680465863360713,0.01541810296475887,-0.01263711042702198,0.001523200538940728,-0.002948164939880371,0.004193723201751709,0.001348912715911865,XArbitraryZVertical,-0.1920759629451616,0.3951875915858866,-0.783958221836818,-0.4385694593350054,-0.6477934718132019,0.4511438310146332,-0.6138671636581421,0,0,0,-1,-1,61012.46857112501,unknown,2,2025-04-18T10:24:13.823+03:00,2025-04-17T15:44:39.500+03:00,7123,1.071601,0,0,5881.288,4,10,2025-04-18T10:24:21.561+03:00,766653871.9649173,0,107.42,100.5673,1,0.75,2025-04-18T10:21:40.418+03:00,121,2.016666666666667,2025-04-18T08:51:18.885+03:00,0.03057091307199995,1
2025-04-18T10:24:32.912+03:00,1744961070.736034,40.95357670179703,29.14098774185739,90.2052,-1,-1,-1,-1,30,28.42953063879919,-9999,61017.98457491667,-0.6506500244140625,0.44659423828125,-0.61102294921875,61017.97953791667,1.917280029635417,-0.8123603797553142,-0.4678928073779972,0.01540771592408419,-0.01234283111989498,-0.0009504766785539687,-0.002452850341796875,0.003217071294784546,0.004122912883758545,XArbitraryZVertical,-0.1921760773745819,0.3951408826469963,-0.7839739146610468,-0.4385397921042124,-0.6478920578956604,0.4510065615177155,-0.6138640642166138,0,0,0,-1,-1,61012.46857112501,unknown,2,2025-04-18T10:24:13.823+03:00,2025-04-17T15:44:39.500+03:00,7123,1.071601,0,0,5881.288,4,10,2025-04-18T10:24:21.561+03:00,766653871.9649173,0,107.42,100.5673,1,0.75,2025-04-18T10:21:40.418+03:00,121,2.016666666666667,2025-04-18T08:51:18.885+03:00,0.03057091307199995,1
2025-04-18T10:24:32.922+03:00,1744961070.736034,40.95357670179703,29.14098774185739,90.2052,-1,-1,-1,-1,30,28.42953063879919,-9999,61017.99465091667,-0.64996337890625,0.44781494140625,-0.6045074462890625,61017.98961291667,1.917366640757663,-0.8124473813282311,-0.4677821453793251,0.008554071187973022,-0.009645581245422363,-0.00149962049908936,-0.003141403198242188,-0.003581136465072632,0.00254446268081665,XArbitraryZVertical,-0.1922598808690087,0.3951140856564321,-0.7839819416351754,-0.4385127334210351,-0.6479816436767578,0.4509077966213226,-0.6138420104980469,0,0,0,-1,-1,61012.46857112501,unknown,2,2025-04-18T10:24:13.823+03:00,2025-04-17T15:44:39.500+03:00,7123,1.071601,0,0,5881.288,4,10,2025-04-18T10:24:21.561+03:00,766653871.9649173,0,107.42,100.5673,1,0.75,2025-04-18T10:21:40.418+03:00,121,2.016666666666667,2025-04-18T08:51:18.885+03:00,0.03057091307199995,1
2025-04-18T10:24:32.935+03:00,1744961070.736034,40.95357670179703,29.14098774185739,90.2052,-1,-1,-1,-1,30,28.42953063879919,-9999,61018.00472591667,-0.6457061767578125,0.4473114013671875,-0.604339599609375,61017.99968791667,1.917439954426451,-0.8124772890109809,-0.4677361097068958,0.007443600334227085,-0.006480347365140915,0.000900320359505713,-0.001826226711273193,-0.003189116716384888,0.008322417736053467,XArbitraryZVertical,-0.1922996482230778,0.3950979741879725,-0.783994053764323,-0.4384880904607465,-0.6480150818824768,0.45086669921875,-0.6138368844985962,0,0,0,-1,-1,61012.46857112501,unknown,2,2025-04-18T10:24:13.823+03:00,2025-04-17T15:44:39.500+03:00,7123,1.071601,0,0,5881.288,4,10,2025-04-18T10:24:21.561+03:00,766653871.9649173,0,107.42,100.5673,1,0.75,2025-04-18T10:21:40.418+03:00,121,2.016666666666667,2025-04-18T08:51:18.885+03:00,0.03057091307199995,1
2025-04-18T10:24:32.942+03:00,1744961070.736034,40.95357670179703,29.14098774185739,90.2052,-1,-1,-1,-1,30,28.42953063879919,-9999,61018.01480091667,-0.6447296142578125,0.4477691650390625,-0.6063385009765625,61018.00976391667,1.917531871478261,-0.8124805732061738,-0.4676878609287709,0.0102119566872716,-0.006784746423363686,-0.00170345208607614,0.002311408519744873,-0.003466427326202393,0.01045620441436768,XArbitraryZVertical,-0.1923332820763884,0.3950734795301294,-0.7840127688878924,-0.4384619671643195,-0.6480329036712646,0.4508236348628998,-0.6138496994972229,0,0,0,-1,-1,61012.46857112501,unknown,2,2025-04-18T10:24:13.823+03:00,2025-04-17T15:44:39.500+03:00,7123,1.071601,0,0,5881.288,4,10,2025-04-18T10:24:21.561+03:00,766653871.9649173,0,107.42,100.5673,1,0.75,2025-04-18T10:21:40.418+03:00,121,2.016666666666667,2025-04-18T08:51:18.885+03:00,0.03057091307199995,1
2025-04-18T10:24:32.952+03:00,1744961070.736034,40.95357670179703,29.14098774185739,90.2052,-1,-1,-1,-1,30,28.42953063879919,-9999,61018.02487591667,-0.645111083984375,0.448577880859375,-0.6073760986328125,61018.01983891667,1.917604244785708,-0.8124990421825873,-0.4676302641329064,0.01034797728061676,-0.007848212495446205,-0.004268642049282789,0.003562331199645996,-0.003643959760665894,0.007715523242950439,XArbitraryZVertical,-0.1923717992177363,0.3950510259457307,-0.7840254850700961,-0.4384424089014953,-0.6480630040168762,0.450772225856781,-0.6138555407524109,0,0,0,-1,-1,61012.46857112501,unknown,2,2025-04-18T10:24:13.823+03:00,2025-04-17T15:44:39.500+03:00,7123,1.071601,0,0,5881.288,4,10,2025-04-18T10:24:21.561+03:00,766653871.9649173,0,107.42,100.5673,1,0.75,2025-04-18T10:21:40.418+03:00,121,2.016666666666667,2025-04-18T08:51:18.885+03:00,0.03057091307199995,1
2025-04-18T10:24:32.962+03:00,1744961070.736034,40.95357670179703,29.14098774185739,90.2052,-1,-1,-1,-1,30,28.42953063879919,-9999,61018.03495191667,-0.6480255126953125,0.4477386474609375,-0.606475830078125,61018.02991391667,1.917654920455687,-0.8125345407741803,-0.4675476476641865,0.01018898654729128,-0.00931934267282486,-0.005882251542061567,0.002878725528717041,-0.00193747878074646,0.007000923156738281,XArbitraryZVertical,-0.1924199507213999,0.39502587773462,-0.7840313130551241,-0.4384338225547127,-0.6481119394302368,0.4506984949111938,-0.6138582229614258,0,0,0,-1,-1,61012.46857112501,unknown,2,2025-04-18T10:24:13.823+03:00,2025-04-17T15:44:39.500+03:00,7123,1.071601,0,0,5881.288,4,10,2025-04-18T10:24:21.561+03:00,766653871.9649173,0,107.42,100.5673,1,0.75,2025-04-18T10:21:40.418+03:00,121,2.016666666666667,2025-04-18T08:51:18.885+03:00,0.03057091307199995,1
2025-04-18T10:24:32.972+03:00,1744961070.736034,40.95357670179703,29.14098774185739,90.2052,-1,-1,-1,-1,30,28.42953063879919,-9999,61018.04502691667,-0.649810791015625,0.4486083984375,-0.6064605712890625,61018.03998891667,1.917666200174599,-0.8126423402642321,-0.4674725047052739,0.004517851397395134,-0.01300935260951519,-0.006527368910610676,0.001199483871459961,-0.003014802932739258,0.007076442241668701,XArbitraryZVertical,-0.1924865537245739,0.3950229206467681,-0.7840216470320204,-0.4384244818704536,-0.6482027173042297,0.4506314098834991,-0.6138116121292114,0,0,0,-1,-1,61012.46857112501,unknown,2,2025-04-18T10:24:13.823+03:00,2025-04-17T15:44:39.500+03:00,7123,1.071601,0,0,5881.288,4,10,2025-04-18T10:24:21.561+03:00,766653871.9649173,0,107.42,100.5673,1,0.75,2025-04-18T10:21:40.418+03:00,121,2.016666666666667,2025-04-18T08:51:18.885+03:00,0.03057091307199995,1
2025-04-18T10:24:32.982+03:00,1744961070.736034,40.95357670179703,29.14098774185739,90.2052,-1,-1,-1,-1,30,28.42953063879919,-9999,61018.05510191667,-0.64947509765625,0.4481048583984375,-0.6059112548828125,61018.05006391667,1.917650497192523,-0.8128110963906862,-0.4674351794450784,0.000953476526774466,-0.01459553092718124,-0.005426418036222458,-0.0008972883224487305,-0.002462714910507202,0.00688701868057251,XArbitraryZVertical,-0.1925606364361564,0.3950487654900817,-0.7840010452527946,-0.438405293162549,-0.6483184099197388,0.4505980908870697,-0.6137137413024902,0,0,0,-1,-1,61012.46857112501,unknown,2,2025-04-18T10:24:13.823+03:00,2025-04-17T15:44:39.500+03:00,7123,1.071601,0,0,5881.288,4,10,2025-04-18T10:24:21.561+03:00,766653871.9649173,0,107.42,100.5673,1,0.75,2025-04-18T10:21:40.418+03:00,121,2.016666666666667,2025-04-18T08:51:18.885+03:00,0.03057091307199995,1
2025-04-18T10:24:32.992+03:00,1744961070.736034,40.95357670179703,29.14098774185739,90.2052,-1,-1,-1,-1,30,28.42953063879919,-9999,61018.06517691667,-0.65118408203125,0.4501800537109375,-0.6030731201171875,61018.06013991667,1.917629446058248,-0.8129786438317614,-0.4674070749265007,0.001642636023461819,-0.01167757250368595,-0.002584459260106087,-0.001578748226165771,-0.002910643815994263,0.007336437702178955,XArbitraryZVertical,-0.1926304391920299,0.3950779831339738,-0.7839796249772248,-0.4383865370699741,-0.6484304070472717,0.4505729973316193,-0.6136137843132019,0,0,0,-1,-1,61012.46857112501,unknown,2,2025-04-18T10:24:13.823+03:00,2025-04-17T15:44:39.500+03:00,7123,1.071601,0,0,5881.288,4,10,2025-04-18T10:24:21.561+03:00,766653871.9649173,0,107.42,100.5673,1,0.75,2025-04-18T10:21:40.418+03:00,121,2.016666666666667,2025-04-18T08:51:18.885+03:00,0.03057091307199995,1
2025-04-18T10:24:33.020+03:00,1744961070.736034,40.95357670179703,29.14098774185739,90.2052,-1,-1,-1,-1,30,28.42953063879919,-9999,61018.07525291667,-0.6522216796875,0.4482421875,-0.6023406982421875,61018.07021491667,1.917609062217532,-0.8131350465050236,-0.4673598487467863,-0.0005198506987653673,-0.01283231936395168,-0.001943436334840953,-0.002657532691955566,-0.0001829266548156738,0.009752035140991211,XArbitraryZVertical,-0.1927015891660888,0.3950981971958334,-0.7839590004945289,-0.4383740209165405,-0.6485418677330017,0.4505308270454407,-0.6135269999504089,0,0,0,-1,-1,61012.46857112501,unknown,2,2025-04-18T10:24:13.823+03:00,2025-04-17T15:44:39.500+03:00,7123,1.071601,0,0,5881.288,4,10,2025-04-18T10:24:21.561+03:00,766653871.9649173,0,107.42,100.5673,1,0.75,2025-04-18T10:21:40.418+03:00,121,2.016666666666667,2025-04-18T08:51:18.885+03:00,0.03057091307199995,1
2025-04-18T10:24:33.021+03:00,1744961070.736034,40.95357670179703,29.14098774185739,90.2052,-1,-1,-1,-1,30,28.42953063879919,-9999,61018.08532791667,-0.6497802734375,0.44775390625,-0.604705810546875,61018.08028991667,1.917552765506441,-0.8133359503578425,-0.4673586199854985,-0.002916695550084114,-0.01220834068953991,-0.002208953490480781,-0.003296792507171631,-0.002470642328262329,0.01085805892944336,XArbitraryZVertical,-0.1927695758112895,0.3951472398031929,-0.7839272727859763,-0.4383566695951144,-0.6486654877662659,0.4505297243595123,-0.6133971214294434,0,0,0,-1,-1,61012.46857112501,unknown,2,2025-04-18T10:24:13.823+03:00,2025-04-17T15:44:39.500+03:00,7123,1.071601,0,0,5881.288,4,10,2025-04-18T10:24:21.561+03:00,766653871.9649173,0,107.42,100.5673,1,0.75,2025-04-18T10:21:40.418+03:00,121,2.016666666666667,2025-04-18T08:51:18.885+03:00,0.03057091307199995,1
2025-04-18T10:24:33.022+03:00,1744961070.736034,40.95357670179703,29.14098774185739,90.2052,-1,-1,-1,-1,30,28.42953063879919,-9999,61018.09540291667,-0.647125244140625,0.4496612548828125,-0.605560302734375,61018.09036491667,1.917491583606322,-0.8135341958967475,-0.4673851050002406,-0.002606437541544437,-0.01269836351275444,-0.00230109877884388,-0.001474857330322266,-0.003577649593353271,0.009164929389953613,XArbitraryZVertical,-0.1928273740226851,0.3952055701809797,-0.7838953963459084,-0.4383357725369805,-0.6487784385681152,0.4505533874034882,-0.6132603287696838,0,0,0,-1,-1,61012.46857112501,unknown,2,2025-04-18T10:24:13.823+03:00,2025-04-17T15:44:39.500+03:00,7123,1.071601,0,0,5881.288,4,10,2025-04-18T10:24:21.561+03:00,766653871.9649173,0,107.42,100.5673,1,0.75,2025-04-18T10:21:40.418+03:00,121,2.016666666666667,2025-04-18T08:51:18.885+03:00,0.03057091307199995,1
2025-04-18T10:24:33.032+03:00,1744961070.736034,40.95357670179703,29.14098774185739,90.2052,-1,-1,-1,-1,30,28.42953063879919,-9999,61018.10547791667,-0.64642333984375,0.44921875,-0.605255126953125,61018.10044091667,1.917460962618536,-0.8136632923880162,-0.4673833653250701,0.001622396055608988,-0.007308923173695803,-0.001107070595026016,0.001412510871887207,-0.001317799091339111,0.008196711540222168,XArbitraryZVertical,-0.1928724245586863,0.3952362243775918,-0.7838762031806573,-0.4383226713138723,-0.6488581895828247,0.450551837682724,-0.6131771206855774,0,0,0,-1,-1,61012.46857112501,unknown,2,2025-04-18T10:24:13.823+03:00,2025-04-17T15:44:39.500+03:00,7123,1.071601,0,0,5881.288,4,10,2025-04-18T10:24:21.561+03:00,766653871.9649173,0,107.42,100.5673,1,0.75,2025-04-18T10:21:40.418+03:00,121,2.016666666666667,2025-04-18T08:51:18.885+03:00,0.03057091307199995,1
2025-04-18T10:24:33.043+03:00,1744961070.736034,40.95357670179703,29.14098774185739,90.2052,-1,-1,-1,-1,30,28.42953063879919,-9999,61018.11555291667,-0.6506500244140625,0.44598388671875,-0.604736328125,61018.11051591667,1.917480076213602,-0.813710245266576,-0.4673782066988619,0.001580850686877966,-0.002040391322225332,0.0007917631883174181,0.003624975681304932,-0.001664131879806519,0.007587969303131104,XArbitraryZVertical,-0.1928961201725375,0.395242920530413,-0.7838757436490013,-0.4383070343426924,-0.6488887071609497,0.4505472183227539,-0.6131482124328613,0,0,0,-1,-1,61012.46857112501,unknown,2,2025-04-18T10:24:13.823+03:00,2025-04-17T15:44:39.500+03:00,7123,1.071601,0,0,5881.288,4,10,2025-04-18T10:24:21.561+03:00,766653871.9649173,0,107.42,100.5673,1,0.75,2025-04-18T10:21:40.418+03:00,121,2.016666666666667,2025-04-18T08:51:18.885+03:00,0.03057091307199995,1
2025-04-18T10:24:33.053+03:00,1744961070.736034,40.95357670179703,29.14098774185739,90.2052,-1,-1,-1,-1,30,28.42953063879919,-9999,61018.12562891667,-0.6492919921875,0.4474334716796875,-0.602569580078125,61018.12059091667,1.917510168216594,-0.813715776548354,-0.4673543491992146,0.006008622236549854,0.003746657632291317,-0.00057696842122823,-0.001109302043914795,-0.004084259271621704,0.008217334747314453,XArbitraryZVertical,-0.1929112487183532,0.395233134968709,-0.7838812458215773,-0.4382993754575321,-0.6488999128341675,0.4505259394645691,-0.613152027130127,0,0,0,-1,-1,61012.46857112501,unknown,2,2025-04-18T10:24:13.823+03:00,2025-04-17T15:44:39.500+03:00,7123,1.071601,0,0,5881.288,4,10,2025-04-18T10:24:21.561+03:00,766653871.9649173,0,107.42,100.5673,1,0.75,2025-04-18T10:21:40.418+03:00,121,2.016666666666667,2025-04-18T08:51:18.885+03:00,0.03057091307199995,1
2025-04-18T10:24:33.063+03:00,1744961070.736034,40.95357670179703,29.14098774185739,90.2052,-1,-1,-1,-1,30,28.42953063879919,-9999,61018.13570391667,-0.649505615234375,0.4465484619140625,-0.60101318359375,61018.13066591667,1.917498008586537,-0.8136979653595092,-0.4673364742361184,-0.0009488860378041863,0.00594403175637126,-0.003340530674904585,-0.0006871223449707031,-0.002496629953384399,0.01095050573348999,XArbitraryZVertical,-0.1929071289615739,0.3952243406680922,-0.7838798727751503,-0.4383115493468946,-0.6488948464393616,0.4505099654197693,-0.6131691336631775,0,0,0,-1,-1,61012.46857112501,unknown,2,2025-04-18T10:24:13.823+03:00,2025-04-17T15:44:39.500+03:00,7123,1.071601,0,0,5881.288,4,10,2025-04-18T10:24:21.561+03:00,766653871.9649173,0,107.42,100.5673,1,0.75,2025-04-18T10:21:40.418+03:00,121,2.016666666666667,2025-04-18T08:51:18.885+03:00,0.03057091307199995,1
2025-04-18T10:24:33.073+03:00,1744961073.049429,40.95360440245199,29.14096835387985,93.53751,-1,-1,-1,-1,30,26.84681577818391,-9999,61018.14577891667,-0.6490936279296875,0.443267822265625,-0.60247802734375,61018.14074191667,1.917419649946503,-0.8137269604353273,-0.4673458816821909,-0.008471117354929447,0.001392023637890816,-0.004683096893131733,-0.000474095344543457,-0.003649473190307617,0.01218003034591675,XArbitraryZVertical,-0.1929002826346919,0.3952414523888659,-0.7838600910699862,-0.4383343407512438,-0.6489094495773315,0.4505183696746826,-0.6131473779678345,0,0,0,-1,-1,61012.46857112501,unknown,2,2025-04-18T10:24:13.823+03:00,2025-04-17T15:44:39.500+03:00,7123,1.071601,0,0,5881.288,4,10,2025-04-18T10:24:21.561+03:00,766653871.9649173,0,107.42,100.5673,1,0.75,2025-04-18T10:21:40.418+03:00,121,2.016666666666667,2025-04-18T08:51:18.885+03:00,0.03057091307199995,1
2025-04-18T10:24:33.083+03:00,1744961073.049429,40.95360440245199,29.14096835387985,93.53751,-1,-1,-1,-1,30,26.84681577818391,-9999,61018.15585391667,-0.64593505859375,0.44219970703125,-0.6027374267578125,61018.15081691667,1.917255746008202,-0.8138347683189455,-0.4674191283713439,-0.01549573708325624,-0.0001725833863019943,-0.004136083647608757,-0.0002793669700622559,-0.007056504487991333,0.01121765375137329,XArbitraryZVertical,-0.1928885356779578,0.395305728394613,-0.7838155441106455,-0.4383614408947697,-0.6489516496658325,0.4505837559700012,-0.6130548119544983,0,0,0,-1,-1,61012.46857112501,unknown,2,2025-04-18T10:24:13.823+03:00,2025-04-17T15:44:39.500+03:00,7123,1.071601,0,0,5881.288,4,10,2025-04-18T10:24:21.561+03:00,766653871.9649173,0,107.42,100.5673,1,0.75,2025-04-18T10:21:40.418+03:00,121,2.016666666666667,2025-04-18T08:51:18.885+03:00,0.03057091307199995,1
2025-04-18T10:24:33.093+03:00,1744961073.049429,40.95360440245199,29.14096835387985,93.53751,-1,-1,-1,-1,30,26.84681577818391,-9999,61018.16592991667,-0.648590087890625,0.446990966796875,-0.5999603271484375,61018.16089191667,1.917041310252433,-0.8139713167279149,-0.4675076031312806,-0.02098058350384235,0.001707808114588261,-0.006385289132595062,0.002293050289154053,-0.007944226264953613,0.009652078151702881,XArbitraryZVertical,-0.1928736500160855,0.3953863539077797,-0.7837574454097013,-0.438399072052499,-0.6490063667297363,0.4506627321243286,-0.6129387617111206,0,0,0,-1,-1,61012.46857112501,unknown,2,2025-04-18T10:24:13.823+03:00,2025-04-17T15:44:39.500+03:00,7123,1.071601,0,0,5881.288,4,10,2025-04-18T10:24:21.561+03:00,766653871.9649173,0,107.42,100.5673,1,0.75,2025-04-18T10:21:40.418+03:00,121,2.016666666666667,2025-04-18T08:51:18.885+03:00,0.03057091307199995,1
2025-04-18T10:24:33.103+03:00,1744961073.049429,40.95360440245199,29.14096835387985,93.53751,-1,-1,-1,-1,30,26.84681577818391,-9999,61018.17600491667,-0.65045166015625,0.452667236328125,-0.600860595703125,61018.17096691667,1.916806410144482,-0.8140982634016903,-0.4675992075017083,-0.01927376352250576,0.001616461668163538,-0.007367995567619801,0.000677645206451416,-0.004623264074325562,0.01248633861541748,XArbitraryZVertical,-0.1928499689713078,0.3954678964333154,-0.7836958994880543,-0.438446079940034,-0.6490541696548462,0.4507445096969604,-0.6128280758857727,0,0,0,-1,-1,61012.46857112501,unknown,2,2025-04-18T10:24:13.823+03:00,2025-04-17T15:44:39.500+03:00,7123,1.071601,0,0,5881.288,4,10,2025-04-18T10:24:21.561+03:00,766653871.9649173,0,107.42,100.5673,1,0.75,2025-04-18T10:21:40.418+03:00,121,2.016666666666667,2025-04-18T08:51:18.885+03:00,0.03057091307199995,1
2025-04-18T10:24:33.113+03:00,1744961073.049429,40.95360440245199,29.14096835387985,93.53751,-1,-1,-1,-1,30,26.84681577818391,-9999,61018.18607991667,-0.6475677490234375,0.4542236328125,-0.6059722900390625,61018.18104291667,1.916579571619479,-0.8142177259332245,-0.4676662690134217,-0.01532063446938992,-0.001015340909361839,-0.00753887090831995,-0.001376926898956299,0.001847624778747559,0.01177763938903809,XArbitraryZVertical,-0.1928322406735154,0.3955387091801067,-0.7836361916708084,-0.4384964915612144,-0.6491053104400635,0.4508043825626373,-0.6127297282218933,0,0,0,-1,-1,61012.46857112501,unknown,2,2025-04-18T10:24:13.823+03:00,2025-04-17T15:44:39.500+03:00,7123,1.071601,0,0,5881.288,4,10,2025-04-18T10:24:21.561+03:00,766653871.9649173,0,107.42,100.5673,1,0.75,2025-04-18T10:21:40.418+03:00,121,2.016666666666667,2025-04-18T08:51:18.885+03:00,0.03057091307199995,1
2025-04-18T10:24:33.123+03:00,1744961073.049429,40.95360440245199,29.14096835387985,93.53751,-1,-1,-1,-1,30,26.84681577818391,-9999,61018.19615491667,-0.6461639404296875,0.4537353515625,-0.6056671142578125,61018.19111791667,1.916387481440676,-0.8143258324754978,-0.4677070939425971,-0.01127156428992748,0.0009764372371137142,-0.009338635951280594,0.001575112342834473,0.00373375415802002,0.007193505764007568,XArbitraryZVertical,-0.192824610223834,0.3955947782341672,-0.7835846012992667,-0.4385413734924367,-0.6491581201553345,0.4508408010005951,-0.6126468777656555,0,0,0,-1,-1,61012.46857112501,unknown,2,2025-04-18T10:24:13.823+03:00,2025-04-17T15:44:39.500+03:00,7123,1.071601,0,0,5881.288,4,10,2025-04-18T10:24:21.561+03:00,766653871.9649173,0,107.42,100.5673,1,0.75,2025-04-18T10:21:40.418+03:00,121,2.016666666666667,2025-04-18T08:51:18.885+03:00,0.03057091307199995,1
2025-04-18T10:24:33.133+03:00,1744961073.049429,40.95360440245199,29.14096835387985,93.53751,-1,-1,-1,-1,30,26.84681577818391,-9999,61018.20623091667,-0.6476593017578125,0.4504852294921875,-0.6024169921875,61018.20119291667,1.916198609449834,-0.814420340949203,-0.4677211758740983,-0.01469978597015142,0.003631409257650375,-0.007417663931846619,0.003581583499908447,0.002317428588867188,0.007051467895507812,XArbitraryZVertical,-0.1928200625568759,0.3956384734294295,-0.7835344621910667,-0.4385938135107025,-0.6492115259170532,0.4508533775806427,-0.6125812530517578,0,0,0,-1,-1,61012.46857112501,unknown,2,2025-04-18T10:24:13.823+03:00,2025-04-17T15:44:39.500+03:00,7123,1.071601,0,0,5881.288,4,10,2025-04-18T10:24:21.561+03:00,766653871.9649173,0,107.42,100.5673,1,0.75,2025-04-18T10:21:40.418+03:00,121,2.016666666666667,2025-04-18T08:51:18.885+03:00,0.03057091307199995,1
2025-04-18T10:24:33.144+03:00,1744961073.049429,40.95360440245199,29.14096835387985,93.53751,-1,-1,-1,-1,30,26.84681577818391,-9999,61018.21630591667,-0.648284912109375,0.444671630859375,-0.6025390625,61018.21126791667,1.915976472221041,-0.814548731407966,-0.4677679496076473,-0.01941517740488052,0.002884658984839916,-0.008142576552927494,0.001386582851409912,0.0006735026836395264,0.009120464324951172,XArbitraryZVertical,-0.1928126382665306,0.3957039002300612,-0.7834744823829928,-0.4386452174672631,-0.6492748260498047,0.4508951306343079,-0.6124834418296814,0,0,0,-1,-1,61012.46857112501,unknown,2,2025-04-18T10:24:13.823+03:00,2025-04-17T15:44:39.500+03:00,7123,1.071601,0,0,5881.288,4,10,2025-04-18T10:24:21.561+03:00,766653871.9649173,0,107.42,100.5673,1,0.75,2025-04-18T10:21:40.418+03:00,121,2.016666666666667,2025-04-18T08:51:18.885+03:00,0.03057091307199995,1
2025-04-18T10:24:33.153+03:00,1744961073.049429,40.95360440245199,29.14096835387985,93.53751,-1,-1,-1,-1,30,26.84681577818391,-9999,61018.22638091667,-0.64874267578125,0.4443817138671875,-0.60369873046875,61018.22134291667,1.915691443858011,-0.8147023349335035,-0.4678468034444163,-0.02274612709879875,0.001805413048714399,-0.012346176430583,0.000890195369720459,-0.00553092360496521,0.01006436347961426,XArbitraryZVertical,-0.1927931996982416,0.3957917941208262,-0.7833990252708938,-0.4387091880478917,-0.6493430137634277,0.4509655237197876,-0.6123592853546143,0,0,0,-1,-1,61012.46857112501,unknown,2,2025-04-18T10:24:13.823+03:00,2025-04-17T15:44:39.500+03:00,7123,1.071601,0,0,5881.288,4,10,2025-04-18T10:24:21.561+03:00,766653871.9649173,0,107.42,100.5673,1,0.75,2025-04-18T10:21:40.418+03:00,121,2.016666666666667,2025-04-18T08:51:18.885+03:00,0.03057091307199995,1
2025-04-18T10:24:33.164+03:00,1744961073.049429,40.95360440245199,29.14096835387985,93.53751,-1,-1,-1,-1,30,26.84681577818391,-9999,61018.23645591667,-0.6509552001953125,0.44659423828125,-0.605804443359375,61018.23141891667,1.915389879445567,-0.8148472382205885,-0.4679012881258641,-0.02472751960158348,0.004653131123632193,-0.01143404375761747,0.0008389949798583984,-0.006922334432601929,0.008793771266937256,XArbitraryZVertical,-0.1927742156669733,0.3958711101369001,-0.7833202088802994,-0.4387867339220008,-0.6494138836860657,0.4510141313076019,-0.6122483611106873,0,0,0,-1,-1,61012.46857112501,unknown,2,2025-04-18T10:24:13.823+03:00,2025-04-17T15:44:39.500+03:00,7123,1.071601,0,0,5881.288,4,10,2025-04-18T10:24:21.561+03:00,766653871.9649173,0,107.42,100.5673,1,0.75,2025-04-18T10:21:40.418+03:00,121,2.016666666666667,2025-04-18T08:51:18.885+03:00,0.03057091307199995,1
2025-04-18T10:24:33.174+03:00,1744961073.049429,40.95360440245199,29.14096835387985,93.53751,-1,-1,-1,-1,30,26.84681577818391,-9999,61018.24653191667,-0.6537933349609375,0.4498291015625,-0.6080780029296875,61018.24149391667,1.915111997734457,-0.8149173255629144,-0.4679198118981508,-0.01628689654171467,0.01108919270336628,-0.01187626086175442,-0.001474082469940186,-0.003871828317642212,0.00631636381149292,XArbitraryZVertical,-0.1927412255193241,0.3959195498708087,-0.7832529062284325,-0.4388775638709784,-0.6494506597518921,0.4510306715965271,-0.6121970415115356,0,0,0,-1,-1,61012.46857112501,unknown,2,2025-04-18T10:24:13.823+03:00,2025-04-17T15:44:39.500+03:00,7123,1.071601,0,0,5881.288,4,10,2025-04-18T10:24:21.561+03:00,766653871.9649173,0,107.42,100.5673,1,0.75,2025-04-18T10:21:40.418+03:00,121,2.016666666666667,2025-04-18T08:51:18.885+03:00,0.03057091307199995,1
2025-04-18T10:24:33.184+03:00,1744961073.049429,40.95360440245199,29.14096835387985,93.53751,-1,-1,-1,-1,30,26.84681577818391,-9999,61018.25660691667,-0.6542510986328125,0.4517974853515625,-0.60986328125,61018.25156891667,1.914913078384391,-0.8148957259159881,-0.4679134493106989,-0.006825749762356281,0.01668768934905529,-0.01077184826135635,-0.005070984363555908,-0.00169941782951355,0.004165589809417725,XArbitraryZVertical,-0.1926952607534254,0.3959318217479711,-0.7832111820400722,-0.4389611377484603,-0.6494395136833191,0.4510250091552734,-0.6122130751609802,0,0,0,-1,-1,61012.46857112501,unknown,2,2025-04-18T10:24:13.823+03:00,2025-04-17T15:44:39.500+03:00,7123,1.071601,0,0,5881.288,4,10,2025-04-18T10:24:21.561+03:00,766653871.9649173,0,107.42,100.5673,1,0.75,2025-04-18T10:21:40.418+03:00,121,2.016666666666667,2025-04-18T08:51:18.885+03:00,0.03057091307199995,1
2025-04-18T10:24:33.194+03:00,1744961073.049429,40.95360440245199,29.14096835387985,93.53751,-1,-1,-1,-1,30,26.84681577818391,-9999,61018.26668191667,-0.65399169921875,0.453216552734375,-0.6082000732421875,61018.26164391667,1.914741069063781,-0.8148311301643638,-0.467917246745566,-0.006192383822053671,0.02019593864679337,-0.01185998320579529,-0.004242062568664551,0.0003571510314941406,0.002634704113006592,XArbitraryZVertical,-0.1926348012801372,0.3959355005587258,-0.7831797338075882,-0.4390404305240088,-0.6493987441062927,0.4510283768177032,-0.6122538447380066,0,0,0,-1,-1,61012.46857112501,unknown,2,2025-04-18T10:24:13.823+03:00,2025-04-17T15:44:39.500+03:00,7123,1.071601,0,0,5881.288,4,10,2025-04-18T10:24:21.561+03:00,766653871.9649173,0,107.42,100.5673,1,0.75,2025-04-18T10:21:40.418+03:00,121,2.016666666666667,2025-04-18T08:51:18.885+03:00,0.03057091307199995,1
2025-04-18T10:24:33.204+03:00,1744961073.049429,40.95360440245199,29.14096835387985,93.53751,-1,-1,-1,-1,30,26.84681577818391,-9999,61018.27675691667,-0.650482177734375,0.4494781494140625,-0.60858154296875,61018.27171991667,1.914601052822015,-0.8147146151111807,-0.4678949978552943,-0.00565975159406662,0.01975305378437042,-0.01366746984422207,-0.004519760608673096,0.002085953950881958,0.004761993885040283,XArbitraryZVertical,-0.1925680561465828,0.3959158762494147,-0.7831596484174393,-0.4391230561486654,-0.6493346691131592,0.451008528470993,-0.6123363375663757,0,0,0,-1,-1,61012.46857112501,unknown,2,2025-04-18T10:24:13.823+03:00,2025-04-17T15:44:39.500+03:00,7123,1.071601,0,0,5881.288,4,10,2025-04-18T10:24:21.561+03:00,766653871.9649173,0,107.42,100.5673,1,0.75,2025-04-18T10:21:40.418+03:00,121,2.016666666666667,2025-04-18T08:51:18.885+03:00,0.03057091307199995,1
2025-04-18T10:24:33.214+03:00,1744961073.049429,40.95360440245199,29.14096835387985,93.53751,-1,-1,-1,-1,30,26.84681577818391,-9999,61018.28683291667,-0.6496429443359375,0.44488525390625,-0.6093902587890625,61018.28179491667,1.914409100682451,-0.8146107481931975,-0.4678967079283767,-0.01259422395378351,0.02085147611796856,-0.01603908091783524,-0.002234041690826416,-0.001348823308944702,0.004325330257415771,XArbitraryZVertical,-0.1924888781137114,0.3959121251059267,-0.7831275417175911,-0.4392184205530754,-0.6492704749107361,0.4510100483894348,-0.6124032139778137,0,0,0,-1,-1,61012.46857112501,unknown,2,2025-04-18T10:24:13.823+03:00,2025-04-17T15:44:39.500+03:00,7123,1.071601,0,0,5881.288,4,10,2025-04-18T10:24:21.561+03:00,766653871.9649173,0,107.42,100.5673,1,0.75,2025-04-18T10:21:40.418+03:00,121,2.016666666666667,2025-04-18T08:51:18.885+03:00,0.03057091307199995,1
2025-04-18T10:24:33.224+03:00,1744961073.049429,40.95360440245199,29.14096835387985,93.53751,-1,-1,-1,-1,30,26.84681577818391,-9999,61018.29690791667,-0.6483917236328125,0.4498748779296875,-0.6072845458984375,61018.29186991667,1.914142130601733,-0.8145471651462712,-0.467897889224661,-0.0182100310921669,0.02237853221595287,-0.01790462620556355,-0.0007779598236083984,-0.006095349788665771,0.003145515918731689,XArbitraryZVertical,-0.1924107810235418,0.3959242483846392,-0.7830750544268699,-0.4393352934140864,-0.6492311358451843,0.4510111212730408,-0.6124441623687744,0,0,0,-1,-1,61012.46857112501,unknown,2,2025-04-18T10:24:13.823+03:00,2025-04-17T15:44:39.500+03:00,7123,1.071601,0,0,5881.288,4,10,2025-04-18T10:24:21.561+03:00,766653871.9649173,0,107.42,100.5673,1,0.75,2025-04-18T10:21:40.418+03:00,121,2.016666666666667,2025-04-18T08:51:18.885+03:00,0.03057091307199995,1
2025-04-18T10:24:33.234+03:00,1744961073.049429,40.95360440245199,29.14096835387985,93.53751,-1,-1,-1,-1,30,26.84681577818391,-9999,61018.30698291667,-0.6496124267578125,0.448760986328125,-0.60601806640625,61018.30194491667,1.913822883678021,-0.8145119533337341,-0.4678960101986302,-0.02050201408565044,0.02159922383725643,-0.01820985786616802,0.001169443130493164,-0.001348197460174561,0.004755914211273193,XArbitraryZVertical,-0.192334351985714,0.39594658388696,-0.7830082544457527,-0.4394676548817865,-0.6492102146148682,0.4510094225406647,-0.6124675869941711,0,0,0,-1,-1,61012.46857112501,unknown,2,2025-04-18T10:24:13.823+03:00,2025-04-17T15:44:39.500+03:00,7123,1.071601,0,0,5881.288,4,10,2025-04-18T10:24:21.561+03:00,766653871.9649173,0,107.42,100.5673,1,0.75,2025-04-18T10:21:40.418+03:00,121,2.016666666666667,2025-04-18T08:51:18.885+03:00,0.03057091307199995,1
2025-04-18T10:24:33.244+03:00,1744961073.049429,40.95360440245199,29.14096835387985,93.53751,-1,-1,-1,-1,30,26.84681577818391,-9999,61018.31705791667,-0.6495361328125,0.4485626220703125,-0.606109619140625,61018.31202091667,1.91346462628178,-0.8144893916976139,-0.4678766060523478,-0.02120562084019184,0.01946443505585194,-0.02042161300778389,0.0004143118858337402,-0.001758098602294922,0.005875170230865479,XArbitraryZVertical,-0.1922603082173306,0.3959695006733382,-0.7829312270489344,-0.4396166336460355,-0.6492027640342712,0.4509921073913574,-0.6124882698059082,0,0,0,-1,-1,61012.46857112501,unknown,2,2025-04-18T10:24:13.823+03:00,2025-04-17T15:44:39.500+03:00,7123,1.071601,0,0,5881.288,4,10,2025-04-18T10:24:21.561+03:00,766653871.9649173,0,107.42,100.5673,1,0.75,2025-04-18T10:21:40.418+03:00,121,2.016666666666667,2025-04-18T08:51:18.885+03:00,0.03057091307199995,1
2025-04-18T10:24:33.254+03:00,1744961073.049429,40.95360440245199,29.14096835387985,93.53751,-1,-1,-1,-1,30,26.84681577818391,-9999,61018.32713291667,-0.646759033203125,0.4492950439453125,-0.608489990234375,61018.32209591667,1.913114472462898,-0.8144628684509306,-0.4678443524269377,-0.01828473247587681,0.02023881487548351,-0.02395379729568958,-0.0002474784851074219,-0.002400666475296021,0.007229924201965332,XArbitraryZVertical,-0.192190057786929,0.3959863953280677,-0.7828560628641695,-0.4397661750132535,-0.6491971611976624,0.4509633183479309,-0.6125155091285706,0,0,0,-1,-1,61012.46857112501,unknown,2,2025-04-18T10:24:13.823+03:00,2025-04-17T15:44:39.500+03:00,7123,1.071601,0,0,5881.288,4,10,2025-04-18T10:24:21.561+03:00,766653871.9649173,0,107.42,100.5673,1,0.75,2025-04-18T10:21:40.418+03:00,121,2.016666666666667,2025-04-18T08:51:18.885+03:00,0.03057091307199995,1
2025-04-18T10:24:33.265+03:00,1744961073.049429,40.95360440245199,29.14096835387985,93.53751,-1,-1,-1,-1,30,26.84681577818391,-9999,61018.33720891667,-0.6473541259765625,0.4505615234375,-0.6123504638671875,61018.33217091667,1.912748817876151,-0.8144501308441323,-0.4677669064540987,-0.0163400936871767,0.02034267783164978,-0.02580842189490795,0.002486228942871094,-0.001889050006866455,0.004973292350769043,XArbitraryZVertical,-0.1921355073959941,0.395992510042984,-0.7827750123092948,-0.4399287869772869,-0.6492147445678711,0.4508942067623138,-0.612547755241394,0,0,0,-1,-1,61012.46857112501,unknown,2,2025-04-18T10:24:13.823+03:00,2025-04-17T15:44:39.500+03:00,7123,1.071601,0,0,5881.288,4,10,2025-04-18T10:24:21.561+03:00,766653871.9649173,0,107.42,100.5673,1,0.75,2025-04-18T10:21:40.418+03:00,121,2.016666666666667,2025-04-18T08:51:18.885+03:00,0.03057091307199995,1
2025-04-18T10:24:33.274+03:00,1744961073.049429,40.95360440245199,29.14096835387985,93.53751,-1,-1,-1,-1,30,26.84681577818391,-9999,61018.34728391667,-0.6459808349609375,0.4464111328125,-0.615264892578125,61018.34224591667,1.912385239616073,-0.8144444377922172,-0.4676914993568913,-0.01930146105587482,0.01915337704122066,-0.02753491699695587,0.002492129802703857,-0.001028269529342651,0.0001633167266845703,XArbitraryZVertical,-0.1920835508936009,0.3960006621680767,-0.7826937384178542,-0.4400886544011991,-0.6492359638214111,0.45082688331604,-0.6125747561454773,0,0,0,-1,-1,61012.46857112501,unknown,2,2025-04-18T10:24:13.823+03:00,2025-04-17T15:44:39.500+03:00,7123,1.071601,0,0,5881.288,4,10,2025-04-18T10:24:21.561+03:00,766653871.9649173,0,107.42,100.5673,1,0.75,2025-04-18T10:21:40.418+03:00,121,2.016666666666667,2025-04-18T08:51:18.885+03:00,0.03057091307199995,1
2025-04-18T10:24:33.285+03:00,1744961073.049429,40.95360440245199,29.14096835387985,93.53751,-1,-1,-1,-1,30,26.84681577818391,-9999,61018.35735891667,-0.64697265625,0.4379119873046875,-0.616729736328125,61018.35232191667,1.911962480142319,-0.8144628220017236,-0.4676391044706805,-0.02590130642056465,0.02326503209769726,-0.02879698947072029,0.003100454807281494,-0.002980411052703857,-0.002044916152954102,XArbitraryZVertical,-0.1920224698982843,0.3960275696153958,-0.7825976813769635,-0.4402619911617324,-0.6492644548416138,0.4507801234722137,-0.6125790476799011,0,0,0,-1,-1,61012.46857112501,unknown,2,2025-04-18T10:24:13.823+03:00,2025-04-17T15:44:39.500+03:00,7123,1.071601,0,0,5881.288,4,10,2025-04-18T10:24:21.561+03:00,766653871.9649173,0,107.42,100.5673,1,0.75,2025-04-18T10:21:40.418+03:00,121,2.016666666666667,2025-04-18T08:51:18.885+03:00,0.03057091307199995,1
2025-04-18T10:24:33.295+03:00,1744961073.049429,40.95360440245199,29.14096835387985,93.53751,-1,-1,-1,-1,30,26.84681577818391,-9999,61018.36743491667,-0.647796630859375,0.4393768310546875,-0.61590576171875,61018.36239691667,1.911440617062647,-0.8145130150930738,-0.4676118963286787,-0.03378326445817947,0.01875516772270203,-0.03388938680291176,0.002941727638244629,-0.01168417930603027,-0.00454103946685791,XArbitraryZVertical,-0.1919468745055262,0.3960795248864046,-0.7824772365621986,-0.4404619406606098,-0.6493040323257446,0.4507558345794678,-0.6125547885894775,0,0,0,-1,-1,61012.46857112501,unknown,2,2025-04-18T10:24:13.823+03:00,2025-04-17T15:44:39.500+03:00,7123,1.071601,0,0,5881.288,4,10,2025-04-18T10:24:21.561+03:00,766653871.9649173,0,107.42,100.5673,1,0.75,2025-04-18T10:21:40.418+03:00,121,2.016666666666667,2025-04-18T08:51:18.885+03:00,0.03057091307199995,1
2025-04-18T10:24:33.305+03:00,1744961073.049429,40.95360440245199,29.14096835387985,93.53751,-1,-1,-1,-1,30,26.84681577818391,-9999,61018.37750991667,-0.6420135498046875,0.44171142578125,-0.6134490966796875,61018.37247191667,1.91082561645534,-0.8146334258450816,-0.4675943671989328,-0.04770280793309212,0.01790455542504787,-0.03781302273273468,0.0012969970703125,-0.01188215613365173,-0.003286302089691162,XArbitraryZVertical,-0.1918773393969121,0.3961591322532563,-0.7823297862962387,-0.4406825422787327,-0.649383544921875,0.4507401883602142,-0.6124820709228516,0,0,0,-1,-1,61012.46857112501,unknown,2,2025-04-18T10:24:13.823+03:00,2025-04-17T15:44:39.500+03:00,7123,1.071601,0,0,5881.288,4,10,2025-04-18T10:24:21.561+03:00,766653871.9649173,0,107.42,100.5673,1,0.75,2025-04-18T10:21:40.418+03:00,121,2.016666666666667,2025-04-18T08:51:18.885+03:00,0.03057091307199995,1
2025-04-18T10:24:33.315+03:00,1744961073.049429,40.95360440245199,29.14096835387985,93.53751,-1,-1,-1,-1,30,26.84681577818391,-9999,61018.38758491667,-0.6427764892578125,0.4344482421875,-0.6133880615234375,61018.38254691667,1.910080545300485,-0.8148102458800648,-0.4676907698882176,-0.0611887238919735,0.01695813238620758,-0.03975443169474602,0.007431387901306152,-0.00880962610244751,-0.001950860023498535,XArbitraryZVertical,-0.1917703523005667,0.3963021485433611,-0.7821510180025536,-0.4409180367486742,-0.6494602560997009,0.4508262574672699,-0.6123374700546265,0,0,0,-1,-1,61012.46857112501,unknown,2,2025-04-18T10:24:13.823+03:00,2025-04-17T15:44:39.500+03:00,7123,1.071601,0,0,5881.288,4,10,2025-04-18T10:24:21.561+03:00,766653871.9649173,0,107.42,100.5673,1,0.75,2025-04-18T10:21:40.418+03:00,121,2.016666666666667,2025-04-18T08:51:18.885+03:00,0.03057091307199995,1
2025-04-18T10:24:33.326+03:00,1744961073.049429,40.95360440245199,29.14096835387985,93.53751,-1,-1,-1,-1,30,26.84681577818391,-9999,61018.39765991667,-0.6401824951171875,0.4392547607421875,-0.6151580810546875,61018.39262291667,1.909153742112145,-0.8151056009040243,-0.4678610815459429,-0.07805878669023514,0.01020062901079655,-0.04821902513504028,0.006671309471130371,-0.01596540212631226,-0.001493453979492188,XArbitraryZVertical,-0.1916518369592982,0.3965136815110732,-0.7819224866228628,-0.4411845754767594,-0.6495851874351501,0.4509782493114471,-0.6120929718017578,0,0,0,-1,-1,61012.46857112501,unknown,2,2025-04-18T10:24:13.823+03:00,2025-04-17T15:44:39.500+03:00,7123,1.071601,0,0,5881.288,4,10,2025-04-18T10:24:21.561+03:00,766653871.9649173,0,107.42,100.5673,1,0.75,2025-04-18T10:21:40.418+03:00,121,2.016666666666667,2025-04-18T08:51:18.885+03:00,0.03057091307199995,1
2025-04-18T10:24:33.335+03:00,1744961073.049429,40.95360440245199,29.14096835387985,93.53751,-1,-1,-1,-1,30,26.84681577818391,-9999,61018.40773591667,-0.6355438232421875,0.440673828125,-0.6162109375,61018.40269791667,1.907949909495174,-0.8155733487477104,-0.4681142546894119,-0.1102988794445992,0.01547382026910782,-0.0585486926138401,0.009270012378692627,-0.01310908794403076,-0.003264188766479492,XArbitraryZVertical,-0.1915210851717311,0.3968177299347386,-0.7816182463198786,-0.4415068601752651,-0.6497882604598999,0.4512042105197906,-0.6117107272148132,0,0,0,-1,-1,61012.46857112501,unknown,2,2025-04-18T10:24:13.823+03:00,2025-04-17T15:44:39.500+03:00,7123,1.071601,0,0,5881.288,4,10,2025-04-18T10:24:21.561+03:00,766653871.9649173,0,107.42,100.5673,1,0.75,2025-04-18T10:21:40.418+03:00,121,2.016666666666667,2025-04-18T08:51:18.885+03:00,0.03057091307199995,1
2025-04-18T10:24:33.345+03:00,1744961073.049429,40.95360440245199,29.14096835387985,93.53751,-1,-1,-1,-1,30,26.84681577818391,-9999,61018.41781091667,-0.646087646484375,0.43621826171875,-0.625518798828125,61018.41277291667,1.906419014361942,-0.8160222177297395,-0.468534716958385,-0.1404163092374802,0.02685830183327198,-0.06540659070014954,0.01390761137008667,-0.009745866060256958,-0.004754066467285156,XArbitraryZVertical,-0.1912681631132286,0.3972052543520381,-0.7812476042772416,-0.4419238001200581,-0.6499245166778564,0.4515793919563293,-0.6112889647483826,0,0,0,-1,-1,61012.46857112501,unknown,2,2025-04-18T10:24:13.823+03:00,2025-04-17T15:44:39.500+03:00,7123,1.071601,0,0,5881.288,4,10,2025-04-18T10:24:21.561+03:00,766653871.9649173,0,107.42,100.5673,1,0.75,2025-04-18T10:21:40.418+03:00,121,2.016666666666667,2025-04-18T08:51:18.885+03:00,0.03057091307199995,1
2025-04-18T10:24:33.355+03:00,1744961073.049429,40.95360440245199,29.14096835387985,93.53751,-1,-1,-1,-1,30,26.84681577818391,-9999,61018.42788591667,-0.6394195556640625,0.43475341796875,-0.64642333984375,61018.42284791667,1.904608392413055,-0.8167931860107501,-0.4690871045433835,-0.1760806292295456,-0.02946149557828903,-0.07752574235200882,0.005484044551849365,-0.01525884866714478,-0.01215529441833496,XArbitraryZVertical,-0.1910457915813134,0.3977349535077027,-0.7807874316018617,-0.442356557755885,-0.6502136588096619,0.4520721733570099,-0.6106168031692505,0,0,0,-1,-1,61012.46857112501,unknown,2,2025-04-18T10:24:13.823+03:00,2025-04-17T15:44:39.500+03:00,7123,1.071601,0,0,5881.288,4,10,2025-04-18T10:24:21.561+03:00,766653871.9649173,0,107.42,100.5673,1,0.75,2025-04-18T10:21:40.418+03:00,121,2.016666666666667,2025-04-18T08:51:18.885+03:00,0.03057091307199995,1
2025-04-18T10:24:33.365+03:00,1744961073.049429,40.95360440245199,29.14096835387985,93.53751,-1,-1,-1,-1,30,26.84681577818391,-9999,61018.43796091667,-0.6128692626953125,0.43170166015625,-0.6456146240234375,61018.43292391667,1.902357438131166,-0.8183721912127158,-0.4698231841443325,-0.2237914204597473,-0.0854019895195961,-0.08556342869997025,0.00841677188873291,-0.01738014817237854,-0.03500151634216309,XArbitraryZVertical,-0.190995578388485,0.3985471015851347,-0.7801571236106453,-0.4427591657577102,-0.6509338617324829,0.4527286291122437,-0.6093617677688599,0,0,0,-1,-1,61012.46857112501,unknown,2,2025-04-18T10:24:13.823+03:00,2025-04-17T15:44:39.500+03:00,7123,1.071601,0,0,5881.288,4,10,2025-04-18T10:24:21.561+03:00,766653871.9649173,0,107.42,100.5673,1,0.75,2025-04-18T10:21:40.418+03:00,121,2.016666666666667,2025-04-18T08:51:18.885+03:00,0.03057091307199995,1
2025-04-18T10:24:33.375+03:00,1744961073.049429,40.95360440245199,29.14096835387985,93.53751,-1,-1,-1,-1,30,26.84681577818391,-9999,61018.44803591667,-0.614654541015625,0.4173431396484375,-0.6518707275390625,61018.44299891667,1.899412756558701,-0.8207394514245543,-0.4708804324887744,-0.3246841430664062,-0.1330085843801498,-0.1141625568270683,0.0367896556854248,-0.02114540338516235,-0.03874754905700684,XArbitraryZVertical,-0.1910167434310156,0.3997077709178039,-0.7793060067108377,-0.4432026615432723,-0.6520240902900696,0.4536710679531097,-0.6074926257133484,0,0,0,-1,-1,61012.46857112501,unknown,2,2025-04-18T10:24:13.823+03:00,2025-04-17T15:44:39.500+03:00,7123,1.071601,0,0,5881.288,4,10,2025-04-18T10:24:21.561+03:00,766653871.9649173,0,107.42,100.5673,1,0.75,2025-04-18T10:21:40.418+03:00,121,2.016666666666667,2025-04-18T08:51:18.885+03:00,0.03057091307199995,1
2025-04-18T10:24:33.385+03:00,1744961073.049429,40.95360440245199,29.14096835387985,93.53751,-1,-1,-1,-1,30,26.84681577818391,-9999,61018.458112,-0.6180419921875,0.3976287841796875,-0.6639862060546875,61018.453074,1.895163950620406,-0.8241214637106203,-0.4725298782279413,-0.4632774293422699,-0.1635310798883438,-0.1461527049541473,0.04044187068939209,-0.0351116955280304,-0.04585981369018555,XArbitraryZVertical,-0.190991596165838,0.4014159402903253,-0.7780840761193005,-0.4438161484840095,-0.6535248160362244,0.4551403820514679,-0.6047748923301697,0,0,0,-1,-1,61012.46857112501,unknown,2,2025-04-18T10:24:13.823+03:00,2025-04-17T15:44:39.500+03:00,7123,1.071601,0,0,5881.288,4,10,2025-04-18T10:24:21.561+03:00,766653871.9649173,0,107.42,100.5673,1,0.75,2025-04-18T10:21:40.418+03:00,121,2.016666666666667,2025-04-18T08:51:18.885+03:00,0.03057091307199995,1
2025-04-18T10:24:33.395+03:00,1744961073.049429,40.95360440245199,29.14096835387985,93.53751,-1,-1,-1,-1,30,26.84681577818391,-9999,61018.46818700001,-0.6147003173828125,0.3865203857421875,-0.6895294189453125,61018.463149,1.889514662559567,-0.828417293727208,-0.4749132052089204,-0.5924910306930542,-0.1844794452190399,-0.1781701296567917,0.03693783283233643,-0.05772510170936584,-0.06153857707977295,XArbitraryZVertical,-0.1908125452235274,0.4037042730740815,-0.7764835056091873,-0.4446200292877623,-0.6553155779838562,0.4572612643241882,-0.6012268662452698,0,0,0,-1,-1,61012.46857112501,unknown,2,2025-04-18T10:24:13.823+03:00,2025-04-17T15:44:39.500+03:00,7123,1.071601,0,0,5881.288,4,10,2025-04-18T10:24:21.561+03:00,766653871.9649173,0,107.42,100.5673,1,0.75,2025-04-18T10:21:40.418+03:00,121,2.016666666666667,2025-04-18T08:51:18.885+03:00,0.03057091307199995,1
2025-04-18T10:24:33.406+03:00,1744961073.049429,40.95360440245199,29.14096835387985,93.53751,-1,-1,-1,-1,30,26.84681577818391,-9999,61018.478262,-0.6083221435546875,0.38580322265625,-0.7344818115234375,61018.473225,1.882944166191338,-0.8334070554576383,-0.4776406088941661,-0.6478320360183716,-0.2180485874414444,-0.1937181949615479,0.04193371534347534,-0.07108950614929199,-0.08840757608413696,XArbitraryZVertical,-0.1905997304399202,0.4063463620805989,-0.7746213609407516,-0.4455515738966245,-0.6573817729949951,0.4596851170063019,-0.597108781337738,0,0,0,-1,-1,61012.46857112501,unknown,2,2025-04-18T10:24:13.823+03:00,2025-04-17T15:44:39.500+03:00,7123,1.071601,0,0,5881.288,4,10,2025-04-18T10:24:21.561+03:00,766653871.9649173,0,107.42,100.5673,1,0.75,2025-04-18T10:21:40.418+03:00,121,2.016666666666667,2025-04-18T08:51:18.885+03:00,0.03057091307199995,1
2025-04-18T10:24:33.416+03:00,1744961073.049429,40.95360440245199,29.14096835387985,93.53751,-1,-1,-1,-1,30,26.84681577818391,-9999,61018.488338,-0.6012115478515625,0.4380340576171875,-0.780120849609375,61018.48330000001,1.876058107994655,-0.8386157685283194,-0.4807482545592301,-0.6757805347442627,-0.1935323178768158,-0.1501844376325607,0.04982870817184448,-0.07888254523277283,-0.1357358694076538,XArbitraryZVertical,-0.1902758940631372,0.4091890984595734,-0.7726791988298205,-0.4464597740267436,-0.6594173908233643,0.4624427556991577,-0.5927187204360962,0,0,0,-1,-1,61012.46857112501,unknown,2,2025-04-18T10:24:13.823+03:00,2025-04-17T15:44:39.500+03:00,7123,1.071601,0,0,5881.288,4,10,2025-04-18T10:24:21.561+03:00,766653871.9649173,0,107.42,100.5673,1,0.75,2025-04-18T10:21:40.418+03:00,121,2.016666666666667,2025-04-18T08:51:18.885+03:00,0.03057091307199995,1
2025-04-18T10:24:33.426+03:00,1744961073.049429,40.95360440245199,29.14096835387985,93.53751,-1,-1,-1,-1,30,26.84681577818391,-9999,61018.498413,-0.600311279296875,0.4510498046875,-0.8291168212890625,61018.49337500001,1.8689925944206,-0.8437828290778195,-0.4844706545743121,-0.7684931755065918,-0.1940886676311493,-0.134813204407692,0.05963319540023804,-0.03403833508491516,-0.1858466267585754,XArbitraryZVertical,-0.1896944258688508,0.4122357713888565,-0.7707201200140671,-0.4472899245849672,-0.6611804366111755,0.4657399952411652,-0.5881553888320923,0,0,0,-1,-1,61012.46857112501,unknown,2,2025-04-18T10:24:13.823+03:00,2025-04-17T15:44:39.500+03:00,7123,1.071601,0,0,5881.288,4,10,2025-04-18T10:24:21.561+03:00,766653871.9649173,0,107.42,100.5673,1,0.75,2025-04-18T10:21:40.418+03:00,121,2.016666666666667,2025-04-18T08:51:18.885+03:00,0.03057091307199995,1
2025-04-18T10:24:33.443+03:00,1744961073.049429,40.95360440245199,29.14096835387985,93.53751,-1,-1,-1,-1,30,26.84681577818391,-9999,61018.50848800001,-0.5914459228515625,0.42291259765625,-0.85455322265625,61018.50345,1.860450789895853,-0.8499254506358361,-0.4890211021712946,-0.9613807797431946,-0.2248139381408691,-0.1727225780487061,0.06311458349227905,-0.01619443297386169,-0.2403199672698975,XArbitraryZVertical,-0.1889088343322726,0.4159019303590752,-0.7683655727733487,-0.4482784020432742,-0.6631817817687988,0.4697619378566742,-0.5826780796051025,0,0,0,-1,-1,61012.46857112501,unknown,2,2025-04-18T10:24:13.823+03:00,2025-04-17T15:44:39.500+03:00,7123,1.071601,0,0,5881.288,4,10,2025-04-18T10:24:21.561+03:00,766653871.9649173,0,107.42,100.5673,1,0.75,2025-04-18T10:21:40.418+03:00,121,2.016666666666667,2025-04-18T08:51:18.885+03:00,0.03057091307199995,1
2025-04-18T10:24:33.446+03:00,1744961073.049429,40.95360440245199,29.14096835387985,93.53751,-1,-1,-1,-1,30,26.84681577818391,-9999,61018.51856300001,-0.5866546630859375,0.4029998779296875,-0.8407745361328125,61018.513526,1.849920697854567,-0.8572402275279075,-0.4948176356400682,-1.185957431793213,-0.2213997691869736,-0.1652044653892517,0.07343727350234985,-0.0497308075428009,-0.2776028513908386,XArbitraryZVertical,-0.1877437834218831,0.4204075857400272,-0.765497253565008,-0.4494703712831349,-0.6653562188148499,0.4748711585998535,-0.5760194659233093,0,0,0,-1,-1,61012.46857112501,unknown,2,2025-04-18T10:24:13.823+03:00,2025-04-17T15:44:39.500+03:00,7123,1.071601,0,0,5881.288,4,10,2025-04-18T10:24:21.561+03:00,766653871.9649173,0,107.42,100.5673,1,0.75,2025-04-18T10:21:40.418+03:00,121,2.016666666666667,2025-04-18T08:51:18.885+03:00,0.03057091307199995,1
2025-04-18T10:24:33.456+03:00,1744961073.049429,40.95360440245199,29.14096835387985,93.53751,-1,-1,-1,-1,30,26.84681577818391,-9999,61018.528639,-0.616363525390625,0.39031982421875,-0.829620361328125,61018.523601,1.837075315505929,-0.8650265467752259,-0.5023335788503944,-1.476284861564636,-0.06998661905527115,-0.1632681041955948,0.08125501871109009,-0.07633605599403381,-0.2747560739517212,XArbitraryZVertical,-0.1856914678528594,0.4257622916489421,-0.7621260954323787,-0.4510087843446925,-0.6670857071876526,0.4814721345901489,-0.5684903264045715,0,0,0,-1,-1,61012.46857112501,unknown,2,2025-04-18T10:24:13.823+03:00,2025-04-17T15:44:39.500+03:00,7123,1.071601,0,0,5881.288,4,10,2025-04-18T10:24:21.561+03:00,766653871.9649173,0,107.42,100.5673,1,0.75,2025-04-18T10:21:40.418+03:00,121,2.016666666666667,2025-04-18T08:51:18.885+03:00,0.03057091307199995,1
2025-04-18T10:24:33.466+03:00,1744961073.049429,40.95360440245199,29.14096835387985,93.53751,-1,-1,-1,-1,30,26.84681577818391,-9999,61018.538714,-0.657958984375,0.3894805908203125,-0.8511199951171875,61018.53367600001,1.821704559582602,-0.872557284671397,-0.5118263712194381,-1.761636137962341,0.01236497983336449,-0.11053566634655,0.05625981092453003,-0.09916064143180847,-0.2689654231071472,XArbitraryZVertical,-0.1823186432733035,0.4318754510871209,-0.7582830862085337,-0.4530455843469448,-0.6678168177604675,0.489770382642746,-0.5604870319366455,0,0,0,-1,-1,61012.46857112501,unknown,2,2025-04-18T10:24:13.823+03:00,2025-04-17T15:44:39.500+03:00,7123,1.071601,0,0,5881.288,4,10,2025-04-18T10:24:21.561+03:00,766653871.9649173,0,107.42,100.5673,1,0.75,2025-04-18T10:21:40.418+03:00,121,2.016666666666667,2025-04-18T08:51:18.885+03:00,0.03057091307199995,1
2025-04-18T10:24:33.476+03:00,1744961073.049429,40.95360440245199,29.14096835387985,93.53751,-1,-1,-1,-1,30,26.84681577818391,-9999,61018.548789,-0.61871337890625,0.388336181640625,-0.85968017578125,61018.543751,1.804493139002568,-0.8819708849112066,-0.5231542460070148,-1.943879842758179,-0.2189524620771408,-0.06569685041904449,0.01384520530700684,-0.1099818050861359,-0.2967525124549866,XArbitraryZVertical,-0.178589328792633,0.4390888218482788,-0.7539275037110925,-0.4548628496818744,-0.6687371730804443,0.4996149837970734,-0.5506137013435364,0,0,0,-1,-1,61012.46857112501,unknown,2,2025-04-18T10:24:13.823+03:00,2025-04-17T15:44:39.500+03:00,7123,1.071601,0,0,5881.288,4,10,2025-04-18T10:24:21.561+03:00,766653871.9649173,0,107.42,100.5673,1,0.75,2025-04-18T10:21:40.418+03:00,121,2.016666666666667,2025-04-18T08:51:18.885+03:00,0.03057091307199995,1
2025-04-18T10:24:33.486+03:00,1744961073.049429,40.95360440245199,29.14096835387985,93.53751,-1,-1,-1,-1,30,26.84681577818391,-9999,61018.55886400001,-0.499725341796875,0.3871002197265625,-0.85980224609375,61018.553827,1.786039410543284,-0.8954200291760533,-0.5350079284075462,-1.977345705032349,-0.6076645255088806,-0.09993072599172592,0.04040020704269409,-0.1215726733207703,-0.3221861124038696,XArbitraryZVertical,-0.1758115452922765,0.4474096860054085,-0.7489726821745313,-0.4560206921483442,-0.6714122295379639,0.50984787940979,-0.5378297567367554,0,0,0,-1,-1,61012.46857112501,unknown,2,2025-04-18T10:24:13.823+03:00,2025-04-17T15:44:39.500+03:00,7123,1.071601,0,0,5881.288,4,10,2025-04-18T10:24:21.561+03:00,766653871.9649173,0,107.42,100.5673,1,0.75,2025-04-18T10:21:40.418+03:00,121,2.016666666666667,2025-04-18T08:51:18.885+03:00,0.03057091307199995,1
2025-04-18T10:24:33.496+03:00,1744961073.049429,40.95360440245199,29.14096835387985,93.53751,-1,-1,-1,-1,30,26.84681577818391,-9999,61018.56894,-0.4644012451171875,0.4129180908203125,-0.87554931640625,61018.563902,1.767508735160313,-0.9128405889052437,-0.5461468133570567,-1.846797704696655,-0.9318979382514954,-0.09735527634620667,0.1630972027778625,-0.1321761608123779,-0.3367058634757996,XArbitraryZVertical,-0.1745763230424135,0.4563437503348365,-0.7436603039767903,-0.4563363479801624,-0.6761434674263,0.5193983912467957,-0.5225470066070557,0,0,0,-1,-1,61012.46857112501,unknown,2,2025-04-18T10:24:13.823+03:00,2025-04-17T15:44:39.500+03:00,7123,1.071601,0,0,5881.288,4,10,2025-04-18T10:24:21.561+03:00,766653871.9649173,0,107.42,100.5673,1,0.75,2025-04-18T10:21:40.418+03:00,121,2.016666666666667,2025-04-18T08:51:18.885+03:00,0.03057091307199995,1
2025-04-18T10:24:33.506+03:00,1744961073.049429,40.95360440245199,29.14096835387985,93.53751,-1,-1,-1,-1,30,26.84681577818391,-9999,61018.579015,-0.4781494140625,0.49530029296875,-0.9164886474609375,61018.57397700001,1.750537022462352,-0.9326949037101564,-0.556164583542726,-1.660808682441711,-1.333626389503479,-0.1400662511587143,0.219249427318573,-0.1211944818496704,-0.3663577437400818,XArbitraryZVertical,-0.1748036278114022,0.4652911929396984,-0.7384842761211287,-0.4556190820835562,-0.682170569896698,0.5279327034950256,-0.5058956146240234,0,0,0,-1,-1,61012.46857112501,unknown,2,2025-04-18T10:24:13.823+03:00,2025-04-17T15:44:39.500+03:00,7123,1.071601,0,0,5881.288,4,10,2025-04-18T10:24:21.561+03:00,766653871.9649173,0,107.42,100.5673,1,0.75,2025-04-18T10:21:40.418+03:00,121,2.016666666666667,2025-04-18T08:51:18.885+03:00,0.03057091307199995,1
2025-04-18T10:24:33.516+03:00,1744961073.049429,40.95360440245199,29.14096835387985,93.53751,-1,-1,-1,-1,30,26.84681577818391,-9999,61018.58909,-0.533111572265625,0.5508270263671875,-0.91680908203125,61018.58405200001,1.733903630577324,-0.9560266734041363,-0.5638155588965352,-1.50010085105896,-1.543227791786194,-0.2276310473680496,0.2137674689292908,-0.05034530162811279,-0.4238778054714203,XArbitraryZVertical,-0.1770033727653489,0.4742575916693029,-0.7330044487891312,-0.4543720591155708,-0.6904672980308533,0.534415066242218,-0.4874990880489349,0,0,0,-1,-1,61012.46857112501,unknown,2,2025-04-18T10:24:13.823+03:00,2025-04-17T15:44:39.500+03:00,7123,1.071601,0,0,5881.288,4,10,2025-04-18T10:24:21.561+03:00,766653871.9649173,0,107.42,100.5673,1,0.75,2025-04-18T10:21:40.418+03:00,121,2.016666666666667,2025-04-18T08:51:18.885+03:00,0.03057091307199995,1
2025-04-18T10:24:33.526+03:00,1744961073.049429,40.95360440245199,29.14096835387985,93.53751,-1,-1,-1,-1,30,26.84681577818391,-9999,61018.59916500001,-0.59674072265625,0.5546875,-0.87567138671875,61018.594128,1.718474011539242,-0.9807697058779025,-0.5702735645853548,-1.37178635597229,-1.721041917800903,-0.1760789155960083,0.1777213215827942,0.008294403553009033,-0.4520879983901978,XArbitraryZVertical,-0.1802425224762431,0.4830568728720949,-0.7276270060781732,-0.4524684499419801,-0.6994346380233765,0.539862334728241,-0.4683373868465424,0,0,0,-1,-1,61012.46857112501,unknown,2,2025-04-18T10:24:13.823+03:00,2025-04-17T15:44:39.500+03:00,7123,1.071601,0,0,5881.288,4,10,2025-04-18T10:24:21.561+03:00,766653871.9649173,0,107.42,100.5673,1,0.75,2025-04-18T10:21:40.418+03:00,121,2.016666666666667,2025-04-18T08:51:18.885+03:00,0.03057091307199995,1
2025-04-18T10:24:33.536+03:00,1744961073.049429,40.95360440245199,29.14096835387985,93.53751,-1,-1,-1,-1,30,26.84681577818391,-9999,61018.60924100001,-0.5931243896484375,0.5661773681640625,-0.8329925537109375,61018.604203,1.703716533690646,-1.006822837094643,-0.5760841798292028,-1.319326162338257,-1.867123961448669,-0.2012370526790619,0.114496111869812,0.008920907974243164,-0.4322957992553711,XArbitraryZVertical,-0.1841869510787746,0.4918722913419137,-0.7222498154425517,-0.4499912617771706,-0.7087344527244568,0.5447443127632141,-0.448273628950119,0,0,0,-1,-1,61012.46857112501,unknown,2,2025-04-18T10:24:13.823+03:00,2025-04-17T15:44:39.500+03:00,7123,1.071601,0,0,5881.288,4,10,2025-04-18T10:24:21.561+03:00,766653871.9649173,0,107.42,100.5673,1,0.75,2025-04-18T10:21:40.418+03:00,121,2.016666666666667,2025-04-18T08:51:18.885+03:00,0.03057091307199995,1
2025-04-18T10:24:33.547+03:00,1744961073.049429,40.95360440245199,29.14096835387985,93.53751,-1,-1,-1,-1,30,26.84681577818391,-9999,61018.619316,-0.6002349853515625,0.5772552490234375,-0.79248046875,61018.614278,1.688491938324554,-1.034688707762627,-0.5812875964276172,-1.39778745174408,-2.003341197967529,-0.2282220721244812,0.1245083808898926,0.01530683040618896,-0.411891907453537,XArbitraryZVertical,-0.1887205343941489,0.5009342199406539,-0.7165567042676825,-0.4472089892192432,-0.7185025215148926,0.5491005182266235,-0.4268989264965057,0,0,0,-1,-1,61012.46857112501,unknown,2,2025-04-18T10:24:13.823+03:00,2025-04-17T15:44:39.500+03:00,7123,1.071601,0,0,5881.288,4,10,2025-04-18T10:24:21.561+03:00,766653871.9649173,0,107.42,100.5673,1,0.75,2025-04-18T10:21:40.418+03:00,121,2.016666666666667,2025-04-18T08:51:18.885+03:00,0.03057091307199995,1
2025-04-18T10:24:33.557+03:00,1744961073.049429,40.95360440245199,29.14096835387985,93.53751,-1,-1,-1,-1,30,26.84681577818391,-9999,61018.629391,-0.6141357421875,0.56304931640625,-0.7549285888671875,61018.62435300001,1.672421770577623,-1.063840542244299,-0.5864181163802287,-1.391134262084961,-2.027760028839111,-0.2245360016822815,0.1295809149742126,0.02327907085418701,-0.393190324306488,XArbitraryZVertical,-0.193364085579914,0.5103032764799253,-0.7105356230479333,-0.4442298191799026,-0.7281680107116699,0.5533811450004578,-0.4044017791748047,0,0,0,-1,-1,61012.46857112501,unknown,2,2025-04-18T10:24:13.823+03:00,2025-04-17T15:44:39.500+03:00,7123,1.071601,0,0,5881.288,4,10,2025-04-18T10:24:21.561+03:00,766653871.9649173,0,107.42,100.5673,1,0.75,2025-04-18T10:21:40.418+03:00,121,2.016666666666667,2025-04-18T08:51:18.885+03:00,0.03057091307199995,1
2025-04-18T10:24:33.567+03:00,1744961073.049429,40.95360440245199,29.14096835387985,93.53751,-1,-1,-1,-1,30,26.84681577818391,-9999,61018.639466,-0.6326446533203125,0.5371551513671875,-0.7427978515625,61018.63442900001,1.655960968569884,-1.093553979926424,-0.590962945071957,-1.44857919216156,-2.049323558807373,-0.2608910799026489,0.1261538863182068,0.009962499141693115,-0.3769766092300415,XArbitraryZVertical,-0.1981289465715456,0.5196435810163742,-0.7043172245653463,-0.4411948315476217,-0.7376194000244141,0.5571609139442444,-0.3814309239387512,0,0,0,-1,-1,61012.46857112501,unknown,2,2025-04-18T10:24:13.823+03:00,2025-04-17T15:44:39.500+03:00,7123,1.071601,0,0,5881.288,4,10,2025-04-18T10:24:21.561+03:00,766653871.9649173,0,107.42,100.5673,1,0.75,2025-04-18T10:21:40.418+03:00,121,2.016666666666667,2025-04-18T08:51:18.885+03:00,0.03057091307199995,1
2025-04-18T10:24:33.577+03:00,1744961073.049429,40.95360440245199,29.14096835387985,93.53751,-1,-1,-1,-1,30,26.84681577818391,-9999,61018.64954200001,-0.6382598876953125,0.5587158203125,-0.674072265625,61018.644504,1.638618122683301,-1.124084612819348,-0.5953599046447625,-1.492348074913025,-2.084792375564575,-0.2304495424032211,0.1160566210746765,-0.0232243537902832,-0.387640655040741,XArbitraryZVertical,-0.2028205769441704,0.5291751814701444,-0.6977956108879186,-0.4380853955671835,-0.7467024326324463,0.5608067512512207,-0.3576748669147491,0,0,0,-1,-1,61012.46857112501,unknown,2,2025-04-18T10:24:13.823+03:00,2025-04-17T15:44:39.500+03:00,7123,1.071601,0,0,5881.288,4,10,2025-04-18T10:24:21.561+03:00,766653871.9649173,0,107.42,100.5673,1,0.75,2025-04-18T10:21:40.418+03:00,121,2.016666666666667,2025-04-18T08:51:18.885+03:00,0.03057091307199995,1
2025-04-18T10:24:33.587+03:00,1744961073.049429,40.95360440245199,29.14096835387985,93.53751,-1,-1,-1,-1,30,26.84681577818391,-9999,61018.659617,-0.6370086669921875,0.599517822265625,-0.5638427734375,61018.654579,1.620786624638992,-1.15513496060544,-0.5996706877362168,-1.527886867523193,-2.074286222457886,-0.2172850072383881,0.1160677671432495,-0.009790003299713135,-0.3536243736743927,XArbitraryZVertical,-0.2074022570711899,0.5388075287536005,-0.6910931502721656,-0.4348114089424102,-0.7552278637886047,0.5643706321716309,-0.333341509103775,0,0,0,-1,-1,61012.46857112501,unknown,2,2025-04-18T10:24:13.823+03:00,2025-04-17T15:44:39.500+03:00,7123,1.071601,0,0,5881.288,4,10,2025-04-18T10:24:21.561+03:00,766653871.9649173,0,107.42,100.5673,1,0.75,2025-04-18T10:21:40.418+03:00,121,2.016666666666667,2025-04-18T08:51:18.885+03:00,0.03057091307199995,1
2025-04-18T10:24:33.597+03:00,1744961073.049429,40.95360440245199,29.14096835387985,93.53751,-1,-1,-1,-1,30,26.84681577818391,-9999,61018.669692,-0.663238525390625,0.628173828125,-0.4600067138671875,61018.664655,1.602684652418442,-1.18609153905582,-0.6036460574833462,-1.492612838745117,-2.049371957778931,-0.2018759548664093,0.126745343208313,0.02633094787597656,-0.2688731551170349,XArbitraryZVertical,-0.2117962446059967,0.5483260200358751,-0.6843000077393335,-0.431525745712207,-0.7630979418754578,0.5676479339599609,-0.3089618384838104,0,0,0,-1,-1,61012.46857112501,unknown,2,2025-04-18T10:24:13.823+03:00,2025-04-17T15:44:39.500+03:00,7123,1.071601,0,0,5881.288,4,10,2025-04-18T10:24:21.561+03:00,766653871.9649173,0,107.42,100.5673,1,0.75,2025-04-18T10:21:40.418+03:00,121,2.016666666666667,2025-04-18T08:51:18.885+03:00,0.03057091307199995,1
2025-04-18T10:24:33.607+03:00,1744961073.049429,40.95360440245199,29.14096835387985,93.53751,-1,-1,-1,-1,30,26.84681577818391,-9999,61018.679767,-0.6857757568359375,0.6140594482421875,-0.3666839599609375,61018.67473000001,1.585201284309903,-1.216831003071909,-0.6071279767406725,-1.433409690856934,-2.077674388885498,-0.1951069980859756,0.1110270023345947,0.0565640926361084,-0.1881942451000214,XArbitraryZVertical,-0.2162607276195093,0.5575782822457884,-0.677603435575388,-0.4280085173778875,-0.7703745365142822,0.5705110430717468,-0.2846755087375641,0,0,0,-1,-1,61012.46857112501,unknown,2,2025-04-18T10:24:13.823+03:00,2025-04-17T15:44:39.500+03:00,7123,1.071601,0,0,5881.288,4,10,2025-04-18T10:24:21.561+03:00,766653871.9649173,0,107.42,100.5673,1,0.75,2025-04-18T10:21:40.418+03:00,121,2.016666666666667,2025-04-18T08:51:18.885+03:00,0.03057091307199995,1
2025-04-18T10:24:33.617+03:00,1744961073.049429,40.95360440245199,29.14096835387985,93.53751,-1,-1,-1,-1,30,26.84681577818391,-9999,61018.689843,-0.7084503173828125,0.5865936279296875,-0.2818450927734375,61018.684805,1.567741819974922,-1.247955911476829,-0.6099017447755305,-1.43233060836792,-2.113319873809814,-0.2291627377271652,0.09364098310470581,0.04475146532058716,-0.1179758012294769,XArbitraryZVertical,-0.2209137463841157,0.5667158042249473,-0.6707795631935924,-0.424364349569371,-0.7773568034172058,0.5727869272232056,-0.2600606381893158,0,0,0,-1,-1,61012.46857112501,unknown,2,2025-04-18T10:24:13.823+03:00,2025-04-17T15:44:39.500+03:00,7123,1.071601,0,0,5881.288,4,10,2025-04-18T10:24:21.561+03:00,766653871.9649173,0,107.42,100.5673,1,0.75,2025-04-18T10:21:40.418+03:00,121,2.016666666666667,2025-04-18T08:51:18.885+03:00,0.03057091307199995,1
2025-04-18T10:24:33.627+03:00,1744961073.049429,40.95360440245199,29.14096835387985,93.53751,-1,-1,-1,-1,30,26.84681577818391,-9999,61018.69991800001,-0.73565673828125,0.5505828857421875,-0.20745849609375,61018.69488,1.550033244944265,-1.279638527723471,-0.6119563468941864,-1.43058168888092,-2.148077726364136,-0.2501625716686249,0.07944017648696899,0.0160757303237915,-0.05613991618156433,XArbitraryZVertical,-0.2257352832636181,0.5758124480496424,-0.6637368710972993,-0.4206387760985498,-0.7840757369995117,0.5744698643684387,-0.2349672168493271,0,0,0,-1,-1,61012.46857112501,unknown,2,2025-04-18T10:24:13.823+03:00,2025-04-17T15:44:39.500+03:00,7123,1.071601,0,0,5881.288,4,10,2025-04-18T10:24:21.561+03:00,766653871.9649173,0,107.42,100.5673,1,0.75,2025-04-18T10:21:40.418+03:00,121,2.016666666666667,2025-04-18T08:51:18.885+03:00,0.03057091307199995,1
2025-04-18T10:24:33.637+03:00,1744961073.049429,40.95360440245199,29.14096835387985,93.53751,-1,-1,-1,-1,30,26.84681577818391,-9999,61018.709993,-0.755828857421875,0.51593017578125,-0.125335693359375,61018.704956,1.531870734045792,-1.31164502159249,-0.6134002585819848,-1.49650502204895,-2.134377479553223,-0.2785331904888153,0.05787742137908936,-0.01975816488265991,-0.007604837417602539,XArbitraryZVertical,-0.2305433588479292,0.5848746147098568,-0.6564595467118471,-0.4169321805875583,-0.7903908491134644,0.5756511688232422,-0.2095428854227066,0,0,0,-1,-1,61012.46857112501,unknown,2,2025-04-18T10:24:13.823+03:00,2025-04-17T15:44:39.500+03:00,7123,1.071601,0,0,5881.288,4,10,2025-04-18T10:24:21.561+03:00,766653871.9649173,0,107.42,100.5673,1,0.75,2025-04-18T10:21:40.418+03:00,121,2.016666666666667,2025-04-18T08:51:18.885+03:00,0.03057091307199995,1
2025-04-18T10:24:33.648+03:00,1744961073.049429,40.95360440245199,29.14096835387985,93.53751,-1,-1,-1,-1,30,26.84681577818391,-9999,61018.720068,-0.76763916015625,0.51123046875,-0.021636962890625,61018.71503100001,1.512473354990105,-1.344333169264673,-0.6142957846255106,-1.596642851829529,-2.13292670249939,-0.2994576692581177,0.04265213012695312,-0.05685186386108398,0.04769538342952728,XArbitraryZVertical,-0.2351914306185004,0.5940903353545151,-0.6487436490608722,-0.4133685243044438,-0.7963143587112427,0.5763831734657288,-0.1834833323955536,0,0,0,-1,-1,61012.46857112501,unknown,2,2025-04-18T10:24:13.823+03:00,2025-04-17T15:44:39.500+03:00,7123,1.071601,0,0,5881.288,4,10,2025-04-18T10:24:21.561+03:00,766653871.9649173,0,107.42,100.5673,1,0.75,2025-04-18T10:21:40.418+03:00,121,2.016666666666667,2025-04-18T08:51:18.885+03:00,0.03057091307199995,1
2025-04-18T10:24:33.657+03:00,1744961073.049429,40.95360440245199,29.14096835387985,93.53751,-1,-1,-1,-1,30,26.84681577818391,-9999,61018.730144,-0.7613677978515625,0.5281829833984375,0.09637451171875,61018.72510600001,1.492450898661972,-1.377105974501708,-0.614690332995214,-1.582347631454468,-2.068650245666504,-0.3034728765487671,0.03467732667922974,-0.06692469120025635,0.1201541572809219,XArbitraryZVertical,-0.2396308546152511,0.6032851307715091,-0.6407866639228784,-0.4098983124666958,-0.8016756176948547,0.5767055749893188,-0.1572482138872147,0,0,0,-1,-1,61012.46857112501,unknown,2,2025-04-18T10:24:13.823+03:00,2025-04-17T15:44:39.500+03:00,7123,1.071601,0,0,5881.288,4,10,2025-04-18T10:24:21.561+03:00,766653871.9649173,0,107.42,100.5673,1,0.75,2025-04-18T10:21:40.418+03:00,121,2.016666666666667,2025-04-18T08:51:18.885+03:00,0.03057091307199995,1
2025-04-18T10:24:33.667+03:00,1744961073.049429,40.95360440245199,29.14096835387985,93.53751,-1,-1,-1,-1,30,26.84681577818391,-9999,61018.74021900001,-0.77703857421875,0.5732269287109375,0.1846466064453125,61018.735181,1.473259414859371,-1.408396195439494,-0.6143026934377208,-1.461665630340576,-1.940964221954346,-0.330267459154129,0.04479604959487915,-0.05221891403198242,0.2157145738601685,XArbitraryZVertical,-0.2438948900985212,0.6119247123213356,-0.6330292623748146,-0.4066170838619489,-0.8064233064651489,0.5763888359069824,-0.1321268528699875,0,0,0,-1,-1,61012.46857112501,unknown,2,2025-04-18T10:24:13.823+03:00,2025-04-17T15:44:39.500+03:00,7123,1.071601,0,0,5881.288,4,10,2025-04-18T10:24:21.561+03:00,766653871.9649173,0,107.42,100.5673,1,0.75,2025-04-18T10:21:40.418+03:00,121,2.016666666666667,2025-04-18T08:51:18.885+03:00,0.03057091307199995,1
2025-04-18T10:24:33.678+03:00,1744961073.049429,40.95360440245199,29.14096835387985,93.53751,-1,-1,-1,-1,30,26.84681577818391,-9999,61018.750294,-0.8133697509765625,0.5682373046875,0.253753662109375,61018.745257,1.455541097470971,-1.437350979455357,-0.6127616868632008,-1.346844553947449,-1.790746212005615,-0.3891394138336182,0.03729122877120972,-0.006967842578887939,0.2844411730766296,XArbitraryZVertical,-0.248065755432225,0.6197111378816077,-0.6256394104734592,-0.4037287166156406,-0.8107897639274597,0.5751289129257202,-0.1088429763913155,0,0,0,-1,-1,61012.46857112501,unknown,2,2025-04-18T10:24:13.823+03:00,2025-04-17T15:44:39.500+03:00,7123,1.071601,0,0,5881.288,4,10,2025-04-18T10:24:21.561+03:00,766653871.9649173,0,107.42,100.5673,1,0.75,2025-04-18T10:21:40.418+03:00,121,2.016666666666667,2025-04-18T08:51:18.885+03:00,0.03057091307199995,1
2025-04-18T10:24:33.688+03:00,1744961073.049429,40.95360440245199,29.14096835387985,93.53751,-1,-1,-1,-1,30,26.84681577818391,-9999,61018.76037,-0.8361053466796875,0.5174102783203125,0.3057708740234375,61018.755332,1.438638722056947,-1.464425005192572,-0.6101078397036181,-1.317474722862244,-1.66430389881134,-0.4719461500644684,0.005703985691070557,0.0008050799369812012,0.3328964114189148,XArbitraryZVertical,-0.2521038106158662,0.6268457453472359,-0.6184204891286558,-0.4013280422632395,-0.8149538636207581,0.572955846786499,-0.08701615780591965,0,0,0,-1,-1,61012.46857112501,unknown,2,2025-04-18T10:24:13.823+03:00,2025-04-17T15:44:39.500+03:00,7123,1.071601,0,0,5881.288,4,10,2025-04-18T10:24:21.561+03:00,766653871.9649173,0,107.42,100.5673,1,0.75,2025-04-18T10:21:40.418+03:00,121,2.016666666666667,2025-04-18T08:51:18.885+03:00,0.03057091307199995,1
2025-04-18T10:24:33.698+03:00,1744961073.049429,40.95360440245199,29.14096835387985,93.53751,-1,-1,-1,-1,30,26.84681577818391,-9999,61018.770445,-0.8409576416015625,0.511322021484375,0.35968017578125,61018.76540700001,1.422099149188333,-1.489990174084859,-0.6063407219535633,-1.296109080314636,-1.524417042732239,-0.5140227079391479,-0.01654434204101562,-0.04799842834472656,0.365966260433197,XArbitraryZVertical,-0.2560037747027838,0.6334803930286103,-0.6112215940593336,-0.3994657503375363,-0.8190575242042542,0.5698643326759338,-0.06632931530475616,0,0,0,-1,-1,61012.46857112501,unknown,2,2025-04-18T10:24:13.823+03:00,2025-04-17T15:44:39.500+03:00,7123,1.071601,0,0,5881.288,4,10,2025-04-18T10:24:21.561+03:00,766653871.9649173,0,107.42,100.5673,1,0.75,2025-04-18T10:21:40.418+03:00,121,2.016666666666667,2025-04-18T08:51:18.885+03:00,0.03057091307199995,1
2025-04-18T10:24:33.708+03:00,1744961073.049429,40.95360440245199,29.14096835387985,93.53751,-1,-1,-1,-1,30,26.84681577818391,-9999,61018.78052,-0.8448944091796875,0.516326904296875,0.405670166015625,61018.775482,1.405877063242312,-1.513600789187005,-0.6020193700424138,-1.292020082473755,-1.331562638282776,-0.5220726728439331,-0.01689088344573975,-0.05606931447982788,0.3988907337188721,XArbitraryZVertical,-0.2594462894237399,0.6396329937791307,-0.6041792477935112,-0.3981517398773389,-0.8228461146354675,0.5663079619407654,-0.04711451381444931,0,0,0,-1,-1,61012.46857112501,unknown,2,2025-04-18T10:24:13.823+03:00,2025-04-17T15:44:39.500+03:00,7123,1.071601,0,0,5881.288,4,10,2025-04-18T10:24:21.561+03:00,766653871.9649173,0,107.42,100.5673,1,0.75,2025-04-18T10:21:40.418+03:00,121,2.016666666666667,2025-04-18T08:51:18.885+03:00,0.03057091307199995,1
2025-04-18T10:24:33.718+03:00,1744961073.049429,40.95360440245199,29.14096835387985,93.53751,-1,-1,-1,-1,30,26.84681577818391,-9999,61018.79059500001,-0.845245361328125,0.5179290771484375,0.415283203125,61018.785558,1.389879591787894,-1.535125497002036,-0.597408080008083,-1.273411870002747,-1.153631567955017,-0.509398877620697,-0.01744908094406128,-0.04727309942245483,0.430548369884491,XArbitraryZVertical,-0.2622952016901131,0.6453356465754155,-0.5973423633400911,-0.3973981680557258,-0.8262704610824585,0.5625013709068298,-0.02948626130819321,0,0,0,-1,-1,61012.46857112501,unknown,2,2025-04-18T10:24:13.823+03:00,2025-04-17T15:44:39.500+03:00,7123,1.071601,0,0,5881.288,4,10,2025-04-18T10:24:21.561+03:00,766653871.9649173,0,107.42,100.5673,1,0.75,2025-04-18T10:21:40.418+03:00,121,2.016666666666667,2025-04-18T08:51:18.885+03:00,0.03057091307199995,1
2025-04-18T10:24:33.728+03:00,1744961073.049429,40.95360440245199,29.14096835387985,93.53751,-1,-1,-1,-1,30,26.84681577818391,-9999,61018.800671,-0.8353729248046875,0.501251220703125,0.4290924072265625,61018.795633,1.374940609346796,-1.554251221833243,-0.592808812484733,-1.138298869132996,-0.976472795009613,-0.464579701423645,-0.01627403497695923,-0.04050427675247192,0.4290199875831604,XArbitraryZVertical,-0.2646509015563542,0.6504607340492952,-0.5909816059850987,-0.3969906687032843,-0.829261302947998,0.5586927533149719,-0.01372146792709827,0,0,0,-1,-1,61012.46857112501,unknown,2,2025-04-18T10:24:13.823+03:00,2025-04-17T15:44:39.500+03:00,7123,1.071601,0,0,5881.288,4,10,2025-04-18T10:24:21.561+03:00,766653871.9649173,0,107.42,100.5673,1,0.75,2025-04-18T10:21:40.418+03:00,121,2.016666666666667,2025-04-18T08:51:18.885+03:00,0.03057091307199995,1
2025-04-18T10:24:33.738+03:00,1744961073.049429,40.95360440245199,29.14096835387985,93.53751,-1,-1,-1,-1,30,26.84681577818391,-9999,61018.810746,-0.84619140625,0.4938201904296875,0.4539031982421875,61018.80570800001,1.362532430354256,-1.56996561013055,-0.5885476314224787,-0.8855552077293396,-0.7677671909332275,-0.394466906785965,-0.004907071590423584,-0.05168986320495605,0.4260602593421936,XArbitraryZVertical,-0.2666223860013714,0.6546503111799788,-0.5855986138230678,-0.3967615553339201,-0.8317475318908691,0.5551536083221436,-0.0006909467047080398,0,0,0,-1,-1,61012.46857112501,unknown,2,2025-04-18T10:24:13.823+03:00,2025-04-17T15:44:39.500+03:00,7123,1.071601,0,0,5881.288,4,10,2025-04-18T10:24:21.561+03:00,766653871.9649173,0,107.42,100.5673,1,0.75,2025-04-18T10:21:40.418+03:00,121,2.016666666666667,2025-04-18T08:51:18.885+03:00,0.03057091307199995,1
2025-04-18T10:24:33.748+03:00,1744961073.049429,40.95360440245199,29.14096835387985,93.53751,-1,-1,-1,-1,30,26.84681577818391,-9999,61018.820821,-0.86767578125,0.5127105712890625,0.4591064453125,61018.81578400001,1.353898222129395,-1.581386475696859,-0.5850330448814902,-0.537195086479187,-0.548225998878479,-0.2943719923496246,-0.01013338565826416,-0.05941379070281982,0.4435181617736816,XArbitraryZVertical,-0.2682721553460701,0.6576050786633041,-0.5816562424218907,-0.3965623377599795,-0.8336471915245056,0.5522269606590271,0.008828777819871902,0,0,0,-1,-1,61012.46857112501,unknown,2,2025-04-18T10:24:13.823+03:00,2025-04-17T15:44:39.500+03:00,7123,1.071601,0,0,5881.288,4,10,2025-04-18T10:24:21.561+03:00,766653871.9649173,0,107.42,100.5673,1,0.75,2025-04-18T10:21:40.418+03:00,121,2.016666666666667,2025-04-18T08:51:18.885+03:00,0.03057091307199995,1
2025-04-18T10:24:33.758+03:00,1744961073.049429,40.95360440245199,29.14096835387985,93.53751,-1,-1,-1,-1,30,26.84681577818391,-9999,61018.83089600001,-0.8858489990234375,0.4989166259765625,0.4873199462890625,61018.825859,1.349508640814194,-1.588141362142512,-0.5824930162118946,-0.2041202485561371,-0.314253568649292,-0.2035433202981949,-0.0308307409286499,-0.03880077600479126,0.4425778388977051,XArbitraryZVertical,-0.2696167977656756,0.6592031446715785,-0.579362610929734,-0.3963546879712384,-0.8349682688713074,0.5501075387001038,0.01448400691151619,0,0,0,-1,-1,61012.46857112501,unknown,2,2025-04-18T10:24:13.823+03:00,2025-04-17T15:44:39.500+03:00,7123,1.071601,0,0,5881.288,4,10,2025-04-18T10:24:21.561+03:00,766653871.9649173,0,107.42,100.5673,1,0.75,2025-04-18T10:21:40.418+03:00,121,2.016666666666667,2025-04-18T08:51:18.885+03:00,0.03057091307199995,1
2025-04-18T10:24:33.768+03:00,1744961073.049429,40.95360440245199,29.14096835387985,93.53751,-1,-1,-1,-1,30,26.84681577818391,-9999,61018.84097200001,-0.89801025390625,0.47515869140625,0.4989013671875,61018.835934,1.348712583436915,-1.590583389771985,-0.5809465913444657,0.05238184705376625,-0.08045943081378937,-0.1029922217130661,-0.04834485054016113,-0.04664874076843262,0.4670571088790894,XArbitraryZVertical,-0.2705653782712216,0.6595940187390149,-0.578559249064575,-0.3962313328013138,-0.8357798457145691,0.5488154888153076,0.01653978787362576,0,0,0,-1,-1,61012.46857112501,unknown,2,2025-04-18T10:24:13.823+03:00,2025-04-17T15:44:39.500+03:00,7123,1.071601,0,0,5881.288,4,10,2025-04-18T10:24:21.561+03:00,766653871.9649173,0,107.42,100.5673,1,0.75,2025-04-18T10:21:40.418+03:00,121,2.016666666666667,2025-04-18T08:51:18.885+03:00,0.03057091307199995,1
2025-04-18T10:24:33.778+03:00,1744961073.049429,40.95360440245199,29.14096835387985,93.53751,-1,-1,-1,-1,30,26.84681577818391,-9999,61018.851047,-0.8966827392578125,0.45635986328125,0.47344970703125,61018.846009,1.350314406385859,-1.589361069091551,-0.5804399109123096,0.193408340215683,0.1497587263584137,-0.001716135535389185,-0.06130713224411011,-0.07100534439086914,0.4847513437271118,XArbitraryZVertical,-0.2709047551016995,0.659069258448684,-0.5789385297770898,-0.3963188503913476,-0.8360775709152222,0.5483918786048889,0.0155233470723033,0,0,0,-1,-1,61012.46857112501,unknown,2,2025-04-18T10:24:13.823+03:00,2025-04-17T15:44:39.500+03:00,7123,1.071601,0,0,5881.288,4,10,2025-04-18T10:24:21.561+03:00,766653871.9649173,0,107.42,100.5673,1,0.75,2025-04-18T10:21:40.418+03:00,121,2.016666666666667,2025-04-18T08:51:18.885+03:00,0.03057091307199995,1
2025-04-18T10:24:33.788+03:00,1744961073.049429,40.95360440245199,29.14096835387985,93.53751,-1,-1,-1,-1,30,26.84681577818391,-9999,61018.861122,-0.8916778564453125,0.4235992431640625,0.428955078125,61018.85608500001,1.353095615052601,-1.585206623876339,-0.5809965335832379,0.2581183612346649,0.3685994446277618,0.09890022128820419,-0.06205886602401733,-0.08872848749160767,0.4665619134902954,XArbitraryZVertical,-0.2704352358918747,0.6579418474133512,-0.5801655253720441,-0.3967181398716057,-0.8358293175697327,0.5488572120666504,0.01204538252204657,0,0,0,-1,-1,61012.46857112501,unknown,2,2025-04-18T10:24:13.823+03:00,2025-04-17T15:44:39.500+03:00,7123,1.071601,0,0,5881.288,4,10,2025-04-18T10:24:21.561+03:00,766653871.9649173,0,107.42,100.5673,1,0.75,2025-04-18T10:21:40.418+03:00,121,2.016666666666667,2025-04-18T08:51:18.885+03:00,0.03057091307199995,1
2025-04-18T10:24:33.798+03:00,1744961073.049429,40.95360440245199,29.14096835387985,93.53751,-1,-1,-1,-1,30,26.84681577818391,-9999,61018.871197,-0.8862457275390625,0.38751220703125,0.4109954833984375,61018.86616000001,1.356325304026384,-1.578658777004479,-0.5824578006898208,0.2868830859661102,0.5780471563339233,0.1865185797214508,-0.05781114101409912,-0.1219775676727295,0.427958607673645,XArbitraryZVertical,-0.2691171695828395,0.6563984561857421,-0.5819855026605616,-0.3975046135401361,-0.8350874185562134,0.5500781536102295,0.006565968506038189,0,0,0,-1,-1,61012.46857112501,unknown,2,2025-04-18T10:24:13.823+03:00,2025-04-17T15:44:39.500+03:00,7123,1.071601,0,0,5881.288,4,10,2025-04-18T10:24:21.561+03:00,766653871.9649173,0,107.42,100.5673,1,0.75,2025-04-18T10:21:40.418+03:00,121,2.016666666666667,2025-04-18T08:51:18.885+03:00,0.03057091307199995,1
2025-04-18T10:24:33.808+03:00,1744961073.049429,40.95360440245199,29.14096835387985,93.53751,-1,-1,-1,-1,30,26.84681577818391,-9999,61018.88127300001,-0.8744049072265625,0.3836822509765625,0.4217376708984375,61018.876235,1.360210026510486,-1.569802651061644,-0.5847062178864726,0.367331326007843,0.7497366070747375,0.2532422244548798,-0.0526464581489563,-0.1607037782669067,0.4115952849388123,XArbitraryZVertical,-0.2670725063752695,0.6544142235962204,-0.5843958670114234,-0.3986174190119941,-0.8338739275932312,0.551954448223114,-0.0008286006050184369,0,0,0,-1,-1,61012.46857112501,unknown,2,2025-04-18T10:24:13.823+03:00,2025-04-17T15:44:39.500+03:00,7123,1.071601,0,0,5881.288,4,10,2025-04-18T10:24:21.561+03:00,766653871.9649173,0,107.42,100.5673,1,0.75,2025-04-18T10:21:40.418+03:00,121,2.016666666666667,2025-04-18T08:51:18.885+03:00,0.03057091307199995,1
2025-04-18T10:24:33.819+03:00,1744961073.049429,40.95360440245199,29.14096835387985,93.53751,-1,-1,-1,-1,30,26.84681577818391,-9999,61018.891348,-0.86090087890625,0.4160919189453125,0.4167327880859375,61018.88631,1.365505262607769,-1.558540622921169,-0.5875427809774055,0.5184759497642517,0.9043609499931335,0.3189457952976227,-0.04336756467819214,-0.1727561950683594,0.4314497113227844,XArbitraryZVertical,-0.2645721389995226,0.6518446641927077,-0.5875099732289406,-0.3999153900462338,-0.8322429656982422,0.5543175339698792,-0.01020023413002491,0,0,0,-1,-1,61012.46857112501,unknown,2,2025-04-18T10:24:13.823+03:00,2025-04-17T15:44:39.500+03:00,7123,1.071601,0,0,5881.288,4,10,2025-04-18T10:24:21.561+03:00,766653871.9649173,0,107.42,100.5673,1,0.75,2025-04-18T10:21:40.418+03:00,121,2.016666666666667,2025-04-18T08:51:18.885+03:00,0.03057091307199995,1
2025-04-18T10:24:33.829+03:00,1744961073.049429,40.95360440245199,29.14096835387985,93.53751,-1,-1,-1,-1,30,26.84681577818391,-9999,61018.901423,-0.8526153564453125,0.4615631103515625,0.3948516845703125,61018.896386,1.372975576311126,-1.544676448086179,-0.5909899420990619,0.7044716477394104,1.021459937095642,0.3879205882549286,-0.03305286169052124,-0.1459284424781799,0.4393813610076904,XArbitraryZVertical,-0.261780548678812,0.6485578920987208,-0.5914993181853364,-0.4012134776527381,-0.8301063776016235,0.5571833252906799,-0.02168720960617065,0,0,0,-1,-1,61012.46857112501,unknown,2,2025-04-18T10:24:13.823+03:00,2025-04-17T15:44:39.500+03:00,7123,1.071601,0,0,5881.288,4,10,2025-04-18T10:24:21.561+03:00,766653871.9649173,0,107.42,100.5673,1,0.75,2025-04-18T10:21:40.418+03:00,121,2.016666666666667,2025-04-18T08:51:18.885+03:00,0.03057091307199995,1
2025-04-18T10:24:33.839+03:00,1744961073.049429,40.95360440245199,29.14096835387985,93.53751,-1,-1,-1,-1,30,26.84681577818391,-9999,61018.911499,-0.8459625244140625,0.4942779541015625,0.3878021240234375,61018.90646100001,1.383138785464555,-1.5280981523679,-0.594932991388219,0.9460161328315735,1.145665526390076,0.4510582983493805,-0.02670997381210327,-0.1045816540718079,0.4338194131851196,XArbitraryZVertical,-0.2588411846658145,0.6444575967882852,-0.5964468398146048,-0.4024014457119407,-0.827431321144104,0.5604532361030579,-0.03535129502415657,0,0,0,-1,-1,61012.46857112501,unknown,2,2025-04-18T10:24:13.823+03:00,2025-04-17T15:44:39.500+03:00,7123,1.071601,0,0,5881.288,4,10,2025-04-18T10:24:21.561+03:00,766653871.9649173,0,107.42,100.5673,1,0.75,2025-04-18T10:21:40.418+03:00,121,2.016666666666667,2025-04-18T08:51:18.885+03:00,0.03057091307199995,1
2025-04-18T10:24:33.849+03:00,1744961073.049429,40.95360440245199,29.14096835387985,93.53751,-1,-1,-1,-1,30,26.84681577818391,-9999,61018.92157400001,-0.8450469970703125,0.5103912353515625,0.3978271484375,61018.916536,1.396354914261098,-1.508447753439041,-0.5989320223703087,1.17128598690033,1.281697869300842,0.4502505660057068,-0.02313977479934692,-0.07230556011199951,0.4372049570083618,XArbitraryZVertical,-0.2558695657910993,0.6393742291879072,-0.6023758294427972,-0.4035776022135822,-0.8243335485458374,0.5637606978416443,-0.05146272107958794,0,0,0,-1,-1,61012.46857112501,unknown,2,2025-04-18T10:24:13.823+03:00,2025-04-17T15:44:39.500+03:00,7123,1.071601,0,0,5881.288,4,10,2025-04-18T10:24:21.561+03:00,766653871.9649173,0,107.42,100.5673,1,0.75,2025-04-18T10:21:40.418+03:00,121,2.016666666666667,2025-04-18T08:51:18.885+03:00,0.03057091307199995,1
2025-04-18T10:24:33.859+03:00,1744961073.049429,40.95360440245199,29.14096835387985,93.53751,-1,-1,-1,-1,30,26.84681577818391,-9999,61018.93164900001,-0.8480682373046875,0.5355377197265625,0.389434814453125,61018.926612,1.411628387141897,-1.486232284562401,-0.6023139541816781,1.256990671157837,1.413751363754272,0.4019564986228943,-0.02314078807830811,-0.05925709009170532,0.4680222868919373,XArbitraryZVertical,-0.2528790748179174,0.6334446838772901,-0.6088919478684415,-0.4050315080060993,-0.8210821747779846,0.5665507316589355,-0.06960000842809677,0,0,0,-1,-1,61012.46857112501,unknown,2,2025-04-18T10:24:13.823+03:00,2025-04-17T15:44:39.500+03:00,7123,1.071601,0,0,5881.288,4,10,2025-04-18T10:24:21.561+03:00,766653871.9649173,0,107.42,100.5673,1,0.75,2025-04-18T10:21:40.418+03:00,121,2.016666666666667,2025-04-18T08:51:18.885+03:00,0.03057091307199995,1
2025-04-18T10:24:33.869+03:00,1744961073.049429,40.95360440245199,29.14096835387985,93.53751,-1,-1,-1,-1,30,26.84681577818391,-9999,61018.941724,-0.8414459228515625,0.5174407958984375,0.4001922607421875,61018.936687,1.427483497662059,-1.462257095166555,-0.6049400377434097,1.258131265640259,1.561894059181213,0.3700907230377197,-0.0302654504776001,-0.03413629531860352,0.4802614450454712,XArbitraryZVertical,-0.2496608084463214,0.6269915028477634,-0.6155737377094941,-0.4069646552659681,-0.8176960349082947,0.5687127709388733,-0.08910227566957474,0,0,0,-1,-1,61012.46857112501,unknown,2,2025-04-18T10:24:13.823+03:00,2025-04-17T15:44:39.500+03:00,7123,1.071601,0,0,5881.288,4,10,2025-04-18T10:24:21.561+03:00,766653871.9649173,0,107.42,100.5673,1,0.75,2025-04-18T10:21:40.418+03:00,121,2.016666666666667,2025-04-18T08:51:18.885+03:00,0.03057091307199995,1
2025-04-18T10:24:33.879+03:00,1744961073.049429,40.95360440245199,29.14096835387985,93.53751,-1,-1,-1,-1,30,26.84681577818391,-9999,61018.9518,-0.8376922607421875,0.4844512939453125,0.4310455322265625,61018.94676200001,1.443229414809761,-1.436816815680326,-0.6069322544723255,1.244850039482117,1.702934861183167,0.3279507458209991,-0.02932822704315186,-0.04866760969161987,0.5062827467918396,XArbitraryZVertical,-0.2460316902238243,0.6201672290181606,-0.6222688800720879,-0.4094416395587309,-0.8140403032302856,0.5703502893447876,-0.1097220331430435,0,0,0,-1,-1,61012.46857112501,unknown,2,2025-04-18T10:24:13.823+03:00,2025-04-17T15:44:39.500+03:00,7123,1.071601,0,0,5881.288,4,10,2025-04-18T10:24:21.561+03:00,766653871.9649173,0,107.42,100.5673,1,0.75,2025-04-18T10:21:40.418+03:00,121,2.016666666666667,2025-04-18T08:51:18.885+03:00,0.03057091307199995,1
2025-04-18T10:24:33.889+03:00,1744961073.049429,40.95360440245199,29.14096835387985,93.53751,-1,-1,-1,-1,30,26.84681577818391,-9999,61018.961875,-0.8491363525390625,0.4750213623046875,0.4432373046875,61018.95683700001,1.459067752954789,-1.409840312298746,-0.6080947514768852,1.299234628677368,1.867119550704956,0.2853057980537415,-0.02733373641967773,-0.08424419164657593,0.560671329498291,XArbitraryZVertical,-0.2420857154241139,0.6128849546780172,-0.6289991183952157,-0.4124642461178771,-0.8101296424865723,0.5713047981262207,-0.131533071398735,0,0,0,-1,-1,61012.46857112501,unknown,2,2025-04-18T10:24:13.823+03:00,2025-04-17T15:44:39.500+03:00,7123,1.071601,0,0,5881.288,4,10,2025-04-18T10:24:21.561+03:00,766653871.9649173,0,107.42,100.5673,1,0.75,2025-04-18T10:21:40.418+03:00,121,2.016666666666667,2025-04-18T08:51:18.885+03:00,0.03057091307199995,1
2025-04-18T10:24:33.899+03:00,1744961073.049429,40.95360440245199,29.14096835387985,93.53751,-1,-1,-1,-1,30,26.84681577818391,-9999,61018.97195000001,-0.853302001953125,0.4851226806640625,0.43206787109375,61018.966913,1.476793097209335,-1.379909609044272,-0.6084767672005225,1.544283509254456,2.064212799072266,0.2937256395816803,-0.04239118099212646,-0.09639847278594971,0.5969458818435669,XArbitraryZVertical,-0.2378845697556584,0.6046259086137673,-0.636319060697909,-0.4158565211786293,-0.8056161999702454,0.5716182589530945,-0.1556768864393234,0,0,0,-1,-1,61012.46857112501,unknown,2,2025-04-18T10:24:13.823+03:00,2025-04-17T15:44:39.500+03:00,7123,1.071601,0,0,5881.288,4,10,2025-04-18T10:24:21.561+03:00,766653871.9649173,0,107.42,100.5673,1,0.75,2025-04-18T10:21:40.418+03:00,121,2.016666666666667,2025-04-18T08:51:18.885+03:00,0.03057091307199995,1
2025-04-18T10:24:33.909+03:00,1744961073.049429,40.95360440245199,29.14096835387985,93.53751,-1,-1,-1,-1,30,26.84681577818391,-9999,61018.98202600001,-0.847564697265625,0.4877471923828125,0.363861083984375,61018.976988,1.497848763265623,-1.346027919386387,-0.6078739074177669,1.842018485069275,2.278464317321777,0.3002410531044006,-0.05305558443069458,-0.08757245540618896,0.6220569610595703,XArbitraryZVertical,-0.2335518456696553,0.594958976080618,-0.6446239680424182,-0.4194488643837424,-0.8002159595489502,0.5711235404014587,-0.1829546988010406,0,0,0,-1,-1,61012.46857112501,unknown,2,2025-04-18T10:24:13.823+03:00,2025-04-17T15:44:39.500+03:00,7123,1.071601,0,0,5881.288,4,10,2025-04-18T10:24:21.561+03:00,766653871.9649173,0,107.42,100.5673,1,0.75,2025-04-18T10:21:40.418+03:00,121,2.016666666666667,2025-04-18T08:51:18.885+03:00,0.03057091307199995,1
2025-04-18T10:24:33.919+03:00,1744961073.049429,40.95360440245199,29.14096835387985,93.53751,-1,-1,-1,-1,30,26.84681577818391,-9999,61018.992101,-0.8291168212890625,0.469390869140625,0.3667449951171875,61018.987063,1.522579189243523,-1.30794912573549,-0.6059750729158528,2.164794445037842,2.473489284515381,0.3099547028541565,-0.05401593446731567,-0.08010762929916382,0.5843865275382996,XArbitraryZVertical,-0.2291162870710658,0.5837140105943484,-0.653985806230044,-0.4231858696326078,-0.7937166690826416,0.5695638060569763,-0.2135673612356186,0,0,0,-1,-1,61012.46857112501,unknown,2,2025-04-18T10:24:13.823+03:00,2025-04-17T15:44:39.500+03:00,7123,1.071601,0,0,5881.288,4,10,2025-04-18T10:24:21.561+03:00,766653871.9649173,0,107.42,100.5673,1,0.75,2025-04-18T10:21:40.418+03:00,121,2.016666666666667,2025-04-18T08:51:18.885+03:00,0.03057091307199995,1
2025-04-18T10:24:33.941+03:00,1744961073.049429,40.95360440245199,29.14096835387985,93.53751,-1,-1,-1,-1,30,26.84681577818391,-9999,61019.002176,-0.784271240234375,0.4978179931640625,0.4189453125,61018.99713800001,1.551560720952087,-1.265419761985552,-0.6023255884020501,2.566172361373901,2.700557470321655,0.3134237229824066,-0.04708129167556763,-0.09584188461303711,0.6095448732376099,XArbitraryZVertical,-0.2246896651952735,0.5706511348578414,-0.6645222165778785,-0.4269452673444955,-0.7858961224555969,0.5665603280067444,-0.2477436661720276,0,0,0,-1,-1,61012.46857112501,unknown,2,2025-04-18T10:24:13.823+03:00,2025-04-17T15:44:39.500+03:00,7123,1.071601,0,0,5881.288,4,10,2025-04-18T10:24:21.561+03:00,766653871.9649173,0,107.42,100.5673,1,0.75,2025-04-18T10:21:40.418+03:00,121,2.016666666666667,2025-04-18T08:51:18.885+03:00,0.03057091307199995,1
2025-04-18T10:24:33.943+03:00,1744961073.049429,40.95360440245199,29.14096835387985,93.53751,-1,-1,-1,-1,30,26.84681577818391,-9999,61019.012251,-0.771240234375,0.535858154296875,0.461761474609375,61019.007214,1.582085375510851,-1.219903736302018,-0.596201268651001,2.536203861236572,2.925424098968506,0.1470384299755096,-0.01290929317474365,-0.07076519727706909,0.6962066888809204,XArbitraryZVertical,-0.2200980783445692,0.5561837289383492,-0.6754461034782863,-0.4312647520987566,-0.7770536541938782,0.5615031719207764,-0.284432977437973,0,0,0,-1,-1,61012.46857112501,unknown,2,2025-04-18T10:24:13.823+03:00,2025-04-17T15:44:39.500+03:00,7123,1.071601,0,0,5881.288,4,10,2025-04-18T10:24:21.561+03:00,766653871.9649173,0,107.42,100.5673,1,0.75,2025-04-18T10:21:40.418+03:00,121,2.016666666666667,2025-04-18T08:51:18.885+03:00,0.03057091307199995,1
2025-04-18T10:24:33.950+03:00,1744961073.049429,40.95360440245199,29.14096835387985,93.53751,-1,-1,-1,-1,30,26.84681577818391,-9999,61019.02232700001,-0.7837371826171875,0.4150848388671875,0.5238800048828125,61019.017289,1.610094478022963,-1.172988212477194,-0.5886492274564538,2.289712190628052,3.306720972061157,0.1679192036390305,-0.002784609794616699,-0.01844912767410278,0.7797004580497742,XArbitraryZVertical,-0.2143441312888833,0.5412564551550388,-0.6858530146928123,-0.4366964423499992,-0.7667466998100281,0.5552381277084351,-0.3221960961818695,0,0,0,-1,-1,61012.46857112501,unknown,2,2025-04-18T10:24:13.823+03:00,2025-04-17T15:44:39.500+03:00,7123,1.071601,0,0,5881.288,4,10,2025-04-18T10:24:21.561+03:00,766653871.9649173,0,107.42,100.5673,1,0.75,2025-04-18T10:21:40.418+03:00,121,2.016666666666667,2025-04-18T08:51:18.885+03:00,0.03057091307199995,1
2025-04-18T10:24:33.960+03:00,1744961073.049429,40.95360440245199,29.14096835387985,93.53751,-1,-1,-1,-1,30,26.84681577818391,-9999,61019.032402,-0.7555694580078125,0.257354736328125,0.600494384765625,61019.027364,1.634799668304635,-1.123608996122066,-0.5816369426346928,2.025235414505005,3.782199144363403,0.2236534357070923,-0.03141969442367554,-0.1109311580657959,0.8727377653121948,XArbitraryZVertical,-0.2062191852097683,0.5261288739301923,-0.6958411133399528,-0.4432462461933557,-0.7534008622169495,0.5493924617767334,-0.3613241016864777,0,0,0,-1,-1,61012.46857112501,unknown,2,2025-04-18T10:24:13.823+03:00,2025-04-17T15:44:39.500+03:00,7123,1.071601,0,0,5881.288,4,10,2025-04-18T10:24:21.561+03:00,766653871.9649173,0,107.42,100.5673,1,0.75,2025-04-18T10:21:40.418+03:00,121,2.016666666666667,2025-04-18T08:51:18.885+03:00,0.03057091307199995,1
2025-04-18T10:24:33.970+03:00,1744961073.049429,40.95360440245199,29.14096835387985,93.53751,-1,-1,-1,-1,30,26.84681577818391,-9999,61019.042477,-0.728759765625,0.202117919921875,0.5819244384765625,61019.03744000001,1.656522526641342,-1.071044499667334,-0.5750688007544095,1.770402193069458,4.312432289123535,0.2708103060722351,-0.02198690176010132,-0.2727285623550415,0.999755322933197,XArbitraryZVertical,-0.1956190997656322,0.5105569562742177,-0.7054487299122131,-0.4510065388666596,-0.7365275621414185,0.543892502784729,-0.4021295309066772,0,0,0,-1,-1,61012.46857112501,unknown,2,2025-04-18T10:24:13.823+03:00,2025-04-17T15:44:39.500+03:00,7123,1.071601,0,0,5881.288,4,10,2025-04-18T10:24:21.561+03:00,766653871.9649173,0,107.42,100.5673,1,0.75,2025-04-18T10:21:40.418+03:00,121,2.016666666666667,2025-04-18T08:51:18.885+03:00,0.03057091307199995,1
2025-04-18T10:24:33.980+03:00,1744961073.049429,40.95360440245199,29.14096835387985,93.53751,-1,-1,-1,-1,30,26.84681577818391,-9999,61019.052552,-0.642364501953125,0.203765869140625,0.5944061279296875,61019.04751500001,1.676324888499036,-1.014015156419251,-0.5689347947820959,1.763596892356873,4.880641460418701,0.3480852246284485,-0.01897889375686646,-0.3326497077941895,1.028402328491211,XArbitraryZVertical,-0.1823764648707143,0.4940982938457839,-0.7149188589654065,-0.459887824843571,-0.7152283191680908,0.5387349724769592,-0.4452114105224609,0,0,0,-1,-1,61012.46857112501,unknown,2,2025-04-18T10:24:13.823+03:00,2025-04-17T15:44:39.500+03:00,7123,1.071601,0,0,5881.288,4,10,2025-04-18T10:24:21.561+03:00,766653871.9649173,0,107.42,100.5673,1,0.75,2025-04-18T10:21:40.418+03:00,121,2.016666666666667,2025-04-18T08:51:18.885+03:00,0.03057091307199995,1
2025-04-18T10:24:33.990+03:00,1744961073.049429,40.95360440245199,29.14096835387985,93.53751,-1,-1,-1,-1,30,26.84681577818391,-9999,61019.06262800001,-0.5354766845703125,0.3096160888671875,0.5970458984375,61019.05759,1.698443509452869,-0.9500482506486464,-0.5609363447718586,2.248359441757202,5.472260475158691,0.3722698986530304,0.03308862447738647,-0.3336150646209717,1.086215496063232,XArbitraryZVertical,-0.1673495611943142,0.4751194826471795,-0.725183133998016,-0.4694305199720733,-0.6887893080711365,0.5319792628288269,-0.4925112128257751,0,0,0,-1,-1,61012.46857112501,unknown,2,2025-04-18T10:24:13.823+03:00,2025-04-17T15:44:39.500+03:00,7123,1.071601,0,0,5881.288,4,10,2025-04-18T10:24:21.561+03:00,766653871.9649173,0,107.42,100.5673,1,0.75,2025-04-18T10:21:40.418+03:00,121,2.016666666666667,2025-04-18T08:51:18.885+03:00,0.03057091307199995,1
2025-04-18T10:24:34.000+03:00,1744961073.049429,40.95360440245199,29.14096835387985,93.53751,-1,-1,-1,-1,30,26.84681577818391,-9999,61019.07270300001,-0.4749908447265625,0.473724365234375,0.5992431640625,61019.067665,1.727035017561076,-0.8756530427616865,-0.547650411455658,3.32210636138916,6.407516479492188,0.5955190658569336,0.1081776022911072,-0.2305368185043335,1.141778707504272,XArbitraryZVertical,-0.1511341132809007,0.4513832910426991,-0.7372800604776919,-0.4794056448693479,-0.6556477546691895,0.520682692527771,-0.5468232035636902,0,0,0,-1,-1,61012.46857112501,unknown,2,2025-04-18T10:24:13.823+03:00,2025-04-17T15:44:39.500+03:00,7123,1.071601,0,0,5881.288,4,10,2025-04-18T10:24:21.561+03:00,766653871.9649173,0,107.42,100.5673,1,0.75,2025-04-18T10:21:40.418+03:00,121,2.016666666666667,2025-04-18T08:51:18.885+03:00,0.03057091307199995,1
2025-04-18T10:24:34.010+03:00,1744961073.049429,40.95360440245199,29.14096835387985,93.53751,-1,-1,-1,-1,30,26.84681577818391,-9999,61019.082778,-0.3836822509765625,0.69036865234375,-0.3612823486328125,61019.077741,1.770779575814462,-0.784574709899028,-0.5200462151083476,5.661141872406006,5.884092330932617,-0.2138419449329376,0.1330470442771912,-0.04100286960601807,1.222100973129272,XArbitraryZVertical,-0.1356347055644348,0.4177779172861247,-0.753523955943179,-0.4891487530996977,-0.6131190657615662,0.496920257806778,-0.6141296625137329,0,0,0,-1,-1,61012.46857112501,unknown,2,2025-04-18T10:24:13.823+03:00,2025-04-17T15:44:39.500+03:00,7123,1.071601,0,0,5881.288,4,10,2025-04-18T10:24:21.561+03:00,766653871.9649173,0,107.42,100.5673,1,0.75,2025-04-18T10:21:40.418+03:00,121,2.016666666666667,2025-04-18T08:51:18.885+03:00,0.03057091307199995,1
2025-04-18T10:24:34.020+03:00,1744961073.049429,40.95360440245199,29.14096835387985,93.53751,-1,-1,-1,-1,30,26.84681577818391,-9999,61019.092854,0.07061767578125,1.430892944335938,-4.322540283203125,61019.08781600001,1.810397313683016,-0.7426169075440822,-0.4835460153058225,4.559106349945068,-0.7099922299385071,0.05143549665808678,0.1952486038208008,0.1744369566440582,0.5936463475227356,XArbitraryZVertical,-0.1393105982045388,0.393029946940553,-0.7652752508953076,-0.4903812811148885,-0.5986909866333008,0.4649215638637543,-0.6522400379180908,0,0,0,-1,-1,61012.46857112501,unknown,2,2025-04-18T10:24:13.823+03:00,2025-04-17T15:44:39.500+03:00,7123,1.071601,0,0,5881.288,4,10,2025-04-18T10:24:21.561+03:00,766653871.9649173,0,107.42,100.5673,1,0.75,2025-04-18T10:21:40.418+03:00,121,2.016666666666667,2025-04-18T08:51:18.885+03:00,0.03057091307199995,1
2025-04-18T10:24:34.030+03:00,1744961073.049429,40.95360440245199,29.14096835387985,93.53751,-1,-1,-1,-1,30,26.84681577818391,-9999,61019.102929,2.508529663085938,0.067901611328125,-4.345458984375,61019.097891,1.838842892410224,-0.7685751007576052,-0.4498048958429697,3.153824329376221,-4.460597515106201,-0.2780478596687317,0.5703213810920715,0.9199617505073547,-3.275075912475586,XArbitraryZVertical,-0.1652841075630987,0.385984591561458,-0.7693720429521363,-0.4814185253526118,-0.625970184803009,0.4347898364067078,-0.6473941206932068,0,0,0,-1,-1,61012.46857112501,unknown,2,2025-04-18T10:24:13.823+03:00,2025-04-17T15:44:39.500+03:00,7123,1.071601,0,0,5881.288,4,10,2025-04-18T10:24:21.561+03:00,766653871.9649173,0,107.42,100.5673,1,0.75,2025-04-18T10:21:40.418+03:00,121,2.016666666666667,2025-04-18T08:51:18.885+03:00,0.03057091307199995,1
2025-04-18T10:24:34.040+03:00,1744961073.049429,40.95360440245199,29.14096835387985,93.53751,-1,-1,-1,-1,30,26.84681577818391,-9999,61019.11300400001,2.185653686523438,-1.541107177734375,-3.715362548828125,61019.107966,1.851572508769903,-0.7981216692370843,-0.437642549916056,0.5537747144699097,-2.583751201629639,0.1128178685903549,2.794191122055054,0.001640200614929199,-3.847533702850342,XArbitraryZVertical,-0.1828315741427519,0.3878668992940544,-0.7694578980669715,-0.4733567557171092,-0.6485612392425537,0.4238053858280182,-0.6322637796401978,0,0,0,-1,-1,61012.46857112501,unknown,2,2025-04-18T10:24:13.823+03:00,2025-04-17T15:44:39.500+03:00,7123,1.071601,0,0,5881.288,4,10,2025-04-18T10:24:21.561+03:00,766653871.9649173,0,107.42,100.5673,1,0.75,2025-04-18T10:21:40.418+03:00,121,2.016666666666667,2025-04-18T08:51:18.885+03:00,0.03057091307199995,1
2025-04-18T10:24:34.050+03:00,1744961073.049429,40.95360440245199,29.14096835387985,93.53751,-1,-1,-1,-1,30,26.84681577818391,-9999,61019.123079,-0.90020751953125,0.1417236328125,-1.756927490234375,61019.118042,1.853852083317945,-0.8108101972600551,-0.4394270907848933,-0.3051376044750214,-0.2127487063407898,0.4120373427867889,3.257269859313965,-2.00765061378479,-3.229931831359863,XArbitraryZVertical,-0.1876132308783575,0.3912420930648049,-0.7688822544258376,-0.4696287933206145,-0.6559820771217346,0.4254210591316223,-0.6234617829322815,0,0,0,-1,-1,61012.46857112501,unknown,2,2025-04-18T10:24:13.823+03:00,2025-04-17T15:44:39.500+03:00,7123,1.071601,0,0,5881.288,4,10,2025-04-18T10:24:21.561+03:00,766653871.9649173,0,107.42,100.5673,1,0.75,2025-04-18T10:21:40.418+03:00,121,2.016666666666667,2025-04-18T08:51:18.885+03:00,0.03057091307199995,1
2025-04-18T10:24:34.060+03:00,1744961073.049429,40.95360440245199,29.14096835387985,93.53751,-1,-1,-1,-1,30,26.84681577818391,-9999,61019.133155,-1.118148803710938,0.3039703369140625,-1.550125122070312,61019.128117,1.856625199042218,-0.8059763943620299,-0.4449550621367834,0.03364937007427216,0.7520363926887512,0.6462202072143555,-0.07567483186721802,-0.4918644428253174,-1.33141815662384,XArbitraryZVertical,-0.1846184464494759,0.3916916045712859,-0.7701724253544084,-0.4683248912044941,-0.6512539386749268,0.4304173290729523,-0.6249874234199524,0,0,0,-1,-1,61012.46857112501,unknown,2,2025-04-18T10:24:13.823+03:00,2025-04-17T15:44:39.500+03:00,7123,1.071601,0,0,5881.288,4,10,2025-04-18T10:24:21.561+03:00,766653871.9649173,0,107.42,100.5673,1,0.75,2025-04-18T10:21:40.418+03:00,121,2.016666666666667,2025-04-18T08:51:18.885+03:00,0.03057091307199995,1
2025-04-18T10:24:34.071+03:00,1744961073.049429,40.95360440245199,29.14096835387985,93.53751,-1,-1,-1,-1,30,26.84681577818391,-9999,61019.14323,-1.382400512695312,0.102508544921875,-1.037551879882812,61019.13819200001,1.863117866281242,-0.7949230040402926,-0.4453095741526931,0.6260301470756531,0.8681510090827942,0.202473908662796,-0.4466690421104431,-0.04328608512878418,-0.8892298936843872,XArbitraryZVertical,-0.1815140473880791,0.3886286835669513,-0.7727152533142964,-0.4679013585390112,-0.6441971063613892,0.4307372868061066,-0.632040798664093,0,0,0,-1,-1,61012.46857112501,unknown,2,2025-04-18T10:24:13.823+03:00,2025-04-17T15:44:39.500+03:00,7123,1.071601,0,0,5881.288,4,10,2025-04-18T10:24:21.561+03:00,766653871.9649173,0,107.42,100.5673,1,0.75,2025-04-18T10:21:40.418+03:00,121,2.016666666666667,2025-04-18T08:51:18.885+03:00,0.03057091307199995,1
2025-04-18T10:24:34.081+03:00,1744961073.049429,40.95360440245199,29.14096835387985,93.53751,-1,-1,-1,-1,30,26.84681577818391,-9999,61019.15330500001,-0.9609832763671875,0.749176025390625,-0.3543548583984375,61019.148268,1.868847108092697,-0.7850821195393435,-0.4410558098738954,0.6877148151397705,0.5784616470336914,-0.04994448646903038,-0.7517251372337341,-0.376570999622345,-0.5179529786109924,XArbitraryZVertical,-0.1800988446851205,0.3843755207506702,-0.7748172952786053,-0.4684847639928498,-0.6392355561256409,0.42689448595047,-0.6396397352218628,0,0,0,-1,-1,61012.46857112501,unknown,2,2025-04-18T10:24:13.823+03:00,2025-04-17T15:44:39.500+03:00,7123,1.071601,0,0,5881.288,4,10,2025-04-18T10:24:21.561+03:00,766653871.9649173,0,107.42,100.5673,1,0.75,2025-04-18T10:21:40.418+03:00,121,2.016666666666667,2025-04-18T08:51:18.885+03:00,0.03057091307199995,1
2025-04-18T10:24:34.091+03:00,1744961073.049429,40.95360440245199,29.14096835387985,93.53751,-1,-1,-1,-1,30,26.84681577818391,-9999,61019.16338100001,-0.811126708984375,0.9664764404296875,-0.216827392578125,61019.158343,1.873552780875319,-0.7775355733361676,-0.4356968775596521,0.6553446054458618,0.5786626935005188,-0.1434770971536636,-0.3776552677154541,0.2606664896011353,0.2475681304931641,XArbitraryZVertical,-0.1796852289458581,0.3803681224558849,-0.7764420137607621,-0.4692241720657165,-0.6359861493110657,0.4220422804355621,-0.6460666060447693,0,0,0,-1,-1,61012.46857112501,unknown,2,2025-04-18T10:24:13.823+03:00,2025-04-17T15:44:39.500+03:00,7123,1.071601,0,0,5881.288,4,10,2025-04-18T10:24:21.561+03:00,766653871.9649173,0,107.42,100.5673,1,0.75,2025-04-18T10:21:40.418+03:00,121,2.016666666666667,2025-04-18T08:51:18.885+03:00,0.03057091307199995,1
