loggingTime(txt),locationTimestamp_since1970(s),locationLatitude(WGS84),locationLongitude(WGS84),locationAltitude(m),locationSpeed(m/s),locationSpeedAccuracy(m/s),locationCourse(°),locationCourseAccuracy(°),locationVerticalAccuracy(m),locationHorizontalAccuracy(m),locationFloor(Z),accelerometerTimestamp_sinceReboot(s),accelerometerAccelerationX(G),accelerometerAccelerationY(G),accelerometerAccelerationZ(G),motionTimestamp_sinceReboot(s),motionYaw(rad),motionRoll(rad),motionPitch(rad),motionRotationRateX(rad/s),motionRotationRateY(rad/s),motionRotationRateZ(rad/s),motionUserAccelerationX(G),motionUserAccelerationY(G),motionUserAccelerationZ(G),motionAttitudeReferenceFrame(txt),motionQuaternionX(R),motionQuaternionY(R),motionQuaternionZ(R),motionQuaternionW(R),motionGravityX(G),motionGravityY(G),motionGravityZ(G),motionMagneticFieldX(µT),motionMagneticFieldY(µT),motionMagneticFieldZ(µT),motionHeading(°),motionMagneticFieldCalibrationAccuracy(Z),activityTimestamp_sinceReboot(s),activity(txt),activityActivityConfidence(Z),activityActivityStartDate(txt),pedometerStartDate(txt),pedometerNumberofSteps(N),pedometerAverageActivePace(s/m),pedometerCurrentPace(s/m),pedometerCurrentCadence(steps/s),pedometerDistance(m),pedometerFloorAscended(N),pedometerFloorDescended(N),pedometerEndDate(txt),altimeterTimestamp_sinceReboot(s),altimeterReset(bool),altimeterRelativeAltitude(m),altimeterPressure(kPa),batteryState(N),batteryLevel(R),heartRateBPMTimestamp(txt),heartRateBPM(N),heartRateBPS(R),heartRateVariabilityTimestamp(txt),heartRateVariability(ms),label
2025-04-22T11:02:08.938+03:00,1745308928.387496,40.95218625471538,29.14025411606978,76.06111,-1,-1,-1,-1,30,23.97249025624534,-9999,27404.67825816667,-0.6494293212890625,0.6096038818359375,-0.1297607421875,27404.67071816667,-1.322750436655548,-1.347663346786214,-0.7405304365485315,-0.02497344091534615,-0.117296002805233,0.00699284253641963,-0.04019761085510254,-0.09086316823959351,0.0257602334022522,XArbitraryZVertical,0.580430237901987,0.2853663545221796,0.2692469464051669,-0.7135634159768545,-0.7198120951652527,0.6746795177459717,-0.1633335649967194,0,0,0,-1,-1,27398.99798816667,unknown,2,2025-04-22T11:01:23.743+03:00,2025-04-21T17:08:51.449+03:00,7097,0.9398554,0,0,5930.618,5,20,2025-04-22T11:01:54.697+03:00,767001673.5380644,0,-22.1,100.4668,1,0.95,2025-04-22T11:01:09.511+03:00,84,1.4,2025-04-22T09:54:17.825+03:00,0.02225348692287972,0
2025-04-22T11:02:08.939+03:00,1745308928.387496,40.95218625471538,29.14025411606978,76.06111,-1,-1,-1,-1,30,23.97249025624534,-9999,27404.68833416667,-0.707977294921875,0.759490966796875,-0.162139892578125,27404.68079416667,-1.322984695274514,-1.348668338185682,-0.7406590283609281,-0.003463755128905177,-0.03307126462459564,0.009774980135262012,0.05973505973815918,-0.1221775412559509,0.05097287893295288,XArbitraryZVertical,0.580626931496146,0.2856166663006747,0.268998126830617,-0.7133970957971609,-0.7198913097381592,0.6747744083404541,-0.162590965628624,0,0,0,-1,-1,27398.99798816667,unknown,2,2025-04-22T11:01:23.743+03:00,2025-04-21T17:08:51.449+03:00,7097,0.9398554,0,0,5930.618,5,20,2025-04-22T11:01:54.697+03:00,767001673.5380644,0,-22.1,100.4668,1,0.95,2025-04-22T11:01:09.511+03:00,84,1.4,2025-04-22T09:54:17.825+03:00,0.02225348692287972,0
2025-04-22T11:02:08.943+03:00,1745308928.387496,40.95218625471538,29.14025411606978,76.06111,-1,-1,-1,-1,30,23.97249025624534,-9999,27404.69841016667,-0.7582244873046875,0.706573486328125,-0.1616058349609375,27404.69087016667,-1.322834853701171,-1.348388699344197,-0.7408135673528731,0.01295969262719154,0.05826051160693169,0.02538163773715496,0.04275739192962646,0.04883575439453125,0.005710482597351074,XArbitraryZVertical,0.5806016093604892,0.2855120635973481,0.2689769415889217,-0.7134675414854662,-0.719744086265564,0.6748884916305542,-0.1627692729234695,0,0,0,-1,-1,27398.99798816667,unknown,2,2025-04-22T11:01:23.743+03:00,2025-04-21T17:08:51.449+03:00,7097,0.9398554,0,0,5930.618,5,20,2025-04-22T11:01:54.697+03:00,767001673.5380644,0,-22.1,100.4668,1,0.95,2025-04-22T11:01:09.511+03:00,84,1.4,2025-04-22T09:54:17.825+03:00,0.02225348692287972,0
2025-04-22T11:02:08.952+03:00,1745308928.387496,40.95218625471538,29.14025411606978,76.06111,-1,-1,-1,-1,30,23.97249025624534,-9999,27404.70848616667,-0.725189208984375,0.6280670166015625,-0.1558685302734375,27404.70094616667,-1.3227714409598,-1.347861091781613,-0.7410665059964903,-0.009962134994566441,0.02819741889834404,0.02941965498030186,-0.02985221147537231,0.0679667592048645,0.0001930594444274902,XArbitraryZVertical,0.5805767089686096,0.2852631379829671,0.2690274620776907,-0.7135683643676646,-0.7194916605949402,0.6750751137733459,-0.1631112545728683,0,0,0,-1,-1,27398.99798816667,unknown,2,2025-04-22T11:01:23.743+03:00,2025-04-21T17:08:51.449+03:00,7097,0.9398554,0,0,5930.618,5,20,2025-04-22T11:01:54.697+03:00,767001673.5380644,0,-22.1,100.4668,1,0.95,2025-04-22T11:01:09.511+03:00,84,1.4,2025-04-22T09:54:17.825+03:00,0.02225348692287972,0
2025-04-22T11:02:08.963+03:00,1745308928.387496,40.95218625471538,29.14025411606978,76.06111,-1,-1,-1,-1,30,23.97249025624534,-9999,27404.71856216667,-0.69366455078125,0.642242431640625,-0.159423828125,27404.71102216667,-1.322983879584997,-1.348054733354371,-0.7413109286416298,-0.0329100601375103,-0.03407767415046692,0.0149333905428648,-0.02371025085449219,-0.02700120210647583,0.005266308784484863,XArbitraryZVertical,0.5806863244991721,0.2851940722566022,0.2689696862896261,-0.7135285410328548,-0.7193622589111328,0.6752554178237915,-0.1629354655742645,0,0,0,-1,-1,27398.99798816667,unknown,2,2025-04-22T11:01:23.743+03:00,2025-04-21T17:08:51.449+03:00,7097,0.9398554,0,0,5930.618,5,20,2025-04-22T11:01:54.697+03:00,767001673.5380644,0,-22.1,100.4668,1,0.95,2025-04-22T11:01:09.511+03:00,84,1.4,2025-04-22T09:54:17.825+03:00,0.02225348692287972,0
2025-04-22T11:02:08.972+03:00,1745308928.387496,40.95218625471538,29.14025411606978,76.06111,-1,-1,-1,-1,30,23.97249025624534,-9999,27404.72863816667,-0.7080841064453125,0.694549560546875,-0.1696624755859375,27404.72109816667,-1.323352834404024,-1.348678208329837,-0.7415200975265923,-0.02529861405491829,-0.03457821533083916,0.008758917450904846,0.0189475417137146,-0.04804474115371704,0.006144702434539795,XArbitraryZVertical,0.5808683146907037,0.2852439122197062,0.2688540699363824,-0.7134040787533883,-0.7193259596824646,0.6754096746444702,-0.162455826997757,0,0,0,-1,-1,27398.99798816667,unknown,2,2025-04-22T11:01:23.743+03:00,2025-04-21T17:08:51.449+03:00,7097,0.9398554,0,0,5930.618,5,20,2025-04-22T11:01:54.697+03:00,767001673.5380644,0,-22.1,100.4668,1,0.95,2025-04-22T11:01:09.511+03:00,84,1.4,2025-04-22T09:54:17.825+03:00,0.02225348692287972,0
2025-04-22T11:02:08.983+03:00,1745308928.387496,40.95218625471538,29.14025411606978,76.06111,-1,-1,-1,-1,30,23.97249025624534,-9999,27404.73871416667,-0.7294158935546875,0.707855224609375,-0.17413330078125,27404.73117416667,-1.323547989549576,-1.348993225614812,-0.7416727969723806,-0.009150802157819271,-0.003799264784902334,0.008533081039786339,0.02075964212417603,0.001861035823822021,-0.004785731434822083,XArbitraryZVertical,0.5809717098912746,0.2852518246243788,0.2687838619025088,-0.7133432106687133,-0.7192765474319458,0.6755222678184509,-0.1622065305709839,0,0,0,-1,-1,27398.99798816667,unknown,2,2025-04-22T11:01:23.743+03:00,2025-04-21T17:08:51.449+03:00,7097,0.9398554,0,0,5930.618,5,20,2025-04-22T11:01:54.697+03:00,767001673.5380644,0,-22.1,100.4668,1,0.95,2025-04-22T11:01:09.511+03:00,84,1.4,2025-04-22T09:54:17.825+03:00,0.02225348692287972,0
2025-04-22T11:02:08.993+03:00,1745308928.387496,40.95218625471538,29.14025411606978,76.06111,-1,-1,-1,-1,30,23.97249025624534,-9999,27404.74879016667,-0.7272186279296875,0.6876678466796875,-0.167938232421875,27404.74125016667,-1.32348982398068,-1.34890332355722,-0.7417465343665788,0.01171865966171026,0.009915083646774292,0.008136337623000145,-0.005167245864868164,0.03362119197845459,-0.01057618856430054,XArbitraryZVertical,0.5809673994336916,0.2852135534679535,0.2687658623896143,-0.7133687513320172,-0.7192133069038391,0.6755766272544861,-0.1622602194547653,0,0,0,-1,-1,27398.99798816667,unknown,2,2025-04-22T11:01:23.743+03:00,2025-04-21T17:08:51.449+03:00,7097,0.9398554,0,0,5930.618,5,20,2025-04-22T11:01:54.697+03:00,767001673.5380644,0,-22.1,100.4668,1,0.95,2025-04-22T11:01:09.511+03:00,84,1.4,2025-04-22T09:54:17.825+03:00,0.02225348692287972,0
2025-04-22T11:02:09.003+03:00,1745308928.387496,40.95218625471538,29.14025411606978,76.06111,-1,-1,-1,-1,30,23.97249025624534,-9999,27404.75886616667,-0.7182769775390625,0.6760101318359375,-0.15814208984375,27404.75132616667,-1.323284814214843,-1.348733941074689,-0.7417250927349522,0.0192631296813488,-0.001353816594928503,-0.0001828452222980559,-0.01119256019592285,0.01991939544677734,-0.008726909756660461,XArbitraryZVertical,0.5809107292470276,0.2852194016544247,0.2687487314440339,-0.7134190310535476,-0.7191999554634094,0.6755608320236206,-0.1623852401971817,0,0,0,-1,-1,27398.99798816667,unknown,2,2025-04-22T11:01:23.743+03:00,2025-04-21T17:08:51.449+03:00,7097,0.9398554,0,0,5930.618,5,20,2025-04-22T11:01:54.697+03:00,767001673.5380644,0,-22.1,100.4668,1,0.95,2025-04-22T11:01:09.511+03:00,84,1.4,2025-04-22T09:54:17.825+03:00,0.02225348692287972,0
2025-04-22T11:02:09.013+03:00,1745308928.387496,40.95218625471538,29.14025411606978,76.06111,-1,-1,-1,-1,30,23.97249025624534,-9999,27404.76894216667,-0.722137451171875,0.6800994873046875,-0.157379150390625,27404.76140216667,-1.323074002799384,-1.348581021883672,-0.7416683175311486,0.01334991306066513,0.005329718813300133,-1.157069345936179e-05,-0.001048088073730469,0.001894831657409668,0.001050293445587158,XArbitraryZVertical,0.5808477506639311,0.2852438522869493,0.2687359224926626,-0.7134653713855537,-0.719212532043457,0.6755189895629883,-0.1625036746263504,0,0,0,-1,-1,27398.99798816667,unknown,2,2025-04-22T11:01:23.743+03:00,2025-04-21T17:08:51.449+03:00,7097,0.9398554,0,0,5930.618,5,20,2025-04-22T11:01:54.697+03:00,767001673.5380644,0,-22.1,100.4668,1,0.95,2025-04-22T11:01:09.511+03:00,84,1.4,2025-04-22T09:54:17.825+03:00,0.02225348692287972,0
2025-04-22T11:02:09.023+03:00,1745308928.387496,40.95218625471538,29.14025411606978,76.06111,-1,-1,-1,-1,30,23.97249025624534,-9999,27404.77901816667,-0.7254180908203125,0.677734375,-0.16290283203125,27404.77147816667,-1.322912826517569,-1.348351053359674,-0.7416522387243795,0.01466391608119011,0.01792354136705399,-0.002011604607105255,-0.0005103945732116699,0.002501726150512695,0.006543412804603577,XArbitraryZVertical,0.580790389440743,0.2852136159716813,0.2687502637552801,-0.7135186817501267,-0.7191856503486633,0.675507128238678,-0.1626714318990707,0,0,0,-1,-1,27398.99798816667,unknown,2,2025-04-22T11:01:23.743+03:00,2025-04-21T17:08:51.449+03:00,7097,0.9398554,0,0,5930.618,5,20,2025-04-22T11:01:54.697+03:00,767001673.5380644,0,-22.1,100.4668,1,0.95,2025-04-22T11:01:09.511+03:00,84,1.4,2025-04-22T09:54:17.825+03:00,0.02225348692287972,0
2025-04-22T11:02:09.033+03:00,1745308928.387496,40.95218625471538,29.14025411606978,76.06111,-1,-1,-1,-1,30,23.97249025624534,-9999,27404.78909416667,-0.72247314453125,0.669403076171875,-0.163330078125,27404.78155416667,-1.322741426273963,-1.348034939725303,-0.7416173807150445,0.01213504560291767,0.02130449004471302,-0.001482534455135465,-0.005772590637207031,0.003687202930450439,0.002259358763694763,XArbitraryZVertical,0.5807158402516803,0.2851615532467289,0.2687919785992999,-0.7135845389093387,-0.7191572785377502,0.6754814386367798,-0.1629040092229843,0,0,0,-1,-1,27398.99798816667,unknown,2,2025-04-22T11:01:23.743+03:00,2025-04-21T17:08:51.449+03:00,7097,0.9398554,0,0,5930.618,5,20,2025-04-22T11:01:54.697+03:00,767001673.5380644,0,-22.1,100.4668,1,0.95,2025-04-22T11:01:09.511+03:00,84,1.4,2025-04-22T09:54:17.825+03:00,0.02225348692287972,0
2025-04-22T11:02:09.043+03:00,1745308928.387496,40.95218625471538,29.14025411606978,76.06111,-1,-1,-1,-1,30,23.97249025624534,-9999,27404.79917016667,-0.71697998046875,0.665252685546875,-0.161102294921875,27404.79163016667,-1.322681783386437,-1.347805991908526,-0.7415944313902156,0.0001574783236719668,0.01677285693585873,0.002413403708487749,-0.004772484302520752,-0.002567291259765625,-0.0009752511978149414,XArbitraryZVertical,0.5806715916081021,0.2851043271284112,0.2688444003399263,-0.713623593084772,-0.7191349864006042,0.6754645109176636,-0.1630720496177673,0,0,0,-1,-1,27398.99798816667,unknown,2,2025-04-22T11:01:23.743+03:00,2025-04-21T17:08:51.449+03:00,7097,0.9398554,0,0,5930.618,5,20,2025-04-22T11:01:54.697+03:00,767001673.5380644,0,-22.1,100.4668,1,0.95,2025-04-22T11:01:09.511+03:00,84,1.4,2025-04-22T09:54:17.825+03:00,0.02225348692287972,0
2025-04-22T11:02:09.053+03:00,1745308928.387496,40.95218625471538,29.14025411606978,76.06111,-1,-1,-1,-1,30,23.97249025624534,-9999,27404.80924616667,-0.712188720703125,0.6652069091796875,-0.1580352783203125,27404.80170616667,-1.322728300175701,-1.347719021832115,-0.7415950202108883,-0.004589406307786703,0.01011382229626179,-0.003828812623396516,-0.0002093911170959473,-0.008747577667236328,0.000460505485534668,XArbitraryZVertical,0.5806666414081431,0.285059626938954,0.268886083815463,-0.7136298179227418,-0.7191204428672791,0.675464928150177,-0.1631345152854919,0,0,0,-1,-1,27398.99798816667,unknown,2,2025-04-22T11:01:23.743+03:00,2025-04-21T17:08:51.449+03:00,7097,0.9398554,0,0,5930.618,5,20,2025-04-22T11:01:54.697+03:00,767001673.5380644,0,-22.1,100.4668,1,0.95,2025-04-22T11:01:09.511+03:00,84,1.4,2025-04-22T09:54:17.825+03:00,0.02225348692287972,0
2025-04-22T11:02:09.063+03:00,1745308928.387496,40.95218625471538,29.14025411606978,76.06111,-1,-1,-1,-1,30,23.97249025624534,-9999,27404.81932216667,-0.7156219482421875,0.66705322265625,-0.1578216552734375,27404.81178216667,-1.322776849262824,-1.347648654784132,-0.7415878284417958,-0.003693785518407822,0.01220040768384933,-0.004038403742015362,0.005856812000274658,-0.01006978750228882,0.004708349704742432,XArbitraryZVertical,0.5806625388486639,0.2850226655237562,0.2689261042629443,-0.7136328221591738,-0.7191137075424194,0.675459623336792,-0.1631861925125122,0,0,0,-1,-1,27398.99798816667,unknown,2,2025-04-22T11:01:23.743+03:00,2025-04-21T17:08:51.449+03:00,7097,0.9398554,0,0,5930.618,5,20,2025-04-22T11:01:54.697+03:00,767001673.5380644,0,-22.1,100.4668,1,0.95,2025-04-22T11:01:09.511+03:00,84,1.4,2025-04-22T09:54:17.825+03:00,0.02225348692287972,0
2025-04-22T11:02:09.073+03:00,1745308928.387496,40.95218625471538,29.14025411606978,76.06111,-1,-1,-1,-1,30,23.97249025624534,-9999,27404.82939816667,-0.719451904296875,0.6704254150390625,-0.159759521484375,27404.82185816667,-1.32281386473844,-1.347515691250774,-0.7415979251532405,-0.0002364698448218405,0.01668890006840229,0.0006832479848526418,0.005401253700256348,-0.008978545665740967,0.005962133407592773,XArbitraryZVertical,0.5806521409382337,0.2849613066357871,0.2689747114283443,-0.7136474489369797,-0.7190852761268616,0.6754670739173889,-0.1632802933454514,0,0,0,-1,-1,27398.99798816667,unknown,2,2025-04-22T11:01:23.743+03:00,2025-04-21T17:08:51.449+03:00,7097,0.9398554,0,0,5930.618,5,20,2025-04-22T11:01:54.697+03:00,767001673.5380644,0,-22.1,100.4668,1,0.95,2025-04-22T11:01:09.511+03:00,84,1.4,2025-04-22T09:54:17.825+03:00,0.02225348692287972,0
2025-04-22T11:02:09.090+03:00,1745308928.387496,40.95218625471538,29.14025411606978,76.06111,-1,-1,-1,-1,30,23.97249025624534,-9999,27404.83947416667,-0.7147216796875,0.67474365234375,-0.1604156494140625,27404.83193416667,-1.322763143538681,-1.347324628155643,-0.7415882929795439,0.007135159801691771,0.009604092687368393,-0.0004866786766797304,0.0002646446228027344,-0.005782365798950195,0.004513978958129883,XArbitraryZVertical,0.5806171113078935,0.2849108762372679,0.2690151369995097,-0.7136808627621533,-0.719060480594635,0.6754599809646606,-0.1634191274642944,0,0,0,-1,-1,27398.99798816667,unknown,2,2025-04-22T11:01:23.743+03:00,2025-04-21T17:08:51.449+03:00,7097,0.9398554,0,0,5930.618,5,20,2025-04-22T11:01:54.697+03:00,767001673.5380644,0,-22.1,100.4668,1,0.95,2025-04-22T11:01:09.511+03:00,84,1.4,2025-04-22T09:54:17.825+03:00,0.02225348692287972,0
2025-04-22T11:02:09.094+03:00,1745308928.387496,40.95218625471538,29.14025411606978,76.06111,-1,-1,-1,-1,30,23.97249025624534,-9999,27404.84955016667,-0.7061004638671875,0.6820220947265625,-0.1562347412109375,27404.84201016667,-1.322692761771445,-1.347265610216486,-0.74154275637796,-0.0003844749298878014,-0.00782063789665699,-0.005234928335994482,0.002024412155151367,-0.002590298652648926,0.002838984131813049,XArbitraryZVertical,0.5805892599287,0.2849244455984329,0.2690215115915103,-0.7136955961002243,-0.7190806269645691,0.6754263639450073,-0.1634683459997177,0,0,0,-1,-1,27398.99798816667,unknown,2,2025-04-22T11:01:23.743+03:00,2025-04-21T17:08:51.449+03:00,7097,0.9398554,0,0,5930.618,5,20,2025-04-22T11:01:54.697+03:00,767001673.5380644,0,-22.1,100.4668,1,0.95,2025-04-22T11:01:09.511+03:00,84,1.4,2025-04-22T09:54:17.825+03:00,0.02225348692287972,0
2025-04-22T11:02:09.104+03:00,1745308928.387496,40.95218625471538,29.14025411606978,76.06111,-1,-1,-1,-1,30,23.97249025624534,-9999,27404.85962616667,-0.7052154541015625,0.676177978515625,-0.1609649658203125,27404.85208616667,-1.32262276961443,-1.347388797877297,-0.7414934362994976,0.01229084096848965,-0.01689349487423897,-0.004616010002791882,0.009477496147155762,0.004083633422851562,0.005168691277503967,XArbitraryZVertical,0.5805851131513249,0.2850041418142192,0.2689763669785036,-0.7136841382310071,-0.719133198261261,0.6753900051116943,-0.1633871346712112,0,0,0,-1,-1,27398.99798816667,unknown,2,2025-04-22T11:01:23.743+03:00,2025-04-21T17:08:51.449+03:00,7097,0.9398554,0,0,5930.618,5,20,2025-04-22T11:01:54.697+03:00,767001673.5380644,0,-22.1,100.4668,1,0.95,2025-04-22T11:01:09.511+03:00,84,1.4,2025-04-22T09:54:17.825+03:00,0.02225348692287972,0
2025-04-22T11:02:09.114+03:00,1745308928.387496,40.95218625471538,29.14025411606978,76.06111,-1,-1,-1,-1,30,23.97249025624534,-9999,27404.86970216667,-0.711517333984375,0.6661376953125,-0.167327880859375,27404.86216216667,-1.322566933736459,-1.347515064186549,-0.7414327972643423,-0.002963213715702295,-0.01194001547992229,-0.001848319545388222,0.01498550176620483,0.005501627922058105,0.005651503801345825,XArbitraryZVertical,0.5805809214722734,0.285084371133327,0.2689389672020951,-0.7136695823952894,-0.7191937565803528,0.6753453016281128,-0.1633053869009018,0,0,0,-1,-1,27398.99798816667,unknown,2,2025-04-22T11:01:23.743+03:00,2025-04-21T17:08:51.449+03:00,7097,0.9398554,0,0,5930.618,5,20,2025-04-22T11:01:54.697+03:00,767001673.5380644,0,-22.1,100.4668,1,0.95,2025-04-22T11:01:09.511+03:00,84,1.4,2025-04-22T09:54:17.825+03:00,0.02225348692287972,0
2025-04-22T11:02:09.124+03:00,1745308928.387496,40.95218625471538,29.14025411606978,76.06111,-1,-1,-1,-1,30,23.97249025624534,-9999,27404.87977816667,-0.713623046875,0.66717529296875,-0.1600189208984375,27404.87223816667,-1.322621719217686,-1.347626294637247,-0.7414322837562985,-0.003929941449314356,-0.009431850165128708,0.002872399752959609,0.01038056612014771,-0.006521880626678467,-0.003949865698814392,XArbitraryZVertical,0.5806035567795644,0.2851083415626354,0.2689264125196166,-0.7136463714643348,-0.7192123532295227,0.6753449440002441,-0.1632254868745804,0,0,0,-1,-1,27398.99798816667,unknown,2,2025-04-22T11:01:23.743+03:00,2025-04-21T17:08:51.449+03:00,7097,0.9398554,0,0,5930.618,5,20,2025-04-22T11:01:54.697+03:00,767001673.5380644,0,-22.1,100.4668,1,0.95,2025-04-22T11:01:09.511+03:00,84,1.4,2025-04-22T09:54:17.825+03:00,0.02225348692287972,0
2025-04-22T11:02:09.134+03:00,1745308928.387496,40.95218625471538,29.14025411606978,76.06111,-1,-1,-1,-1,30,23.97249025624534,-9999,27404.88985416667,-0.7110443115234375,0.672698974609375,-0.1574249267578125,27404.88231416667,-1.322726229678494,-1.34785611302417,-0.7414830591619813,-0.01471860706806183,-0.02222720719873905,0.007764792535454035,0.006035983562469482,-0.009336352348327637,-3.337860107421875e-05,XArbitraryZVertical,0.5806603897553466,0.285144157353975,0.2688809567378904,-0.7136030324685966,-0.719216525554657,0.6753823757171631,-0.1630526483058929,0,0,0,-1,-1,27398.99798816667,unknown,2,2025-04-22T11:01:23.743+03:00,2025-04-21T17:08:51.449+03:00,7097,0.9398554,0,0,5930.618,5,20,2025-04-22T11:01:54.697+03:00,767001673.5380644,0,-22.1,100.4668,1,0.95,2025-04-22T11:01:09.511+03:00,84,1.4,2025-04-22T09:54:17.825+03:00,0.02225348692287972,0
2025-04-22T11:02:09.144+03:00,1745308928.387496,40.95218625471538,29.14025411606978,76.06111,-1,-1,-1,-1,30,23.97249025624534,-9999,27404.89993016667,-0.7181854248046875,0.674652099609375,-0.158538818359375,27404.89239016667,-1.322915683341196,-1.348176827482807,-0.7415667565976285,-0.01163999270647764,-0.01466888934373856,0.006074750795960426,0.007696270942687988,-0.005201995372772217,0.004743590950965881,XArbitraryZVertical,0.5807487746519533,0.2851773594575843,0.2688289146938168,-0.7135373850926578,-0.7192135453224182,0.6754440665245056,-0.1628094613552094,0,0,0,-1,-1,27398.99798816667,unknown,2,2025-04-22T11:01:23.743+03:00,2025-04-21T17:08:51.449+03:00,7097,0.9398554,0,0,5930.618,5,20,2025-04-22T11:01:54.697+03:00,767001673.5380644,0,-22.1,100.4668,1,0.95,2025-04-22T11:01:09.511+03:00,84,1.4,2025-04-22T09:54:17.825+03:00,0.02225348692287972,0
2025-04-22T11:02:09.154+03:00,1745308928.387496,40.95218625471538,29.14025411606978,76.06111,-1,-1,-1,-1,30,23.97249025624534,-9999,27404.91000616667,-0.7274932861328125,0.6700592041015625,-0.161895751953125,27404.90246616667,-1.323057023738505,-1.34835499862911,-0.7416502710533829,-0.01024456229060888,0.002477273577824235,0.006556616630405188,0.004893183708190918,-0.00103682279586792,0.004267334938049316,XArbitraryZVertical,0.5808110399035418,0.2851737806089712,0.2688012002252187,-0.7134986409039736,-0.7191876173019409,0.6755056381225586,-0.1626688987016678,0,0,0,-1,-1,27398.99798816667,unknown,2,2025-04-22T11:01:23.743+03:00,2025-04-21T17:08:51.449+03:00,7097,0.9398554,0,0,5930.618,5,20,2025-04-22T11:01:54.697+03:00,767001673.5380644,0,-22.1,100.4668,1,0.95,2025-04-22T11:01:09.511+03:00,84,1.4,2025-04-22T09:54:17.825+03:00,0.02225348692287972,0
2025-04-22T11:02:09.164+03:00,1745308928.387496,40.95218625471538,29.14025411606978,76.06111,-1,-1,-1,-1,30,23.97249025624534,-9999,27404.92008216667,-0.7244415283203125,0.67181396484375,-0.1637725830078125,27404.91254216667,-1.323137692635492,-1.348358036437529,-0.7416983445292643,-0.003487590234726667,0.01171604543924332,0.003692120779305696,-0.006368458271026611,-0.003513693809509277,0.002289652824401855,XArbitraryZVertical,0.5808334071650347,0.2851364087825889,0.2688138951045894,-0.7134906151665001,-0.7191565036773682,0.6755411028862,-0.1626595556735992,0,0,0,-1,-1,27398.99798816667,unknown,2,2025-04-22T11:01:23.743+03:00,2025-04-21T17:08:51.449+03:00,7097,0.9398554,0,0,5930.618,5,20,2025-04-22T11:01:54.697+03:00,767001673.5380644,0,-22.1,100.4668,1,0.95,2025-04-22T11:01:09.511+03:00,84,1.4,2025-04-22T09:54:17.825+03:00,0.02225348692287972,0
2025-04-22T11:02:09.174+03:00,1745308928.387496,40.95218625471538,29.14025411606978,76.06111,-1,-1,-1,-1,30,23.97249025624534,-9999,27404.93015816667,-0.7171630859375,0.6800994873046875,-0.162109375,27404.92261816667,-1.323196150614532,-1.348315918393169,-0.7417307950764097,-0.004935550969094038,0.003067163750529289,0.001903009135276079,-0.007236003875732422,-0.005704343318939209,-0.0002331733703613281,XArbitraryZVertical,0.5808431716219624,0.2850942197733733,0.2688366789963499,-0.7134908747789058,-0.7191281318664551,0.6755650639533997,-0.1626849919557571,0,0,0,-1,-1,27398.99798816667,unknown,2,2025-04-22T11:01:23.743+03:00,2025-04-21T17:08:51.449+03:00,7097,0.9398554,0,0,5930.618,5,20,2025-04-22T11:01:54.697+03:00,767001673.5380644,0,-22.1,100.4668,1,0.95,2025-04-22T11:01:09.511+03:00,84,1.4,2025-04-22T09:54:17.825+03:00,0.02225348692287972,0
2025-04-22T11:02:09.184+03:00,1745308928.387496,40.95218625471538,29.14025411606978,76.06111,-1,-1,-1,-1,30,23.97249025624534,-9999,27404.94023416667,-0.7119293212890625,0.686492919921875,-0.1625213623046875,27404.93269416667,-1.323274454303538,-1.348383704468366,-0.7417689765613058,-0.004459377843886614,-0.004333494231104851,-0.004688847344368696,-0.0002767443656921387,0.0006762146949768066,-0.0008979439735412598,XArbitraryZVertical,0.5808717208490809,0.2850837586895649,0.2688328880930058,-0.7134733368357382,-0.7191141843795776,0.6755931973457336,-0.1626305878162384,0,0,0,-1,-1,27398.99798816667,unknown,2,2025-04-22T11:01:23.743+03:00,2025-04-21T17:08:51.449+03:00,7097,0.9398554,0,0,5930.618,5,20,2025-04-22T11:01:54.697+03:00,767001673.5380644,0,-22.1,100.4668,1,0.95,2025-04-22T11:01:09.511+03:00,84,1.4,2025-04-22T09:54:17.825+03:00,0.02225348692287972,0
2025-04-22T11:02:09.194+03:00,1745308928.387496,40.95218625471538,29.14025411606978,76.06111,-1,-1,-1,-1,30,23.97249025624534,-9999,27404.95031016667,-0.712799072265625,0.6832427978515625,-0.16632080078125,27404.94277016667,-1.323336340406001,-1.348495865141626,-0.741800418421556,-0.002307011047378182,-0.009207611903548241,-0.004759287927299738,0.005915701389312744,0.00942683219909668,0.0009087920188903809,XArbitraryZVertical,0.5809025081255758,0.2850959005506292,0.2688123809564718,-0.7134510305207764,-0.7191115021705627,0.6756163835525513,-0.1625452041625977,0,0,0,-1,-1,27398.99798816667,unknown,2,2025-04-22T11:01:23.743+03:00,2025-04-21T17:08:51.449+03:00,7097,0.9398554,0,0,5930.618,5,20,2025-04-22T11:01:54.697+03:00,767001673.5380644,0,-22.1,100.4668,1,0.95,2025-04-22T11:01:09.511+03:00,84,1.4,2025-04-22T09:54:17.825+03:00,0.02225348692287972,0
2025-04-22T11:02:09.204+03:00,1745308928.387496,40.95218625471538,29.14025411606978,76.06111,-1,-1,-1,-1,30,23.97249025624534,-9999,27404.96038616667,-0.7170257568359375,0.6782379150390625,-0.167724609375,27404.95284616667,-1.323329390578912,-1.348546729145268,-0.7417611161072191,0.006338941864669323,-0.006198505870997906,-0.003919593058526516,0.007109582424163818,0.00942528247833252,-0.002188980579376221,XArbitraryZVertical,0.5808997804708261,0.2851283843723835,0.2688075901522493,-0.7134421201450604,-0.7191457152366638,0.6755874156951904,-0.1625144928693771,0,0,0,-1,-1,27398.99798816667,unknown,2,2025-04-22T11:01:23.743+03:00,2025-04-21T17:08:51.449+03:00,7097,0.9398554,0,0,5930.618,5,20,2025-04-22T11:01:54.697+03:00,767001673.5380644,0,-22.1,100.4668,1,0.95,2025-04-22T11:01:09.511+03:00,84,1.4,2025-04-22T09:54:17.825+03:00,0.02225348692287972,0
2025-04-22T11:02:09.214+03:00,1745308928.387496,40.95218625471538,29.14025411606978,76.06111,-1,-1,-1,-1,30,23.97249025624534,-9999,27404.97046216667,-0.722381591796875,0.676422119140625,-0.167449951171875,27404.96292216667,-1.323194849037466,-1.348448228222696,-0.7416964883218787,0.009696788154542446,0.009123325347900391,-0.001260892837308347,0.004267513751983643,0.004422307014465332,-0.005648508667945862,XArbitraryZVertical,0.5808532827712978,0.2851525545728538,0.2688086683181789,-0.7134699290659423,-0.7191723585128784,0.6755397319793701,-0.1625949740409851,0,0,0,-1,-1,27398.99798816667,unknown,2,2025-04-22T11:01:23.743+03:00,2025-04-21T17:08:51.449+03:00,7097,0.9398554,0,0,5930.618,5,20,2025-04-22T11:01:54.697+03:00,767001673.5380644,0,-22.1,100.4668,1,0.95,2025-04-22T11:01:09.511+03:00,84,1.4,2025-04-22T09:54:17.825+03:00,0.02225348692287972,0
2025-04-22T11:02:09.224+03:00,1745308928.387496,40.95218625471538,29.14025411606978,76.06111,-1,-1,-1,-1,30,23.97249025624534,-9999,27404.98053816667,-0.7208709716796875,0.676666259765625,-0.1654510498046875,27404.97299816667,-1.323082905528165,-1.348239388669567,-0.7416698453437219,0.01433521509170532,0.01711680367588997,3.926240606233478e-05,-0.00128781795501709,0.001146018505096436,-0.004685640335083008,XArbitraryZVertical,0.5808034594249989,0.2851188883918024,0.2688378049915384,-0.7135129431798128,-0.7191559076309204,0.675520122051239,-0.1627491265535355,0,0,0,-1,-1,27398.99798816667,unknown,2,2025-04-22T11:01:23.743+03:00,2025-04-21T17:08:51.449+03:00,7097,0.9398554,0,0,5930.618,5,20,2025-04-22T11:01:54.697+03:00,767001673.5380644,0,-22.1,100.4668,1,0.95,2025-04-22T11:01:09.511+03:00,84,1.4,2025-04-22T09:54:17.825+03:00,0.02225348692287972,0
2025-04-22T11:02:09.235+03:00,1745308928.387496,40.95218625471538,29.14025411606978,76.06111,-1,-1,-1,-1,30,23.97249025624534,-9999,27404.99061416667,-0.7164154052734375,0.6685791015625,-0.16046142578125,27404.98307416667,-1.322894360822929,-1.347988904967344,-0.7416471720779736,0.01496525295078754,0.00701057305559516,-0.001695154584012926,-0.003129482269287109,0.002062976360321045,-0.00326615571975708,XArbitraryZVertical,0.5807379760473041,0.285091363810718,0.2688504457705375,-0.7135724679748188,-0.7191300392150879,0.6755033731460571,-0.1629326343536377,0,0,0,-1,-1,27398.99798816667,unknown,2,2025-04-22T11:01:23.743+03:00,2025-04-21T17:08:51.449+03:00,7097,0.9398554,0,0,5930.618,5,20,2025-04-22T11:01:54.697+03:00,767001673.5380644,0,-22.1,100.4668,1,0.95,2025-04-22T11:01:09.511+03:00,84,1.4,2025-04-22T09:54:17.825+03:00,0.02225348692287972,0
2025-04-22T11:02:09.245+03:00,1745308928.387496,40.95218625471538,29.14025411606978,76.06111,-1,-1,-1,-1,30,23.97249025624534,-9999,27405.00069016667,-0.7179718017578125,0.6663665771484375,-0.1596527099609375,27404.99315016667,-1.322828062700776,-1.347883883018212,-0.7415897682349993,-0.003142910543829203,0.006193249020725489,0.0009658759227022529,0.002582788467407227,-0.003509938716888428,0.0008767843246459961,XArbitraryZVertical,0.5807018957422103,0.2850911099237409,0.268875457050621,-0.7135925196267915,-0.719150722026825,0.6754610538482666,-0.1630167365074158,0,0,0,-1,-1,27398.99798816667,unknown,2,2025-04-22T11:01:23.743+03:00,2025-04-21T17:08:51.449+03:00,7097,0.9398554,0,0,5930.618,5,20,2025-04-22T11:01:54.697+03:00,767001673.5380644,0,-22.1,100.4668,1,0.95,2025-04-22T11:01:09.511+03:00,84,1.4,2025-04-22T09:54:17.825+03:00,0.02225348692287972,0
2025-04-22T11:02:09.255+03:00,1745308928.387496,40.95218625471538,29.14025411606978,76.06111,-1,-1,-1,-1,30,23.97249025624534,-9999,27405.01076616667,-0.7174835205078125,0.667449951171875,-0.1623382568359375,27405.00322616667,-1.322941398245878,-1.347890073507178,-0.7415892387002857,-0.01381006930023432,0.007991814985871315,0.003451337572187185,0.002324700355529785,-0.009735107421875,0.003420650959014893,XArbitraryZVertical,0.5807187652820002,0.2850605792270205,0.2689142668862873,-0.7135763689233654,-0.7191520929336548,0.6754606366157532,-0.163012370467186,0,0,0,-1,-1,27398.99798816667,unknown,2,2025-04-22T11:01:23.743+03:00,2025-04-21T17:08:51.449+03:00,7097,0.9398554,0,0,5930.618,5,20,2025-04-22T11:01:54.697+03:00,767001673.5380644,0,-22.1,100.4668,1,0.95,2025-04-22T11:01:09.511+03:00,84,1.4,2025-04-22T09:54:17.825+03:00,0.02225348692287972,0
2025-04-22T11:02:09.265+03:00,1745308928.387496,40.95218625471538,29.14025411606978,76.06111,-1,-1,-1,-1,30,23.97249025624534,-9999,27405.02084216667,-0.7131805419921875,0.670806884765625,-0.1632232666015625,27405.01330216667,-1.32313348696083,-1.348016382692812,-0.7416300792914633,-0.01803703792393208,-0.007631619926542044,-0.0002118404081556946,0.001265406608581543,-0.007812142372131348,0.00153835117816925,XArbitraryZVertical,0.5807720735745154,0.2850370249315455,0.268933136885564,-0.7135351523885733,-0.7191455960273743,0.6754907965660095,-0.1629153788089752,0,0,0,-1,-1,27398.99798816667,unknown,2,2025-04-22T11:01:23.743+03:00,2025-04-21T17:08:51.449+03:00,7097,0.9398554,0,0,5930.618,5,20,2025-04-22T11:01:54.697+03:00,767001673.5380644,0,-22.1,100.4668,1,0.95,2025-04-22T11:01:09.511+03:00,84,1.4,2025-04-22T09:54:17.825+03:00,0.02225348692287972,0
2025-04-22T11:02:09.275+03:00,1745308928.387496,40.95218625471538,29.14025411606978,76.06111,-1,-1,-1,-1,30,23.97249025624534,-9999,27405.03091816667,-0.709686279296875,0.6769256591796875,-0.16156005859375,27405.02337816667,-1.323347679962078,-1.348259819095139,-0.7417082088462902,-0.01137147936969995,-0.01365522388368845,-0.003263856284320354,0.004381656646728516,-0.00632864236831665,-0.001059219241142273,XArbitraryZVertical,0.5808523382246328,0.2850372316805342,0.2689141415011361,-0.7134769166988238,-0.7191337943077087,0.6755483746528625,-0.1627286821603775,0,0,0,-1,-1,27398.99798816667,unknown,2,2025-04-22T11:01:23.743+03:00,2025-04-21T17:08:51.449+03:00,7097,0.9398554,0,0,5930.618,5,20,2025-04-22T11:01:54.697+03:00,767001673.5380644,0,-22.1,100.4668,1,0.95,2025-04-22T11:01:09.511+03:00,84,1.4,2025-04-22T09:54:17.825+03:00,0.02225348692287972,0
2025-04-22T11:02:09.285+03:00,1745308928.387496,40.95218625471538,29.14025411606978,76.06111,-1,-1,-1,-1,30,23.97249025624534,-9999,27405.04099416667,-0.71405029296875,0.6818389892578125,-0.1623077392578125,27405.03345416667,-1.323414603972916,-1.34841471206942,-0.7417103963240476,-0.0009023266611620784,-0.006368015892803669,-0.006994412280619144,0.009303510189056396,-0.0009744167327880859,0.000934794545173645,XArbitraryZVertical,0.5808831726508749,0.2850723725746457,0.2688923442248102,-0.7134460031862226,-0.7191575765609741,0.6755499839782715,-0.1626169681549072,0,0,0,-1,-1,27398.99798816667,unknown,2,2025-04-22T11:01:23.743+03:00,2025-04-21T17:08:51.449+03:00,7097,0.9398554,0,0,5930.618,5,20,2025-04-22T11:01:54.697+03:00,767001673.5380644,0,-22.1,100.4668,1,0.95,2025-04-22T11:01:09.511+03:00,84,1.4,2025-04-22T09:54:17.825+03:00,0.02225348692287972,0
2025-04-22T11:02:09.315+03:00,1745308928.387496,40.95218625471538,29.14025411606978,76.06111,-1,-1,-1,-1,30,23.97249025624534,-9999,27405.05107016667,-0.7149810791015625,0.6898345947265625,-0.160003662109375,27405.04353016667,-1.323355840425807,-1.348368745939558,-0.7416592896511328,0.008945177309215069,-0.0001642489805817604,-0.008458252064883709,0.007117271423339844,0.004342854022979736,0.000304102897644043,XArbitraryZVertical,0.5808574451939565,0.285089090563529,0.268900962259335,-0.7134571352114695,-0.7191839218139648,0.6755123138427734,-0.1626576781272888,0,0,0,-1,-1,27398.99798816667,unknown,2,2025-04-22T11:01:23.743+03:00,2025-04-21T17:08:51.449+03:00,7097,0.9398554,0,0,5930.618,5,20,2025-04-22T11:01:54.697+03:00,767001673.5380644,0,-22.1,100.4668,1,0.95,2025-04-22T11:01:09.511+03:00,84,1.4,2025-04-22T09:54:17.825+03:00,0.02225348692287972,0
2025-04-22T11:02:09.317+03:00,1745308928.387496,40.95218625471538,29.14025411606978,76.06111,-1,-1,-1,-1,30,23.97249025624534,-9999,27405.06114616667,-0.71173095703125,0.6892547607421875,-0.1631927490234375,27405.05360616667,-1.323110665153693,-1.348206882138762,-0.7415101456556026,0.02654547616839409,-0.005550225730985403,-0.0103248618543148,0.004198431968688965,0.01134985685348511,0.003189265727996826,XArbitraryZVertical,0.5807682669270596,0.2851491980371922,0.2689076871672074,-0.7135031365337621,-0.719255805015564,0.6754023432731628,-0.1627963036298752,0,0,0,-1,-1,27398.99798816667,unknown,2,2025-04-22T11:01:23.743+03:00,2025-04-21T17:08:51.449+03:00,7097,0.9398554,0,0,5930.618,5,20,2025-04-22T11:01:54.697+03:00,767001673.5380644,0,-22.1,100.4668,1,0.95,2025-04-22T11:01:09.511+03:00,84,1.4,2025-04-22T09:54:17.825+03:00,0.02225348692287972,0
2025-04-22T11:02:09.318+03:00,1745308928.387496,40.95218625471538,29.14025411606978,76.06111,-1,-1,-1,-1,30,23.97249025624534,-9999,27405.07122216667,-0.7100982666015625,0.67822265625,-0.1635894775390625,27405.06368216667,-1.32276215762958,-1.348052817702257,-0.741329175665243,0.02543666958808899,-0.01173954643309116,-0.01204053591936827,0.006672799587249756,0.01633554697036743,0.001694396138191223,XArbitraryZVertical,0.5806584636631877,0.2852520034215736,0.2688853134715005,-0.7135597521743475,-0.71934974193573,0.6752688884735107,-0.1629340797662735,0,0,0,-1,-1,27398.99798816667,unknown,2,2025-04-22T11:01:23.743+03:00,2025-04-21T17:08:51.449+03:00,7097,0.9398554,0,0,5930.618,5,20,2025-04-22T11:01:54.697+03:00,767001673.5380644,0,-22.1,100.4668,1,0.95,2025-04-22T11:01:09.511+03:00,84,1.4,2025-04-22T09:54:17.825+03:00,0.02225348692287972,0
2025-04-22T11:02:09.325+03:00,1745308928.387496,40.95218625471538,29.14025411606978,76.06111,-1,-1,-1,-1,30,23.97249025624534,-9999,27405.08129816667,-0.7100372314453125,0.6671142578125,-0.1616363525390625,27405.07375816667,-1.322518936718104,-1.348054649230342,-0.7411578747179185,0.01622053422033787,-0.01924886181950569,-0.0129430815577507,0.009410440921783447,0.00806957483291626,-0.001149997115135193,XArbitraryZVertical,0.5805866714267766,0.2853768637885008,0.2688522215103432,-0.7135807295311519,-0.7194628715515137,0.6751425266265869,-0.1629583239555359,0,0,0,-1,-1,27398.99798816667,unknown,2,2025-04-22T11:01:23.743+03:00,2025-04-21T17:08:51.449+03:00,7097,0.9398554,0,0,5930.618,5,20,2025-04-22T11:01:54.697+03:00,767001673.5380644,0,-22.1,100.4668,1,0.95,2025-04-22T11:01:09.511+03:00,84,1.4,2025-04-22T09:54:17.825+03:00,0.02225348692287972,0
2025-04-22T11:02:09.335+03:00,1745308928.387496,40.95218625471538,29.14025411606978,76.06111,-1,-1,-1,-1,30,23.97249025624534,-9999,27405.09137416667,-0.710693359375,0.6615753173828125,-0.163604736328125,27405.08383416667,-1.32242344071968,-1.348189293276164,-0.7410279786591889,0.007915066555142403,-0.02117445878684521,-0.004460714291781187,0.009212791919708252,-0.003782212734222412,0.00106126070022583,XArbitraryZVertical,0.5805628044630641,0.2854932823962555,0.2688201972919935,-0.7135656984644968,-0.7195704579353333,0.6750466823577881,-0.1628808379173279,0,0,0,-1,-1,27398.99798816667,unknown,2,2025-04-22T11:01:23.743+03:00,2025-04-21T17:08:51.449+03:00,7097,0.9398554,0,0,5930.618,5,20,2025-04-22T11:01:54.697+03:00,767001673.5380644,0,-22.1,100.4668,1,0.95,2025-04-22T11:01:09.511+03:00,84,1.4,2025-04-22T09:54:17.825+03:00,0.02225348692287972,0
2025-04-22T11:02:09.345+03:00,1745308928.387496,40.95218625471538,29.14025411606978,76.06111,-1,-1,-1,-1,30,23.97249025624534,-9999,27405.10145016667,-0.7147064208984375,0.6630401611328125,-0.1602020263671875,27405.09391016667,-1.322403740510454,-1.348435925443279,-0.7409397574038774,-0.0006920035229995847,-0.02771704830229282,-0.007223211228847504,0.008761703968048096,-0.01244521141052246,-0.001086696982383728,XArbitraryZVertical,0.5805739209368664,0.2856145709780515,0.2687694791410146,-0.7135271876247153,-0.7196686267852783,0.6749815940856934,-0.1627164781093597,0,0,0,-1,-1,27398.99798816667,unknown,2,2025-04-22T11:01:23.743+03:00,2025-04-21T17:08:51.449+03:00,7097,0.9398554,0,0,5930.618,5,20,2025-04-22T11:01:54.697+03:00,767001673.5380644,0,-22.1,100.4668,1,0.95,2025-04-22T11:01:09.511+03:00,84,1.4,2025-04-22T09:54:17.825+03:00,0.02225348692287972,0
2025-04-22T11:02:09.355+03:00,1745308928.387496,40.95218625471538,29.14025411606978,76.06111,-1,-1,-1,-1,30,23.97249025624534,-9999,27405.11152616667,-0.721771240234375,0.667938232421875,-0.157196044921875,27405.10398616667,-1.32255149824712,-1.348744856936892,-0.74090491430641,-0.01296644657850266,-0.0166504830121994,-0.005444984883069992,0.007843077182769775,-0.01347225904464722,0.001534342765808105,XArbitraryZVertical,0.5806289214375092,0.2856928142240404,0.2687435649698235,-0.7134609269324713,-0.7197418808937073,0.6749559044837952,-0.162499338388443,0,0,0,-1,-1,27398.99798816667,unknown,2,2025-04-22T11:01:23.743+03:00,2025-04-21T17:08:51.449+03:00,7097,0.9398554,0,0,5930.618,5,20,2025-04-22T11:01:54.697+03:00,767001673.5380644,0,-22.1,100.4668,1,0.95,2025-04-22T11:01:09.511+03:00,84,1.4,2025-04-22T09:54:17.825+03:00,0.02225348692287972,0
2025-04-22T11:02:09.365+03:00,1745308928.387496,40.95218625471538,29.14025411606978,76.06111,-1,-1,-1,-1,30,23.97249025624534,-9999,27405.12160216667,-0.723388671875,0.6723175048828125,-0.1558074951171875,27405.11406216667,-1.322717028087272,-1.348983749476285,-0.7409051553830733,-0.01025401707738638,-0.007925433106720448,-0.006602661218494177,0.0005269646644592285,-0.009123682975769043,0.003498554229736328,XArbitraryZVertical,0.5806847269727947,0.285729889856017,0.2687331707410935,-0.7134045585942682,-0.7197805047035217,0.6749560832977295,-0.1623273491859436,0,0,0,-1,-1,27398.99798816667,unknown,2,2025-04-22T11:01:23.743+03:00,2025-04-21T17:08:51.449+03:00,7097,0.9398554,0,0,5930.618,5,20,2025-04-22T11:01:54.697+03:00,767001673.5380644,0,-22.1,100.4668,1,0.95,2025-04-22T11:01:09.511+03:00,84,1.4,2025-04-22T09:54:17.825+03:00,0.02225348692287972,0
2025-04-22T11:02:09.375+03:00,1745308928.387496,40.95218625471538,29.14025411606978,76.06111,-1,-1,-1,-1,30,23.97249025624534,-9999,27405.13167816667,-0.721160888671875,0.673858642578125,-0.1597137451171875,27405.12413816667,-1.32278206227477,-1.349036617975151,-0.7408843979395972,0.001492387847974896,0.003499527927488089,-0.005969761405140162,-0.003677546977996826,-0.003600001335144043,0.007430866360664368,XArbitraryZVertical,0.5806966251330153,0.2857363279027359,0.2687475581816213,-0.7133868123823737,-0.7198026776313782,0.6749407649040222,-0.1622923612594604,0,0,0,-1,-1,27398.99798816667,unknown,2,2025-04-22T11:01:23.743+03:00,2025-04-21T17:08:51.449+03:00,7097,0.9398554,0,0,5930.618,5,20,2025-04-22T11:01:54.697+03:00,767001673.5380644,0,-22.1,100.4668,1,0.95,2025-04-22T11:01:09.511+03:00,84,1.4,2025-04-22T09:54:17.825+03:00,0.02225348692287972,0
2025-04-22T11:02:09.386+03:00,1745308928.387496,40.95218625471538,29.14025411606978,76.06111,-1,-1,-1,-1,30,23.97249025624534,-9999,27405.14175416667,-0.7144317626953125,0.674591064453125,-0.161529541015625,27405.13421416667,-1.322776431272238,-1.349012349297283,-0.7408667374011803,0.006402990315109491,0.001317866146564484,-0.009532804600894451,-0.002784907817840576,-0.001221895217895508,0.003971889615058899,XArbitraryZVertical,0.5806887237117436,0.285734816667348,0.2687581723304392,-0.7133898222571798,-0.7198103070259094,0.6749277114868164,-0.1623124480247498,0,0,0,-1,-1,27398.99798816667,unknown,2,2025-04-22T11:01:23.743+03:00,2025-04-21T17:08:51.449+03:00,7097,0.9398554,0,0,5930.618,5,20,2025-04-22T11:01:54.697+03:00,767001673.5380644,0,-22.1,100.4668,1,0.95,2025-04-22T11:01:09.511+03:00,84,1.4,2025-04-22T09:54:17.825+03:00,0.02225348692287972,0
2025-04-22T11:02:09.396+03:00,1745308928.387496,40.95218625471538,29.14025411606978,76.06111,-1,-1,-1,-1,30,23.97249025624534,-9999,27405.15183016667,-0.7084503173828125,0.6778717041015625,-0.16363525390625,27405.14429016667,-1.322710186471087,-1.348990734532099,-0.7408567609163462,0.007353006396442652,-0.008840428665280342,-0.006146162282675505,0.00272667407989502,-0.001077175140380859,0.001486554741859436,XArbitraryZVertical,0.5806741595954885,0.2857494878771109,0.2687440035498775,-0.713401194241988,-0.7198134660720825,0.674920380115509,-0.1623294949531555,0,0,0,-1,-1,27398.99798816667,unknown,2,2025-04-22T11:01:23.743+03:00,2025-04-21T17:08:51.449+03:00,7097,0.9398554,0,0,5930.618,5,20,2025-04-22T11:01:54.697+03:00,767001673.5380644,0,-22.1,100.4668,1,0.95,2025-04-22T11:01:09.511+03:00,84,1.4,2025-04-22T09:54:17.825+03:00,0.02225348692287972,0
2025-04-22T11:02:09.406+03:00,1745308928.387496,40.95218625471538,29.14025411606978,76.06111,-1,-1,-1,-1,30,23.97249025624534,-9999,27405.16190616667,-0.7047271728515625,0.6752471923828125,-0.16033935546875,27405.15436616667,-1.322694803252258,-1.349155361079281,-0.7408658403285634,-0.004608048591762781,-0.02882825210690498,-0.004745073150843382,0.008682966232299805,0.001998364925384521,0.0003290325403213501,XArbitraryZVertical,0.5806960919375466,0.2858097942194277,0.2686878025763608,-0.7133802666216643,-0.71983402967453,0.6749270558357239,-0.162209615111351,0,0,0,-1,-1,27398.99798816667,unknown,2,2025-04-22T11:01:23.743+03:00,2025-04-21T17:08:51.449+03:00,7097,0.9398554,0,0,5930.618,5,20,2025-04-22T11:01:54.697+03:00,767001673.5380644,0,-22.1,100.4668,1,0.95,2025-04-22T11:01:09.511+03:00,84,1.4,2025-04-22T09:54:17.825+03:00,0.02225348692287972,0
2025-04-22T11:02:09.416+03:00,1745308928.387496,40.95218625471538,29.14025411606978,76.06111,-1,-1,-1,-1,30,23.97249025624534,-9999,27405.17198216667,-0.7100372314453125,0.66961669921875,-0.157684326171875,27405.16444216667,-1.322826511663807,-1.349539839203603,-0.7408584969704165,-0.0118177579715848,-0.03164480999112129,-0.003779011545702815,0.013419508934021,0.001652896404266357,-0.00147247314453125,XArbitraryZVertical,0.5807648935951129,0.2859110672354737,0.2686255520961606,-0.7133072968082509,-0.7199015021324158,0.6749216318130493,-0.1619340032339096,0,0,0,-1,-1,27398.99798816667,unknown,2,2025-04-22T11:01:23.743+03:00,2025-04-21T17:08:51.449+03:00,7097,0.9398554,0,0,5930.618,5,20,2025-04-22T11:01:54.697+03:00,767001673.5380644,0,-22.1,100.4668,1,0.95,2025-04-22T11:01:09.511+03:00,84,1.4,2025-04-22T09:54:17.825+03:00,0.02225348692287972,0
2025-04-22T11:02:09.426+03:00,1745308928.387496,40.95218625471538,29.14025411606978,76.06111,-1,-1,-1,-1,30,23.97249025624534,-9999,27405.18205816667,-0.7204742431640625,0.66851806640625,-0.16864013671875,27405.17451816667,-1.322962693156276,-1.34988201266606,-0.7408423977514542,-0.005098603200167418,-0.01866935752332211,-0.0002516547101549804,0.01324135065078735,-0.00306546688079834,0.00576038658618927,XArbitraryZVertical,0.5808268242952751,0.2859985747339245,0.2685798372078432,-0.713238975190129,-0.7199674248695374,0.674909770488739,-0.1616900265216827,0,0,0,-1,-1,27398.99798816667,unknown,2,2025-04-22T11:01:23.743+03:00,2025-04-21T17:08:51.449+03:00,7097,0.9398554,0,0,5930.618,5,20,2025-04-22T11:01:54.697+03:00,767001673.5380644,0,-22.1,100.4668,1,0.95,2025-04-22T11:01:09.511+03:00,84,1.4,2025-04-22T09:54:17.825+03:00,0.02225348692287972,0
2025-04-22T11:02:09.436+03:00,1745308928.387496,40.95218625471538,29.14025411606978,76.06111,-1,-1,-1,-1,30,23.97249025624534,-9999,27405.19213416667,-0.724456787109375,0.6792755126953125,-0.160919189453125,27405.18459416667,-1.32301391187939,-1.349996875780494,-0.7408340968995322,-0.001311654457822442,-0.0006547369994223118,0.001562324119731784,0.003286123275756836,-0.007423341274261475,-0.003308534622192383,XArbitraryZVertical,0.5808477701569669,0.2860272537873737,0.2685673681769453,-0.7132151033860256,-0.7199914455413818,0.6749036312103271,-0.161608561873436,0,0,0,-1,-1,27398.99798816667,unknown,2,2025-04-22T11:01:23.743+03:00,2025-04-21T17:08:51.449+03:00,7097,0.9398554,0,0,5930.618,5,20,2025-04-22T11:01:54.697+03:00,767001673.5380644,0,-22.1,100.4668,1,0.95,2025-04-22T11:01:09.511+03:00,84,1.4,2025-04-22T09:54:17.825+03:00,0.02225348692287972,0
2025-04-22T11:02:09.446+03:00,1745308928.387496,40.95218625471538,29.14025411606978,76.06111,-1,-1,-1,-1,30,23.97249025624534,-9999,27405.20221016667,-0.717437744140625,0.6825103759765625,-0.1536712646484375,27405.19467016667,-1.323047791599108,-1.350068778530972,-0.7408349649859896,0.0005658740410581231,-0.00582020403817296,0.0008946697344072163,-0.004393279552459717,-0.0002981424331665039,-0.004062280058860779,XArbitraryZVertical,0.5808624632975878,0.286042778980375,0.2685582879293121,-0.7132003204271188,-0.7200024724006653,0.6749042868614197,-0.1615566611289978,0,0,0,-1,-1,27398.99798816667,unknown,2,2025-04-22T11:01:23.743+03:00,2025-04-21T17:08:51.449+03:00,7097,0.9398554,0,0,5930.618,5,20,2025-04-22T11:01:54.697+03:00,767001673.5380644,0,-22.1,100.4668,1,0.95,2025-04-22T11:01:09.511+03:00,84,1.4,2025-04-22T09:54:17.825+03:00,0.02225348692287972,0
2025-04-22T11:02:09.456+03:00,1745308928.387496,40.95218625471538,29.14025411606978,76.06111,-1,-1,-1,-1,30,23.97249025624534,-9999,27405.21228616667,-0.7146453857421875,0.6699066162109375,-0.1634979248046875,27405.20474616667,-1.323031341424318,-1.350161697386331,-0.7408364544710045,0.004469535313546658,-0.006444449070841074,0.003064613323658705,-0.0006866455078125,0.008611857891082764,0.007787719368934631,XArbitraryZVertical,0.580872922159743,0.2860802114103774,0.2685249494164947,-0.7131893121428422,-0.7200164198875427,0.6749053597450256,-0.1614895164966583,0,0,0,-1,-1,27398.99798816667,unknown,2,2025-04-22T11:01:23.743+03:00,2025-04-21T17:08:51.449+03:00,7097,0.9398554,0,0,5930.618,5,20,2025-04-22T11:01:54.697+03:00,767001673.5380644,0,-22.1,100.4668,1,0.95,2025-04-22T11:01:09.511+03:00,84,1.4,2025-04-22T09:54:17.825+03:00,0.02225348692287972,0
2025-04-22T11:02:09.466+03:00,1745308928.387496,40.95218625471538,29.14025411606978,76.06111,-1,-1,-1,-1,30,23.97249025624534,-9999,27405.22236216667,-0.7154998779296875,0.66400146484375,-0.1605987548828125,27405.21482216667,-1.323002420907868,-1.350143336882698,-0.7408805384751259,-0.00341075798496604,0.002973021008074284,0.005617519374936819,0.005003392696380615,4.965066909790039e-05,0.001507773995399475,XArbitraryZVertical,0.5808759171323705,0.2860682708700557,0.2685060056756489,-0.7131987858379187,-0.7199844121932983,0.674937903881073,-0.1614962220191956,0,0,0,-1,-1,27398.99798816667,unknown,2,2025-04-22T11:01:23.743+03:00,2025-04-21T17:08:51.449+03:00,7097,0.9398554,0,0,5930.618,5,20,2025-04-22T11:01:54.697+03:00,767001673.5380644,0,-22.1,100.4668,1,0.95,2025-04-22T11:01:09.511+03:00,84,1.4,2025-04-22T09:54:17.825+03:00,0.02225348692287972,0
2025-04-22T11:02:09.477+03:00,1745308928.387496,40.95218625471538,29.14025411606978,76.06111,-1,-1,-1,-1,30,23.97249025624534,-9999,27405.23243816667,-0.7109832763671875,0.67181396484375,-0.156768798828125,27405.22489816667,-1.323151389026125,-1.350289899808611,-0.7409918527808312,-0.02048108726739883,-0.01810589991509914,0.008133141323924065,0.005167484283447266,-0.01056087017059326,-0.002169504761695862,XArbitraryZVertical,0.5809410630345888,0.2860425172890321,0.2684813778556606,-0.713165468055091,-0.7199349999427795,0.6750200390815735,-0.1613743156194687,0,0,0,-1,-1,27398.99798816667,unknown,2,2025-04-22T11:01:23.743+03:00,2025-04-21T17:08:51.449+03:00,7097,0.9398554,0,0,5930.618,5,20,2025-04-22T11:01:54.697+03:00,767001673.5380644,0,-22.1,100.4668,1,0.95,2025-04-22T11:01:09.511+03:00,84,1.4,2025-04-22T09:54:17.825+03:00,0.02225348692287972,0
2025-04-22T11:02:09.487+03:00,1745308928.387496,40.95218625471538,29.14025411606978,76.06111,-1,-1,-1,-1,30,23.97249025624534,-9999,27405.24251416667,-0.711822509765625,0.672027587890625,-0.15753173828125,27405.23497416667,-1.32343872684966,-1.350782988265624,-0.7411084527707791,-0.01993380859494209,-0.03802447766065598,-0.002637480851262808,0.007611513137817383,-0.006206631660461426,0.004950389266014099,XArbitraryZVertical,0.5810737109340147,0.2860983763434162,0.2684036510291086,-0.7130642263430799,-0.7199376225471497,0.6751060485839844,-0.16100212931633,0,0,0,-1,-1,27398.99798816667,unknown,2,2025-04-22T11:01:23.743+03:00,2025-04-21T17:08:51.449+03:00,7097,0.9398554,0,0,5930.618,5,20,2025-04-22T11:01:54.697+03:00,767001673.5380644,0,-22.1,100.4668,1,0.95,2025-04-22T11:01:09.511+03:00,84,1.4,2025-04-22T09:54:17.825+03:00,0.02225348692287972,0
2025-04-22T11:02:09.497+03:00,1745308928.387496,40.95218625471538,29.14025411606978,76.06111,-1,-1,-1,-1,30,23.97249025624534,-9999,27405.25259016667,-0.7239990234375,0.6728363037109375,-0.1586761474609375,27405.24505016667,-1.32369886075217,-1.351268745995965,-0.7411293762170877,-0.02157964184880257,-0.02204684540629387,-0.007429572753608227,0.01089537143707275,-0.002071738243103027,0.00299537181854248,XArbitraryZVertical,0.5811807013561391,0.2861893691581884,0.2683485675425894,-0.7129611348411239,-0.7200018167495728,0.6751214861869812,-0.1606492698192596,0,0,0,-1,-1,27398.99798816667,unknown,2,2025-04-22T11:01:23.743+03:00,2025-04-21T17:08:51.449+03:00,7097,0.9398554,0,0,5930.618,5,20,2025-04-22T11:01:54.697+03:00,767001673.5380644,0,-22.1,100.4668,1,0.95,2025-04-22T11:01:09.511+03:00,84,1.4,2025-04-22T09:54:17.825+03:00,0.02225348692287972,0
2025-04-22T11:02:09.507+03:00,1745308928.387496,40.95218625471538,29.14025411606978,76.06111,-1,-1,-1,-1,30,23.97249025624534,-9999,27405.26266616667,-0.729034423828125,0.6811981201171875,-0.161773681640625,27405.25512616667,-1.323941041234964,-1.351569487509851,-0.7410939371566289,-0.009348542429506779,-0.005420197267085314,-0.01254151109606028,0.001521885395050049,-0.003785073757171631,0.002387285232543945,XArbitraryZVertical,0.5812479982993011,0.2862372967289593,0.2683587415129067,-0.7128832357927003,-0.7200735211372375,0.6750953197479248,-0.1604379415512085,0,0,0,-1,-1,27398.99798816667,unknown,2,2025-04-22T11:01:23.743+03:00,2025-04-21T17:08:51.449+03:00,7097,0.9398554,0,0,5930.618,5,20,2025-04-22T11:01:54.697+03:00,767001673.5380644,0,-22.1,100.4668,1,0.95,2025-04-22T11:01:09.511+03:00,84,1.4,2025-04-22T09:54:17.825+03:00,0.02225348692287972,0
2025-04-22T11:02:09.517+03:00,1745308928.387496,40.95218625471538,29.14025411606978,76.06111,-1,-1,-1,-1,30,23.97249025624534,-9999,27405.27274216667,-0.7211761474609375,0.68115234375,-0.1609954833984375,27405.26520216667,-1.324021824991054,-1.351640092041583,-0.7409691410195397,0.0008999676210805774,-0.003313503693789244,-0.01356289908289909,-0.008882761001586914,0.003066599369049072,-0.0004680603742599487,XArbitraryZVertical,0.5812419677807171,0.2862779786118685,0.2684065011564369,-0.7128537357596669,-0.7201669216156006,0.6750032901763916,-0.1604053825139999,0,0,0,-1,-1,27398.99798816667,unknown,2,2025-04-22T11:01:23.743+03:00,2025-04-21T17:08:51.449+03:00,7097,0.9398554,0,0,5930.618,5,20,2025-04-22T11:01:54.697+03:00,767001673.5380644,0,-22.1,100.4668,1,0.95,2025-04-22T11:01:09.511+03:00,84,1.4,2025-04-22T09:54:17.825+03:00,0.02225348692287972,0
2025-04-22T11:02:09.527+03:00,1745308928.387496,40.95218625471538,29.14025411606978,76.06111,-1,-1,-1,-1,30,23.97249025624534,-9999,27405.28281816667,-0.71258544921875,0.6761016845703125,-0.15789794921875,27405.27527816667,-1.324028445653317,-1.351708583291443,-0.7408090343305586,-0.0001535789342597127,-0.01281379722058773,-0.01354052871465683,-0.00469207763671875,0.007258832454681396,-0.001668855547904968,XArbitraryZVertical,0.5812173114921804,0.2863505783296909,0.2684396993274131,-0.7128322292024897,-0.7202834486961365,0.6748851537704468,-0.160379558801651,0,0,0,-1,-1,27398.99798816667,unknown,2,2025-04-22T11:01:23.743+03:00,2025-04-21T17:08:51.449+03:00,7097,0.9398554,0,0,5930.618,5,20,2025-04-22T11:01:54.697+03:00,767001673.5380644,0,-22.1,100.4668,1,0.95,2025-04-22T11:01:09.511+03:00,84,1.4,2025-04-22T09:54:17.825+03:00,0.02225348692287972,0
2025-04-22T11:02:09.537+03:00,1745308928.387496,40.95218625471538,29.14025411606978,76.06111,-1,-1,-1,-1,30,23.97249025624534,-9999,27405.29289416667,-0.71038818359375,0.670257568359375,-0.1593475341796875,27405.28535416667,-1.324187127825833,-1.352004500905364,-0.7407207827634484,-0.01165583822876215,-0.01970239728689194,-0.01408730912953615,0.005545258522033691,0.003066778182983398,0.001381039619445801,XArbitraryZVertical,0.581260587386777,0.2864375321484189,0.2684382084026444,-0.7127625592666602,-0.7203890085220337,0.6748200058937073,-0.1601793467998505,0,0,0,-1,-1,27398.99798816667,unknown,2,2025-04-22T11:01:23.743+03:00,2025-04-21T17:08:51.449+03:00,7097,0.9398554,0,0,5930.618,5,20,2025-04-22T11:01:54.697+03:00,767001673.5380644,0,-22.1,100.4668,1,0.95,2025-04-22T11:01:09.511+03:00,84,1.4,2025-04-22T09:54:17.825+03:00,0.02225348692287972,0
2025-04-22T11:02:09.547+03:00,1745308928.387496,40.95218625471538,29.14025411606978,76.06111,-1,-1,-1,-1,30,23.97249025624534,-9999,27405.30297016667,-0.7134552001953125,0.661224365234375,-0.1560211181640625,27405.29543016667,-1.324439473987309,-1.352395611850952,-0.7406581573458417,-0.01798377558588982,-0.02558505348861217,-0.008623034693300724,0.009799540042877197,-0.001724064350128174,0.0008033066987991333,XArbitraryZVertical,0.581335632159111,0.286523153628653,0.2684342970935282,-0.7126684060908529,-0.7204928398132324,0.6747738122940063,-0.159906730055809,0,0,0,-1,-1,27398.99798816667,unknown,2,2025-04-22T11:01:23.743+03:00,2025-04-21T17:08:51.449+03:00,7097,0.9398554,0,0,5930.618,5,20,2025-04-22T11:01:54.697+03:00,767001673.5380644,0,-22.1,100.4668,1,0.95,2025-04-22T11:01:09.511+03:00,84,1.4,2025-04-22T09:54:17.825+03:00,0.02225348692287972,0
2025-04-22T11:02:09.558+03:00,1745308928.387496,40.95218625471538,29.14025411606978,76.06111,-1,-1,-1,-1,30,23.97249025624534,-9999,27405.31304616667,-0.717193603515625,0.6630096435546875,-0.1563262939453125,27405.30550616667,-1.32463373868253,-1.352774296380578,-0.7405998947078957,-0.01188127510249615,-0.02325838431715965,-0.004380553029477596,0.00860142707824707,-0.01074481010437012,0.001576557755470276,XArbitraryZVertical,0.5814016386436938,0.286619851776226,0.2684119090682765,-0.7125841258117955,-0.7205917835235596,0.6747307777404785,-0.1596423834562302,0,0,0,-1,-1,27398.99798816667,unknown,2,2025-04-22T11:01:23.743+03:00,2025-04-21T17:08:51.449+03:00,7097,0.9398554,0,0,5930.618,5,20,2025-04-22T11:01:54.697+03:00,767001673.5380644,0,-22.1,100.4668,1,0.95,2025-04-22T11:01:09.511+03:00,84,1.4,2025-04-22T09:54:17.825+03:00,0.02225348692287972,0
2025-04-22T11:02:09.567+03:00,1745308928.387496,40.95218625471538,29.14025411606978,76.06111,-1,-1,-1,-1,30,23.97249025624534,-9999,27405.32312216667,-0.7166900634765625,0.67230224609375,-0.156402587890625,27405.31558216667,-1.324827472338201,-1.353119151272685,-0.7405914916436769,-0.01482353545725346,-0.02145835384726524,-0.002561347559094429,0.004389524459838867,-0.0136377215385437,0.003816366195678711,XArbitraryZVertical,0.5814738586351375,0.286689025481155,0.2683833423571318,-0.7125081352124218,-0.7206523418426514,0.6747245788574219,-0.1593951135873795,0,0,0,-1,-1,27398.99798816667,unknown,2,2025-04-22T11:01:23.743+03:00,2025-04-21T17:08:51.449+03:00,7097,0.9398554,0,0,5930.618,5,20,2025-04-22T11:01:54.697+03:00,767001673.5380644,0,-22.1,100.4668,1,0.95,2025-04-22T11:01:09.511+03:00,84,1.4,2025-04-22T09:54:17.825+03:00,0.02225348692287972,0
2025-04-22T11:02:09.577+03:00,1745308928.387496,40.95218625471538,29.14025411606978,76.06111,-1,-1,-1,-1,30,23.97249025624534,-9999,27405.33319816667,-0.7147216796875,0.6783599853515625,-0.1519622802734375,27405.32565816667,-1.324976755398644,-1.353447884271816,-0.7406010848328293,-0.004499658010900021,-0.02416718751192093,-0.004344666842371225,0.003489494323730469,-0.005054175853729248,0.001609757542610168,XArbitraryZVertical,0.5815414704386971,0.2867597011932678,0.2683378766866919,-0.7124415822747857,-0.7206982970237732,0.6747316718101501,-0.1591567844152451,0,0,0,-1,-1,27398.99798816667,unknown,2,2025-04-22T11:01:23.743+03:00,2025-04-21T17:08:51.449+03:00,7097,0.9398554,0,0,5930.618,5,20,2025-04-22T11:01:54.697+03:00,767001673.5380644,0,-22.1,100.4668,1,0.95,2025-04-22T11:01:09.511+03:00,84,1.4,2025-04-22T09:54:17.825+03:00,0.02225348692287972,0
2025-04-22T11:02:09.599+03:00,1745308928.387496,40.95218625471538,29.14025411606978,76.06111,-1,-1,-1,-1,30,23.97249025624534,-9999,27405.34327416667,-0.720367431640625,0.6788787841796875,-0.1519775390625,27405.33573416667,-1.325071536823121,-1.353737120489549,-0.7405672992895989,-0.007628605701029301,-0.02058257162570953,-0.006235244683921337,0.006014406681060791,0.001944065093994141,0.005739644169807434,XArbitraryZVertical,0.5815865393524893,0.2868457410076367,0.2682982440656072,-0.7123850854376333,-0.720766544342041,0.674706757068634,-0.1589532345533371,0,0,0,-1,-1,27398.99798816667,unknown,2,2025-04-22T11:01:23.743+03:00,2025-04-21T17:08:51.449+03:00,7097,0.9398554,0,0,5930.618,5,20,2025-04-22T11:01:54.697+03:00,767001673.5380644,0,-22.1,100.4668,1,0.95,2025-04-22T11:01:09.511+03:00,84,1.4,2025-04-22T09:54:17.825+03:00,0.02225348692287972,0
2025-04-22T11:02:09.601+03:00,1745308928.387496,40.95218625471538,29.14025411606978,76.06111,-1,-1,-1,-1,30,23.97249025624534,-9999,27405.35335016667,-0.7249298095703125,0.675872802734375,-0.1543121337890625,27405.34581016667,-1.325178505021564,-1.353951937119048,-0.7405087132622038,-0.004082340281456709,-0.007846270687878132,-0.005210194736719131,0.002440214157104492,0.004031956195831299,0.00701238214969635,XArbitraryZVertical,0.5816180212371563,0.2869094527933357,0.2682924198151702,-0.7123358678478361,-0.7208392024040222,0.6746634840965271,-0.1588068902492523,0,0,0,-1,-1,27398.99798816667,unknown,2,2025-04-22T11:01:23.743+03:00,2025-04-21T17:08:51.449+03:00,7097,0.9398554,0,0,5930.618,5,20,2025-04-22T11:01:54.697+03:00,767001673.5380644,0,-22.1,100.4668,1,0.95,2025-04-22T11:01:09.511+03:00,84,1.4,2025-04-22T09:54:17.825+03:00,0.02225348692287972,0
2025-04-22T11:02:09.607+03:00,1745308928.387496,40.95218625471538,29.14025411606978,76.06111,-1,-1,-1,-1,30,23.97249025624534,-9999,27405.36342716667,-0.720947265625,0.67041015625,-0.16009521484375,27405.35588616667,-1.325265923729274,-1.354083216458711,-0.7404779769193561,-0.01369635201990604,-0.006741590797901154,-0.005858940072357655,-0.002035200595855713,0.003520607948303223,0.005945697426795959,XArbitraryZVertical,0.5816414853184989,0.286940436507846,0.2682951530371021,-0.7123032684936186,-0.720880389213562,0.6746408343315125,-0.1587167382240295,0,0,0,-1,-1,27398.99798816667,unknown,2,2025-04-22T11:01:23.743+03:00,2025-04-21T17:08:51.449+03:00,7097,0.9398554,0,0,5930.618,5,20,2025-04-22T11:01:54.697+03:00,767001673.5380644,0,-22.1,100.4668,1,0.95,2025-04-22T11:01:09.511+03:00,84,1.4,2025-04-22T09:54:17.825+03:00,0.02225348692287972,0
2025-04-22T11:02:09.618+03:00,1745308928.387496,40.95218625471538,29.14025411606978,76.06111,-1,-1,-1,-1,30,23.97249025624534,-9999,27405.37350316667,-0.7106475830078125,0.669097900390625,-0.155517578125,27405.36596316667,-1.325495119520012,-1.354416125219252,-0.7405154308501342,-0.01922540739178658,-0.03435570746660233,-0.002066898625344038,-0.002739489078521729,-0.001984953880310059,-0.0002506822347640991,XArbitraryZVertical,0.5817271452166018,0.286980613313475,0.2682680759791986,-0.7122273150627734,-0.720908522605896,0.6746684312820435,-0.1584713160991669,0,0,0,-1,-1,27398.99798816667,unknown,2,2025-04-22T11:01:23.743+03:00,2025-04-21T17:08:51.449+03:00,7097,0.9398554,0,0,5930.618,5,20,2025-04-22T11:01:54.697+03:00,767001673.5380644,0,-22.1,100.4668,1,0.95,2025-04-22T11:01:09.511+03:00,84,1.4,2025-04-22T09:54:17.825+03:00,0.02225348692287972,0
2025-04-22T11:02:09.628+03:00,1745308928.387496,40.95218625471538,29.14025411606978,76.06111,-1,-1,-1,-1,30,23.97249025624534,-9999,27405.38357916667,-0.7119140625,0.6673431396484375,-0.1496429443359375,27405.37603916667,-1.32588668207976,-1.355093016019039,-0.7405565945486214,-0.03225012868642807,-0.0445265881717205,-0.00663475226610899,0.00675511360168457,-0.005067050457000732,-0.0001648068428039551,XArbitraryZVertical,0.5818830224871409,0.2870948697385947,0.2681975603018431,-0.7120805127383977,-0.7209885120391846,0.6746988296508789,-0.1579773724079132,0,0,0,-1,-1,27398.99798816667,unknown,2,2025-04-22T11:01:23.743+03:00,2025-04-21T17:08:51.449+03:00,7097,0.9398554,0,0,5930.618,5,20,2025-04-22T11:01:54.697+03:00,767001673.5380644,0,-22.1,100.4668,1,0.95,2025-04-22T11:01:09.511+03:00,84,1.4,2025-04-22T09:54:17.825+03:00,0.02225348692287972,0
2025-04-22T11:02:09.638+03:00,1745308928.387496,40.95218625471538,29.14025411606978,76.06111,-1,-1,-1,-1,30,23.97249025624534,-9999,27405.39365516667,-0.7270355224609375,0.6641845703125,-0.1575927734375,27405.38611516667,-1.326229993181583,-1.355661363529164,-0.7405419609227976,-0.02301801554858685,-0.02149290777742863,-0.005388792604207993,0.01187461614608765,-0.006322741508483887,0.006446614861488342,XArbitraryZVertical,0.5820053605065766,0.2872018858298456,0.2681590434627888,-0.7119518615189298,-0.7210878133773804,0.6746880412101746,-0.1575696766376495,0,0,0,-1,-1,27398.99798816667,unknown,2,2025-04-22T11:01:23.743+03:00,2025-04-21T17:08:51.449+03:00,7097,0.9398554,0,0,5930.618,5,20,2025-04-22T11:01:54.697+03:00,767001673.5380644,0,-22.1,100.4668,1,0.95,2025-04-22T11:01:09.511+03:00,84,1.4,2025-04-22T09:54:17.825+03:00,0.02225348692287972,0
2025-04-22T11:02:09.648+03:00,1745308928.387496,40.95218625471538,29.14025411606978,76.06111,-1,-1,-1,-1,30,23.97249025624534,-9999,27405.40373116667,-0.7300872802734375,0.6768646240234375,-0.1569976806640625,27405.39619116667,-1.326522704034715,-1.355943028955624,-0.7405348401635334,-0.01879264414310455,0.001842775614932179,0.0003324764547869563,0.000250697135925293,-0.01052886247634888,0.003421604633331299,XArbitraryZVertical,0.5820836070561993,0.2872192089351053,0.2681835426058779,-0.7118717119669635,-0.7211369276046753,0.6746827960014343,-0.1573676019906998,0,0,0,-1,-1,27398.99798816667,unknown,2,2025-04-22T11:01:23.743+03:00,2025-04-21T17:08:51.449+03:00,7097,0.9398554,0,0,5930.618,5,20,2025-04-22T11:01:54.697+03:00,767001673.5380644,0,-22.1,100.4668,1,0.95,2025-04-22T11:01:09.511+03:00,84,1.4,2025-04-22T09:54:17.825+03:00,0.02225348692287972,0
2025-04-22T11:02:09.658+03:00,1745308928.387496,40.95218625471538,29.14025411606978,76.06111,-1,-1,-1,-1,30,23.97249025624534,-9999,27405.41380716667,-0.715667724609375,0.6820526123046875,-0.1521759033203125,27405.40626716667,-1.326667164155878,-1.356079510002144,-0.7405615010296438,-0.002890709321945906,-0.01483107637614012,0.0004372384864836931,-0.01070117950439453,-0.003895699977874756,-0.002250134944915771,XArbitraryZVertical,0.5821284164302387,0.287217398235634,0.2681867823817934,-0.71183458196602,-0.7211408615112305,0.6747024655342102,-0.1572653502225876,0,0,0,-1,-1,27398.99798816667,unknown,2,2025-04-22T11:01:23.743+03:00,2025-04-21T17:08:51.449+03:00,7097,0.9398554,0,0,5930.618,5,20,2025-04-22T11:01:54.697+03:00,767001673.5380644,0,-22.1,100.4668,1,0.95,2025-04-22T11:01:09.511+03:00,84,1.4,2025-04-22T09:54:17.825+03:00,0.02225348692287972,0
2025-04-22T11:02:09.668+03:00,1745308928.387496,40.95218625471538,29.14025411606978,76.06111,-1,-1,-1,-1,30,23.97249025624534,-9999,27405.42388316667,-0.705780029296875,0.6772003173828125,-0.1547698974609375,27405.41634316667,-1.326842452148053,-1.356411051156531,-0.7406172783918278,-0.01654979586601257,-0.0256083570420742,0.0007506925612688065,-0.0004319548606872559,0.007491946220397949,0.004735410213470459,XArbitraryZVertical,0.5822100956160279,0.2872669176514722,0.2681349738040629,-0.7117673198557919,-0.7211561799049377,0.67474365234375,-0.15701824426651,0,0,0,-1,-1,27398.99798816667,unknown,2,2025-04-22T11:01:23.743+03:00,2025-04-21T17:08:51.449+03:00,7097,0.9398554,0,0,5930.618,5,20,2025-04-22T11:01:54.697+03:00,767001673.5380644,0,-22.1,100.4668,1,0.95,2025-04-22T11:01:09.511+03:00,84,1.4,2025-04-22T09:54:17.825+03:00,0.02225348692287972,0
2025-04-22T11:02:09.679+03:00,1745308928.387496,40.95218625471538,29.14025411606978,76.06111,-1,-1,-1,-1,30,23.97249025624534,-9999,27405.43395916667,-0.7115020751953125,0.669647216796875,-0.15228271484375,27405.42641916667,-1.327106215659409,-1.356898393125614,-0.7406855173280659,-0.01503066252917051,-0.0345810130238533,0.0001310082734562457,0.01353079080581665,0.00451195240020752,0.003138229250907898,XArbitraryZVertical,0.5823280341272322,0.2873422189156054,0.2680653326235139,-0.7116667175137403,-0.7211877107620239,0.6747939586639404,-0.1566570252180099,0,0,0,-1,-1,27398.99798816667,unknown,2,2025-04-22T11:01:23.743+03:00,2025-04-21T17:08:51.449+03:00,7097,0.9398554,0,0,5930.618,5,20,2025-04-22T11:01:54.697+03:00,767001673.5380644,0,-22.1,100.4668,1,0.95,2025-04-22T11:01:09.511+03:00,84,1.4,2025-04-22T09:54:17.825+03:00,0.02225348692287972,0
2025-04-22T11:02:09.688+03:00,1745308928.387496,40.95218625471538,29.14025411606978,76.06111,-1,-1,-1,-1,30,23.97249025624534,-9999,27405.44403516667,-0.71575927734375,0.67071533203125,-0.1557159423828125,27405.43649516667,-1.327341832166845,-1.357452994950965,-0.7407211987178328,-0.02424679882824421,-0.03728358820080757,-0.0006871147779747844,0.01273941993713379,-0.002319931983947754,0.002443209290504456,XArbitraryZVertical,0.5824439650900598,0.2874597119291359,0.2679762900264764,-0.711557800194015,-0.7212507724761963,0.6748203039169312,-0.1562518775463104,0,0,0,-1,-1,27398.99798816667,unknown,2,2025-04-22T11:01:23.743+03:00,2025-04-21T17:08:51.449+03:00,7097,0.9398554,0,0,5930.618,5,20,2025-04-22T11:01:54.697+03:00,767001673.5380644,0,-22.1,100.4668,1,0.95,2025-04-22T11:01:09.511+03:00,84,1.4,2025-04-22T09:54:17.825+03:00,0.02225348692287972,0
2025-04-22T11:02:09.698+03:00,1745308928.387496,40.95218625471538,29.14025411606978,76.06111,-1,-1,-1,-1,30,23.97249025624534,-9999,27405.45411116667,-0.7181396484375,0.6723175048828125,-0.157867431640625,27405.44657116667,-1.327758946644173,-1.358099716807659,-0.7407633181432206,-0.03495097532868385,-0.03843127936124802,-0.0007404445786960423,0.006495356559753418,-0.005845248699188232,0.002245381474494934,XArbitraryZVertical,0.5825996697488951,0.2875550897303762,0.2679229295948056,-0.7114118396790513,-0.7213237881660461,0.6748514175415039,-0.1557793915271759,0,0,0,-1,-1,27398.99798816667,unknown,2,2025-04-22T11:01:23.743+03:00,2025-04-21T17:08:51.449+03:00,7097,0.9398554,0,0,5930.618,5,20,2025-04-22T11:01:54.697+03:00,767001673.5380644,0,-22.1,100.4668,1,0.95,2025-04-22T11:01:09.511+03:00,84,1.4,2025-04-22T09:54:17.825+03:00,0.02225348692287972,0
2025-04-22T11:02:09.708+03:00,1745308928.387496,40.95218625471538,29.14025411606978,76.06111,-1,-1,-1,-1,30,23.97249025624534,-9999,27405.46418716667,-0.71685791015625,0.6676483154296875,-0.155975341796875,27405.45664716667,-1.328192852311887,-1.358815325044342,-0.7408334212737399,-0.03603807836771011,-0.0472271665930748,-0.0006272602477110922,0.003707051277160645,-0.001761853694915771,-0.002934679388999939,XArbitraryZVertical,0.5827730149738489,0.2876612630188801,0.267846533891192,-0.7112557170243365,-0.7213888764381409,0.6749031543731689,-0.1552532166242599,0,0,0,-1,-1,27398.99798816667,unknown,2,2025-04-22T11:01:23.743+03:00,2025-04-21T17:08:51.449+03:00,7097,0.9398554,0,0,5930.618,5,20,2025-04-22T11:01:54.697+03:00,767001673.5380644,0,-22.1,100.4668,1,0.95,2025-04-22T11:01:09.511+03:00,84,1.4,2025-04-22T09:54:17.825+03:00,0.02225348692287972,0
2025-04-22T11:02:09.718+03:00,1745308928.387496,40.95218625471538,29.14025411606978,76.06111,-1,-1,-1,-1,30,23.97249025624534,-9999,27405.47426316667,-0.7211151123046875,0.6734466552734375,-0.1545562744140625,27405.46672316667,-1.328693762592277,-1.359645147430572,-0.7409206900169082,-0.03543407097458839,-0.04783649742603302,0.0003348066820763052,0.004540979862213135,-0.006342887878417969,-0.001562103629112244,XArbitraryZVertical,0.582974984495798,0.2877830252757708,0.2677551005633369,-0.7110753412844992,-0.7214598655700684,0.6749675273895264,-0.1546421945095062,0,0,0,-1,-1,27398.99798816667,unknown,2,2025-04-22T11:01:23.743+03:00,2025-04-21T17:08:51.449+03:00,7097,0.9398554,0,0,5930.618,5,20,2025-04-22T11:01:54.697+03:00,767001673.5380644,0,-22.1,100.4668,1,0.95,2025-04-22T11:01:09.511+03:00,84,1.4,2025-04-22T09:54:17.825+03:00,0.02225348692287972,0
2025-04-22T11:02:09.729+03:00,1745308928.387496,40.95218625471538,29.14025411606978,76.06111,-1,-1,-1,-1,30,23.97249025624534,-9999,27405.48433916667,-0.7279052734375,0.6792144775390625,-0.1555633544921875,27405.47679916667,-1.329087031187776,-1.360307519576164,-0.7409479035592592,-0.02526532299816608,-0.02833043783903122,-9.236438199877739e-05,0.002794206142425537,-0.0046844482421875,-0.001006230711936951,XArbitraryZVertical,0.5831261026519247,0.2878953337215507,0.2676931713281581,-0.7109292754911184,-0.7215442061424255,0.6749876141548157,-0.1541604548692703,0,0,0,-1,-1,27398.99798816667,unknown,2,2025-04-22T11:01:23.743+03:00,2025-04-21T17:08:51.449+03:00,7097,0.9398554,0,0,5930.618,5,20,2025-04-22T11:01:54.697+03:00,767001673.5380644,0,-22.1,100.4668,1,0.95,2025-04-22T11:01:09.511+03:00,84,1.4,2025-04-22T09:54:17.825+03:00,0.02225348692287972,0
2025-04-22T11:02:09.738+03:00,1745308928.387496,40.95218625471538,29.14025411606978,76.06111,-1,-1,-1,-1,30,23.97249025624534,-9999,27405.49441516667,-0.7256622314453125,0.68206787109375,-0.159027099609375,27405.48687516667,-1.32936318724583,-1.360683122458124,-0.7409777982568111,-0.02071584574878216,-0.01617843471467495,0.002252282574772835,-0.004369795322418213,0.002434611320495605,-0.0001218169927597046,XArbitraryZVertical,0.5832225474351649,0.2879389658726185,0.2676723252187904,-0.7108403568428419,-0.7215823531150818,0.6750096678733826,-0.15388523042202,0,0,0,-1,-1,27398.99798816667,unknown,2,2025-04-22T11:01:23.743+03:00,2025-04-21T17:08:51.449+03:00,7097,0.9398554,0,0,5930.618,5,20,2025-04-22T11:01:54.697+03:00,767001673.5380644,0,-22.1,100.4668,1,0.95,2025-04-22T11:01:09.511+03:00,84,1.4,2025-04-22T09:54:17.825+03:00,0.02225348692287972,0
2025-04-22T11:02:09.748+03:00,1745308928.387496,40.95218625471538,29.14025411606978,76.06111,-1,-1,-1,-1,30,23.97249025624534,-9999,27405.50449116667,-0.7175445556640625,0.679901123046875,-0.161529541015625,27405.49695116667,-1.329575986878028,-1.361035200523308,-0.7410644878682283,-0.007212021388113499,-0.02753229066729546,0.00291807297617197,-0.005776762962341309,0.005986869335174561,-0.003943353891372681,XArbitraryZVertical,0.5833189597760998,0.2879748533551051,0.2676177065680713,-0.7107671934740123,-0.7215791344642639,0.6750736236572266,-0.1536189466714859,0,0,0,-1,-1,27398.99798816667,unknown,2,2025-04-22T11:01:23.743+03:00,2025-04-21T17:08:51.449+03:00,7097,0.9398554,0,0,5930.618,5,20,2025-04-22T11:01:54.697+03:00,767001673.5380644,0,-22.1,100.4668,1,0.95,2025-04-22T11:01:09.511+03:00,84,1.4,2025-04-22T09:54:17.825+03:00,0.02225348692287972,0
2025-04-22T11:02:09.758+03:00,1745308928.387496,40.95218625471538,29.14025411606978,76.06111,-1,-1,-1,-1,30,23.97249025624534,-9999,27405.51456716667,-0.711395263671875,0.6800079345703125,-0.1667938232421875,27405.50702716667,-1.329553350404803,-1.361405944089974,-0.7411083211140403,0.006894476711750031,-0.04898431897163391,-0.004254885017871857,0.0014076828956604,0.00586313009262085,-0.007970690727233887,XArbitraryZVertical,0.5833746613096432,0.288099546248939,0.267487667071908,-0.7107200257691242,-0.7216072678565979,0.6751059293746948,-0.1533453166484833,0,0,0,-1,-1,27398.99798816667,unknown,2,2025-04-22T11:01:23.743+03:00,2025-04-21T17:08:51.449+03:00,7097,0.9398554,0,0,5930.618,5,20,2025-04-22T11:01:54.697+03:00,767001673.5380644,0,-22.1,100.4668,1,0.95,2025-04-22T11:01:09.511+03:00,84,1.4,2025-04-22T09:54:17.825+03:00,0.02225348692287972,0
2025-04-22T11:02:09.768+03:00,1745308928.387496,40.95218625471538,29.14025411606978,76.06111,-1,-1,-1,-1,30,23.97249025624534,-9999,27405.52464316667,-0.7131805419921875,0.6883544921875,-0.1703033447265625,27405.51710316667,-1.32964776276608,-1.361982216774095,-0.7411220785547954,-0.02767761424183846,-0.05581958964467049,-0.003369916696101427,0.009329855442047119,0.003381013870239258,-0.01133345067501068,XArbitraryZVertical,0.5834682923526183,0.2882724428222447,0.2673487144086839,-0.7106252829396964,-0.7216863632202148,0.6751161217689514,-0.152927502989769,0,0,0,-1,-1,27398.99798816667,unknown,2,2025-04-22T11:01:23.743+03:00,2025-04-21T17:08:51.449+03:00,7097,0.9398554,0,0,5930.618,5,20,2025-04-22T11:01:54.697+03:00,767001673.5380644,0,-22.1,100.4668,1,0.95,2025-04-22T11:01:09.511+03:00,84,1.4,2025-04-22T09:54:17.825+03:00,0.02225348692287972,0
2025-04-22T11:02:09.779+03:00,1745308928.387496,40.95218625471538,29.14025411606978,76.06111,-1,-1,-1,-1,30,23.97249025624534,-9999,27405.53471916667,-0.7218017578125,0.67626953125,-0.1714019775390625,27405.52717916667,-1.330135739860964,-1.362955238836453,-0.7411148586390076,-0.04620203003287315,-0.07160601019859314,-0.01346609368920326,0.01049023866653442,0.01066488027572632,-0.01803137362003326,XArbitraryZVertical,0.5836671091377624,0.2884780424805382,0.2672405016601861,-0.7104193478337781,-0.7218397259712219,0.6751107573509216,-0.1522262543439865,0,0,0,-1,-1,27398.99798816667,unknown,2,2025-04-22T11:01:23.743+03:00,2025-04-21T17:08:51.449+03:00,7097,0.9398554,0,0,5930.618,5,20,2025-04-22T11:01:54.697+03:00,767001673.5380644,0,-22.1,100.4668,1,0.95,2025-04-22T11:01:09.511+03:00,84,1.4,2025-04-22T09:54:17.825+03:00,0.02225348692287972,0
2025-04-22T11:02:09.789+03:00,1745308928.387496,40.95218625471538,29.14025411606978,76.06111,-1,-1,-1,-1,30,23.97249025624534,-9999,27405.54479516667,-0.733551025390625,0.6707763671875,-0.16278076171875,27405.53725516667,-1.331548733426784,-1.364556217563494,-0.7411688585213589,-0.1507390886545181,-0.05743400007486343,-0.02093865722417831,0.003525674343109131,0.008137822151184082,-0.01911836862564087,XArbitraryZVertical,0.5840964776025807,0.2886171191589188,0.2672576899373204,-0.7100033444585336,-0.7220467925071716,0.6751506328582764,-0.1510629206895828,0,0,0,-1,-1,27398.99798816667,unknown,2,2025-04-22T11:01:23.743+03:00,2025-04-21T17:08:51.449+03:00,7097,0.9398554,0,0,5930.618,5,20,2025-04-22T11:01:54.697+03:00,767001673.5380644,0,-22.1,100.4668,1,0.95,2025-04-22T11:01:09.511+03:00,84,1.4,2025-04-22T09:54:17.825+03:00,0.02225348692287972,0
2025-04-22T11:02:09.799+03:00,1745308928.387496,40.95218625471538,29.14025411606978,76.06111,-1,-1,-1,-1,30,23.97249025624534,-9999,27405.55487116667,-0.7431488037109375,0.673431396484375,-0.147613525390625,27405.54733116667,-1.334391551431371,-1.366805600632232,-0.7414302865212624,-0.2629935443401337,-0.01795989088714123,-0.009189356118440628,-0.006547808647155762,-0.006306707859039307,-0.01926803588867188,XArbitraryZVertical,0.5848631745905203,0.2885025920936735,0.2675259386227397,-0.7093174375894846,-0.7222119569778442,0.6753434538841248,-0.1494026482105255,0,0,0,-1,-1,27398.99798816667,unknown,2,2025-04-22T11:01:23.743+03:00,2025-04-21T17:08:51.449+03:00,7097,0.9398554,0,0,5930.618,5,20,2025-04-22T11:01:54.697+03:00,767001673.5380644,0,-22.1,100.4668,1,0.95,2025-04-22T11:01:09.511+03:00,84,1.4,2025-04-22T09:54:17.825+03:00,0.02225348692287972,0
2025-04-22T11:02:09.809+03:00,1745308928.387496,40.95218625471538,29.14025411606978,76.06111,-1,-1,-1,-1,30,23.97249025624534,-9999,27405.56494716667,-0.7399139404296875,0.64849853515625,-0.151885986328125,27405.55740716667,-1.337936729302838,-1.369144352755682,-0.7419018832592692,-0.2535659372806549,0.01067201979458332,-0.001020642463117838,-0.01823127269744873,-0.001023948192596436,-0.003366947174072266,XArbitraryZVertical,0.5857876103808431,0.2881461431863442,0.267948064083413,-0.7085397164747342,-0.722247302532196,0.6756911873817444,-0.147649347782135,0,0,0,-1,-1,27398.99798816667,unknown,2,2025-04-22T11:01:23.743+03:00,2025-04-21T17:08:51.449+03:00,7097,0.9398554,0,0,5930.618,5,20,2025-04-22T11:01:54.697+03:00,767001673.5380644,0,-22.1,100.4668,1,0.95,2025-04-22T11:01:09.511+03:00,84,1.4,2025-04-22T09:54:17.825+03:00,0.02225348692287972,0
2025-04-22T11:02:09.819+03:00,1745308928.387496,40.95218625471538,29.14025411606978,76.06111,-1,-1,-1,-1,30,23.97249025624534,-9999,27405.57502316667,-0.7294464111328125,0.6413116455078125,-0.1569976806640625,27405.56748316667,-1.341043883125138,-1.371143959258758,-0.7424647545284162,-0.2160588353872299,0.007437277585268021,0.01774049550294876,-0.02047717571258545,-0.01558369398117065,-0.001438498497009277,XArbitraryZVertical,0.5866222019976,0.2877667562715642,0.268283033379601,-0.7078762780240281,-0.7221680879592896,0.6761059761047363,-0.1461293697357178,0,0,0,-1,-1,27398.99798816667,unknown,2,2025-04-22T11:01:23.743+03:00,2025-04-21T17:08:51.449+03:00,7097,0.9398554,0,0,5930.618,5,20,2025-04-22T11:01:54.697+03:00,767001673.5380644,0,-22.1,100.4668,1,0.95,2025-04-22T11:01:09.511+03:00,84,1.4,2025-04-22T09:54:17.825+03:00,0.02225348692287972,0
2025-04-22T11:02:09.829+03:00,1745308928.387496,40.95218625471538,29.14025411606978,76.06111,-1,-1,-1,-1,30,23.97249025624534,-9999,27405.58509916667,-0.7248077392578125,0.6781158447265625,-0.1793060302734375,27405.57755916667,-1.343078524186578,-1.372541749682711,-0.7428725821982095,-0.08481240272521973,-0.02223486453294754,-0.0006739321979694068,-0.01050382852554321,-0.0388791561126709,-0.01165764033794403,XArbitraryZVertical,0.5871884540248502,0.2875360833363277,0.268462853398785,-0.7074321262693015,-0.722101092338562,0.6764064431190491,-0.1450654417276382,0,0,0,-1,-1,27398.99798816667,unknown,2,2025-04-22T11:01:23.743+03:00,2025-04-21T17:08:51.449+03:00,7097,0.9398554,0,0,5930.618,5,20,2025-04-22T11:01:54.697+03:00,767001673.5380644,0,-22.1,100.4668,1,0.95,2025-04-22T11:01:09.511+03:00,84,1.4,2025-04-22T09:54:17.825+03:00,0.02225348692287972,0
2025-04-22T11:02:09.839+03:00,1745308928.387496,40.95218625471538,29.14025411606978,76.06111,-1,-1,-1,-1,30,23.97249025624534,-9999,27405.59517516667,-0.7133026123046875,0.74462890625,-0.2366943359375,27405.58763516667,-1.343053718891417,-1.372830583512117,-0.7426565307110087,0.06529127061367035,-0.04689180478453636,-0.04526793211698532,-0.003543674945831299,-0.01683890819549561,-0.0196804404258728,XArbitraryZVertical,0.5871781091637219,0.2877134808731798,0.2684381442759464,-0.7073780742702461,-0.7222864031791687,0.6762472987174988,-0.1448856443166733,0,0,0,-1,-1,27398.99798816667,unknown,2,2025-04-22T11:01:23.743+03:00,2025-04-21T17:08:51.449+03:00,7097,0.9398554,0,0,5930.618,5,20,2025-04-22T11:01:54.697+03:00,767001673.5380644,0,-22.1,100.4668,1,0.95,2025-04-22T11:01:09.511+03:00,84,1.4,2025-04-22T09:54:17.825+03:00,0.02225348692287972,0
2025-04-22T11:02:09.849+03:00,1745308928.387496,40.95218625471538,29.14025411606978,76.06111,-1,-1,-1,-1,30,23.97249025624534,-9999,27405.60525216667,-0.7015380859375,0.79522705078125,-0.25604248046875,27405.59771116667,-1.342181652247925,-1.372809305166221,-0.7418561167883997,0.09553519636392593,-0.07858395576477051,-0.09637558460235596,0.003728032112121582,0.04138338565826416,-0.06945495307445526,XArbitraryZVertical,0.5868810424002681,0.2882133550934832,0.2683908122843486,-0.7074389920539144,-0.7228136658668518,0.6756574511528015,-0.1450074017047882,0,0,0,-1,-1,27398.99798816667,unknown,2,2025-04-22T11:01:23.743+03:00,2025-04-21T17:08:51.449+03:00,7097,0.9398554,0,0,5930.618,5,20,2025-04-22T11:01:54.697+03:00,767001673.5380644,0,-22.1,100.4668,1,0.95,2025-04-22T11:01:09.511+03:00,84,1.4,2025-04-22T09:54:17.825+03:00,0.02225348692287972,0
2025-04-22T11:02:09.859+03:00,1745308928.387496,40.95218625471538,29.14025411606978,76.06111,-1,-1,-1,-1,30,23.97249025624534,-9999,27405.61532816667,-0.7083587646484375,0.77984619140625,-0.2506561279296875,27405.60778816667,-1.340962882354578,-1.37276500182609,-0.7403295364682884,0.1129043996334076,-0.08172988146543503,-0.1752200424671173,0.02020448446273804,0.1085343956947327,-0.1102205514907837,XArbitraryZVertical,0.586376960699947,0.2890345227254132,0.2684588334549788,-0.7074962221745228,-0.7238178253173828,0.6745312213897705,-0.1452422142028809,0,0,0,-1,-1,27398.99798816667,unknown,2,2025-04-22T11:01:23.743+03:00,2025-04-21T17:08:51.449+03:00,7097,0.9398554,0,0,5930.618,5,20,2025-04-22T11:01:54.697+03:00,767001673.5380644,0,-22.1,100.4668,1,0.95,2025-04-22T11:01:09.511+03:00,84,1.4,2025-04-22T09:54:17.825+03:00,0.02225348692287972,0
2025-04-22T11:02:09.869+03:00,1745308928.387496,40.95218625471538,29.14025411606978,76.06111,-1,-1,-1,-1,30,23.97249025624534,-9999,27405.62540416667,-0.7264404296875,0.7358551025390625,-0.2366943359375,27405.61786416667,-1.341043711574297,-1.373522440361355,-0.7383172917904589,-0.04807782918214798,-0.05555500462651253,-0.2134310752153397,0.02057570219039917,0.1191612482070923,-0.1063374727964401,XArbitraryZVertical,0.5860651101426976,0.2899101025399653,0.2689060226296014,-0.7072264338253879,-0.7252570390701294,0.6730443239212036,-0.1449596434831619,0,0,0,-1,-1,27398.99798816667,unknown,2,2025-04-22T11:01:23.743+03:00,2025-04-21T17:08:51.449+03:00,7097,0.9398554,0,0,5930.618,5,20,2025-04-22T11:01:54.697+03:00,767001673.5380644,0,-22.1,100.4668,1,0.95,2025-04-22T11:01:09.511+03:00,84,1.4,2025-04-22T09:54:17.825+03:00,0.02225348692287972,0
2025-04-22T11:02:09.879+03:00,1745308928.387496,40.95218625471538,29.14025411606978,76.06111,-1,-1,-1,-1,30,23.97249025624534,-9999,27405.63548016667,-0.7578277587890625,0.6768951416015625,-0.22808837890625,27405.62794016667,-1.34334804529427,-1.375362519290793,-0.7360192019053313,-0.1939019411802292,-0.02121893502771854,-0.2746390700340271,0.008852481842041016,0.08158659934997559,-0.1014823764562607,XArbitraryZVertical,0.5861618408217825,0.2906060504984884,0.2699127099384591,-0.7064767424970546,-0.7270379066467285,0.6713429093360901,-0.1439248323440552,0,0,0,-1,-1,27398.99798816667,unknown,2,2025-04-22T11:01:23.743+03:00,2025-04-21T17:08:51.449+03:00,7097,0.9398554,0,0,5930.618,5,20,2025-04-22T11:01:54.697+03:00,767001673.5380644,0,-22.1,100.4668,1,0.95,2025-04-22T11:01:09.511+03:00,84,1.4,2025-04-22T09:54:17.825+03:00,0.02225348692287972,0
2025-04-22T11:02:09.890+03:00,1745308928.387496,40.95218625471538,29.14025411606978,76.06111,-1,-1,-1,-1,30,23.97249025624534,-9999,27405.64555616667,-0.7870330810546875,0.63140869140625,-0.2627410888671875,27405.63801616667,-1.345807447943283,-1.376059537400335,-0.7336477758851098,-0.005794087424874306,0.291787177324295,-0.2692941129207611,-0.0152442455291748,0.03123736381530762,-0.08311152458190918,XArbitraryZVertical,0.5861131565075438,0.290875410600595,0.2713314364225053,-0.7058625951249606,-0.7286980152130127,0.6695834398269653,-0.143725723028183,0,0,0,-1,-1,27398.99798816667,unknown,2,2025-04-22T11:01:23.743+03:00,2025-04-21T17:08:51.449+03:00,7097,0.9398554,0,0,5930.618,5,20,2025-04-22T11:01:54.697+03:00,767001673.5380644,0,-22.1,100.4668,1,0.95,2025-04-22T11:01:09.511+03:00,84,1.4,2025-04-22T09:54:17.825+03:00,0.02225348692287972,0
2025-04-22T11:02:09.900+03:00,1745308928.387496,40.95218625471538,29.14025411606978,76.06111,-1,-1,-1,-1,30,23.97249025624534,-9999,27405.65563216667,-0.760894775390625,0.6441650390625,-0.3100433349609375,27405.64809216667,-1.344848588244052,-1.370848873646564,-0.731767601050608,0.159476637840271,0.5616583228111267,-0.03246651589870453,-0.05061334371566772,-0.02395981550216675,-0.0965227484703064,XArbitraryZVertical,0.5848668206882127,0.2899060601889836,0.2731157742801575,-0.7066066756939322,-0.7291718125343323,0.6681857705116272,-0.1477705538272858,0,0,0,-1,-1,27398.99798816667,unknown,2,2025-04-22T11:01:23.743+03:00,2025-04-21T17:08:51.449+03:00,7097,0.9398554,0,0,5930.618,5,20,2025-04-22T11:01:54.697+03:00,767001673.5380644,0,-22.1,100.4668,1,0.95,2025-04-22T11:01:09.511+03:00,84,1.4,2025-04-22T09:54:17.825+03:00,0.02225348692287972,0
2025-04-22T11:02:09.910+03:00,1745308928.387496,40.95218625471538,29.14025411606978,76.06111,-1,-1,-1,-1,30,23.97249025624534,-9999,27405.66570816667,-0.698516845703125,0.6722869873046875,-0.2746429443359375,27405.65816816667,-1.343218843075486,-1.364858684658478,-0.7321707762568181,0.07951388508081436,0.3662206530570984,0.1301072239875793,-0.05127173662185669,-0.03623789548873901,-0.1484259963035583,XArbitraryZVertical,0.5838975168412897,0.2881377380040385,0.2741619325045908,-0.7077256228347388,-0.7280098795890808,0.6684856414794922,-0.1520806699991226,0,0,0,-1,-1,27398.99798816667,unknown,2,2025-04-22T11:01:23.743+03:00,2025-04-21T17:08:51.449+03:00,7097,0.9398554,0,0,5930.618,5,20,2025-04-22T11:01:54.697+03:00,767001673.5380644,0,-22.1,100.4668,1,0.95,2025-04-22T11:01:09.511+03:00,84,1.4,2025-04-22T09:54:17.825+03:00,0.02225348692287972,0
2025-04-22T11:02:09.920+03:00,1745308928.387496,40.95218625471538,29.14025411606978,76.06111,-1,-1,-1,-1,30,23.97249025624534,-9999,27405.67578416667,-0.7249603271484375,0.62945556640625,-0.273651123046875,27405.66824416667,-1.34276884323637,-1.362194400702813,-0.7330546290353502,-0.04281701892614365,0.1548104882240295,0.0811610072851181,0.009769141674041748,-0.0005943179130554199,-0.136202871799469,XArbitraryZVertical,0.5836561253515705,0.2870485384242359,0.2745002813606104,-0.7082360013420069,-0.7270237803459167,0.6691427230834961,-0.1538973301649094,0,0,0,-1,-1,27398.99798816667,unknown,2,2025-04-22T11:01:23.743+03:00,2025-04-21T17:08:51.449+03:00,7097,0.9398554,0,0,5930.618,5,20,2025-04-22T11:01:54.697+03:00,767001673.5380644,0,-22.1,100.4668,1,0.95,2025-04-22T11:01:09.511+03:00,84,1.4,2025-04-22T09:54:17.825+03:00,0.02225348692287972,0
2025-04-22T11:02:09.930+03:00,1745308928.387496,40.95218625471538,29.14025411606978,76.06111,-1,-1,-1,-1,30,23.97249025624534,-9999,27405.68586016667,-0.773773193359375,0.60955810546875,-0.2997283935546875,27405.67832016667,-1.34363767051607,-1.361200885849692,-0.7344360620213993,-0.1409686207771301,0.1589058935642242,0.1635640114545822,0.02194035053253174,-0.01980876922607422,-0.1147227883338928,XArbitraryZVertical,0.583939360918775,0.2860092396241329,0.2746604742140303,-0.7083608544218717,-0.7259656190872192,0.6701686978340149,-0.1544270813465118,0,0,0,-1,-1,27398.99798816667,unknown,2,2025-04-22T11:01:23.743+03:00,2025-04-21T17:08:51.449+03:00,7097,0.9398554,0,0,5930.618,5,20,2025-04-22T11:01:54.697+03:00,767001673.5380644,0,-22.1,100.4668,1,0.95,2025-04-22T11:01:09.511+03:00,84,1.4,2025-04-22T09:54:17.825+03:00,0.02225348692287972,0
2025-04-22T11:02:09.940+03:00,1745308928.387496,40.95218625471538,29.14025411606978,76.06111,-1,-1,-1,-1,30,23.97249025624534,-9999,27405.69593616667,-0.7699737548828125,0.6317901611328125,-0.34808349609375,27405.68839616667,-1.345503518989329,-1.360722559185922,-0.7369681271641717,-0.2308192104101181,0.153751015663147,0.2426172494888306,-0.03762632608413696,-0.0636170506477356,-0.1324911117553711,XArbitraryZVertical,0.5846798065445095,0.2844987604852018,0.2746591666620424,-0.7083588734001243,-0.7242297530174255,0.672045886516571,-0.1544199585914612,0,0,0,-1,-1,27398.99798816667,unknown,2,2025-04-22T11:01:23.743+03:00,2025-04-21T17:08:51.449+03:00,7097,0.9398554,0,0,5930.618,5,20,2025-04-22T11:01:54.697+03:00,767001673.5380644,0,-22.1,100.4668,1,0.95,2025-04-22T11:01:09.511+03:00,84,1.4,2025-04-22T09:54:17.825+03:00,0.02225348692287972,0
2025-04-22T11:02:09.950+03:00,1745308928.387496,40.95218625471538,29.14025411606978,76.06111,-1,-1,-1,-1,30,23.97249025624534,-9999,27405.70601216667,-0.7400360107421875,0.6358795166015625,-0.3655548095703125,27405.69847216667,-1.347757743547684,-1.361712585858283,-0.7398539137978424,-0.1963051706552505,-0.03639921918511391,0.2366570979356766,-0.05292385816574097,-0.05073666572570801,-0.1766869872808456,XArbitraryZVertical,0.5857489429916385,0.283281388007529,0.2742533684521996,-0.7081205899332903,-0.7224820256233215,0.6741800308227539,-0.1532996594905853,0,0,0,-1,-1,27398.99798816667,unknown,2,2025-04-22T11:01:23.743+03:00,2025-04-21T17:08:51.449+03:00,7097,0.9398554,0,0,5930.618,5,20,2025-04-22T11:01:54.697+03:00,767001673.5380644,0,-22.1,100.4668,1,0.95,2025-04-22T11:01:09.511+03:00,84,1.4,2025-04-22T09:54:17.825+03:00,0.02225348692287972,0
2025-04-22T11:02:09.960+03:00,1745308928.387496,40.95218625471538,29.14025411606978,76.06111,-1,-1,-1,-1,30,23.97249025624534,-9999,27405.71608816667,-0.7071990966796875,0.6454315185546875,-0.345367431640625,27405.70854816667,-1.349443262947596,-1.363537657327854,-0.7425936661114155,-0.1637815237045288,-0.09641668200492859,0.2476298809051514,-0.03225404024124146,-0.03919249773025513,-0.2119405269622803,XArbitraryZVertical,0.586816916423594,0.2825700276091988,0.2734462251448597,-0.7078326935386371,-0.7209503650665283,0.6762009859085083,-0.1516001671552658,0,0,0,-1,-1,27398.99798816667,unknown,2,2025-04-22T11:01:23.743+03:00,2025-04-21T17:08:51.449+03:00,7097,0.9398554,0,0,5930.618,5,20,2025-04-22T11:01:54.697+03:00,767001673.5380644,0,-22.1,100.4668,1,0.95,2025-04-22T11:01:09.511+03:00,84,1.4,2025-04-22T09:54:17.825+03:00,0.02225348692287972,0
2025-04-22T11:02:09.970+03:00,1745308928.387496,40.95218625471538,29.14025411606978,76.06111,-1,-1,-1,-1,30,23.97249025624534,-9999,27405.72616416667,-0.6966400146484375,0.705322265625,-0.306732177734375,27405.71862416667,-1.350492509172846,-1.365741304022305,-0.7453522949599598,-0.09195207804441452,-0.2085293680429459,0.2553618550300598,0.0009173154830932617,-0.041298508644104,-0.2083558440208435,XArbitraryZVertical,0.5878467454353914,0.2821716793075771,0.2722946315582612,-0.7075810230366082,-0.7194536924362183,0.6782307624816895,-0.1496306955814362,0,0,0,-1,-1,27398.99798816667,unknown,2,2025-04-22T11:01:23.743+03:00,2025-04-21T17:08:51.449+03:00,7097,0.9398554,0,0,5930.618,5,20,2025-04-22T11:01:54.697+03:00,767001673.5380644,0,-22.1,100.4668,1,0.95,2025-04-22T11:01:09.511+03:00,84,1.4,2025-04-22T09:54:17.825+03:00,0.02225348692287972,0
2025-04-22T11:02:09.980+03:00,1745308928.387496,40.95218625471538,29.14025411606978,76.06111,-1,-1,-1,-1,30,23.97249025624534,-9999,27405.73624016667,-0.7053375244140625,0.7779998779296875,-0.3288726806640625,27405.72870016667,-1.349725206996557,-1.367784858375727,-0.7478876922911154,0.11432945728302,-0.2675458192825317,0.2646923661231995,0.02062278985977173,-0.002143800258636475,-0.1697988063097,XArbitraryZVertical,0.5885479148229825,0.2823204756718136,0.2706163235708191,-0.7075827862654153,-0.7180715799331665,0.6800916790962219,-0.147813007235527,0,0,0,-1,-1,27398.99798816667,unknown,2,2025-04-22T11:01:23.743+03:00,2025-04-21T17:08:51.449+03:00,7097,0.9398554,0,0,5930.618,5,20,2025-04-22T11:01:54.697+03:00,767001673.5380644,0,-22.1,100.4668,1,0.95,2025-04-22T11:01:09.511+03:00,84,1.4,2025-04-22T09:54:17.825+03:00,0.02225348692287972,0
2025-04-22T11:02:09.990+03:00,1745308928.387496,40.95218625471538,29.14025411606978,76.06111,-1,-1,-1,-1,30,23.97249025624534,-9999,27405.74631616667,-0.721649169921875,0.8218536376953125,-0.3446044921875,27405.73877616667,-1.345895563363315,-1.368068900798736,-0.7499995702202735,0.3493209183216095,-0.3041483163833618,0.2565225958824158,0.01612812280654907,0.07046711444854736,-0.1661266088485718,XArbitraryZVertical,0.5884879971929814,0.2828818308373834,0.2685051547717302,-0.7082123247002179,-0.7167049050331116,0.6816384196281433,-0.147319495677948,0,0,0,-1,-1,27398.99798816667,unknown,2,2025-04-22T11:01:23.743+03:00,2025-04-21T17:08:51.449+03:00,7097,0.9398554,0,0,5930.618,5,20,2025-04-22T11:01:54.697+03:00,767001673.5380644,0,-22.1,100.4668,1,0.95,2025-04-22T11:01:09.511+03:00,84,1.4,2025-04-22T09:54:17.825+03:00,0.02225348692287972,0
2025-04-22T11:02:10.000+03:00,1745308928.387496,40.95218625471538,29.14025411606978,76.06111,-1,-1,-1,-1,30,23.97249025624534,-9999,27405.75639216667,-0.726806640625,0.820709228515625,-0.335662841796875,27405.74885216667,-1.3394639329271,-1.366969009600019,-0.7516503490089675,0.4688908755779266,-0.347360372543335,0.2505823373794556,-0.0006554126739501953,0.127167284488678,-0.1983727812767029,XArbitraryZVertical,0.5877769136462995,0.2838634002793791,0.2660235468948871,-0.7093457151801245,-0.7154395580291748,0.6828453540802002,-0.1478797346353531,0,0,0,-1,-1,27398.99798816667,unknown,2,2025-04-22T11:01:23.743+03:00,2025-04-21T17:08:51.449+03:00,7097,0.9398554,0,0,5930.618,5,20,2025-04-22T11:01:54.697+03:00,767001673.5380644,0,-22.1,100.4668,1,0.95,2025-04-22T11:01:09.511+03:00,84,1.4,2025-04-22T09:54:17.825+03:00,0.02225348692287972,0
2025-04-22T11:02:10.011+03:00,1745308928.387496,40.95218625471538,29.14025411606978,76.06111,-1,-1,-1,-1,30,23.97249025624534,-9999,27405.76646816667,-0.71905517578125,0.7851409912109375,-0.3145904541015625,27405.75892816667,-1.332455608067437,-1.365749010661006,-0.7532005460375596,0.4607916474342346,-0.3662256598472595,0.2543200850486755,-0.0115477442741394,0.1420267820358276,-0.1898269653320312,XArbitraryZVertical,0.5869463435006039,0.2850010870575486,0.2633999697592241,-0.7105552606449028,-0.7142213582992554,0.6839770674705505,-0.148536741733551,0,0,0,-1,-1,27398.99798816667,unknown,2,2025-04-22T11:01:23.743+03:00,2025-04-21T17:08:51.449+03:00,7097,0.9398554,0,0,5930.618,5,20,2025-04-22T11:01:54.697+03:00,767001673.5380644,0,-22.1,100.4668,1,0.95,2025-04-22T11:01:09.511+03:00,84,1.4,2025-04-22T09:54:17.825+03:00,0.02225348692287972,0
2025-04-22T11:02:10.021+03:00,1745308928.387496,40.95218625471538,29.14025411606978,76.06111,-1,-1,-1,-1,30,23.97249025624534,-9999,27405.77654416667,-0.7049560546875,0.7269439697265625,-0.25445556640625,27405.76900416667,-1.325982165215178,-1.365164308208131,-0.7549152516656409,0.3676462769508362,-0.3988842666149139,0.2650240063667297,-0.01057130098342896,0.1170800924301147,-0.1782812625169754,XArbitraryZVertical,0.5863093676113829,0.2861537995683742,0.2607230239968814,-0.7116044535491088,-0.7129853367805481,0.6852269172668457,-0.1487146615982056,0,0,0,-1,-1,27398.99798816667,unknown,2,2025-04-22T11:01:23.743+03:00,2025-04-21T17:08:51.449+03:00,7097,0.9398554,0,0,5930.618,5,20,2025-04-22T11:01:54.697+03:00,767001673.5380644,0,-22.1,100.4668,1,0.95,2025-04-22T11:01:09.511+03:00,84,1.4,2025-04-22T09:54:17.825+03:00,0.02225348692287972,0
2025-04-22T11:02:10.031+03:00,1745308928.387496,40.95218625471538,29.14025411606978,76.06111,-1,-1,-1,-1,30,23.97249025624534,-9999,27405.78662016667,-0.7028045654296875,0.681243896484375,-0.1972503662109375,27405.77908016667,-1.321438970965896,-1.366135626836299,-0.7570505964119649,0.1866360157728195,-0.4145205020904541,0.2877764403820038,0.002817511558532715,0.06312775611877441,-0.1321219354867935,XArbitraryZVertical,0.5862386701101058,0.2871620668594684,0.2581393420187235,-0.7121982175372243,-0.71169513463974,0.6867806315422058,-0.1477243453264236,0,0,0,-1,-1,27398.99798816667,unknown,2,2025-04-22T11:01:23.743+03:00,2025-04-21T17:08:51.449+03:00,7097,0.9398554,0,0,5930.618,5,20,2025-04-22T11:01:54.697+03:00,767001673.5380644,0,-22.1,100.4668,1,0.95,2025-04-22T11:01:09.511+03:00,84,1.4,2025-04-22T09:54:17.825+03:00,0.02225348692287972,0
2025-04-22T11:02:10.041+03:00,1745308928.387496,40.95218625471538,29.14025411606978,76.06111,-1,-1,-1,-1,30,23.97249025624534,-9999,27405.79669716667,-0.7002410888671875,0.6687469482421875,-0.1641082763671875,27405.78915616667,-1.318702330530107,-1.368496187568308,-0.759838890890196,0.1070082932710648,-0.426149994134903,0.3385068476200104,0.00758737325668335,0.005943119525909424,-0.06974983215332031,XArbitraryZVertical,0.5867417108330127,0.2879320779043058,0.2555808615153297,-0.712395676077156,-0.7101630568504333,0.6888046860694885,-0.1456585675477982,0,0,0,-1,-1,27398.99798816667,unknown,2,2025-04-22T11:01:23.743+03:00,2025-04-21T17:08:51.449+03:00,7097,0.9398554,0,0,5930.618,5,20,2025-04-22T11:01:54.697+03:00,767001673.5380644,0,-22.1,100.4668,1,0.95,2025-04-22T11:01:09.511+03:00,84,1.4,2025-04-22T09:54:17.825+03:00,0.02225348692287972,0
2025-04-22T11:02:10.051+03:00,1745308928.387496,40.95218625471538,29.14025411606978,76.06111,-1,-1,-1,-1,30,23.97249025624534,-9999,27405.80677316667,-0.700531005859375,0.67974853515625,-0.1360015869140625,27405.79923316667,-1.316112167588823,-1.370903309016143,-0.7631318495977044,0.1368484795093536,-0.3973894417285919,0.3797051608562469,0.006670475006103516,-0.02151048183441162,-0.03155131638050079,XArbitraryZVertical,0.5873737041599568,0.2885192342624915,0.2528969316585838,-0.7125952288503856,-0.708284854888916,0.6911881566047668,-0.143497571349144,0,0,0,-1,-1,27398.99798816667,unknown,2,2025-04-22T11:01:23.743+03:00,2025-04-21T17:08:51.449+03:00,7097,0.9398554,0,0,5930.618,5,20,2025-04-22T11:01:54.697+03:00,767001673.5380644,0,-22.1,100.4668,1,0.95,2025-04-22T11:01:09.511+03:00,84,1.4,2025-04-22T09:54:17.825+03:00,0.02225348692287972,0
2025-04-22T11:02:10.061+03:00,1745308928.387496,40.95218625471538,29.14025411606978,76.06111,-1,-1,-1,-1,30,23.97249025624534,-9999,27405.816851125,-0.69921875,0.6986083984375,-0.1141510009765625,27405.80930916667,-1.312596382411564,-1.372411692465103,-0.7665339889574917,0.2244728058576584,-0.3891589939594269,0.3776044249534607,0.006041288375854492,-0.01868563890457153,-0.00380253791809082,XArbitraryZVertical,0.5877771834215444,0.289025289722169,0.2501092601411095,-0.713041099824172,-0.706190824508667,0.693642795085907,-0.1419647336006165,0,0,0,-1,-1,27398.99798816667,unknown,2,2025-04-22T11:01:23.743+03:00,2025-04-21T17:08:51.449+03:00,7097,0.9398554,0,0,5930.618,5,20,2025-04-22T11:01:54.697+03:00,767001673.5380644,0,-22.1,100.4668,1,0.95,2025-04-22T11:01:09.511+03:00,84,1.4,2025-04-22T09:54:17.825+03:00,0.02225348692287972,0
2025-04-22T11:02:10.071+03:00,1745308928.387496,40.95218625471538,29.14025411606978,76.06111,-1,-1,-1,-1,30,23.97249025624534,-9999,27405.826927125,-0.6875762939453125,0.7226715087890625,-0.106231689453125,27405.819387125,-1.30824972928582,-1.373247687421747,-0.7697446810132269,0.2427117228507996,-0.381005734205246,0.3723755776882172,0.002751708030700684,-0.005430877208709717,0.01912547647953033,XArbitraryZVertical,0.5879329707509918,0.2895972735658665,0.2472817191574238,-0.7136665103032558,-0.7041218876838684,0.6959519386291504,-0.140936478972435,0,0,0,-1,-1,27398.99798816667,unknown,2,2025-04-22T11:01:23.743+03:00,2025-04-21T17:08:51.449+03:00,7097,0.9398554,0,0,5930.618,5,20,2025-04-22T11:01:54.697+03:00,767001673.5380644,0,-22.1,100.4668,1,0.95,2025-04-22T11:01:09.511+03:00,84,1.4,2025-04-22T09:54:17.825+03:00,0.02225348692287972,0
2025-04-22T11:02:10.081+03:00,1745308928.387496,40.95218625471538,29.14025411606978,76.06111,-1,-1,-1,-1,30,23.97249025624534,-9999,27405.837003125,-0.6845550537109375,0.7255859375,-0.129425048828125,27405.829463125,-1.304001621924204,-1.374265862737323,-0.7728366142232336,0.2493478655815125,-0.4025724828243256,0.3367246687412262,0.009875297546386719,0.01643061637878418,0.03442138433456421,XArbitraryZVertical,0.5880979379949942,0.2902438508736984,0.244471263936397,-0.7142359959975993,-0.7021512985229492,0.6981688737869263,-0.139798641204834,0,0,0,-1,-1,27398.99798816667,unknown,2,2025-04-22T11:01:23.743+03:00,2025-04-21T17:08:51.449+03:00,7097,0.9398554,0,0,5930.618,5,20,2025-04-22T11:01:54.697+03:00,767001673.5380644,0,-22.1,100.4668,1,0.95,2025-04-22T11:01:09.511+03:00,84,1.4,2025-04-22T09:54:17.825+03:00,0.02225348692287972,0
2025-04-22T11:02:10.091+03:00,1745308928.387496,40.95218625471538,29.14025411606978,76.06111,-1,-1,-1,-1,30,23.97249025624534,-9999,27405.847079125,-0.703277587890625,0.711822509765625,-0.1413116455078125,27405.839539125,-1.299516326378852,-1.374890293702605,-0.7756929523769963,0.2474924325942993,-0.3332671821117401,0.3522543609142303,0.01775377988815308,0.02734315395355225,0.02045632898807526,XArbitraryZVertical,0.5881282167616194,0.2908943226577778,0.2417650902834852,-0.7148672070653919,-0.7002793550491333,0.7002109885215759,-0.1389713883399963,0,0,0,-1,-1,27398.99798816667,unknown,2,2025-04-22T11:01:23.743+03:00,2025-04-21T17:08:51.449+03:00,7097,0.9398554,0,0,5930.618,5,20,2025-04-22T11:01:54.697+03:00,767001673.5380644,0,-22.1,100.4668,1,0.95,2025-04-22T11:01:09.511+03:00,84,1.4,2025-04-22T09:54:17.825+03:00,0.02225348692287972,0
2025-04-22T11:02:10.101+03:00,1745308928.387496,40.95218625471538,29.14025411606978,76.06111,-1,-1,-1,-1,30,23.97249025624534,-9999,27405.857155125,-0.7010498046875,0.73095703125,-0.0852203369140625,27405.849615125,-1.29533397335755,-1.375193514936896,-0.7786018226435649,0.2254230827093124,-0.3082183003425598,0.3075140416622162,0.0009176731109619141,0.01315385103225708,-0.004917547106742859,XArbitraryZVertical,0.5881735504713858,0.2913255587719151,0.2392423764063425,-0.7155027510121357,-0.6983205676078796,0.7022847533226013,-0.1383625864982605,0,0,0,-1,-1,27398.99798816667,unknown,2,2025-04-22T11:01:23.743+03:00,2025-04-21T17:08:51.449+03:00,7097,0.9398554,0,0,5930.618,5,20,2025-04-22T11:01:54.697+03:00,767001673.5380644,0,-22.1,100.4668,1,0.95,2025-04-22T11:01:09.511+03:00,84,1.4,2025-04-22T09:54:17.825+03:00,0.02225348692287972,0
2025-04-22T11:02:10.111+03:00,1745308928.387496,40.95218625471538,29.14025411606978,76.06111,-1,-1,-1,-1,30,23.97249025624534,-9999,27405.867231125,-0.7103118896484375,0.7466888427734375,-0.0063629150390625,27405.859691125,-1.291487028404741,-1.375265960456546,-0.7809533516182641,0.2174876630306244,-0.2454715371131897,0.2580533027648926,-0.006278932094573975,0.01583051681518555,0.02469421923160553,XArbitraryZVertical,0.5881211919393469,0.2917500288187513,0.2370853117740933,-0.7160906244334736,-0.6967087388038635,0.7039568424224854,-0.1379907727241516,0,0,0,-1,-1,27398.99798816667,unknown,2,2025-04-22T11:01:23.743+03:00,2025-04-21T17:08:51.449+03:00,7097,0.9398554,0,0,5930.618,5,20,2025-04-22T11:01:54.697+03:00,767001673.5380644,0,-22.1,100.4668,1,0.95,2025-04-22T11:01:09.511+03:00,84,1.4,2025-04-22T09:54:17.825+03:00,0.02225348692287972,0
2025-04-22T11:02:10.121+03:00,1745308928.387496,40.95218625471538,29.14025411606978,76.06111,-1,-1,-1,-1,30,23.97249025624534,-9999,27405.877307125,-0.6997528076171875,0.7618560791015625,0.0604705810546875,27405.869767125,-1.287807500696172,-1.374919614015738,-0.7829305070580803,0.2170216888189316,-0.2075557857751846,0.2296407222747803,-0.01144695281982422,0.03719383478164673,0.1028961539268494,XArbitraryZVertical,0.5879640040553031,0.2920922267915823,0.2352306065853281,-0.7166916606170598,-0.6952943801879883,0.7053597569465637,-0.1379609256982803,0,0,0,-1,-1,27398.99798816667,unknown,2,2025-04-22T11:01:23.743+03:00,2025-04-21T17:08:51.449+03:00,7097,0.9398554,0,0,5930.618,5,20,2025-04-22T11:01:54.697+03:00,767001673.5380644,0,-22.1,100.4668,1,0.95,2025-04-22T11:01:09.511+03:00,84,1.4,2025-04-22T09:54:17.825+03:00,0.02225348692287972,0
2025-04-22T11:02:10.133+03:00,1745308928.387496,40.95218625471538,29.14025411606978,76.06111,-1,-1,-1,-1,30,23.97249025624534,-9999,27405.887383125,-0.6890869140625,0.7595672607421875,0.087921142578125,27405.879843125,-1.284140375461174,-1.374261583922342,-0.7846931099291031,0.2169907838106155,-0.1752820014953613,0.2082970887422562,-0.01271259784698486,0.04932737350463867,0.1764901429414749,XArbitraryZVertical,0.5877268726423511,0.2923857404469385,0.2335397426781141,-0.7173191135283656,-0.6939828991889954,0.7066080570220947,-0.1381753981113434,0,0,0,-1,-1,27398.99798816667,unknown,2,2025-04-22T11:01:23.743+03:00,2025-04-21T17:08:51.449+03:00,7097,0.9398554,0,0,5930.618,5,20,2025-04-22T11:01:54.697+03:00,767001673.5380644,0,-22.1,100.4668,1,0.95,2025-04-22T11:01:09.511+03:00,84,1.4,2025-04-22T09:54:17.825+03:00,0.02225348692287972,0
2025-04-22T11:02:10.142+03:00,1745308928.387496,40.95218625471538,29.14025411606978,76.06111,-1,-1,-1,-1,30,23.97249025624534,-9999,27405.897459125,-0.6975250244140625,0.7334442138671875,0.0887451171875,27405.889919125,-1.28078225030155,-1.373419360927042,-0.7861839549243212,0.1693961024284363,-0.1200437769293785,0.177336648106575,0.002479135990142822,0.05602473020553589,0.2211030870676041,XArbitraryZVertical,0.5874562229495736,0.2926066267282658,0.2321003133931833,-0.7179176489378325,-0.6928324699401855,0.7076622247695923,-0.1385530978441238,0,0,0,-1,-1,27398.99798816667,unknown,2,2025-04-22T11:01:23.743+03:00,2025-04-21T17:08:51.449+03:00,7097,0.9398554,0,0,5930.618,5,20,2025-04-22T11:01:54.697+03:00,767001673.5380644,0,-22.1,100.4668,1,0.95,2025-04-22T11:01:09.511+03:00,84,1.4,2025-04-22T09:54:17.825+03:00,0.02225348692287972,0
2025-04-22T11:02:10.151+03:00,1745308928.387496,40.95218625471538,29.14025411606978,76.06111,-1,-1,-1,-1,30,23.97249025624534,-9999,27405.907535125,-0.7032928466796875,0.6862945556640625,0.0853729248046875,27405.899995125,-1.278779441555011,-1.372766867632057,-0.7877414567734962,0.0391310453414917,-0.03487376123666763,0.1869352161884308,-0.001363039016723633,0.03720968961715698,0.2278078943490982,XArbitraryZVertical,0.5874209078042856,0.2924766662000838,0.231069272584344,-0.7183320569108185,-0.6916605830192566,0.7087618112564087,-0.1387881487607956,0,0,0,-1,-1,27398.99798816667,unknown,2,2025-04-22T11:01:23.743+03:00,2025-04-21T17:08:51.449+03:00,7097,0.9398554,0,0,5930.618,5,20,2025-04-22T11:01:54.697+03:00,767001673.5380644,0,-22.1,100.4668,1,0.95,2025-04-22T11:01:09.511+03:00,84,1.4,2025-04-22T09:54:17.825+03:00,0.02225348692287972,0
2025-04-22T11:02:10.162+03:00,1745308928.387496,40.95218625471538,29.14025411606978,76.06111,-1,-1,-1,-1,30,23.97249025624534,-9999,27405.917611125,-0.68792724609375,0.647552490234375,0.088836669921875,27405.910071125,-1.278778295588791,-1.372823204190724,-0.7897132122538366,-0.1245043575763702,0.01741540990769863,0.1905421316623688,-0.01371306180953979,-0.005164921283721924,0.2253270596265793,XArbitraryZVertical,0.5878489401389116,0.2918845289179468,0.230414627912046,-0.7184331395107978,-0.69029700756073,0.7101513743400574,-0.1384740918874741,0,0,0,-1,-1,27398.99798816667,unknown,2,2025-04-22T11:01:23.743+03:00,2025-04-21T17:08:51.449+03:00,7097,0.9398554,0,0,5930.618,5,20,2025-04-22T11:01:54.697+03:00,767001673.5380644,0,-22.1,100.4668,1,0.95,2025-04-22T11:01:09.511+03:00,84,1.4,2025-04-22T09:54:17.825+03:00,0.02225348692287972,0
2025-04-22T11:02:10.172+03:00,1745308928.387496,40.95218625471538,29.14025411606978,76.06111,-1,-1,-1,-1,30,23.97249025624534,-9999,27405.927687125,-0.6739959716796875,0.6296234130859375,0.12689208984375,27405.920147125,-1.280816601961147,-1.373852578163314,-0.7918511531635546,-0.2239947319030762,0.06995904445648193,0.1726384907960892,-0.006134927272796631,-0.05320781469345093,0.2218776196241379,XArbitraryZVertical,0.5887205932718609,0.2909897537271179,0.2301521086771406,-0.7181664787676203,-0.6889487504959106,0.7116549611091614,-0.1374660581350327,0,0,0,-1,-1,27398.99798816667,unknown,2,2025-04-22T11:01:23.743+03:00,2025-04-21T17:08:51.449+03:00,7097,0.9398554,0,0,5930.618,5,20,2025-04-22T11:01:54.697+03:00,767001673.5380644,0,-22.1,100.4668,1,0.95,2025-04-22T11:01:09.511+03:00,84,1.4,2025-04-22T09:54:17.825+03:00,0.02225348692287972,0
2025-04-22T11:02:10.182+03:00,1745308928.387496,40.95218625471538,29.14025411606978,76.06111,-1,-1,-1,-1,30,23.97249025624534,-9999,27405.937763125,-0.66351318359375,0.626373291015625,0.1758575439453125,27405.930223125,-1.283433488744252,-1.374661682316317,-0.793917744503277,-0.2040475159883499,0.1426805257797241,0.1554574519395828,0.01029330492019653,-0.07806515693664551,0.2461339235305786,XArbitraryZVertical,0.5896329399349727,0.2898657767735628,0.2301841713607037,-0.7178621392301886,-0.687615692615509,0.713105320930481,-0.1366216540336609,0,0,0,-1,-1,27398.99798816667,unknown,2,2025-04-22T11:01:23.743+03:00,2025-04-21T17:08:51.449+03:00,7097,0.9398554,0,0,5930.618,5,20,2025-04-22T11:01:54.697+03:00,767001673.5380644,0,-22.1,100.4668,1,0.95,2025-04-22T11:01:09.511+03:00,84,1.4,2025-04-22T09:54:17.825+03:00,0.02225348692287972,0
2025-04-22T11:02:10.192+03:00,1745308928.387496,40.95218625471538,29.14025411606978,76.06111,-1,-1,-1,-1,30,23.97249025624534,-9999,27405.947840125,-0.64654541015625,0.655426025390625,0.214752197265625,27405.940299125,-1.285293711002997,-1.374253623312997,-0.7955475803858757,-0.09575194120407104,0.1966153979301453,0.1066861748695374,0.01831293106079102,-0.09020841121673584,0.2947713136672974,XArbitraryZVertical,0.5902003366254851,0.2886624849984177,0.2304444113292206,-0.7177971786625404,-0.6864189505577087,0.7142469882965088,-0.1366750597953796,0,0,0,-1,-1,27398.99798816667,unknown,2,2025-04-22T11:01:23.743+03:00,2025-04-21T17:08:51.449+03:00,7097,0.9398554,0,0,5930.618,5,20,2025-04-22T11:01:54.697+03:00,767001673.5380644,0,-22.1,100.4668,1,0.95,2025-04-22T11:01:09.511+03:00,84,1.4,2025-04-22T09:54:17.825+03:00,0.02225348692287972,0
2025-04-22T11:02:10.202+03:00,1745308928.387496,40.95218625471538,29.14025411606978,76.06111,-1,-1,-1,-1,30,23.97249025624534,-9999,27405.957916125,-0.63043212890625,0.684661865234375,0.2545623779296875,27405.950376125,-1.285069113942581,-1.371969845102719,-0.7962658597491693,0.106042169034481,0.2240491509437561,0.03953750431537628,0.03237318992614746,-0.07186639308929443,0.340563952922821,XArbitraryZVertical,0.5900567678381653,0.2876847840589848,0.2308051074126081,-0.7181916861367852,-0.6856018900871277,0.7147495150566101,-0.1381409466266632,0,0,0,-1,-1,27398.99798816667,unknown,2,2025-04-22T11:01:23.743+03:00,2025-04-21T17:08:51.449+03:00,7097,0.9398554,0,0,5930.618,5,20,2025-04-22T11:01:54.697+03:00,767001673.5380644,0,-22.1,100.4668,1,0.95,2025-04-22T11:01:09.511+03:00,84,1.4,2025-04-22T09:54:17.825+03:00,0.02225348692287972,0
2025-04-22T11:02:10.212+03:00,1745308928.387496,40.95218625471538,29.14025411606978,76.06111,-1,-1,-1,-1,30,23.97249025624534,-9999,27405.967992125,-0.6216888427734375,0.69073486328125,0.3443145751953125,27405.960452125,-1.281610774146504,-1.367173942256937,-0.7957651572954588,0.408510684967041,0.2387633770704269,-0.0419837199151516,0.04892939329147339,-0.03845036029815674,0.3775989413261414,XArbitraryZVertical,0.5888994568627639,0.2871367915558186,0.2311377803260604,-0.7192531215110345,-0.6852818727493286,0.7143992185592651,-0.141499787569046,0,0,0,-1,-1,27398.99798816667,unknown,2,2025-04-22T11:01:23.743+03:00,2025-04-21T17:08:51.449+03:00,7097,0.9398554,0,0,5930.618,5,20,2025-04-22T11:01:54.697+03:00,767001673.5380644,0,-22.1,100.4668,1,0.95,2025-04-22T11:01:09.511+03:00,84,1.4,2025-04-22T09:54:17.825+03:00,0.02225348692287972,0
2025-04-22T11:02:10.222+03:00,1745308928.387496,40.95218625471538,29.14025411606978,76.06111,-1,-1,-1,-1,30,23.97249025624534,-9999,27405.978068125,-0.6198883056640625,0.6867828369140625,0.488677978515625,27405.970528125,-1.272710626313282,-1.358311269339459,-0.7936140611669638,0.8989794850349426,0.2612633407115936,-0.1256722211837769,0.0616612434387207,-0.02089118957519531,0.4518005847930908,XArbitraryZVertical,0.5861347263097109,0.2872288515133863,0.23122995512384,-0.7214418108328546,-0.6855016350746155,0.7128923535346985,-0.1478913426399231,0,0,0,-1,-1,27398.99798816667,unknown,2,2025-04-22T11:01:23.743+03:00,2025-04-21T17:08:51.449+03:00,7097,0.9398554,0,0,5930.618,5,20,2025-04-22T11:01:54.697+03:00,767001673.5380644,0,-22.1,100.4668,1,0.95,2025-04-22T11:01:09.511+03:00,84,1.4,2025-04-22T09:54:17.825+03:00,0.02225348692287972,0
2025-04-22T11:02:10.232+03:00,1745308928.387496,40.95218625471538,29.14025411606978,76.06111,-1,-1,-1,-1,30,23.97249025624534,-9999,27405.988144125,-0.623779296875,0.7182159423828125,0.756439208984375,27405.980604125,-1.256978262784158,-1.344088269354291,-0.7891866187473965,1.461873650550842,0.3505063951015472,-0.259692370891571,0.06579232215881348,-0.02388286590576172,0.5851984024047852,XArbitraryZVertical,0.5812577427780937,0.2880494773652845,0.2311155800150445,-0.7250879643814949,-0.6863978505134583,0.7097805142402649,-0.1583338677883148,0,0,0,-1,-1,27398.99798816667,unknown,2,2025-04-22T11:01:23.743+03:00,2025-04-21T17:08:51.449+03:00,7097,0.9398554,0,0,5930.618,5,20,2025-04-22T11:01:54.697+03:00,767001673.5380644,0,-22.1,100.4668,1,0.95,2025-04-22T11:01:09.511+03:00,84,1.4,2025-04-22T09:54:17.825+03:00,0.02225348692287972,0
2025-04-22T11:02:10.242+03:00,1745308928.387496,40.95218625471538,29.14025411606978,76.06111,-1,-1,-1,-1,30,23.97249025624534,-9999,27405.998220125,-0.6410980224609375,0.78173828125,1.17816162109375,27405.990680125,-1.23353182464831,-1.322719816943527,-0.7820206852417605,1.995060920715332,0.6478451490402222,-0.3275622129440308,0.06740963459014893,-0.003573238849639893,0.8077073693275452,XArbitraryZVertical,0.5737860926380476,0.2892496760284774,0.2310449473788022,-0.7305630774471806,-0.6877710223197937,0.7047145366668701,-0.1742082834243774,0,0,0,-1,-1,27398.99798816667,unknown,2,2025-04-22T11:01:23.743+03:00,2025-04-21T17:08:51.449+03:00,7097,0.9398554,0,0,5930.618,5,20,2025-04-22T11:01:54.697+03:00,767001673.5380644,0,-22.1,100.4668,1,0.95,2025-04-22T11:01:09.511+03:00,84,1.4,2025-04-22T09:54:17.825+03:00,0.02225348692287972,0
2025-04-22T11:02:10.252+03:00,1745308928.387496,40.95218625471538,29.14025411606978,76.06111,-1,-1,-1,-1,30,23.97249025624534,-9999,27406.008296125,-0.658905029296875,0.8641204833984375,1.572769165039062,27406.000756125,-1.20836177919686,-1.295700854484272,-0.7739191163829667,1.787503123283386,1.233925223350525,-0.3060337603092194,0.0536879301071167,0.0557103157043457,1.208719730377197,XArbitraryZVertical,0.5651188214556674,0.2889737213413955,0.2320713960693224,-0.7370737790111295,-0.6882857084274292,0.6989434361457825,-0.1942698061466217,0,0,0,-1,-1,27398.99798816667,unknown,2,2025-04-22T11:01:23.743+03:00,2025-04-21T17:08:51.449+03:00,7097,0.9398554,0,0,5930.618,5,20,2025-04-22T11:01:54.697+03:00,767001673.5380644,0,-22.1,100.4668,1,0.95,2025-04-22T11:01:09.511+03:00,84,1.4,2025-04-22T09:54:17.825+03:00,0.02225348692287972,0
2025-04-22T11:02:10.262+03:00,1745308928.387496,40.95218625471538,29.14025411606978,76.06111,-1,-1,-1,-1,30,23.97249025624534,-9999,27406.018372125,-0.6854400634765625,0.817474365234375,1.996932983398438,27406.010832125,-1.188856821616408,-1.265930050433161,-0.7663659761784877,1.281047105789185,2.010737895965576,-0.3586573004722595,0.03529763221740723,0.1423087120056152,1.643267154693604,XArbitraryZVertical,0.5569963898460688,0.2857097238627727,0.2355723635194717,-0.743391149594537,-0.6872140765190125,0.6935217380523682,-0.2162499576807022,0,0,0,-1,-1,27398.99798816667,unknown,2,2025-04-22T11:01:23.743+03:00,2025-04-21T17:08:51.449+03:00,7097,0.9398554,0,0,5930.618,5,20,2025-04-22T11:01:54.697+03:00,767001673.5380644,0,-22.1,100.4668,1,0.95,2025-04-22T11:01:09.511+03:00,84,1.4,2025-04-22T09:54:17.825+03:00,0.02225348692287972,0
2025-04-22T11:02:10.272+03:00,1745308928.387496,40.95218625471538,29.14025411606978,76.06111,-1,-1,-1,-1,30,23.97249025624534,-9999,27406.028448125,-0.65606689453125,0.540771484375,2.129791259765625,27406.020908125,-1.1809974570113,-1.235774268290427,-0.7600478923263099,0.05581707879900932,2.862792015075684,-0.4868570566177368,0.008740007877349854,0.1745232343673706,2.077922821044922,XArbitraryZVertical,0.5506928345598309,0.2785380587197552,0.2429485771120503,-0.7484181350726129,-0.6845059394836426,0.6889561414718628,-0.2383079081773758,0,0,0,-1,-1,27398.99798816667,unknown,2,2025-04-22T11:01:23.743+03:00,2025-04-21T17:08:51.449+03:00,7097,0.9398554,0,0,5930.618,5,20,2025-04-22T11:01:54.697+03:00,767001673.5380644,0,-22.1,100.4668,1,0.95,2025-04-22T11:01:09.511+03:00,84,1.4,2025-04-22T09:54:17.825+03:00,0.02225348692287972,0
2025-04-22T11:02:10.284+03:00,1745308928.387496,40.95218625471538,29.14025411606978,76.06111,-1,-1,-1,-1,30,23.97249025624534,-9999,27406.038524125,-0.5243988037109375,0.1685943603515625,1.71307373046875,27406.030984125,-1.194098086048797,-1.213869200460725,-0.7576974108501257,-1.620654463768005,3.211265325546265,-0.5774464011192322,8.022785186767578e-05,-0.02340197563171387,2.403924703598022,XArbitraryZVertical,0.5491559148600831,0.2674385542444971,0.2545979962789393,-0.7497226548464683,-0.6806374788284302,0.6872506141662598,-0.2538087964057922,0,0,0,-1,-1,27405.933993125,unknown,2,2025-04-22T11:02:10.173+03:00,2025-04-21T17:08:51.449+03:00,7097,0.9398554,0,0,5930.618,5,20,2025-04-22T11:01:54.697+03:00,767001730.2651621,0,-21.63,100.4627,1,0.95,2025-04-22T11:01:09.511+03:00,84,1.4,2025-04-22T09:54:17.825+03:00,0.02225348692287972,0
2025-04-22T11:02:10.293+03:00,1745308928.387496,40.95218625471538,29.14025411606978,76.06111,-1,-1,-1,-1,30,23.97249025624534,-9999,27406.048600125,-0.4208221435546875,-0.17437744140625,1.287429809570312,27406.041060125,-1.226034308274936,-1.202961197448355,-0.7604948712191538,-2.853209972381592,3.299580574035645,-0.5183761715888977,0.09628963470458984,-0.3770090341567993,2.168210029602051,XArbitraryZVertical,0.5526016394204526,0.2537096575142564,0.2687036520245574,-0.7470349573523717,-0.6760321259498596,0.6892800331115723,-0.2605256736278534,0,0,0,-1,-1,27405.933993125,unknown,2,2025-04-22T11:02:10.173+03:00,2025-04-21T17:08:51.449+03:00,7097,0.9398554,0,0,5930.618,5,20,2025-04-22T11:01:54.697+03:00,767001730.2651621,0,-21.63,100.4627,1,0.95,2025-04-22T11:01:09.511+03:00,84,1.4,2025-04-22T09:54:17.825+03:00,0.02225348692287972,0
2025-04-22T11:02:10.303+03:00,1745308928.387496,40.95218625471538,29.14025411606978,76.06111,-1,-1,-1,-1,30,23.97249025624534,-9999,27406.058676125,-0.4796905517578125,-0.26568603515625,0.4810943603515625,27406.051136125,-1.269183034605583,-1.192859384609167,-0.7651878236169447,-3.670631408691406,5.098050117492676,-1.130531907081604,0.2263821959495544,-0.7532805204391479,1.681916236877441,XArbitraryZVertical,0.5576610609758059,0.2365200583547721,0.2861575912631433,-0.7424191478513346,-0.6703519225120544,0.6926724910736084,-0.2661448121070862,0,0,0,-1,-1,27405.933993125,unknown,2,2025-04-22T11:02:10.173+03:00,2025-04-21T17:08:51.449+03:00,7097,0.9398554,0,0,5930.618,5,20,2025-04-22T11:01:54.697+03:00,767001730.2651621,0,-21.63,100.4627,1,0.95,2025-04-22T11:01:09.511+03:00,84,1.4,2025-04-22T09:54:17.825+03:00,0.02225348692287972,0
