loggingTime(txt),locationTimestamp_since1970(s),locationLatitude(WGS84),locationLongitude(WGS84),locationAltitude(m),locationSpeed(m/s),locationSpeedAccuracy(m/s),locationCourse(°),locationCourseAccuracy(°),locationVerticalAccuracy(m),locationHorizontalAccuracy(m),locationFloor(Z),accelerometerTimestamp_sinceReboot(s),accelerometerAccelerationX(G),accelerometerAccelerationY(G),accelerometerAccelerationZ(G),motionTimestamp_sinceReboot(s),motionYaw(rad),motionRoll(rad),motionPitch(rad),motionRotationRateX(rad/s),motionRotationRateY(rad/s),motionRotationRateZ(rad/s),motionUserAccelerationX(G),motionUserAccelerationY(G),motionUserAccelerationZ(G),motionAttitudeReferenceFrame(txt),motionQuaternionX(R),motionQuaternionY(R),motionQuaternionZ(R),motionQuaternionW(R),motionGravityX(G),motionGravityY(G),motionGravityZ(G),motionMagneticFieldX(µT),motionMagneticFieldY(µT),motionMagneticFieldZ(µT),motionHeading(°),motionMagneticFieldCalibrationAccuracy(Z),activityTimestamp_sinceReboot(s),activity(txt),activityActivityConfidence(Z),activityActivityStartDate(txt),pedometerStartDate(txt),pedometerNumberofSteps(N),pedometerAverageActivePace(s/m),pedometerCurrentPace(s/m),pedometerCurrentCadence(steps/s),pedometerDistance(m),pedometerFloorAscended(N),pedometerFloorDescended(N),pedometerEndDate(txt),altimeterTimestamp_sinceReboot(s),altimeterReset(bool),altimeterRelativeAltitude(m),altimeterPressure(kPa),batteryState(N),batteryLevel(R),heartRateBPMTimestamp(txt),heartRateBPM(N),heartRateBPS(R),heartRateVariabilityTimestamp(txt),heartRateVariability(ms),label
2025-04-22T11:23:32.165+03:00,1745310211.420269,40.95223836967934,29.14033012467102,76.57301,-1,-1,-1,-1,44.07244744262695,38.82724410217911,-9999,28305.3562385,-0.6561126708984375,0.7864227294921875,0.10357666015625,28305.3461625,-1.754084083845002,-1.733191064094096,-0.8662871428000259,-0.0575932115316391,-0.006732650101184845,0.02000191062688828,0.06673562526702881,-0.05738550424575806,0.01097716391086578,XArbitraryZVertical,-0.7056093687489735,-0.2333942302434132,-0.2472604345060926,0.6216951487664956,-0.6391386985778809,0.7619295120239258,0.1047148928046227,0,0,0,-1,-1,28295.084453125,unknown,2,2025-04-22T11:23:21.875+03:00,2025-04-21T17:08:51.449+03:00,7165,0.9502622,0,0,5982.688,5,20,2025-04-22T11:23:19.296+03:00,767003004.5460862,0,-21.18,100.4553,1,0.9,2025-04-22T11:21:43.022+03:00,78,1.3,2025-04-22T09:54:17.825+03:00,0.02225348692287972,0
2025-04-22T11:23:32.166+03:00,1745310211.420269,40.95223836967934,29.14033012467102,76.57301,-1,-1,-1,-1,44.07244744262695,38.82724410217911,-9999,28305.3663155,-0.67681884765625,0.767578125,0.0997161865234375,28305.3562385,-1.754777691518852,-1.73348505356185,-0.866521382378062,-0.02481462620198727,0.03452064841985703,0.03398304060101509,0.02632170915603638,0.003452062606811523,0.006591558456420898,XArbitraryZVertical,-0.7057418046825694,-0.2331639681181027,-0.2472959873780152,0.6216170231714443,-0.6389316320419312,0.7620812058448792,0.1048738583922386,0,0,0,-1,-1,28295.084453125,unknown,2,2025-04-22T11:23:21.875+03:00,2025-04-21T17:08:51.449+03:00,7165,0.9502622,0,0,5982.688,5,20,2025-04-22T11:23:19.296+03:00,767003004.5460862,0,-21.18,100.4553,1,0.9,2025-04-22T11:21:43.022+03:00,78,1.3,2025-04-22T09:54:17.825+03:00,0.02225348692287972,0
2025-04-22T11:23:32.172+03:00,1745310211.420269,40.95223836967934,29.14033012467102,76.57301,-1,-1,-1,-1,44.07244744262695,38.82724410217911,-9999,28305.3763915,-0.60687255859375,0.7512664794921875,0.116729736328125,28305.3663155,-1.755318941769005,-1.733881554436941,-0.8667902661987835,-0.01512604672461748,-0.009171172976493835,0.01299573294818401,-0.05261176824569702,0.01919293403625488,-0.008109092712402344,XArbitraryZVertical,-0.705871277021022,-0.2330079270192595,-0.2472367159180347,0.6215520730859913,-0.6386877298355103,0.7622553110122681,0.1050939038395882,0,0,0,-1,-1,28295.084453125,unknown,2,2025-04-22T11:23:21.875+03:00,2025-04-21T17:08:51.449+03:00,7165,0.9502622,0,0,5982.688,5,20,2025-04-22T11:23:19.296+03:00,767003004.5460862,0,-21.18,100.4553,1,0.9,2025-04-22T11:21:43.022+03:00,78,1.3,2025-04-22T09:54:17.825+03:00,0.02225348692287972,0
2025-04-22T11:23:32.183+03:00,1745310211.420269,40.95223836967934,29.14033012467102,76.57301,-1,-1,-1,-1,44.07244744262695,38.82724410217911,-9999,28305.3864685,-0.6279144287109375,0.76483154296875,0.11865234375,28305.3763915,-1.755476524689021,-1.734047559732733,-0.8667995903500044,-0.008503497578203678,-0.001097734086215496,0.019197603687644,0.01244258880615234,-0.009896337985992432,0.006205439567565918,XArbitraryZVertical,-0.7059107527228716,-0.2330008696616913,-0.2472240933283915,0.6215149515645924,-0.6386633515357971,0.7622613310813904,0.1051987931132317,0,0,0,-1,-1,28295.084453125,unknown,2,2025-04-22T11:23:21.875+03:00,2025-04-21T17:08:51.449+03:00,7165,0.9502622,0,0,5982.688,5,20,2025-04-22T11:23:19.296+03:00,767003004.5460862,0,-21.18,100.4553,1,0.9,2025-04-22T11:21:43.022+03:00,78,1.3,2025-04-22T09:54:17.825+03:00,0.02225348692287972,0
2025-04-22T11:23:32.192+03:00,1745310211.420269,40.95223836967934,29.14033012467102,76.57301,-1,-1,-1,-1,44.07244744262695,38.82724410217911,-9999,28305.3965445,-0.6558990478515625,0.7709503173828125,0.1108245849609375,28305.3864685,-1.755605357159561,-1.733944905614286,-0.8670522158182862,-0.009864106774330139,0.0311835054308176,0.02038963325321674,0.02727800607681274,-0.004078388214111328,0.0150151252746582,XArbitraryZVertical,-0.7059293431576193,-0.2328405778954892,-0.2472181088460703,0.6215562737677474,-0.6384840607643127,0.7624248266220093,0.1051019430160522,0,0,0,-1,-1,28295.084453125,unknown,2,2025-04-22T11:23:21.875+03:00,2025-04-21T17:08:51.449+03:00,7165,0.9502622,0,0,5982.688,5,20,2025-04-22T11:23:19.296+03:00,767003004.5460862,0,-21.18,100.4553,1,0.9,2025-04-22T11:21:43.022+03:00,78,1.3,2025-04-22T09:54:17.825+03:00,0.02225348692287972,0
2025-04-22T11:23:32.202+03:00,1745310211.420269,40.95223836967934,29.14033012467102,76.57301,-1,-1,-1,-1,44.07244744262695,38.82724410217911,-9999,28305.4066215,-0.6334686279296875,0.760528564453125,0.1068267822265625,28305.3965445,-1.75579333342649,-1.733814107047291,-0.8672161296373928,-0.01380125712603331,0.01268339157104492,0.006464930716902018,-0.01352691650390625,0.01044869422912598,0.008695006370544434,XArbitraryZVertical,-0.7059456119029877,-0.2326797191690501,-0.247269272528474,0.6215775968201935,-0.6383743286132812,0.7625308632850647,0.1049981191754341,0,0,0,-1,-1,28295.084453125,unknown,2,2025-04-22T11:23:21.875+03:00,2025-04-21T17:08:51.449+03:00,7165,0.9502622,0,0,5982.688,5,20,2025-04-22T11:23:19.296+03:00,767003004.5460862,0,-21.18,100.4553,1,0.9,2025-04-22T11:21:43.022+03:00,78,1.3,2025-04-22T09:54:17.825+03:00,0.02225348692287972,0
2025-04-22T11:23:32.212+03:00,1745310211.420269,40.95223836967934,29.14033012467102,76.57301,-1,-1,-1,-1,44.07244744262695,38.82724410217911,-9999,28305.4166985,-0.6209259033203125,0.76580810546875,0.1047515869140625,28305.4066215,-1.755899519243239,-1.73384401140899,-0.8672065998045503,-0.007893566973507404,-0.00666074501350522,0.005445206072181463,-0.005878210067749023,0.0002924799919128418,0.003227345645427704,XArbitraryZVertical,-0.7059610489040276,-0.2326546608697722,-0.2472948213266406,0.6215592812442273,-0.6383783221244812,0.7625247240066528,0.1050183847546577,0,0,0,-1,-1,28295.084453125,unknown,2,2025-04-22T11:23:21.875+03:00,2025-04-21T17:08:51.449+03:00,7165,0.9502622,0,0,5982.688,5,20,2025-04-22T11:23:19.296+03:00,767003004.5460862,0,-21.18,100.4553,1,0.9,2025-04-22T11:21:43.022+03:00,78,1.3,2025-04-22T09:54:17.825+03:00,0.02225348692287972,0
2025-04-22T11:23:32.222+03:00,1745310211.420269,40.95223836967934,29.14033012467102,76.57301,-1,-1,-1,-1,44.07244744262695,38.82724410217911,-9999,28305.4267745,-0.6342010498046875,0.7651214599609375,0.1064300537109375,28305.4166985,-1.755888652385305,-1.733869111786731,-0.8672093818800726,-0.0002622793545015156,-0.001753604505211115,0.006054537370800972,0.01732569932937622,-0.0002738237380981445,0.0003734827041625977,XArbitraryZVertical,-0.7059630629282639,-0.2326654119917702,-0.2472817066880983,0.6215582266304492,-0.6383737325668335,0.7625265121459961,0.1050340831279755,0,0,0,-1,-1,28295.084453125,unknown,2,2025-04-22T11:23:21.875+03:00,2025-04-21T17:08:51.449+03:00,7165,0.9502622,0,0,5982.688,5,20,2025-04-22T11:23:19.296+03:00,767003004.5460862,0,-21.18,100.4553,1,0.9,2025-04-22T11:21:43.022+03:00,78,1.3,2025-04-22T09:54:17.825+03:00,0.02225348692287972,0
2025-04-22T11:23:32.233+03:00,1745310211.420269,40.95223836967934,29.14033012467102,76.57301,-1,-1,-1,-1,44.07244744262695,38.82724410217911,-9999,28305.4368515,-0.6343841552734375,0.7575225830078125,0.1095428466796875,28305.4267745,-1.756041359265988,-1.734040452877345,-0.8673121981704833,-0.007362267002463341,-0.003341647330671549,0.01192840468138456,0.009448528289794922,0.00475621223449707,0.0003378540277481079,XArbitraryZVertical,-0.7060086083330028,-0.232631084921587,-0.2472352875970548,0.6215379163147718,-0.6382785439491272,0.7625930309295654,0.1051307544112206,0,0,0,-1,-1,28295.084453125,unknown,2,2025-04-22T11:23:21.875+03:00,2025-04-21T17:08:51.449+03:00,7165,0.9502622,0,0,5982.688,5,20,2025-04-22T11:23:19.296+03:00,767003004.5460862,0,-21.18,100.4553,1,0.9,2025-04-22T11:21:43.022+03:00,78,1.3,2025-04-22T09:54:17.825+03:00,0.02225348692287972,0
2025-04-22T11:23:32.242+03:00,1745310211.420269,40.95223836967934,29.14033012467102,76.57301,-1,-1,-1,-1,44.07244744262695,38.82724410217911,-9999,28305.4469275,-0.6329345703125,0.7533111572265625,0.112152099609375,28305.4368515,-1.756278763618801,-1.734306087507602,-0.8674508959872703,-0.01326729357242584,-0.009104728698730469,0.008977356366813183,0.001946210861206055,-0.002886593341827393,0.002840533852577209,XArbitraryZVertical,-0.7060779570108271,-0.2325843075295039,-0.247170142966777,0.6215025621199154,-0.6381462812423706,0.7626827359199524,0.1052830815315247,0,0,0,-1,-1,28295.084453125,unknown,2,2025-04-22T11:23:21.875+03:00,2025-04-21T17:08:51.449+03:00,7165,0.9502622,0,0,5982.688,5,20,2025-04-22T11:23:19.296+03:00,767003004.5460862,0,-21.18,100.4553,1,0.9,2025-04-22T11:21:43.022+03:00,78,1.3,2025-04-22T09:54:17.825+03:00,0.02225348692287972,0
2025-04-22T11:23:32.252+03:00,1745310211.420269,40.95223836967934,29.14033012467102,76.57301,-1,-1,-1,-1,44.07244744262695,38.82724410217911,-9999,28305.4570045,-0.6419219970703125,0.7609710693359375,0.108978271484375,28305.4469275,-1.756405789678748,-1.734435940846021,-0.8674703507474245,-0.005678350105881691,-0.002490235026925802,0.01551009062677622,0.005610466003417969,-0.0083160400390625,0.005705133080482483,XArbitraryZVertical,-0.7061100294480047,-0.2325733923743922,-0.2471574026469735,0.6214752254043915,-0.6381178498268127,0.7626953125,0.1053635105490685,0,0,0,-1,-1,28295.084453125,unknown,2,2025-04-22T11:23:21.875+03:00,2025-04-21T17:08:51.449+03:00,7165,0.9502622,0,0,5982.688,5,20,2025-04-22T11:23:19.296+03:00,767003004.5460862,0,-21.18,100.4553,1,0.9,2025-04-22T11:21:43.022+03:00,78,1.3,2025-04-22T09:54:17.825+03:00,0.02225348692287972,0
2025-04-22T11:23:32.262+03:00,1745310211.420269,40.95223836967934,29.14033012467102,76.57301,-1,-1,-1,-1,44.07244744262695,38.82724410217911,-9999,28305.4670815,-0.64569091796875,0.765716552734375,0.102935791015625,28305.4570045,-1.756559564609928,-1.734587844990135,-0.8676116951759508,-0.004656228702515364,-0.0008734297007322311,0.01412205118685961,-0.0005238652229309082,-0.005218386650085449,0.005793586373329163,XArbitraryZVertical,-0.7061557318300228,-0.2325199379280725,-0.247105568561349,0.6214639488400118,-0.6379955410957336,0.7627867460250854,0.1054428815841675,0,0,0,-1,-1,28295.084453125,unknown,2,2025-04-22T11:23:21.875+03:00,2025-04-21T17:08:51.449+03:00,7165,0.9502622,0,0,5982.688,5,20,2025-04-22T11:23:19.296+03:00,767003004.5460862,0,-21.18,100.4553,1,0.9,2025-04-22T11:21:43.022+03:00,78,1.3,2025-04-22T09:54:17.825+03:00,0.02225348692287972,0
2025-04-22T11:23:32.272+03:00,1745310211.420269,40.95223836967934,29.14033012467102,76.57301,-1,-1,-1,-1,44.07244744262695,38.82724410217911,-9999,28305.4771575,-0.6425628662109375,0.7678985595703125,0.09844970703125,28305.4670815,-1.756698965608648,-1.734749093755996,-0.867811129038434,-0.001020214986056089,-0.001980239059776068,0.01338115893304348,-0.007588028907775879,0.002739667892456055,-0.0008151605725288391,XArbitraryZVertical,-0.7062046315687236,-0.2324552815052998,-0.2470269410991522,0.6214637090063915,-0.6378281712532043,0.7629156708717346,0.1055208817124367,0,0,0,-1,-1,28295.084453125,unknown,2,2025-04-22T11:23:21.875+03:00,2025-04-21T17:08:51.449+03:00,7165,0.9502622,0,0,5982.688,5,20,2025-04-22T11:23:19.296+03:00,767003004.5460862,0,-21.18,100.4553,1,0.9,2025-04-22T11:21:43.022+03:00,78,1.3,2025-04-22T09:54:17.825+03:00,0.02225348692287972,0
2025-04-22T11:23:32.282+03:00,1745310211.420269,40.95223836967934,29.14033012467102,76.57301,-1,-1,-1,-1,44.07244744262695,38.82724410217911,-9999,28305.4872345,-0.64007568359375,0.7701416015625,0.10064697265625,28305.4771575,-1.756795750094314,-1.734844660326524,-0.8679153576215607,-0.001578147173859179,-0.002682781312614679,0.01321977190673351,-0.006852388381958008,0.003298044204711914,-0.005242452025413513,XArbitraryZVertical,-0.7062343288070911,-0.232416700956714,-0.246989449063632,0.6214594466083198,-0.6377399563789368,0.7629830241203308,0.1055689007043839,0,0,0,-1,-1,28295.084453125,unknown,2,2025-04-22T11:23:21.875+03:00,2025-04-21T17:08:51.449+03:00,7165,0.9502622,0,0,5982.688,5,20,2025-04-22T11:23:19.296+03:00,767003004.5460862,0,-21.18,100.4553,1,0.9,2025-04-22T11:21:43.022+03:00,78,1.3,2025-04-22T09:54:17.825+03:00,0.02225348692287972,0
2025-04-22T11:23:32.293+03:00,1745310211.420269,40.95223836967934,29.14033012467102,76.57301,-1,-1,-1,-1,44.07244744262695,38.82724410217911,-9999,28305.4973105,-0.6432037353515625,0.761749267578125,0.110076904296875,28305.4872345,-1.756873138031833,-1.734928823397798,-0.8679666716811226,-0.003215458709746599,-0.001341347116976976,0.003281919984146953,-0.002719342708587646,0.007354021072387695,-0.007670067250728607,XArbitraryZVertical,-0.7062570171558721,-0.2323985268652517,-0.2469669121351295,0.6214491931595759,-0.6376919746398926,0.7630162239074707,0.1056161001324654,0,0,0,-1,-1,28295.084453125,unknown,2,2025-04-22T11:23:21.875+03:00,2025-04-21T17:08:51.449+03:00,7165,0.9502622,0,0,5982.688,5,20,2025-04-22T11:23:19.296+03:00,767003004.5460862,0,-21.18,100.4553,1,0.9,2025-04-22T11:21:43.022+03:00,78,1.3,2025-04-22T09:54:17.825+03:00,0.02225348692287972,0
2025-04-22T11:23:32.303+03:00,1745310211.420269,40.95223836967934,29.14033012467102,76.57301,-1,-1,-1,-1,44.07244744262695,38.82724410217911,-9999,28305.5073875,-0.6443328857421875,0.7640533447265625,0.10760498046875,28305.4973105,-1.756883120358122,-1.734957722193242,-0.8680439566543223,0.005556527525186539,0.004015668295323849,0.004298215731978416,-0.004367470741271973,0.002238154411315918,0.001018628478050232,XArbitraryZVertical,-0.7062666777916871,-0.2323786332961225,-0.2469346672658843,0.6214584912047306,-0.637630820274353,0.7630661725997925,0.1056248992681503,0,0,0,-1,-1,28295.084453125,unknown,2,2025-04-22T11:23:21.875+03:00,2025-04-21T17:08:51.449+03:00,7165,0.9502622,0,0,5982.688,5,20,2025-04-22T11:23:19.296+03:00,767003004.5460862,0,-21.18,100.4553,1,0.9,2025-04-22T11:21:43.022+03:00,78,1.3,2025-04-22T09:54:17.825+03:00,0.02225348692287972,0
2025-04-22T11:23:32.313+03:00,1745310211.420269,40.95223836967934,29.14033012467102,76.57301,-1,-1,-1,-1,44.07244744262695,38.82724410217911,-9999,28305.5174645,-0.6432952880859375,0.7660675048828125,0.10748291015625,28305.5073875,-1.756724299036339,-1.734714407847426,-0.8681459123114497,0.01706431433558464,0.01896452344954014,0.002898192033171654,-0.006005346775054932,-0.0004063844680786133,0.004085659980773926,XArbitraryZVertical,-0.7062246878695748,-0.2323257024451835,-0.2469381020423346,0.6215247145262156,-0.6375799179077148,0.7631320357322693,0.1054570823907852,0,0,0,-1,-1,28295.084453125,unknown,2,2025-04-22T11:23:21.875+03:00,2025-04-21T17:08:51.449+03:00,7165,0.9502622,0,0,5982.688,5,20,2025-04-22T11:23:19.296+03:00,767003004.5460862,0,-21.18,100.4553,1,0.9,2025-04-22T11:21:43.022+03:00,78,1.3,2025-04-22T09:54:17.825+03:00,0.02225348692287972,0
2025-04-22T11:23:32.323+03:00,1745310211.420269,40.95223836967934,29.14033012467102,76.57301,-1,-1,-1,-1,44.07244744262695,38.82724410217911,-9999,28305.5275405,-0.6377410888671875,0.7574920654296875,0.1143951416015625,28305.5174645,-1.75640431417558,-1.73427149249434,-0.8682058527325704,0.02608776837587357,0.02075669914484024,0.002037391765043139,-0.006598889827728271,0.003781557083129883,0.001186370849609375,XArbitraryZVertical,-0.7061366618107937,-0.2322813710883933,-0.2469755426951045,0.6216264333300252,-0.637581467628479,0.7631707787513733,0.1051672399044037,0,0,0,-1,-1,28295.084453125,unknown,2,2025-04-22T11:23:21.875+03:00,2025-04-21T17:08:51.449+03:00,7165,0.9502622,0,0,5982.688,5,20,2025-04-22T11:23:19.296+03:00,767003004.5460862,0,-21.18,100.4553,1,0.9,2025-04-22T11:21:43.022+03:00,78,1.3,2025-04-22T09:54:17.825+03:00,0.02225348692287972,0
2025-04-22T11:23:32.333+03:00,1745310211.420269,40.95223836967934,29.14033012467102,76.57301,-1,-1,-1,-1,44.07244744262695,38.82724410217911,-9999,28305.5376175,-0.62811279296875,0.7579803466796875,0.1109771728515625,28305.5275405,-1.756109563027818,-1.733916046517428,-0.8682450130706915,0.01863384805619717,0.01197918597608805,0.0008749220287427306,-0.00396651029586792,-0.001736879348754883,0.007460355758666992,XArbitraryZVertical,-0.7060610470074812,-0.2322620734889937,-0.2469966447245882,0.6217111167682599,-0.6375892162322998,0.7631961107254028,0.1049357429146767,0,0,0,-1,-1,28295.084453125,unknown,2,2025-04-22T11:23:21.875+03:00,2025-04-21T17:08:51.449+03:00,7165,0.9502622,0,0,5982.688,5,20,2025-04-22T11:23:19.296+03:00,767003004.5460862,0,-21.18,100.4553,1,0.9,2025-04-22T11:21:43.022+03:00,78,1.3,2025-04-22T09:54:17.825+03:00,0.02225348692287972,0
2025-04-22T11:23:32.343+03:00,1745310211.420269,40.95223836967934,29.14033012467102,76.57301,-1,-1,-1,-1,44.07244744262695,38.82724410217911,-9999,28305.5476935,-0.6289520263671875,0.7610321044921875,0.1012115478515625,28305.5376175,-1.75595295158376,-1.733697803178194,-0.8682701639101806,0.01247388869524002,0.01177991554141045,0.007086445111781359,0.00610804557800293,-0.006468236446380615,0.009372696280479431,XArbitraryZVertical,-0.7060175285470661,-0.2322412014523663,-0.2470167565075352,0.621760261542509,-0.6375930309295654,0.7632123231887817,0.1047934517264366,0,0,0,-1,-1,28295.084453125,unknown,2,2025-04-22T11:23:21.875+03:00,2025-04-21T17:08:51.449+03:00,7165,0.9502622,0,0,5982.688,5,20,2025-04-22T11:23:19.296+03:00,767003004.5460862,0,-21.18,100.4553,1,0.9,2025-04-22T11:21:43.022+03:00,78,1.3,2025-04-22T09:54:17.825+03:00,0.02225348692287972,0
2025-04-22T11:23:32.353+03:00,1745310211.420269,40.95223836967934,29.14033012467102,76.57301,-1,-1,-1,-1,44.07244744262695,38.82724410217911,-9999,28305.5577705,-0.6304473876953125,0.7552032470703125,0.1024017333984375,28305.5476935,-1.755843422483527,-1.73352561944442,-0.8682671359817812,0.003064142074435949,0.001816496718674898,-0.002116640098392963,0.01049244403839111,-0.002117455005645752,-0.0009092167019844055,XArbitraryZVertical,-0.7059833458314314,-0.232227347609799,-0.2470444904134439,0.6217932561566154,-0.6376134157180786,0.7632104158401489,0.104684054851532,0,0,0,-1,-1,28295.084453125,unknown,2,2025-04-22T11:23:21.875+03:00,2025-04-21T17:08:51.449+03:00,7165,0.9502622,0,0,5982.688,5,20,2025-04-22T11:23:19.296+03:00,767003012.2848356,0,-21.05,100.4553,1,0.9,2025-04-22T11:21:43.022+03:00,78,1.3,2025-04-22T09:54:17.825+03:00,0.02225348692287972,0
2025-04-22T11:23:32.363+03:00,1745310211.420269,40.95223836967934,29.14033012467102,76.57301,-1,-1,-1,-1,44.07244744262695,38.82724410217911,-9999,28305.5678465,-0.6314239501953125,0.7595367431640625,0.108001708984375,28305.5577705,-1.755799650798145,-1.733490045056354,-0.8682377272705677,-0.004169802647083998,-0.002736444119364023,-0.001257637515664101,0.007329285144805908,-0.007530570030212402,-0.00371289998292923,XArbitraryZVertical,-0.7059719766565921,-0.2322414170398901,-0.2470530382721091,0.6217975464586591,-0.6376393437385559,0.7631914019584656,0.1046650186181068,0,0,0,-1,-1,28295.084453125,unknown,2,2025-04-22T11:23:21.875+03:00,2025-04-21T17:08:51.449+03:00,7165,0.9502622,0,0,5982.688,5,20,2025-04-22T11:23:19.296+03:00,767003012.2848356,0,-21.05,100.4553,1,0.9,2025-04-22T11:21:43.022+03:00,78,1.3,2025-04-22T09:54:17.825+03:00,0.02225348692287972,0
2025-04-22T11:23:32.373+03:00,1745310211.420269,40.95223836967934,29.14033012467102,76.57301,-1,-1,-1,-1,44.07244744262695,38.82724410217911,-9999,28305.5779235,-0.6371917724609375,0.7593536376953125,0.1092529296875,28305.5678465,-1.755857333171755,-1.733560560599157,-0.868233558256018,-0.0126711456105113,-0.006546628195792437,-0.003692565485835075,0.006867289543151855,-0.005650997161865234,0.001536369323730469,XArbitraryZVertical,-0.7059871145220031,-0.2322443667240628,-0.2470474571805245,0.6217815021278519,-0.6376351714134216,0.7631887197494507,0.1047105044126511,0,0,0,-1,-1,28295.084453125,unknown,2,2025-04-22T11:23:21.875+03:00,2025-04-21T17:08:51.449+03:00,7165,0.9502622,0,0,5982.688,5,20,2025-04-22T11:23:19.296+03:00,767003012.2848356,0,-21.05,100.4553,1,0.9,2025-04-22T11:21:43.022+03:00,78,1.3,2025-04-22T09:54:17.825+03:00,0.02225348692287972,0
2025-04-22T11:23:32.384+03:00,1745310211.420269,40.95223836967934,29.14033012467102,76.57301,-1,-1,-1,-1,44.07244744262695,38.82724410217911,-9999,28305.5880005,-0.6421966552734375,0.7563934326171875,0.106414794921875,28305.5779235,-1.756092216119593,-1.733798439462386,-0.8681779330615271,-0.01778761111199856,-0.005622511263936758,-0.001735941274091601,0.003313720226287842,-0.002395451068878174,0.00392603874206543,XArbitraryZVertical,-0.7060402035717108,-0.2322536700672994,-0.2470546208031841,0.6217149052708133,-0.6376520991325378,0.7631527781486511,0.1048690751194954,0,0,0,-1,-1,28295.084453125,unknown,2,2025-04-22T11:23:21.875+03:00,2025-04-21T17:08:51.449+03:00,7165,0.9502622,0,0,5982.688,5,20,2025-04-22T11:23:19.296+03:00,767003012.2848356,0,-21.05,100.4553,1,0.9,2025-04-22T11:21:43.022+03:00,78,1.3,2025-04-22T09:54:17.825+03:00,0.02225348692287972,0
2025-04-22T11:23:32.393+03:00,1745310211.420269,40.95223836967934,29.14033012467102,76.57301,-1,-1,-1,-1,44.07244744262695,38.82724410217911,-9999,28305.5980765,-0.640380859375,0.7622222900390625,0.102691650390625,28305.5880005,-1.756379776279705,-1.734079810068535,-0.8680892982923419,-0.01931546628475189,-0.003516749944537878,-0.001326613361015916,-0.003637731075286865,-0.007144808769226074,0.002606496214866638,XArbitraryZVertical,-0.7061026865210318,-0.2322686323052096,-0.2470734505524893,0.6216307578396542,-0.6376891136169434,0.763095498085022,0.1050594449043274,0,0,0,-1,-1,28295.084453125,unknown,2,2025-04-22T11:23:21.875+03:00,2025-04-21T17:08:51.449+03:00,7165,0.9502622,0,0,5982.688,5,20,2025-04-22T11:23:19.296+03:00,767003012.2848356,0,-21.05,100.4553,1,0.9,2025-04-22T11:21:43.022+03:00,78,1.3,2025-04-22T09:54:17.825+03:00,0.02225348692287972,0
2025-04-22T11:23:32.404+03:00,1745310211.420269,40.95223836967934,29.14033012467102,76.57301,-1,-1,-1,-1,44.07244744262695,38.82724410217911,-9999,28305.6081535,-0.6372528076171875,0.7644195556640625,0.1027069091796875,28305.5980765,-1.756645971400407,-1.734318971659401,-0.868037339850933,-0.01576753705739975,-0.00370896328240633,0.0008482903940603137,-0.004279851913452148,-0.003189682960510254,-0.001046784222126007,XArbitraryZVertical,-0.7061598189677012,-0.2322660425808832,-0.2470886664322177,0.6215607856881263,-0.6377031207084656,0.7630618810653687,0.1052184104919434,0,0,0,-1,-1,28295.084453125,unknown,2,2025-04-22T11:23:21.875+03:00,2025-04-21T17:08:51.449+03:00,7165,0.9502622,0,0,5982.688,5,20,2025-04-22T11:23:19.296+03:00,767003012.2848356,0,-21.05,100.4553,1,0.9,2025-04-22T11:21:43.022+03:00,78,1.3,2025-04-22T09:54:17.825+03:00,0.02225348692287972,0
2025-04-22T11:23:32.414+03:00,1745310211.420269,40.95223836967934,29.14033012467102,76.57301,-1,-1,-1,-1,44.07244744262695,38.82724410217911,-9999,28305.6182295,-0.6350555419921875,0.7631988525390625,0.103790283203125,28305.6081535,-1.756904364523144,-1.73459319787004,-0.8679720053753157,-0.01124895084649324,-0.007342047989368439,-0.001186098321340978,-0.000399172306060791,0.001582741737365723,-0.003213420510292053,XArbitraryZVertical,-0.7062195320242217,-0.2322814508548277,-0.2470933860764356,0.6214852761945514,-0.6377233266830444,0.7630196809768677,0.1054013967514038,0,0,0,-1,-1,28295.084453125,unknown,2,2025-04-22T11:23:21.875+03:00,2025-04-21T17:08:51.449+03:00,7165,0.9502622,0,0,5982.688,5,20,2025-04-22T11:23:19.296+03:00,767003012.2848356,0,-21.05,100.4553,1,0.9,2025-04-22T11:21:43.022+03:00,78,1.3,2025-04-22T09:54:17.825+03:00,0.02225348692287972,0
2025-04-22T11:23:32.424+03:00,1745310211.420269,40.95223836967934,29.14033012467102,76.57301,-1,-1,-1,-1,44.07244744262695,38.82724410217911,-9999,28305.6283065,-0.6321258544921875,0.7637176513671875,0.1061859130859375,28305.6182295,-1.757202298324713,-1.734945677195197,-0.8679373875059008,-0.01779833063483238,-0.009992026723921299,0.001788985449820757,0.002122879028320312,0.0006745457649230957,-0.002847418189048767,XArbitraryZVertical,-0.7062954535423864,-0.2322972366989141,-0.2470728695500425,0.6214014051231169,-0.6377125382423401,0.7629972696304321,0.1056305468082428,0,0,0,-1,-1,28295.084453125,unknown,2,2025-04-22T11:23:21.875+03:00,2025-04-21T17:08:51.449+03:00,7165,0.9502622,0,0,5982.688,5,20,2025-04-22T11:23:19.296+03:00,767003012.2848356,0,-21.05,100.4553,1,0.9,2025-04-22T11:21:43.022+03:00,78,1.3,2025-04-22T09:54:17.825+03:00,0.02225348692287972,0
2025-04-22T11:23:32.434+03:00,1745310211.420269,40.95223836967934,29.14033012467102,76.57301,-1,-1,-1,-1,44.07244744262695,38.82724410217911,-9999,28305.6383835,-0.6329803466796875,0.764312744140625,0.106719970703125,28305.6283065,-1.757410319267713,-1.735173120275236,-0.8679706508150783,-0.0097782202064991,-0.004908318631350994,0.0006504841148853302,0.004957497119903564,7.295608520507812e-05,-0.0006232410669326782,XArbitraryZVertical,-0.706349845725026,-0.2322834266847283,-0.2470462548742822,0.6213551913548576,-0.6376631855964661,0.763018786907196,0.105771392583847,0,0,0,-1,-1,28295.084453125,unknown,2,2025-04-22T11:23:21.875+03:00,2025-04-21T17:08:51.449+03:00,7165,0.9502622,0,0,5982.688,5,20,2025-04-22T11:23:19.296+03:00,767003012.2848356,0,-21.05,100.4553,1,0.9,2025-04-22T11:21:43.022+03:00,78,1.3,2025-04-22T09:54:17.825+03:00,0.02225348692287972,0
2025-04-22T11:23:32.444+03:00,1745310211.420269,40.95223836967934,29.14033012467102,76.57301,-1,-1,-1,-1,44.07244744262695,38.82724410217911,-9999,28305.6484595,-0.63140869140625,0.7691802978515625,0.1093292236328125,28305.6383835,-1.757466251121242,-1.735218053375262,-0.867981513225115,0.0001670888013904914,0.0009988392703235149,0.003389545017853379,0.005020976066589355,0.001179993152618408,0.0007532835006713867,XArbitraryZVertical,-0.7063625781000632,-0.232274106417135,-0.2470442661314832,0.621345047530049,-0.6376503705978394,0.7630258202552795,0.1057987064123154,0,0,0,-1,-1,28295.084453125,unknown,2,2025-04-22T11:23:21.875+03:00,2025-04-21T17:08:51.449+03:00,7165,0.9502622,0,0,5982.688,5,20,2025-04-22T11:23:19.296+03:00,767003012.2848356,0,-21.05,100.4553,1,0.9,2025-04-22T11:21:43.022+03:00,78,1.3,2025-04-22T09:54:17.825+03:00,0.02225348692287972,0
2025-04-22T11:23:32.454+03:00,1745310211.420269,40.95223836967934,29.14033012467102,76.57301,-1,-1,-1,-1,44.07244744262695,38.82724410217911,-9999,28305.6585365,-0.6344757080078125,0.7711029052734375,0.1133880615234375,28305.6484595,-1.757325638944258,-1.735103781387809,-0.867997668250604,0.01831120625138283,0.003581839380785823,-0.00503989215940237,0.00494462251663208,0.003290474414825439,0.002430319786071777,XArbitraryZVertical,-0.706333160476742,-0.2322829747643031,-0.2470356923049368,0.6213785994180354,-0.6376503705978394,0.7630362510681152,0.1057238280773163,0,0,0,-1,-1,28295.084453125,unknown,2,2025-04-22T11:23:21.875+03:00,2025-04-21T17:08:51.449+03:00,7165,0.9502622,0,0,5982.688,5,20,2025-04-22T11:23:19.296+03:00,767003012.2848356,0,-21.05,100.4553,1,0.9,2025-04-22T11:21:43.022+03:00,78,1.3,2025-04-22T09:54:17.825+03:00,0.02225348692287972,0
2025-04-22T11:23:32.464+03:00,1745310211.420269,40.95223836967934,29.14033012467102,76.57301,-1,-1,-1,-1,44.07244744262695,38.82724410217911,-9999,28305.6686125,-0.6432342529296875,0.7700653076171875,0.114044189453125,28305.6585365,-1.756829579031876,-1.734654715434334,-0.867982407068265,0.04040538892149925,0.01551047153770924,-0.006259719841182232,0.005232334136962891,0.008534014225006104,0.007017835974693298,XArbitraryZVertical,-0.7062191054410734,-0.2323235896340431,-0.2470450682069438,0.6214892602638211,-0.6377091407775879,0.7630263566970825,0.1054393500089645,0,0,0,-1,-1,28295.084453125,unknown,2,2025-04-22T11:23:21.875+03:00,2025-04-21T17:08:51.449+03:00,7165,0.9502622,0,0,5982.688,5,20,2025-04-22T11:23:19.296+03:00,767003012.2848356,0,-21.05,100.4553,1,0.9,2025-04-22T11:21:43.022+03:00,78,1.3,2025-04-22T09:54:17.825+03:00,0.02225348692287972,0
2025-04-22T11:23:32.474+03:00,1745310211.420269,40.95223836967934,29.14033012467102,76.57301,-1,-1,-1,-1,44.07244744262695,38.82724410217911,-9999,28305.6786895,-0.643829345703125,0.7665252685546875,0.1100311279296875,28305.6686125,-1.756142074922529,-1.733959210881412,-0.8679373712916734,0.0492316372692585,0.01885034143924713,-0.00886695459485054,-0.002732336521148682,0.007052600383758545,0.01029384136199951,XArbitraryZVertical,-0.7060504254253199,-0.2323650132390615,-0.2470916821797104,0.6216469580053881,-0.6378163695335388,0.7629972696304321,0.1050014048814774,0,0,0,-1,-1,28295.084453125,unknown,2,2025-04-22T11:23:21.875+03:00,2025-04-21T17:08:51.449+03:00,7165,0.9502622,0,0,5982.688,5,20,2025-04-22T11:23:19.296+03:00,767003012.2848356,0,-21.05,100.4553,1,0.9,2025-04-22T11:21:43.022+03:00,78,1.3,2025-04-22T09:54:17.825+03:00,0.02225348692287972,0
2025-04-22T11:23:32.484+03:00,1745310211.420269,40.95223836967934,29.14033012467102,76.57301,-1,-1,-1,-1,44.07244744262695,38.82724410217911,-9999,28305.6887665,-0.6387939453125,0.75567626953125,0.1064300537109375,28305.6786895,-1.755452067691432,-1.733216194347369,-0.8679144248849414,0.03904431313276291,0.01943390630185604,-0.00610575545579195,-0.006879270076751709,0.006563901901245117,0.00778961181640625,XArbitraryZVertical,-0.7058769795161699,-0.2323850902909959,-0.2471468867392306,0.6218144026390923,-0.6379113793373108,0.7629824280738831,0.1045302823185921,0,0,0,-1,-1,28295.084453125,unknown,2,2025-04-22T11:23:21.875+03:00,2025-04-21T17:08:51.449+03:00,7165,0.9502622,0,0,5982.688,5,20,2025-04-22T11:23:19.296+03:00,767003012.2848356,0,-21.05,100.4553,1,0.9,2025-04-22T11:21:43.022+03:00,78,1.3,2025-04-22T09:54:17.825+03:00,0.02225348692287972,0
2025-04-22T11:23:32.494+03:00,1745310211.420269,40.95223836967934,29.14033012467102,76.57301,-1,-1,-1,-1,44.07244744262695,38.82724410217911,-9999,28305.6988425,-0.63568115234375,0.7543182373046875,0.1020965576171875,28305.6887665,-1.754957979101103,-1.732674265786121,-0.8678982164681429,0.02252632193267345,0.01140633970499039,-0.006883664987981319,-0.002690732479095459,-0.003801703453063965,0.003189422190189362,XArbitraryZVertical,-0.7057515590116754,-0.2323962154710428,-0.2471897254807542,0.6219354857935159,-0.6379799842834473,0.7629719376564026,0.1041865274310112,0,0,0,-1,-1,28295.084453125,unknown,2,2025-04-22T11:23:21.875+03:00,2025-04-21T17:08:51.449+03:00,7165,0.9502622,0,0,5982.688,5,20,2025-04-22T11:23:19.296+03:00,767003012.2848356,0,-21.05,100.4553,1,0.9,2025-04-22T11:21:43.022+03:00,78,1.3,2025-04-22T09:54:17.825+03:00,0.02225348692287972,0
2025-04-22T11:23:32.507+03:00,1745310211.420269,40.95223836967934,29.14033012467102,76.57301,-1,-1,-1,-1,44.07244744262695,38.82724410217911,-9999,28305.7089195,-0.637603759765625,0.75787353515625,0.0988006591796875,28305.6988425,-1.754700069852915,-1.732408101472023,-0.8678658164250438,0.009230758063495159,0.002691677771508694,-0.008563187904655933,0.001740753650665283,-0.009411215782165527,0.0004408285021781921,XArbitraryZVertical,-0.7056865900290588,-0.2324151372215982,-0.247214040111001,0.6219925401021763,-0.6380322575569153,0.7629510164260864,0.1040207222104073,0,0,0,-1,-1,28295.084453125,unknown,2,2025-04-22T11:23:21.875+03:00,2025-04-21T17:08:51.449+03:00,7165,0.9502622,0,0,5982.688,5,20,2025-04-22T11:23:19.296+03:00,767003012.2848356,0,-21.05,100.4553,1,0.9,2025-04-22T11:21:43.022+03:00,78,1.3,2025-04-22T09:54:17.825+03:00,0.02225348692287972,0
2025-04-22T11:23:32.515+03:00,1745310211.420269,40.95223836967934,29.14033012467102,76.57301,-1,-1,-1,-1,44.07244744262695,38.82724410217911,-9999,28305.7189955,-0.6410675048828125,0.7599334716796875,0.1028289794921875,28305.7089195,-1.754547449240953,-1.732304901298731,-0.8678136058264847,0.007733528967946768,-0.001848212908953428,-0.008395940996706486,0.001592457294464111,-0.006630778312683105,-0.003909587860107422,XArbitraryZVertical,-0.7056527145114088,-0.2324540680008648,-0.2472200227588313,0.6220140929000402,-0.6380823850631714,0.7629172801971436,0.1039612963795662,0,0,0,-1,-1,28295.084453125,unknown,2,2025-04-22T11:23:21.875+03:00,2025-04-21T17:08:51.449+03:00,7165,0.9502622,0,0,5982.688,5,20,2025-04-22T11:23:19.296+03:00,767003012.2848356,0,-21.05,100.4553,1,0.9,2025-04-22T11:21:43.022+03:00,78,1.3,2025-04-22T09:54:17.825+03:00,0.02225348692287972,0
2025-04-22T11:23:32.540+03:00,1745310211.420269,40.95223836967934,29.14033012467102,76.57301,-1,-1,-1,-1,44.07244744262695,38.82724410217911,-9999,28305.7290725,-0.637725830078125,0.7679901123046875,0.10614013671875,28305.7189955,-1.754320435352604,-1.732162418537059,-0.8677701484280018,0.02354591526091099,-0.0001274114474654198,-0.009937578812241554,-0.001808345317840576,-0.004069626331329346,-0.003076180815696716,XArbitraryZVertical,-0.7056058939523329,-0.2325041628061904,-0.2472138864050231,0.6220509872609988,-0.6381300091743469,0.7628891468048096,0.1038757264614105,0,0,0,-1,-1,28295.084453125,unknown,2,2025-04-22T11:23:21.875+03:00,2025-04-21T17:08:51.449+03:00,7165,0.9502622,0,0,5982.688,5,20,2025-04-22T11:23:19.296+03:00,767003012.2848356,0,-21.05,100.4553,1,0.9,2025-04-22T11:21:43.022+03:00,78,1.3,2025-04-22T09:54:17.825+03:00,0.02225348692287972,0
2025-04-22T11:23:32.541+03:00,1745310211.420269,40.95223836967934,29.14033012467102,76.57301,-1,-1,-1,-1,44.07244744262695,38.82724410217911,-9999,28305.7391495,-0.6364898681640625,0.769989013671875,0.105377197265625,28305.7290725,-1.753923111706742,-1.731835707814463,-0.8677319250410974,0.03019849210977554,0.009053570218384266,-0.008810795843601227,-0.0009064674377441406,0.001875519752502441,0.002925887703895569,XArbitraryZVertical,-0.7055168374238082,-0.232555257547487,-0.2472180034552453,0.6221312545510539,-0.6381927132606506,0.7628644704818726,0.1036719083786011,0,0,0,-1,-1,28295.084453125,unknown,2,2025-04-22T11:23:21.875+03:00,2025-04-21T17:08:51.449+03:00,7165,0.9502622,0,0,5982.688,5,20,2025-04-22T11:23:19.296+03:00,767003012.2848356,0,-21.05,100.4553,1,0.9,2025-04-22T11:21:43.022+03:00,78,1.3,2025-04-22T09:54:17.825+03:00,0.02225348692287972,0
2025-04-22T11:23:32.546+03:00,1745310211.420269,40.95223836967934,29.14033012467102,76.57301,-1,-1,-1,-1,44.07244744262695,38.82724410217911,-9999,28305.7492255,-0.6324920654296875,0.7639923095703125,0.11151123046875,28305.7391495,-1.753437486875507,-1.73137797288504,-0.8677402649686374,0.03809709474444389,0.01189509592950344,-0.01073496229946613,0.001286089420318604,0.007683694362640381,0.00216616690158844,XArbitraryZVertical,-0.7054043276103343,-0.2325814156787175,-0.2472256700086179,0.6222459998667073,-0.6382338404655457,0.7628698348999023,0.1033787578344345,0,0,0,-1,-1,28295.084453125,unknown,2,2025-04-22T11:23:21.875+03:00,2025-04-21T17:08:51.449+03:00,7165,0.9502622,0,0,5982.688,5,20,2025-04-22T11:23:19.296+03:00,767003012.2848356,0,-21.05,100.4553,1,0.9,2025-04-22T11:21:43.022+03:00,78,1.3,2025-04-22T09:54:17.825+03:00,0.02225348692287972,0
2025-04-22T11:23:32.555+03:00,1745310211.420269,40.95223836967934,29.14033012467102,76.57301,-1,-1,-1,-1,44.07244744262695,38.82724410217911,-9999,28305.7593025,-0.6309814453125,0.7565765380859375,0.1117706298828125,28305.7492255,-1.752967693231818,-1.730983657970508,-0.8677158938169575,0.02801782824099064,0.006827100645750761,-0.00689308624714613,0.00386279821395874,0.004189789295196533,0.005695454776287079,XArbitraryZVertical,-0.705299370513399,-0.2326323444437222,-0.2472264278751302,0.6223455286856596,-0.638292670249939,0.7628540992736816,0.1031300202012062,0,0,0,-1,-1,28295.084453125,unknown,2,2025-04-22T11:23:21.875+03:00,2025-04-21T17:08:51.449+03:00,7165,0.9502622,0,0,5982.688,5,20,2025-04-22T11:23:19.296+03:00,767003012.2848356,0,-21.05,100.4553,1,0.9,2025-04-22T11:21:43.022+03:00,78,1.3,2025-04-22T09:54:17.825+03:00,0.02225348692287972,0
2025-04-22T11:23:32.565+03:00,1745310211.420269,40.95223836967934,29.14033012467102,76.57301,-1,-1,-1,-1,44.07244744262695,38.82724410217911,-9999,28305.7693785,-0.634368896484375,0.7484130859375,0.107147216796875,28305.7593025,-1.752713372990539,-1.730771681846324,-0.8676766412428103,0.01046892814338207,0.005174875725060701,-0.002336284145712852,0.007301628589630127,-0.00333791971206665,0.009732246398925781,XArbitraryZVertical,-0.7052410225122278,-0.2326689540468238,-0.2472348236423458,0.6223946279819899,-0.6383441090583801,0.7628287076950073,0.1029994860291481,0,0,0,-1,-1,28295.084453125,unknown,2,2025-04-22T11:23:21.875+03:00,2025-04-21T17:08:51.449+03:00,7165,0.9502622,0,0,5982.688,5,20,2025-04-22T11:23:19.296+03:00,767003012.2848356,0,-21.05,100.4553,1,0.9,2025-04-22T11:21:43.022+03:00,78,1.3,2025-04-22T09:54:17.825+03:00,0.02225348692287972,0
2025-04-22T11:23:32.575+03:00,1745310211.420269,40.95223836967934,29.14033012467102,76.57301,-1,-1,-1,-1,44.07244744262695,38.82724410217911,-9999,28305.7794555,-0.6322479248046875,0.74761962890625,0.1049041748046875,28305.7693785,-1.752677870376005,-1.730748179277197,-0.8676290433527425,-0.006495674140751362,-0.002648692112416029,-0.0004624841676559299,0.004974663257598877,-0.01157748699188232,0.005942091345787048,XArbitraryZVertical,-0.7052308853240011,-0.2326897533273158,-0.2472475294576914,0.622393237382678,-0.6383822560310364,0.7627979516983032,0.1029902473092079,0,0,0,-1,-1,28295.084453125,unknown,2,2025-04-22T11:23:21.875+03:00,2025-04-21T17:08:51.449+03:00,7165,0.9502622,0,0,5982.688,5,20,2025-04-22T11:23:19.296+03:00,767003012.2848356,0,-21.05,100.4553,1,0.9,2025-04-22T11:21:43.022+03:00,78,1.3,2025-04-22T09:54:17.825+03:00,0.02225348692287972,0
2025-04-22T11:23:32.585+03:00,1745310211.420269,40.95223836967934,29.14033012467102,76.57301,-1,-1,-1,-1,44.07244744262695,38.82724410217911,-9999,28305.7895325,-0.6307830810546875,0.75225830078125,0.10064697265625,28305.7794555,-1.75282954392426,-1.730921487141424,-0.8675766374240163,-0.009958183392882347,-0.007881404832005501,-0.0023985356092453,0.004874348640441895,-0.01560240983963013,0.002452842891216278,XArbitraryZVertical,-0.7052665287285991,-0.2327074621804761,-0.2472507381115996,0.6223450238453969,-0.6384040117263794,0.762764036655426,0.1031072810292244,0,0,0,-1,-1,28295.084453125,unknown,2,2025-04-22T11:23:21.875+03:00,2025-04-21T17:08:51.449+03:00,7165,0.9502622,0,0,5982.688,5,20,2025-04-22T11:23:19.296+03:00,767003012.2848356,0,-21.05,100.4553,1,0.9,2025-04-22T11:21:43.022+03:00,78,1.3,2025-04-22T09:54:17.825+03:00,0.02225348692287972,0
2025-04-22T11:23:32.595+03:00,1745310211.420269,40.95223836967934,29.14033012467102,76.57301,-1,-1,-1,-1,44.07244744262695,38.82724410217911,-9999,28305.7996085,-0.631988525390625,0.7581024169921875,0.099639892578125,28305.7895325,-1.753001002883592,-1.731166332995132,-0.8675144400664889,-0.01306582614779472,-0.01457099989056587,-0.001146583701483905,0.007856011390686035,-0.01119822263717651,-0.001159444451332092,XArbitraryZVertical,-0.7053127007635664,-0.2327435533589445,-0.247237948480271,0.6222842003203438,-0.6384254097938538,0.7627238035202026,0.1032711341977119,0,0,0,-1,-1,28295.084453125,unknown,2,2025-04-22T11:23:21.875+03:00,2025-04-21T17:08:51.449+03:00,7165,0.9502622,0,0,5982.688,5,20,2025-04-22T11:23:19.296+03:00,767003012.2848356,0,-21.05,100.4553,1,0.9,2025-04-22T11:21:43.022+03:00,78,1.3,2025-04-22T09:54:17.825+03:00,0.02225348692287972,0
2025-04-22T11:23:32.605+03:00,1745310211.420269,40.95223836967934,29.14033012467102,76.57301,-1,-1,-1,-1,44.07244744262695,38.82724410217911,-9999,28305.809684,-0.6333160400390625,0.7647857666015625,0.09991455078125,28305.7996085,-1.753169775471575,-1.731436052297725,-0.8674345139450863,-0.01296302769333124,-0.01698994822800159,-0.007649357430636883,0.006133675575256348,-0.006950259208679199,-0.003675937652587891,XArbitraryZVertical,-0.70536046408173,-0.232794271202287,-0.247221447550348,0.6222177511654265,-0.6384579539299011,0.7626721262931824,0.1034531146287918,0,0,0,-1,-1,28295.084453125,unknown,2,2025-04-22T11:23:21.875+03:00,2025-04-21T17:08:51.449+03:00,7165,0.9502622,0,0,5982.688,5,20,2025-04-22T11:23:19.296+03:00,767003012.2848356,0,-21.05,100.4553,1,0.9,2025-04-22T11:21:43.022+03:00,78,1.3,2025-04-22T09:54:17.825+03:00,0.02225348692287972,0
2025-04-22T11:23:32.615+03:00,1745310211.420269,40.95223836967934,29.14033012467102,76.57301,-1,-1,-1,-1,44.07244744262695,38.82724410217911,-9999,28305.819761,-0.6369476318359375,0.7645721435546875,0.1034698486328125,28305.809684,-1.753315395464979,-1.731724278642579,-0.8673345272685477,-0.007410070393234491,-0.01489137671887875,-0.01211388036608696,0.006133317947387695,-0.0002478957176208496,-0.003567084670066833,XArbitraryZVertical,-0.7054065325204543,-0.2328654074995463,-0.2471976603237151,0.6221483525077017,-0.63850337266922,0.7626074552536011,0.1036493480205536,0,0,0,-1,-1,28295.084453125,unknown,2,2025-04-22T11:23:21.875+03:00,2025-04-21T17:08:51.449+03:00,7165,0.9502622,0,0,5982.688,5,20,2025-04-22T11:23:19.296+03:00,767003012.2848356,0,-21.05,100.4553,1,0.9,2025-04-22T11:21:43.022+03:00,78,1.3,2025-04-22T09:54:17.825+03:00,0.02225348692287972,0
2025-04-22T11:23:32.625+03:00,1745310211.420269,40.95223836967934,29.14033012467102,76.57301,-1,-1,-1,-1,44.07244744262695,38.82724410217911,-9999,28305.829837,-0.64111328125,0.7602386474609375,0.1068572998046875,28305.819761,-1.753369631017434,-1.731910766868328,-0.8672358061691845,-0.001083132228814065,-0.01073597930371761,-0.01461375690996647,0.003685712814331055,0.003020107746124268,-0.001867190003395081,XArbitraryZVertical,-0.7054294810654199,-0.2329366511329712,-0.2471808588449697,0.6221022655198364,-0.6385581493377686,0.7625436186790466,0.1037804707884789,0,0,0,-1,-1,28295.084453125,unknown,2,2025-04-22T11:23:21.875+03:00,2025-04-21T17:08:51.449+03:00,7165,0.9502622,0,0,5982.688,5,20,2025-04-22T11:23:19.296+03:00,767003012.2848356,0,-21.05,100.4553,1,0.9,2025-04-22T11:21:43.022+03:00,78,1.3,2025-04-22T09:54:17.825+03:00,0.02225348692287972,0
2025-04-22T11:23:32.635+03:00,1745310211.420269,40.95223836967934,29.14033012467102,76.57301,-1,-1,-1,-1,44.07244744262695,38.82724410217911,-9999,28305.839914,-0.6399688720703125,0.7608489990234375,0.10821533203125,28305.829837,-1.753388334977728,-1.732035469412109,-0.8671339346900497,0.0002689546963665634,-0.007726075127720833,-0.01374529954046011,-0.001774013042449951,-0.0015067458152771,0.00206911563873291,XArbitraryZVertical,-0.7054404339584346,-0.2330023508706357,-0.2471759361859517,0.6220672869782758,-0.6386221051216125,0.762477695941925,0.1038726046681404,0,0,0,-1,-1,28295.084453125,unknown,2,2025-04-22T11:23:21.875+03:00,2025-04-21T17:08:51.449+03:00,7165,0.9502622,0,0,5982.688,5,20,2025-04-22T11:23:19.296+03:00,767003012.2848356,0,-21.05,100.4553,1,0.9,2025-04-22T11:21:43.022+03:00,78,1.3,2025-04-22T09:54:17.825+03:00,0.02225348692287972,0
2025-04-22T11:23:32.646+03:00,1745310211.420269,40.95223836967934,29.14033012467102,76.57301,-1,-1,-1,-1,44.07244744262695,38.82724410217911,-9999,28305.84999,-0.63275146484375,0.754241943359375,0.1035614013671875,28305.839914,-1.753509594370401,-1.732270402546096,-0.8670240869521944,-0.01383920758962631,-0.01212222315371037,-0.01264092046767473,-0.00284498929977417,-0.001542508602142334,0.003934979438781738,XArbitraryZVertical,-0.705476454084091,-0.2330687031626908,-0.2471665527010446,0.6220052975402686,-0.6386802792549133,0.762406587600708,0.1040360927581787,0,0,0,-1,-1,28295.084453125,unknown,2,2025-04-22T11:23:21.875+03:00,2025-04-21T17:08:51.449+03:00,7165,0.9502622,0,0,5982.688,5,20,2025-04-22T11:23:19.296+03:00,767003012.2848356,0,-21.05,100.4553,1,0.9,2025-04-22T11:21:43.022+03:00,78,1.3,2025-04-22T09:54:17.825+03:00,0.02225348692287972,0
2025-04-22T11:23:32.656+03:00,1745310211.420269,40.95223836967934,29.14033012467102,76.57301,-1,-1,-1,-1,44.07244744262695,38.82724410217911,-9999,28305.860067,-0.6295623779296875,0.7476959228515625,0.1030426025390625,28305.84999,-1.753827978036647,-1.732715595955269,-0.8668362787213284,-0.02944559790194035,-0.02154901437461376,-0.01382922288030386,0.003399193286895752,-0.003725051879882812,0.001430273056030273,XArbitraryZVertical,-0.7055563820603385,-0.23315647202592,-0.2471696693422398,0.6218804778275291,-0.6387751698493958,0.762285053730011,0.1043434962630272,0,0,0,-1,-1,28295.084453125,unknown,2,2025-04-22T11:23:21.875+03:00,2025-04-21T17:08:51.449+03:00,7165,0.9502622,0,0,5982.688,5,20,2025-04-22T11:23:19.296+03:00,767003012.2848356,0,-21.05,100.4553,1,0.9,2025-04-22T11:21:43.022+03:00,78,1.3,2025-04-22T09:54:17.825+03:00,0.02225348692287972,0
2025-04-22T11:23:32.666+03:00,1745310211.420269,40.95223836967934,29.14033012467102,76.57301,-1,-1,-1,-1,44.07244744262695,38.82724410217911,-9999,28305.870144,-0.63421630859375,0.751739501953125,0.10418701171875,28305.860067,-1.75437804972876,-1.733386929029993,-0.8666334984783144,-0.04335575550794601,-0.02597378939390182,-0.008018970489501953,0.008715212345123291,-0.0135272741317749,-0.002426266670227051,XArbitraryZVertical,-0.7056903411666932,-0.2332376438741051,-0.247169838508641,0.6216979110631232,-0.6388574242591858,0.7621538043022156,0.1047973111271858,0,0,0,-1,-1,28295.084453125,unknown,2,2025-04-22T11:23:21.875+03:00,2025-04-21T17:08:51.449+03:00,7165,0.9502622,0,0,5982.688,5,20,2025-04-22T11:23:19.296+03:00,767003012.2848356,0,-21.05,100.4553,1,0.9,2025-04-22T11:21:43.022+03:00,78,1.3,2025-04-22T09:54:17.825+03:00,0.02225348692287972,0
2025-04-22T11:23:32.676+03:00,1745310211.420269,40.95223836967934,29.14033012467102,76.57301,-1,-1,-1,-1,44.07244744262695,38.82724410217911,-9999,28305.88022,-0.637420654296875,0.7539215087890625,0.1029815673828125,28305.870144,-1.755059478712447,-1.734196922247963,-0.86647844441865,-0.05074549466371536,-0.03021354228258133,-0.007463168818503618,0.006610512733459473,-0.01164156198501587,-0.001665949821472168,XArbitraryZVertical,-0.7058598909731159,-0.2332998117726889,-0.2471462847506444,0.6214914492849427,-0.638888955116272,0.7620534300804138,0.1053339764475822,0,0,0,-1,-1,28295.084453125,unknown,2,2025-04-22T11:23:21.875+03:00,2025-04-21T17:08:51.449+03:00,7165,0.9502622,0,0,5982.688,5,20,2025-04-22T11:23:19.296+03:00,767003012.2848356,0,-21.05,100.4553,1,0.9,2025-04-22T11:21:43.022+03:00,78,1.3,2025-04-22T09:54:17.825+03:00,0.02225348692287972,0
2025-04-22T11:23:32.686+03:00,1745310211.420269,40.95223836967934,29.14033012467102,76.57301,-1,-1,-1,-1,44.07244744262695,38.82724410217911,-9999,28305.890297,-0.63616943359375,0.7618560791015625,0.10540771484375,28305.88022,-1.755820693868639,-1.735050256617267,-0.866338109618183,-0.05004701390862465,-0.02855898812413216,-0.007520060520619154,0.001148104667663574,-0.009109318256378174,-0.002945661544799805,XArbitraryZVertical,-0.706045091906363,-0.2333423309607749,-0.2471273117396279,0.6212726846718031,-0.6389045119285583,0.7619625329971313,0.1058966293931007,0,0,0,-1,-1,28295.084453125,unknown,2,2025-04-22T11:23:21.875+03:00,2025-04-21T17:08:51.449+03:00,7165,0.9502622,0,0,5982.688,5,20,2025-04-22T11:23:19.296+03:00,767003012.2848356,0,-21.05,100.4553,1,0.9,2025-04-22T11:21:43.022+03:00,78,1.3,2025-04-22T09:54:17.825+03:00,0.02225348692287972,0
2025-04-22T11:23:32.696+03:00,1745310211.420269,40.95223836967934,29.14033012467102,76.57301,-1,-1,-1,-1,44.07244744262695,38.82724410217911,-9999,28305.900373,-0.6351776123046875,0.773895263671875,0.1091766357421875,28305.890297,-1.756452729530576,-1.73580094854989,-0.8662271375132656,-0.03697888180613518,-0.02827616035938263,-0.009009833447635174,0.002631843090057373,-0.004383504390716553,-0.002584576606750488,XArbitraryZVertical,-0.7062044696950885,-0.2333887254502789,-0.2470946791240886,0.6210870385935819,-0.6389081478118896,0.7618906497955322,0.1063901036977768,0,0,0,-1,-1,28295.084453125,unknown,2,2025-04-22T11:23:21.875+03:00,2025-04-21T17:08:51.449+03:00,7165,0.9502622,0,0,5982.688,5,20,2025-04-22T11:23:19.296+03:00,767003012.2848356,0,-21.05,100.4553,1,0.9,2025-04-22T11:21:43.022+03:00,78,1.3,2025-04-22T09:54:17.825+03:00,0.02225348692287972,0
2025-04-22T11:23:32.706+03:00,1745310211.420269,40.95223836967934,29.14033012467102,76.57301,-1,-1,-1,-1,44.07244744262695,38.82724410217911,-9999,28305.91045,-0.63629150390625,0.7745819091796875,0.106353759765625,28305.900373,-1.756778193978659,-1.736292722424534,-0.8661017574897512,-0.01217952556908131,-0.02531951665878296,-0.01499755121767521,0.003467082977294922,0.007691144943237305,0.001785159111022949,XArbitraryZVertical,-0.7062951856798851,-0.2334675818012632,-0.2470628509983841,0.6209668394977937,-0.6389498710632324,0.7618094682693481,0.1067200005054474,0,0,0,-1,-1,28295.084453125,unknown,2,2025-04-22T11:23:21.875+03:00,2025-04-21T17:08:51.449+03:00,7165,0.9502622,0,0,5982.688,5,20,2025-04-22T11:23:19.296+03:00,767003012.2848356,0,-21.05,100.4553,1,0.9,2025-04-22T11:21:43.022+03:00,78,1.3,2025-04-22T09:54:17.825+03:00,0.02225348692287972,0
2025-04-22T11:23:32.716+03:00,1745310211.420269,40.95223836967934,29.14033012467102,76.57301,-1,-1,-1,-1,44.07244744262695,38.82724410217911,-9999,28305.920527,-0.6365814208984375,0.7666778564453125,0.105316162109375,28305.91045,-1.756828619920774,-1.736548535317848,-0.8659128844325127,-0.001886940677650273,-0.01727144420146942,-0.01851585321128368,0.003642737865447998,0.01443582773208618,0.0006823539733886719,XArbitraryZVertical,-0.7063205848723372,-0.2335911665755863,-0.2470496675460054,0.6208967561999805,-0.6390645503997803,0.7616870999336243,0.1069072037935257,0,0,0,-1,-1,28295.084453125,unknown,2,2025-04-22T11:23:21.875+03:00,2025-04-21T17:08:51.449+03:00,7165,0.9502622,0,0,5982.688,5,20,2025-04-22T11:23:19.296+03:00,767003012.2848356,0,-21.05,100.4553,1,0.9,2025-04-22T11:21:43.022+03:00,78,1.3,2025-04-22T09:54:17.825+03:00,0.02225348692287972,0
2025-04-22T11:23:32.726+03:00,1745310211.420269,40.95223836967934,29.14033012467102,76.57301,-1,-1,-1,-1,44.07244744262695,38.82724410217911,-9999,28305.930603,-0.63421630859375,0.7577667236328125,0.1053314208984375,28305.920527,-1.756770937263395,-1.736714371972898,-0.8657233760812115,0.001158983097411692,-0.02261154726147652,-0.01581417582929134,0.00160062313079834,0.008775532245635986,-0.001629471778869629,XArbitraryZVertical,-0.7063222056500745,-0.2337251621359742,-0.2470348697204975,0.6208503698077135,-0.6391891241073608,0.7615642547607422,0.1070370227098465,0,0,0,-1,-1,28295.084453125,unknown,2,2025-04-22T11:23:21.875+03:00,2025-04-21T17:08:51.449+03:00,7165,0.9502622,0,0,5982.688,5,20,2025-04-22T11:23:19.296+03:00,767003012.2848356,0,-21.05,100.4553,1,0.9,2025-04-22T11:21:43.022+03:00,78,1.3,2025-04-22T09:54:17.825+03:00,0.02225348692287972,0
2025-04-22T11:23:32.736+03:00,1745310211.420269,40.95223836967934,29.14033012467102,76.57301,-1,-1,-1,-1,44.07244744262695,38.82724410217911,-9999,28305.94068,-0.635467529296875,0.7519683837890625,0.1078033447265625,28305.930603,-1.756836533029899,-1.737014607588297,-0.865555877562429,-0.01581786945462227,-0.02524727769196033,-0.01416647899895906,0.004532396793365479,-0.000545799732208252,-0.002040863037109375,XArbitraryZVertical,-0.7063562390163783,-0.2338501184263796,-0.2470037168660648,0.6207769953395081,-0.639282763004303,0.7614557147026062,0.107250027358532,0,0,0,-1,-1,28295.084453125,unknown,2,2025-04-22T11:23:21.875+03:00,2025-04-21T17:08:51.449+03:00,7165,0.9502622,0,0,5982.688,5,20,2025-04-22T11:23:19.296+03:00,767003012.2848356,0,-21.05,100.4553,1,0.9,2025-04-22T11:21:43.022+03:00,78,1.3,2025-04-22T09:54:17.825+03:00,0.02225348692287972,0
2025-04-22T11:23:32.746+03:00,1745310211.420269,40.95223836967934,29.14033012467102,76.57301,-1,-1,-1,-1,44.07244744262695,38.82724410217911,-9999,28305.950756,-0.6404266357421875,0.748626708984375,0.1106414794921875,28305.94068,-1.757121998469505,-1.737505209063978,-0.8653854287106888,-0.02976317889988422,-0.03159725293517113,-0.01276935078203678,0.004912853240966797,-0.007408618927001953,-0.001521468162536621,XArbitraryZVertical,-0.7064393193342331,-0.2339574273972323,-0.2469744959168359,0.6206536237518507,-0.6393580436706543,0.7613452076911926,0.1075851768255234,0,0,0,-1,-1,28295.084453125,unknown,2,2025-04-22T11:23:21.875+03:00,2025-04-21T17:08:51.449+03:00,7165,0.9502622,0,0,5982.688,5,20,2025-04-22T11:23:19.296+03:00,767003012.2848356,0,-21.05,100.4553,1,0.9,2025-04-22T11:21:43.022+03:00,78,1.3,2025-04-22T09:54:17.825+03:00,0.02225348692287972,0
2025-04-22T11:23:32.756+03:00,1745310211.420269,40.95223836967934,29.14033012467102,76.57301,-1,-1,-1,-1,44.07244744262695,38.82724410217911,-9999,28305.960833,-0.6445465087890625,0.7533416748046875,0.1105194091796875,28305.950756,-1.757612250549965,-1.738186124622689,-0.8652149624025663,-0.03959823399782181,-0.02961905673146248,-0.009287800639867783,0.0006796717643737793,-0.01222670078277588,0.001454822719097137,XArbitraryZVertical,-0.7065698884654003,-0.2340513859715544,-0.2469415356834062,0.6204826379942219,-0.639412522315979,0.7612347006797791,0.1080421134829521,0,0,0,-1,-1,28295.084453125,unknown,2,2025-04-22T11:23:21.875+03:00,2025-04-21T17:08:51.449+03:00,7165,0.9502622,0,0,5982.688,5,20,2025-04-22T11:23:19.296+03:00,767003012.2848356,0,-21.05,100.4553,1,0.9,2025-04-22T11:21:43.022+03:00,78,1.3,2025-04-22T09:54:17.825+03:00,0.02225348692287972,0
2025-04-22T11:23:32.766+03:00,1745310211.420269,40.95223836967934,29.14033012467102,76.57301,-1,-1,-1,-1,44.07244744262695,38.82724410217911,-9999,28305.97091,-0.6443328857421875,0.76019287109375,0.10968017578125,28305.960833,-1.758160753770293,-1.738879752989666,-0.8650435094168278,-0.03637208044528961,-0.02593217790126801,-0.008403630927205086,-0.00430220365524292,-0.009536802768707275,0.002606980502605438,XArbitraryZVertical,-0.7067088242616074,-0.2341289196158771,-0.2469223707778214,0.620302726217249,-0.6394660472869873,0.7611234784126282,0.1085074245929718,0,0,0,-1,-1,28295.084453125,unknown,2,2025-04-22T11:23:21.875+03:00,2025-04-21T17:08:51.449+03:00,7165,0.9502622,0,0,5982.688,5,20,2025-04-22T11:23:19.296+03:00,767003012.2848356,0,-21.05,100.4553,1,0.9,2025-04-22T11:21:43.022+03:00,78,1.3,2025-04-22T09:54:17.825+03:00,0.02225348692287972,0
2025-04-22T11:23:32.777+03:00,1745310211.420269,40.95223836967934,29.14033012467102,76.57301,-1,-1,-1,-1,44.07244744262695,38.82724410217911,-9999,28305.980986,-0.6409912109375,0.7736663818359375,0.1077117919921875,28305.97091,-1.758565700152197,-1.739410632928869,-0.8649022359562369,-0.02166876941919327,-0.02378220669925213,-0.01147292368113995,-0.004711627960205078,-0.003524661064147949,0.0005861520767211914,XArbitraryZVertical,-0.7068128057721967,-0.2341967840495991,-0.2469063472999257,0.6201650452229588,-0.6395144462585449,0.7610318660736084,0.1088649556040764,0,0,0,-1,-1,28295.084453125,unknown,2,2025-04-22T11:23:21.875+03:00,2025-04-21T17:08:51.449+03:00,7165,0.9502622,0,0,5982.688,5,20,2025-04-22T11:23:19.296+03:00,767003012.2848356,0,-21.05,100.4553,1,0.9,2025-04-22T11:21:43.022+03:00,78,1.3,2025-04-22T09:54:17.825+03:00,0.02225348692287972,0
2025-04-22T11:23:32.787+03:00,1745310211.420269,40.95223836967934,29.14033012467102,76.57301,-1,-1,-1,-1,44.07244744262695,38.82724410217911,-9999,28305.991063,-0.6361541748046875,0.7747039794921875,0.107147216796875,28305.980986,-1.758710271328358,-1.739753251189678,-0.8648015674987924,-0.004631128627806902,-0.02196826227009296,-0.01484431978315115,-0.002705037593841553,0.007450640201568604,-0.001339554786682129,XArbitraryZVertical,-0.7068656489502236,-0.2342849299464236,-0.2468628581223162,0.6200888623690126,-0.6395527124404907,0.7609665393829346,0.1090969517827034,0,0,0,-1,-1,28295.084453125,unknown,2,2025-04-22T11:23:21.875+03:00,2025-04-21T17:08:51.449+03:00,7165,0.9502622,0,0,5982.688,5,20,2025-04-22T11:23:19.296+03:00,767003012.2848356,0,-21.05,100.4553,1,0.9,2025-04-22T11:21:43.022+03:00,78,1.3,2025-04-22T09:54:17.825+03:00,0.02225348692287972,0
2025-04-22T11:23:32.797+03:00,1745310211.420269,40.95223836967934,29.14033012467102,76.57301,-1,-1,-1,-1,44.07244744262695,38.82724410217911,-9999,28306.00114,-0.63751220703125,0.7696075439453125,0.104248046875,28305.991063,-1.75868395712856,-1.739961267993747,-0.8646879040374408,0.0008904034039005637,-0.0213346965610981,-0.0225917212665081,0.001996159553527832,0.01568782329559326,-0.002021081745624542,XArbitraryZVertical,-0.7068810429931877,-0.2343959451539773,-0.2468181396169918,0.6200471348956261,-0.6396151781082153,0.7608928084373474,0.1092445328831673,0,0,0,-1,-1,28295.084453125,unknown,2,2025-04-22T11:23:21.875+03:00,2025-04-21T17:08:51.449+03:00,7165,0.9502622,0,0,5982.688,5,20,2025-04-22T11:23:19.296+03:00,767003012.2848356,0,-21.05,100.4553,1,0.9,2025-04-22T11:21:43.022+03:00,78,1.3,2025-04-22T09:54:17.825+03:00,0.02225348692287972,0
2025-04-22T11:23:32.807+03:00,1745310211.420269,40.95223836967934,29.14033012467102,76.57301,-1,-1,-1,-1,44.07244744262695,38.82724410217911,-9999,28306.011216,-0.6409454345703125,0.7657928466796875,0.1030120849609375,28306.00114,-1.758537260109813,-1.740028276596227,-0.8645123396003648,0.006382041145116091,-0.01549871172755957,-0.02146097645163536,0.003097116947174072,0.01001870632171631,-0.002986788749694824,XArbitraryZVertical,-0.7068609893862512,-0.2345261042680774,-0.2468061156290618,0.620025594724038,-0.6397396326065063,0.7607788443565369,0.1093099042773247,0,0,0,-1,-1,28295.084453125,unknown,2,2025-04-22T11:23:21.875+03:00,2025-04-21T17:08:51.449+03:00,7165,0.9502622,0,0,5982.688,5,20,2025-04-22T11:23:19.296+03:00,767003012.2848356,0,-21.05,100.4553,1,0.9,2025-04-22T11:21:43.022+03:00,78,1.3,2025-04-22T09:54:17.825+03:00,0.02225348692287972,0
2025-04-22T11:23:32.817+03:00,1745310211.420269,40.95223836967934,29.14033012467102,76.57301,-1,-1,-1,-1,44.07244744262695,38.82724410217911,-9999,28306.021293,-0.644073486328125,0.75146484375,0.1092987060546875,28306.011216,-1.758404152590648,-1.740117470765024,-0.8643299653782762,-0.0008449789602309465,-0.02333452925086021,-0.02199414186179638,-2.598762512207031e-05,0.008077263832092285,-0.007400736212730408,XArbitraryZVertical,-0.7068448169664988,-0.2346605717015528,-0.2467926909452796,0.6199985402335951,-0.6398667097091675,0.7606604695320129,0.1093903556466103,0,0,0,-1,-1,28295.084453125,unknown,2,2025-04-22T11:23:21.875+03:00,2025-04-21T17:08:51.449+03:00,7165,0.9502622,0,0,5982.688,5,20,2025-04-22T11:23:19.296+03:00,767003012.2848356,0,-21.05,100.4553,1,0.9,2025-04-22T11:21:43.022+03:00,78,1.3,2025-04-22T09:54:17.825+03:00,0.02225348692287972,0
2025-04-22T11:23:32.827+03:00,1745310211.420269,40.95223836967934,29.14033012467102,76.57301,-1,-1,-1,-1,44.07244744262695,38.82724410217911,-9999,28306.031369,-0.6414031982421875,0.742767333984375,0.10931396484375,28306.021293,-1.758499764140084,-1.740431855642314,-0.8641225803415912,-0.02187269926071167,-0.02635102719068527,-0.01463725883513689,-0.003094077110290527,-0.002820312976837158,-0.002471089363098145,XArbitraryZVertical,-0.7068816888927235,-0.2347921245715257,-0.2467786459923248,0.6199122286651302,-0.6399876475334167,0.7605258226394653,0.1096181273460388,0,0,0,-1,-1,28295.084453125,unknown,2,2025-04-22T11:23:21.875+03:00,2025-04-21T17:08:51.449+03:00,7165,0.9502622,0,0,5982.688,5,20,2025-04-22T11:23:19.296+03:00,767003012.2848356,0,-21.05,100.4553,1,0.9,2025-04-22T11:21:43.022+03:00,78,1.3,2025-04-22T09:54:17.825+03:00,0.02225348692287972,0
2025-04-22T11:23:32.837+03:00,1745310211.420269,40.95223836967934,29.14033012467102,76.57301,-1,-1,-1,-1,44.07244744262695,38.82724410217911,-9999,28306.041446,-0.6456451416015625,0.748046875,0.10968017578125,28306.031369,-1.75890753284644,-1.740998768962075,-0.86391168775377,-0.03391098603606224,-0.02383860014379025,-0.00988298375159502,-0.002479374408721924,-0.01585167646408081,-0.00048065185546875,XArbitraryZVertical,-0.7069861638191054,-0.2348927699225272,-0.2467732532791866,0.619757104818811,-0.6400834918022156,0.7603889107704163,0.1100080981850624,0,0,0,-1,-1,28295.084453125,unknown,2,2025-04-22T11:23:21.875+03:00,2025-04-21T17:08:51.449+03:00,7165,0.9502622,0,0,5982.688,5,20,2025-04-22T11:23:19.296+03:00,767003012.2848356,0,-21.05,100.4553,1,0.9,2025-04-22T11:21:43.022+03:00,78,1.3,2025-04-22T09:54:17.825+03:00,0.02225348692287972,0
2025-04-22T11:23:32.847+03:00,1745310211.420269,40.95223836967934,29.14033012467102,76.57301,-1,-1,-1,-1,44.07244744262695,38.82724410217911,-9999,28306.051523,-0.6488189697265625,0.757171630859375,0.112030029296875,28306.041446,-1.759357611489924,-1.741533320853119,-0.8637291248664666,-0.02833845466375351,-0.01464683189988136,-0.006567548029124737,-0.002538859844207764,-0.01571768522262573,-0.0008921325206756592,XArbitraryZVertical,-0.7070934438453848,-0.2349591193481577,-0.2467831678938626,0.6196056743643289,-0.6401615142822266,0.7602702975273132,0.110373854637146,0,0,0,-1,-1,28295.084453125,unknown,2,2025-04-22T11:23:21.875+03:00,2025-04-21T17:08:51.449+03:00,7165,0.9502622,0,0,5982.688,5,20,2025-04-22T11:23:19.296+03:00,767003012.2848356,0,-21.05,100.4553,1,0.9,2025-04-22T11:21:43.022+03:00,78,1.3,2025-04-22T09:54:17.825+03:00,0.02225348692287972,0
2025-04-22T11:23:32.857+03:00,1745310211.420269,40.95223836967934,29.14033012467102,76.57301,-1,-1,-1,-1,44.07244744262695,38.82724410217911,-9999,28306.061599,-0.64288330078125,0.767181396484375,0.1139984130859375,28306.051523,-1.75962193317493,-1.741833945135613,-0.8636298602627147,-0.007170851808041334,-0.00604242505505681,-0.002213279483839869,-0.00823509693145752,-0.006223440170288086,0.0003826618194580078,XArbitraryZVertical,-0.7071553424124428,-0.2349912143371727,-0.2467909644811954,0.619519634673852,-0.6402024626731873,0.7602058053016663,0.1105790957808495,0,0,0,-1,-1,28295.084453125,unknown,2,2025-04-22T11:23:21.875+03:00,2025-04-21T17:08:51.449+03:00,7165,0.9502622,0,0,5982.688,5,20,2025-04-22T11:23:19.296+03:00,767003012.2848356,0,-21.05,100.4553,1,0.9,2025-04-22T11:21:43.022+03:00,78,1.3,2025-04-22T09:54:17.825+03:00,0.02225348692287972,0
2025-04-22T11:23:32.867+03:00,1745310211.420269,40.95223836967934,29.14033012467102,76.57301,-1,-1,-1,-1,44.07244744262695,38.82724410217911,-9999,28306.071676,-0.6387176513671875,0.7740325927734375,0.1090545654296875,28306.061599,-1.759605757558045,-1.741862403448494,-0.8636205797640223,0.006268523633480072,-0.0002074395306408405,-0.004092272836714983,-0.005545735359191895,0.002968370914459229,0.00343024730682373,XArbitraryZVertical,-0.7071563670093275,-0.2350087947567469,-0.2467789174659048,0.6195166057425896,-0.6402062773704529,0.7601997852325439,0.1105985194444656,0,0,0,-1,-1,28295.084453125,unknown,2,2025-04-22T11:23:21.875+03:00,2025-04-21T17:08:51.449+03:00,7165,0.9502622,0,0,5982.688,5,20,2025-04-22T11:23:19.296+03:00,767003012.2848356,0,-21.05,100.4553,1,0.9,2025-04-22T11:21:43.022+03:00,78,1.3,2025-04-22T09:54:17.825+03:00,0.02225348692287972,0
2025-04-22T11:23:32.890+03:00,1745310211.420269,40.95223836967934,29.14033012467102,76.57301,-1,-1,-1,-1,44.07244744262695,38.82724410217911,-9999,28306.081753,-0.635467529296875,0.7720947265625,0.10052490234375,28306.071676,-1.759393670264469,-1.741664663019076,-0.8636731183412074,0.01326438225805759,0.00291857891716063,-0.004829968325793743,0.000143587589263916,0.01187592744827271,0.001396894454956055,XArbitraryZVertical,-0.7071103604084779,-0.2350053359006672,-0.246766055965663,0.6195755669946135,-0.6401888132095337,0.7602339386940002,0.1104651391506195,0,0,0,-1,-1,28295.084453125,unknown,2,2025-04-22T11:23:21.875+03:00,2025-04-21T17:08:51.449+03:00,7165,0.9502622,0,0,5982.688,5,20,2025-04-22T11:23:19.296+03:00,767003012.2848356,0,-21.05,100.4553,1,0.9,2025-04-22T11:21:43.022+03:00,78,1.3,2025-04-22T09:54:17.825+03:00,0.02225348692287972,0
2025-04-22T11:23:32.894+03:00,1745310211.420269,40.95223836967934,29.14033012467102,76.57301,-1,-1,-1,-1,44.07244744262695,38.82724410217911,-9999,28306.091829,-0.63006591796875,0.7610626220703125,0.1046905517578125,28306.081753,-1.75923373736498,-1.741545522492189,-0.8636817097578681,0.003484122455120087,-0.005776708014309406,-0.008743383921682835,0.00344616174697876,0.01408284902572632,-0.007848858833312988,XArbitraryZVertical,-0.707077414288357,-0.2350221289725582,-0.2467558079766711,0.6196108371883822,-0.6401954293251038,0.7602394819259644,0.1103877425193787,0,0,0,-1,-1,28295.084453125,unknown,2,2025-04-22T11:23:21.875+03:00,2025-04-21T17:08:51.449+03:00,7165,0.9502622,0,0,5982.688,5,20,2025-04-22T11:23:19.296+03:00,767003012.2848356,0,-21.05,100.4553,1,0.9,2025-04-22T11:21:43.022+03:00,78,1.3,2025-04-22T09:54:17.825+03:00,0.02225348692287972,0
2025-04-22T11:23:32.898+03:00,1745310211.420269,40.95223836967934,29.14033012467102,76.57301,-1,-1,-1,-1,44.07244744262695,38.82724410217911,-9999,28306.101906,-0.6296844482421875,0.7559051513671875,0.111968994140625,28306.091829,-1.75916395681115,-1.741570922903455,-0.8636454430153327,-0.006382090505212545,-0.01506395079195499,-0.008275466039776802,0.007849931716918945,0.004417181015014648,-0.008525833487510681,XArbitraryZVertical,-0.7070700457062925,-0.2350666139265884,-0.2467370778985113,0.6196099310436708,-0.6402199864387512,0.7602159380912781,0.1104087233543396,0,0,0,-1,-1,28295.084453125,unknown,2,2025-04-22T11:23:21.875+03:00,2025-04-21T17:08:51.449+03:00,7165,0.9502622,0,0,5982.688,5,20,2025-04-22T11:23:19.296+03:00,767003012.2848356,0,-21.05,100.4553,1,0.9,2025-04-22T11:21:43.022+03:00,78,1.3,2025-04-22T09:54:17.825+03:00,0.02225348692287972,0
2025-04-22T11:23:32.908+03:00,1745310211.420269,40.95223836967934,29.14033012467102,76.57301,-1,-1,-1,-1,44.07244744262695,38.82724410217911,-9999,28306.111982,-0.637237548828125,0.7509307861328125,0.1122589111328125,28306.101906,-1.759266815988227,-1.7418027584112,-0.8635528713621723,-0.01104961335659027,-0.01748829334974289,-0.005064792931079865,0.01146405935287476,-0.002740263938903809,-0.001041539013385773,XArbitraryZVertical,-0.7071049027023184,-0.2351322975910696,-0.2467170075307907,0.6195531042557465,-0.6402634978294373,0.7601557970046997,0.1105690822005272,0,0,0,-1,-1,28295.084453125,unknown,2,2025-04-22T11:23:21.875+03:00,2025-04-21T17:08:51.449+03:00,7165,0.9502622,0,0,5982.688,5,20,2025-04-22T11:23:19.296+03:00,767003012.2848356,0,-21.05,100.4553,1,0.9,2025-04-22T11:21:43.022+03:00,78,1.3,2025-04-22T09:54:17.825+03:00,0.02225348692287972,0
2025-04-22T11:23:32.918+03:00,1745310211.420269,40.95223836967934,29.14033012467102,76.57301,-1,-1,-1,-1,44.07244744262695,38.82724410217911,-9999,28306.122059,-0.641448974609375,0.7490692138671875,0.1116943359375,28306.111982,-1.759508239888525,-1.742166893811738,-0.863413223022526,-0.02007959224283695,-0.01680545881390572,-0.003298584371805191,0.006309986114501953,-0.006982803344726562,0.00168253481388092,XArbitraryZVertical,-0.707169385590383,-0.2352055258101335,-0.246708541992154,0.6194551837435235,-0.640328049659729,0.7600650787353516,0.110820360481739,0,0,0,-1,-1,28295.084453125,unknown,2,2025-04-22T11:23:21.875+03:00,2025-04-21T17:08:51.449+03:00,7165,0.9502622,0,0,5982.688,5,20,2025-04-22T11:23:19.296+03:00,767003012.2848356,0,-21.05,100.4553,1,0.9,2025-04-22T11:21:43.022+03:00,78,1.3,2025-04-22T09:54:17.825+03:00,0.02225348692287972,0
2025-04-22T11:23:32.928+03:00,1745310211.420269,40.95223836967934,29.14033012467102,76.57301,-1,-1,-1,-1,44.07244744262695,38.82724410217911,-9999,28306.132136,-0.6431121826171875,0.75640869140625,0.1119842529296875,28306.122059,-1.75979771514953,-1.742562101541066,-0.8632915571348541,-0.01792416349053383,-0.02103815227746964,-0.002459089271724224,0.0004521012306213379,-0.01215291023254395,0.0004372596740722656,XArbitraryZVertical,-0.7072445187668472,-0.2352653693220779,-0.2466979947935275,0.6193508435378757,-0.6403751969337463,0.7599859833717346,0.1110892072319984,0,0,0,-1,-1,28295.084453125,unknown,2,2025-04-22T11:23:21.875+03:00,2025-04-21T17:08:51.449+03:00,7165,0.9502622,0,0,5982.688,5,20,2025-04-22T11:23:19.296+03:00,767003012.2848356,0,-21.05,100.4553,1,0.9,2025-04-22T11:21:43.022+03:00,78,1.3,2025-04-22T09:54:17.825+03:00,0.02225348692287972,0
2025-04-22T11:23:32.938+03:00,1745310211.420269,40.95223836967934,29.14033012467102,76.57301,-1,-1,-1,-1,44.07244744262695,38.82724410217911,-9999,28306.142212,-0.6444854736328125,0.7589263916015625,0.1085205078125,28306.132136,-1.760013674441559,-1.742900984065416,-0.8631915686953561,-0.01329585630446672,-0.01740213856101036,-0.001523520797491074,-0.001250326633453369,-0.00657951831817627,0.0005428716540336609,XArbitraryZVertical,-0.7073054380811934,-0.2353266239401101,-0.2466775046791111,0.6192661050091167,-0.6404122710227966,0.7599210143089294,0.1113192066550255,0,0,0,-1,-1,28295.084453125,unknown,2,2025-04-22T11:23:21.875+03:00,2025-04-21T17:08:51.449+03:00,7165,0.9502622,0,0,5982.688,5,20,2025-04-22T11:23:19.296+03:00,767003012.2848356,0,-21.05,100.4553,1,0.9,2025-04-22T11:21:43.022+03:00,78,1.3,2025-04-22T09:54:17.825+03:00,0.02225348692287972,0
2025-04-22T11:23:32.948+03:00,1745310211.420269,40.95223836967934,29.14033012467102,76.57301,-1,-1,-1,-1,44.07244744262695,38.82724410217911,-9999,28306.152289,-0.6414031982421875,0.7589569091796875,0.1045074462890625,28306.142212,-1.760190043584458,-1.743208835924259,-0.863130848159499,-0.0107833631336689,-0.01682016998529434,-0.003895564936101437,-0.003176867961883545,-0.001306116580963135,-0.002256140112876892,XArbitraryZVertical,-0.7073603335158708,-0.2353794996666894,-0.2466430441568257,0.6191971185656471,-0.6404236555099487,0.7598815560340881,0.111524298787117,0,0,0,-1,-1,28295.084453125,unknown,2,2025-04-22T11:23:21.875+03:00,2025-04-21T17:08:51.449+03:00,7165,0.9502622,0,0,5982.688,5,20,2025-04-22T11:23:19.296+03:00,767003012.2848356,0,-21.05,100.4553,1,0.9,2025-04-22T11:21:43.022+03:00,78,1.3,2025-04-22T09:54:17.825+03:00,0.02225348692287972,0
2025-04-22T11:23:32.958+03:00,1745310211.420269,40.95223836967934,29.14033012467102,76.57301,-1,-1,-1,-1,44.07244744262695,38.82724410217911,-9999,28306.162366,-0.6373138427734375,0.763641357421875,0.0983428955078125,28306.152289,-1.760289728829925,-1.743502929962387,-0.8631089979060503,-0.004307354334741831,-0.02647093683481216,-0.007554748561233282,-0.002583086490631104,-0.001246273517608643,-0.00610959529876709,XArbitraryZVertical,-0.7074069639780273,-0.2354424005227774,-0.2465769523723066,0.6191461969670466,-0.6404070258140564,0.7598673105239868,0.1117154732346535,0,0,0,-1,-1,28295.084453125,unknown,2,2025-04-22T11:23:21.875+03:00,2025-04-21T17:08:51.449+03:00,7165,0.9502622,0,0,5982.688,5,20,2025-04-22T11:23:19.296+03:00,767003012.2848356,0,-21.05,100.4553,1,0.9,2025-04-22T11:21:43.022+03:00,78,1.3,2025-04-22T09:54:17.825+03:00,0.02225348692287972,0
2025-04-22T11:23:32.968+03:00,1745310211.420269,40.95223836967934,29.14033012467102,76.57301,-1,-1,-1,-1,44.07244744262695,38.82724410217911,-9999,28306.172442,-0.6326141357421875,0.7713775634765625,0.0937042236328125,28306.162366,-1.760227098125581,-1.743768252268487,-0.8630676137118681,0.0004383317427709699,-0.04018121957778931,-0.01488593220710754,0.0007293820381164551,0.001893460750579834,-0.01032841205596924,XArbitraryZVertical,-0.7074296988407889,-0.2355602155679322,-0.2464771601101484,0.6191151202082052,-0.6404083371162415,0.7598404288291931,0.1118907853960991,0,0,0,-1,-1,28295.084453125,unknown,2,2025-04-22T11:23:21.875+03:00,2025-04-21T17:08:51.449+03:00,7165,0.9502622,0,0,5982.688,5,20,2025-04-22T11:23:19.296+03:00,767003012.2848356,0,-21.05,100.4553,1,0.9,2025-04-22T11:21:43.022+03:00,78,1.3,2025-04-22T09:54:17.825+03:00,0.02225348692287972,0
2025-04-22T11:23:32.978+03:00,1745310211.420269,40.95223836967934,29.14033012467102,76.57301,-1,-1,-1,-1,44.07244744262695,38.82724410217911,-9999,28306.182519,-0.63360595703125,0.7781982421875,0.0899810791015625,28306.172442,-1.759944940583985,-1.743983507718998,-0.8629727715011145,0.02322300709784031,-0.05214973166584969,-0.02227407321333885,0.006376147270202637,0.009004652500152588,-0.01781809329986572,XArbitraryZVertical,-0.7074170225232794,-0.2357576735907966,-0.2463445119000804,0.6191072232156511,-0.6404551863670349,0.7597787380218506,0.1120410487055779,0,0,0,-1,-1,28295.084453125,unknown,2,2025-04-22T11:23:21.875+03:00,2025-04-21T17:08:51.449+03:00,7165,0.9502622,0,0,5982.688,5,20,2025-04-22T11:23:19.296+03:00,767003012.2848356,0,-21.05,100.4553,1,0.9,2025-04-22T11:21:43.022+03:00,78,1.3,2025-04-22T09:54:17.825+03:00,0.02225348692287972,0
2025-04-22T11:23:32.988+03:00,1745310211.420269,40.95223836967934,29.14033012467102,76.57301,-1,-1,-1,-1,44.07244744262695,38.82724410217911,-9999,28306.192595,-0.6397705078125,0.7935943603515625,0.0787353515625,28306.182519,-1.759046021658343,-1.743864471916276,-0.8628309424177661,0.08321011066436768,-0.05860103666782379,-0.03517978638410568,0.007304549217224121,0.01643645763397217,-0.0205375999212265,XArbitraryZVertical,-0.7072873999140555,-0.2360852373223614,-0.2461545449134049,0.6192061706342944,-0.6405748724937439,0.7596865296363831,0.11198341101408,0,0,0,-1,-1,28295.084453125,unknown,2,2025-04-22T11:23:21.875+03:00,2025-04-21T17:08:51.449+03:00,7165,0.9502622,0,0,5982.688,5,20,2025-04-22T11:23:19.296+03:00,767003012.2848356,0,-21.05,100.4553,1,0.9,2025-04-22T11:21:43.022+03:00,78,1.3,2025-04-22T09:54:17.825+03:00,0.02225348692287972,0
2025-04-22T11:23:32.998+03:00,1745310211.420269,40.95223836967934,29.14033012467102,76.57301,-1,-1,-1,-1,44.07244744262695,38.82724410217911,-9999,28306.202672,-0.6511383056640625,0.80364990234375,0.0650177001953125,28306.192595,-1.75728163702873,-1.743157598767774,-0.8626268791308406,0.1340581029653549,-0.06601474434137344,-0.04698291420936584,0.003873944282531738,0.02604478597640991,-0.0287020206451416,XArbitraryZVertical,-0.7069790804174471,-0.2365568377105162,-0.2459243986962144,0.6194695436933212,-0.6408063173294067,0.759553849697113,0.1115571185946465,0,0,0,-1,-1,28295.084453125,unknown,2,2025-04-22T11:23:21.875+03:00,2025-04-21T17:08:51.449+03:00,7165,0.9502622,0,0,5982.688,5,20,2025-04-22T11:23:19.296+03:00,767003012.2848356,0,-21.05,100.4553,1,0.9,2025-04-22T11:21:43.022+03:00,78,1.3,2025-04-22T09:54:17.825+03:00,0.02225348692287972,0
2025-04-22T11:23:33.009+03:00,1745310211.420269,40.95223836967934,29.14033012467102,76.57301,-1,-1,-1,-1,44.07244744262695,38.82724410217911,-9999,28306.212749,-0.661346435546875,0.8026123046875,0.053070068359375,28306.202672,-1.754193726684112,-1.741464195774743,-0.8622366270060142,0.235632598400116,-0.06740498542785645,-0.08795168995857239,-0.004312872886657715,0.04430407285690308,-0.03877544403076172,XArbitraryZVertical,-0.706380268541586,-0.2372509256375865,-0.2456930045089386,0.6199788908882007,-0.6412864923477173,0.7592999339103699,0.110522173345089,0,0,0,-1,-1,28295.084453125,unknown,2,2025-04-22T11:23:21.875+03:00,2025-04-21T17:08:51.449+03:00,7165,0.9502622,0,0,5982.688,5,20,2025-04-22T11:23:19.296+03:00,767003012.2848356,0,-21.05,100.4553,1,0.9,2025-04-22T11:21:43.022+03:00,78,1.3,2025-04-22T09:54:17.825+03:00,0.02225348692287972,0
2025-04-22T11:23:33.018+03:00,1745310211.420269,40.95223836967934,29.14033012467102,76.57301,-1,-1,-1,-1,44.07244744262695,38.82724410217911,-9999,28306.222825,-0.6739959716796875,0.824005126953125,0.0636749267578125,28306.212749,-1.749295139390737,-1.73833485759217,-0.8615201010923493,0.3617109060287476,-0.03367605060338974,-0.1521138995885849,-0.01602250337600708,0.04098629951477051,-0.05346036702394485,XArbitraryZVertical,-0.7053671248910421,-0.2382435017768163,-0.2455112834601137,0.6208230882429933,-0.6421653032302856,0.7588334679603577,0.1086054965853691,0,0,0,-1,-1,28295.084453125,unknown,2,2025-04-22T11:23:21.875+03:00,2025-04-21T17:08:51.449+03:00,7165,0.9502622,0,0,5982.688,5,20,2025-04-22T11:23:19.296+03:00,767003012.2848356,0,-21.05,100.4553,1,0.9,2025-04-22T11:21:43.022+03:00,78,1.3,2025-04-22T09:54:17.825+03:00,0.02225348692287972,0
2025-04-22T11:23:33.028+03:00,1745310211.420269,40.95223836967934,29.14033012467102,76.57301,-1,-1,-1,-1,44.07244744262695,38.82724410217911,-9999,28306.232902,-0.6806182861328125,0.8099517822265625,0.0751495361328125,28306.222825,-1.742553333517952,-1.733363753028896,-0.8609804775668874,0.495827704668045,0.01371543295681477,-0.09924016147851944,-0.02480638027191162,0.05923646688461304,-0.04644203186035156,XArbitraryZVertical,-0.7039163092185695,-0.239250736376584,-0.2453437631975284,0.6221472917828311,-0.6431013345718384,0.7584819197654724,0.1054781675338745,0,0,0,-1,-1,28295.084453125,unknown,2,2025-04-22T11:23:21.875+03:00,2025-04-21T17:08:51.449+03:00,7165,0.9502622,0,0,5982.688,5,20,2025-04-22T11:23:19.296+03:00,767003012.2848356,0,-21.05,100.4553,1,0.9,2025-04-22T11:21:43.022+03:00,78,1.3,2025-04-22T09:54:17.825+03:00,0.02225348692287972,0
2025-04-22T11:23:33.038+03:00,1745310211.420269,40.95223836967934,29.14033012467102,76.57301,-1,-1,-1,-1,44.07244744262695,38.82724410217911,-9999,28306.242979,-0.67236328125,0.801422119140625,0.062042236328125,28306.232902,-1.733697554036412,-1.726120516978509,-0.860827405093343,0.6390562653541565,0.0948057621717453,-0.1073311120271683,-0.0373263955116272,0.06081634759902954,-0.02785253524780273,XArbitraryZVertical,-0.7019560981164684,-0.2401567819735388,-0.2451804970552819,0.6240743931213136,-0.6439632773399353,0.7583821415901184,0.1008352860808372,0,0,0,-1,-1,28295.084453125,unknown,2,2025-04-22T11:23:21.875+03:00,2025-04-21T17:08:51.449+03:00,7165,0.9502622,0,0,5982.688,5,20,2025-04-22T11:23:19.296+03:00,767003012.2848356,0,-21.05,100.4553,1,0.9,2025-04-22T11:21:43.022+03:00,78,1.3,2025-04-22T09:54:17.825+03:00,0.02225348692287972,0
2025-04-22T11:23:33.048+03:00,1745310211.420269,40.95223836967934,29.14033012467102,76.57301,-1,-1,-1,-1,44.07244744262695,38.82724410217911,-9999,28306.253055,-0.6518096923828125,0.8201141357421875,0.0376129150390625,28306.242979,-1.722844194523803,-1.716600486518594,-0.8609402246638488,0.7220584750175476,0.1719250530004501,-0.08354894816875458,-0.0321163535118103,0.04035705327987671,-0.02492475509643555,XArbitraryZVertical,-0.6994919727050533,-0.2409458261161057,-0.2450856091627638,0.6265692881200441,-0.644809365272522,0.7584556937217712,0.094687819480896,0,0,0,-1,-1,28295.084453125,unknown,2,2025-04-22T11:23:21.875+03:00,2025-04-21T17:08:51.449+03:00,7165,0.9502622,0,0,5982.688,5,20,2025-04-22T11:23:19.296+03:00,767003012.2848356,0,-21.05,100.4553,1,0.9,2025-04-22T11:21:43.022+03:00,78,1.3,2025-04-22T09:54:17.825+03:00,0.02225348692287972,0
2025-04-22T11:23:33.059+03:00,1745310211.420269,40.95223836967934,29.14033012467102,76.57301,-1,-1,-1,-1,44.07244744262695,38.82724410217911,-9999,28306.263132,-0.648651123046875,0.7809906005859375,0.0025482177734375,28306.253055,-1.711315747397021,-1.705915447082953,-0.8613962620172964,0.7699607610702515,0.2079139351844788,-0.04575176909565926,-0.01411974430084229,0.05774486064910889,-0.0420156717300415,XArbitraryZVertical,-0.6968267224033496,-0.2414654975891328,-0.2450463776844426,0.6293482011888583,-0.645441472530365,0.7587528228759766,0.08774613589048386,0,0,0,-1,-1,28295.084453125,unknown,2,2025-04-22T11:23:21.875+03:00,2025-04-21T17:08:51.449+03:00,7165,0.9502622,0,0,5982.688,5,20,2025-04-22T11:23:19.296+03:00,767003012.2848356,0,-21.05,100.4553,1,0.9,2025-04-22T11:21:43.022+03:00,78,1.3,2025-04-22T09:54:17.825+03:00,0.02225348692287972,0
2025-04-22T11:23:33.069+03:00,1745310211.420269,40.95223836967934,29.14033012467102,76.57301,-1,-1,-1,-1,44.07244744262695,38.82724410217911,-9999,28306.273208,-0.6564178466796875,0.7941741943359375,-0.05999755859375,28306.263132,-1.698738212430676,-1.694217108277344,-0.8621016719995735,0.8581030964851379,0.2296884655952454,-0.04075434803962708,-0.001415908336639404,0.04198110103607178,-0.0598907396197319,XArbitraryZVertical,-0.6939296625298789,-0.2419163625254588,-0.2449146498250612,0.6324198744940333,-0.6458925008773804,0.7592120766639709,0.08012380450963974,0,0,0,-1,-1,28295.084453125,unknown,2,2025-04-22T11:23:21.875+03:00,2025-04-21T17:08:51.449+03:00,7165,0.9502622,0,0,5982.688,5,20,2025-04-22T11:23:19.296+03:00,767003012.2848356,0,-21.05,100.4553,1,0.9,2025-04-22T11:21:43.022+03:00,78,1.3,2025-04-22T09:54:17.825+03:00,0.02225348692287972,0
2025-04-22T11:23:33.079+03:00,1745310211.420269,40.95223836967934,29.14033012467102,76.57301,-1,-1,-1,-1,44.07244744262695,38.82724410217911,-9999,28306.283285,-0.6790771484375,0.8687744140625,-0.097564697265625,28306.273208,-1.68375485934244,-1.680336802305604,-0.8631617941558695,1.070137023925781,0.2662153244018555,0.02259160205721855,-0.006949424743652344,0.01475650072097778,-0.1102020666003227,XArbitraryZVertical,-0.6905052951284789,-0.2423510357586585,-0.2446182539006961,0.6361056352321373,-0.6461421251296997,0.7599016427993774,0.07106317579746246,0,0,0,-1,-1,28295.084453125,unknown,2,2025-04-22T11:23:21.875+03:00,2025-04-21T17:08:51.449+03:00,7165,0.9502622,0,0,5982.688,5,20,2025-04-22T11:23:19.296+03:00,767003012.2848356,0,-21.05,100.4553,1,0.9,2025-04-22T11:21:43.022+03:00,78,1.3,2025-04-22T09:54:17.825+03:00,0.02225348692287972,0
2025-04-22T11:23:33.089+03:00,1745310211.420269,40.95223836967934,29.14033012467102,76.57301,-1,-1,-1,-1,44.07244744262695,38.82724410217911,-9999,28306.293362,-0.733123779296875,0.858306884765625,-0.1301727294921875,28306.283285,-1.667874327781274,-1.665393575063242,-0.8644623609323283,0.9666182398796082,0.3171371519565582,0.03595737367868423,-0.02165371179580688,0.08332383632659912,-0.1440247297286987,XArbitraryZVertical,-0.6868680299721341,-0.2426224935352305,-0.2442683871666201,0.6400621308504418,-0.6461472511291504,0.7607464194297791,0.06130672991275787,0,0,0,-1,-1,28295.084453125,unknown,2,2025-04-22T11:23:21.875+03:00,2025-04-21T17:08:51.449+03:00,7165,0.9502622,0,0,5982.688,5,20,2025-04-22T11:23:19.296+03:00,767003012.2848356,0,-21.05,100.4553,1,0.9,2025-04-22T11:21:43.022+03:00,78,1.3,2025-04-22T09:54:17.825+03:00,0.02225348692287972,0
2025-04-22T11:23:33.099+03:00,1745310211.420269,40.95223836967934,29.14033012467102,76.57301,-1,-1,-1,-1,44.07244744262695,38.82724410217911,-9999,28306.303438,-0.746185302734375,0.78424072265625,-0.1657867431640625,28306.293362,-1.654540145003699,-1.651809056829598,-0.8659404245906389,0.7714554071426392,0.3552046418190002,0.1081380993127823,-0.06559640169143677,0.1164381504058838,-0.1724585294723511,XArbitraryZVertical,-0.6837295059465336,-0.2423433593716542,-0.244155834891776,0.6435615304903699,-0.6457988023757935,0.7617049217224121,0.05243268236517906,0,0,0,-1,-1,28295.084453125,unknown,2,2025-04-22T11:23:21.875+03:00,2025-04-21T17:08:51.449+03:00,7165,0.9502622,0,0,5982.688,5,20,2025-04-22T11:23:19.296+03:00,767003012.2848356,0,-21.05,100.4553,1,0.9,2025-04-22T11:21:43.022+03:00,78,1.3,2025-04-22T09:54:17.825+03:00,0.02225348692287972,0
2025-04-22T11:23:33.109+03:00,1745310211.420269,40.95223836967934,29.14033012467102,76.57301,-1,-1,-1,-1,44.07244744262695,38.82724410217911,-9999,28306.313515,-0.6998443603515625,0.8002777099609375,-0.2290802001953125,28306.303438,-1.643386020072154,-1.639782139323506,-0.8679584030787131,0.6891058087348938,0.3310768604278564,0.174801766872406,-0.1068304777145386,0.04320228099822998,-0.1929022073745728,XArbitraryZVertical,-0.6811069345715851,-0.2416016879215387,-0.2439942744470364,0.6466750531571607,-0.6448479294776917,0.7630108594894409,0.04455606266856194,0,0,0,-1,-1,28295.084453125,unknown,2,2025-04-22T11:23:21.875+03:00,2025-04-21T17:08:51.449+03:00,7165,0.9502622,0,0,5982.688,5,20,2025-04-22T11:23:19.296+03:00,767003012.2848356,0,-21.05,100.4553,1,0.9,2025-04-22T11:21:43.022+03:00,78,1.3,2025-04-22T09:54:17.825+03:00,0.02225348692287972,0
2025-04-22T11:23:33.119+03:00,1745310211.420269,40.95223836967934,29.14033012467102,76.57301,-1,-1,-1,-1,44.07244744262695,38.82724410217911,-9999,28306.323592,-0.6916656494140625,0.7984466552734375,-0.2621307373046875,28306.313515,-1.633546131921661,-1.629546875215224,-0.8702357533070115,0.5957306027412415,0.233313575387001,0.19904425740242,-0.07373589277267456,0.02232307195663452,-0.2412359714508057,XArbitraryZVertical,-0.6788995749687267,-0.2408757635351257,-0.2435319433102728,0.6494353906431823,-0.6435339450836182,0.7644809484481812,0.03785153105854988,0,0,0,-1,-1,28295.084453125,unknown,2,2025-04-22T11:23:21.875+03:00,2025-04-21T17:08:51.449+03:00,7165,0.9502622,0,0,5982.688,5,20,2025-04-22T11:23:19.296+03:00,767003012.2848356,0,-21.05,100.4553,1,0.9,2025-04-22T11:21:43.022+03:00,78,1.3,2025-04-22T09:54:17.825+03:00,0.02225348692287972,0
2025-04-22T11:23:33.130+03:00,1745310211.420269,40.95223836967934,29.14033012467102,76.57301,-1,-1,-1,-1,44.07244744262695,38.82724410217911,-9999,28306.333668,-0.7143707275390625,0.790130615234375,-0.2581634521484375,28306.323592,-1.625546453833282,-1.621310628316891,-0.8727543041713788,0.4581642746925354,0.1812698841094971,0.2463875710964203,-0.04540270566940308,0.0411946177482605,-0.2911654710769653,XArbitraryZVertical,-0.6771937666650846,-0.2400727934280737,-0.2428873866423827,0.6517509716637268,-0.6418989896774292,0.7661020755767822,0.03245268762111664,0,0,0,-1,-1,28295.084453125,unknown,2,2025-04-22T11:23:21.875+03:00,2025-04-21T17:08:51.449+03:00,7165,0.9502622,0,0,5982.688,5,20,2025-04-22T11:23:19.296+03:00,767003012.2848356,0,-21.05,100.4553,1,0.9,2025-04-22T11:21:43.022+03:00,78,1.3,2025-04-22T09:54:17.825+03:00,0.02225348692287972,0
2025-04-22T11:23:33.140+03:00,1745310211.420269,40.95223836967934,29.14033012467102,76.57301,-1,-1,-1,-1,44.07244744262695,38.82724410217911,-9999,28306.343745,-0.713775634765625,0.815765380859375,-0.2722015380859375,28306.333668,-1.618856015453073,-1.614771057050911,-0.8756225302693366,0.432526558637619,0.09289340674877167,0.2732871174812317,-0.06832176446914673,0.01858711242675781,-0.2852072715759277,XArbitraryZVertical,-0.6758984559419418,-0.239248957412058,-0.2419647175099026,0.6537387372682527,-0.6398997902870178,0.7679423689842224,0.02815757319331169,0,0,0,-1,-1,28295.084453125,unknown,2,2025-04-22T11:23:21.875+03:00,2025-04-21T17:08:51.449+03:00,7165,0.9502622,0,0,5982.688,5,20,2025-04-22T11:23:19.296+03:00,767003012.2848356,0,-21.05,100.4553,1,0.9,2025-04-22T11:21:43.022+03:00,78,1.3,2025-04-22T09:54:17.825+03:00,0.02225348692287972,0
2025-04-22T11:23:33.149+03:00,1745310211.420269,40.95223836967934,29.14033012467102,76.57301,-1,-1,-1,-1,44.07244744262695,38.82724410217911,-9999,28306.353822,-0.7294158935546875,0.81622314453125,-0.2697601318359375,28306.343745,-1.612321738611649,-1.609132032057496,-0.8784459239030777,0.4132967591285706,0.03470926359295845,0.2545323371887207,-0.07748353481292725,0.03826600313186646,-0.2917081117630005,XArbitraryZVertical,-0.6747362129587124,-0.2386709200007729,-0.2407925821564666,0.6555807472926156,-0.6378790736198425,0.769747793674469,0.02446553111076355,0,0,0,-1,-1,28295.084453125,unknown,2,2025-04-22T11:23:21.875+03:00,2025-04-21T17:08:51.449+03:00,7165,0.9502622,0,0,5982.688,5,20,2025-04-22T11:23:19.296+03:00,767003012.2848356,0,-21.05,100.4553,1,0.9,2025-04-22T11:21:43.022+03:00,78,1.3,2025-04-22T09:54:17.825+03:00,0.02225348692287972,0
2025-04-22T11:23:33.160+03:00,1745310211.420269,40.95223836967934,29.14033012467102,76.57301,-1,-1,-1,-1,44.07244744262695,38.82724410217911,-9999,28306.363898,-0.72039794921875,0.812713623046875,-0.2617034912109375,28306.353822,-1.606439099720961,-1.604548365013684,-0.8811140782890636,0.3413842022418976,-0.03322611004114151,0.2456555068492889,-0.08559739589691162,0.04692637920379639,-0.2939789295196533,XArbitraryZVertical,-0.6737707583208414,-0.2382624716975801,-0.2395207154342641,0.6571863064159619,-0.6359297633171082,0.7714482545852661,0.02147207967936993,0,0,0,-1,-1,28295.084453125,unknown,2,2025-04-22T11:23:21.875+03:00,2025-04-21T17:08:51.449+03:00,7165,0.9502622,0,0,5982.688,5,20,2025-04-22T11:23:19.296+03:00,767003012.2848356,0,-21.05,100.4553,1,0.9,2025-04-22T11:21:43.022+03:00,78,1.3,2025-04-22T09:54:17.825+03:00,0.02225348692287972,0
2025-04-22T11:23:33.170+03:00,1745310211.420269,40.95223836967934,29.14033012467102,76.57301,-1,-1,-1,-1,44.07244744262695,38.82724410217911,-9999,28306.373975,-0.666229248046875,0.8358154296875,-0.2651214599609375,28306.363898,-1.601720092259838,-1.60185655741602,-0.8834979071462713,0.2715722322463989,-0.1639453768730164,0.2082454860210419,-0.09740686416625977,0.03872841596603394,-0.2830545902252197,XArbitraryZVertical,-0.6731456571920625,-0.2381731377044324,-0.2380822842153133,0.6583808828181625,-0.6341453790664673,0.7729628682136536,0.01970303803682327,0,0,0,-1,-1,28295.084453125,unknown,2,2025-04-22T11:23:21.875+03:00,2025-04-21T17:08:51.449+03:00,7165,0.9502622,0,0,5982.688,5,20,2025-04-22T11:23:19.296+03:00,767003012.2848356,0,-21.05,100.4553,1,0.9,2025-04-22T11:21:43.022+03:00,78,1.3,2025-04-22T09:54:17.825+03:00,0.02225348692287972,0
2025-04-22T11:23:33.180+03:00,1745310211.420269,40.95223836967934,29.14033012467102,76.57301,-1,-1,-1,-1,44.07244744262695,38.82724410217911,-9999,28306.384052,-0.6385498046875,0.88763427734375,-0.275726318359375,28306.373975,-1.597628623155094,-1.601043612661355,-0.8855440508191758,0.263460248708725,-0.3022686243057251,0.1860802620649338,-0.05470746755599976,0.04786884784698486,-0.2811636924743652,XArbitraryZVertical,-0.6727846830503426,-0.2386013143204132,-0.2363269096774914,0.6592266880571851,-0.63257896900177,0.7742593884468079,0.01913963444530964,0,0,0,-1,-1,28295.084453125,unknown,2,2025-04-22T11:23:21.875+03:00,2025-04-21T17:08:51.449+03:00,7165,0.9502622,0,0,5982.688,5,20,2025-04-22T11:23:19.296+03:00,767003012.2848356,0,-21.05,100.4553,1,0.9,2025-04-22T11:21:43.022+03:00,78,1.3,2025-04-22T09:54:17.825+03:00,0.02225348692287972,0
2025-04-22T11:23:33.190+03:00,1745310211.420269,40.95223836967934,29.14033012467102,76.57301,-1,-1,-1,-1,44.07244744262695,38.82724410217911,-9999,28306.394128,-0.653076171875,0.926055908203125,-0.2686614990234375,28306.384052,-1.593178155753597,-1.601085221152113,-0.8875011504474349,0.3105654418468475,-0.3809346854686737,0.187104657292366,-0.0125536322593689,0.09146195650100708,-0.2907876968383789,XArbitraryZVertical,-0.6724719604835876,-0.2394607974273448,-0.2341928175561999,0.6599951871140902,-0.6310621500015259,0.7754965424537659,0.01912002265453339,0,0,0,-1,-1,28295.084453125,unknown,2,2025-04-22T11:23:21.875+03:00,2025-04-21T17:08:51.449+03:00,7165,0.9502622,0,0,5982.688,5,20,2025-04-22T11:23:19.296+03:00,767003012.2848356,0,-21.05,100.4553,1,0.9,2025-04-22T11:21:43.022+03:00,78,1.3,2025-04-22T09:54:17.825+03:00,0.02225348692287972,0
2025-04-22T11:23:33.200+03:00,1745310211.420269,40.95223836967934,29.14033012467102,76.57301,-1,-1,-1,-1,44.07244744262695,38.82724410217911,-9999,28306.404205,-0.6735687255859375,0.917449951171875,-0.2285308837890625,28306.394128,-1.588028992983395,-1.601115319660516,-0.8895348142679815,0.3411348164081573,-0.4179933667182922,0.2003280520439148,-0.01442176103591919,0.1398927569389343,-0.2939783334732056,XArbitraryZVertical,-0.6720811581978365,-0.2405254681848386,-0.2318037641639702,0.6608489740671922,-0.6294838786125183,0.7767788767814636,0.01909116841852665,0,0,0,-1,-1,28295.084453125,unknown,2,2025-04-22T11:23:21.875+03:00,2025-04-21T17:08:51.449+03:00,7165,0.9502622,0,0,5982.688,5,20,2025-04-22T11:23:19.296+03:00,767003012.2848356,0,-21.05,100.4553,1,0.9,2025-04-22T11:21:43.022+03:00,78,1.3,2025-04-22T09:54:17.825+03:00,0.02225348692287972,0
2025-04-22T11:23:33.210+03:00,1745310211.420269,40.95223836967934,29.14033012467102,76.57301,-1,-1,-1,-1,44.07244744262695,38.82724410217911,-9999,28306.414281,-0.6582183837890625,0.8729095458984375,-0.1669769287109375,28306.404205,-1.582637297586791,-1.601440037633928,-0.8917743155569754,0.3373379409313202,-0.4851886332035065,0.2261524498462677,-0.04094862937927246,0.1488298773765564,-0.265870213508606,XArbitraryZVertical,-0.6717158670966525,-0.2417000337513129,-0.2291636148993386,0.6617120792892324,-0.6277373433113098,0.7781872749328613,0.01924222521483898,0,0,0,-1,-1,28295.084453125,unknown,2,2025-04-22T11:23:21.875+03:00,2025-04-21T17:08:51.449+03:00,7165,0.9502622,0,0,5982.688,5,20,2025-04-22T11:23:19.296+03:00,767003012.2848356,0,-21.05,100.4553,1,0.9,2025-04-22T11:21:43.022+03:00,78,1.3,2025-04-22T09:54:17.825+03:00,0.02225348692287972,0
2025-04-22T11:23:33.220+03:00,1745310211.420269,40.95223836967934,29.14033012467102,76.57301,-1,-1,-1,-1,44.07244744262695,38.82724410217911,-9999,28306.424358,-0.6295623779296875,0.8279571533203125,-0.103759765625,28306.414281,-1.577849603149205,-1.603044028168262,-0.8943071944661661,0.2627331912517548,-0.5764951705932617,0.2627280354499817,-0.04307436943054199,0.1114292740821838,-0.2123395204544067,XArbitraryZVertical,-0.6715987175884794,-0.2429977323835988,-0.2261924589036364,0.6623777093051264,-0.6257336735725403,0.7797755599021912,0.02018547058105469,0,0,0,-1,-1,28295.084453125,unknown,2,2025-04-22T11:23:21.875+03:00,2025-04-21T17:08:51.449+03:00,7165,0.9502622,0,0,5982.688,5,20,2025-04-22T11:23:19.296+03:00,767003012.2848356,0,-21.05,100.4553,1,0.9,2025-04-22T11:21:43.022+03:00,78,1.3,2025-04-22T09:54:17.825+03:00,0.02225348692287972,0
2025-04-22T11:23:33.230+03:00,1745310211.420269,40.95223836967934,29.14033012467102,76.57301,-1,-1,-1,-1,44.07244744262695,38.82724410217911,-9999,28306.434435,-0.6319122314453125,0.7950439453125,-0.0585479736328125,28306.424358,-1.574435515524459,-1.606466235202176,-0.8972487564592727,0.1802583634853363,-0.6319524645805359,0.3075088560581207,-0.01451265811920166,0.06231921911239624,-0.147458553314209,XArbitraryZVertical,-0.6718921254488412,-0.244301840034333,-0.2229259160640022,0.6627076996319949,-0.6233657598495483,0.7816137671470642,0.02224483527243137,0,0,0,-1,-1,28295.084453125,unknown,2,2025-04-22T11:23:21.875+03:00,2025-04-21T17:08:51.449+03:00,7165,0.9502622,0,0,5982.688,5,20,2025-04-22T11:23:19.296+03:00,767003012.2848356,0,-21.05,100.4553,1,0.9,2025-04-22T11:21:43.022+03:00,78,1.3,2025-04-22T09:54:17.825+03:00,0.02225348692287972,0
2025-04-22T11:23:33.240+03:00,1745310211.420269,40.95223836967934,29.14033012467102,76.57301,-1,-1,-1,-1,44.07244744262695,38.82724410217911,-9999,28306.444511,-0.6479339599609375,0.7838287353515625,-0.0257110595703125,28306.434435,-1.572186212421121,-1.611015195141943,-0.9005003102756638,0.1220424622297287,-0.6214638948440552,0.3249126076698303,-0.007443070411682129,0.02181249856948853,-0.09918153285980225,XArbitraryZVertical,-0.6724768866666647,-0.2454868831466353,-0.2195598954194861,0.6628004440653722,-0.6207155585289001,0.7836378216743469,0.02497794665396214,0,0,0,-1,-1,28295.084453125,unknown,2,2025-04-22T11:23:21.875+03:00,2025-04-21T17:08:51.449+03:00,7165,0.9502622,0,0,5982.688,5,20,2025-04-22T11:23:19.296+03:00,767003012.2848356,0,-21.05,100.4553,1,0.9,2025-04-22T11:21:43.022+03:00,78,1.3,2025-04-22T09:54:17.825+03:00,0.02225348692287972,0
2025-04-22T11:23:33.250+03:00,1745310211.420269,40.95223836967934,29.14033012467102,76.57301,-1,-1,-1,-1,44.07244744262695,38.82724410217911,-9999,28306.454588,-0.63946533203125,0.783935546875,0.009979248046875,28306.444511,-1.570604364916278,-1.615796481187591,-0.9037624094665552,0.08387696743011475,-0.5809081792831421,0.3143000602722168,-0.02485126256942749,0.0003963708877563477,-0.06498551368713379,XArbitraryZVertical,-0.6731581584388688,-0.2465223308283976,-0.2163301049473579,0.6627866744826758,-0.6180321574211121,0.7856600880622864,0.0278303325176239,0,0,0,-1,-1,28295.084453125,unknown,2,2025-04-22T11:23:21.875+03:00,2025-04-21T17:08:51.449+03:00,7165,0.9502622,0,0,5982.688,5,20,2025-04-22T11:23:19.296+03:00,767003012.2848356,0,-21.05,100.4553,1,0.9,2025-04-22T11:21:43.022+03:00,78,1.3,2025-04-22T09:54:17.825+03:00,0.02225348692287972,0
2025-04-22T11:23:33.261+03:00,1745310211.420269,40.95223836967934,29.14033012467102,76.57301,-1,-1,-1,-1,44.07244744262695,38.82724410217911,-9999,28306.464665,-0.625823974609375,0.7890472412109375,0.0907745361328125,28306.454588,-1.569816659731966,-1.621037987512464,-0.9066438193745565,0.05421600863337517,-0.5844435095787048,0.2501445114612579,-0.02984797954559326,-0.003198862075805664,-0.03771531581878662,XArbitraryZVertical,-0.6739339750142062,-0.2475697051252743,-0.2133332322255221,0.6625791096785146,-0.6156140565872192,0.7874394655227661,0.03095552325248718,0,0,0,-1,-1,28295.084453125,unknown,2,2025-04-22T11:23:21.875+03:00,2025-04-21T17:08:51.449+03:00,7165,0.9502622,0,0,5982.688,5,20,2025-04-22T11:23:19.296+03:00,767003012.2848356,0,-21.05,100.4553,1,0.9,2025-04-22T11:21:43.022+03:00,78,1.3,2025-04-22T09:54:17.825+03:00,0.02225348692287972,0
2025-04-22T11:23:33.270+03:00,1745310211.420269,40.95223836967934,29.14033012467102,76.57301,-1,-1,-1,-1,44.07244744262695,38.82724410217911,-9999,28306.474741,-0.594696044921875,0.83837890625,0.2010650634765625,28306.464665,-1.569250134933854,-1.626357702649287,-0.9089207309142128,0.02712899819016457,-0.5698853135108948,0.205608993768692,-0.01719528436660767,-0.003974735736846924,0.02113687619566917,XArbitraryZVertical,-0.6746697261247931,-0.2487687902764136,-0.2105839932640584,0.6622605840294721,-0.6136488318443298,0.7888408899307251,0.03413030132651329,0,0,0,-1,-1,28295.084453125,unknown,2,2025-04-22T11:23:21.875+03:00,2025-04-21T17:08:51.449+03:00,7165,0.9502622,0,0,5982.688,5,20,2025-04-22T11:23:19.296+03:00,767003012.2848356,0,-21.05,100.4553,1,0.9,2025-04-22T11:21:43.022+03:00,78,1.3,2025-04-22T09:54:17.825+03:00,0.02225348692287972,0
2025-04-22T11:23:33.280+03:00,1745310211.420269,40.95223836967934,29.14033012467102,76.57301,-1,-1,-1,-1,44.07244744262695,38.82724410217911,-9999,28306.484818,-0.5499725341796875,0.87579345703125,0.2975311279296875,28306.474741,-1.569202012492203,-1.631902467735482,-0.9110795424842228,0.004807181190699339,-0.5327078700065613,0.2332275658845901,0.001076936721801758,0.02408868074417114,0.1209274530410767,XArbitraryZVertical,-0.6754709365147956,-0.2499062227873898,-0.2079674066426544,0.6618423487256543,-0.6117489337921143,0.7901658415794373,0.03742821142077446,0,0,0,-1,-1,28295.084453125,unknown,2,2025-04-22T11:23:21.875+03:00,2025-04-21T17:08:51.449+03:00,7165,0.9502622,0,0,5982.688,5,20,2025-04-22T11:23:19.296+03:00,767003012.2848356,0,-21.05,100.4553,1,0.9,2025-04-22T11:21:43.022+03:00,78,1.3,2025-04-22T09:54:17.825+03:00,0.02225348692287972,0
2025-04-22T11:23:33.290+03:00,1745310211.420269,40.95223836967934,29.14033012467102,76.57301,-1,-1,-1,-1,44.07244744262695,38.82724410217911,-9999,28306.494895,-0.531036376953125,0.836029052734375,0.3369903564453125,28306.484818,-1.569324422064089,-1.637109655390243,-0.9136640544595399,0.01002930756658316,-0.4891442358493805,0.2730734944343567,0.04425960779190063,0.07985001802444458,0.2278479337692261,XArbitraryZVertical,-0.6762927020855978,-0.2507330257257092,-0.2053743548214457,0.6615001883626975,-0.6095062494277954,0.7917472124099731,0.04047773778438568,0,0,0,-1,-1,28295.084453125,unknown,2,2025-04-22T11:23:21.875+03:00,2025-04-21T17:08:51.449+03:00,7165,0.9502622,0,0,5982.688,5,20,2025-04-22T11:23:19.296+03:00,767003012.2848356,0,-21.05,100.4553,1,0.9,2025-04-22T11:21:43.022+03:00,78,1.3,2025-04-22T09:54:17.825+03:00,0.02225348692287972,0
2025-04-22T11:23:33.301+03:00,1745310211.420269,40.95223836967934,29.14033012467102,76.57301,-1,-1,-1,-1,44.07244744262695,38.82724410217911,-9999,28306.504971,-0.5375518798828125,0.785430908203125,0.371673583984375,28306.494895,-1.569475430519338,-1.641864961339548,-0.9163685687732317,0.01079762913286686,-0.4311826527118683,0.2641857266426086,0.07309573888778687,0.06252998113632202,0.2832686901092529,XArbitraryZVertical,-0.6770743294187963,-0.2513604453612611,-0.202899813524226,0.6612260432898275,-0.6071686744689941,0.7933964133262634,0.04322344064712524,0,0,0,-1,-1,28295.084453125,unknown,2,2025-04-22T11:23:21.875+03:00,2025-04-21T17:08:51.449+03:00,7165,0.9502622,0,0,5982.688,5,20,2025-04-22T11:23:19.296+03:00,767003012.2848356,0,-21.05,100.4553,1,0.9,2025-04-22T11:21:43.022+03:00,78,1.3,2025-04-22T09:54:17.825+03:00,0.02225348692287972,0
2025-04-22T11:23:33.311+03:00,1745310211.420269,40.95223836967934,29.14033012467102,76.57301,-1,-1,-1,-1,44.07244744262695,38.82724410217911,-9999,28306.515048,-0.5385894775390625,0.748870849609375,0.4225006103515625,28306.504971,-1.569569867979449,-1.645995091296556,-0.919014969239523,0.004396255128085613,-0.3741496801376343,0.257025420665741,0.06987011432647705,0.007638216018676758,0.3118336200714111,XArbitraryZVertical,-0.6777709734592088,-0.2518192397533464,-0.2006352925134433,0.6610287039488213,-0.6048890352249146,0.7950044870376587,0.04557284340262413,0,0,0,-1,-1,28295.084453125,unknown,2,2025-04-22T11:23:21.875+03:00,2025-04-21T17:08:51.449+03:00,7165,0.9502622,0,0,5982.688,5,20,2025-04-22T11:23:19.296+03:00,767003012.2848356,0,-21.05,100.4553,1,0.9,2025-04-22T11:21:43.022+03:00,78,1.3,2025-04-22T09:54:17.825+03:00,0.02225348692287972,0
2025-04-22T11:23:33.321+03:00,1745310211.420269,40.95223836967934,29.14033012467102,76.57301,-1,-1,-1,-1,44.07244744262695,38.82724410217911,-9999,28306.525125,-0.522003173828125,0.72357177734375,0.5106353759765625,28306.515048,-1.570002621218937,-1.649729605235951,-0.9214880456050526,-0.02667804062366486,-0.3042813837528229,0.2340375781059265,0.06291210651397705,-0.03431063890457153,0.3524396419525146,XArbitraryZVertical,-0.6784460033066047,-0.2520896186197042,-0.1986732729293412,0.6608257412662975,-0.6027528047561646,0.7965022325515747,0.04767630994319916,0,0,0,-1,-1,28295.084453125,unknown,2,2025-04-22T11:23:21.875+03:00,2025-04-21T17:08:51.449+03:00,7165,0.9502622,0,0,5982.688,5,20,2025-04-22T11:23:19.296+03:00,767003012.2848356,0,-21.05,100.4553,1,0.9,2025-04-22T11:21:43.022+03:00,78,1.3,2025-04-22T09:54:17.825+03:00,0.02225348692287972,0
2025-04-22T11:23:33.331+03:00,1745310211.420269,40.95223836967934,29.14033012467102,76.57301,-1,-1,-1,-1,44.07244744262695,38.82724410217911,-9999,28306.535201,-0.477203369140625,0.728973388671875,0.62445068359375,28306.525125,-1.571164631833694,-1.653465750238226,-0.9235377406612116,-0.06769378483295441,-0.2587531805038452,0.1800509691238403,0.06918871402740479,-0.06705766916275024,0.4220086336135864,XArbitraryZVertical,-0.6791651069934136,-0.2522524088144649,-0.1970933832502724,0.6604980317652778,-0.6009423136711121,0.7977398633956909,0.04979304224252701,0,0,0,-1,-1,28295.084453125,unknown,2,2025-04-22T11:23:21.875+03:00,2025-04-21T17:08:51.449+03:00,7165,0.9502622,0,0,5982.688,5,20,2025-04-22T11:23:19.296+03:00,767003012.2848356,0,-21.05,100.4553,1,0.9,2025-04-22T11:21:43.022+03:00,78,1.3,2025-04-22T09:54:17.825+03:00,0.02225348692287972,0
2025-04-22T11:23:33.341+03:00,1745310211.420269,40.95223836967934,29.14033012467102,76.57301,-1,-1,-1,-1,44.07244744262695,38.82724410217911,-9999,28306.545278,-0.445068359375,0.7401885986328125,0.723785400390625,28306.535201,-1.571639136185474,-1.656146522735554,-0.9248248870067314,0.04000445082783699,-0.1905325800180435,0.0722707062959671,0.1035518050193787,-0.07502013444900513,0.5317525863647461,XArbitraryZVertical,-0.6796146042211646,-0.2525512114463542,-0.1959021807206919,0.6602757080670961,-0.5997828245162964,0.7985153794288635,0.05131625011563301,0,0,0,-1,-1,28295.084453125,unknown,2,2025-04-22T11:23:21.875+03:00,2025-04-21T17:08:51.449+03:00,7165,0.9502622,0,0,5982.688,5,20,2025-04-22T11:23:19.296+03:00,767003012.2848356,0,-21.05,100.4553,1,0.9,2025-04-22T11:21:43.022+03:00,78,1.3,2025-04-22T09:54:17.825+03:00,0.02225348692287972,0
2025-04-22T11:23:33.351+03:00,1745310211.420269,40.95223836967934,29.14033012467102,76.57301,-1,-1,-1,-1,44.07244744262695,38.82724410217911,-9999,28306.555354,-0.440704345703125,0.766357421875,0.8524932861328125,28306.545278,-1.569341905994852,-1.655694411646146,-0.9248966219688739,0.2468874007463455,-0.08260151743888855,-0.08033597469329834,0.1474021673202515,-0.06224584579467773,0.6344150304794312,XArbitraryZVertical,-0.6792869712462989,-0.2531586929716274,-0.1952728619527201,0.6605666128258698,-0.599748969078064,0.7985585331916809,0.05104022473096848,0,0,0,-1,-1,28295.084453125,unknown,2,2025-04-22T11:23:21.875+03:00,2025-04-21T17:08:51.449+03:00,7165,0.9502622,0,0,5982.688,5,20,2025-04-22T11:23:19.296+03:00,767003012.2848356,0,-21.05,100.4553,1,0.9,2025-04-22T11:21:43.022+03:00,78,1.3,2025-04-22T09:54:17.825+03:00,0.02225348692287972,0
2025-04-22T11:23:33.361+03:00,1745310211.420269,40.95223836967934,29.14033012467102,76.57301,-1,-1,-1,-1,44.07244744262695,38.82724410217911,-9999,28306.565431,-0.4218902587890625,0.798126220703125,0.9940032958984375,28306.555354,-1.563018293898888,-1.650831515333553,-0.9235418352546141,0.4972344040870667,0.05627167969942093,-0.2560888826847076,0.1582731604576111,-0.04556059837341309,0.7531514167785645,XArbitraryZVertical,-0.6778758065380804,-0.2541440009726546,-0.1952929714792842,0.6616310879580664,-0.6010679006576538,0.7977423667907715,0.04820956289768219,0,0,0,-1,-1,28295.084453125,unknown,2,2025-04-22T11:23:21.875+03:00,2025-04-21T17:08:51.449+03:00,7165,0.9502622,0,0,5982.688,5,20,2025-04-22T11:23:19.296+03:00,767003012.2848356,0,-21.05,100.4553,1,0.9,2025-04-22T11:21:43.022+03:00,78,1.3,2025-04-22T09:54:17.825+03:00,0.02225348692287972,0
2025-04-22T11:23:33.371+03:00,1745310211.420269,40.95223836967934,29.14033012467102,76.57301,-1,-1,-1,-1,44.07244744262695,38.82724410217911,-9999,28306.575508,-0.3964996337890625,0.816314697265625,1.203414916992188,28306.565431,-1.551135854908545,-1.639940020005486,-0.9204354740025089,0.8836629390716553,0.2222802191972733,-0.4662539064884186,0.1744612455368042,-0.006345272064208984,0.8956685066223145,XArbitraryZVertical,-0.674977828136764,-0.2555789374180298,-0.1960953022582296,0.6638003384198072,-0.604026734828949,0.7958653569221497,0.04183132201433182,0,0,0,-1,-1,28295.084453125,unknown,2,2025-04-22T11:23:21.875+03:00,2025-04-21T17:08:51.449+03:00,7165,0.9502622,0,0,5982.688,5,20,2025-04-22T11:23:19.296+03:00,767003012.2848356,0,-21.05,100.4553,1,0.9,2025-04-22T11:21:43.022+03:00,78,1.3,2025-04-22T09:54:17.825+03:00,0.02225348692287972,0
2025-04-22T11:23:33.392+03:00,1745310211.420269,40.95223836967934,29.14033012467102,76.57301,-1,-1,-1,-1,44.07244744262695,38.82724410217911,-9999,28306.585584,-0.3528900146484375,0.8551177978515625,1.494918823242188,28306.575508,-1.532679161946616,-1.622472233117281,-0.9154307214036824,1.273439645767212,0.3256612122058868,-0.6540318131446838,0.1995625495910645,0.01257932186126709,1.081465601921082,XArbitraryZVertical,-0.6703503472943836,-0.2576243778594653,-0.1975297180835264,0.6672645940079215,-0.6086354851722717,0.7928251624107361,0.03147981688380241,0,0,0,-1,-1,28295.084453125,unknown,2,2025-04-22T11:23:21.875+03:00,2025-04-21T17:08:51.449+03:00,7165,0.9502622,0,0,5982.688,5,20,2025-04-22T11:23:19.296+03:00,767003012.2848356,0,-21.05,100.4553,1,0.9,2025-04-22T11:21:43.022+03:00,78,1.3,2025-04-22T09:54:17.825+03:00,0.02225348692287972,0
2025-04-22T11:23:33.394+03:00,1745310211.420269,40.95223836967934,29.14033012467102,76.57301,-1,-1,-1,-1,44.07244744262695,38.82724410217911,-9999,28306.595661,-0.3126983642578125,0.8364105224609375,1.713348388671875,28306.585584,-1.507396282434612,-1.598923368356492,-0.9089705365063643,1.782311916351318,0.4089664816856384,-0.7366909980773926,0.2447929382324219,0.0555649995803833,1.36497962474823,XArbitraryZVertical,-0.6639916925055157,-0.2603012560349808,-0.199114474898122,0.6720949964415889,-0.6143150329589844,0.7888714671134949,0.01728342287242413,0,0,0,-1,-1,28295.084453125,unknown,2,2025-04-22T11:23:21.875+03:00,2025-04-21T17:08:51.449+03:00,7165,0.9502622,0,0,5982.688,5,20,2025-04-22T11:23:19.296+03:00,767003012.2848356,0,-21.05,100.4553,1,0.9,2025-04-22T11:21:43.022+03:00,78,1.3,2025-04-22T09:54:17.825+03:00,0.02225348692287972,0
2025-04-22T11:23:33.401+03:00,1745310211.420269,40.95223836967934,29.14033012467102,76.57301,-1,-1,-1,-1,44.07244744262695,38.82724410217911,-9999,28306.605738,-0.2528839111328125,0.883148193359375,1.881317138671875,28306.595661,-1.472101869195456,-1.565751955059791,-0.9007846843503925,2.550525903701782,0.6558812260627747,-0.9746495485305786,0.2913209199905396,0.06317025423049927,1.652805805206299,XArbitraryZVertical,-0.655012497587138,-0.2634243152658235,-0.2009078667396251,0.6791186990819877,-0.6209870576858521,0.7838144302368164,-0.003132516285404563,0,0,0,-1,-1,28295.084453125,unknown,2,2025-04-22T11:23:21.875+03:00,2025-04-21T17:08:51.449+03:00,7165,0.9502622,0,0,5982.688,5,20,2025-04-22T11:23:19.296+03:00,767003012.2848356,0,-21.05,100.4553,1,0.9,2025-04-22T11:21:43.022+03:00,78,1.3,2025-04-22T09:54:17.825+03:00,0.02225348692287972,0
2025-04-22T11:23:33.411+03:00,1745310211.420269,40.95223836967934,29.14033012467102,76.57301,-1,-1,-1,-1,44.07244744262695,38.82724410217911,-9999,28306.615814,-0.2138671875,0.942108154296875,1.9464111328125,28306.605738,-1.425178782491284,-1.520873847634268,-0.8891848836586308,3.292861461639404,1.02331006526947,-1.138352990150452,0.3531981110572815,0.07262355089187622,1.844077587127686,XArbitraryZVertical,-0.6426043488351918,-0.2670945077828113,-0.2033440118133323,0.6887461814588184,-0.6292601227760315,0.7765584588050842,-0.03144035115838051,0,0,0,-1,-1,28295.084453125,unknown,2,2025-04-22T11:23:21.875+03:00,2025-04-21T17:08:51.449+03:00,7165,0.9502622,0,0,5982.688,5,20,2025-04-22T11:23:19.296+03:00,767003012.2848356,0,-21.05,100.4553,1,0.9,2025-04-22T11:21:43.022+03:00,78,1.3,2025-04-22T09:54:17.825+03:00,0.02225348692287972,0
2025-04-22T11:23:33.421+03:00,1745310211.420269,40.95223836967934,29.14033012467102,76.57301,-1,-1,-1,-1,44.07244744262695,38.82724410217911,-9999,28306.625891,-0.2657623291015625,0.6390838623046875,1.724472045898438,28306.615814,-1.37494146333222,-1.469299352372778,-0.874584241035661,3.107811450958252,1.528330445289612,-1.287335753440857,0.4156641960144043,0.1770130395889282,2.023109674453735,XArbitraryZVertical,-0.6282255752232869,-0.2698938219763496,-0.2071978849297306,0.6996848174658344,-0.6380152106285095,0.76727694272995,-0.06497990339994431,0,0,0,-1,-1,28295.084453125,unknown,2,2025-04-22T11:23:21.875+03:00,2025-04-21T17:08:51.449+03:00,7165,0.9502622,0,0,5982.688,5,20,2025-04-22T11:23:19.296+03:00,767003012.2848356,0,-21.05,100.4553,1,0.9,2025-04-22T11:21:43.022+03:00,78,1.3,2025-04-22T09:54:17.825+03:00,0.02225348692287972,0
2025-04-22T11:23:33.432+03:00,1745310211.420269,40.95223836967934,29.14033012467102,76.57301,-1,-1,-1,-1,44.07244744262695,38.82724410217911,-9999,28306.635968,-0.3288726806640625,0.121978759765625,1.414794921875,28306.625891,-1.339405966540006,-1.423861698474223,-0.8577422829936511,1.69874632358551,2.093742609024048,-1.481342792510986,0.412768542766571,0.04586297273635864,1.925315260887146,XArbitraryZVertical,-0.6156428802997175,-0.2703667911475096,-0.214419667256259,0.7084557916719348,-0.6470977067947388,0.7563676238059998,-0.09577128291130066,0,0,0,-1,-1,28295.084453125,unknown,2,2025-04-22T11:23:21.875+03:00,2025-04-21T17:08:51.449+03:00,7165,0.9502622,0,0,5982.688,5,20,2025-04-22T11:23:19.296+03:00,767003012.2848356,0,-21.05,100.4553,1,0.9,2025-04-22T11:21:43.022+03:00,78,1.3,2025-04-22T09:54:17.825+03:00,0.02225348692287972,0
2025-04-22T11:23:33.442+03:00,1745310211.420269,40.95223836967934,29.14033012467102,76.57301,-1,-1,-1,-1,44.07244744262695,38.82724410217911,-9999,28306.646044,-0.35662841796875,-0.1941070556640625,1.129058837890625,28306.635968,-1.3354925758569,-1.397529178616958,-0.8410249658275554,-0.7553560137748718,2.527875900268555,-1.716748833656311,0.3422937989234924,-0.4379387497901917,1.646021962165833,XArbitraryZVertical,-0.6090476984283049,-0.2675648502541061,-0.2265928888994743,0.7114249362610306,-0.6567163467407227,0.7453268766403198,-0.1149399057030678,0,0,0,-1,-1,28295.084453125,unknown,2,2025-04-22T11:23:21.875+03:00,2025-04-21T17:08:51.449+03:00,7165,0.9502622,0,0,5982.688,5,20,2025-04-22T11:23:19.296+03:00,767003012.2848356,0,-21.05,100.4553,1,0.9,2025-04-22T11:21:43.022+03:00,78,1.3,2025-04-22T09:54:17.825+03:00,0.02225348692287972,0
2025-04-22T11:23:33.452+03:00,1745310211.420269,40.95223836967934,29.14033012467102,76.57301,-1,-1,-1,-1,44.07244744262695,38.82724410217911,-9999,28306.656121,-0.50238037109375,-0.3687896728515625,0.89129638671875,28306.646044,-1.3714838355639,-1.397081662108151,-0.827102488543763,-3.482290506362915,2.83979868888855,-1.817121982574463,0.3263674378395081,-0.8422504663467407,1.347042322158813,XArbitraryZVertical,-0.611086362149643,-0.2608934693687887,-0.2440305525346985,0.7063688738302152,-0.6668215394020081,0.7359728217124939,-0.117016114294529,0,0,0,-1,-1,28295.084453125,unknown,2,2025-04-22T11:23:21.875+03:00,2025-04-21T17:08:51.449+03:00,7165,0.9502622,0,0,5982.688,5,20,2025-04-22T11:23:19.296+03:00,767003012.2848356,0,-21.05,100.4553,1,0.9,2025-04-22T11:21:43.022+03:00,78,1.3,2025-04-22T09:54:17.825+03:00,0.02225348692287972,0
2025-04-22T11:23:33.462+03:00,1745310211.420269,40.95223836967934,29.14033012467102,76.57301,-1,-1,-1,-1,44.07244744262695,38.82724410217911,-9999,28306.666198,-0.5693817138671875,-0.381256103515625,-0.1298828125,28306.656121,-1.435421237236099,-1.408619458342274,-0.8201665509063695,-3.711791753768921,5.153690338134766,-0.196642592549324,0.2435681819915771,-1.03393292427063,1.088285803794861,XArbitraryZVertical,-0.6194068579790261,-0.2475215638731767,-0.2651535687919986,0.6962482615935066,-0.6731488108634949,0.7312594652175903,-0.110136441886425,0,0,0,-1,-1,28295.084453125,unknown,2,2025-04-22T11:23:21.875+03:00,2025-04-21T17:08:51.449+03:00,7165,0.9502622,0,0,5982.688,5,20,2025-04-22T11:23:19.296+03:00,767003012.2848356,0,-21.05,100.4553,1,0.9,2025-04-22T11:21:43.022+03:00,78,1.3,2025-04-22T09:54:17.825+03:00,0.02225348692287972,0
2025-04-22T11:23:33.472+03:00,1745310211.420269,40.95223836967934,29.14033012467102,76.57301,-1,-1,-1,-1,44.07244744262695,38.82724410217911,-9999,28306.676274,-0.174713134765625,0.7376556396484375,-6.793426513671875,28306.666198,-1.503199595995669,-1.442544912561248,-0.8146426615184109,-6.060039043426514,-0.7233067154884338,-3.240448713302612,0.05686640739440918,-1.18347430229187,0.7105279564857483,XArbitraryZVertical,-0.6313470748714916,-0.2398393879485136,-0.279693609742145,0.682385004710181,-0.6804931163787842,0.7274804711341858,-0.08775588124990463,0,0,0,-1,-1,28295.084453125,unknown,2,2025-04-22T11:23:21.875+03:00,2025-04-21T17:08:51.449+03:00,7165,0.9502622,0,0,5982.688,5,20,2025-04-22T11:23:19.296+03:00,767003012.2848356,0,-21.05,100.4553,1,0.9,2025-04-22T11:21:43.022+03:00,78,1.3,2025-04-22T09:54:17.825+03:00,0.02225348692287972,0
2025-04-22T11:23:33.482+03:00,1745310211.420269,40.95223836967934,29.14033012467102,76.57301,-1,-1,-1,-1,44.07244744262695,38.82724410217911,-9999,28306.686351,-1.175064086914062,1.670257568359375,-6.60675048828125,28306.676274,-1.547751936458612,-1.495817601404244,-0.7785728309850012,-1.164850115776062,-2.143490791320801,-3.83460259437561,0.4969950318336487,-0.5029997229576111,-3.915787696838379,XArbitraryZVertical,-0.6387680379770011,-0.2555603664185628,-0.2894361411328488,0.665500519410283,-0.7099162340164185,0.702264130115509,-0.05332858487963676,0,0,0,-1,-1,28295.084453125,unknown,2,2025-04-22T11:23:21.875+03:00,2025-04-21T17:08:51.449+03:00,7165,0.9502622,0,0,5982.688,5,20,2025-04-22T11:23:19.296+03:00,767003012.2848356,0,-21.05,100.4553,1,0.9,2025-04-22T11:21:43.022+03:00,78,1.3,2025-04-22T09:54:17.825+03:00,0.02225348692287972,0
2025-04-22T11:23:33.492+03:00,1745310211.420269,40.95223836967934,29.14033012467102,76.57301,-1,-1,-1,-1,44.07244744262695,38.82724410217911,-9999,28306.696428,-0.57000732421875,1.332733154296875,-2.120880126953125,28306.686351,-1.552222069293915,-1.527497891007097,-0.7513828340927378,1.287338972091675,-3.324913740158081,-2.02170991897583,-0.05314254760742188,0.8161596655845642,-8.057129859924316,XArbitraryZVertical,-0.6398230216060581,-0.2735166846211334,-0.2895520064362441,0.6572477806671919,-0.7300605177879333,0.6826499104499817,-0.0316302478313446,0,0,0,-1,-1,28295.084453125,unknown,2,2025-04-22T11:23:21.875+03:00,2025-04-21T17:08:51.449+03:00,7165,0.9502622,0,0,5982.688,5,20,2025-04-22T11:23:19.296+03:00,767003012.2848356,0,-21.05,100.4553,1,0.9,2025-04-22T11:21:43.022+03:00,78,1.3,2025-04-22T09:54:17.825+03:00,0.02225348692287972,0
2025-04-22T11:23:33.502+03:00,1745310211.420269,40.95223836967934,29.14033012467102,76.57301,-1,-1,-1,-1,44.07244744262695,38.82724410217911,-9999,28306.706504,-0.4568939208984375,1.3922119140625,-0.458282470703125,28306.696428,-1.547558144103287,-1.553641319162942,-0.7321944940774701,-0.04438826069235802,-2.533510446548462,-1.419169664382935,-0.2576363682746887,0.8173210620880127,-3.341887235641479,XArbitraryZVertical,-0.6400360601157931,-0.2897843823038775,-0.2858555529438273,0.6516634846110311,-0.743599534034729,0.6685032844543457,-0.01275770738720894,0,0,0,-1,-1,28295.084453125,unknown,2,2025-04-22T11:23:21.875+03:00,2025-04-21T17:08:51.449+03:00,7165,0.9502622,0,0,5982.688,5,20,2025-04-22T11:23:19.296+03:00,767003012.2848356,0,-21.05,100.4553,1,0.9,2025-04-22T11:21:43.022+03:00,78,1.3,2025-04-22T09:54:17.825+03:00,0.02225348692287972,0
2025-04-22T11:23:33.512+03:00,1745310211.420269,40.95223836967934,29.14033012467102,76.57301,-1,-1,-1,-1,44.07244744262695,38.82724410217911,-9999,28306.716581,-0.9438018798828125,0.225982666015625,1.038101196289062,28306.706504,-1.559513326510023,-1.583591867426488,-0.7222630152538676,-1.729954719543457,-1.81690239906311,-0.404117226600647,0.4665587544441223,0.7152430415153503,-1.051974177360535,XArbitraryZVertical,-0.6445887432128921,-0.2988403290071329,-0.2833241237308162,0.6441484491985351,-0.7502501606941223,0.6610843539237976,0.009600380435585976,0,0,0,-1,-1,28295.084453125,unknown,2,2025-04-22T11:23:21.875+03:00,2025-04-21T17:08:51.449+03:00,7165,0.9502622,0,0,5982.688,5,20,2025-04-22T11:23:19.296+03:00,767003012.2848356,0,-21.05,100.4553,1,0.9,2025-04-22T11:21:43.022+03:00,78,1.3,2025-04-22T09:54:17.825+03:00,0.02225348692287972,0
2025-04-22T11:23:33.522+03:00,1745310211.420269,40.95223836967934,29.14033012467102,76.57301,-1,-1,-1,-1,44.07244744262695,38.82724410217911,-9999,28306.726658,-0.937042236328125,-0.343170166015625,1.1876220703125,28306.716581,-1.585221097626538,-1.611635802617177,-0.7223561037114573,-1.877965450286865,-0.3725614547729492,0.3632694482803345,-0.07476234436035156,0.1590970754623413,0.546333909034729,XArbitraryZVertical,-0.65241405526379,-0.2994520762218991,-0.2824301743630711,0.6363311534357694,-0.7496241927146912,0.6611541509628296,0.0306312907487154,0,0,0,-1,-1,28295.084453125,unknown,2,2025-04-22T11:23:21.875+03:00,2025-04-21T17:08:51.449+03:00,7165,0.9502622,0,0,5982.688,5,20,2025-04-22T11:23:19.296+03:00,767003012.2848356,0,-21.05,100.4553,1,0.9,2025-04-22T11:21:43.022+03:00,78,1.3,2025-04-22T09:54:17.825+03:00,0.02225348692287972,0
