loggingTime(txt),locationTimestamp_since1970(s),locationLatitude(WGS84),locationLongitude(WGS84),locationAltitude(m),locationSpeed(m/s),locationSpeedAccuracy(m/s),locationCourse(°),locationCourseAccuracy(°),locationVerticalAccuracy(m),locationHorizontalAccuracy(m),locationFloor(Z),accelerometerTimestamp_sinceReboot(s),accelerometerAccelerationX(G),accelerometerAccelerationY(G),accelerometerAccelerationZ(G),motionTimestamp_sinceReboot(s),motionYaw(rad),motionRoll(rad),motionPitch(rad),motionRotationRateX(rad/s),motionRotationRateY(rad/s),motionRotationRateZ(rad/s),motionUserAccelerationX(G),motionUserAccelerationY(G),motionUserAccelerationZ(G),motionAttitudeReferenceFrame(txt),motionQuaternionX(R),motionQuaternionY(R),motionQuaternionZ(R),motionQuaternionW(R),motionGravityX(G),motionGravityY(G),motionGravityZ(G),motionMagneticFieldX(µT),motionMagneticFieldY(µT),motionMagneticFieldZ(µT),motionHeading(°),motionMagneticFieldCalibrationAccuracy(Z),activityTimestamp_sinceReboot(s),activity(txt),activityActivityConfidence(Z),activityActivityStartDate(txt),pedometerStartDate(txt),pedometerNumberofSteps(N),pedometerAverageActivePace(s/m),pedometerCurrentPace(s/m),pedometerCurrentCadence(steps/s),pedometerDistance(m),pedometerFloorAscended(N),pedometerFloorDescended(N),pedometerEndDate(txt),altimeterTimestamp_sinceReboot(s),altimeterReset(bool),altimeterRelativeAltitude(m),altimeterPressure(kPa),batteryState(N),batteryLevel(R),heartRateBPMTimestamp(txt),heartRateBPM(N),heartRateBPS(R),heartRateVariabilityTimestamp(txt),heartRateVariability(ms),label
2025-04-22T17:28:10.013+03:00,1745332089.730193,40.95226845434804,29.14031828464809,76.50301,-1,-1,-1,-1,30,26.05091700301345,-9999,39733.09557825,-0.577850341796875,0.720062255859375,-0.2701263427734375,39733.08550225,-3.139393417211271,-1.14140657133318,-0.8567899274404408,-0.0008242468466050923,-0.01620580069720745,-0.006761965807527304,-0.01006591320037842,0.004417955875396729,-0.01351672410964966,XArbitraryZVertical,-0.4917900564402808,0.3490369034338432,-0.7652288295277671,0.2252567789934954,-0.5954179763793945,0.7557442784309387,-0.2726315557956696,0,0,0,-1,-1,39729.35849275001,unknown,2,2025-04-22T17:28:06.255+03:00,2025-04-21T17:08:51.449+03:00,9047,1.059065,0,0,7544.334,7,22,2025-04-22T17:22:43.829+03:00,767024888.9439539,0,-11.46,100.3419,1,0.35,2025-04-22T17:26:12.972+03:00,81,1.35,2025-04-22T14:20:19.516+03:00,0.02197104130929222,0
2025-04-22T17:28:10.014+03:00,1745332089.730193,40.95226845434804,29.14031828464809,76.50301,-1,-1,-1,-1,30,26.05091700301345,-9999,39733.10565525,-0.616180419921875,0.7501983642578125,-0.2711639404296875,39733.09557825,-3.139467166661665,-1.141426967741212,-0.8566837744624594,0.00383308925665915,0.003328219056129456,-0.00713214511051774,0.01824134588241577,-0.00395047664642334,-0.001517266035079956,XArbitraryZVertical,-0.4917968449441399,0.3490120906063908,-0.7652507723161562,0.225206026074957,-0.5954965949058533,0.7556747794151306,-0.2726528346538544,0,0,0,-1,-1,39729.35849275001,unknown,2,2025-04-22T17:28:06.255+03:00,2025-04-21T17:08:51.449+03:00,9047,1.059065,0,0,7544.334,7,22,2025-04-22T17:22:43.829+03:00,767024888.9439539,0,-11.46,100.3419,1,0.35,2025-04-22T17:26:12.972+03:00,81,1.35,2025-04-22T14:20:19.516+03:00,0.02197104130929222,0
2025-04-22T17:28:10.019+03:00,1745332089.730193,40.95226845434804,29.14031828464809,76.50301,-1,-1,-1,-1,30,26.05091700301345,-9999,39733.11573125,-0.58544921875,0.753662109375,-0.2685394287109375,39733.10565525,-3.139474825070857,-1.141467923424859,-0.8566238515076074,-0.001345094642601907,0.0001338236033916473,-0.004594119731336832,0.01087778806686401,-0.03508508205413818,0.00158989429473877,XArbitraryZVertical,-0.4918179139071118,0.3489864456860988,-0.7652518374936721,0.2251956245535286,-0.595548689365387,0.7556354999542236,-0.2726472020149231,0,0,0,-1,-1,39729.35849275001,unknown,2,2025-04-22T17:28:06.255+03:00,2025-04-21T17:08:51.449+03:00,9047,1.059065,0,0,7544.334,7,22,2025-04-22T17:22:43.829+03:00,767024888.9439539,0,-11.46,100.3419,1,0.35,2025-04-22T17:26:12.972+03:00,81,1.35,2025-04-22T14:20:19.516+03:00,0.02197104130929222,0
2025-04-22T17:28:10.029+03:00,1745332089.730193,40.95226845434804,29.14031828464809,76.50301,-1,-1,-1,-1,30,26.05091700301345,-9999,39733.12580825,-0.598052978515625,0.75201416015625,-0.272918701171875,39733.11573125,-3.139783534477392,-1.141813152784548,-0.8563183327667034,0.001840312383137643,0.006848451681435108,-0.004013550467789173,-0.01825249195098877,-0.003009438514709473,0.001968532800674438,XArbitraryZVertical,-0.4919303207367117,0.3489065507427886,-0.7652550553576914,0.2250627391565347,-0.5958526134490967,0.7554353475570679,-0.2725375592708588,0,0,0,-1,-1,39729.35849275001,unknown,2,2025-04-22T17:28:06.255+03:00,2025-04-21T17:08:51.449+03:00,9047,1.059065,0,0,7544.334,7,22,2025-04-22T17:22:43.829+03:00,767024888.9439539,0,-11.46,100.3419,1,0.35,2025-04-22T17:26:12.972+03:00,81,1.35,2025-04-22T14:20:19.516+03:00,0.02197104130929222,0
2025-04-22T17:28:10.039+03:00,1745332089.730193,40.95226845434804,29.14031828464809,76.50301,-1,-1,-1,-1,30,26.05091700301345,-9999,39733.13588425,-0.5936126708984375,0.7504119873046875,-0.2716827392578125,39733.12580825,-3.139815025601085,-1.141794476260951,-0.8562742776430833,0.00568784773349762,0.01135778240859509,-0.003456117585301399,0.01143580675125122,-0.002324461936950684,0.003778785467147827,XArbitraryZVertical,-0.4919226080629925,0.3488995323468012,-0.7652708965154974,0.2250366098240989,-0.5958777666091919,0.7554064989089966,-0.2725625336170197,0,0,0,-1,-1,39729.35849275001,unknown,2,2025-04-22T17:28:06.255+03:00,2025-04-21T17:08:51.449+03:00,9047,1.059065,0,0,7544.334,7,22,2025-04-22T17:22:43.829+03:00,767024888.9439539,0,-11.46,100.3419,1,0.35,2025-04-22T17:26:12.972+03:00,81,1.35,2025-04-22T14:20:19.516+03:00,0.02197104130929222,0
2025-04-22T17:28:10.049+03:00,1745332089.730193,40.95226845434804,29.14031828464809,76.50301,-1,-1,-1,-1,30,26.05091700301345,-9999,39733.14596125,-0.594085693359375,0.7510833740234375,-0.270904541015625,39733.13588425,-3.139484822325375,-1.141264562674444,-0.8565420861776539,0.001078981207683682,0.0126113323494792,-0.0007460847846232355,-0.003128945827484131,-0.003338992595672607,-1.800060272216797e-05,XArbitraryZVertical,-0.491747472825406,0.3489804772213415,-0.7653174050656046,0.2251361824674324,-0.5955495238304138,0.7555819749832153,-0.272794097661972,0,0,0,-1,-1,39729.35849275001,unknown,2,2025-04-22T17:28:06.255+03:00,2025-04-21T17:08:51.449+03:00,9047,1.059065,0,0,7544.334,7,22,2025-04-22T17:22:43.829+03:00,767024888.9439539,0,-11.46,100.3419,1,0.35,2025-04-22T17:26:12.972+03:00,81,1.35,2025-04-22T14:20:19.516+03:00,0.02197104130929222,0
2025-04-22T17:28:10.059+03:00,1745332089.730193,40.95226845434804,29.14031828464809,76.50301,-1,-1,-1,-1,30,26.05091700301345,-9999,39733.15603725,-0.591461181640625,0.7493743896484375,-0.27197265625,39733.14596125,-3.139421290232611,-1.141054190294618,-0.856455628556022,0.0007422244525514543,0.0142570324242115,-0.00198492081835866,0.002213597297668457,-0.004976093769073486,0.001187384128570557,XArbitraryZVertical,-0.4916877136113893,0.3489554299333208,-0.7653771151325625,0.2251025601350682,-0.5955515503883362,0.7555253505706787,-0.2729465961456299,0,0,0,-1,-1,39729.35849275001,unknown,2,2025-04-22T17:28:06.255+03:00,2025-04-21T17:08:51.449+03:00,9047,1.059065,0,0,7544.334,7,22,2025-04-22T17:22:43.829+03:00,767024888.9439539,0,-11.46,100.3419,1,0.35,2025-04-22T17:26:12.972+03:00,81,1.35,2025-04-22T14:20:19.516+03:00,0.02197104130929222,0
2025-04-22T17:28:10.069+03:00,1745332089.730193,40.95226845434804,29.14031828464809,76.50301,-1,-1,-1,-1,30,26.05091700301345,-9999,39733.16611425,-0.592041015625,0.7490234375,-0.2710113525390625,39733.15603725,-3.139263618534981,-1.140710565187433,-0.8565051620514939,0.001414139987900853,0.01304609328508377,0.0001906155375763774,0.00101768970489502,-0.003848850727081299,0.00162053108215332,XArbitraryZVertical,-0.4915781836011902,0.3489743158210066,-0.7654351791153665,0.2251150963611917,-0.595423698425293,0.7555577754974365,-0.273135632276535,0,0,0,-1,-1,39729.35849275001,unknown,2,2025-04-22T17:28:06.255+03:00,2025-04-21T17:08:51.449+03:00,9047,1.059065,0,0,7544.334,7,22,2025-04-22T17:22:43.829+03:00,767024888.9439539,0,-11.46,100.3419,1,0.35,2025-04-22T17:26:12.972+03:00,81,1.35,2025-04-22T14:20:19.516+03:00,0.02197104130929222,0
2025-04-22T17:28:10.079+03:00,1745332089.730193,40.95226845434804,29.14031828464809,76.50301,-1,-1,-1,-1,30,26.05091700301345,-9999,39733.17619025,-0.593841552734375,0.750396728515625,-0.2720184326171875,39733.16611425,-3.139210215137437,-1.14051379759383,-0.8564509009013602,-8.382152009289712e-05,0.01391488313674927,0.000428602215833962,0.005090534687042236,-0.006849765777587891,0.0007324814796447754,XArbitraryZVertical,-0.491518251490272,0.3489625557008508,-0.7654870243563247,0.2250878906103012,-0.5954071879386902,0.7555222511291504,-0.2732698917388916,0,0,0,-1,-1,39729.35849275001,unknown,2,2025-04-22T17:28:06.255+03:00,2025-04-21T17:08:51.449+03:00,9047,1.059065,0,0,7544.334,7,22,2025-04-22T17:22:43.829+03:00,767024888.9439539,0,-11.46,100.3419,1,0.35,2025-04-22T17:26:12.972+03:00,81,1.35,2025-04-22T14:20:19.516+03:00,0.02197104130929222,0
2025-04-22T17:28:10.089+03:00,1745332089.730193,40.95226845434804,29.14031828464809,76.50301,-1,-1,-1,-1,30,26.05091700301345,-9999,39733.18626725,-0.5933074951171875,0.75177001953125,-0.2746124267578125,39733.17619025,-3.139148008051358,-1.140293882652474,-0.8565145544262479,-0.0004081945517100394,0.0123745109885931,0.0006616287864744663,0.002880990505218506,-0.006418466567993164,0.002689659595489502,XArbitraryZVertical,-0.4914378295195636,0.3489964010127279,-0.7655229112790973,0.2250889469736882,-0.5953033566474915,0.7555639147758484,-0.2733807563781738,0,0,0,-1,-1,39729.35849275001,unknown,2,2025-04-22T17:28:06.255+03:00,2025-04-21T17:08:51.449+03:00,9047,1.059065,0,0,7544.334,7,22,2025-04-22T17:22:43.829+03:00,767024888.9439539,0,-11.46,100.3419,1,0.35,2025-04-22T17:26:12.972+03:00,81,1.35,2025-04-22T14:20:19.516+03:00,0.02197104130929222,0
2025-04-22T17:28:10.100+03:00,1745332089.730193,40.95226845434804,29.14031828464809,76.50301,-1,-1,-1,-1,30,26.05091700301345,-9999,39733.19634325001,-0.5942230224609375,0.753875732421875,-0.27423095703125,39733.18626725,-3.139087868231307,-1.140113998414892,-0.8564259051011303,0.002782538766041398,0.01386747881770134,0.0005931855994276702,0.001595675945281982,-0.004712462425231934,0.001161456108093262,XArbitraryZVertical,-0.491389359288642,0.3489679096503527,-0.7655758720640712,0.225058832016244,-0.5953150391578674,0.7555058598518372,-0.2735157907009125,0,0,0,-1,-1,39729.35849275001,unknown,2,2025-04-22T17:28:06.255+03:00,2025-04-21T17:08:51.449+03:00,9047,1.059065,0,0,7544.334,7,22,2025-04-22T17:22:43.829+03:00,767024888.9439539,0,-11.46,100.3419,1,0.35,2025-04-22T17:26:12.972+03:00,81,1.35,2025-04-22T14:20:19.516+03:00,0.02197104130929222,0
2025-04-22T17:28:10.110+03:00,1745332089.730193,40.95226845434804,29.14031828464809,76.50301,-1,-1,-1,-1,30,26.05091700301345,-9999,39733.20642025,-0.59320068359375,0.75311279296875,-0.2749786376953125,39733.19634325001,-3.139096604075081,-1.140027790823982,-0.8563245538483658,0.002397711854428053,0.01101177185773849,-0.002198073547333479,0.002190947532653809,-0.004249334335327148,-0.0005252361297607422,XArbitraryZVertical,-0.4913661474983175,0.3489409345255672,-0.7656157474619505,0.2250156049814205,-0.5953609943389893,0.7554394602775574,-0.2735990583896637,0,0,0,-1,-1,39729.35849275001,unknown,2,2025-04-22T17:28:06.255+03:00,2025-04-21T17:08:51.449+03:00,9047,1.059065,0,0,7544.334,7,22,2025-04-22T17:22:43.829+03:00,767024888.9439539,0,-11.46,100.3419,1,0.35,2025-04-22T17:26:12.972+03:00,81,1.35,2025-04-22T14:20:19.516+03:00,0.02197104130929222,0
2025-04-22T17:28:10.120+03:00,1745332089.730193,40.95226845434804,29.14031828464809,76.50301,-1,-1,-1,-1,30,26.05091700301345,-9999,39733.21649625,-0.5951385498046875,0.7496337890625,-0.272735595703125,39733.20642025,-3.139078700946394,-1.139897803233165,-0.8563465919704314,0.001018394250422716,0.01321067661046982,-0.001597297610715032,0.001392543315887451,-0.001028835773468018,-0.0002259314060211182,XArbitraryZVertical,-0.4913170448202204,0.3489595982287646,-0.7656418499657053,0.2250051651340599,-0.5953103303909302,0.755453884601593,-0.2736695110797882,0,0,0,-1,-1,39729.35849275001,unknown,2,2025-04-22T17:28:06.255+03:00,2025-04-21T17:08:51.449+03:00,9047,1.059065,0,0,7544.334,7,22,2025-04-22T17:22:43.829+03:00,767024888.9439539,0,-11.46,100.3419,1,0.35,2025-04-22T17:26:12.972+03:00,81,1.35,2025-04-22T14:20:19.516+03:00,0.02197104130929222,0
2025-04-22T17:28:10.130+03:00,1745332089.730193,40.95226845434804,29.14031828464809,76.50301,-1,-1,-1,-1,30,26.05091700301345,-9999,39733.22657325,-0.59539794921875,0.7493438720703125,-0.27301025390625,39733.21649625,-3.139062128546291,-1.139780045851157,-0.8563043775975949,0.001317733665928245,0.008901149965822697,-0.0005046026781201363,0.00145035982131958,-0.003152668476104736,-0.0004171431064605713,XArbitraryZVertical,-0.4912795579616756,0.3489525976805401,-0.765676337245759,0.2249805974928731,-0.5953071117401123,0.7554262280464172,-0.2737529575824738,0,0,0,-1,-1,39729.35849275001,unknown,2,2025-04-22T17:28:06.255+03:00,2025-04-21T17:08:51.449+03:00,9047,1.059065,0,0,7544.334,7,22,2025-04-22T17:22:43.829+03:00,767024888.9439539,0,-11.46,100.3419,1,0.35,2025-04-22T17:26:12.972+03:00,81,1.35,2025-04-22T14:20:19.516+03:00,0.02197104130929222,0
2025-04-22T17:28:10.140+03:00,1745332089.730193,40.95226845434804,29.14031828464809,76.50301,-1,-1,-1,-1,30,26.05091700301345,-9999,39733.23664925,-0.5934906005859375,0.7498626708984375,-0.2759552001953125,39733.22657325,-3.139084476287185,-1.139700465599443,-0.8562959756610784,-0.00426644878461957,0.009706422686576843,-0.0008738832548260689,-0.0004730224609375,-0.006229400634765625,0.001647025346755981,XArbitraryZVertical,-0.4912461318148418,0.3489638216015062,-0.7656998522997129,0.2249561042951539,-0.5952910780906677,0.7554207444190979,-0.2738029658794403,0,0,0,-1,-1,39729.35849275001,unknown,2,2025-04-22T17:28:06.255+03:00,2025-04-21T17:08:51.449+03:00,9047,1.059065,0,0,7544.334,7,22,2025-04-22T17:22:43.829+03:00,767024888.9439539,0,-11.46,100.3419,1,0.35,2025-04-22T17:26:12.972+03:00,81,1.35,2025-04-22T14:20:19.516+03:00,0.02197104130929222,0
2025-04-22T17:28:10.150+03:00,1745332089.730193,40.95226845434804,29.14031828464809,76.50301,-1,-1,-1,-1,30,26.05091700301345,-9999,39733.24672525,-0.5921173095703125,0.750885009765625,-0.27777099609375,39733.23664925,-3.139157614438162,-1.139685190692839,-0.8562928954130361,-0.002885866444557905,0.006168413441628218,-0.0008959874976426363,0.0005166530609130859,-0.006792068481445312,-9.769201278686523e-05,XArbitraryZVertical,-0.4912278888658301,0.3489823402067799,-0.7657122317539762,0.2249247437095918,-0.595288872718811,0.7554187178611755,-0.2738129794597626,0,0,0,-1,-1,39729.35849275001,unknown,2,2025-04-22T17:28:06.255+03:00,2025-04-21T17:08:51.449+03:00,9047,1.059065,0,0,7544.334,7,22,2025-04-22T17:22:43.829+03:00,767024888.9439539,0,-11.46,100.3419,1,0.35,2025-04-22T17:26:12.972+03:00,81,1.35,2025-04-22T14:20:19.516+03:00,0.02197104130929222,0
2025-04-22T17:28:10.160+03:00,1745332089.730193,40.95226845434804,29.14031828464809,76.50301,-1,-1,-1,-1,30,26.05091700301345,-9999,39733.25680225001,-0.590667724609375,0.751251220703125,-0.2783050537109375,39733.24672525,-3.139238998448511,-1.139669954554899,-0.8562947076421641,-0.005215932615101337,0.007201919797807932,-0.005556552670896053,0.001731932163238525,-0.005389511585235596,-0.002866297960281372,XArbitraryZVertical,-0.4912076632062474,0.3490047444368941,-0.7657247432708162,0.2248913997745026,-0.5952833890914917,0.755419909954071,-0.2738214433193207,0,0,0,-1,-1,39729.35849275001,unknown,2,2025-04-22T17:28:06.255+03:00,2025-04-21T17:08:51.449+03:00,9047,1.059065,0,0,7544.334,7,22,2025-04-22T17:22:43.829+03:00,767024888.9439539,0,-11.46,100.3419,1,0.35,2025-04-22T17:26:12.972+03:00,81,1.35,2025-04-22T14:20:19.516+03:00,0.02197104130929222,0
2025-04-22T17:28:10.170+03:00,1745332089.730193,40.95226845434804,29.14031828464809,76.50301,-1,-1,-1,-1,30,26.05091700301345,-9999,39733.26687825,-0.5919952392578125,0.7523651123046875,-0.2786865234375,39733.25680225001,-3.139324916221407,-1.139658570205296,-0.8562584399751126,-0.001175650977529585,0.008705806918442249,-0.003981026355177164,0.003493249416351318,-0.004770636558532715,-0.003611057996749878,XArbitraryZVertical,-0.4911923501265374,0.3490132257150004,-0.7657435903456834,0.2248476069451084,-0.5953052043914795,0.7553961277008057,-0.2738396823406219,0,0,0,-1,-1,39729.35849275001,unknown,2,2025-04-22T17:28:06.255+03:00,2025-04-21T17:08:51.449+03:00,9047,1.059065,0,0,7544.334,7,22,2025-04-22T17:22:43.829+03:00,767024888.9439539,0,-11.46,100.3419,1,0.35,2025-04-22T17:26:12.972+03:00,81,1.35,2025-04-22T14:20:19.516+03:00,0.02197104130929222,0
2025-04-22T17:28:10.180+03:00,1745332089.730193,40.95226845434804,29.14031828464809,76.50301,-1,-1,-1,-1,30,26.05091700301345,-9999,39733.27695525,-0.590972900390625,0.7510528564453125,-0.2806243896484375,39733.26687825,-3.13935341838283,-1.13958183714513,-0.8562247666277352,0.001197292120195925,0.01080950442701578,-0.003423593705520034,0.004593968391418457,-0.004595935344696045,-0.004714369773864746,XArbitraryZVertical,-0.4911617490499852,0.3490159472392864,-0.7657715585151936,0.2248150362030871,-0.5953073501586914,0.7553740739822388,-0.2738960087299347,0,0,0,-1,-1,39729.35849275001,unknown,2,2025-04-22T17:28:06.255+03:00,2025-04-21T17:08:51.449+03:00,9047,1.059065,0,0,7544.334,7,22,2025-04-22T17:22:43.829+03:00,767024888.9439539,0,-11.46,100.3419,1,0.35,2025-04-22T17:26:12.972+03:00,81,1.35,2025-04-22T14:20:19.516+03:00,0.02197104130929222,0
2025-04-22T17:28:10.190+03:00,1745332089.730193,40.95226845434804,29.14031828464809,76.50301,-1,-1,-1,-1,30,26.05091700301345,-9999,39733.28703125,-0.5891571044921875,0.7513275146484375,-0.2811126708984375,39733.27695525,-3.139393149027111,-1.139489333525718,-0.8562080952578972,-0.01018159557133913,0.01477095670998096,0.002963199280202389,0.003405153751373291,-0.003074407577514648,-0.004577755928039551,XArbitraryZVertical,-0.4911212493190482,0.3490297087251593,-0.7658016998505286,0.2247795748928154,-0.5952934622764587,0.7553631663322449,-0.2739563584327698,0,0,0,-1,-1,39729.35849275001,unknown,2,2025-04-22T17:28:06.255+03:00,2025-04-21T17:08:51.449+03:00,9047,1.059065,0,0,7544.334,7,22,2025-04-22T17:22:43.829+03:00,767024888.9439539,0,-11.46,100.3419,1,0.35,2025-04-22T17:26:12.972+03:00,81,1.35,2025-04-22T14:20:19.516+03:00,0.02197104130929222,0
2025-04-22T17:28:10.200+03:00,1745332089.730193,40.95226845434804,29.14031828464809,76.50301,-1,-1,-1,-1,30,26.05091700301345,-9999,39733.29710825,-0.59271240234375,0.7506561279296875,-0.279205322265625,39733.28703125,-3.139455005594135,-1.13943841837687,-0.8561849541983974,0.003485679859295487,0.01351307891309261,-0.008225306868553162,0.005161881446838379,-0.005210638046264648,-0.007256180047988892,XArbitraryZVertical,-0.491093524262964,0.3490417419908511,-0.7658252969806001,0.2247412893215048,-0.5952954888343811,0.7553479671478271,-0.2739940285682678,0,0,0,-1,-1,39729.35849275001,unknown,2,2025-04-22T17:28:06.255+03:00,2025-04-21T17:08:51.449+03:00,9047,1.059065,0,0,7544.334,7,22,2025-04-22T17:22:43.829+03:00,767024888.9439539,0,-11.46,100.3419,1,0.35,2025-04-22T17:26:12.972+03:00,81,1.35,2025-04-22T14:20:19.516+03:00,0.02197104130929222,0
2025-04-22T17:28:10.210+03:00,1745332089.730193,40.95226845434804,29.14031828464809,76.50301,-1,-1,-1,-1,30,26.05091700301345,-9999,39733.30718425,-0.5974884033203125,0.73974609375,-0.2744598388671875,39733.29710825,-3.139566271087095,-1.139406920138217,-0.8560955510844331,-0.008794155903160572,0.00801391713321209,-0.01144560053944588,0.006984710693359375,-0.003336310386657715,-0.006415724754333496,XArbitraryZVertical,-0.4910720132504152,0.3490383423715896,-0.7658612101771622,0.2246712534341139,-0.5953482389450073,0.7552893757820129,-0.2740410268306732,0,0,0,-1,-1,39729.35849275001,unknown,2,2025-04-22T17:28:06.255+03:00,2025-04-21T17:08:51.449+03:00,9047,1.059065,0,0,7544.334,7,22,2025-04-22T17:22:43.829+03:00,767024888.9439539,0,-11.46,100.3419,1,0.35,2025-04-22T17:26:12.972+03:00,81,1.35,2025-04-22T14:20:19.516+03:00,0.02197104130929222,0
2025-04-22T17:28:10.220+03:00,1745332089.730193,40.95226845434804,29.14031828464809,76.50301,-1,-1,-1,-1,30,26.05091700301345,-9999,39733.31726125001,-0.5942535400390625,0.7421417236328125,-0.2725067138671875,39733.30718425,-3.139817030113754,-1.139514464235589,-0.8560214040965219,-0.01123494282364845,0.008612596429884434,-0.01377533376216888,0.001068294048309326,-0.006293594837188721,-0.004945725202560425,XArbitraryZVertical,-0.4910777050150139,0.349059425031114,-0.7658759456501342,0.224575815561191,-0.5954285860061646,0.755240797996521,-0.2740004062652588,0,0,0,-1,-1,39729.35849275001,unknown,2,2025-04-22T17:28:06.255+03:00,2025-04-21T17:08:51.449+03:00,9047,1.059065,0,0,7544.334,7,22,2025-04-22T17:22:43.829+03:00,767024888.9439539,0,-11.46,100.3419,1,0.35,2025-04-22T17:26:12.972+03:00,81,1.35,2025-04-22T14:20:19.516+03:00,0.02197104130929222,0
2025-04-22T17:28:10.230+03:00,1745332089.730193,40.95226845434804,29.14031828464809,76.50301,-1,-1,-1,-1,30,26.05091700301345,-9999,39733.32733725,-0.59796142578125,0.7406463623046875,-0.27447509765625,39733.31726125001,-3.140099183611782,-1.139606634475004,-0.8559096135485498,-0.01293883286416531,0.01625826582312584,-0.01334842853248119,-0.0008134245872497559,-0.01513147354125977,-0.0003724396228790283,XArbitraryZVertical,-0.4910762418780688,0.3490755323781928,-0.7659045051360878,0.2244564535734993,-0.5955305099487305,0.7551674842834473,-0.2739807963371277,0,0,0,-1,-1,39729.35849275001,unknown,2,2025-04-22T17:28:06.255+03:00,2025-04-21T17:08:51.449+03:00,9047,1.059065,0,0,7544.334,7,22,2025-04-22T17:22:43.829+03:00,767024888.9439539,0,-11.46,100.3419,1,0.35,2025-04-22T17:26:12.972+03:00,81,1.35,2025-04-22T14:20:19.516+03:00,0.02197104130929222,0
2025-04-22T17:28:10.241+03:00,1745332089.730193,40.95226845434804,29.14031828464809,76.50301,-1,-1,-1,-1,30,26.05091700301345,-9999,39733.33741425,-0.58935546875,0.7390899658203125,-0.2756500244140625,39733.32733725,-3.140346591147932,-1.139640447959944,-0.8558042223347654,-0.01221079099923372,0.01171111688017845,-0.01729393750429153,0.001404345035552979,-0.01269739866256714,0.001837968826293945,XArbitraryZVertical,-0.4910577884770502,0.3490921161004628,-0.7659423287244937,0.2243417843285735,-0.5956119894981384,0.7550984025001526,-0.2739938795566559,0,0,0,-1,-1,39729.35849275001,unknown,2,2025-04-22T17:28:06.255+03:00,2025-04-21T17:08:51.449+03:00,9047,1.059065,0,0,7544.334,7,22,2025-04-22T17:22:43.829+03:00,767024888.9439539,0,-11.46,100.3419,1,0.35,2025-04-22T17:26:12.972+03:00,81,1.35,2025-04-22T14:20:19.516+03:00,0.02197104130929222,0
2025-04-22T17:28:10.251+03:00,1745332089.730193,40.95226845434804,29.14031828464809,76.50301,-1,-1,-1,-1,30,26.05091700301345,-9999,39733.34749025,-0.586669921875,0.7402496337890625,-0.2773895263671875,39733.33741425,-3.140731090472132,-1.139812310400476,-0.8557317899057726,-0.02818629518151283,0.007049520500004292,-0.01691124029457569,-0.001779496669769287,-0.01466405391693115,-0.0008202791213989258,XArbitraryZVertical,-0.4910645800473964,0.3491394997307634,-0.7659559286842446,0.2242067515804699,-0.5957087874412537,0.7550509572029114,-0.2739143669605255,0,0,0,-1,-1,39729.35849275001,unknown,2,2025-04-22T17:28:06.255+03:00,2025-04-21T17:08:51.449+03:00,9047,1.059065,0,0,7544.334,7,22,2025-04-22T17:22:43.829+03:00,767024888.9439539,0,-11.46,100.3419,1,0.35,2025-04-22T17:26:12.972+03:00,81,1.35,2025-04-22T14:20:19.516+03:00,0.02197104130929222,0
2025-04-22T17:28:10.261+03:00,1745332089.730193,40.95226845434804,29.14031828464809,76.50301,-1,-1,-1,-1,30,26.05091700301345,-9999,39733.35756725,-0.589141845703125,0.7358551025390625,-0.277496337890625,39733.34749025,-3.141308685483309,-1.140175514423933,-0.8557023662841272,-0.04390906542539597,0.002224671421572566,-0.02241799049079418,0.007693767547607422,-0.01546871662139893,-0.002354919910430908,XArbitraryZVertical,-0.4911061254890373,0.3492293527738352,-0.7659366095342965,0.2240417411665106,-0.5958284139633179,0.7550316452980042,-0.2737072706222534,0,0,0,-1,-1,39729.35849275001,unknown,2,2025-04-22T17:28:06.255+03:00,2025-04-21T17:08:51.449+03:00,9047,1.059065,0,0,7544.334,7,22,2025-04-22T17:22:43.829+03:00,767024888.9439539,0,-11.46,100.3419,1,0.35,2025-04-22T17:26:12.972+03:00,81,1.35,2025-04-22T14:20:19.516+03:00,0.02197104130929222,0
2025-04-22T17:28:10.271+03:00,1745332089.730193,40.95226845434804,29.14031828464809,76.50301,-1,-1,-1,-1,30,26.05091700301345,-9999,39733.36764325,-0.5881195068359375,0.7405853271484375,-0.277374267578125,39733.35756725,3.141067902631055,-1.140760314860219,-0.8556981707855028,-0.05459073930978775,-0.002354899886995554,-0.02358445525169373,0.008589088916778564,-0.01522183418273926,-0.004288971424102783,XArbitraryZVertical,-0.4911892968988755,0.3493608598412059,-0.7658843416645303,0.2238331147354278,-0.595991313457489,0.7550289034843445,-0.2733601331710815,0,0,0,-1,-1,39729.35849275001,unknown,2,2025-04-22T17:28:06.255+03:00,2025-04-21T17:08:51.449+03:00,9047,1.059065,0,0,7544.334,7,22,2025-04-22T17:22:43.829+03:00,767024888.9439539,0,-11.46,100.3419,1,0.35,2025-04-22T17:26:12.972+03:00,81,1.35,2025-04-22T14:20:19.516+03:00,0.02197104130929222,0
2025-04-22T17:28:10.281+03:00,1745332089.730193,40.95226845434804,29.14031828464809,76.50301,-1,-1,-1,-1,30,26.05091700301345,-9999,39733.37772025001,-0.5899658203125,0.7454833984375,-0.2729644775390625,39733.36764325,3.140192692266318,-1.141402976792983,-0.8556977272151777,-0.05722101032733917,-0.0006159893237054348,-0.02769364602863789,0.007544100284576416,-0.01883786916732788,-0.004458367824554443,XArbitraryZVertical,-0.4912825553543293,0.3495037894584099,-0.7658242980300628,0.2236102250153402,-0.5961669683456421,0.7550286054611206,-0.2729771137237549,0,0,0,-1,-1,39729.35849275001,unknown,2,2025-04-22T17:28:06.255+03:00,2025-04-21T17:08:51.449+03:00,9047,1.059065,0,0,7544.334,7,22,2025-04-22T17:22:43.829+03:00,767024888.9439539,0,-11.46,100.3419,1,0.35,2025-04-22T17:26:12.972+03:00,81,1.35,2025-04-22T14:20:19.516+03:00,0.02197104130929222,0
2025-04-22T17:28:10.291+03:00,1745332089.730193,40.95226845434804,29.14031828464809,76.50301,-1,-1,-1,-1,30,26.05091700301345,-9999,39733.387794625,-0.5933380126953125,0.74993896484375,-0.2727203369140625,39733.37772025001,3.139294426911367,-1.14208415016399,-0.8557040460407294,-0.05366941541433334,0.005055744666606188,-0.02036728896200657,0.00845801830291748,-0.01417285203933716,-0.004347681999206543,XArbitraryZVertical,-0.4913856388973465,0.3496507489225109,-0.7657563375047961,0.2233868533664389,-0.5963485836982727,0.7550327181816101,-0.2725690007209778,0,0,0,-1,-1,39729.35849275001,unknown,2,2025-04-22T17:28:06.255+03:00,2025-04-21T17:08:51.449+03:00,9047,1.059065,0,0,7544.334,7,22,2025-04-22T17:22:43.829+03:00,767024888.9439539,0,-11.46,100.3419,1,0.35,2025-04-22T17:26:12.972+03:00,81,1.35,2025-04-22T14:20:19.516+03:00,0.02197104130929222,0
2025-04-22T17:28:10.301+03:00,1745332089.730193,40.95226845434804,29.14031828464809,76.50301,-1,-1,-1,-1,30,26.05091700301345,-9999,39733.39787162501,-0.595672607421875,0.7505340576171875,-0.2710113525390625,39733.387794625,3.138433384535007,-1.142729308181306,-0.8556865016883547,-0.05199522152543068,0.002419614931568503,-0.02230214327573776,0.005456745624542236,-0.008347690105438232,-0.0007444024085998535,XArbitraryZVertical,-0.4914840617011252,0.3497835854614766,-0.7656969971907371,0.2231656816469991,-0.5965363383293152,0.7550212144851685,-0.2721897065639496,0,0,0,-1,-1,39729.35849275001,unknown,2,2025-04-22T17:28:06.255+03:00,2025-04-21T17:08:51.449+03:00,9047,1.059065,0,0,7544.334,7,22,2025-04-22T17:22:43.829+03:00,767024888.9439539,0,-11.46,100.3419,1,0.35,2025-04-22T17:26:12.972+03:00,81,1.35,2025-04-22T14:20:19.516+03:00,0.02197104130929222,0
2025-04-22T17:28:10.311+03:00,1745332089.730193,40.95226845434804,29.14031828464809,76.50301,-1,-1,-1,-1,30,26.05091700301345,-9999,39733.407947625,-0.5971527099609375,0.7540740966796875,-0.2728729248046875,39733.39787162501,3.137512910275572,-1.143382368783759,-0.855629414544342,-0.05682539567351341,0.004258261062204838,-0.02381614968180656,0.003476321697235107,-0.005182206630706787,-0.00123828649520874,XArbitraryZVertical,-0.4915795133107812,0.3499151486494236,-0.7656490573794065,0.2229134725191804,-0.5967531800270081,0.7549837827682495,-0.2718179523944855,0,0,0,-1,-1,39729.35849275001,unknown,2,2025-04-22T17:28:06.255+03:00,2025-04-21T17:08:51.449+03:00,9047,1.059065,0,0,7544.334,7,22,2025-04-22T17:22:43.829+03:00,767024888.9439539,0,-11.46,100.3419,1,0.35,2025-04-22T17:26:12.972+03:00,81,1.35,2025-04-22T14:20:19.516+03:00,0.02197104130929222,0
2025-04-22T17:28:10.321+03:00,1745332089.730193,40.95226845434804,29.14031828464809,76.50301,-1,-1,-1,-1,30,26.05091700301345,-9999,39733.418023625,-0.5947418212890625,0.7497100830078125,-0.2725067138671875,39733.407947625,3.136532473460801,-1.144082072883143,-0.8556451243746066,-0.06463964283466339,0.002438256982713938,-0.02206392399966717,0.0006343722343444824,-0.00462794303894043,0.000322878360748291,XArbitraryZVertical,-0.4916740057087624,0.3500842113299008,-0.7655835818885292,0.2226644587193919,-0.5969324707984924,0.7549940943717957,-0.2713954448699951,0,0,0,-1,-1,39729.35849275001,unknown,2,2025-04-22T17:28:06.255+03:00,2025-04-21T17:08:51.449+03:00,9047,1.059065,0,0,7544.334,7,22,2025-04-22T17:22:43.829+03:00,767024888.9439539,0,-11.46,100.3419,1,0.35,2025-04-22T17:26:12.972+03:00,81,1.35,2025-04-22T14:20:19.516+03:00,0.02197104130929222,0
2025-04-22T17:28:10.331+03:00,1745332089.730193,40.95226845434804,29.14031828464809,76.50301,-1,-1,-1,-1,30,26.05091700301345,-9999,39733.428100625,-0.5963134765625,0.753021240234375,-0.2718353271484375,39733.418023625,3.135520636493308,-1.144772558398682,-0.8556495757822411,-0.06071095168590546,0.01063466817140579,-0.01910142414271832,0.0002540349960327148,-0.0007398724555969238,-0.002364277839660645,XArbitraryZVertical,-0.4917606346081488,0.3502578465478134,-0.7655256920141804,0.2223991149797543,-0.5971167087554932,0.7549970149993896,-0.2709818482398987,0,0,0,-1,-1,39729.35849275001,unknown,2,2025-04-22T17:28:06.255+03:00,2025-04-21T17:08:51.449+03:00,9047,1.059065,0,0,7544.334,7,22,2025-04-22T17:22:43.829+03:00,767024888.9439539,0,-11.46,100.3419,1,0.35,2025-04-22T17:26:12.972+03:00,81,1.35,2025-04-22T14:20:19.516+03:00,0.02197104130929222,0
2025-04-22T17:28:10.342+03:00,1745332089.730193,40.95226845434804,29.14031828464809,76.50301,-1,-1,-1,-1,30,26.05091700301345,-9999,39733.438176625,-0.596893310546875,0.7560272216796875,-0.2700347900390625,39733.428100625,3.134633234174667,-1.145275114855966,-0.8556856378358413,-0.05455378815531731,0.01893167942762375,-0.01813273131847382,0.002013146877288818,-0.005798995494842529,-0.002599447965621948,XArbitraryZVertical,-0.491793479336842,0.3504339958712925,-0.7654942760913493,0.2221564947309302,-0.5972278118133545,0.7550206780433655,-0.2706703841686249,0,0,0,-1,-1,39729.35849275001,unknown,2,2025-04-22T17:28:06.255+03:00,2025-04-21T17:08:51.449+03:00,9047,1.059065,0,0,7544.334,7,22,2025-04-22T17:22:43.829+03:00,767024888.9439539,0,-11.46,100.3419,1,0.35,2025-04-22T17:26:12.972+03:00,81,1.35,2025-04-22T14:20:19.516+03:00,0.02197104130929222,0
2025-04-22T17:28:10.352+03:00,1745332089.730193,40.95226845434804,29.14031828464809,76.50301,-1,-1,-1,-1,30,26.05091700301345,-9999,39733.448253625,-0.5987091064453125,0.7539825439453125,-0.2697601318359375,39733.438176625,3.133888320271493,-1.1455941721154,-0.8556969929241756,-0.04525003582239151,0.02105501666665077,-0.01678570546209812,0.001282989978790283,-0.001427114009857178,-0.001557528972625732,XArbitraryZVertical,-0.4917837342493491,0.3505860659025386,-0.7654966788135537,0.2219300467820379,-0.597306489944458,0.7550281286239624,-0.2704763412475586,0,0,0,-1,-1,39729.35849275001,unknown,2,2025-04-22T17:28:06.255+03:00,2025-04-21T17:08:51.449+03:00,9047,1.059065,0,0,7544.334,7,22,2025-04-22T17:22:43.829+03:00,767024888.9439539,0,-11.46,100.3419,1,0.35,2025-04-22T17:26:12.972+03:00,81,1.35,2025-04-22T14:20:19.516+03:00,0.02197104130929222,0
2025-04-22T17:28:10.362+03:00,1745332089.730193,40.95226845434804,29.14031828464809,76.50301,-1,-1,-1,-1,30,26.05091700301345,-9999,39733.45832962501,-0.6002655029296875,0.7525634765625,-0.2720947265625,39733.448253625,3.133272413645547,-1.145772741508283,-0.8556680337645877,-0.03892536088824272,0.0295520331710577,-0.01808482781052589,0.0001610517501831055,0.001124799251556396,0.0007252097129821777,XArbitraryZVertical,-0.4917473960317333,0.3507066398747779,-0.7655261303384204,0.2217184389766091,-0.5973746776580811,0.7550091147422791,-0.2703787088394165,0,0,0,-1,-1,39729.35849275001,unknown,2,2025-04-22T17:28:06.255+03:00,2025-04-21T17:08:51.449+03:00,9047,1.059065,0,0,7544.334,7,22,2025-04-22T17:22:43.829+03:00,767024888.9439539,0,-11.46,100.3419,1,0.35,2025-04-22T17:26:12.972+03:00,81,1.35,2025-04-22T14:20:19.516+03:00,0.02197104130929222,0
2025-04-22T17:28:10.372+03:00,1745332089.730193,40.95226845434804,29.14031828464809,76.50301,-1,-1,-1,-1,30,26.05091700301345,-9999,39733.468406625,-0.599853515625,0.7538909912109375,-0.2743377685546875,39733.45832962501,3.13269776017266,-1.145870135252001,-0.8556528248289854,-0.03602224960923195,0.02910515479743481,-0.01668267324566841,-0.0006871223449707031,-0.002008497714996338,0.001129508018493652,XArbitraryZVertical,-0.4916856225092928,0.3508313221046356,-0.7655685157624493,0.2215117871903835,-0.5974115133285522,0.7549991607666016,-0.2703252732753754,0,0,0,-1,-1,39729.35849275001,unknown,2,2025-04-22T17:28:06.255+03:00,2025-04-21T17:08:51.449+03:00,9047,1.059065,0,0,7544.334,7,22,2025-04-22T17:22:43.829+03:00,767024888.9439539,0,-11.46,100.3419,1,0.35,2025-04-22T17:26:12.972+03:00,81,1.35,2025-04-22T14:20:19.516+03:00,0.02197104130929222,0
2025-04-22T17:28:10.382+03:00,1745332089.730193,40.95226845434804,29.14031828464809,76.50301,-1,-1,-1,-1,30,26.05091700301345,-9999,39733.478482625,-0.5961761474609375,0.755523681640625,-0.27532958984375,39733.468406625,3.132157168891629,-1.145979821958231,-0.8556365048377798,-0.03163022920489311,0.02675644680857658,-0.015085075981915,-0.002233266830444336,-0.001921594142913818,-0.001647025346755981,XArbitraryZVertical,-0.4916346596203287,0.3509458622003918,-0.7656040517189165,0.2213201380151757,-0.5974522233009338,0.754988431930542,-0.2702647149562836,0,0,0,-1,-1,39729.35849275001,unknown,2,2025-04-22T17:28:06.255+03:00,2025-04-21T17:08:51.449+03:00,9047,1.059065,0,0,7544.334,7,22,2025-04-22T17:22:43.829+03:00,767024888.9439539,0,-11.46,100.3419,1,0.35,2025-04-22T17:26:12.972+03:00,81,1.35,2025-04-22T14:20:19.516+03:00,0.02197104130929222,0
2025-04-22T17:28:10.392+03:00,1745332089.730193,40.95226845434804,29.14031828464809,76.50301,-1,-1,-1,-1,30,26.05091700301345,-9999,39733.488559625,-0.5961151123046875,0.7621612548828125,-0.272674560546875,39733.478482625,3.131649889633798,-1.146068910406176,-0.8555763635332309,-0.02685757726430893,0.02823450043797493,-0.02050247974693775,-0.001725316047668457,-0.001241207122802734,-0.00416874885559082,XArbitraryZVertical,-0.4915866024438401,0.3510377349943229,-0.7656487404744016,0.2211266649707332,-0.597517728805542,0.7549490332603455,-0.270230233669281,0,0,0,-1,-1,39729.35849275001,unknown,2,2025-04-22T17:28:06.255+03:00,2025-04-21T17:08:51.449+03:00,9047,1.059065,0,0,7544.334,7,22,2025-04-22T17:22:43.829+03:00,767024888.9439539,0,-11.46,100.3419,1,0.35,2025-04-22T17:26:12.972+03:00,81,1.35,2025-04-22T14:20:19.516+03:00,0.02197104130929222,0
2025-04-22T17:28:10.402+03:00,1745332089.730193,40.95226845434804,29.14031828464809,76.50301,-1,-1,-1,-1,30,26.05091700301345,-9999,39733.498635625,-0.593475341796875,0.753692626953125,-0.27435302734375,39733.488559625,3.131194252427806,-1.146134563814253,-0.8555021615017629,-0.02453097514808178,0.02779141627252102,-0.01754087768495083,0.001837730407714844,0.001508235931396484,-0.004367977380752563,XArbitraryZVertical,-0.4915402450758029,0.351114144435241,-0.7656957957620898,0.2209453878670836,-0.5975865125656128,0.754900336265564,-0.2702140808105469,0,0,0,-1,-1,39729.35849275001,unknown,2,2025-04-22T17:28:06.255+03:00,2025-04-21T17:08:51.449+03:00,9047,1.059065,0,0,7544.334,7,22,2025-04-22T17:22:43.829+03:00,767024888.9439539,0,-11.46,100.3419,1,0.35,2025-04-22T17:26:12.972+03:00,81,1.35,2025-04-22T14:20:19.516+03:00,0.02197104130929222,0
2025-04-22T17:28:10.412+03:00,1745332089.730193,40.95226845434804,29.14031828464809,76.50301,-1,-1,-1,-1,30,26.05091700301345,-9999,39733.508712625,-0.595123291015625,0.748626708984375,-0.273681640625,39733.498635625,3.130734545720932,-1.14619355075787,-0.8554360048303903,-0.02855447866022587,0.02827824279665947,-0.01897046156227589,0.001487135887145996,0.007227838039398193,-0.002017587423324585,XArbitraryZVertical,-0.491489696931327,0.3511953627058252,-0.7657434589097243,0.2207633818324047,-0.5976479053497314,0.7548569440841675,-0.2701993882656097,0,0,0,-1,-1,39729.35849275001,unknown,2,2025-04-22T17:28:06.255+03:00,2025-04-21T17:08:51.449+03:00,9047,1.059065,0,0,7544.334,7,22,2025-04-22T17:22:43.829+03:00,767024888.9439539,0,-11.46,100.3419,1,0.35,2025-04-22T17:26:12.972+03:00,81,1.35,2025-04-22T14:20:19.516+03:00,0.02197104130929222,0
2025-04-22T17:28:10.422+03:00,1745332089.730193,40.95226845434804,29.14031828464809,76.50301,-1,-1,-1,-1,30,26.05091700301345,-9999,39733.51878862501,-0.5958251953125,0.750762939453125,-0.274627685546875,39733.508712625,3.13025176365806,-1.146272888764297,-0.8553739866285409,-0.02570695988833904,0.02803702652454376,-0.0188138335943222,0.004755556583404541,-0.00301593542098999,-0.004487127065658569,XArbitraryZVertical,-0.4914424013680395,0.3512815809130879,-0.7657879105159877,0.2205771256240942,-0.5977119207382202,0.7548162937164307,-0.2701712250709534,0,0,0,-1,-1,39729.35849275001,unknown,2,2025-04-22T17:28:06.255+03:00,2025-04-21T17:08:51.449+03:00,9047,1.059065,0,0,7544.334,7,22,2025-04-22T17:22:43.829+03:00,767024888.9439539,0,-11.46,100.3419,1,0.35,2025-04-22T17:26:12.972+03:00,81,1.35,2025-04-22T14:20:19.516+03:00,0.02197104130929222,0
2025-04-22T17:28:10.432+03:00,1745332089.730193,40.95226845434804,29.14031828464809,76.50301,-1,-1,-1,-1,30,26.05091700301345,-9999,39733.528865625,-0.59539794921875,0.7488250732421875,-0.2769775390625,39733.51878862501,3.129778785101747,-1.146342483665295,-0.855331692276121,-0.029324596747756,0.03225201368331909,-0.01800263486802578,0.002484261989593506,-0.006192386150360107,-0.003828883171081543,XArbitraryZVertical,-0.4913907842885747,0.3513739634655021,-0.7658304379830602,0.2203976870193038,-0.597760021686554,0.7547885179519653,-0.2701428830623627,0,0,0,-1,-1,39729.35849275001,unknown,2,2025-04-22T17:28:06.255+03:00,2025-04-21T17:08:51.449+03:00,9047,1.059065,0,0,7544.334,7,22,2025-04-22T17:22:43.829+03:00,767024888.9439539,0,-11.46,100.3419,1,0.35,2025-04-22T17:26:12.972+03:00,81,1.35,2025-04-22T14:20:19.516+03:00,0.02197104130929222,0
2025-04-22T17:28:10.443+03:00,1745332089.730193,40.95226845434804,29.14031828464809,76.50301,-1,-1,-1,-1,30,26.05091700301345,-9999,39733.538941625,-0.5949554443359375,0.749908447265625,-0.2760772705078125,39733.528865625,3.129229146586628,-1.146461573494699,-0.8553054125423513,-0.03272219374775887,0.03103767707943916,-0.01757862791419029,0.001832544803619385,-0.003733694553375244,-0.004868477582931519,XArbitraryZVertical,-0.4913428247568605,0.3514858564833034,-0.7658662518374935,0.2202016356425291,-0.5978102684020996,0.7547712922096252,-0.2700798511505127,0,0,0,-1,-1,39729.35849275001,unknown,2,2025-04-22T17:28:06.255+03:00,2025-04-21T17:08:51.449+03:00,9047,1.059065,0,0,7544.334,7,22,2025-04-22T17:22:43.829+03:00,767024888.9439539,0,-11.46,100.3419,1,0.35,2025-04-22T17:26:12.972+03:00,81,1.35,2025-04-22T14:20:19.516+03:00,0.02197104130929222,0
2025-04-22T17:28:10.452+03:00,1745332089.730193,40.95226845434804,29.14031828464809,76.50301,-1,-1,-1,-1,30,26.05091700301345,-9999,39733.549018625,-0.59539794921875,0.7506103515625,-0.276031494140625,39733.538941625,3.128626872033695,-1.146621943504407,-0.8552867991238001,-0.03582637384533882,0.02907599322497845,-0.01645637303590775,0.001995563507080078,-0.005735695362091064,-0.007583081722259521,XArbitraryZVertical,-0.4913005051032441,0.351609057631909,-0.7658963855504431,0.2199945583333998,-0.597866415977478,0.7547590732574463,-0.2699897587299347,0,0,0,-1,-1,39729.35849275001,unknown,2,2025-04-22T17:28:06.255+03:00,2025-04-21T17:08:51.449+03:00,9047,1.059065,0,0,7544.334,7,22,2025-04-22T17:22:43.829+03:00,767024888.9439539,0,-11.46,100.3419,1,0.35,2025-04-22T17:26:12.972+03:00,81,1.35,2025-04-22T14:20:19.516+03:00,0.02197104130929222,0
2025-04-22T17:28:10.463+03:00,1745332089.730193,40.95226845434804,29.14031828464809,76.50301,-1,-1,-1,-1,30,26.05091700301345,-9999,39733.559094625,-0.5933837890625,0.7509002685546875,-0.276092529296875,39733.549018625,3.127987605233352,-1.146824342155681,-0.8552979083556475,-0.05042988434433937,0.02748122625052929,-0.005631187930703163,0.003141164779663086,-0.004827380180358887,-0.006303697824478149,XArbitraryZVertical,-0.4912643228251434,0.3517480691660947,-0.7659150672769061,0.2197880789138266,-0.5979134440422058,0.7547664046287537,-0.2698653340339661,0,0,0,-1,-1,39729.35849275001,unknown,2,2025-04-22T17:28:06.255+03:00,2025-04-21T17:08:51.449+03:00,9047,1.059065,0,0,7544.334,7,22,2025-04-22T17:22:43.829+03:00,767024888.9439539,0,-11.46,100.3419,1,0.35,2025-04-22T17:26:12.972+03:00,81,1.35,2025-04-22T14:20:19.516+03:00,0.02197104130929222,0
2025-04-22T17:28:10.481+03:00,1745332089.730193,40.95226845434804,29.14031828464809,76.50301,-1,-1,-1,-1,30,26.05091700301345,-9999,39733.569171625,-0.5949859619140625,0.74688720703125,-0.27532958984375,39733.559094625,3.127313981169976,-1.147064877821055,-0.8553272404356429,-0.03875671699643135,0.028102807700634,-0.01760582439601421,0.003109633922576904,-0.004572033882141113,-0.006197214126586914,XArbitraryZVertical,-0.4912345639266259,0.3518982953494361,-0.7659249071175896,0.2195797022857355,-0.5979581475257874,0.7547855973243713,-0.2697123885154724,0,0,0,-1,-1,39729.35849275001,unknown,2,2025-04-22T17:28:06.255+03:00,2025-04-21T17:08:51.449+03:00,9047,1.059065,0,0,7544.334,7,22,2025-04-22T17:22:43.829+03:00,767024888.9439539,0,-11.46,100.3419,1,0.35,2025-04-22T17:26:12.972+03:00,81,1.35,2025-04-22T14:20:19.516+03:00,0.02197104130929222,0
2025-04-22T17:28:10.484+03:00,1745332089.730193,40.95226845434804,29.14031828464809,76.50301,-1,-1,-1,-1,30,26.05091700301345,-9999,39733.579247625,-0.5959930419921875,0.741546630859375,-0.273162841796875,39733.569171625,3.126693676483797,-1.147239517071029,-0.8553349748095896,-0.03916171565651894,0.02426978573203087,-0.0161646232008934,0.004433095455169678,-0.003768384456634521,-0.007082283496856689,XArbitraryZVertical,-0.4911913972967221,0.3520344355905041,-0.7659487109379495,0.2193748173927347,-0.5979998707771301,0.7547906637191772,-0.2696055471897125,0,0,0,-1,-1,39729.35849275001,unknown,2,2025-04-22T17:28:06.255+03:00,2025-04-21T17:08:51.449+03:00,9047,1.059065,0,0,7544.334,7,22,2025-04-22T17:22:43.829+03:00,767024888.9439539,0,-11.46,100.3419,1,0.35,2025-04-22T17:26:12.972+03:00,81,1.35,2025-04-22T14:20:19.516+03:00,0.02197104130929222,0
2025-04-22T17:28:10.493+03:00,1745332089.730193,40.95226845434804,29.14031828464809,76.50301,-1,-1,-1,-1,30,26.05091700301345,-9999,39733.589323625,-0.5956573486328125,0.7471771240234375,-0.2732696533203125,39733.579247625,3.126043522235376,-1.147453342320056,-0.8553713447148835,-0.0406152680516243,0.02913831174373627,-0.0191446989774704,0.002253174781799316,-0.009453177452087402,-0.005771845579147339,XArbitraryZVertical,-0.4911546184860921,0.352184523302304,-0.7659612553915297,0.2191724765261355,-0.598032534122467,0.7548145651817322,-0.2694664001464844,0,0,0,-1,-1,39729.35849275001,unknown,2,2025-04-22T17:28:06.255+03:00,2025-04-21T17:08:51.449+03:00,9047,1.059065,0,0,7544.334,7,22,2025-04-22T17:22:43.829+03:00,767024888.9439539,0,-11.46,100.3419,1,0.35,2025-04-22T17:26:12.972+03:00,81,1.35,2025-04-22T14:20:19.516+03:00,0.02197104130929222,0
2025-04-22T17:28:10.503+03:00,1745332089.730193,40.95226845434804,29.14031828464809,76.50301,-1,-1,-1,-1,30,26.05091700301345,-9999,39733.599400625,-0.595458984375,0.752960205078125,-0.2723236083984375,39733.589323625,3.125405506947415,-1.147618807344572,-0.8553406941989987,-0.03904780000448227,0.02823543362319469,-0.02232787571847439,0.001571059226989746,-0.01259177923202515,-0.004228651523590088,XArbitraryZVertical,-0.4911091877512817,0.3523114068914128,-0.76599563847282,0.2189497217878849,-0.5980980396270752,0.7547944188117981,-0.2693768739700317,0,0,0,-1,-1,39729.35849275001,unknown,2,2025-04-22T17:28:06.255+03:00,2025-04-21T17:08:51.449+03:00,9047,1.059065,0,0,7544.334,7,22,2025-04-22T17:22:43.829+03:00,767024888.9439539,0,-11.46,100.3419,1,0.35,2025-04-22T17:26:12.972+03:00,81,1.35,2025-04-22T14:20:19.516+03:00,0.02197104130929222,0
2025-04-22T17:28:10.513+03:00,1745332089.730193,40.95226845434804,29.14031828464809,76.50301,-1,-1,-1,-1,30,26.05091700301345,-9999,39733.609476625,-0.589935302734375,0.75439453125,-0.274322509765625,39733.599400625,3.124802682384518,-1.147758268412468,-0.8552793684866682,-0.03741022199392319,0.03058247640728951,-0.01867588236927986,0.002551078796386719,-0.006814301013946533,-0.003652185201644897,XArbitraryZVertical,-0.4910634945796649,0.3524207940443381,-0.7660378931668013,0.2187281794245093,-0.5981777906417847,0.7547541856765747,-0.2693124711513519,0,0,0,-1,-1,39729.35849275001,unknown,2,2025-04-22T17:28:06.255+03:00,2025-04-21T17:08:51.449+03:00,9047,1.059065,0,0,7544.334,7,22,2025-04-22T17:22:43.829+03:00,767024888.9439539,0,-11.46,100.3419,1,0.35,2025-04-22T17:26:12.972+03:00,81,1.35,2025-04-22T14:20:19.516+03:00,0.02197104130929222,0
2025-04-22T17:28:10.523+03:00,1745332089.730193,40.95226845434804,29.14031828464809,76.50301,-1,-1,-1,-1,30,26.05091700301345,-9999,39733.619553625,-0.587127685546875,0.75579833984375,-0.275604248046875,39733.609476625,3.124160719030963,-1.147927711932889,-0.8552593056021871,-0.0334588885307312,0.03226852416992188,-0.02399155125021935,0.003617584705352783,-0.0009416937828063965,-0.002953886985778809,XArbitraryZVertical,-0.4910175803146447,0.3525522425242775,-0.7660699044243439,0.2185071726884409,-0.5982372164726257,0.7547410726547241,-0.269217312335968,0,0,0,-1,-1,39729.35849275001,unknown,2,2025-04-22T17:28:06.255+03:00,2025-04-21T17:08:51.449+03:00,9047,1.059065,0,0,7544.334,7,22,2025-04-22T17:22:43.829+03:00,767024888.9439539,0,-11.46,100.3419,1,0.35,2025-04-22T17:26:12.972+03:00,81,1.35,2025-04-22T14:20:19.516+03:00,0.02197104130929222,0
2025-04-22T17:28:10.533+03:00,1745332089.730193,40.95226845434804,29.14031828464809,76.50301,-1,-1,-1,-1,30,26.05091700301345,-9999,39733.629629625,-0.5894775390625,0.75360107421875,-0.2754058837890625,39733.619553625,3.123614529450773,-1.147986419998124,-0.8551156408574236,-0.03212570771574974,0.02968445792794228,-0.03128728270530701,0.008584678173065186,5.292892456054688e-05,-0.005340129137039185,XArbitraryZVertical,-0.4909604106996255,0.3526251559331111,-0.7661399899323309,0.2182725177594217,-0.5983520746231079,0.7546467781066895,-0.2692267596721649,0,0,0,-1,-1,39729.35849275001,unknown,2,2025-04-22T17:28:06.255+03:00,2025-04-21T17:08:51.449+03:00,9047,1.059065,0,0,7544.334,7,22,2025-04-22T17:22:43.829+03:00,767024888.9439539,0,-11.46,100.3419,1,0.35,2025-04-22T17:28:09.394+03:00,81,1.35,2025-04-22T14:20:19.516+03:00,0.02197104130929222,0
2025-04-22T17:28:10.543+03:00,1745332089.730193,40.95226845434804,29.14031828464809,76.50301,-1,-1,-1,-1,30,26.05091700301345,-9999,39733.639706625,-0.5899505615234375,0.760345458984375,-0.271942138671875,39733.629629625,3.123020621197736,-1.148080697878083,-0.8549661150103345,-0.03574467822909355,0.03601319342851639,-0.02613739483058453,0.01110851764678955,0.0007155537605285645,-0.006296277046203613,XArbitraryZVertical,-0.4909091623438885,0.352703688362338,-0.7662072797098358,0.2180244625242457,-0.5984802842140198,0.7545486688613892,-0.2692165970802307,0,0,0,-1,-1,39729.35849275001,unknown,2,2025-04-22T17:28:06.255+03:00,2025-04-21T17:08:51.449+03:00,9047,1.059065,0,0,7544.334,7,22,2025-04-22T17:22:43.829+03:00,767024888.9439539,0,-11.46,100.3419,1,0.35,2025-04-22T17:28:09.394+03:00,125,2.083333333333333,2025-04-22T14:20:19.516+03:00,0.02197104130929222,0
2025-04-22T17:28:10.553+03:00,1745332089.730193,40.95226845434804,29.14031828464809,76.50301,-1,-1,-1,-1,30,26.05091700301345,-9999,39733.64978262501,-0.5971527099609375,0.7492218017578125,-0.2718048095703125,39733.639706625,3.122448824978261,-1.148136743887085,-0.8547794383451573,-0.02920981496572495,0.03753039613366127,-0.03269090130925179,0.009848296642303467,-0.000474095344543457,-0.005524367094039917,XArbitraryZVertical,-0.4908514606087347,0.3527667927243274,-0.7662879386324724,0.2177688175225012,-0.5986238718032837,0.7544261813163757,-0.2692408561706543,0,0,0,-1,-1,39729.35849275001,unknown,2,2025-04-22T17:28:06.255+03:00,2025-04-21T17:08:51.449+03:00,9047,1.059065,0,0,7544.334,7,22,2025-04-22T17:22:43.829+03:00,767024888.9439539,0,-11.46,100.3419,1,0.35,2025-04-22T17:28:09.394+03:00,125,2.083333333333333,2025-04-22T14:20:19.516+03:00,0.02197104130929222,0
2025-04-22T17:28:10.563+03:00,1745332089.730193,40.95226845434804,29.14031828464809,76.50301,-1,-1,-1,-1,30,26.05091700301345,-9999,39733.659859625,-0.59490966796875,0.744293212890625,-0.2744140625,39733.64978262501,3.121887967912838,-1.148179613527755,-0.8546011976394756,-0.03041263297200203,0.03501544147729874,-0.02848237566649914,0.008624374866485596,0.005380034446716309,-0.002626270055770874,XArbitraryZVertical,-0.4907896991190692,0.3528318800848529,-0.7663688733718633,0.2175172117189017,-0.5987578630447388,0.7543091773986816,-0.269270271062851,0,0,0,-1,-1,39729.35849275001,unknown,2,2025-04-22T17:28:06.255+03:00,2025-04-21T17:08:51.449+03:00,9047,1.059065,0,0,7544.334,7,22,2025-04-22T17:22:43.829+03:00,767024888.9439539,0,-11.46,100.3419,1,0.35,2025-04-22T17:28:09.394+03:00,125,2.083333333333333,2025-04-22T14:20:19.516+03:00,0.02197104130929222,0
2025-04-22T17:28:10.573+03:00,1745332089.730193,40.95226845434804,29.14031828464809,76.50301,-1,-1,-1,-1,30,26.05091700301345,-9999,39733.669935625,-0.593597412109375,0.7548828125,-0.2809906005859375,39733.659859625,3.121361407137916,-1.148159899445397,-0.8544341576147296,-0.02479922212660313,0.04227441921830177,-0.03149547427892685,0.002142250537872314,-0.007113993167877197,-0.002898424863815308,XArbitraryZVertical,-0.4907086575165205,0.3528995818016516,-0.7664596842237585,0.2172703413545143,-0.5988675951957703,0.7541995048522949,-0.2693338096141815,0,0,0,-1,-1,39729.35849275001,unknown,2,2025-04-22T17:28:06.255+03:00,2025-04-21T17:08:51.449+03:00,9047,1.059065,0,0,7544.334,7,22,2025-04-22T17:22:43.829+03:00,767024888.9439539,0,-11.46,100.3419,1,0.35,2025-04-22T17:28:09.394+03:00,125,2.083333333333333,2025-04-22T14:20:19.516+03:00,0.02197104130929222,0
2025-04-22T17:28:10.584+03:00,1745332089.730193,40.95226845434804,29.14031828464809,76.50301,-1,-1,-1,-1,30,26.05091700301345,-9999,39733.680012625,-0.5929718017578125,0.7564544677734375,-0.2863616943359375,39733.669935625,3.120904729131671,-1.148016196017133,-0.8541942630529014,-0.01722099632024765,0.05160021036863327,-0.02748025953769684,0.004435300827026367,-0.00919950008392334,-0.005362629890441895,XArbitraryZVertical,-0.4906009092106047,0.3529358236837178,-0.7665856875567267,0.2170102272879346,-0.5989938974380493,0.7540419101715088,-0.2694941163063049,0,0,0,-1,-1,39729.35849275001,unknown,2,2025-04-22T17:28:06.255+03:00,2025-04-21T17:08:51.449+03:00,9047,1.059065,0,0,7544.334,7,22,2025-04-22T17:22:43.829+03:00,767024888.9439539,0,-11.46,100.3419,1,0.35,2025-04-22T17:28:09.394+03:00,125,2.083333333333333,2025-04-22T14:20:19.516+03:00,0.02197104130929222,0
2025-04-22T17:28:10.594+03:00,1745332089.730193,40.95226845434804,29.14031828464809,76.50301,-1,-1,-1,-1,30,26.05091700301345,-9999,39733.690088625,-0.590057373046875,0.7589569091796875,-0.2891998291015625,39733.680012625,3.120487255049111,-1.147858327720769,-0.8539646827134233,-0.01504838932305574,0.04696178436279297,-0.03428037464618683,0.005160927772521973,0.001891911029815674,-0.01137685775756836,XArbitraryZVertical,-0.4904934510598307,0.3529678751624644,-0.7667090072036911,0.216765197112168,-0.5991091728210449,0.7538911104202271,-0.269659698009491,0,0,0,-1,-1,39729.35849275001,unknown,2,2025-04-22T17:28:06.255+03:00,2025-04-21T17:08:51.449+03:00,9047,1.059065,0,0,7544.334,7,22,2025-04-22T17:22:43.829+03:00,767024888.9439539,0,-11.46,100.3419,1,0.35,2025-04-22T17:28:09.394+03:00,125,2.083333333333333,2025-04-22T14:20:19.516+03:00,0.02197104130929222,0
2025-04-22T17:28:10.604+03:00,1745332089.730193,40.95226845434804,29.14031828464809,76.50301,-1,-1,-1,-1,30,26.05091700301345,-9999,39733.700165625,-0.5926666259765625,0.7507476806640625,-0.2886199951171875,39733.690088625,3.120101143090895,-1.147687695448908,-0.8537227221332977,-0.01402373891323805,0.04359887912869453,-0.03489629924297333,0.007051229476928711,0.002524018287658691,-0.01676920056343079,XArbitraryZVertical,-0.4903880597567591,0.3529888507449875,-0.7668341526894705,0.216526800256781,-0.5992295145988464,0.7537321448326111,-0.2698368430137634,0,0,0,-1,-1,39729.35849275001,unknown,2,2025-04-22T17:28:06.255+03:00,2025-04-21T17:08:51.449+03:00,9047,1.059065,0,0,7544.334,7,22,2025-04-22T17:22:43.829+03:00,767024888.9439539,0,-11.46,100.3419,1,0.35,2025-04-22T17:28:09.394+03:00,125,2.083333333333333,2025-04-22T14:20:19.516+03:00,0.02197104130929222,0
2025-04-22T17:28:10.614+03:00,1745332089.730193,40.95226845434804,29.14031828464809,76.50301,-1,-1,-1,-1,30,26.05091700301345,-9999,39733.71024162501,-0.593902587890625,0.750152587890625,-0.2848663330078125,39733.700165625,3.119714504735837,-1.147491735431279,-0.8535145341942538,-0.0227341391146183,0.04753796011209488,-0.03009515255689621,0.008636772632598877,0.005193710327148438,-0.01960855722427368,XArbitraryZVertical,-0.4902689390788599,0.3530255290015989,-0.7669596015358541,0.216292160077418,-0.5993196368217468,0.7535952925682068,-0.2700186967849731,0,0,0,-1,-1,39729.35849275001,unknown,2,2025-04-22T17:28:06.255+03:00,2025-04-21T17:08:51.449+03:00,9047,1.059065,0,0,7544.334,7,22,2025-04-22T17:22:43.829+03:00,767024888.9439539,0,-11.46,100.3419,1,0.35,2025-04-22T17:28:09.394+03:00,125,2.083333333333333,2025-04-22T14:20:19.516+03:00,0.02197104130929222,0
2025-04-22T17:28:10.624+03:00,1745332089.730193,40.95226845434804,29.14031828464809,76.50301,-1,-1,-1,-1,30,26.05091700301345,-9999,39733.720318625,-0.593353271484375,0.7415618896484375,-0.2831268310546875,39733.71024162501,3.119164835308081,-1.147420069571739,-0.853391732041542,-0.03627278283238411,0.04146815091371536,-0.02919110842049122,0.006016075611114502,-0.003133237361907959,-0.01752874255180359,XArbitraryZVertical,-0.4901587582428535,0.3531212305825962,-0.7670574250391743,0.2160382103267262,-0.5993844866752625,0.7535145878791809,-0.2700995802879333,0,0,0,-1,-1,39729.35849275001,unknown,2,2025-04-22T17:28:06.255+03:00,2025-04-21T17:08:51.449+03:00,9047,1.059065,0,0,7544.334,7,22,2025-04-22T17:22:43.829+03:00,767024888.9439539,0,-11.46,100.3419,1,0.35,2025-04-22T17:28:09.394+03:00,125,2.083333333333333,2025-04-22T14:20:19.516+03:00,0.02197104130929222,0
2025-04-22T17:28:10.634+03:00,1745332089.730193,40.95226845434804,29.14031828464809,76.50301,-1,-1,-1,-1,30,26.05091700301345,-9999,39733.730394625,-0.598602294921875,0.734466552734375,-0.2786102294921875,39733.720318625,3.118482378070771,-1.147491461636484,-0.8533309206681303,-0.04479969292879105,0.03674290329217911,-0.02782490663230419,0.005405843257904053,-0.003703594207763672,-0.0141347348690033,XArbitraryZVertical,-0.4900727138240596,0.3532575951710304,-0.7671240133906597,0.2157739153166446,-0.5994455218315125,0.7534745931625366,-0.2700756192207336,0,0,0,-1,-1,39729.35849275001,unknown,2,2025-04-22T17:28:06.255+03:00,2025-04-21T17:08:51.449+03:00,9047,1.059065,0,0,7544.334,7,22,2025-04-22T17:22:43.829+03:00,767024888.9439539,0,-11.46,100.3419,1,0.35,2025-04-22T17:28:09.394+03:00,125,2.083333333333333,2025-04-22T14:20:19.516+03:00,0.02197104130929222,0
2025-04-22T17:28:10.644+03:00,1745332089.730193,40.95226845434804,29.14031828464809,76.50301,-1,-1,-1,-1,30,26.05091700301345,-9999,39733.740471625,-0.6044769287109375,0.73828125,-0.27484130859375,39733.730394625,3.117685809619213,-1.147690122225906,-0.8533595630565195,-0.05432169139385223,0.04282942414283752,-0.0204128623008728,0.00574493408203125,-0.01377791166305542,-0.01235532760620117,XArbitraryZVertical,-0.4900048252389454,0.3534422546922448,-0.7671563857682899,0.2155105827432514,-0.5994795560836792,0.7534934282302856,-0.2699476778507233,0,0,0,-1,-1,39729.35849275001,unknown,2,2025-04-22T17:28:06.255+03:00,2025-04-21T17:08:51.449+03:00,9047,1.059065,0,0,7544.334,7,22,2025-04-22T17:22:43.829+03:00,767024888.9439539,0,-11.46,100.3419,1,0.35,2025-04-22T17:28:09.394+03:00,125,2.083333333333333,2025-04-22T14:20:19.516+03:00,0.02197104130929222,0
2025-04-22T17:28:10.654+03:00,1745332089.730193,40.95226845434804,29.14031828464809,76.50301,-1,-1,-1,-1,30,26.05091700301345,-9999,39733.750547625,-0.6044769287109375,0.74078369140625,-0.272918701171875,39733.740471625,3.116826874439177,-1.147912010630394,-0.8533706076570304,-0.0543786846101284,0.04352264478802681,-0.0204810407012701,5.996227264404297e-05,-0.01898843050003052,-0.007807314395904541,XArbitraryZVertical,-0.4899368104446431,0.3536329917744716,-0.7671926530295171,0.2152230723616415,-0.599531888961792,0.7535006999969482,-0.2698112726211548,0,0,0,-1,-1,39729.35849275001,unknown,2,2025-04-22T17:28:06.255+03:00,2025-04-21T17:08:51.449+03:00,9047,1.059065,0,0,7544.334,7,22,2025-04-22T17:22:43.829+03:00,767024888.9439539,0,-11.46,100.3419,1,0.35,2025-04-22T17:28:09.394+03:00,125,2.083333333333333,2025-04-22T14:20:19.516+03:00,0.02197104130929222,0
2025-04-22T17:28:10.665+03:00,1745332089.730193,40.95226845434804,29.14031828464809,76.50301,-1,-1,-1,-1,30,26.05091700301345,-9999,39733.760624625,-0.6043853759765625,0.74761962890625,-0.275299072265625,39733.750547625,3.115899415735916,-1.148114923837372,-0.8534077285239703,-0.06162294745445251,0.05420464649796486,-0.01822770573198795,-0.00529712438583374,-0.01495397090911865,-0.004827618598937988,XArbitraryZVertical,-0.4898462442998027,0.3538524742040592,-0.7672364334657937,0.2149123974165338,-0.5995612144470215,0.7535250782966614,-0.2696781754493713,0,0,0,-1,-1,39729.35849275001,unknown,2,2025-04-22T17:28:06.255+03:00,2025-04-21T17:08:51.449+03:00,9047,1.059065,0,0,7544.334,7,22,2025-04-22T17:22:43.829+03:00,767024888.9439539,0,-11.46,100.3419,1,0.35,2025-04-22T17:28:09.394+03:00,125,2.083333333333333,2025-04-22T14:20:19.516+03:00,0.02197104130929222,0
2025-04-22T17:28:10.674+03:00,1745332089.730193,40.95226845434804,29.14031828464809,76.50301,-1,-1,-1,-1,30,26.05091700301345,-9999,39733.77070062501,-0.6013336181640625,0.7548675537109375,-0.2804412841796875,39733.760624625,3.114991879384069,-1.148186208881455,-0.8534851974761406,-0.05949454754590988,0.05804998800158501,-0.0200908537954092,-0.005575239658355713,-0.01303642988204956,-0.003414243459701538,XArbitraryZVertical,-0.4897038686940864,0.3540965512153765,-0.7673032618225077,0.2145961521562456,-0.5995272397994995,0.7535759806632996,-0.2696115076541901,0,0,0,-1,-1,39729.35849275001,unknown,2,2025-04-22T17:28:06.255+03:00,2025-04-21T17:08:51.449+03:00,9047,1.059065,0,0,7544.334,7,22,2025-04-22T17:22:43.829+03:00,767024888.9439539,0,-11.46,100.3419,1,0.35,2025-04-22T17:28:09.394+03:00,125,2.083333333333333,2025-04-22T14:20:19.516+03:00,0.02197104130929222,0
2025-04-22T17:28:10.684+03:00,1745332089.730193,40.95226845434804,29.14031828464809,76.50301,-1,-1,-1,-1,30,26.05091700301345,-9999,39733.780776625,-0.5942535400390625,0.7549591064453125,-0.2745513916015625,39733.77070062501,3.11384155947328,-1.148384009378872,-0.8536496445802653,-0.09451798349618912,0.06158779561519623,-0.02109936065971851,-0.00465857982635498,-0.003897905349731445,-0.006482869386672974,XArbitraryZVertical,-0.4895567051614,0.3544195767014189,-0.7673499025523018,0.2142309999205401,-0.5994672775268555,0.7536841034889221,-0.2694419920444489,0,0,0,-1,-1,39729.35849275001,unknown,2,2025-04-22T17:28:06.255+03:00,2025-04-21T17:08:51.449+03:00,9047,1.059065,0,0,7544.334,7,22,2025-04-22T17:22:43.829+03:00,767024888.9439539,0,-11.46,100.3419,1,0.35,2025-04-22T17:28:09.394+03:00,125,2.083333333333333,2025-04-22T14:20:19.516+03:00,0.02197104130929222,0
2025-04-22T17:28:10.694+03:00,1745332089.730193,40.95226845434804,29.14031828464809,76.50301,-1,-1,-1,-1,30,26.05091700301345,-9999,39733.790853625,-0.5938568115234375,0.7513580322265625,-0.27130126953125,39733.780776625,3.112375810370249,-1.148785923942478,-0.8538625921378723,-0.1145622655749321,0.06286584585905075,-0.02543099224567413,-0.00135505199432373,0.001104414463043213,-0.01173344254493713,XArbitraryZVertical,-0.4894259244600516,0.3548163313005389,-0.7673720800902564,0.2137930759808939,-0.5994290113449097,0.7538240551948547,-0.2691352665424347,0,0,0,-1,-1,39729.35849275001,unknown,2,2025-04-22T17:28:06.255+03:00,2025-04-21T17:08:51.449+03:00,9047,1.059065,0,0,7544.334,7,22,2025-04-22T17:22:43.829+03:00,767024888.9439539,0,-11.46,100.3419,1,0.35,2025-04-22T17:28:09.394+03:00,125,2.083333333333333,2025-04-22T14:20:19.516+03:00,0.02197104130929222,0
2025-04-22T17:28:10.705+03:00,1745332089.730193,40.95226845434804,29.14031828464809,76.50301,-1,-1,-1,-1,30,26.05091700301345,-9999,39733.800929625,-0.5986175537109375,0.7323150634765625,-0.2658843994140625,39733.790853625,3.110569533342658,-1.149459492778909,-0.8541547604254758,-0.1414978057146072,0.06083565577864647,-0.02110432088375092,0.006056129932403564,0.00115656852722168,-0.004964143037796021,XArbitraryZVertical,-0.4893291350980004,0.35529749659746,-0.7673504455503901,0.2132926339311984,-0.5994091629981995,0.7540159821510315,-0.2686413824558258,0,0,0,-1,-1,39729.35849275001,unknown,2,2025-04-22T17:28:06.255+03:00,2025-04-21T17:08:51.449+03:00,9047,1.059065,0,0,7544.334,7,22,2025-04-22T17:22:43.829+03:00,767024888.9439539,0,-11.46,100.3419,1,0.35,2025-04-22T17:28:09.394+03:00,125,2.083333333333333,2025-04-22T14:20:19.516+03:00,0.02197104130929222,0
2025-04-22T17:28:10.715+03:00,1745332089.730193,40.95226845434804,29.14031828464809,76.50301,-1,-1,-1,-1,30,26.05091700301345,-9999,39733.811006625,-0.602020263671875,0.7209930419921875,-0.2645416259765625,39733.800929625,3.108462812588826,-1.150462814257109,-0.8545931865065561,-0.1570120453834534,0.04477572813630104,-0.015039237216115,0.004940152168273926,-0.004700720310211182,-0.003426969051361084,XArbitraryZVertical,-0.4892874095533643,0.3558726493848644,-0.7672550377609098,0.2127724165886392,-0.5993766784667969,0.7543038725852966,-0.2679049670696259,0,0,0,-1,-1,39729.35849275001,unknown,2,2025-04-22T17:28:06.255+03:00,2025-04-21T17:08:51.449+03:00,9047,1.059065,0,0,7544.334,7,22,2025-04-22T17:22:43.829+03:00,767024888.9439539,0,-11.46,100.3419,1,0.35,2025-04-22T17:28:09.394+03:00,125,2.083333333333333,2025-04-22T14:20:19.516+03:00,0.02197104130929222,0
2025-04-22T17:28:10.725+03:00,1745332089.730193,40.95226845434804,29.14031828464809,76.50301,-1,-1,-1,-1,30,26.05091700301345,-9999,39733.821082625,-0.6076812744140625,0.72784423828125,-0.257049560546875,39733.811006625,3.106292523268333,-1.151617848706654,-0.8551112181426059,-0.1592388451099396,0.04152040928602219,-0.003226719563826919,0.0004824995994567871,-0.02425146102905273,0.0008484721183776855,XArbitraryZVertical,-0.4892821395776729,0.3564775603889982,-0.7671153282670193,0.212275368906214,-0.599328875541687,0.7546439170837402,-0.267053484916687,0,0,0,-1,-1,39729.35849275001,unknown,2,2025-04-22T17:28:06.255+03:00,2025-04-21T17:08:51.449+03:00,9047,1.059065,0,0,7544.334,7,22,2025-04-22T17:22:43.829+03:00,767024888.9439539,0,-11.46,100.3419,1,0.35,2025-04-22T17:28:09.394+03:00,125,2.083333333333333,2025-04-22T14:20:19.516+03:00,0.02197104130929222,0
2025-04-22T17:28:10.735+03:00,1745332089.730193,40.95226845434804,29.14031828464809,76.50301,-1,-1,-1,-1,30,26.05091700301345,-9999,39733.83115962501,-0.6107635498046875,0.746673583984375,-0.2520599365234375,39733.821082625,3.104176748377282,-1.152705498003354,-0.8556673162379547,-0.1458524763584137,0.06016333773732185,0.002558998065069318,-0.003791868686676025,-0.03491592407226562,0.002406418323516846,XArbitraryZVertical,-0.489255167864649,0.3570908318355721,-0.7669793885459739,0.2117974947012009,-0.5992353558540344,0.7550086379051208,-0.2662310302257538,0,0,0,-1,-1,39729.35849275001,unknown,2,2025-04-22T17:28:06.255+03:00,2025-04-21T17:08:51.449+03:00,9047,1.059065,0,0,7544.334,7,22,2025-04-22T17:22:43.829+03:00,767024888.9439539,0,-11.46,100.3419,1,0.35,2025-04-22T17:28:09.394+03:00,125,2.083333333333333,2025-04-22T14:20:19.516+03:00,0.02197104130929222,0
2025-04-22T17:28:10.745+03:00,1745332089.730193,40.95226845434804,29.14031828464809,76.50301,-1,-1,-1,-1,30,26.05091700301345,-9999,39733.841235625,-0.611236572265625,0.744384765625,-0.24664306640625,39733.83115962501,3.102241848514538,-1.153541383967895,-0.8561483470989326,-0.1405515223741531,0.06154438853263855,0.00183951179496944,-0.009166121482849121,-0.02477908134460449,0.00941804051399231,XArbitraryZVertical,-0.4891720744607969,0.3576580947338783,-0.766898015452076,0.2113258603003266,-0.5991253852844238,0.7553240060806274,-0.2655827403068542,0,0,0,-1,-1,39729.35849275001,unknown,2,2025-04-22T17:28:06.255+03:00,2025-04-21T17:08:51.449+03:00,9047,1.059065,0,0,7544.334,7,22,2025-04-22T17:22:43.829+03:00,767024888.9439539,0,-11.46,100.3419,1,0.35,2025-04-22T17:28:09.394+03:00,125,2.083333333333333,2025-04-22T14:20:19.516+03:00,0.02197104130929222,0
2025-04-22T17:28:10.755+03:00,1745332089.730193,40.95226845434804,29.14031828464809,76.50301,-1,-1,-1,-1,30,26.05091700301345,-9999,39733.851312625,-0.5995025634765625,0.7481842041015625,-0.24530029296875,39733.841235625,3.100285669501482,-1.154419238282696,-0.8566684116128656,-0.1413424760103226,0.05784258991479874,0.003753525437787175,-0.01264935731887817,-0.00790780782699585,0.01413470506668091,XArbitraryZVertical,-0.4890956500738753,0.3582408733313352,-0.7668020459841853,0.2108637019322521,-0.5989990830421448,0.7556647062301636,-0.2648978531360626,0,0,0,-1,-1,39729.35849275001,unknown,2,2025-04-22T17:28:06.255+03:00,2025-04-21T17:08:51.449+03:00,9047,1.059065,0,0,7544.334,7,22,2025-04-22T17:22:43.829+03:00,767024888.9439539,0,-11.46,100.3419,1,0.35,2025-04-22T17:28:09.394+03:00,125,2.083333333333333,2025-04-22T14:20:19.516+03:00,0.02197104130929222,0
2025-04-22T17:28:10.765+03:00,1745332089.730193,40.95226845434804,29.14031828464809,76.50301,-1,-1,-1,-1,30,26.05091700301345,-9999,39733.861388625,-0.600494384765625,0.7521514892578125,-0.2479705810546875,39733.851312625,3.098438371850849,-1.155149701515807,-0.8571712937606171,-0.1283132284879684,0.0667647123336792,-0.00191328173968941,-0.01164406538009644,-0.01202118396759033,0.01822808384895325,XArbitraryZVertical,-0.4889834793909763,0.3588060236425932,-0.7667331890873978,0.2104130452083378,-0.5988447666168213,0.7559939622879028,-0.2643067836761475,0,0,0,-1,-1,39729.35849275001,unknown,2,2025-04-22T17:28:06.255+03:00,2025-04-21T17:08:51.449+03:00,9047,1.059065,0,0,7544.334,7,22,2025-04-22T17:22:43.829+03:00,767024888.9439539,0,-11.46,100.3419,1,0.35,2025-04-22T17:28:09.394+03:00,125,2.083333333333333,2025-04-22T14:20:19.516+03:00,0.02197104130929222,0
2025-04-22T17:28:10.775+03:00,1745332089.730193,40.95226845434804,29.14031828464809,76.50301,-1,-1,-1,-1,30,26.05091700301345,-9999,39733.871465625,-0.6016693115234375,0.7534942626953125,-0.2500152587890625,39733.861388625,3.096774708156139,-1.155643697734804,-0.8576217802144376,-0.1146117970347404,0.07389134168624878,-0.0003683820250444114,0.0001682043075561523,-0.007158577442169189,0.01790165901184082,XArbitraryZVertical,-0.4888192832830242,0.3593312413582789,-0.7667113049048855,0.2099775301649328,-0.5986635684967041,0.7562887668609619,-0.2638735473155975,0,0,0,-1,-1,39729.35849275001,unknown,2,2025-04-22T17:28:06.255+03:00,2025-04-21T17:08:51.449+03:00,9047,1.059065,0,0,7544.334,7,22,2025-04-22T17:22:43.829+03:00,767024888.9439539,0,-11.46,100.3419,1,0.35,2025-04-22T17:28:09.394+03:00,125,2.083333333333333,2025-04-22T14:20:19.516+03:00,0.02197104130929222,0
2025-04-22T17:28:10.785+03:00,1745332089.730193,40.95226845434804,29.14031828464809,76.50301,-1,-1,-1,-1,30,26.05091700301345,-9999,39733.881541625,-0.6047821044921875,0.760528564453125,-0.253143310546875,39733.871465625,3.095403304671453,-1.155781404117957,-0.8580596308106981,-0.0987544059753418,0.1029630675911903,0.01285294815897942,-0.003028392791748047,-0.004698514938354492,0.01483222842216492,XArbitraryZVertical,-0.4885720309078019,0.359817508184808,-0.7667475558098514,0.2095870871085979,-0.5983965992927551,0.7565751671791077,-0.2636574506759644,0,0,0,-1,-1,39729.35849275001,unknown,2,2025-04-22T17:28:06.255+03:00,2025-04-21T17:08:51.449+03:00,9047,1.059065,0,0,7544.334,7,22,2025-04-22T17:22:43.829+03:00,767024888.9439539,0,-11.46,100.3419,1,0.35,2025-04-22T17:28:09.394+03:00,125,2.083333333333333,2025-04-22T14:20:19.516+03:00,0.02197104130929222,0
2025-04-22T17:28:10.796+03:00,1745332089.730193,40.95226845434804,29.14031828464809,76.50301,-1,-1,-1,-1,30,26.05091700301345,-9999,39733.891618625,-0.6048736572265625,0.76055908203125,-0.25201416015625,39733.881541625,3.094349831101945,-1.155511067915031,-0.8584274179625649,-0.07273559272289276,0.1085013747215271,0.005783586762845516,-0.003720521926879883,-0.002787292003631592,0.01262339949607849,XArbitraryZVertical,-0.4882336670703804,0.3602421178701891,-0.7668620683445307,0.2092272587366408,-0.5980708003044128,0.7568156123161316,-0.2637070119380951,0,0,0,-1,-1,39729.35849275001,unknown,2,2025-04-22T17:28:06.255+03:00,2025-04-21T17:08:51.449+03:00,9047,1.059065,0,0,7544.334,7,22,2025-04-22T17:22:43.829+03:00,767024888.9439539,0,-11.46,100.3419,1,0.35,2025-04-22T17:28:09.394+03:00,125,2.083333333333333,2025-04-22T14:20:19.516+03:00,0.02197104130929222,0
2025-04-22T17:28:10.805+03:00,1745332089.730193,40.95226845434804,29.14031828464809,76.50301,-1,-1,-1,-1,30,26.05091700301345,-9999,39733.901694625,-0.60125732421875,0.7452850341796875,-0.2449493408203125,39733.891618625,3.093413877248375,-1.155064844060484,-0.8587173297940396,-0.06366326659917831,0.1179492026567459,0.01452394854277372,-0.00774681568145752,0.005064547061920166,0.0102839469909668,XArbitraryZVertical,-0.48785831139378,0.3606267549556423,-0.7670199553129095,0.2088610954295239,-0.5977523326873779,0.7570050954818726,-0.2638852298259735,0,0,0,-1,-1,39729.35849275001,unknown,2,2025-04-22T17:28:06.255+03:00,2025-04-21T17:08:51.449+03:00,9047,1.059065,0,0,7544.334,7,22,2025-04-22T17:22:43.829+03:00,767024888.9439539,0,-11.46,100.3419,1,0.35,2025-04-22T17:28:09.394+03:00,125,2.083333333333333,2025-04-22T14:20:19.516+03:00,0.02197104130929222,0
2025-04-22T17:28:10.815+03:00,1745332089.730193,40.95226845434804,29.14031828464809,76.50301,-1,-1,-1,-1,30,26.05091700301345,-9999,39733.911771625,-0.605499267578125,0.7535247802734375,-0.232696533203125,39733.901694625,3.092792825445716,-1.154272825166722,-0.8589325080780955,-0.03806069865822792,0.131908968091011,0.02072511799633503,-0.007128477096557617,0.00127720832824707,0.01240035891532898,XArbitraryZVertical,-0.4874160521413254,0.3609421705014195,-0.7672416850667757,0.2085342700530533,-0.5973942279815674,0.7571456432342529,-0.2642926871776581,0,0,0,-1,-1,39729.35849275001,unknown,2,2025-04-22T17:28:06.255+03:00,2025-04-21T17:08:51.449+03:00,9047,1.059065,0,0,7544.334,7,22,2025-04-22T17:22:43.829+03:00,767024888.9439539,0,-11.46,100.3419,1,0.35,2025-04-22T17:28:09.394+03:00,125,2.083333333333333,2025-04-22T14:20:19.516+03:00,0.02197104130929222,0
2025-04-22T17:28:10.825+03:00,1745332089.730193,40.95226845434804,29.14031828464809,76.50301,-1,-1,-1,-1,30,26.05091700301345,-9999,39733.921847625,-0.6082611083984375,0.7616119384765625,-0.223480224609375,39733.911771625,3.09269991767433,-1.152990959539233,-0.8591022173509049,0.01033626217395067,0.1422666609287262,0.02775326743721962,-0.003923118114471436,-0.01261246204376221,0.02092626690864563,XArbitraryZVertical,-0.4868866215510557,0.3611625775497486,-0.7675348473201156,0.2083100807316662,-0.5969372987747192,0.7572565078735352,-0.2650060057640076,0,0,0,-1,-1,39729.35849275001,unknown,2,2025-04-22T17:28:06.255+03:00,2025-04-21T17:08:51.449+03:00,9047,1.059065,0,0,7544.334,7,22,2025-04-22T17:22:43.829+03:00,767024888.9439539,0,-11.46,100.3419,1,0.35,2025-04-22T17:28:09.394+03:00,125,2.083333333333333,2025-04-22T14:20:19.516+03:00,0.02197104130929222,0
2025-04-22T17:28:10.836+03:00,1745332089.730193,40.95226845434804,29.14031828464809,76.50301,-1,-1,-1,-1,30,26.05091700301345,-9999,39733.931924625,-0.604400634765625,0.7596893310546875,-0.2327423095703125,39733.921847625,3.093179983194164,-1.151225417908521,-0.8592053959872,0.04207448288798332,0.1516620367765427,0.03731001913547516,-0.009651303291320801,-0.002197027206420898,0.03534519672393799,XArbitraryZVertical,-0.4862829384215894,0.361268653057411,-0.7678970781663237,0.2082014317588967,-0.5963972210884094,0.7573239207267761,-0.2660277187824249,0,0,0,-1,-1,39729.35849275001,unknown,2,2025-04-22T17:28:06.255+03:00,2025-04-21T17:08:51.449+03:00,9047,1.059065,0,0,7544.334,7,22,2025-04-22T17:22:43.829+03:00,767024888.9439539,0,-11.46,100.3419,1,0.35,2025-04-22T17:28:09.394+03:00,125,2.083333333333333,2025-04-22T14:20:19.516+03:00,0.02197104130929222,0
2025-04-22T17:28:10.846+03:00,1745332089.730193,40.95226845434804,29.14031828464809,76.50301,-1,-1,-1,-1,30,26.05091700301345,-9999,39733.942000625,-0.607879638671875,0.7540435791015625,-0.2438507080078125,39733.931924625,3.09396664456954,-1.149049106477009,-0.8593129299379818,0.05516897886991501,0.1774627417325974,0.04178573191165924,-0.01261001825332642,0.003851473331451416,0.04391810297966003,XArbitraryZVertical,-0.4855760725913941,0.3613447618255503,-0.7683257694378015,0.2081374483720531,-0.5957424640655518,0.7573941349983215,-0.2672916948795319,0,0,0,-1,-1,39729.35849275001,unknown,2,2025-04-22T17:28:06.255+03:00,2025-04-21T17:08:51.449+03:00,9047,1.059065,0,0,7544.334,7,22,2025-04-22T17:22:43.829+03:00,767024888.9439539,0,-11.46,100.3419,1,0.35,2025-04-22T17:28:09.394+03:00,125,2.083333333333333,2025-04-22T14:20:19.516+03:00,0.02197104130929222,0
2025-04-22T17:28:10.856+03:00,1745332089.730193,40.95226845434804,29.14031828464809,76.50301,-1,-1,-1,-1,30,26.05091700301345,-9999,39733.952077625,-0.6103057861328125,0.7484130859375,-0.244537353515625,39733.942000625,3.094994867686429,-1.146476501726337,-0.8594482216751356,0.07195674628019333,0.1931255906820297,0.04641350731253624,-0.009151041507720947,0.001703262329101562,0.03411614894866943,XArbitraryZVertical,-0.4847567186530146,0.3614142984422141,-0.7688200525582118,0.208101630244058,-0.594959557056427,0.7574824690818787,-0.2687812447547913,0,0,0,-1,-1,39729.35849275001,unknown,2,2025-04-22T17:28:06.255+03:00,2025-04-21T17:08:51.449+03:00,9047,1.059065,0,0,7544.334,7,22,2025-04-22T17:22:43.829+03:00,767024888.9439539,0,-11.46,100.3419,1,0.35,2025-04-22T17:28:09.394+03:00,125,2.083333333333333,2025-04-22T14:20:19.516+03:00,0.02197104130929222,0
2025-04-22T17:28:10.866+03:00,1745332089.730193,40.95226845434804,29.14031828464809,76.50301,-1,-1,-1,-1,30,26.05091700301345,-9999,39733.96215362501,-0.60302734375,0.760833740234375,-0.2522735595703125,39733.952077625,3.096205564042014,-1.143668743235736,-0.8595595771535012,0.07647933065891266,0.1934550106525421,0.04661177843809128,-0.01418107748031616,-0.005129158496856689,0.02612230181694031,XArbitraryZVertical,-0.4838822852835966,0.3614555121703981,-0.7693550249073264,0.2080877085445793,-0.5941256284713745,0.7575551271438599,-0.2704156935214996,0,0,0,-1,-1,39729.35849275001,unknown,2,2025-04-22T17:28:06.255+03:00,2025-04-21T17:08:51.449+03:00,9047,1.059065,0,0,7544.334,7,22,2025-04-22T17:22:43.829+03:00,767024888.9439539,0,-11.46,100.3419,1,0.35,2025-04-22T17:28:09.394+03:00,125,2.083333333333333,2025-04-22T14:20:19.516+03:00,0.02197104130929222,0
2025-04-22T17:28:10.876+03:00,1745332089.730193,40.95226845434804,29.14031828464809,76.50301,-1,-1,-1,-1,30,26.05091700301345,-9999,39733.972229625,-0.593536376953125,0.7700042724609375,-0.27264404296875,39733.96215362501,3.097463220694412,-1.140872874811367,-0.8596624526046119,0.07876565307378769,0.1874194890260696,0.04698781669139862,-0.01577311754226685,-0.008125901222229004,0.02767366170883179,XArbitraryZVertical,-0.4830212175548932,0.3614814520456475,-0.7698827017967701,0.2080919532632236,-0.5932965874671936,0.7576223015785217,-0.2720433175563812,0,0,0,-1,-1,39729.35849275001,unknown,2,2025-04-22T17:28:06.255+03:00,2025-04-21T17:08:51.449+03:00,9047,1.059065,0,0,7544.334,7,22,2025-04-22T17:22:43.829+03:00,767024888.9439539,0,-11.46,100.3419,1,0.35,2025-04-22T17:28:09.394+03:00,125,2.083333333333333,2025-04-22T14:20:19.516+03:00,0.02197104130929222,0
2025-04-22T17:28:10.886+03:00,1745332089.730193,40.95226845434804,29.14031828464809,76.50301,-1,-1,-1,-1,30,26.05091700301345,-9999,39733.982306625,-0.5922698974609375,0.7824554443359375,-0.29327392578125,39733.972229625,3.098709512459545,-1.138164615540122,-0.8597261682534831,0.07629963010549545,0.1783120781183243,0.04188403487205505,-0.009628415107727051,0.004711031913757324,0.01975294947624207,XArbitraryZVertical,-0.482195913735902,0.3614867261762818,-0.7703957194953394,0.2080982207388387,-0.5925138592720032,0.757663905620575,-0.2736288905143738,0,0,0,-1,-1,39729.35849275001,unknown,2,2025-04-22T17:28:06.255+03:00,2025-04-21T17:08:51.449+03:00,9047,1.059065,0,0,7544.334,7,22,2025-04-22T17:22:43.829+03:00,767024888.9439539,0,-11.46,100.3419,1,0.35,2025-04-22T17:28:09.394+03:00,125,2.083333333333333,2025-04-22T14:20:19.516+03:00,0.02197104130929222,0
2025-04-22T17:28:10.896+03:00,1745332089.730193,40.95226845434804,29.14031828464809,76.50301,-1,-1,-1,-1,30,26.05091700301345,-9999,39733.992382625,-0.5964202880859375,0.7815399169921875,-0.303466796875,39733.982306625,3.099863838474612,-1.135586927127291,-0.8598221776951311,0.0670028030872345,0.1819824427366257,0.04293598234653473,-0.001856684684753418,0.01345270872116089,-0.0004034936428070068,XArbitraryZVertical,-0.4813997662577285,0.3615133882904347,-0.7708802924951149,0.2081008903731015,-0.5917406678199768,0.7577265501022339,-0.2751246690750122,0,0,0,-1,-1,39729.35849275001,unknown,2,2025-04-22T17:28:06.255+03:00,2025-04-21T17:08:51.449+03:00,9047,1.059065,0,0,7544.334,7,22,2025-04-22T17:22:43.829+03:00,767024888.9439539,0,-11.46,100.3419,1,0.35,2025-04-22T17:28:09.394+03:00,125,2.083333333333333,2025-04-22T14:20:19.516+03:00,0.02197104130929222,0
2025-04-22T17:28:10.906+03:00,1745332089.730193,40.95226845434804,29.14031828464809,76.50301,-1,-1,-1,-1,30,26.05091700301345,-9999,39734.002459625,-0.6002197265625,0.77288818359375,-0.30035400390625,39733.992382625,3.100872483835855,-1.133055528913383,-0.8599081125383613,0.06257010251283646,0.1900551617145538,0.04419465735554695,-0.002171516418457031,0.02566462755203247,-0.01823639869689941,XArbitraryZVertical,-0.4805957951028649,0.3615669138690349,-0.771369447302933,0.2080534930627238,-0.5909833312034607,0.7577826380729675,-0.2765941023826599,0,0,0,-1,-1,39729.35849275001,unknown,2,2025-04-22T17:28:06.255+03:00,2025-04-21T17:08:51.449+03:00,9047,1.059065,0,0,7544.334,7,22,2025-04-22T17:22:43.829+03:00,767024888.9439539,0,-11.46,100.3419,1,0.35,2025-04-22T17:28:09.394+03:00,125,2.083333333333333,2025-04-22T14:20:19.516+03:00,0.02197104130929222,0
2025-04-22T17:28:10.916+03:00,1745332089.730193,40.95226845434804,29.14031828464809,76.50301,-1,-1,-1,-1,30,26.05091700301345,-9999,39734.012535625,-0.597412109375,0.7675018310546875,-0.2831268310546875,39734.002459625,3.101790894134834,-1.130592445214294,-0.8600549350970125,0.07163869589567184,0.1942136883735657,0.04630414769053459,-0.007212579250335693,0.02231866121292114,-0.02653372287750244,XArbitraryZVertical,-0.4797940794883848,0.3616586028301392,-0.7718400146636035,0.2079988576108511,-0.5901994109153748,0.7578784227371216,-0.2780013978481293,0,0,0,-1,-1,39729.35849275001,unknown,2,2025-04-22T17:28:06.255+03:00,2025-04-21T17:08:51.449+03:00,9047,1.059065,0,0,7544.334,7,22,2025-04-22T17:22:43.829+03:00,767024888.9439539,0,-11.46,100.3419,1,0.35,2025-04-22T17:28:09.394+03:00,125,2.083333333333333,2025-04-22T14:20:19.516+03:00,0.02197104130929222,0
2025-04-22T17:28:10.927+03:00,1745332089.730193,40.95226845434804,29.14031828464809,76.50301,-1,-1,-1,-1,30,26.05091700301345,-9999,39734.02261262501,-0.5996856689453125,0.7645263671875,-0.272064208984375,39734.012535625,3.102910385837583,-1.127900950299806,-0.860295091453,0.07145081460475922,0.2008592039346695,0.06411264091730118,-0.01049256324768066,0.01437997817993164,-0.0185391902923584,XArbitraryZVertical,-0.478928923663841,0.3617618603129216,-0.7723275290425169,0.2080034859223918,-0.5892845392227173,0.7580350637435913,-0.279510885477066,0,0,0,-1,-1,39729.35849275001,unknown,2,2025-04-22T17:28:06.255+03:00,2025-04-21T17:08:51.449+03:00,9047,1.059065,0,0,7544.334,7,22,2025-04-22T17:22:43.829+03:00,767024888.9439539,0,-11.46,100.3419,1,0.35,2025-04-22T17:28:09.394+03:00,125,2.083333333333333,2025-04-22T14:20:19.516+03:00,0.02197104130929222,0
2025-04-22T17:28:10.937+03:00,1745332089.730193,40.95226845434804,29.14031828464809,76.50301,-1,-1,-1,-1,30,26.05091700301345,-9999,39734.032688625,-0.6021575927734375,0.7603302001953125,-0.2683258056640625,39734.02261262501,3.104323713617298,-1.124888620895987,-0.8607348164564618,0.08149012923240662,0.2104172855615616,0.09643915295600891,-0.009074509143829346,0.008600115776062012,0.0006079673767089844,XArbitraryZVertical,-0.4779688263845437,0.3619051266991331,-0.7728256429717223,0.2081125845307099,-0.5881391167640686,0.7583217620849609,-0.2811409533023834,0,0,0,-1,-1,39729.35849275001,unknown,2,2025-04-22T17:28:06.255+03:00,2025-04-21T17:08:51.449+03:00,9047,1.059065,0,0,7544.334,7,22,2025-04-22T17:22:43.829+03:00,767024888.9439539,0,-11.46,100.3419,1,0.35,2025-04-22T17:28:09.394+03:00,125,2.083333333333333,2025-04-22T14:20:19.516+03:00,0.02197104130929222,0
2025-04-22T17:28:10.946+03:00,1745332089.730193,40.95226845434804,29.14031828464809,76.50301,-1,-1,-1,-1,30,26.05091700301345,-9999,39734.042765625,-0.6016998291015625,0.7665252685546875,-0.2706146240234375,39734.032688625,3.105980860158499,-1.121581796539095,-0.8613262201750895,0.08417846262454987,0.2183602899312973,0.1134231314063072,-0.01270025968551636,0.005773365497589111,0.01167958974838257,XArbitraryZVertical,-0.4769206738914576,0.3620799807139347,-0.7733407672949493,0.2082995795395426,-0.5868021845817566,0.7587071657180786,-0.2828895151615143,0,0,0,-1,-1,39729.35849275001,unknown,2,2025-04-22T17:28:06.255+03:00,2025-04-21T17:08:51.449+03:00,9047,1.059065,0,0,7544.334,7,22,2025-04-22T17:22:43.829+03:00,767024888.9439539,0,-11.46,100.3419,1,0.35,2025-04-22T17:28:09.394+03:00,125,2.083333333333333,2025-04-22T14:20:19.516+03:00,0.02197104130929222,0
2025-04-22T17:28:10.957+03:00,1745332089.730193,40.95226845434804,29.14031828464809,76.50301,-1,-1,-1,-1,30,26.05091700301345,-9999,39734.052841625,-0.5880584716796875,0.7689056396484375,-0.2803802490234375,39734.042765625,3.107812527758506,-1.118138371450652,-0.8619240570732419,0.09973824769258499,0.2084022015333176,0.1156418099999428,-0.01663410663604736,0.00166088342666626,0.01707065105438232,XArbitraryZVertical,-0.4758501485792493,0.3622314709113283,-0.7738668019340106,0.2085306340307492,-0.5854165554046631,0.7590965032577515,-0.2847099900245667,0,0,0,-1,-1,39729.35849275001,unknown,2,2025-04-22T17:28:06.255+03:00,2025-04-21T17:08:51.449+03:00,9047,1.059065,0,0,7544.334,7,22,2025-04-22T17:22:43.829+03:00,767024888.9439539,0,-11.46,100.3419,1,0.35,2025-04-22T17:28:09.394+03:00,125,2.083333333333333,2025-04-22T14:20:19.516+03:00,0.02197104130929222,0
2025-04-22T17:28:10.967+03:00,1745332089.730193,40.95226845434804,29.14031828464809,76.50301,-1,-1,-1,-1,30,26.05091700301345,-9999,39734.062918625,-0.5852813720703125,0.774810791015625,-0.3002166748046875,39734.052841625,3.110057970044448,-1.114428611303231,-0.8625483297468451,0.1239196136593819,0.2091839760541916,0.1239088624715805,-0.01605981588363647,0.008243143558502197,0.0154305100440979,XArbitraryZVertical,-0.4747479448130687,0.3623243393544454,-0.7744059879215454,0.2088797354802034,-0.5839308500289917,0.7595027089118958,-0.2866709232330322,0,0,0,-1,-1,39729.35849275001,unknown,2,2025-04-22T17:28:06.255+03:00,2025-04-21T17:08:51.449+03:00,9047,1.059065,0,0,7544.334,7,22,2025-04-22T17:22:43.829+03:00,767024888.9439539,0,-11.46,100.3419,1,0.35,2025-04-22T17:28:09.394+03:00,125,2.083333333333333,2025-04-22T14:20:19.516+03:00,0.02197104130929222,0
2025-04-22T17:28:10.985+03:00,1745332089.730193,40.95226845434804,29.14031828464809,76.50301,-1,-1,-1,-1,30,26.05091700301345,-9999,39734.072994625,-0.5870513916015625,0.7848968505859375,-0.3173980712890625,39734.062918625,3.11269768018709,-1.110338958181986,-0.8630969057588987,0.1435023695230484,0.212441012263298,0.1231621131300926,-0.004045367240905762,0.008344173431396484,0.006217420101165771,XArbitraryZVertical,-0.47357827724062,0.3623367159490131,-0.7750042483178797,0.2092943067871098,-0.5823803544044495,0.7598594427108765,-0.2888714373111725,0,0,0,-1,-1,39729.35849275001,unknown,2,2025-04-22T17:28:06.255+03:00,2025-04-21T17:08:51.449+03:00,9047,1.059065,0,0,7544.334,7,22,2025-04-22T17:22:43.829+03:00,767024888.9439539,0,-11.46,100.3419,1,0.35,2025-04-22T17:28:09.394+03:00,125,2.083333333333333,2025-04-22T14:20:19.516+03:00,0.02197104130929222,0
2025-04-22T17:28:10.988+03:00,1745332089.730193,40.95226845434804,29.14031828464809,76.50301,-1,-1,-1,-1,30,26.05091700301345,-9999,39734.08307162501,-0.5810394287109375,0.787109375,-0.322235107421875,39734.072994625,3.115674525356204,-1.105949764367564,-0.8634881144668776,0.1662955731153488,0.2062776833772659,0.1164333671331406,-0.0045166015625,0.01663476228713989,-0.01234331727027893,XArbitraryZVertical,-0.4723708754109524,0.3622430401949585,-0.7756619355574944,0.2097477421432492,-0.5808408856391907,0.7601137161254883,-0.2912914752960205,0,0,0,-1,-1,39729.35849275001,unknown,2,2025-04-22T17:28:06.255+03:00,2025-04-21T17:08:51.449+03:00,9047,1.059065,0,0,7544.334,7,22,2025-04-22T17:22:43.829+03:00,767024888.9439539,0,-11.46,100.3419,1,0.35,2025-04-22T17:28:09.394+03:00,125,2.083333333333333,2025-04-22T14:20:19.516+03:00,0.02197104130929222,0
2025-04-22T17:28:10.997+03:00,1745332089.730193,40.95226845434804,29.14031828464809,76.50301,-1,-1,-1,-1,30,26.05091700301345,-9999,39734.093147625,-0.576385498046875,0.7882232666015625,-0.32269287109375,39734.08307162501,3.118915967493557,-1.101430652921764,-0.8636948997959548,0.1817842423915863,0.2008608132600784,0.106455035507679,-0.007016599178314209,0.02489286661148071,-0.02511227130889893,XArbitraryZVertical,-0.4711806861012989,0.3620325755596611,-0.7763515033376737,0.2102367654287525,-0.5793785452842712,0.760248064994812,-0.2938423454761505,0,0,0,-1,-1,39729.35849275001,unknown,2,2025-04-22T17:28:06.255+03:00,2025-04-21T17:08:51.449+03:00,9047,1.059065,0,0,7544.334,7,22,2025-04-22T17:22:43.829+03:00,767024888.9439539,0,-11.46,100.3419,1,0.35,2025-04-22T17:28:09.394+03:00,125,2.083333333333333,2025-04-22T14:20:19.516+03:00,0.02197104130929222,0
2025-04-22T17:28:11.007+03:00,1745332089.730193,40.95226845434804,29.14031828464809,76.50301,-1,-1,-1,-1,30,26.05091700301345,-9999,39734.103224625,-0.57586669921875,0.781646728515625,-0.3145294189453125,39734.093147625,3.122087570384145,-1.097029172553838,-0.863739040402257,0.177229180932045,0.197068989276886,0.09106848388910294,-0.002287626266479492,0.02651214599609375,-0.02631872892379761,XArbitraryZVertical,-0.4700402595619521,0.3617664810711513,-0.7770457310296834,0.2106825386441083,-0.5780497789382935,0.760276734828949,-0.2963743209838867,0,0,0,-1,-1,39729.35849275001,unknown,2,2025-04-22T17:28:06.255+03:00,2025-04-21T17:08:51.449+03:00,9047,1.059065,0,0,7544.334,7,22,2025-04-22T17:22:43.829+03:00,767024888.9439539,0,-11.46,100.3419,1,0.35,2025-04-22T17:28:09.394+03:00,125,2.083333333333333,2025-04-22T14:20:19.516+03:00,0.02197104130929222,0
2025-04-22T17:28:11.017+03:00,1745332089.730193,40.95226845434804,29.14031828464809,76.50301,-1,-1,-1,-1,30,26.05091700301345,-9999,39734.113300625,-0.5727081298828125,0.77581787109375,-0.30780029296875,39734.103224625,3.124941063381895,-1.092939348982447,-0.8636810850089367,0.1663682758808136,0.1941597461700439,0.07473772019147873,0.0005779266357421875,0.02825862169265747,-0.02315869927406311,XArbitraryZVertical,-0.4689731043655966,0.361505421097275,-0.7777149993709115,0.211038460633884,-0.5768717527389526,0.7602391242980957,-0.2987561225891113,0,0,0,-1,-1,39729.35849275001,unknown,2,2025-04-22T17:28:06.255+03:00,2025-04-21T17:08:51.449+03:00,9047,1.059065,0,0,7544.334,7,22,2025-04-22T17:22:43.829+03:00,767024888.9439539,0,-11.46,100.3419,1,0.35,2025-04-22T17:28:09.394+03:00,125,2.083333333333333,2025-04-22T14:20:19.516+03:00,0.02197104130929222,0
2025-04-22T17:28:11.027+03:00,1745332089.730193,40.95226845434804,29.14031828464809,76.50301,-1,-1,-1,-1,30,26.05091700301345,-9999,39734.123377625,-0.5666351318359375,0.7710113525390625,-0.3049774169921875,39734.113300625,3.127503255984277,-1.089131938180358,-0.8635404828875158,0.1514260768890381,0.1885785758495331,0.0637122318148613,0.000629723072052002,0.02055281400680542,-0.01267522573471069,XArbitraryZVertical,-0.4679705803978962,0.3612528082038172,-0.7783612668251221,0.2113138874420484,-0.5758248567581177,0.760147750377655,-0.3009998798370361,0,0,0,-1,-1,39729.35849275001,unknown,2,2025-04-22T17:28:06.255+03:00,2025-04-21T17:08:51.449+03:00,9047,1.059065,0,0,7544.334,7,22,2025-04-22T17:22:43.829+03:00,767024888.9439539,0,-11.46,100.3419,1,0.35,2025-04-22T17:28:09.394+03:00,125,2.083333333333333,2025-04-22T14:20:19.516+03:00,0.02197104130929222,0
2025-04-22T17:28:11.037+03:00,1745332089.730193,40.95226845434804,29.14031828464809,76.50301,-1,-1,-1,-1,30,26.05091700301345,-9999,39734.133453625,-0.5597991943359375,0.7600860595703125,-0.303253173828125,39734.123377625,3.129673835956374,-1.08571529630265,-0.8633510533809824,0.128680020570755,0.1761717051267624,0.04516411572694778,0.002868592739105225,0.0155336856842041,-0.005057722330093384,XArbitraryZVertical,-0.4670533120807661,0.3610330956195655,-0.7789640503021148,0.2114973242327144,-0.5749204158782959,0.7600246667861938,-0.3030326068401337,0,0,0,-1,-1,39729.35849275001,unknown,2,2025-04-22T17:28:06.255+03:00,2025-04-21T17:08:51.449+03:00,9047,1.059065,0,0,7544.334,7,22,2025-04-22T17:22:43.829+03:00,767024888.9439539,0,-11.46,100.3419,1,0.35,2025-04-22T17:28:09.394+03:00,125,2.083333333333333,2025-04-22T14:20:19.516+03:00,0.02197104130929222,0
2025-04-22T17:28:11.048+03:00,1745332089.730193,40.95226845434804,29.14031828464809,76.50301,-1,-1,-1,-1,30,26.05091700301345,-9999,39734.14353062501,-0.5511322021484375,0.7493438720703125,-0.3058319091796875,39734.133453625,3.131369473226563,-1.082814391917501,-0.8631224683557693,0.0970148965716362,0.1577936261892319,0.02707106620073318,0.008228838443756104,0.00994497537612915,-0.0001054108142852783,XArbitraryZVertical,-0.4662542335513145,0.3608554866816461,-0.7795023022421045,0.2115806152938223,-0.5741924643516541,0.7598760724067688,-0.3047806024551392,0,0,0,-1,-1,39729.35849275001,unknown,2,2025-04-22T17:28:06.255+03:00,2025-04-21T17:08:51.449+03:00,9047,1.059065,0,0,7544.334,7,22,2025-04-22T17:22:43.829+03:00,767024888.9439539,0,-11.46,100.3419,1,0.35,2025-04-22T17:28:09.394+03:00,125,2.083333333333333,2025-04-22T14:20:19.516+03:00,0.02197104130929222,0
2025-04-22T17:28:11.058+03:00,1745332089.730193,40.95226845434804,29.14031828464809,76.50301,-1,-1,-1,-1,30,26.05091700301345,-9999,39734.153606625,-0.540771484375,0.7436676025390625,-0.305389404296875,39734.14353062501,3.132458381096025,-1.080604573607525,-0.8629262625340645,0.05684510990977287,0.1282634288072586,0.007117596920579672,0.01430779695510864,-0.0008985400199890137,0.002865582704544067,XArbitraryZVertical,-0.4656106563309327,0.3607592889669137,-0.7799368545616975,0.2115604378076616,-0.5736490488052368,0.7597485184669495,-0.306118905544281,0,0,0,-1,-1,39729.35849275001,unknown,2,2025-04-22T17:28:06.255+03:00,2025-04-21T17:08:51.449+03:00,9047,1.059065,0,0,7544.334,7,22,2025-04-22T17:22:43.829+03:00,767024888.9439539,0,-11.46,100.3419,1,0.35,2025-04-22T17:28:09.394+03:00,125,2.083333333333333,2025-04-22T14:20:19.516+03:00,0.02197104130929222,0
2025-04-22T17:28:11.068+03:00,1745332089.730193,40.95226845434804,29.14031828464809,76.50301,-1,-1,-1,-1,30,26.05091700301345,-9999,39734.163683625,-0.533905029296875,0.738861083984375,-0.3082427978515625,39734.153606625,3.132871264072178,-1.079195226457771,-0.862768350689432,0.01491809729486704,0.097394660115242,-0.01035663392394781,0.02380812168121338,-0.01175165176391602,0.001212626695632935,XArbitraryZVertical,-0.4651526868373304,0.3607508226311149,-0.78024918980742,0.2114303149766285,-0.5733227133750916,0.7596458196640015,-0.3069836497306824,0,0,0,-1,-1,39729.35849275001,unknown,2,2025-04-22T17:28:06.255+03:00,2025-04-21T17:08:51.449+03:00,9047,1.059065,0,0,7544.334,7,22,2025-04-22T17:22:43.829+03:00,767024888.9439539,0,-11.46,100.3419,1,0.35,2025-04-22T17:28:09.394+03:00,125,2.083333333333333,2025-04-22T14:20:19.516+03:00,0.02197104130929222,0
2025-04-22T17:28:11.077+03:00,1745332089.730193,40.95226845434804,29.14031828464809,76.50301,-1,-1,-1,-1,30,26.05091700301345,-9999,39734.173759625,-0.5406036376953125,0.742401123046875,-0.31048583984375,39734.163683625,3.132786816378774,-1.078375728364064,-0.8626239955243564,-0.01184267643839121,0.0758957639336586,-0.02360905706882477,0.03407478332519531,-0.01708990335464478,0.002176731824874878,XArbitraryZVertical,-0.4648334292005565,0.3608008439349743,-0.7804744815678186,0.2112157058291817,-0.573167622089386,0.7595519423484802,-0.3075052797794342,0,0,0,-1,-1,39729.35849275001,unknown,2,2025-04-22T17:28:06.255+03:00,2025-04-21T17:08:51.449+03:00,9047,1.059065,0,0,7544.334,7,22,2025-04-22T17:22:43.829+03:00,767024888.9439539,0,-11.46,100.3419,1,0.35,2025-04-22T17:28:09.394+03:00,125,2.083333333333333,2025-04-22T14:20:19.516+03:00,0.02197104130929222,0
2025-04-22T17:28:11.088+03:00,1745332089.730193,40.95226845434804,29.14031828464809,76.50301,-1,-1,-1,-1,30,26.05091700301345,-9999,39734.183836625,-0.542388916015625,0.743133544921875,-0.314422607421875,39734.173759625,3.132347705054638,-1.078014161832464,-0.8625052917463066,-0.02942060306668282,0.05847123265266418,-0.03505838662385941,0.03898686170578003,-0.01988136768341064,-0.0009913742542266846,XArbitraryZVertical,-0.4646260411780639,0.3608948282164118,-0.7806259938758958,0.2109513283811936,-0.5731358528137207,0.7594747543334961,-0.3077551424503326,0,0,0,-1,-1,39729.35849275001,unknown,2,2025-04-22T17:28:06.255+03:00,2025-04-21T17:08:51.449+03:00,9047,1.059065,0,0,7544.334,7,22,2025-04-22T17:22:43.829+03:00,767024888.9439539,0,-11.46,100.3419,1,0.35,2025-04-22T17:28:09.394+03:00,125,2.083333333333333,2025-04-22T14:20:19.516+03:00,0.02197104130929222,0
2025-04-22T17:28:11.098+03:00,1745332089.730193,40.95226845434804,29.14031828464809,76.50301,-1,-1,-1,-1,30,26.05091700301345,-9999,39734.193912625,-0.5450439453125,0.7397308349609375,-0.3170928955078125,39734.183836625,3.131580309660238,-1.078061253992639,-0.8623800835768198,-0.04523845016956329,0.04388856142759323,-0.04546069353818893,0.03147101402282715,-0.01647347211837769,-0.003216356039047241,XArbitraryZVertical,-0.4645195849641992,0.3610193720064991,-0.7807182831075141,0.2106309705679701,-0.5732341408729553,0.7593932747840881,-0.3077731430530548,0,0,0,-1,-1,39729.35849275001,unknown,2,2025-04-22T17:28:06.255+03:00,2025-04-21T17:08:51.449+03:00,9047,1.059065,0,0,7544.334,7,22,2025-04-22T17:22:43.829+03:00,767024888.9439539,0,-11.46,100.3419,1,0.35,2025-04-22T17:28:09.394+03:00,125,2.083333333333333,2025-04-22T14:20:19.516+03:00,0.02197104130929222,0
2025-04-22T17:28:11.108+03:00,1745332089.730193,40.95226845434804,29.14031828464809,76.50301,-1,-1,-1,-1,30,26.05091700301345,-9999,39734.203989625,-0.550048828125,0.7406005859375,-0.3130950927734375,39734.193912625,3.130553020185686,-1.078445177874146,-0.8622282847479583,-0.05464493483304977,0.03232411667704582,-0.05428238213062286,0.03050053119659424,-0.01674085855484009,-0.007318794727325439,XArbitraryZVertical,-0.4645005740611913,0.3611584750385052,-0.7807642854237462,0.2102637006754269,-0.5734539031982422,0.7592945098876953,-0.3076075315475464,0,0,0,-1,-1,39729.35849275001,unknown,2,2025-04-22T17:28:06.255+03:00,2025-04-21T17:08:51.449+03:00,9047,1.059065,0,0,7544.334,7,22,2025-04-22T17:22:43.829+03:00,767024888.9439539,0,-11.46,100.3419,1,0.35,2025-04-22T17:28:09.394+03:00,125,2.083333333333333,2025-04-22T14:20:19.516+03:00,0.02197104130929222,0
2025-04-22T17:28:11.118+03:00,1745332089.730193,40.95226845434804,29.14031828464809,76.50301,-1,-1,-1,-1,30,26.05091700301345,-9999,39734.214065625,-0.5543670654296875,0.741607666015625,-0.3110198974609375,39734.203989625,3.129271419257893,-1.079156693758386,-0.8620941087207479,-0.0683269202709198,0.01873373985290527,-0.05823531001806259,0.02795565128326416,-0.01894241571426392,-0.008914738893508911,XArbitraryZVertical,-0.4645615666326389,0.3613292130431046,-0.7807574364225501,0.2098604889574059,-0.5737623572349548,0.7592071890830994,-0.3072474896907806,0,0,0,-1,-1,39729.35849275001,unknown,2,2025-04-22T17:28:06.255+03:00,2025-04-21T17:08:51.449+03:00,9047,1.059065,0,0,7544.334,7,22,2025-04-22T17:22:43.829+03:00,767024888.9439539,0,-11.46,100.3419,1,0.35,2025-04-22T17:28:09.394+03:00,125,2.083333333333333,2025-04-22T14:20:19.516+03:00,0.02197104130929222,0
2025-04-22T17:28:11.128+03:00,1745332089.730193,40.95226845434804,29.14031828464809,76.50301,-1,-1,-1,-1,30,26.05091700301345,-9999,39734.224141625,-0.561126708984375,0.7441558837890625,-0.3117828369140625,39734.214065625,3.127851320816167,-1.079996004522265,-0.8619585329662749,-0.0813983827829361,0.03066297061741352,-0.06334730982780457,0.02361959218978882,-0.01827436685562134,-0.00597575306892395,XArbitraryZVertical,-0.4646474936338849,0.3615184000093783,-0.7807353466156168,0.2094260109770332,-0.574110746383667,0.759118914604187,-0.3068143129348755,0,0,0,-1,-1,39729.35849275001,unknown,2,2025-04-22T17:28:06.255+03:00,2025-04-21T17:08:51.449+03:00,9047,1.059065,0,0,7544.334,7,22,2025-04-22T17:22:43.829+03:00,767024888.9439539,0,-11.46,100.3419,1,0.35,2025-04-22T17:28:09.394+03:00,125,2.083333333333333,2025-04-22T14:20:19.516+03:00,0.02197104130929222,0
2025-04-22T17:28:11.138+03:00,1745332089.730193,40.95226845434804,29.14031828464809,76.50301,-1,-1,-1,-1,30,26.05091700301345,-9999,39734.234218625,-0.5659027099609375,0.748992919921875,-0.31195068359375,39734.224141625,3.126219250595522,-1.080961725638325,-0.8618352260740403,-0.08934631943702698,0.02433530054986477,-0.06617319583892822,0.0191306471824646,-0.01646983623504639,-0.004792541265487671,XArbitraryZVertical,-0.4647429522878664,0.3617486537259583,-0.7807035942920733,0.2089345377963881,-0.574489414691925,0.7590386271476746,-0.3063037991523743,0,0,0,-1,-1,39729.35849275001,unknown,2,2025-04-22T17:28:06.255+03:00,2025-04-21T17:08:51.449+03:00,9047,1.059065,0,0,7544.334,7,22,2025-04-22T17:22:43.829+03:00,767024888.9439539,0,-11.46,100.3419,1,0.35,2025-04-22T17:28:09.394+03:00,125,2.083333333333333,2025-04-22T14:20:19.516+03:00,0.02197104130929222,0
2025-04-22T17:28:11.148+03:00,1745332089.730193,40.95226845434804,29.14031828464809,76.50301,-1,-1,-1,-1,30,26.05091700301345,-9999,39734.244294625,-0.56365966796875,0.7516326904296875,-0.3118438720703125,39734.234218625,3.124570134455594,-1.081927860060305,-0.8617398188954906,-0.08819037675857544,0.02932886034250259,-0.06265255808830261,0.01251703500747681,-0.01463764905929565,-0.005786746740341187,XArbitraryZVertical,-0.4648322483072146,0.3619940111191332,-0.7806680533154648,0.2084431740010587,-0.574849009513855,0.7589765191078186,-0.3057826459407806,0,0,0,-1,-1,39729.35849275001,unknown,2,2025-04-22T17:28:06.255+03:00,2025-04-21T17:08:51.449+03:00,9047,1.059065,0,0,7544.334,7,22,2025-04-22T17:22:43.829+03:00,767024888.9439539,0,-11.46,100.3419,1,0.35,2025-04-22T17:28:09.394+03:00,125,2.083333333333333,2025-04-22T14:20:19.516+03:00,0.02197104130929222,0
2025-04-22T17:28:11.158+03:00,1745332089.730193,40.95226845434804,29.14031828464809,76.50301,-1,-1,-1,-1,30,26.05091700301345,-9999,39734.254371625,-0.561187744140625,0.7559356689453125,-0.3152313232421875,39734.244294625,3.122872362950829,-1.082907963975096,-0.8616993871222267,-0.1001788601279259,0.02548431977629662,-0.06535300612449646,0.008860945701599121,-0.009316623210906982,-0.006793707609176636,XArbitraryZVertical,-0.4649118972632205,0.362270911381921,-0.7806240721083739,0.207948457481692,-0.5751754641532898,0.7589502334594727,-0.3052334189414978,0,0,0,-1,-1,39729.35849275001,unknown,2,2025-04-22T17:28:06.255+03:00,2025-04-21T17:08:51.449+03:00,9047,1.059065,0,0,7544.334,7,22,2025-04-22T17:22:43.829+03:00,767024888.9439539,0,-11.46,100.3419,1,0.35,2025-04-22T17:28:09.394+03:00,125,2.083333333333333,2025-04-22T14:20:19.516+03:00,0.02197104130929222,0
2025-04-22T17:28:11.168+03:00,1745332089.730193,40.95226845434804,29.14031828464809,76.50301,-1,-1,-1,-1,30,26.05091700301345,-9999,39734.264447625,-0.5582275390625,0.7628021240234375,-0.326690673828125,39734.254371625,3.12124913265814,-1.083777519273645,-0.8616614834518415,-0.08407758921384811,0.03217584639787674,-0.05827935039997101,0.0128442645072937,-0.00691145658493042,-0.007127851247787476,XArbitraryZVertical,-0.4649613699988632,0.36254323422752,-0.7805972479316147,0.2074635024442769,-0.5754661560058594,0.7589255571365356,-0.3047466576099396,0,0,0,-1,-1,39729.35849275001,unknown,2,2025-04-22T17:28:06.255+03:00,2025-04-21T17:08:51.449+03:00,9047,1.059065,0,0,7544.334,7,22,2025-04-22T17:22:43.829+03:00,767024888.9439539,0,-11.46,100.3419,1,0.35,2025-04-22T17:28:09.394+03:00,125,2.083333333333333,2025-04-22T14:20:19.516+03:00,0.02197104130929222,0
2025-04-22T17:28:11.178+03:00,1745332089.730193,40.95226845434804,29.14031828464809,76.50301,-1,-1,-1,-1,30,26.05091700301345,-9999,39734.27452462501,-0.562408447265625,0.771728515625,-0.33746337890625,39734.264447625,3.119901315803537,-1.084358702201712,-0.8615956368142006,-0.07512324303388596,0.0417829342186451,-0.05120599642395973,0.0152931809425354,-0.002123177051544189,-0.01180306077003479,XArbitraryZVertical,-0.4649511797246646,0.3627708031078936,-0.7806133721587203,0.2070272960552622,-0.5756872892379761,0.7588826417922974,-0.3044354915618896,0,0,0,-1,-1,39729.35849275001,unknown,2,2025-04-22T17:28:06.255+03:00,2025-04-21T17:08:51.449+03:00,9047,1.059065,0,0,7544.334,7,22,2025-04-22T17:22:43.829+03:00,767024888.9439539,0,-11.46,100.3419,1,0.35,2025-04-22T17:28:09.394+03:00,125,2.083333333333333,2025-04-22T14:20:19.516+03:00,0.02197104130929222,0
2025-04-22T17:28:11.188+03:00,1745332089.730193,40.95226845434804,29.14031828464809,76.50301,-1,-1,-1,-1,30,26.05091700301345,-9999,39734.284600625,-0.5653076171875,0.7833099365234375,-0.343292236328125,39734.27452462501,3.118643658412496,-1.084716131824157,-0.8615621182213774,-0.06961109489202499,0.06848718225955963,-0.03451892733573914,0.01699608564376831,0.005131304264068604,-0.02453970909118652,XArbitraryZVertical,-0.4648662627089997,0.363013196116964,-0.7806661837888201,0.206593363234165,-0.5758184790611267,0.7588608264923096,-0.3042415678501129,0,0,0,-1,-1,39729.35849275001,unknown,2,2025-04-22T17:28:06.255+03:00,2025-04-21T17:08:51.449+03:00,9047,1.059065,0,0,7544.334,7,22,2025-04-22T17:22:43.829+03:00,767024888.9439539,0,-11.46,100.3419,1,0.35,2025-04-22T17:28:09.394+03:00,125,2.083333333333333,2025-04-22T14:20:19.516+03:00,0.02197104130929222,0
2025-04-22T17:28:11.198+03:00,1745332089.730193,40.95226845434804,29.14031828464809,76.50301,-1,-1,-1,-1,30,26.05091700301345,-9999,39734.294677625,-0.5645294189453125,0.7867889404296875,-0.34759521484375,39734.284600625,3.117598548287157,-1.084779567530705,-0.8615787375172558,-0.06568107008934021,0.07466012239456177,-0.03141128644347191,0.01322013139724731,0.01468777656555176,-0.03407302498817444,XArbitraryZVertical,-0.4646993800915342,0.3632559551761844,-0.7807564778053754,0.2062007972768628,-0.5758267641067505,0.7588716745376587,-0.3041991889476776,0,0,0,-1,-1,39729.35849275001,unknown,2,2025-04-22T17:28:06.255+03:00,2025-04-21T17:08:51.449+03:00,9047,1.059065,0,0,7544.334,7,22,2025-04-22T17:22:43.829+03:00,767024888.9439539,0,-11.46,100.3419,1,0.35,2025-04-22T17:28:09.394+03:00,125,2.083333333333333,2025-04-22T14:20:19.516+03:00,0.02197104130929222,0
2025-04-22T17:28:11.209+03:00,1745332089.730193,40.95226845434804,29.14031828464809,76.50301,-1,-1,-1,-1,30,26.05091700301345,-9999,39734.304753625,-0.5658721923828125,0.78228759765625,-0.34857177734375,39734.294677625,3.116520426020827,-1.084757678047976,-0.8616811391414749,-0.0739055797457695,0.08160711079835892,-0.02524506859481335,0.00961989164352417,0.0255311131477356,-0.03989508748054504,XArbitraryZVertical,-0.4644834250971989,0.3635483681245997,-0.780854531185653,0.2058001838012136,-0.5757513046264648,0.7589383125305176,-0.304175466299057,0,0,0,-1,-1,39729.35849275001,unknown,2,2025-04-22T17:28:06.255+03:00,2025-04-21T17:08:51.449+03:00,9047,1.059065,0,0,7544.334,7,22,2025-04-22T17:22:43.829+03:00,767024888.9439539,0,-11.46,100.3419,1,0.35,2025-04-22T17:28:09.394+03:00,125,2.083333333333333,2025-04-22T14:20:19.516+03:00,0.02197104130929222,0
2025-04-22T17:28:11.219+03:00,1745332089.730193,40.95226845434804,29.14031828464809,76.50301,-1,-1,-1,-1,30,26.05091700301345,-9999,39734.314830625,-0.5688629150390625,0.7827911376953125,-0.3569183349609375,39734.304753625,3.11530473061596,-1.084790078832513,-0.8618290502947715,-0.08487247675657272,0.08422553539276123,-0.02716653980314732,0.01149886846542358,0.02705222368240356,-0.04359778761863708,XArbitraryZVertical,-0.4642583129952771,0.3638846489506221,-0.7809459469930202,0.205366437866036,-0.5756618976593018,0.7590346336364746,-0.30410435795784,0,0,0,-1,-1,39729.35849275001,unknown,2,2025-04-22T17:28:06.255+03:00,2025-04-21T17:08:51.449+03:00,9047,1.059065,0,0,7544.334,7,22,2025-04-22T17:22:43.829+03:00,767024888.9439539,0,-11.46,100.3419,1,0.35,2025-04-22T17:28:09.394+03:00,125,2.083333333333333,2025-04-22T14:20:19.516+03:00,0.02197104130929222,0
2025-04-22T17:28:11.229+03:00,1745332089.730193,40.95226845434804,29.14031828464809,76.50301,-1,-1,-1,-1,30,26.05091700301345,-9999,39734.324906625,-0.558380126953125,0.78631591796875,-0.3768310546875,39734.314830625,3.113798737549258,-1.084928935408994,-0.8622125382119082,-0.1284274756908417,0.08955791592597961,-0.009430985897779465,0.008491396903991699,0.0232168436050415,-0.04508015513420105,XArbitraryZVertical,-0.4639949655411174,0.3643685102942825,-0.7810008836940553,0.2048944564759687,-0.5754467844963074,0.7592842578887939,-0.3038885295391083,0,0,0,-1,-1,39729.35849275001,unknown,2,2025-04-22T17:28:06.255+03:00,2025-04-21T17:08:51.449+03:00,9047,1.059065,0,0,7544.334,7,22,2025-04-22T17:22:43.829+03:00,767024888.9439539,0,-11.46,100.3419,1,0.35,2025-04-22T17:28:09.394+03:00,125,2.083333333333333,2025-04-22T14:20:19.516+03:00,0.02197104130929222,0
2025-04-22T17:28:11.239+03:00,1745332089.730193,40.95226845434804,29.14031828464809,76.50301,-1,-1,-1,-1,30,26.05091700301345,-9999,39734.33498362501,-0.541778564453125,0.77508544921875,-0.403228759765625,39734.324906625,3.111791284944602,-1.085532258077152,-0.8628683282013154,-0.1732442080974579,0.08697810769081116,0.005472862161695957,0.007410109043121338,0.02268350124359131,-0.05594408512115479,XArbitraryZVertical,-0.4637900415062346,0.3650264315332539,-0.7809512606345461,0.2043760397074609,-0.5751895308494568,0.7597108483314514,-0.3033089935779572,0,0,0,-1,-1,39729.35849275001,unknown,2,2025-04-22T17:28:06.255+03:00,2025-04-21T17:08:51.449+03:00,9047,1.059065,0,0,7544.334,7,22,2025-04-22T17:22:43.829+03:00,767024888.9439539,0,-11.46,100.3419,1,0.35,2025-04-22T17:28:09.394+03:00,125,2.083333333333333,2025-04-22T14:20:19.516+03:00,0.02197104130929222,0
2025-04-22T17:28:11.249+03:00,1745332089.730193,40.95226845434804,29.14031828464809,76.50301,-1,-1,-1,-1,30,26.05091700301345,-9999,39734.345059625,-0.51690673828125,0.75958251953125,-0.4211883544921875,39734.33498362501,3.108950692936091,-1.086962920361123,-0.8641273930837043,-0.2652843296527863,0.03878055140376091,0.03131834045052528,0.01766210794448853,0.0269007682800293,-0.07747620344161987,XArbitraryZVertical,-0.4636856627424334,0.3660263791630018,-0.7806885207021372,0.2038275024457309,-0.5747756361961365,0.7605289816856384,-0.3020406067371368,0,0,0,-1,-1,39729.35849275001,unknown,2,2025-04-22T17:28:06.255+03:00,2025-04-21T17:08:51.449+03:00,9047,1.059065,0,0,7544.334,7,22,2025-04-22T17:22:43.829+03:00,767024888.9439539,0,-11.46,100.3419,1,0.35,2025-04-22T17:28:09.394+03:00,125,2.083333333333333,2025-04-22T14:20:19.516+03:00,0.02197104130929222,0
2025-04-22T17:28:11.259+03:00,1745332089.730193,40.95226845434804,29.14031828464809,76.50301,-1,-1,-1,-1,30,26.05091700301345,-9999,39734.355136625,-0.5079803466796875,0.7545166015625,-0.4364776611328125,39734.345059625,3.105311858766576,-1.089482286694752,-0.8658650288647747,-0.3114267885684967,0.004157327581197023,0.05407345294952393,0.03584951162338257,0.01054543256759644,-0.1068506836891174,XArbitraryZVertical,-0.4638015351128961,0.3672852544162923,-0.780170282551332,0.2032830591584612,-0.5743626356124878,0.7616560459136963,-0.2999793589115143,0,0,0,-1,-1,39729.35849275001,unknown,2,2025-04-22T17:28:06.255+03:00,2025-04-21T17:08:51.449+03:00,9047,1.059065,0,0,7544.334,7,22,2025-04-22T17:22:43.829+03:00,767024888.9439539,0,-11.46,100.3419,1,0.35,2025-04-22T17:28:09.394+03:00,125,2.083333333333333,2025-04-22T14:20:19.516+03:00,0.02197104130929222,0
2025-04-22T17:28:11.269+03:00,1745332089.730193,40.95226845434804,29.14031828464809,76.50301,-1,-1,-1,-1,30,26.05091700301345,-9999,39734.365212625,-0.506103515625,0.766845703125,-0.44293212890625,39734.355136625,3.101302237002907,-1.092613788786742,-0.8678902492496343,-0.3518823981285095,-0.03242365270853043,0.06379368901252747,0.05926477909088135,-0.00385749340057373,-0.1249556839466095,XArbitraryZVertical,-0.4640491917366179,0.3686786821203605,-0.779496397392646,0.2027795846277609,-0.5739282965660095,0.7629668116569519,-0.2974687516689301,0,0,0,-1,-1,39729.35849275001,unknown,2,2025-04-22T17:28:06.255+03:00,2025-04-21T17:08:51.449+03:00,9047,1.059065,0,0,7544.334,7,22,2025-04-22T17:22:43.829+03:00,767024888.9439539,0,-11.46,100.3419,1,0.35,2025-04-22T17:28:09.394+03:00,125,2.083333333333333,2025-04-22T14:20:19.516+03:00,0.02197104130929222,0
2025-04-22T17:28:11.279+03:00,1745332089.730193,40.95226845434804,29.14031828464809,76.50301,-1,-1,-1,-1,30,26.05091700301345,-9999,39734.375289625,-0.500030517578125,0.7787933349609375,-0.439971923828125,39734.365212625,3.097061118594798,-1.096355160509529,-0.8701126440632888,-0.3340259194374084,-0.07073136419057846,0.07384499162435532,0.06525743007659912,-0.008649110794067383,-0.1435511708259583,XArbitraryZVertical,-0.464461644804095,0.3701396079862423,-0.7786693370174427,0.2023513069941232,-0.5735276341438293,0.7644015550613403,-0.2945441007614136,0,0,0,-1,-1,39729.35849275001,unknown,2,2025-04-22T17:28:06.255+03:00,2025-04-21T17:08:51.449+03:00,9047,1.059065,0,0,7544.334,7,22,2025-04-22T17:22:43.829+03:00,767024888.9439539,0,-11.46,100.3419,1,0.35,2025-04-22T17:28:09.394+03:00,125,2.083333333333333,2025-04-22T14:20:19.516+03:00,0.02197104130929222,0
2025-04-22T17:28:11.289+03:00,1745332089.730193,40.95226845434804,29.14031828464809,76.50301,-1,-1,-1,-1,30,26.05091700301345,-9999,39734.385365625,-0.4994964599609375,0.785400390625,-0.4335479736328125,39734.375289625,3.093185690065983,-1.100290218254999,-0.8722549082352523,-0.3085527122020721,-0.1313200742006302,0.07203155010938644,0.06759095191955566,0.003124594688415527,-0.1509020924568176,XArbitraryZVertical,-0.4650192096720356,0.3714648813245456,-0.7777732065482469,0.2020885908400907,-0.5732213258743286,0.765781044960022,-0.2915419638156891,0,0,0,-1,-1,39729.35849275001,unknown,2,2025-04-22T17:28:06.255+03:00,2025-04-21T17:08:51.449+03:00,9047,1.059065,0,0,7544.334,7,22,2025-04-22T17:22:43.829+03:00,767024888.9439539,0,-11.46,100.3419,1,0.35,2025-04-22T17:28:09.394+03:00,125,2.083333333333333,2025-04-22T14:20:19.516+03:00,0.02197104130929222,0
2025-04-22T17:28:11.300+03:00,1745332089.730193,40.95226845434804,29.14031828464809,76.50301,-1,-1,-1,-1,30,26.05091700301345,-9999,39734.39544450001,-0.4951934814453125,0.7877655029296875,-0.4165802001953125,39734.385365625,3.08941450244935,-1.104870854729473,-0.8742311880362771,-0.2949551343917847,-0.2098769396543503,0.05681717768311501,0.07290774583816528,0.01293295621871948,-0.1511900722980499,XArbitraryZVertical,-0.4658598734118451,0.3726368630785887,-0.7767440118985602,0.2019529649534612,-0.5731974840164185,0.7670504450798035,-0.288232684135437,0,0,0,-1,-1,39729.35849275001,unknown,2,2025-04-22T17:28:06.255+03:00,2025-04-21T17:08:51.449+03:00,9047,1.059065,0,0,7544.334,7,22,2025-04-22T17:22:43.829+03:00,767024888.9439539,0,-11.46,100.3419,1,0.35,2025-04-22T17:28:09.394+03:00,125,2.083333333333333,2025-04-22T14:20:19.516+03:00,0.02197104130929222,0
2025-04-22T17:28:11.310+03:00,1745332089.730193,40.95226845434804,29.14031828464809,76.50301,-1,-1,-1,-1,30,26.05091700301345,-9999,39734.4055205,-0.5016021728515625,0.782928466796875,-0.4008331298828125,39734.39544450001,3.085489816520216,-1.110616977567864,-0.8758787359596961,-0.3079548180103302,-0.329692542552948,0.009105714038014412,0.07474887371063232,0.01744633913040161,-0.1471918523311615,XArbitraryZVertical,-0.4671568650682442,0.3736015865328363,-0.7755137895982708,0.20190231865867,-0.5737111568450928,0.7681064605712891,-0.2843726277351379,0,0,0,-1,-1,39729.35849275001,unknown,2,2025-04-22T17:28:06.255+03:00,2025-04-21T17:08:51.449+03:00,9047,1.059065,0,0,7544.334,7,22,2025-04-22T17:22:43.829+03:00,767024888.9439539,0,-11.46,100.3419,1,0.35,2025-04-22T17:28:09.394+03:00,125,2.083333333333333,2025-04-22T14:20:19.516+03:00,0.02197104130929222,0
2025-04-22T17:28:11.319+03:00,1745332089.730193,40.95226845434804,29.14031828464809,76.50301,-1,-1,-1,-1,30,26.05091700301345,-9999,39734.4155975,-0.5182037353515625,0.7845916748046875,-0.37921142578125,39734.4055205,3.081201694728985,-1.117593765159444,-0.8771932422314603,-0.3328593671321869,-0.4205444157123566,-0.02886989712715149,0.07979315519332886,0.01846694946289062,-0.1344318389892578,XArbitraryZVertical,-0.4688956835735865,0.3744014645370057,-0.7740864975720515,0.2018671597125641,-0.5747728943824768,0.7689475417137146,-0.279920756816864,0,0,0,-1,-1,39729.35849275001,unknown,2,2025-04-22T17:28:06.255+03:00,2025-04-21T17:08:51.449+03:00,9047,1.059065,0,0,7544.334,7,22,2025-04-22T17:22:43.829+03:00,767024888.9439539,0,-11.46,100.3419,1,0.35,2025-04-22T17:28:09.394+03:00,125,2.083333333333333,2025-04-22T14:20:19.516+03:00,0.02197104130929222,0
2025-04-22T17:28:11.329+03:00,1745332089.730193,40.95226845434804,29.14031828464809,76.50301,-1,-1,-1,-1,30,26.05091700301345,-9999,39734.4256735,-0.5404052734375,0.7716064453125,-0.3527374267578125,39734.4155975,3.075999646140346,-1.126147517573627,-0.8783126648254277,-0.3768784999847412,-0.4957427680492401,-0.06234157085418701,0.07302719354629517,0.01282310485839844,-0.1240886747837067,XArbitraryZVertical,-0.4710879692029995,0.3751856879746573,-0.7724084087932975,0.2017346510752986,-0.5763686895370483,0.7696626782417297,-0.2746236622333527,0,0,0,-1,-1,39729.35849275001,unknown,2,2025-04-22T17:28:06.255+03:00,2025-04-21T17:08:51.449+03:00,9047,1.059065,0,0,7544.334,7,22,2025-04-22T17:22:43.829+03:00,767024888.9439539,0,-11.46,100.3419,1,0.35,2025-04-22T17:28:09.394+03:00,125,2.083333333333333,2025-04-22T14:20:19.516+03:00,0.02197104130929222,0
2025-04-22T17:28:11.339+03:00,1745332089.730193,40.95226845434804,29.14031828464809,76.50301,-1,-1,-1,-1,30,26.05091700301345,-9999,39734.4357505,-0.546875,0.7671966552734375,-0.3411102294921875,39734.4256735,3.070087042866239,-1.136015971353313,-0.8793428814425196,-0.3976447582244873,-0.5639287829399109,-0.08025159686803818,0.05735069513320923,0.01306611299514771,-0.1059081554412842,XArbitraryZVertical,-0.4736532907348889,0.3759764997122101,-0.7704975865759451,0.2015631065421811,-0.578331470489502,0.7703200578689575,-0.2685884535312653,0,0,0,-1,-1,39729.35849275001,unknown,2,2025-04-22T17:28:06.255+03:00,2025-04-21T17:08:51.449+03:00,9047,1.059065,0,0,7544.334,7,22,2025-04-22T17:22:43.829+03:00,767024888.9439539,0,-11.46,100.3419,1,0.35,2025-04-22T17:28:09.394+03:00,125,2.083333333333333,2025-04-22T14:20:19.516+03:00,0.02197104130929222,0
2025-04-22T17:28:11.350+03:00,1745332089.730193,40.95226845434804,29.14031828464809,76.50301,-1,-1,-1,-1,30,26.05091700301345,-9999,39734.4458265,-0.5446014404296875,0.7701568603515625,-0.326263427734375,39734.4357505,3.06318026621074,-1.147477163131178,-0.8802203615456606,-0.468831866979599,-0.6495267748832703,-0.1197255030274391,0.03812235593795776,-0.0008140206336975098,-0.09011149406433105,XArbitraryZVertical,-0.4766492682663509,0.3767931227604964,-0.7683212174866183,0.2012831812934512,-0.5807552337646484,0.7708792686462402,-0.2616648375988007,0,0,0,-1,-1,39729.35849275001,unknown,2,2025-04-22T17:28:06.255+03:00,2025-04-21T17:08:51.449+03:00,9047,1.059065,0,0,7544.334,7,22,2025-04-22T17:22:43.829+03:00,767024888.9439539,0,-11.46,100.3419,1,0.35,2025-04-22T17:28:09.394+03:00,125,2.083333333333333,2025-04-22T14:20:19.516+03:00,0.02197104130929222,0
2025-04-22T17:28:11.360+03:00,1745332089.730193,40.95226845434804,29.14031828464809,76.50301,-1,-1,-1,-1,30,26.05091700301345,-9999,39734.45590250001,-0.538330078125,0.7671661376953125,-0.3377532958984375,39734.4458265,3.05538698652596,-1.160380786679627,-0.8810581265301468,-0.4888447225093842,-0.7174797058105469,-0.1276561319828033,0.03690588474273682,-0.00357520580291748,-0.0853266716003418,XArbitraryZVertical,-0.4800181500553423,0.3776728077111547,-0.7658777412809059,0.2009405685831007,-0.5834908485412598,0.7714126110076904,-0.25389164686203,0,0,0,-1,-1,39729.35849275001,unknown,2,2025-04-22T17:28:06.255+03:00,2025-04-21T17:08:51.449+03:00,9047,1.059065,0,0,7544.334,7,22,2025-04-22T17:22:43.829+03:00,767024888.9439539,0,-11.46,100.3419,1,0.35,2025-04-22T17:28:09.394+03:00,125,2.083333333333333,2025-04-22T14:20:19.516+03:00,0.02197104130929222,0
2025-04-22T17:28:11.370+03:00,1745332089.730193,40.95226845434804,29.14031828464809,76.50301,-1,-1,-1,-1,30,26.05091700301345,-9999,39734.4659795,-0.5343170166015625,0.7610626220703125,-0.3466644287109375,39734.45590250001,3.047440219142812,-1.174071452509128,-0.8818887474710517,-0.5007857084274292,-0.7842215895652771,-0.112812265753746,0.04152107238769531,-0.001936733722686768,-0.08034168183803558,XArbitraryZVertical,-0.483637862448359,0.3785213548674619,-0.763238913396993,0.2007043709170531,-0.586320698261261,0.7719409465789795,-0.2456320077180862,0,0,0,-1,-1,39729.35849275001,unknown,2,2025-04-22T17:28:06.255+03:00,2025-04-21T17:08:51.449+03:00,9047,1.059065,0,0,7544.334,7,22,2025-04-22T17:22:43.829+03:00,767024888.9439539,0,-11.46,100.3419,1,0.35,2025-04-22T17:28:09.394+03:00,125,2.083333333333333,2025-04-22T14:20:19.516+03:00,0.02197104130929222,0
