loggingTime(txt),locationTimestamp_since1970(s),locationLatitude(WGS84),locationLongitude(WGS84),locationAltitude(m),locationSpeed(m/s),locationSpeedAccuracy(m/s),locationCourse(°),locationCourseAccuracy(°),locationVerticalAccuracy(m),locationHorizontalAccuracy(m),locationFloor(Z),accelerometerTimestamp_sinceReboot(s),accelerometerAccelerationX(G),accelerometerAccelerationY(G),accelerometerAccelerationZ(G),motionTimestamp_sinceReboot(s),motionYaw(rad),motionRoll(rad),motionPitch(rad),motionRotationRateX(rad/s),motionRotationRateY(rad/s),motionRotationRateZ(rad/s),motionUserAccelerationX(G),motionUserAccelerationY(G),motionUserAccelerationZ(G),motionAttitudeReferenceFrame(txt),motionQuaternionX(R),motionQuaternionY(R),motionQuaternionZ(R),motionQuaternionW(R),motionGravityX(G),motionGravityY(G),motionGravityZ(G),motionMagneticFieldX(µT),motionMagneticFieldY(µT),motionMagneticFieldZ(µT),motionHeading(°),motionMagneticFieldCalibrationAccuracy(Z),activityTimestamp_sinceReboot(s),activity(txt),activityActivityConfidence(Z),activityActivityStartDate(txt),pedometerStartDate(txt),pedometerNumberofSteps(N),pedometerAverageActivePace(s/m),pedometerCurrentPace(s/m),pedometerCurrentCadence(steps/s),pedometerDistance(m),pedometerFloorAscended(N),pedometerFloorDescended(N),pedometerEndDate(txt),altimeterTimestamp_sinceReboot(s),altimeterReset(bool),altimeterRelativeAltitude(m),altimeterPressure(kPa),batteryState(N),batteryLevel(R),heartRateBPMTimestamp(txt),heartRateBPM(N),heartRateBPS(R),heartRateVariabilityTimestamp(txt),heartRateVariability(ms),label
2025-04-22T17:02:33.717+03:00,1745330552.933554,40.95222141235789,29.14026153500561,76.7301,-1,-1,-1,-1,30,17.58926956519938,-9999,38848.72670087501,-0.46539306640625,0.679168701171875,-0.494110107421875,38848.716624875,-2.816531196660715,-0.7719107866316098,-0.786688387023016,-0.0204393994063139,-0.04622264951467514,-0.01835843361914158,-0.006601691246032715,-0.01404893398284912,-0.005110502243041992,XArbitraryZVertical,-0.400572471688098,0.2941425146046463,-0.8210646455392185,0.2808461579052681,-0.4925741851329803,0.7080185413360596,-0.5060437321662903,0,0,0,-1,-1,38843.99246366667,unknown,2,2025-04-22T17:02:28.952+03:00,2025-04-21T17:08:51.449+03:00,8997,1.055654,0,0,7505.379,7,22,2025-04-22T17:01:47.683+03:00,767023318.1019011,0,-13.68,100.3656,1,0.4,2025-04-22T17:01:55.525+03:00,120,2,2025-04-22T14:20:19.516+03:00,0.02197104130929222,0
2025-04-22T17:02:33.720+03:00,1745330552.933554,40.95222141235789,29.14026153500561,76.7301,-1,-1,-1,-1,30,17.58926956519938,-9999,38848.736775875,-0.517547607421875,0.73919677734375,-0.504638671875,38848.72670087501,-2.816711762109172,-0.7720703576306029,-0.7867219913807768,0.00774343591183424,0.03035115450620651,0.005793075077235699,0.01760184764862061,-0.03502297401428223,0.01109015941619873,XArbitraryZVertical,-0.4006113492602031,0.2941708434479427,-0.8210512424724588,0.2808003023866416,-0.4926383793354034,0.7080422639846802,-0.5059481263160706,0,0,0,-1,-1,38843.99246366667,unknown,2,2025-04-22T17:02:28.952+03:00,2025-04-21T17:08:51.449+03:00,8997,1.055654,0,0,7505.379,7,22,2025-04-22T17:01:47.683+03:00,767023318.1019011,0,-13.68,100.3656,1,0.4,2025-04-22T17:01:55.525+03:00,120,2,2025-04-22T14:20:19.516+03:00,0.02197104130929222,0
2025-04-22T17:02:33.724+03:00,1745330552.933554,40.95222141235789,29.14026153500561,76.7301,-1,-1,-1,-1,30,17.58926956519938,-9999,38848.746851875,-0.484588623046875,0.7042083740234375,-0.5043182373046875,38848.736775875,-2.816670851672973,-0.7718973323653034,-0.7867216778928743,0.003193424781784415,-0.005982351489365101,-0.007319530937820673,0.02248883247375488,-0.0201454758644104,0.01138919591903687,XArbitraryZVertical,-0.4005463436532229,0.294186821410127,-0.8210801692013023,0.2807916000679728,-0.4925509393215179,0.7080420255661011,-0.5060334801673889,0,0,0,-1,-1,38843.99246366667,unknown,2,2025-04-22T17:02:28.952+03:00,2025-04-21T17:08:51.449+03:00,8997,1.055654,0,0,7505.379,7,22,2025-04-22T17:01:47.683+03:00,767023318.1019011,0,-13.68,100.3656,1,0.4,2025-04-22T17:01:55.525+03:00,120,2,2025-04-22T14:20:19.516+03:00,0.02197104130929222,0
2025-04-22T17:02:33.727+03:00,1745330552.933554,40.95222141235789,29.14026153500561,76.7301,-1,-1,-1,-1,30,17.58926956519938,-9999,38848.756927875,-0.4777374267578125,0.704010009765625,-0.4995269775390625,38848.746851875,-2.816824529218238,-0.7721513845976082,-0.7866370881500839,0.002820715541020036,-0.001274548936635256,-0.006214652210474014,-0.02644360065460205,0.03168737888336182,0.0006563663482666016,XArbitraryZVertical,-0.4006282048036183,0.294145228529339,-0.8210680784446865,0.2807537918366413,-0.492721289396286,0.7079823017120361,-0.5059512257575989,0,0,0,-1,-1,38843.99246366667,unknown,2,2025-04-22T17:02:28.952+03:00,2025-04-21T17:08:51.449+03:00,8997,1.055654,0,0,7505.379,7,22,2025-04-22T17:01:47.683+03:00,767023318.1019011,0,-13.68,100.3656,1,0.4,2025-04-22T17:01:55.525+03:00,120,2,2025-04-22T14:20:19.516+03:00,0.02197104130929222,0
2025-04-22T17:02:33.732+03:00,1745330552.933554,40.95222141235789,29.14026153500561,76.7301,-1,-1,-1,-1,30,17.58926956519938,-9999,38848.767002875,-0.5047760009765625,0.71270751953125,-0.50262451171875,38848.756927875,-2.816823121559301,-0.7720672393539803,-0.7864406822043445,0.004552835132926702,0.01712922565639019,-6.967424997128546e-05,0.01363465189933777,-0.007251620292663574,0.002720057964324951,XArbitraryZVertical,-0.4005942440333853,0.2940715063204742,-0.8211247726124252,0.2807139327941688,-0.4927757680416107,0.707843542098999,-0.5060924291610718,0,0,0,-1,-1,38843.99246366667,unknown,2,2025-04-22T17:02:28.952+03:00,2025-04-21T17:08:51.449+03:00,8997,1.055654,0,0,7505.379,7,22,2025-04-22T17:01:47.683+03:00,767023318.1019011,0,-13.68,100.3656,1,0.4,2025-04-22T17:01:55.525+03:00,120,2,2025-04-22T14:20:19.516+03:00,0.02197104130929222,0
2025-04-22T17:02:33.742+03:00,1745330552.933554,40.95222141235789,29.14026153500561,76.7301,-1,-1,-1,-1,30,17.58926956519938,-9999,38848.77707887501,-0.4871368408203125,0.7037353515625,-0.5016021728515625,38848.767002875,-2.816703807795411,-0.7717682867307714,-0.7865329346328762,0.001700057415291667,0.007156220264732838,-0.001209640293382108,0.01046231389045715,-0.0009538531303405762,0.00619274377822876,XArbitraryZVertical,-0.4004888691739154,0.2941296076462903,-0.8211491218847692,0.2807321369043383,-0.4925788938999176,0.7079087495803833,-0.5061928629875183,0,0,0,-1,-1,38843.99246366667,unknown,2,2025-04-22T17:02:28.952+03:00,2025-04-21T17:08:51.449+03:00,8997,1.055654,0,0,7505.379,7,22,2025-04-22T17:01:47.683+03:00,767023318.1019011,0,-13.68,100.3656,1,0.4,2025-04-22T17:01:55.525+03:00,120,2,2025-04-22T14:20:19.516+03:00,0.02197104130929222,0
2025-04-22T17:02:33.764+03:00,1745330552.933554,40.95222141235789,29.14026153500561,76.7301,-1,-1,-1,-1,30,17.58926956519938,-9999,38848.787153875,-0.4883270263671875,0.706512451171875,-0.5040283203125,38848.77707887501,-2.816600354014614,-0.7715206768518569,-0.7865820415702522,0.003525387961417437,0.01494543347507715,-0.0004572973120957613,-0.01135477423667908,0.003695905208587646,0.00383305549621582,XArbitraryZVertical,-0.4004023294609276,0.2941649661963555,-0.8211741701436671,0.2807452070091767,-0.4924292862415314,0.7079434394836426,-0.5062898993492126,0,0,0,-1,-1,38843.99246366667,unknown,2,2025-04-22T17:02:28.952+03:00,2025-04-21T17:08:51.449+03:00,8997,1.055654,0,0,7505.379,7,22,2025-04-22T17:01:47.683+03:00,767023318.1019011,0,-13.68,100.3656,1,0.4,2025-04-22T17:01:55.525+03:00,120,2,2025-04-22T14:20:19.516+03:00,0.02197104130929222,0
2025-04-22T17:02:33.765+03:00,1745330552.933554,40.95222141235789,29.14026153500561,76.7301,-1,-1,-1,-1,30,17.58926956519938,-9999,38848.797229875,-0.4930877685546875,0.7116241455078125,-0.5033721923828125,38848.787153875,-2.816551472722054,-0.7713271694648576,-0.7865041617981571,0.007029974833130836,0.01205470599234104,0.0002554311649873853,0.007018297910690308,-0.004748225212097168,0.004089951515197754,XArbitraryZVertical,-0.4003302146839351,0.2941485517687097,-0.8212218707264476,0.2807257001395642,-0.4923697412014008,0.7078884243965149,-0.5064247250556946,0,0,0,-1,-1,38843.99246366667,unknown,2,2025-04-22T17:02:28.952+03:00,2025-04-21T17:08:51.449+03:00,8997,1.055654,0,0,7505.379,7,22,2025-04-22T17:01:47.683+03:00,767023318.1019011,0,-13.68,100.3656,1,0.4,2025-04-22T17:01:55.525+03:00,120,2,2025-04-22T14:20:19.516+03:00,0.02197104130929222,0
2025-04-22T17:02:33.772+03:00,1745330552.933554,40.95222141235789,29.14026153500561,76.7301,-1,-1,-1,-1,30,17.58926956519938,-9999,38848.807304875,-0.48773193359375,0.707977294921875,-0.5017547607421875,38848.797229875,-2.816491657631223,-0.7712003111195409,-0.7864136944230626,0.008670748211443424,0.007821611128747463,-0.0004492412554100156,0.001688629388809204,-0.0004882216453552246,0.001726448535919189,XArbitraryZVertical,-0.4002870775613694,0.2941151062127447,-0.8212573246840097,0.280718698354412,-0.492350161075592,0.7078245282173157,-0.506533145904541,0,0,0,-1,-1,38843.99246366667,unknown,2,2025-04-22T17:02:28.952+03:00,2025-04-21T17:08:51.449+03:00,8997,1.055654,0,0,7505.379,7,22,2025-04-22T17:01:47.683+03:00,767023318.1019011,0,-13.68,100.3656,1,0.4,2025-04-22T17:01:55.525+03:00,120,2,2025-04-22T14:20:19.516+03:00,0.02197104130929222,0
2025-04-22T17:02:33.782+03:00,1745330552.933554,40.95222141235789,29.14026153500561,76.7301,-1,-1,-1,-1,30,17.58926956519938,-9999,38848.817380875,-0.49249267578125,0.7059173583984375,-0.503997802734375,38848.807304875,-2.816438611050406,-0.7710769938906512,-0.7863456106678003,0.004708630498498678,0.008872893638908863,-5.742369103245437e-05,-0.000247657299041748,0.004412174224853516,0.004263043403625488,XArbitraryZVertical,-0.4002443956805442,0.2940923075400431,-0.8212882283714537,0.2807126246577923,-0.4923211634159088,0.7077764272689819,-0.5066282749176025,0,0,0,-1,-1,38843.99246366667,unknown,2,2025-04-22T17:02:28.952+03:00,2025-04-21T17:08:51.449+03:00,8997,1.055654,0,0,7505.379,7,22,2025-04-22T17:01:47.683+03:00,767023318.1019011,0,-13.68,100.3656,1,0.4,2025-04-22T17:01:55.525+03:00,120,2,2025-04-22T14:20:19.516+03:00,0.02197104130929222,0
2025-04-22T17:02:33.792+03:00,1745330552.933554,40.95222141235789,29.14026153500561,76.7301,-1,-1,-1,-1,30,17.58926956519938,-9999,38848.82745687501,-0.4923095703125,0.7042694091796875,-0.504974365234375,38848.817380875,-2.816378994607917,-0.7709137248952159,-0.7863174704007365,0.003268392756581306,0.009822577238082886,0.0001399165485054255,0.003620266914367676,-0.0002828836441040039,0.004159331321716309,XArbitraryZVertical,-0.4001861644341977,0.2940910785586214,-0.8213182613944376,0.2807090846893384,-0.4922523200511932,0.707756519317627,-0.5067229270935059,0,0,0,-1,-1,38843.99246366667,unknown,2,2025-04-22T17:02:28.952+03:00,2025-04-21T17:08:51.449+03:00,8997,1.055654,0,0,7505.379,7,22,2025-04-22T17:01:47.683+03:00,767023318.1019011,0,-13.68,100.3656,1,0.4,2025-04-22T17:01:55.525+03:00,120,2,2025-04-22T14:20:19.516+03:00,0.02197104130929222,0
2025-04-22T17:02:33.802+03:00,1745330552.933554,40.95222141235789,29.14026153500561,76.7301,-1,-1,-1,-1,30,17.58926956519938,-9999,38848.837531875,-0.4927825927734375,0.7034759521484375,-0.50433349609375,38848.82745687501,-2.816414146738029,-0.7709151486816047,-0.7863216658168194,0.00423512002453208,0.005531958304345608,-0.002033755648881197,-0.0008061528205871582,-0.001872777938842773,0.00243222713470459,XArbitraryZVertical,-0.4001815748347058,0.2940997370731634,-0.821322044961955,0.2806954562162557,-0.4922509789466858,0.7077594995498657,-0.5067201256752014,0,0,0,-1,-1,38843.99246366667,unknown,2,2025-04-22T17:02:28.952+03:00,2025-04-21T17:08:51.449+03:00,8997,1.055654,0,0,7505.379,7,22,2025-04-22T17:01:47.683+03:00,767023318.1019011,0,-13.68,100.3656,1,0.4,2025-04-22T17:01:55.525+03:00,120,2,2025-04-22T14:20:19.516+03:00,0.02197104130929222,0
2025-04-22T17:02:33.812+03:00,1745330552.933554,40.95222141235789,29.14026153500561,76.7301,-1,-1,-1,-1,30,17.58926956519938,-9999,38848.847607875,-0.490570068359375,0.70416259765625,-0.5029296875,38848.837531875,-2.816379531629684,-0.7708113670412964,-0.7862882508631829,0.007518531288951635,0.007920014671981335,-0.00100737321190536,-0.0003386735916137695,-0.003451347351074219,0.002134084701538086,XArbitraryZVertical,-0.4001440958062801,0.2940928591522666,-0.821344793481356,0.2806896476874083,-0.4922148883342743,0.7077358961105347,-0.5067881941795349,0,0,0,-1,-1,38843.99246366667,unknown,2,2025-04-22T17:02:28.952+03:00,2025-04-21T17:08:51.449+03:00,8997,1.055654,0,0,7505.379,7,22,2025-04-22T17:01:47.683+03:00,767023318.1019011,0,-13.68,100.3656,1,0.4,2025-04-22T17:01:55.525+03:00,120,2,2025-04-22T14:20:19.516+03:00,0.02197104130929222,0
2025-04-22T17:02:33.822+03:00,1745330552.933554,40.95222141235789,29.14026153500561,76.7301,-1,-1,-1,-1,30,17.58926956519938,-9999,38848.857682875,-0.486572265625,0.70635986328125,-0.4995574951171875,38848.847607875,-2.816329341722955,-0.7706883887457683,-0.7862371218806554,0.008527270518243313,0.006995032541453838,-0.002252434380352497,-0.0005283951759338379,-0.004101872444152832,0.002190113067626953,XArbitraryZVertical,-0.4001010668923112,0.2940778976629245,-0.821372714089769,0.2806848846101527,-0.4921777546405792,0.7076997756958008,-0.506874680519104,0,0,0,-1,-1,38843.99246366667,unknown,2,2025-04-22T17:02:28.952+03:00,2025-04-21T17:08:51.449+03:00,8997,1.055654,0,0,7505.379,7,22,2025-04-22T17:01:47.683+03:00,767023318.1019011,0,-13.68,100.3656,1,0.4,2025-04-22T17:01:55.525+03:00,120,2,2025-04-22T14:20:19.516+03:00,0.02197104130929222,0
2025-04-22T17:02:33.832+03:00,1745330552.933554,40.95222141235789,29.14026153500561,76.7301,-1,-1,-1,-1,30,17.58926956519938,-9999,38848.867758875,-0.486480712890625,0.7032012939453125,-0.499267578125,38848.857682875,-2.816305887346214,-0.7706331126047246,-0.7861600794963759,0.0065253721550107,0.005384352523833513,-0.002960835117846727,0.001968801021575928,-0.00267404317855835,0.004621565341949463,XArbitraryZVertical,-0.400081915139452,0.2940474692224632,-0.821396317427167,0.280675415079344,-0.4921878278255463,0.7076453566551208,-0.5069410800933838,0,0,0,-1,-1,38843.99246366667,unknown,2,2025-04-22T17:02:28.952+03:00,2025-04-21T17:08:51.449+03:00,8997,1.055654,0,0,7505.379,7,22,2025-04-22T17:01:47.683+03:00,767023318.1019011,0,-13.68,100.3656,1,0.4,2025-04-22T17:01:55.525+03:00,120,2,2025-04-22T14:20:19.516+03:00,0.02197104130929222,0
2025-04-22T17:02:33.842+03:00,1745330552.933554,40.95222141235789,29.14026153500561,76.7301,-1,-1,-1,-1,30,17.58926956519938,-9999,38848.87783487501,-0.4871063232421875,0.703369140625,-0.49896240234375,38848.867758875,-2.816258795876021,-0.7705360201993648,-0.7860739443705881,0.007824729196727276,0.006624054163694382,-0.003130744909867644,0.004922151565551758,-0.001911342144012451,0.006849288940429688,XArbitraryZVertical,-0.4000491414406862,0.2940143470214478,-0.8214264610083164,0.2806681937504529,-0.4921809434890747,0.7075844407081604,-0.5070325136184692,0,0,0,-1,-1,38843.99246366667,unknown,2,2025-04-22T17:02:28.952+03:00,2025-04-21T17:08:51.449+03:00,8997,1.055654,0,0,7505.379,7,22,2025-04-22T17:01:47.683+03:00,767023318.1019011,0,-13.68,100.3656,1,0.4,2025-04-22T17:01:55.525+03:00,120,2,2025-04-22T14:20:19.516+03:00,0.02197104130929222,0
2025-04-22T17:02:33.853+03:00,1745330552.933554,40.95222141235789,29.14026153500561,76.7301,-1,-1,-1,-1,30,17.58926956519938,-9999,38848.887909875,-0.489990234375,0.704345703125,-0.5001678466796875,38848.87783487501,-2.816252044509935,-0.7704608201853892,-0.7860207176955826,0.001293858746066689,0.005703133065253496,-0.002738993847742677,0.005993634462356567,-0.004727184772491455,0.008698642253875732,XArbitraryZVertical,-0.4000193409284077,0.2940004530517457,-0.8214513547777356,0.2806523242670776,-0.492169052362442,0.7075468301773071,-0.507096529006958,0,0,0,-1,-1,38843.99246366667,unknown,2,2025-04-22T17:02:28.952+03:00,2025-04-21T17:08:51.449+03:00,8997,1.055654,0,0,7505.379,7,22,2025-04-22T17:01:47.683+03:00,767023318.1019011,0,-13.68,100.3656,1,0.4,2025-04-22T17:01:55.525+03:00,120,2,2025-04-22T14:20:19.516+03:00,0.02197104130929222,0
2025-04-22T17:02:33.863+03:00,1745330552.933554,40.95222141235789,29.14026153500561,76.7301,-1,-1,-1,-1,30,17.58926956519938,-9999,38848.897985875,-0.4918975830078125,0.70074462890625,-0.5020751953125,38848.887909875,-2.816335290764352,-0.7704823996340787,-0.7860261282361217,-0.006284764967858791,0.004757111426442862,-0.004358894657343626,0.004842251539230347,-0.00357133150100708,0.007678091526031494,XArbitraryZVertical,-0.4000159568654112,0.2940164222963791,-0.8214576235629493,0.2806220764242701,-0.4921773076057434,0.7075507044792175,-0.5070831775665283,0,0,0,-1,-1,38843.99246366667,unknown,2,2025-04-22T17:02:28.952+03:00,2025-04-21T17:08:51.449+03:00,8997,1.055654,0,0,7505.379,7,22,2025-04-22T17:01:47.683+03:00,767023318.1019011,0,-13.68,100.3656,1,0.4,2025-04-22T17:01:55.525+03:00,120,2,2025-04-22T14:20:19.516+03:00,0.02197104130929222,0
2025-04-22T17:02:33.873+03:00,1745330552.933554,40.95222141235789,29.14026153500561,76.7301,-1,-1,-1,-1,30,17.58926956519938,-9999,38848.908060875,-0.4942169189453125,0.7042083740234375,-0.504302978515625,38848.897985875,-2.816518596085155,-0.7705661391124385,-0.7860738799373427,-0.01337410043925047,0.007569409906864166,-0.007288638036698103,0.001565277576446533,-0.004230737686157227,0.006407260894775391,XArbitraryZVertical,-0.4000233178086883,0.2940620602587615,-0.8214568944327465,0.2805659069027088,-0.492196261882782,0.7075844407081604,-0.5070176720619202,0,0,0,-1,-1,38843.99246366667,unknown,2,2025-04-22T17:02:28.952+03:00,2025-04-21T17:08:51.449+03:00,8997,1.055654,0,0,7505.379,7,22,2025-04-22T17:01:47.683+03:00,767023318.1019011,0,-13.68,100.3656,1,0.4,2025-04-22T17:01:55.525+03:00,120,2,2025-04-22T14:20:19.516+03:00,0.02197104130929222,0
2025-04-22T17:02:33.883+03:00,1745330552.933554,40.95222141235789,29.14026153500561,76.7301,-1,-1,-1,-1,30,17.58926956519938,-9999,38848.918136875,-0.494537353515625,0.7063751220703125,-0.5013275146484375,38848.908060875,-2.816704982002139,-0.7706623362496071,-0.786088257498211,-0.006861140020191669,0.003346368670463562,-0.009423861280083656,-0.0004224479198455811,-0.007307827472686768,0.004475772380828857,XArbitraryZVertical,-0.400035396540271,0.2940920856377371,-0.8214608798972104,0.2805055478300529,-0.49223792552948,0.7075945734977722,-0.5069630742073059,0,0,0,-1,-1,38843.99246366667,unknown,2,2025-04-22T17:02:28.952+03:00,2025-04-21T17:08:51.449+03:00,8997,1.055654,0,0,7505.379,7,22,2025-04-22T17:01:47.683+03:00,767023318.1019011,0,-13.68,100.3656,1,0.4,2025-04-22T17:01:55.525+03:00,120,2,2025-04-22T14:20:19.516+03:00,0.02197104130929222,0
2025-04-22T17:02:33.893+03:00,1745330552.933554,40.95222141235789,29.14026153500561,76.7301,-1,-1,-1,-1,30,17.58926956519938,-9999,38848.92821287501,-0.4926300048828125,0.704010009765625,-0.502593994140625,38848.918136875,-2.816817400105153,-0.7706865858198935,-0.7860223347044257,0.003793102223426104,0.006942701525986195,-0.008665658533573151,-0.001369506120681763,-0.002408981323242188,0.003230810165405273,XArbitraryZVertical,-0.4000289510877886,0.2940825672259865,-0.8214851637567814,0.2804535356496339,-0.4922827184200287,0.7075480222702026,-0.5069845914840698,0,0,0,-1,-1,38843.99246366667,unknown,2,2025-04-22T17:02:28.952+03:00,2025-04-21T17:08:51.449+03:00,8997,1.055654,0,0,7505.379,7,22,2025-04-22T17:01:47.683+03:00,767023318.1019011,0,-13.68,100.3656,1,0.4,2025-04-22T17:01:55.525+03:00,120,2,2025-04-22T14:20:19.516+03:00,0.02197104130929222,0
2025-04-22T17:02:33.903+03:00,1745330552.933554,40.95222141235789,29.14026153500561,76.7301,-1,-1,-1,-1,30,17.58926956519938,-9999,38848.938287875,-0.4831695556640625,0.7022857666015625,-0.506866455078125,38848.92821287501,-2.816863232473099,-0.7706865044348271,-0.7859353091328324,0.002985764993354678,0.0006721555255353451,-0.00789447408169508,-0.002257406711578369,-0.002042293548583984,0.006097972393035889,XArbitraryZVertical,-0.4000223298867885,0.294053960659777,-0.821509331954656,0.2804222867434717,-0.4923255741596222,0.7074865102767944,-0.5070288181304932,0,0,0,-1,-1,38843.99246366667,unknown,2,2025-04-22T17:02:28.952+03:00,2025-04-21T17:08:51.449+03:00,8997,1.055654,0,0,7505.379,7,22,2025-04-22T17:01:47.683+03:00,767023318.1019011,0,-13.68,100.3656,1,0.4,2025-04-22T17:01:55.525+03:00,120,2,2025-04-22T14:20:19.516+03:00,0.02197104130929222,0
2025-04-22T17:02:33.913+03:00,1745330552.933554,40.95222141235789,29.14026153500561,76.7301,-1,-1,-1,-1,30,17.58926956519938,-9999,38848.948363875,-0.4810333251953125,0.696990966796875,-0.5089111328125,38848.938287875,-2.816990122077391,-0.7708300160130813,-0.7859170904611914,-0.01330026425421238,-0.007552750874310732,-0.008005527779459953,0.0006929636001586914,-0.003402650356292725,0.004647970199584961,XArbitraryZVertical,-0.4000626474732958,0.294051299598239,-0.821502160856954,0.2803886693502703,-0.492407351732254,0.7074736356735229,-0.5069674253463745,0,0,0,-1,-1,38843.99246366667,unknown,2,2025-04-22T17:02:28.952+03:00,2025-04-21T17:08:51.449+03:00,8997,1.055654,0,0,7505.379,7,22,2025-04-22T17:01:47.683+03:00,767023318.1019011,0,-13.68,100.3656,1,0.4,2025-04-22T17:01:55.525+03:00,120,2,2025-04-22T14:20:19.516+03:00,0.02197104130929222,0
2025-04-22T17:02:33.923+03:00,1745330552.933554,40.95222141235789,29.14026153500561,76.7301,-1,-1,-1,-1,30,17.58926956519938,-9999,38848.958438875,-0.488037109375,0.6965179443359375,-0.5078887939453125,38848.948363875,-2.817253339513352,-0.7710727423979921,-0.7860111535142306,-0.02045045234262943,-0.004505428951233625,-0.006733003072440624,0.009924918413162231,-0.005971610546112061,-6.645917892456055e-05,XArbitraryZVertical,-0.4001234668782228,0.2941107623723025,-0.8214713658809829,0.2803296694335025,-0.4924840033054352,0.7075400948524475,-0.50680011510849,0,0,0,-1,-1,38843.99246366667,unknown,2,2025-04-22T17:02:28.952+03:00,2025-04-21T17:08:51.449+03:00,8997,1.055654,0,0,7505.379,7,22,2025-04-22T17:01:47.683+03:00,767023318.1019011,0,-13.68,100.3656,1,0.4,2025-04-22T17:01:55.525+03:00,120,2,2025-04-22T14:20:19.516+03:00,0.02197104130929222,0
2025-04-22T17:02:33.933+03:00,1745330552.933554,40.95222141235789,29.14026153500561,76.7301,-1,-1,-1,-1,30,17.58926956519938,-9999,38848.968514875,-0.4907989501953125,0.7025604248046875,-0.5054931640625,38848.958438875,-2.817564837343704,-0.7713463668051306,-0.7861380230529802,-0.02210081368684769,-0.005963243078440428,-0.008926648646593094,0.01016888022422791,-0.01173752546310425,-0.002295017242431641,XArbitraryZVertical,-0.4001897717491874,0.2941897782471616,-0.8214345596664508,0.2802600932300972,-0.4925601184368134,0.7076297402381897,-0.5066010355949402,0,0,0,-1,-1,38843.99246366667,unknown,2,2025-04-22T17:02:28.952+03:00,2025-04-21T17:08:51.449+03:00,8997,1.055654,0,0,7505.379,7,22,2025-04-22T17:01:47.683+03:00,767023318.1019011,0,-13.68,100.3656,1,0.4,2025-04-22T17:01:55.525+03:00,120,2,2025-04-22T14:20:19.516+03:00,0.02197104130929222,0
2025-04-22T17:02:33.943+03:00,1745330552.933554,40.95222141235789,29.14026153500561,76.7301,-1,-1,-1,-1,30,17.58926956519938,-9999,38848.97859087501,-0.493255615234375,0.7091522216796875,-0.501800537109375,38848.968514875,-2.817841183799162,-0.7715969561519265,-0.7862341406804576,-0.01543512009084225,-0.004267009906470776,-0.007313272915780544,0.004251658916473389,-0.01134771108627319,-0.001154899597167969,XArbitraryZVertical,-0.4002518411167943,0.2942516889671612,-0.8214035701855543,0.2801971914888207,-0.4926396012306213,0.7076976299285889,-0.5064288377761841,0,0,0,-1,-1,38843.99246366667,unknown,2,2025-04-22T17:02:28.952+03:00,2025-04-21T17:08:51.449+03:00,8997,1.055654,0,0,7505.379,7,22,2025-04-22T17:01:47.683+03:00,767023318.1019011,0,-13.68,100.3656,1,0.4,2025-04-22T17:01:55.525+03:00,120,2,2025-04-22T14:20:19.516+03:00,0.02197104130929222,0
2025-04-22T17:02:33.953+03:00,1745330552.933554,40.95222141235789,29.14026153500561,76.7301,-1,-1,-1,-1,30,17.58926956519938,-9999,38848.988665875,-0.4935150146484375,0.713958740234375,-0.5000762939453125,38848.97859087501,-2.818057013607291,-0.7717909809006503,-0.7862508541476637,-0.005591012071818113,-0.002844082191586494,-0.009635282680392265,0.001884967088699341,-0.003760635852813721,0.001441776752471924,XArbitraryZVertical,-0.40029974753411,0.2942749797575083,-0.8213915073615649,0.2801394835258509,-0.4927295446395874,0.7077094912528992,-0.5063247084617615,0,0,0,-1,-1,38843.99246366667,unknown,2,2025-04-22T17:02:28.952+03:00,2025-04-21T17:08:51.449+03:00,8997,1.055654,0,0,7505.379,7,22,2025-04-22T17:01:47.683+03:00,767023318.1019011,0,-13.68,100.3656,1,0.4,2025-04-22T17:01:55.525+03:00,120,2,2025-04-22T14:20:19.516+03:00,0.02197104130929222,0
2025-04-22T17:02:33.963+03:00,1745330552.933554,40.95222141235789,29.14026153500561,76.7301,-1,-1,-1,-1,30,17.58926956519938,-9999,38848.998741875,-0.490936279296875,0.714263916015625,-0.50238037109375,38848.988665875,-2.818183549294277,-0.7719215288446694,-0.7862108319759112,-0.0007268814370036125,-0.006167308893054724,-0.005431549623608589,-0.000699460506439209,0.00145566463470459,0.004922568798065186,XArbitraryZVertical,-0.4003348395402998,0.2942646634782112,-0.8213912062889396,0.2801009993797007,-0.492815375328064,0.7076811790466309,-0.5062806606292725,0,0,0,-1,-1,38843.99246366667,unknown,2,2025-04-22T17:02:28.952+03:00,2025-04-21T17:08:51.449+03:00,8997,1.055654,0,0,7505.379,7,22,2025-04-22T17:01:47.683+03:00,767023318.1019011,0,-13.68,100.3656,1,0.4,2025-04-22T17:01:55.525+03:00,120,2,2025-04-22T14:20:19.516+03:00,0.02197104130929222,0
2025-04-22T17:02:33.973+03:00,1745330552.933554,40.95222141235789,29.14026153500561,76.7301,-1,-1,-1,-1,30,17.58926956519938,-9999,38849.008816875,-0.4884185791015625,0.7095947265625,-0.502471923828125,38848.998741875,-2.818240133260704,-0.7720059612606062,-0.7861959239013491,-0.001170830335468054,-0.0005986387841403484,-0.001011234824545681,-0.0004662275314331055,0.006562650203704834,0.006460130214691162,XArbitraryZVertical,-0.4003611893679152,0.2942576359090981,-0.8213854482337094,0.280088059982799,-0.4928656220436096,0.7076706290245056,-0.5062467455863953,0,0,0,-1,-1,38843.99246366667,unknown,2,2025-04-22T17:02:28.952+03:00,2025-04-21T17:08:51.449+03:00,8997,1.055654,0,0,7505.379,7,22,2025-04-22T17:01:47.683+03:00,767023318.1019011,0,-13.68,100.3656,1,0.4,2025-04-22T17:01:55.525+03:00,120,2,2025-04-22T14:20:19.516+03:00,0.02197104130929222,0
2025-04-22T17:02:33.983+03:00,1745330552.933554,40.95222141235789,29.14026153500561,76.7301,-1,-1,-1,-1,30,17.58926956519938,-9999,38849.018892875,-0.4908447265625,0.70440673828125,-0.5008392333984375,38849.008816875,-2.818273904181795,-0.7720435627114635,-0.7862226064707375,-0.003290040884166956,0.0008870060555636883,0.001806589309126139,0.002270936965942383,0.00620800256729126,0.003788292407989502,XArbitraryZVertical,-0.400371631282504,0.2942707595974942,-0.8213770698853733,0.2800835324360607,-0.4928713738918304,0.7076895236968994,-0.5062145590782166,0,0,0,-1,-1,38843.99246366667,unknown,2,2025-04-22T17:02:28.952+03:00,2025-04-21T17:08:51.449+03:00,8997,1.055654,0,0,7505.379,7,22,2025-04-22T17:01:47.683+03:00,767023318.1019011,0,-13.68,100.3656,1,0.4,2025-04-22T17:01:55.525+03:00,120,2,2025-04-22T14:20:19.516+03:00,0.02197104130929222,0
2025-04-22T17:02:33.994+03:00,1745330552.933554,40.95222141235789,29.14026153500561,76.7301,-1,-1,-1,-1,30,17.58926956519938,-9999,38849.02896887501,-0.4947662353515625,0.7064361572265625,-0.5012359619140625,38849.018892875,-2.818258680243758,-0.7719903640248327,-0.7862686653818733,-0.001849803375080228,0.007156886160373688,0.004409562796354294,0.003915011882781982,0.001262187957763672,0.004538834095001221,XArbitraryZVertical,-0.4003519078355881,0.294295130785108,-0.8213762833610088,0.2800885485884298,-0.4928217232227325,0.7077220678329468,-0.5062174797058105,0,0,0,-1,-1,38843.99246366667,unknown,2,2025-04-22T17:02:28.952+03:00,2025-04-21T17:08:51.449+03:00,8997,1.055654,0,0,7505.379,7,22,2025-04-22T17:01:47.683+03:00,767023318.1019011,0,-13.68,100.3656,1,0.4,2025-04-22T17:01:55.525+03:00,120,2,2025-04-22T14:20:19.516+03:00,0.02197104130929222,0
2025-04-22T17:02:34.004+03:00,1745330552.933554,40.95222141235789,29.14026153500561,76.7301,-1,-1,-1,-1,30,17.58926956519938,-9999,38849.039043875,-0.4949798583984375,0.7093048095703125,-0.4999237060546875,38849.02896887501,-2.81816906653557,-0.7718201429280342,-0.7862740965750539,0.005072817672044039,0.01116840541362762,0.004513426218181849,0.000850677490234375,-0.004097461700439453,0.006176352500915527,XArbitraryZVertical,-0.4002951650222223,0.2943033745652929,-0.8213967475824914,0.280101083380185,-0.4927329123020172,0.7077258825302124,-0.5062986016273499,0,0,0,-1,-1,38843.99246366667,unknown,2,2025-04-22T17:02:28.952+03:00,2025-04-21T17:08:51.449+03:00,8997,1.055654,0,0,7505.379,7,22,2025-04-22T17:01:47.683+03:00,767023318.1019011,0,-13.68,100.3656,1,0.4,2025-04-22T17:01:55.525+03:00,120,2,2025-04-22T14:20:19.516+03:00,0.02197104130929222,0
2025-04-22T17:02:34.014+03:00,1745330552.933554,40.95222141235789,29.14026153500561,76.7301,-1,-1,-1,-1,30,17.58926956519938,-9999,38849.049119875,-0.4926910400390625,0.70745849609375,-0.5005035400390625,38849.039043875,-2.818071155944041,-0.7716134119807658,-0.7862667245935052,0.004311686381697655,0.01095695048570633,0.001636413391679525,-0.002073198556900024,-0.001254141330718994,0.00483238697052002,XArbitraryZVertical,-0.4002246793327169,0.2943095262193203,-0.8214259301213346,0.2801098218606374,-0.4926318824291229,0.7077206969261169,-0.5064042210578918,0,0,0,-1,-1,38843.99246366667,unknown,2,2025-04-22T17:02:28.952+03:00,2025-04-21T17:08:51.449+03:00,8997,1.055654,0,0,7505.379,7,22,2025-04-22T17:01:47.683+03:00,767023318.1019011,0,-13.68,100.3656,1,0.4,2025-04-22T17:01:55.525+03:00,120,2,2025-04-22T14:20:19.516+03:00,0.02197104130929222,0
2025-04-22T17:02:34.024+03:00,1745330552.933554,40.95222141235789,29.14026153500561,76.7301,-1,-1,-1,-1,30,17.58926956519938,-9999,38849.059194875,-0.490509033203125,0.7075042724609375,-0.502105712890625,38849.049119875,-2.818032015619346,-0.7714893517136694,-0.7862273400251639,0.001924228970892727,0.007681861519813538,-0.001897568115964532,-0.002711713314056396,0.002054333686828613,0.006668269634246826,XArbitraryZVertical,-0.4001795746072612,0.2943019835631109,-0.8214532585306209,0.280102011572966,-0.4925884902477264,0.7076928615570068,-0.5064852833747864,0,0,0,-1,-1,38843.99246366667,unknown,2,2025-04-22T17:02:28.952+03:00,2025-04-21T17:08:51.449+03:00,8997,1.055654,0,0,7505.379,7,22,2025-04-22T17:01:47.683+03:00,767023318.1019011,0,-13.68,100.3656,1,0.4,2025-04-22T17:01:55.525+03:00,120,2,2025-04-22T14:20:19.516+03:00,0.02197104130929222,0
2025-04-22T17:02:34.034+03:00,1745330552.933554,40.95222141235789,29.14026153500561,76.7301,-1,-1,-1,-1,30,17.58926956519938,-9999,38849.069270875,-0.4899444580078125,0.70855712890625,-0.5016632080078125,38849.059194875,-2.817978748252428,-0.7713909392939254,-0.7861791565978383,0.008645514957606792,0.004056234378367662,9.07479552552104e-05,0.0002529919147491455,-0.0007344484329223633,0.005261063575744629,XArbitraryZVertical,-0.400147091548429,0.2942841903873321,-0.8214753046682253,0.2801025246566965,-0.4925624132156372,0.7076588273048401,-0.5065582394599915,0,0,0,-1,-1,38843.99246366667,unknown,2,2025-04-22T17:02:28.952+03:00,2025-04-21T17:08:51.449+03:00,8997,1.055654,0,0,7505.379,7,22,2025-04-22T17:01:47.683+03:00,767023318.1019011,0,-13.68,100.3656,1,0.4,2025-04-22T17:01:55.525+03:00,120,2,2025-04-22T14:20:19.516+03:00,0.02197104130929222,0
2025-04-22T17:02:34.044+03:00,1745330552.933554,40.95222141235789,29.14026153500561,76.7301,-1,-1,-1,-1,30,17.58926956519938,-9999,38849.07934687501,-0.48876953125,0.7082977294921875,-0.503753662109375,38849.069270875,-2.817888919528825,-0.7712982329120405,-0.7860917135122385,0.01222460344433784,0.005529827903956175,-0.005154048092663288,0.002415865659713745,-0.0002607107162475586,0.004939138889312744,XArbitraryZVertical,-0.4001224191495805,0.2942412583768768,-0.8214990245833502,0.2801132863937295,-0.4925585687160492,0.707597017288208,-0.5066482424736023,0,0,0,-1,-1,38843.99246366667,unknown,2,2025-04-22T17:02:28.952+03:00,2025-04-21T17:08:51.449+03:00,8997,1.055654,0,0,7505.379,7,22,2025-04-22T17:01:47.683+03:00,767023318.1019011,0,-13.68,100.3656,1,0.4,2025-04-22T17:01:55.525+03:00,120,2,2025-04-22T14:20:19.516+03:00,0.02197104130929222,0
2025-04-22T17:02:34.054+03:00,1745330552.933554,40.95222141235789,29.14026153500561,76.7301,-1,-1,-1,-1,30,17.58926956519938,-9999,38849.089421875,-0.48828125,0.7028961181640625,-0.50311279296875,38849.07934687501,-2.817806743806029,-0.7712456790358206,-0.7860080197609203,0.01253033522516489,-0.001670827157795429,0.0005158216808922589,0.002048999071121216,0.001385331153869629,0.004381895065307617,XArbitraryZVertical,-0.4001131039799921,0.2941958683163436,-0.8215149970214125,0.2801273505387324,-0.4925732016563416,0.7075378894805908,-0.5067166090011597,0,0,0,-1,-1,38843.99246366667,unknown,2,2025-04-22T17:02:28.952+03:00,2025-04-21T17:08:51.449+03:00,8997,1.055654,0,0,7505.379,7,22,2025-04-22T17:01:47.683+03:00,767023318.1019011,0,-13.68,100.3656,1,0.4,2025-04-22T17:01:55.525+03:00,120,2,2025-04-22T14:20:19.516+03:00,0.02197104130929222,0
2025-04-22T17:02:34.064+03:00,1745330552.933554,40.95222141235789,29.14026153500561,76.7301,-1,-1,-1,-1,30,17.58926956519938,-9999,38849.099497875,-0.4909210205078125,0.6997833251953125,-0.5029144287109375,38849.089421875,-2.817728842453734,-0.7711929246730695,-0.7859786556582821,0.001771829556673765,0.002103538019582629,0.0001558289513923228,0.004173010587692261,-1.293420791625977e-05,0.003080010414123535,XArbitraryZVertical,-0.4001029523124947,0.2941749255549148,-0.8215206160311497,0.2801473953378321,-0.4925609827041626,0.707517147064209,-0.5067574977874756,0,0,0,-1,-1,38843.99246366667,unknown,2,2025-04-22T17:02:28.952+03:00,2025-04-21T17:08:51.449+03:00,8997,1.055654,0,0,7505.379,7,22,2025-04-22T17:01:47.683+03:00,767023318.1019011,0,-13.68,100.3656,1,0.4,2025-04-22T17:01:55.525+03:00,120,2,2025-04-22T14:20:19.516+03:00,0.02197104130929222,0
2025-04-22T17:02:34.074+03:00,1745330552.933554,40.95222141235789,29.14026153500561,76.7301,-1,-1,-1,-1,30,17.58926956519938,-9999,38849.109573875,-0.490386962890625,0.7011566162109375,-0.5041046142578125,38849.099497875,-2.81770873509684,-0.7711657080757183,-0.7860038579786207,0.002471441868692636,0.001086476724594831,0.001416569459252059,0.003902673721313477,-0.005127191543579102,0.004469156265258789,XArbitraryZVertical,-0.4000946696179331,0.2941856378139021,-0.8215181723238008,0.2801552535201808,-0.4925347864627838,0.7075349688529968,-0.5067581534385681,0,0,0,-1,-1,38843.99246366667,unknown,2,2025-04-22T17:02:28.952+03:00,2025-04-21T17:08:51.449+03:00,8997,1.055654,0,0,7505.379,7,22,2025-04-22T17:01:47.683+03:00,767023318.1019011,0,-13.68,100.3656,1,0.4,2025-04-22T17:01:55.525+03:00,120,2,2025-04-22T14:20:19.516+03:00,0.02197104130929222,0
2025-04-22T17:02:34.084+03:00,1745330552.933554,40.95222141235789,29.14026153500561,76.7301,-1,-1,-1,-1,30,17.58926956519938,-9999,38849.119648875,-0.4925079345703125,0.7070465087890625,-0.5023345947265625,38849.109573875,-2.817713109359752,-0.7711776087218674,-0.7860403788629154,-0.003072527004405856,-0.0005532982759177685,0.001633849926292896,0.001876503229141235,-0.007991194725036621,0.003559708595275879,XArbitraryZVertical,-0.4000988559744629,0.2942007253530441,-0.8215088921780921,0.2801604190726681,-0.4925227463245392,0.7075607776641846,-0.5067336559295654,0,0,0,-1,-1,38843.99246366667,unknown,2,2025-04-22T17:02:28.952+03:00,2025-04-21T17:08:51.449+03:00,8997,1.055654,0,0,7505.379,7,22,2025-04-22T17:01:47.683+03:00,767023318.1019011,0,-13.68,100.3656,1,0.4,2025-04-22T17:01:55.525+03:00,120,2,2025-04-22T14:20:19.516+03:00,0.02197104130929222,0
2025-04-22T17:02:34.095+03:00,1745330552.933554,40.95222141235789,29.14026153500561,76.7301,-1,-1,-1,-1,30,17.58926956519938,-9999,38849.12972487501,-0.495452880859375,0.7109375,-0.503143310546875,38849.119648875,-2.817689555620191,-0.7711579217775045,-0.7860635546175175,0.006348138675093651,0.002950356341898441,0.002348109846934676,0.001916170120239258,-0.005947589874267578,0.003191471099853516,XArbitraryZVertical,-0.4000941794975238,0.2942088172285581,-0.8215048605255988,0.2801705098754316,-0.4925013482570648,0.707577109336853,-0.5067316293716431,0,0,0,-1,-1,38843.99246366667,unknown,2,2025-04-22T17:02:28.952+03:00,2025-04-21T17:08:51.449+03:00,8997,1.055654,0,0,7505.379,7,22,2025-04-22T17:01:47.683+03:00,767023318.1019011,0,-13.68,100.3656,1,0.4,2025-04-22T17:01:55.525+03:00,120,2,2025-04-22T14:20:19.516+03:00,0.02197104130929222,0
2025-04-22T17:02:34.104+03:00,1745330552.933554,40.95222141235789,29.14026153500561,76.7301,-1,-1,-1,-1,30,17.58926956519938,-9999,38849.139799875,-0.4940338134765625,0.710784912109375,-0.503509521484375,38849.12972487501,-2.817587027808591,-0.7710510694879029,-0.7860436287847608,0.0114715276286006,0.00661167036741972,0.005618471652269363,-6.607174873352051e-05,0.001009225845336914,0.003940820693969727,XArbitraryZVertical,-0.4000654101966526,0.2941946256460903,-0.8215159304601556,0.280194060578265,-0.4924570322036743,0.707563042640686,-0.5067943930625916,0,0,0,-1,-1,38843.99246366667,unknown,2,2025-04-22T17:02:28.952+03:00,2025-04-21T17:08:51.449+03:00,8997,1.055654,0,0,7505.379,7,22,2025-04-22T17:01:47.683+03:00,767023318.1019011,0,-13.68,100.3656,1,0.4,2025-04-22T17:01:55.525+03:00,120,2,2025-04-22T14:20:19.516+03:00,0.02197104130929222,0
2025-04-22T17:02:34.115+03:00,1745330552.933554,40.95222141235789,29.14026153500561,76.7301,-1,-1,-1,-1,30,17.58926956519938,-9999,38849.149875875,-0.4904327392578125,0.708343505859375,-0.501708984375,38849.139799875,-2.817418007222614,-0.7708818103312121,-0.7859808863237325,0.01591501198709011,0.005031883250921965,0.003544934326782823,-0.003233730792999268,0.004334151744842529,0.003964483737945557,XArbitraryZVertical,-0.4000208904838671,0.2941573354984762,-0.821538745548634,0.2802296292218197,-0.4924021065235138,0.7075186967849731,-0.5069094896316528,0,0,0,-1,-1,38843.99246366667,unknown,2,2025-04-22T17:02:28.952+03:00,2025-04-21T17:08:51.449+03:00,8997,1.055654,0,0,7505.379,7,22,2025-04-22T17:01:47.683+03:00,767023318.1019011,0,-13.68,100.3656,1,0.4,2025-04-22T17:01:55.525+03:00,120,2,2025-04-22T14:20:19.516+03:00,0.02197104130929222,0
2025-04-22T17:02:34.124+03:00,1745330552.933554,40.95222141235789,29.14026153500561,76.7301,-1,-1,-1,-1,30,17.58926956519938,-9999,38849.159951875,-0.4890594482421875,0.701568603515625,-0.50335693359375,38849.149875875,-2.817226403248803,-0.770693757117245,-0.7859227999855971,0.01398774888366461,0.003471070900559425,0.004278801847249269,-0.0009963512420654297,0.003474950790405273,0.003338873386383057,XArbitraryZVertical,-0.3999719302069113,0.2941201477952655,-0.8215613314112848,0.280272389857799,-0.4923354387283325,0.7074776291847229,-0.5070315599441528,0,0,0,-1,-1,38843.99246366667,unknown,2,2025-04-22T17:02:28.952+03:00,2025-04-21T17:08:51.449+03:00,8997,1.055654,0,0,7505.379,7,22,2025-04-22T17:01:47.683+03:00,767023318.1019011,0,-13.68,100.3656,1,0.4,2025-04-22T17:01:55.525+03:00,120,2,2025-04-22T14:20:19.516+03:00,0.02197104130929222,0
2025-04-22T17:02:34.135+03:00,1745330552.933554,40.95222141235789,29.14026153500561,76.7301,-1,-1,-1,-1,30,17.58926956519938,-9999,38849.170026875,-0.4886322021484375,0.69921875,-0.50177001953125,38849.159951875,-2.817076108982715,-0.7705448790489695,-0.7859038928361398,0.005212100688368082,0.003164540976285934,0.005268432665616274,0.001729846000671387,-0.0001890659332275391,0.00519174337387085,XArbitraryZVertical,-0.3999329103930569,0.2941027502398274,-0.8215738830651067,0.2803095376316424,-0.4922692477703094,0.7074642777442932,-0.5071144700050354,0,0,0,-1,-1,38843.99246366667,unknown,2,2025-04-22T17:02:28.952+03:00,2025-04-21T17:08:51.449+03:00,8997,1.055654,0,0,7505.379,7,22,2025-04-22T17:01:47.683+03:00,767023318.1019011,0,-13.68,100.3656,1,0.4,2025-04-22T17:01:55.525+03:00,120,2,2025-04-22T14:20:19.516+03:00,0.02197104130929222,0
2025-04-22T17:02:34.145+03:00,1745330552.933554,40.95222141235789,29.14026153500561,76.7301,-1,-1,-1,-1,30,17.58926956519938,-9999,38849.18010287501,-0.489227294921875,0.6999664306640625,-0.5012054443359375,38849.170026875,-2.816988622039441,-0.7704546568214443,-0.7859469290456397,-0.0009403337026014924,0.002357070567086339,0.006185625214129686,0.00299033522605896,-0.006826519966125488,0.004100382328033447,XArbitraryZVertical,-0.3999086396883599,0.2941165909480997,-0.8215708890243761,0.2803383450010419,-0.4922022819519043,0.7074947357177734,-0.5071370005607605,0,0,0,-1,-1,38843.99246366667,unknown,2,2025-04-22T17:02:28.952+03:00,2025-04-21T17:08:51.449+03:00,8997,1.055654,0,0,7505.379,7,22,2025-04-22T17:01:47.683+03:00,767023318.1019011,0,-13.68,100.3656,1,0.4,2025-04-22T17:01:55.525+03:00,120,2,2025-04-22T14:20:19.516+03:00,0.02197104130929222,0
2025-04-22T17:02:34.155+03:00,1745330552.933554,40.95222141235789,29.14026153500561,76.7301,-1,-1,-1,-1,30,17.58926956519938,-9999,38849.190177875,-0.49017333984375,0.7034912109375,-0.503875732421875,38849.18010287501,-2.816941090714024,-0.7703948813493791,-0.7860119515006058,0.001149981399066746,0.002701950026676059,0.004822352901101112,0.003401100635528564,-0.008764564990997314,0.005714297294616699,XArbitraryZVertical,-0.3998909266896161,0.2941436367539849,-0.8215631292715464,0.2803583594848931,-0.4921400249004364,0.7075406908988953,-0.5071335434913635,0,0,0,-1,-1,38843.99246366667,unknown,2,2025-04-22T17:02:28.952+03:00,2025-04-21T17:08:51.449+03:00,8997,1.055654,0,0,7505.379,7,22,2025-04-22T17:01:47.683+03:00,767023318.1019011,0,-13.68,100.3656,1,0.4,2025-04-22T17:01:55.525+03:00,120,2,2025-04-22T14:20:19.516+03:00,0.02197104130929222,0
2025-04-22T17:02:34.165+03:00,1745330552.933554,40.95222141235789,29.14026153500561,76.7301,-1,-1,-1,-1,30,17.58926956519938,-9999,38849.200253875,-0.4884796142578125,0.707244873046875,-0.50384521484375,38849.190177875,-2.816887354402886,-0.770337630875626,-0.7860266167771562,0.00188714440446347,0.003897442948073149,0.006059125065803528,0.002876520156860352,-0.007935643196105957,0.00614696741104126,XArbitraryZVertical,-0.3998752992073505,0.2941473071266865,-0.8215639897345747,0.2803741006079424,-0.4921037256717682,0.7075510025024414,-0.5071542263031006,0,0,0,-1,-1,38843.99246366667,unknown,2,2025-04-22T17:02:28.952+03:00,2025-04-21T17:08:51.449+03:00,8997,1.055654,0,0,7505.379,7,22,2025-04-22T17:01:47.683+03:00,767023318.1019011,0,-13.68,100.3656,1,0.4,2025-04-22T17:01:55.525+03:00,120,2,2025-04-22T14:20:19.516+03:00,0.02197104130929222,0
2025-04-22T17:02:34.176+03:00,1745330552.933554,40.95222141235789,29.14026153500561,76.7301,-1,-1,-1,-1,30,17.58926956519938,-9999,38849.210329875,-0.4865570068359375,0.7071380615234375,-0.5035247802734375,38849.200253875,-2.816787085022567,-0.7702599174129431,-0.7860333374117268,0.004043239634484053,0.0006523812189698219,0.005749132949858904,0.001430004835128784,-0.003637433052062988,0.003633618354797363,XArbitraryZVertical,-0.3998581042442345,0.294141060726752,-0.8215641396973911,0.2804048198321589,-0.4920610189437866,0.7075557708740234,-0.5071890950202942,0,0,0,-1,-1,38843.99246366667,unknown,2,2025-04-22T17:02:28.952+03:00,2025-04-21T17:08:51.449+03:00,8997,1.055654,0,0,7505.379,7,22,2025-04-22T17:01:47.683+03:00,767023318.1019011,0,-13.68,100.3656,1,0.4,2025-04-22T17:01:55.525+03:00,120,2,2025-04-22T14:20:19.516+03:00,0.02197104130929222,0
2025-04-22T17:02:34.185+03:00,1745330552.933554,40.95222141235789,29.14026153500561,76.7301,-1,-1,-1,-1,30,17.58926956519938,-9999,38849.220404875,-0.4874725341796875,0.706085205078125,-0.5021209716796875,38849.210329875,-2.816670902408744,-0.7701821576061054,-0.7860294840455297,0.008960500359535217,-8.877646178007126e-05,0.002316850936040282,0.003864437341690063,-0.0004913806915283203,0.004040062427520752,XArbitraryZVertical,-0.3998432533657064,0.2941270596801431,-0.821564189479049,0.2804405610026894,-0.4920234680175781,0.7075530290603638,-0.5072292685508728,0,0,0,-1,-1,38843.99246366667,unknown,2,2025-04-22T17:02:28.952+03:00,2025-04-21T17:08:51.449+03:00,8997,1.055654,0,0,7505.379,7,22,2025-04-22T17:01:47.683+03:00,767023318.1019011,0,-13.68,100.3656,1,0.4,2025-04-22T17:01:55.525+03:00,120,2,2025-04-22T14:20:19.516+03:00,0.02197104130929222,0
2025-04-22T17:02:34.195+03:00,1745330552.933554,40.95222141235789,29.14026153500561,76.7301,-1,-1,-1,-1,30,17.58926956519938,-9999,38849.23048087501,-0.4881744384765625,0.7014617919921875,-0.5020294189453125,38849.220404875,-2.816603179661358,-0.7701541855717382,-0.7860216670313818,0.001573690329678357,-0.002012377604842186,0.002834835788235068,0.004952698945999146,-0.000211179256439209,0.004317164421081543,XArbitraryZVertical,-0.3998417263502855,0.2941140331442805,-0.8215619257432262,0.2804631553719181,-0.4920131862163544,0.7075475454330444,-0.5072470307350159,0,0,0,-1,-1,38843.99246366667,unknown,2,2025-04-22T17:02:28.952+03:00,2025-04-21T17:08:51.449+03:00,8997,1.055654,0,0,7505.379,7,22,2025-04-22T17:01:47.683+03:00,767023318.1019011,0,-13.68,100.3656,1,0.4,2025-04-22T17:01:55.525+03:00,120,2,2025-04-22T14:20:19.516+03:00,0.02197104130929222,0
2025-04-22T17:02:34.209+03:00,1745330552.933554,40.95222141235789,29.14026153500561,76.7301,-1,-1,-1,-1,30,17.58926956519938,-9999,38849.240556875,-0.4888763427734375,0.702392578125,-0.50323486328125,38849.23048087501,-2.816571462210084,-0.7701450487440249,-0.786058869490734,-0.0009190284181386232,0.0009530521929264069,0.006044211331754923,0.00473138689994812,-0.002465248107910156,0.005431950092315674,XArbitraryZVertical,-0.3998425717397199,0.2941251186588207,-0.8215517532318747,0.2804801422102798,-0.4919902086257935,0.7075738310813904,-0.507232666015625,0,0,0,-1,-1,38843.99246366667,unknown,2,2025-04-22T17:02:28.952+03:00,2025-04-21T17:08:51.449+03:00,8997,1.055654,0,0,7505.379,7,22,2025-04-22T17:01:47.683+03:00,767023318.1019011,0,-13.68,100.3656,1,0.4,2025-04-22T17:01:55.525+03:00,120,2,2025-04-22T14:20:19.516+03:00,0.02197104130929222,0
2025-04-22T17:02:34.216+03:00,1745330552.933554,40.95222141235789,29.14026153500561,76.7301,-1,-1,-1,-1,30,17.58926956519938,-9999,38849.250631875,-0.4910736083984375,0.70562744140625,-0.5028228759765625,38849.240556875,-2.81656151997875,-0.7701527949110941,-0.7861365843708794,-0.004698054399341345,-0.0009460477158427238,0.003613810520619154,0.004284977912902832,-0.005892455577850342,0.00496143102645874,XArbitraryZVertical,-0.3998471108996473,0.2941558282105871,-0.8215328569344093,0.2804964308284145,-0.4919557571411133,0.7076287269592285,-0.5071892738342285,0,0,0,-1,-1,38843.99246366667,unknown,2,2025-04-22T17:02:28.952+03:00,2025-04-21T17:08:51.449+03:00,8997,1.055654,0,0,7505.379,7,22,2025-04-22T17:01:47.683+03:00,767023318.1019011,0,-13.68,100.3656,1,0.4,2025-04-22T17:01:55.525+03:00,120,2,2025-04-22T14:20:19.516+03:00,0.02197104130929222,0
2025-04-22T17:02:34.225+03:00,1745330552.933554,40.95222141235789,29.14026153500561,76.7301,-1,-1,-1,-1,30,17.58926956519938,-9999,38849.260707875,-0.4907989501953125,0.7058563232421875,-0.504364013671875,38849.250631875,-2.81657089786288,-0.7701683601056346,-0.7862071777152372,-0.006888836622238159,-0.000393774826079607,0.005258412100374699,0.003251045942306519,-0.005698084831237793,0.00420069694519043,XArbitraryZVertical,-0.399851994456395,0.2941861463892208,-0.8215167580796482,0.2805049291174711,-0.491928905248642,0.7076786160469055,-0.5071457624435425,0,0,0,-1,-1,38843.99246366667,unknown,2,2025-04-22T17:02:28.952+03:00,2025-04-21T17:08:51.449+03:00,8997,1.055654,0,0,7505.379,7,22,2025-04-22T17:01:47.683+03:00,767023318.1019011,0,-13.68,100.3656,1,0.4,2025-04-22T17:01:55.525+03:00,120,2,2025-04-22T14:20:19.516+03:00,0.02197104130929222,0
2025-04-22T17:02:34.235+03:00,1745330552.933554,40.95222141235789,29.14026153500561,76.7301,-1,-1,-1,-1,30,17.58926956519938,-9999,38849.270782875,-0.4922943115234375,0.706695556640625,-0.504608154296875,38849.260707875,-2.816584554479471,-0.7701747691875395,-0.7862949357417315,-0.002616061363369226,0.003314144443720579,0.004946555942296982,5.248188972473145e-05,-0.001533448696136475,0.004275083541870117,XArbitraryZVertical,-0.3998524646221824,0.2942260678864384,-0.8214995561351337,0.2805127666867213,-0.4918889105319977,0.7077406048774719,-0.5070980787277222,0,0,0,-1,-1,38843.99246366667,unknown,2,2025-04-22T17:02:28.952+03:00,2025-04-21T17:08:51.449+03:00,8997,1.055654,0,0,7505.379,7,22,2025-04-22T17:01:47.683+03:00,767023354.2014439,0,-13.27,100.3636,1,0.4,2025-04-22T17:01:55.525+03:00,120,2,2025-04-22T14:20:19.516+03:00,0.02197104130929222,0
2025-04-22T17:02:34.246+03:00,1745330552.933554,40.95222141235789,29.14026153500561,76.7301,-1,-1,-1,-1,30,17.58926956519938,-9999,38849.280858875,-0.494049072265625,0.70806884765625,-0.50592041015625,38849.270782875,-2.816563642074289,-0.7701335632753278,-0.7863473861289378,-0.0008357380283996463,0.003125592600554228,0.004609666299074888,0.0007686614990234375,-0.001875638961791992,0.002147674560546875,XArbitraryZVertical,-0.3998385281999883,0.2942504389756274,-0.8214941772673149,0.2805227660429347,-0.4918421506881714,0.7077776789665222,-0.5070916414260864,0,0,0,-1,-1,38843.99246366667,unknown,2,2025-04-22T17:02:28.952+03:00,2025-04-21T17:08:51.449+03:00,8997,1.055654,0,0,7505.379,7,22,2025-04-22T17:01:47.683+03:00,767023354.2014439,0,-13.27,100.3636,1,0.4,2025-04-22T17:01:55.525+03:00,120,2,2025-04-22T14:20:19.516+03:00,0.02197104130929222,0
2025-04-22T17:02:34.256+03:00,1745330552.933554,40.95222141235789,29.14026153500561,76.7301,-1,-1,-1,-1,30,17.58926956519938,-9999,38849.290934875,-0.489898681640625,0.707977294921875,-0.506591796875,38849.280858875,-2.816518724522188,-0.7700704186523319,-0.7863682309643456,0.0001277935807593167,0.003068867372348905,0.004403803963214159,-0.001348823308944702,-0.001386880874633789,0.001664578914642334,XArbitraryZVertical,-0.3998191659306589,0.294259367092262,-0.821496252508629,0.2805348944980541,-0.4917998611927032,0.7077924013137817,-0.5071121454238892,0,0,0,-1,-1,38843.99246366667,unknown,2,2025-04-22T17:02:28.952+03:00,2025-04-21T17:08:51.449+03:00,8997,1.055654,0,0,7505.379,7,22,2025-04-22T17:01:47.683+03:00,767023354.2014439,0,-13.27,100.3636,1,0.4,2025-04-22T17:01:55.525+03:00,120,2,2025-04-22T14:20:19.516+03:00,0.02197104130929222,0
2025-04-22T17:02:34.266+03:00,1745330552.933554,40.95222141235789,29.14026153500561,76.7301,-1,-1,-1,-1,30,17.58926956519938,-9999,38849.301009875,-0.489410400390625,0.7083587646484375,-0.5042266845703125,38849.290934875,-2.816444184349958,-0.7699927914256429,-0.7863747246588909,0.005274285562336445,0.002815267769619823,0.003178716637194157,-0.001818597316741943,0.0002412796020507812,0.0005245208740234375,XArbitraryZVertical,-0.3997982295771266,0.2942581615730057,-0.8215000322798306,0.2805550174255617,-0.4917573034763336,0.7077969908714294,-0.5071470141410828,0,0,0,-1,-1,38843.99246366667,unknown,2,2025-04-22T17:02:28.952+03:00,2025-04-21T17:08:51.449+03:00,8997,1.055654,0,0,7505.379,7,22,2025-04-22T17:01:47.683+03:00,767023354.2014439,0,-13.27,100.3636,1,0.4,2025-04-22T17:01:55.525+03:00,120,2,2025-04-22T14:20:19.516+03:00,0.02197104130929222,0
2025-04-22T17:02:34.276+03:00,1745330552.933554,40.95222141235789,29.14026153500561,76.7301,-1,-1,-1,-1,30,17.58926956519938,-9999,38849.311085875,-0.492340087890625,0.7051239013671875,-0.50225830078125,38849.301009875,-2.816377273681027,-0.7699442264666138,-0.7863680336108473,0.003186101093888283,-0.0006316616199910641,0.002809335943311453,0.001211762428283691,0.0006121397018432617,0.0002009272575378418,XArbitraryZVertical,-0.399788145174392,0.2942487089071656,-0.8215016705823818,0.280574400660005,-0.4917359352111816,0.7077922224998474,-0.5071742534637451,0,0,0,-1,-1,38843.99246366667,unknown,2,2025-04-22T17:02:28.952+03:00,2025-04-21T17:08:51.449+03:00,8997,1.055654,0,0,7505.379,7,22,2025-04-22T17:01:47.683+03:00,767023354.2014439,0,-13.27,100.3636,1,0.4,2025-04-22T17:01:55.525+03:00,120,2,2025-04-22T14:20:19.516+03:00,0.02197104130929222,0
2025-04-22T17:02:34.286+03:00,1745330552.933554,40.95222141235789,29.14026153500561,76.7301,-1,-1,-1,-1,30,17.58926956519938,-9999,38849.321161875,-0.4913330078125,0.70379638671875,-0.5023651123046875,38849.311085875,-2.816348278818643,-0.7699369104348398,-0.7863840944186301,0.00043066157377325,-0.002092805225402117,0.0009487851057201624,0.00200885534286499,0.0006008148193359375,0.003827929496765137,XArbitraryZVertical,-0.399789379478533,0.294250911595246,-0.8214957968605093,0.2805875208669698,-0.4917243123054504,0.7078036069869995,-0.5071697235107422,0,0,0,-1,-1,38843.99246366667,unknown,2,2025-04-22T17:02:28.952+03:00,2025-04-21T17:08:51.449+03:00,8997,1.055654,0,0,7505.379,7,22,2025-04-22T17:01:47.683+03:00,767023354.2014439,0,-13.27,100.3636,1,0.4,2025-04-22T17:01:55.525+03:00,120,2,2025-04-22T14:20:19.516+03:00,0.02197104130929222,0
2025-04-22T17:02:34.296+03:00,1745330552.933554,40.95222141235789,29.14026153500561,76.7301,-1,-1,-1,-1,30,17.58926956519938,-9999,38849.331236875,-0.4912261962890625,0.705230712890625,-0.5030364990234375,38849.321161875,-2.816335900540585,-0.7699530753284189,-0.7863858164158044,-0.001281218370422721,-0.002542346715927124,0.001922703115269542,-0.000257343053817749,-0.00353550910949707,0.004368424415588379,XArbitraryZVertical,-0.3997978294242667,0.2942469027714082,-0.8214905225126685,0.280595230913809,-0.4917317032814026,0.707804799079895,-0.5071609020233154,0,0,0,-1,-1,38843.99246366667,unknown,2,2025-04-22T17:02:28.952+03:00,2025-04-21T17:08:51.449+03:00,8997,1.055654,0,0,7505.379,7,22,2025-04-22T17:01:47.683+03:00,767023354.2014439,0,-13.27,100.3636,1,0.4,2025-04-22T17:01:55.525+03:00,120,2,2025-04-22T14:20:19.516+03:00,0.02197104130929222,0
2025-04-22T17:02:34.306+03:00,1745330552.933554,40.95222141235789,29.14026153500561,76.7301,-1,-1,-1,-1,30,17.58926956519938,-9999,38849.341312875,-0.4922637939453125,0.705413818359375,-0.503082275390625,38849.331236875,-2.816291115031016,-0.7699501754923587,-0.7863931148754116,0.003201614134013653,-0.001843067351728678,0.001278451178222895,0.0006226301193237305,-0.003784835338592529,0.004778146743774414,XArbitraryZVertical,-0.3998032151676374,0.2942415251326108,-0.8214833340217018,0.2806142388996861,-0.4917266368865967,0.7078099846839905,-0.507158637046814,0,0,0,-1,-1,38843.99246366667,unknown,2,2025-04-22T17:02:28.952+03:00,2025-04-21T17:08:51.449+03:00,8997,1.055654,0,0,7505.379,7,22,2025-04-22T17:01:47.683+03:00,767023354.2014439,0,-13.27,100.3636,1,0.4,2025-04-22T17:01:55.525+03:00,120,2,2025-04-22T14:20:19.516+03:00,0.02197104130929222,0
2025-04-22T17:02:34.316+03:00,1745330552.933554,40.95222141235789,29.14026153500561,76.7301,-1,-1,-1,-1,30,17.58926956519938,-9999,38849.351387875,-0.4907989501953125,0.70635986328125,-0.5014190673828125,38849.341312875,-2.816245543055676,-0.7699078986253913,-0.7863882954412525,0.00180132407695055,0.002460601041093469,0.0005452830228023231,0.0001305937767028809,-0.002316534519195557,0.004465699195861816,XArbitraryZVertical,-0.3997925488484664,0.2942362307977893,-0.821486447266261,0.2806260551886487,-0.4917076230049133,0.7078065872192383,-0.5071819424629211,0,0,0,-1,-1,38843.99246366667,unknown,2,2025-04-22T17:02:28.952+03:00,2025-04-21T17:08:51.449+03:00,8997,1.055654,0,0,7505.379,7,22,2025-04-22T17:01:47.683+03:00,767023354.2014439,0,-13.27,100.3636,1,0.4,2025-04-22T17:01:55.525+03:00,120,2,2025-04-22T14:20:19.516+03:00,0.02197104130929222,0
2025-04-22T17:02:34.326+03:00,1745330552.933554,40.95222141235789,29.14026153500561,76.7301,-1,-1,-1,-1,30,17.58926956519938,-9999,38849.361463875,-0.491241455078125,0.70574951171875,-0.5005645751953125,38849.351387875,-2.816195055770613,-0.7698406293030043,-0.7863736207469425,0.002025229390710592,0.006208933424204588,0.002735699759796262,-0.0007050931453704834,-0.002672493457794189,0.004857122898101807,XArbitraryZVertical,-0.3997724037272245,0.2942292674020626,-0.8214956085466436,0.2806347973576211,-0.4916805922985077,0.7077962160110474,-0.5072223544120789,0,0,0,-1,-1,38843.99246366667,unknown,2,2025-04-22T17:02:28.952+03:00,2025-04-21T17:08:51.449+03:00,8997,1.055654,0,0,7505.379,7,22,2025-04-22T17:01:47.683+03:00,767023354.2014439,0,-13.27,100.3636,1,0.4,2025-04-22T17:01:55.525+03:00,120,2,2025-04-22T14:20:19.516+03:00,0.02197104130929222,0
2025-04-22T17:02:34.336+03:00,1745330552.933554,40.95222141235789,29.14026153500561,76.7301,-1,-1,-1,-1,30,17.58926956519938,-9999,38849.371539875,-0.491119384765625,0.7044830322265625,-0.4997100830078125,38849.361463875,-2.816152547406683,-0.7697665430008759,-0.7863532464893602,0.004830869380384684,0.006806280463933945,0.0001995713682845235,0.0008695423603057861,-0.0006591677665710449,0.004995405673980713,XArbitraryZVertical,-0.3997482620507861,0.2942223274029924,-0.8215085803672195,0.2806384575179139,-0.4916530549526215,0.7077817916870117,-0.5072690844535828,0,0,0,-1,-1,38843.99246366667,unknown,2,2025-04-22T17:02:28.952+03:00,2025-04-21T17:08:51.449+03:00,8997,1.055654,0,0,7505.379,7,22,2025-04-22T17:01:47.683+03:00,767023354.2014439,0,-13.27,100.3636,1,0.4,2025-04-22T17:01:55.525+03:00,120,2,2025-04-22T14:20:19.516+03:00,0.02197104130929222,0
2025-04-22T17:02:34.347+03:00,1745330552.933554,40.95222141235789,29.14026153500561,76.7301,-1,-1,-1,-1,30,17.58926956519938,-9999,38849.381614875,-0.4887542724609375,0.704681396484375,-0.5011138916015625,38849.371539875,-2.816142259500647,-0.7697055980161491,-0.7863326527723444,-0.001525430241599679,0.00331367808394134,-0.001807852881029248,0.0008792281150817871,-0.002033114433288574,0.007477283477783203,XArbitraryZVertical,-0.3997247688929365,0.2942198727749529,-0.821523538964565,0.280630788162577,-0.4916323125362396,0.7077672481536865,-0.5073095560073853,0,0,0,-1,-1,38843.99246366667,unknown,2,2025-04-22T17:02:28.952+03:00,2025-04-21T17:08:51.449+03:00,8997,1.055654,0,0,7505.379,7,22,2025-04-22T17:01:47.683+03:00,767023354.2014439,0,-13.27,100.3636,1,0.4,2025-04-22T17:01:55.525+03:00,120,2,2025-04-22T14:20:19.516+03:00,0.02197104130929222,0
2025-04-22T17:02:34.357+03:00,1745330552.933554,40.95222141235789,29.14026153500561,76.7301,-1,-1,-1,-1,30,17.58926956519938,-9999,38849.391690875,-0.488525390625,0.701873779296875,-0.50164794921875,38849.381614875,-2.816207891450864,-0.7697417135006734,-0.7863757506159407,-0.008538865484297276,0.00157543271780014,0.0007943217642605305,0.0005102753639221191,-0.003482639789581299,0.007163047790527344,XArbitraryZVertical,-0.3997298410115465,0.2942465647377513,-0.8215169711847836,0.2806152874246588,-0.4916295409202576,0.7077977061271667,-0.5072700381278992,0,0,0,-1,-1,38843.99246366667,unknown,2,2025-04-22T17:02:28.952+03:00,2025-04-21T17:08:51.449+03:00,8997,1.055654,0,0,7505.379,7,22,2025-04-22T17:01:47.683+03:00,767023354.2014439,0,-13.27,100.3636,1,0.4,2025-04-22T17:01:55.525+03:00,120,2,2025-04-22T14:20:19.516+03:00,0.02197104130929222,0
2025-04-22T17:02:34.367+03:00,1745330552.933554,40.95222141235789,29.14026153500561,76.7301,-1,-1,-1,-1,30,17.58926956519938,-9999,38849.40176725,-0.4917449951171875,0.7035064697265625,-0.5030670166015625,38849.391690875,-2.816319792427198,-0.769810114698696,-0.7864368955074109,-0.01196868345141411,0.000979218166321516,-0.005643703974783421,0.003764927387237549,-0.003266394138336182,0.00604546070098877,XArbitraryZVertical,-0.3997413839581583,0.2942858951606961,-0.8215065017536183,0.2805880884570351,-0.4916340708732605,0.7078409194946289,-0.5072052478790283,0,0,0,-1,-1,38843.99246366667,unknown,2,2025-04-22T17:02:28.952+03:00,2025-04-21T17:08:51.449+03:00,8997,1.055654,0,0,7505.379,7,22,2025-04-22T17:01:47.683+03:00,767023354.2014439,0,-13.27,100.3636,1,0.4,2025-04-22T17:01:55.525+03:00,120,2,2025-04-22T14:20:19.516+03:00,0.02197104130929222,0
2025-04-22T17:02:34.377+03:00,1745330552.933554,40.95222141235789,29.14026153500561,76.7301,-1,-1,-1,-1,30,17.58926956519938,-9999,38849.41184225,-0.4954071044921875,0.7041168212890625,-0.49969482421875,38849.40176725,-2.816504393562127,-0.76993528479144,-0.7865047606535005,-0.01059209555387497,0.000437531154602766,-0.004001331981271505,0.002696305513381958,-0.005771040916442871,0.00495755672454834,XArbitraryZVertical,-0.3997655182100687,0.294334692020018,-0.8214935754288503,0.2805403458357112,-0.4916641116142273,0.7078888416290283,-0.5071092247962952,0,0,0,-1,-1,38843.99246366667,unknown,2,2025-04-22T17:02:28.952+03:00,2025-04-21T17:08:51.449+03:00,8997,1.055654,0,0,7505.379,7,22,2025-04-22T17:01:47.683+03:00,767023354.2014439,0,-13.27,100.3636,1,0.4,2025-04-22T17:01:55.525+03:00,120,2,2025-04-22T14:20:19.516+03:00,0.02197104130929222,0
2025-04-22T17:02:34.387+03:00,1745330552.933554,40.95222141235789,29.14026153500561,76.7301,-1,-1,-1,-1,30,17.58926956519938,-9999,38849.42191825,-0.4938812255859375,0.7059326171875,-0.50103759765625,38849.41184225,-2.816571150119498,-0.7699616178895923,-0.7865133084359809,0.004074664786458015,0.005747807212173939,-0.002615989185869694,-0.0008345544338226318,-0.004190146923065186,0.004329919815063477,XArbitraryZVertical,-0.3997664942467153,0.2943480506906236,-0.8214959416063721,0.2805180187493902,-0.4916732311248779,0.7078948616981506,-0.5070919394493103,0,0,0,-1,-1,38843.99246366667,unknown,2,2025-04-22T17:02:28.952+03:00,2025-04-21T17:08:51.449+03:00,8997,1.055654,0,0,7505.379,7,22,2025-04-22T17:01:47.683+03:00,767023354.2014439,0,-13.27,100.3636,1,0.4,2025-04-22T17:01:55.525+03:00,120,2,2025-04-22T14:20:19.516+03:00,0.02197104130929222,0
2025-04-22T17:02:34.397+03:00,1745330552.933554,40.95222141235789,29.14026153500561,76.7301,-1,-1,-1,-1,30,17.58926956519938,-9999,38849.43199425,-0.4878692626953125,0.705963134765625,-0.504669189453125,38849.42191825,-2.816556960876711,-0.769915001042449,-0.7864774068683651,0.002883166540414095,0.002819661749526858,-0.002253000158816576,-0.004304319620132446,-0.003844320774078369,0.007361769676208496,XArbitraryZVertical,-0.3997495135958501,0.2943361991356578,-0.8215104781726306,0.2805118687948958,-0.491667240858078,0.7078695297241211,-0.5071330666542053,0,0,0,-1,-1,38843.99246366667,unknown,2,2025-04-22T17:02:28.952+03:00,2025-04-21T17:08:51.449+03:00,8997,1.055654,0,0,7505.379,7,22,2025-04-22T17:01:47.683+03:00,767023354.2014439,0,-13.27,100.3636,1,0.4,2025-04-22T17:01:55.525+03:00,120,2,2025-04-22T14:20:19.516+03:00,0.02197104130929222,0
2025-04-22T17:02:34.407+03:00,1745330552.933554,40.95222141235789,29.14026153500561,76.7301,-1,-1,-1,-1,30,17.58926956519938,-9999,38849.44206925,-0.485443115234375,0.6994476318359375,-0.505767822265625,38849.43199425,-2.81663308203484,-0.769974781062839,-0.7864921723170165,-0.009684557095170021,-0.0005005011335015297,-0.003230114001780748,-0.00153467059135437,-0.001749098300933838,0.00593644380569458,XArbitraryZVertical,-0.3997628381274368,0.2943494357355771,-0.8215062127925425,0.2804915030104134,-0.4916902780532837,0.7078799605369568,-0.5070961713790894,0,0,0,-1,-1,38843.99246366667,unknown,2,2025-04-22T17:02:28.952+03:00,2025-04-21T17:08:51.449+03:00,8997,1.055654,0,0,7505.379,7,22,2025-04-22T17:01:47.683+03:00,767023354.2014439,0,-13.27,100.3636,1,0.4,2025-04-22T17:01:55.525+03:00,120,2,2025-04-22T14:20:19.516+03:00,0.02197104130929222,0
2025-04-22T17:02:34.417+03:00,1745330552.933554,40.95222141235789,29.14026153500561,76.7301,-1,-1,-1,-1,30,17.58926956519938,-9999,38849.45214525,-0.487060546875,0.700897216796875,-0.506683349609375,38849.44206925,-2.816835079108475,-0.7701251917839613,-0.7865947443896311,-0.02022641338407993,-7.918896153569221e-05,-0.002363521372899413,0.004045248031616211,-0.002157211303710938,0.002605915069580078,XArbitraryZVertical,-0.3997946943965722,0.2944132247647414,-0.8214836656062773,0.2804452863883864,-0.4917160272598267,0.7079523801803589,-0.5069701075553894,0,0,0,-1,-1,38843.99246366667,unknown,2,2025-04-22T17:02:28.952+03:00,2025-04-21T17:08:51.449+03:00,8997,1.055654,0,0,7505.379,7,22,2025-04-22T17:01:47.683+03:00,767023354.2014439,0,-13.27,100.3636,1,0.4,2025-04-22T17:01:55.525+03:00,120,2,2025-04-22T14:20:19.516+03:00,0.02197104130929222,0
2025-04-22T17:02:34.427+03:00,1745330552.933554,40.95222141235789,29.14026153500561,76.7301,-1,-1,-1,-1,30,17.58926956519938,-9999,38849.46222125,-0.489013671875,0.7040252685546875,-0.5029296875,38849.45214525,-2.817122821941977,-0.7703383097451636,-0.7867493361049909,-0.02295375615358353,-0.0006546978838741779,-0.00689369160681963,0.006136953830718994,-0.008903980255126953,0.001507043838500977,XArbitraryZVertical,-0.3998395878815007,0.2945079847293548,-0.8214498971766332,0.2803805051542153,-0.4917477965354919,0.7080615758895874,-0.5067867040634155,0,0,0,-1,-1,38843.99246366667,unknown,2,2025-04-22T17:02:28.952+03:00,2025-04-21T17:08:51.449+03:00,8997,1.055654,0,0,7505.379,7,22,2025-04-22T17:01:47.683+03:00,767023354.2014439,0,-13.27,100.3636,1,0.4,2025-04-22T17:01:55.525+03:00,120,2,2025-04-22T14:20:19.516+03:00,0.02197104130929222,0
2025-04-22T17:02:34.437+03:00,1745330552.933554,40.95222141235789,29.14026153500561,76.7301,-1,-1,-1,-1,30,17.58926956519938,-9999,38849.47229625,-0.491363525390625,0.7052001953125,-0.5,38849.46222125,-2.817418143817308,-0.7705479934002024,-0.7868542978562958,-0.01745512895286083,0.001425497233867645,-0.008294780738651752,0.004314661026000977,-0.006765544414520264,0.0005877017974853516,XArbitraryZVertical,-0.399881984260616,0.2945831456539565,-0.8214281625650557,0.2803050630352444,-0.4918023645877838,0.7081356644630432,-0.5066303610801697,0,0,0,-1,-1,38843.99246366667,unknown,2,2025-04-22T17:02:28.952+03:00,2025-04-21T17:08:51.449+03:00,8997,1.055654,0,0,7505.379,7,22,2025-04-22T17:01:47.683+03:00,767023354.2014439,0,-13.27,100.3636,1,0.4,2025-04-22T17:01:55.525+03:00,120,2,2025-04-22T14:20:19.516+03:00,0.02197104130929222,0
2025-04-22T17:02:34.447+03:00,1745330552.933554,40.95222141235789,29.14026153500561,76.7301,-1,-1,-1,-1,30,17.58926956519938,-9999,38849.48237225,-0.493194580078125,0.709686279296875,-0.5000152587890625,38849.47229625,-2.817629951472807,-0.7707080095496146,-0.7869201016619674,-0.01173405814915895,-0.0008847285062074661,-0.008078099228441715,0.00253218412399292,-0.003577172756195068,0.003924012184143066,XArbitraryZVertical,-0.3999163769469659,0.2946316424445615,-0.8214124263559567,0.2802510262423878,-0.4918509125709534,0.708182156085968,-0.5065181851387024,0,0,0,-1,-1,38843.99246366667,unknown,2,2025-04-22T17:02:28.952+03:00,2025-04-21T17:08:51.449+03:00,8997,1.055654,0,0,7505.379,7,22,2025-04-22T17:01:47.683+03:00,767023354.2014439,0,-13.27,100.3636,1,0.4,2025-04-22T17:01:55.525+03:00,120,2,2025-04-22T14:20:19.516+03:00,0.02197104130929222,0
2025-04-22T17:02:34.457+03:00,1745330552.933554,40.95222141235789,29.14026153500561,76.7301,-1,-1,-1,-1,30,17.58926956519938,-9999,38849.49244725,-0.48944091796875,0.7111968994140625,-0.50189208984375,38849.48237225,-2.817791146866419,-0.7708351159209483,-0.7869306988861179,-0.005184547044336796,-0.002293806988745928,-0.006441053934395313,0.0001956820487976074,-0.003126859664916992,0.006892621517181396,XArbitraryZVertical,-0.3999448100600904,0.2946506647398931,-0.8214074420136334,0.2802050599976283,-0.4919100701808929,0.7081896066665649,-0.5064502954483032,0,0,0,-1,-1,38843.99246366667,unknown,2,2025-04-22T17:02:28.952+03:00,2025-04-21T17:08:51.449+03:00,8997,1.055654,0,0,7505.379,7,22,2025-04-22T17:01:47.683+03:00,767023354.2014439,0,-13.27,100.3636,1,0.4,2025-04-22T17:01:55.525+03:00,120,2,2025-04-22T14:20:19.516+03:00,0.02197104130929222,0
2025-04-22T17:02:34.468+03:00,1745330552.933554,40.95222141235789,29.14026153500561,76.7301,-1,-1,-1,-1,30,17.58926956519938,-9999,38849.50252325,-0.4910736083984375,0.708282470703125,-0.504852294921875,38849.49244725,-2.817939339327106,-0.7709848470238747,-0.7869461677414504,-0.009243004024028778,-0.001872561406344175,-0.004802577663213015,-0.000453263521194458,0.001775562763214111,0.005666732788085938,XArbitraryZVertical,-0.399984431317894,0.2946660248706396,-0.8213951514637173,0.2801684666753307,-0.4919782876968384,0.7082005143165588,-0.5063687562942505,0,0,0,-1,-1,38843.99246366667,unknown,2,2025-04-22T17:02:28.952+03:00,2025-04-21T17:08:51.449+03:00,8997,1.055654,0,0,7505.379,7,22,2025-04-22T17:01:47.683+03:00,767023354.2014439,0,-13.27,100.3636,1,0.4,2025-04-22T17:01:55.525+03:00,120,2,2025-04-22T14:20:19.516+03:00,0.02197104130929222,0
2025-04-22T17:02:34.477+03:00,1745330552.933554,40.95222141235789,29.14026153500561,76.7301,-1,-1,-1,-1,30,17.58926956519938,-9999,38849.51259925,-0.493194580078125,0.7049560546875,-0.502685546875,38849.50252325,-2.818096314991613,-0.7711152820145917,-0.7869922655527615,-0.01050587557256222,-0.0009212801232933998,-0.00136257242411375,0.002473950386047363,0.003284156322479248,0.003763318061828613,XArbitraryZVertical,-0.4000147639552161,0.2946991435857566,-0.8213817082073387,0.2801297989223833,-0.4920215904712677,0.7082330584526062,-0.5062811970710754,0,0,0,-1,-1,38843.99246366667,unknown,2,2025-04-22T17:02:28.952+03:00,2025-04-21T17:08:51.449+03:00,8997,1.055654,0,0,7505.379,7,22,2025-04-22T17:01:47.683+03:00,767023354.2014439,0,-13.27,100.3636,1,0.4,2025-04-22T17:01:55.525+03:00,120,2,2025-04-22T14:20:19.516+03:00,0.02197104130929222,0
2025-04-22T17:02:34.488+03:00,1745330552.933554,40.95222141235789,29.14026153500561,76.7301,-1,-1,-1,-1,30,17.58926956519938,-9999,38849.52267425,-0.495025634765625,0.7119293212890625,-0.498809814453125,38849.51259925,-2.818205487354362,-0.7711829226560365,-0.7870598462889747,-0.00940931960940361,0.004579079337418079,-0.001645466662012041,0.0002318024635314941,-0.00120389461517334,0.0007965564727783203,XArbitraryZVertical,-0.4000263136952088,0.2947408492270152,-0.8213696693195789,0.2801045784457361,-0.4920224249362946,0.7082808017730713,-0.5062135457992554,0,0,0,-1,-1,38843.99246366667,unknown,2,2025-04-22T17:02:28.952+03:00,2025-04-21T17:08:51.449+03:00,8997,1.055654,0,0,7505.379,7,22,2025-04-22T17:01:47.683+03:00,767023354.2014439,0,-13.27,100.3636,1,0.4,2025-04-22T17:01:55.525+03:00,120,2,2025-04-22T14:20:19.516+03:00,0.02197104130929222,0
2025-04-22T17:02:34.498+03:00,1745330552.933554,40.95222141235789,29.14026153500561,76.7301,-1,-1,-1,-1,30,17.58926956519938,-9999,38849.53275025,-0.496337890625,0.71588134765625,-0.4981689453125,38849.52267425,-2.818248510942782,-0.7711322653111792,-0.7870900842331675,-0.0008448594599030912,0.009140009060502052,-0.0006164211663417518,-0.0009683966636657715,-0.00252223014831543,0.003659546375274658,XArbitraryZVertical,-0.3999990868053593,0.2947696468358896,-0.8213797484456234,0.2800837650483224,-0.4919819235801697,0.7083021402359009,-0.5062231421470642,0,0,0,-1,-1,38843.99246366667,unknown,2,2025-04-22T17:02:28.952+03:00,2025-04-21T17:08:51.449+03:00,8997,1.055654,0,0,7505.379,7,22,2025-04-22T17:01:47.683+03:00,767023354.2014439,0,-13.27,100.3636,1,0.4,2025-04-22T17:01:55.525+03:00,120,2,2025-04-22T14:20:19.516+03:00,0.02197104130929222,0
2025-04-22T17:02:34.508+03:00,1745330552.933554,40.95222141235789,29.14026153500561,76.7301,-1,-1,-1,-1,30,17.58926956519938,-9999,38849.54282625,-0.4935760498046875,0.713531494140625,-0.5005645751953125,38849.53275025,-2.818220938055773,-0.7710028939329803,-0.7870644828979859,0.003403681563213468,0.01096081174910069,-0.0006640917854383588,-0.003462672233581543,0.004789590835571289,0.008527457714080811,XArbitraryZVertical,-0.3999500756155916,0.2947711391624764,-0.8214069700759701,0.2800723663583546,-0.4919290542602539,0.7082840800285339,-0.5062998533248901,0,0,0,-1,-1,38843.99246366667,unknown,2,2025-04-22T17:02:28.952+03:00,2025-04-21T17:08:51.449+03:00,8997,1.055654,0,0,7505.379,7,22,2025-04-22T17:01:47.683+03:00,767023354.2014439,0,-13.27,100.3636,1,0.4,2025-04-22T17:01:55.525+03:00,120,2,2025-04-22T14:20:19.516+03:00,0.02197104130929222,0
2025-04-22T17:02:34.518+03:00,1745330552.933554,40.95222141235789,29.14026153500561,76.7301,-1,-1,-1,-1,30,17.58926956519938,-9999,38849.55290125,-0.49578857421875,0.71063232421875,-0.5008087158203125,38849.54282625,-2.818199738176215,-0.7708519240563867,-0.7870148293116429,0.003090227488428354,0.01266017556190491,-0.002069441834464669,-0.004537016153335571,0.007845818996429443,0.008138597011566162,XArbitraryZVertical,-0.3998913321570788,0.2947665387494289,-0.8214441457447851,0.2800517275867026,-0.491877019405365,0.708249032497406,-0.5063992142677307,0,0,0,-1,-1,38843.99246366667,unknown,2,2025-04-22T17:02:28.952+03:00,2025-04-21T17:08:51.449+03:00,8997,1.055654,0,0,7505.379,7,22,2025-04-22T17:01:47.683+03:00,767023354.2014439,0,-13.27,100.3636,1,0.4,2025-04-22T17:01:55.525+03:00,120,2,2025-04-22T14:20:19.516+03:00,0.02197104130929222,0
2025-04-22T17:02:34.528+03:00,1745330552.933554,40.95222141235789,29.14026153500561,76.7301,-1,-1,-1,-1,30,17.58926956519938,-9999,38849.56297725,-0.4952545166015625,0.7106475830078125,-0.5037841796875,38849.55290125,-2.818178881257442,-0.7707024567383668,-0.7869672124909559,0.006288750562816858,0.01093797571957111,-0.001187635934911668,-0.001323848962783813,0.004934489727020264,0.006237447261810303,XArbitraryZVertical,-0.3998331261889201,0.2947626427891936,-0.8214807626050422,0.2800314677896459,-0.4918248057365417,0.7082154154777527,-0.5064969062805176,0,0,0,-1,-1,38843.99246366667,unknown,2,2025-04-22T17:02:28.952+03:00,2025-04-21T17:08:51.449+03:00,8997,1.055654,0,0,7505.379,7,22,2025-04-22T17:01:47.683+03:00,767023354.2014439,0,-13.27,100.3636,1,0.4,2025-04-22T17:01:55.525+03:00,120,2,2025-04-22T14:20:19.516+03:00,0.02197104130929222,0
2025-04-22T17:02:34.538+03:00,1745330552.933554,40.95222141235789,29.14026153500561,76.7301,-1,-1,-1,-1,30,17.58926956519938,-9999,38849.57305325,-0.4909515380859375,0.707733154296875,-0.5043487548828125,38849.56297725,-2.818128954011119,-0.7705597426969746,-0.7868918488366894,0.01332615409046412,0.01049615722149611,-0.00227021099999547,-0.004517555236816406,0.002759933471679688,0.005644023418426514,XArbitraryZVertical,-0.3997820265261252,0.294739932509131,-0.8215176430166206,0.2800201896459984,-0.491789698600769,0.7081621885299683,-0.5066053867340088,0,0,0,-1,-1,38843.99246366667,unknown,2,2025-04-22T17:02:28.952+03:00,2025-04-21T17:08:51.449+03:00,8997,1.055654,0,0,7505.379,7,22,2025-04-22T17:01:47.683+03:00,767023354.2014439,0,-13.27,100.3636,1,0.4,2025-04-22T17:01:55.525+03:00,120,2,2025-04-22T14:20:19.516+03:00,0.02197104130929222,0
2025-04-22T17:02:34.548+03:00,1745330552.933554,40.95222141235789,29.14026153500561,76.7301,-1,-1,-1,-1,30,17.58926956519938,-9999,38849.58312825,-0.4910125732421875,0.705657958984375,-0.50201416015625,38849.57305325,-2.818022563004912,-0.77037258605331,-0.7868122553041805,0.01226495113223791,0.01179664582014084,0.001002447912469506,-0.002833634614944458,0.002266764640808105,0.002617895603179932,XArbitraryZVertical,-0.3997210068787118,0.2947103447604272,-0.8215562885118884,0.2800249548278242,-0.491734117269516,0.7081059813499451,-0.5067378878593445,0,0,0,-1,-1,38843.99246366667,unknown,2,2025-04-22T17:02:28.952+03:00,2025-04-21T17:08:51.449+03:00,8997,1.055654,0,0,7505.379,7,22,2025-04-22T17:01:47.683+03:00,767023354.2014439,0,-13.27,100.3636,1,0.4,2025-04-22T17:01:55.525+03:00,120,2,2025-04-22T14:20:19.516+03:00,0.02197104130929222,0
2025-04-22T17:02:34.558+03:00,1745330552.933554,40.95222141235789,29.14026153500561,76.7301,-1,-1,-1,-1,30,17.58926956519938,-9999,38849.59320425,-0.491455078125,0.703948974609375,-0.5033111572265625,38849.58312825,-2.817888441882767,-0.7701827625877655,-0.7867320664576732,0.0126122273504734,0.007781930267810822,-0.0008279428002424538,0.0005888044834136963,-0.000438392162322998,0.003148794174194336,XArbitraryZVertical,-0.3996629240845169,0.2946752532563811,-0.8215919471488138,0.2800406543131663,-0.4916775822639465,0.7080493569374084,-0.5068720579147339,0,0,0,-1,-1,38843.99246366667,unknown,2,2025-04-22T17:02:28.952+03:00,2025-04-21T17:08:51.449+03:00,8997,1.055654,0,0,7505.379,7,22,2025-04-22T17:01:47.683+03:00,767023354.2014439,0,-13.27,100.3636,1,0.4,2025-04-22T17:01:55.525+03:00,120,2,2025-04-22T14:20:19.516+03:00,0.02197104130929222,0
2025-04-22T17:02:34.568+03:00,1745330552.933554,40.95222141235789,29.14026153500561,76.7301,-1,-1,-1,-1,30,17.58926956519938,-9999,38849.60328025,-0.4915924072265625,0.704010009765625,-0.5019073486328125,38849.59320425,-2.817757801062789,-0.7700226174754873,-0.786650944052329,0.009497593156993389,0.005169834941625595,0.0001225061132572591,0.0004712939262390137,-0.003341197967529297,0.005115032196044922,XArbitraryZVertical,-0.3996165495680245,0.2946363649795046,-0.8216221427821806,0.2800591628819648,-0.4916363954544067,0.7079920768737793,-0.5069920420646667,0,0,0,-1,-1,38843.99246366667,unknown,2,2025-04-22T17:02:28.952+03:00,2025-04-21T17:08:51.449+03:00,8997,1.055654,0,0,7505.379,7,22,2025-04-22T17:01:47.683+03:00,767023354.2014439,0,-13.27,100.3636,1,0.4,2025-04-22T17:01:55.525+03:00,120,2,2025-04-22T14:20:19.516+03:00,0.02197104130929222,0
2025-04-22T17:02:34.578+03:00,1745330552.933554,40.95222141235789,29.14026153500561,76.7301,-1,-1,-1,-1,30,17.58926956519938,-9999,38849.61335525,-0.4911041259765625,0.705596923828125,-0.5008544921875,38849.60328025,-2.817665461931209,-0.7698837866527616,-0.7866021486764827,0.005671429447829723,0.00757706630975008,0.0012466263724491,0.0002417862415313721,-0.003795146942138672,0.003682196140289307,XArbitraryZVertical,-0.3995732486043905,0.2946162349839462,-0.8216466907212869,0.2800696823412838,-0.4915899336338043,0.7079576253890991,-0.5070849657058716,0,0,0,-1,-1,38843.99246366667,unknown,2,2025-04-22T17:02:28.952+03:00,2025-04-21T17:08:51.449+03:00,8997,1.055654,0,0,7505.379,7,22,2025-04-22T17:01:47.683+03:00,767023354.2014439,0,-13.27,100.3636,1,0.4,2025-04-22T17:01:55.525+03:00,120,2,2025-04-22T14:20:19.516+03:00,0.02197104130929222,0
2025-04-22T17:02:34.588+03:00,1745330552.933554,40.95222141235789,29.14026153500561,76.7301,-1,-1,-1,-1,30,17.58926956519938,-9999,38849.62343125,-0.492340087890625,0.7086334228515625,-0.498779296875,38849.61335525,-2.817646880945617,-0.7698247603647512,-0.7865896439849566,0.004399237688630819,0.005421770270913839,0.001088035060092807,0.0005842447280883789,-0.003816783428192139,0.005685925483703613,XArbitraryZVertical,-0.3995517612716282,0.2946153616007956,-0.8216584209805625,0.2800668388313791,-0.4915661513805389,0.7079488039016724,-0.5071203708648682,0,0,0,-1,-1,38843.99246366667,unknown,2,2025-04-22T17:02:28.952+03:00,2025-04-21T17:08:51.449+03:00,8997,1.055654,0,0,7505.379,7,22,2025-04-22T17:01:47.683+03:00,767023354.2014439,0,-13.27,100.3636,1,0.4,2025-04-22T17:01:55.525+03:00,120,2,2025-04-22T14:20:19.516+03:00,0.02197104130929222,0
2025-04-22T17:02:34.598+03:00,1745330552.933554,40.95222141235789,29.14026153500561,76.7301,-1,-1,-1,-1,30,17.58926956519938,-9999,38849.63350725,-0.4944610595703125,0.7070159912109375,-0.5006561279296875,38849.62343125,-2.817604118478535,-0.7697109355144583,-0.7865787137784518,0.006075697485357523,0.01384934410452843,0.001660881098359823,0.0001962184906005859,-0.001993298530578613,0.006342530250549316,XArbitraryZVertical,-0.3995113120003473,0.294618002100591,-0.8216774304611888,0.2800660842841443,-0.4915138483047485,0.7079410552978516,-0.5071818828582764,0,0,0,-1,-1,38843.99246366667,unknown,2,2025-04-22T17:02:28.952+03:00,2025-04-21T17:08:51.449+03:00,8997,1.055654,0,0,7505.379,7,22,2025-04-22T17:01:47.683+03:00,767023354.2014439,0,-13.27,100.3636,1,0.4,2025-04-22T17:01:55.525+03:00,120,2,2025-04-22T14:20:19.516+03:00,0.02197104130929222,0
2025-04-22T17:02:34.609+03:00,1745330552.933554,40.95222141235789,29.14026153500561,76.7301,-1,-1,-1,-1,30,17.58926956519938,-9999,38849.64358225,-0.493804931640625,0.7050933837890625,-0.502410888671875,38849.63350725,-2.817539156904951,-0.7695330014413965,-0.7865408265968888,0.008670748211443424,0.01347337197512388,0.001326021971181035,-0.001294434070587158,0.001146256923675537,0.007914125919342041,XArbitraryZVertical,-0.3994478362164582,0.2946134720595862,-0.8217116556792756,0.2800611696594025,-0.4914422929286957,0.7079142928123474,-0.5072886347770691,0,0,0,-1,-1,38843.99246366667,unknown,2,2025-04-22T17:02:28.952+03:00,2025-04-21T17:08:51.449+03:00,8997,1.055654,0,0,7505.379,7,22,2025-04-22T17:01:47.683+03:00,767023354.2014439,0,-13.27,100.3636,1,0.4,2025-04-22T17:01:55.525+03:00,120,2,2025-04-22T14:20:19.516+03:00,0.02197104130929222,0
2025-04-22T17:02:34.619+03:00,1745330552.933554,40.95222141235789,29.14026153500561,76.7301,-1,-1,-1,-1,30,17.58926956519938,-9999,38849.65365825,-0.491363525390625,0.7046661376953125,-0.50384521484375,38849.64358225,-2.817456903866691,-0.769368410864565,-0.7865040775491009,0.008204428479075432,0.0114070251584053,0.002388356951996684,-0.003236681222915649,-0.001559138298034668,0.005663812160491943,XArbitraryZVertical,-0.3993924057982992,0.2946041550703428,-0.8217404348686925,0.280065484170544,-0.4913768768310547,0.7078883647918701,-0.507388174533844,0,0,0,-1,-1,38843.99246366667,unknown,2,2025-04-22T17:02:28.952+03:00,2025-04-21T17:08:51.449+03:00,8997,1.055654,0,0,7505.379,7,22,2025-04-22T17:01:47.683+03:00,767023354.2014439,0,-13.27,100.3636,1,0.4,2025-04-22T17:01:55.525+03:00,120,2,2025-04-22T14:20:19.516+03:00,0.02197104130929222,0
2025-04-22T17:02:34.629+03:00,1745330552.933554,40.95222141235789,29.14026153500561,76.7301,-1,-1,-1,-1,30,17.58926956519938,-9999,38849.66373325,-0.4898529052734375,0.702880859375,-0.5067291259765625,38849.65365825,-2.817378094205834,-0.7691934849074415,-0.7864780423536128,0.005889476276934147,0.01122020371258259,0.0004166190046817064,-0.001908808946609497,-0.002456247806549072,0.004664301872253418,XArbitraryZVertical,-0.3993321934416291,0.2946016184934215,-0.8217696004326493,0.2800683910788874,-0.4913009107112885,0.7078699469566345,-0.5074873566627502,0,0,0,-1,-1,38843.99246366667,unknown,2,2025-04-22T17:02:28.952+03:00,2025-04-21T17:08:51.449+03:00,8997,1.055654,0,0,7505.379,7,22,2025-04-22T17:01:47.683+03:00,767023354.2014439,0,-13.27,100.3636,1,0.4,2025-04-22T17:01:55.525+03:00,120,2,2025-04-22T14:20:19.516+03:00,0.02197104130929222,0
2025-04-22T17:02:34.639+03:00,1745330552.933554,40.95222141235789,29.14026153500561,76.7301,-1,-1,-1,-1,30,17.58926956519938,-9999,38849.67380925,-0.489990234375,0.70269775390625,-0.5049285888671875,38849.66373325,-2.817318393913824,-0.769063824897393,-0.7864668026036309,0.00449477881193161,0.008206571452319622,0.002438757102936506,0.000640183687210083,-0.003836870193481445,0.003284156322479248,XArbitraryZVertical,-0.3992877454449085,0.2946030005448557,-0.8217893381342687,0.2800722188559551,-0.4912405908107758,0.7078620195388794,-0.5075567364692688,0,0,0,-1,-1,38843.99246366667,unknown,2,2025-04-22T17:02:28.952+03:00,2025-04-21T17:08:51.449+03:00,8997,1.055654,0,0,7505.379,7,22,2025-04-22T17:01:47.683+03:00,767023354.2014439,0,-13.27,100.3636,1,0.4,2025-04-22T17:01:55.525+03:00,120,2,2025-04-22T14:20:19.516+03:00,0.02197104130929222,0
2025-04-22T17:02:34.649+03:00,1745330552.933554,40.95222141235789,29.14026153500561,76.7301,-1,-1,-1,-1,30,17.58926956519938,-9999,38849.68388525,-0.4895782470703125,0.707183837890625,-0.5037078857421875,38849.67380925,-2.817264619280177,-0.7689484926075999,-0.7864514075748105,0.004828006494790316,0.009331024251878262,0.001798832789063454,0.001123249530792236,-0.005199313163757324,0.0009224414825439453,XArbitraryZVertical,-0.3992482990830041,0.2946017238199511,-0.8218079895375141,0.2800751371064929,-0.4911896586418152,0.7078511714935303,-0.5076212286949158,0,0,0,-1,-1,38843.99246366667,unknown,2,2025-04-22T17:02:28.952+03:00,2025-04-21T17:08:51.449+03:00,8997,1.055654,0,0,7505.379,7,22,2025-04-22T17:01:47.683+03:00,767023354.2014439,0,-13.27,100.3636,1,0.4,2025-04-22T17:01:55.525+03:00,120,2,2025-04-22T14:20:19.516+03:00,0.02197104130929222,0
2025-04-22T17:02:34.659+03:00,1745330552.933554,40.95222141235789,29.14026153500561,76.7301,-1,-1,-1,-1,30,17.58926956519938,-9999,38849.69396025,-0.4898223876953125,0.709197998046875,-0.5041656494140625,38849.68388525,-2.817194508530295,-0.7688301926384657,-0.7864103544276002,0.006727106403559446,0.01007378008216619,-0.0009415599051862955,0.001510679721832275,-0.004620969295501709,0.002771556377410889,XArbitraryZVertical,-0.3992100901269431,0.2945864763195976,-0.8218301205680856,0.2800806803321422,-0.4911497831344604,0.7078221440315247,-0.5077002048492432,0,0,0,-1,-1,38843.99246366667,unknown,2,2025-04-22T17:02:28.952+03:00,2025-04-21T17:08:51.449+03:00,8997,1.055654,0,0,7505.379,7,22,2025-04-22T17:01:47.683+03:00,767023354.2014439,0,-13.27,100.3636,1,0.4,2025-04-22T17:01:55.525+03:00,120,2,2025-04-22T14:20:19.516+03:00,0.02197104130929222,0
2025-04-22T17:02:34.669+03:00,1745330552.933554,40.95222141235789,29.14026153500561,76.7301,-1,-1,-1,-1,30,17.58926956519938,-9999,38849.70403625,-0.4902191162109375,0.706787109375,-0.50494384765625,38849.69396025,-2.817133476224304,-0.7687272713647705,-0.7863411051741687,0.008038113825023174,0.006114657502621412,-0.002246941672638059,0.0009278953075408936,5.543231964111328e-06,0.004261136054992676,XArbitraryZVertical,-0.3991769082678662,0.2945586457240033,-0.8218561866546629,0.2800807511419715,-0.491131603717804,0.7077732086181641,-0.507785975933075,0,0,0,-1,-1,38843.99246366667,unknown,2,2025-04-22T17:02:28.952+03:00,2025-04-21T17:08:51.449+03:00,8997,1.055654,0,0,7505.379,7,22,2025-04-22T17:01:47.683+03:00,767023354.2014439,0,-13.27,100.3636,1,0.4,2025-04-22T17:01:55.525+03:00,120,2,2025-04-22T14:20:19.516+03:00,0.02197104130929222,0
2025-04-22T17:02:34.679+03:00,1745330552.933554,40.95222141235789,29.14026153500561,76.7301,-1,-1,-1,-1,30,17.58926956519938,-9999,38849.71411225,-0.4909820556640625,0.7072906494140625,-0.5066375732421875,38849.70403625,-2.817099639613922,-0.7686622596361671,-0.7862729157757258,0.008386988192796707,0.006758077535778284,-0.001022952725179493,0.001325100660324097,0.001091301441192627,0.004037797451019287,XArbitraryZVertical,-0.3991553021562554,0.2945314087370705,-0.8218782322307944,0.2800753811908865,-0.4911321103572845,0.7077250480651855,-0.5078526139259338,0,0,0,-1,-1,38843.99246366667,unknown,2,2025-04-22T17:02:28.952+03:00,2025-04-21T17:08:51.449+03:00,8997,1.055654,0,0,7505.379,7,22,2025-04-22T17:01:47.683+03:00,767023354.2014439,0,-13.27,100.3636,1,0.4,2025-04-22T17:01:55.525+03:00,120,2,2025-04-22T14:20:19.516+03:00,0.02197104130929222,0
2025-04-22T17:02:34.689+03:00,1745330552.933554,40.95222141235789,29.14026153500561,76.7301,-1,-1,-1,-1,30,17.58926956519938,-9999,38849.72418725,-0.488311767578125,0.706878662109375,-0.507415771484375,38849.71411225,-2.817056836810664,-0.7685811598080425,-0.7862318116873157,0.007107738871127367,0.005851670634001493,0.0005903236451558769,0.00060233473777771,-0.000985264778137207,0.002999961376190186,XArbitraryZVertical,-0.3991283071934478,0.2945163071575201,-0.8218969981529034,0.2800751941409057,-0.4911112785339355,0.7076960206031799,-0.5079134702682495,0,0,0,-1,-1,38843.99246366667,unknown,2,2025-04-22T17:02:28.952+03:00,2025-04-21T17:08:51.449+03:00,8997,1.055654,0,0,7505.379,7,22,2025-04-22T17:01:47.683+03:00,767023354.2014439,0,-13.27,100.3636,1,0.4,2025-04-22T17:01:55.525+03:00,120,2,2025-04-22T14:20:19.516+03:00,0.02197104130929222,0
2025-04-22T17:02:34.699+03:00,1745330552.933554,40.95222141235789,29.14026153500561,76.7301,-1,-1,-1,-1,30,17.58926956519938,-9999,38849.73426325,-0.4875335693359375,0.70758056640625,-0.505950927734375,38849.72418725,-2.816987212443662,-0.7685035028549109,-0.7861893753358993,0.006194541230797768,0.004606909118592739,0.0001421136548742652,6.48796558380127e-05,-0.001031637191772461,0.000679314136505127,XArbitraryZVertical,-0.3991067567405922,0.2944949333179948,-0.8219111528614629,0.2800863265763146,-0.4910925924777985,0.7076660394668579,-0.5079730749130249,0,0,0,-1,-1,38843.99246366667,unknown,2,2025-04-22T17:02:28.952+03:00,2025-04-21T17:08:51.449+03:00,8997,1.055654,0,0,7505.379,7,22,2025-04-22T17:01:47.683+03:00,767023354.2014439,0,-13.27,100.3636,1,0.4,2025-04-22T17:01:55.525+03:00,120,2,2025-04-22T14:20:19.516+03:00,0.02197104130929222,0
2025-04-22T17:02:34.709+03:00,1745330552.933554,40.95222141235789,29.14026153500561,76.7301,-1,-1,-1,-1,30,17.58926956519938,-9999,38849.74433925,-0.48431396484375,0.7095794677734375,-0.5032806396484375,38849.73426325,-2.816892440928202,-0.7684144161226124,-0.7861706577313526,0.008846383541822433,0.004161762073636055,0.006416054908186197,0.002744942903518677,-0.0008352994918823242,0.0006715059280395508,XArbitraryZVertical,-0.3990841188613153,0.2944803502638272,-0.8219195281782876,0.2801094988153515,-0.4910565614700317,0.7076528072357178,-0.5080263614654541,0,0,0,-1,-1,38843.99246366667,unknown,2,2025-04-22T17:02:28.952+03:00,2025-04-21T17:08:51.449+03:00,8997,1.055654,0,0,7505.379,7,22,2025-04-22T17:01:47.683+03:00,767023354.2014439,0,-13.27,100.3636,1,0.4,2025-04-22T17:01:55.525+03:00,120,2,2025-04-22T14:20:19.516+03:00,0.02197104130929222,0
2025-04-22T17:02:34.719+03:00,1745330552.933554,40.95222141235789,29.14026153500561,76.7301,-1,-1,-1,-1,30,17.58926956519938,-9999,38849.75441425,-0.4852752685546875,0.709442138671875,-0.5014801025390625,38849.74433925,-2.816741633873819,-0.7682717174486657,-0.7861354082335027,0.01049301587045193,0.00557323731482029,0.006123107392340899,0.003986775875091553,-0.0003526210784912109,0.002346456050872803,XArbitraryZVertical,-0.3990477385719616,0.294454947428232,-0.8219340241540327,0.2801454543409511,-0.4910013973712921,0.7076278924942017,-0.5081143975257874,0,0,0,-1,-1,38843.99246366667,unknown,2,2025-04-22T17:02:28.952+03:00,2025-04-21T17:08:51.449+03:00,8997,1.055654,0,0,7505.379,7,22,2025-04-22T17:01:47.683+03:00,767023354.2014439,0,-13.27,100.3636,1,0.4,2025-04-22T17:01:55.525+03:00,120,2,2025-04-22T14:20:19.516+03:00,0.02197104130929222,0
2025-04-22T17:02:34.729+03:00,1745330552.933554,40.95222141235789,29.14026153500561,76.7301,-1,-1,-1,-1,30,17.58926956519938,-9999,38849.76449025,-0.486602783203125,0.704620361328125,-0.5016326904296875,38849.75441425,-2.816580077271567,-0.768105373964209,-0.7861114318585962,0.003282374469563365,0.005280422512441874,0.00868540070950985,0.007286310195922852,0.001983702182769775,0.004332423210144043,XArbitraryZVertical,-0.3990031743478125,0.2944355644276839,-0.8219495835991319,0.2801839602501411,-0.4909287393093109,0.7076109647750854,-0.5082083344459534,0,0,0,-1,-1,38843.99246366667,unknown,2,2025-04-22T17:02:28.952+03:00,2025-04-21T17:08:51.449+03:00,8997,1.055654,0,0,7505.379,7,22,2025-04-22T17:01:47.683+03:00,767023354.2014439,0,-13.27,100.3636,1,0.4,2025-04-22T17:01:55.525+03:00,120,2,2025-04-22T14:20:19.516+03:00,0.02197104130929222,0
2025-04-22T17:02:34.739+03:00,1745330552.933554,40.95222141235789,29.14026153500561,76.7301,-1,-1,-1,-1,30,17.58926956519938,-9999,38849.77456625,-0.4861297607421875,0.7034149169921875,-0.5035858154296875,38849.76449025,-2.816454242975717,-0.7679691329393175,-0.7861189737635512,0.00227303639985621,0.00605620164424181,0.006811334751546383,0.004604041576385498,0.00101703405380249,0.006806373596191406,XArbitraryZVertical,-0.3989657072085034,0.2944328431367794,-0.8219575395195645,0.2802166861819938,-0.4908557534217834,0.7076162695884705,-0.508271336555481,0,0,0,-1,-1,38843.99246366667,unknown,2,2025-04-22T17:02:28.952+03:00,2025-04-21T17:08:51.449+03:00,8997,1.055654,0,0,7505.379,7,22,2025-04-22T17:01:47.683+03:00,767023354.2014439,0,-13.27,100.3636,1,0.4,2025-04-22T17:01:55.525+03:00,120,2,2025-04-22T14:20:19.516+03:00,0.02197104130929222,0
2025-04-22T17:02:34.750+03:00,1745330552.933554,40.95222141235789,29.14026153500561,76.7301,-1,-1,-1,-1,30,17.58926956519938,-9999,38849.78464125,-0.4877166748046875,0.7056427001953125,-0.5047454833984375,38849.77456625,-2.816380126775796,-0.7678788640255273,-0.7861631411050829,0.0008164204773493111,0.00462728226557374,0.006520051509141922,0.004505932331085205,-0.003393471240997314,0.006965517997741699,XArbitraryZVertical,-0.3989394533210473,0.2944498814302475,-0.8219561939857117,0.2802401286471156,-0.4907881617546082,0.7076475024223328,-0.5082931518554688,0,0,0,-1,-1,38843.99246366667,unknown,2,2025-04-22T17:02:28.952+03:00,2025-04-21T17:08:51.449+03:00,8997,1.055654,0,0,7505.379,7,22,2025-04-22T17:01:47.683+03:00,767023354.2014439,0,-13.27,100.3636,1,0.4,2025-04-22T17:01:55.525+03:00,120,2,2025-04-22T14:20:19.516+03:00,0.02197104130929222,0
2025-04-22T17:02:34.769+03:00,1745330552.933554,40.95222141235789,29.14026153500561,76.7301,-1,-1,-1,-1,30,17.58926956519938,-9999,38849.79471725,-0.48870849609375,0.7063446044921875,-0.5038909912109375,38849.78464125,-2.816285450618001,-0.7677906613704948,-0.7861936558995785,0.008487123064696789,0.0005915281362831593,0.00662737712264061,0.004400312900543213,-0.004666268825531006,0.005101144313812256,XArbitraryZVertical,-0.3989171127831791,0.2944566312894726,-0.8219542407765612,0.2802703804205537,-0.4907282888889313,0.7076690793037415,-0.5083208680152893,0,0,0,-1,-1,38843.99246366667,unknown,2,2025-04-22T17:02:28.952+03:00,2025-04-21T17:08:51.449+03:00,8997,1.055654,0,0,7505.379,7,22,2025-04-22T17:01:47.683+03:00,767023354.2014439,0,-13.27,100.3636,1,0.4,2025-04-22T17:01:55.525+03:00,120,2,2025-04-22T14:20:19.516+03:00,0.02197104130929222,0
2025-04-22T17:02:34.772+03:00,1745330552.933554,40.95222141235789,29.14026153500561,76.7301,-1,-1,-1,-1,30,17.58926956519938,-9999,38849.80479325,-0.4897613525390625,0.7083587646484375,-0.50439453125,38849.79471725,-2.816165734333968,-0.7676906496955089,-0.7861858091337964,0.004839990753680468,0.0003143595531582832,0.006823418661952019,0.00203394889831543,-0.001441061496734619,0.003124833106994629,XArbitraryZVertical,-0.3988936380130667,0.2944433474363493,-0.8219590523156916,0.2803037457626769,-0.4906813204288483,0.7076635360717773,-0.5083739757537842,0,0,0,-1,-1,38843.99246366667,unknown,2,2025-04-22T17:02:28.952+03:00,2025-04-21T17:08:51.449+03:00,8997,1.055654,0,0,7505.379,7,22,2025-04-22T17:01:47.683+03:00,767023354.2014439,0,-13.27,100.3636,1,0.4,2025-04-22T17:01:55.525+03:00,120,2,2025-04-22T14:20:19.516+03:00,0.02197104130929222,0
2025-04-22T17:02:34.780+03:00,1745330552.933554,40.95222141235789,29.14026153500561,76.7301,-1,-1,-1,-1,30,17.58926956519938,-9999,38849.81486825,-0.490570068359375,0.70733642578125,-0.5045166015625,38849.80479325,-2.816020877533278,-0.7675806314712964,-0.7861761285136547,0.009368163533508778,0.0003828029148280621,0.008992563933134079,0.001753926277160645,-0.001418948173522949,0.004419684410095215,XArbitraryZVertical,-0.3988697678106141,0.2944256851819151,-0.8219626237926961,0.2803457070444765,-0.4906301200389862,0.7076566815376282,-0.5084328651428223,0,0,0,-1,-1,38843.99246366667,unknown,2,2025-04-22T17:02:28.952+03:00,2025-04-21T17:08:51.449+03:00,8997,1.055654,0,0,7505.379,7,22,2025-04-22T17:01:47.683+03:00,767023354.2014439,0,-13.27,100.3636,1,0.4,2025-04-22T17:01:55.525+03:00,120,2,2025-04-22T14:20:19.516+03:00,0.02197104130929222,0
2025-04-22T17:02:34.790+03:00,1745330552.933554,40.95222141235789,29.14026153500561,76.7301,-1,-1,-1,-1,30,17.58926956519938,-9999,38849.82494425,-0.4894561767578125,0.705902099609375,-0.5049591064453125,38849.81486825,-2.815858346832347,-0.7674665892794575,-0.7861631268539246,0.008536458015441895,-0.0003575556911528111,0.006598647683858871,0.0003290474414825439,0.0005128383636474609,0.003704071044921875,XArbitraryZVertical,-0.3988468317509827,0.2944035958513815,-0.8219652793256066,0.2803938749041893,-0.4905785620212555,0.7076475024223328,-0.5084954500198364,0,0,0,-1,-1,38843.99246366667,unknown,2,2025-04-22T17:02:28.952+03:00,2025-04-21T17:08:51.449+03:00,8997,1.055654,0,0,7505.379,7,22,2025-04-22T17:01:47.683+03:00,767023354.2014439,0,-13.27,100.3636,1,0.4,2025-04-22T17:01:55.525+03:00,120,2,2025-04-22T14:20:19.516+03:00,0.02197104130929222,0
2025-04-22T17:02:34.800+03:00,1745330552.933554,40.95222141235789,29.14026153500561,76.7301,-1,-1,-1,-1,30,17.58926956519938,-9999,38849.83502025,-0.4892578125,0.707183837890625,-0.5067596435546875,38849.82494425,-2.815711328376532,-0.7673794504535922,-0.7861571542945022,0.00962515827268362,-0.001845730468630791,0.007367769256234169,0.0001198351383209229,-0.001054644584655762,0.004619598388671875,XArbitraryZVertical,-0.398832667588063,0.2943839015428096,-0.8219632574341771,0.2804406232955792,-0.4905371963977814,0.7076432704925537,-0.5085412263870239,0,0,0,-1,-1,38843.99246366667,unknown,2,2025-04-22T17:02:28.952+03:00,2025-04-21T17:08:51.449+03:00,8997,1.055654,0,0,7505.379,7,22,2025-04-22T17:01:47.683+03:00,767023354.2014439,0,-13.27,100.3636,1,0.4,2025-04-22T17:01:55.525+03:00,120,2,2025-04-22T14:20:19.516+03:00,0.02197104130929222,0
2025-04-22T17:02:34.810+03:00,1745330552.933554,40.95222141235789,29.14026153500561,76.7301,-1,-1,-1,-1,30,17.58926956519938,-9999,38849.84509525,-0.4880523681640625,0.7078857421875,-0.50604248046875,38849.83502025,-2.815515623670223,-0.7672404591844399,-0.7861522583573708,0.01117112394422293,0.001723171910271049,0.005963350646197796,0.0009517669677734375,-0.001493752002716064,0.002874433994293213,XArbitraryZVertical,-0.3988043721002797,0.2943622702795117,-0.8219644351925178,0.280499897859218,-0.4904688596725464,0.7076398134231567,-0.5086118578910828,0,0,0,-1,-1,38843.99246366667,unknown,2,2025-04-22T17:02:28.952+03:00,2025-04-21T17:08:51.449+03:00,8997,1.055654,0,0,7505.379,7,22,2025-04-22T17:01:47.683+03:00,767023354.2014439,0,-13.27,100.3636,1,0.4,2025-04-22T17:01:55.525+03:00,120,2,2025-04-22T14:20:19.516+03:00,0.02197104130929222,0
2025-04-22T17:02:34.820+03:00,1745330552.933554,40.95222141235789,29.14026153500561,76.7301,-1,-1,-1,-1,30,17.58926956519938,-9999,38849.85517125,-0.4867095947265625,0.708770751953125,-0.505279541015625,38849.84509525,-2.81534614343362,-0.7671184628401228,-0.7861089495571266,0.01497811265289783,-0.0007652859203517437,0.003288738429546356,0.00175023078918457,-0.0004407763481140137,0.0011252760887146,XArbitraryZVertical,-0.398779225889752,0.2943267779457503,-0.8219738028415065,0.2805454595145998,-0.4904280602931976,0.7076091766357422,-0.5086937546730042,0,0,0,-1,-1,38843.99246366667,unknown,2,2025-04-22T17:02:28.952+03:00,2025-04-21T17:08:51.449+03:00,8997,1.055654,0,0,7505.379,7,22,2025-04-22T17:01:47.683+03:00,767023354.2014439,0,-13.27,100.3636,1,0.4,2025-04-22T17:01:55.525+03:00,120,2,2025-04-22T14:20:19.516+03:00,0.02197104130929222,0
2025-04-22T17:02:34.830+03:00,1745330552.933554,40.95222141235789,29.14026153500561,76.7301,-1,-1,-1,-1,30,17.58926956519938,-9999,38849.86524725,-0.48883056640625,0.7080230712890625,-0.5022430419921875,38849.85517125,-2.815155360481648,-0.7669731593924553,-0.7860193340467961,0.01799593865871429,0.001260780729353428,0.003813880262896419,0.002544373273849487,0.0005381107330322266,0.002890229225158691,XArbitraryZVertical,-0.3987476533687714,0.2942701556995031,-0.8219943834462589,0.2805897996200408,-0.4903982579708099,0.7075458765029907,-0.5088107585906982,0,0,0,-1,-1,38843.99246366667,unknown,2,2025-04-22T17:02:28.952+03:00,2025-04-21T17:08:51.449+03:00,8997,1.055654,0,0,7505.379,7,22,2025-04-22T17:01:47.683+03:00,767023354.2014439,0,-13.27,100.3636,1,0.4,2025-04-22T17:01:55.525+03:00,120,2,2025-04-22T14:20:19.516+03:00,0.02197104130929222,0
2025-04-22T17:02:34.840+03:00,1745330552.933554,40.95222141235789,29.14026153500561,76.7301,-1,-1,-1,-1,30,17.58926956519938,-9999,38849.87532225,-0.487060546875,0.7056732177734375,-0.5034027099609375,38849.86524725,-2.814930629938789,-0.7667859532265778,-0.7859071794223345,0.01919862255454063,0.002829116303473711,0.002513458952307701,0.003434896469116211,0.0006478428840637207,0.004320859909057617,XArbitraryZVertical,-0.3987039186466403,0.2942029604374111,-0.8220228218886679,0.2806387300070832,-0.4903579354286194,0.7074666023254395,-0.5089595913887024,0,0,0,-1,-1,38843.99246366667,unknown,2,2025-04-22T17:02:28.952+03:00,2025-04-21T17:08:51.449+03:00,8997,1.055654,0,0,7505.379,7,22,2025-04-22T17:01:47.683+03:00,767023354.2014439,0,-13.27,100.3636,1,0.4,2025-04-22T17:01:55.525+03:00,120,2,2025-04-22T14:20:19.516+03:00,0.02197104130929222,0
2025-04-22T17:02:34.850+03:00,1745330552.933554,40.95222141235789,29.14026153500561,76.7301,-1,-1,-1,-1,30,17.58926956519938,-9999,38849.88539825,-0.4839630126953125,0.7027740478515625,-0.504913330078125,38849.87532225,-2.814732576380435,-0.7666419944562717,-0.7858221671005358,0.01370805036276579,-0.00122308311983943,0.002397378440946341,0.001358658075332642,0.0004028677940368652,0.007044017314910889,XArbitraryZVertical,-0.3986739341642512,0.2941467075844685,-0.8220411700875025,0.2806869310614242,-0.4903264939785004,0.7074065208435059,-0.5090736150741577,0,0,0,-1,-1,38843.99246366667,unknown,2,2025-04-22T17:02:28.952+03:00,2025-04-21T17:08:51.449+03:00,8997,1.055654,0,0,7505.379,7,22,2025-04-22T17:01:47.683+03:00,767023354.2014439,0,-13.27,100.3636,1,0.4,2025-04-22T17:01:55.525+03:00,120,2,2025-04-22T14:20:19.516+03:00,0.02197104130929222,0
2025-04-22T17:02:34.860+03:00,1745330552.933554,40.95222141235789,29.14026153500561,76.7301,-1,-1,-1,-1,30,17.58926956519938,-9999,38849.89547425,-0.4883880615234375,0.701873779296875,-0.507293701171875,38849.88539825,-2.814607607701278,-0.7665580438292708,-0.7857778877506877,0.00687171658501029,-0.001241991762071848,0.005095959641039371,0.003595918416976929,-0.00231248140335083,0.005383491516113281,XArbitraryZVertical,-0.3986578701950165,0.2941143871714267,-0.8220492452417515,0.280719675468428,-0.4903054237365723,0.7073752284049988,-0.5091372728347778,0,0,0,-1,-1,38843.99246366667,unknown,2,2025-04-22T17:02:28.952+03:00,2025-04-21T17:08:51.449+03:00,8997,1.055654,0,0,7505.379,7,22,2025-04-22T17:01:47.683+03:00,767023354.2014439,0,-13.27,100.3636,1,0.4,2025-04-22T17:01:55.525+03:00,120,2,2025-04-22T14:20:19.516+03:00,0.02197104130929222,0
2025-04-22T17:02:34.871+03:00,1745330552.933554,40.95222141235789,29.14026153500561,76.7301,-1,-1,-1,-1,30,17.58926956519938,-9999,38849.90554925,-0.4886474609375,0.7035064697265625,-0.509735107421875,38849.89547425,-2.814545462365827,-0.7665461524815431,-0.7857656152296411,0.00479351868852973,-0.004486387595534325,0.002459896029904485,0.006479799747467041,-0.005004644393920898,0.004327476024627686,XArbitraryZVertical,-0.39866214105007,0.2940983540655759,-0.8220453392289052,0.2807417304127877,-0.4903053343296051,0.7073665857315063,-0.5091493129730225,0,0,0,-1,-1,38843.99246366667,unknown,2,2025-04-22T17:02:28.952+03:00,2025-04-21T17:08:51.449+03:00,8997,1.055654,0,0,7505.379,7,22,2025-04-22T17:01:47.683+03:00,767023354.2014439,0,-13.27,100.3636,1,0.4,2025-04-22T17:01:55.525+03:00,120,2,2025-04-22T14:20:19.516+03:00,0.02197104130929222,0
2025-04-22T17:02:34.881+03:00,1745330552.933554,40.95222141235789,29.14026153500561,76.7301,-1,-1,-1,-1,30,17.58926956519938,-9999,38849.91562525,-0.4896392822265625,0.705413818359375,-0.5069732666015625,38849.90554925,-2.814487660616601,-0.7665514022946245,-0.7857316418348748,0.01054488122463226,-0.003035231493413448,0.0006095316493883729,0.001540064811706543,-0.004904270172119141,0.001671850681304932,XArbitraryZVertical,-0.3986728226293376,0.2940713298634511,-0.8220431153027629,0.2807614537253296,-0.4903247058391571,0.7073425650596619,-0.5091640949249268,0,0,0,-1,-1,38843.99246366667,unknown,2,2025-04-22T17:02:28.952+03:00,2025-04-21T17:08:51.449+03:00,8997,1.055654,0,0,7505.379,7,22,2025-04-22T17:01:47.683+03:00,767023354.2014439,0,-13.27,100.3636,1,0.4,2025-04-22T17:01:55.525+03:00,120,2,2025-04-22T14:20:19.516+03:00,0.02197104130929222,0
2025-04-22T17:02:34.891+03:00,1745330552.933554,40.95222141235789,29.14026153500561,76.7301,-1,-1,-1,-1,30,17.58926956519938,-9999,38849.92570125,-0.4868621826171875,0.7070770263671875,-0.509063720703125,38849.91562525,-2.814315240405558,-0.7664156385958277,-0.7856612963292678,0.0183000061661005,0.003556359093636274,0.004939165897667408,0.001642733812332153,-0.00409168004989624,3.480911254882812e-05,XArbitraryZVertical,-0.3986424296125031,0.2940254676013923,-0.8220602711806377,0.2808024082408553,-0.4902900755405426,0.7072927951812744,-0.5092664957046509,0,0,0,-1,-1,38843.99246366667,unknown,2,2025-04-22T17:02:28.952+03:00,2025-04-21T17:08:51.449+03:00,8997,1.055654,0,0,7505.379,7,22,2025-04-22T17:01:47.683+03:00,767023354.2014439,0,-13.27,100.3636,1,0.4,2025-04-22T17:01:55.525+03:00,120,2,2025-04-22T14:20:19.516+03:00,0.02197104130929222,0
2025-04-22T17:02:34.901+03:00,1745330552.933554,40.95222141235789,29.14026153500561,76.7301,-1,-1,-1,-1,30,17.58926956519938,-9999,38849.93577625,-0.4788055419921875,0.702117919921875,-0.5133819580078125,38849.92570125,-2.814115535372004,-0.7662807666958105,-0.7855708283488191,0.009811713360249996,-0.003416595980525017,0.001830724184401333,0.0007639229297637939,-0.001067519187927246,0.002664744853973389,XArbitraryZVertical,-0.3986164261182318,0.2939653174254723,-0.8220774670489188,0.2808518684052386,-0.4902657568454742,0.7072288393974304,-0.5093786716461182,0,0,0,-1,-1,38843.99246366667,unknown,2,2025-04-22T17:02:28.952+03:00,2025-04-21T17:08:51.449+03:00,8997,1.055654,0,0,7505.379,7,22,2025-04-22T17:01:47.683+03:00,767023354.2014439,0,-13.27,100.3636,1,0.4,2025-04-22T17:01:55.525+03:00,120,2,2025-04-22T14:20:19.516+03:00,0.02197104130929222,0
2025-04-22T17:02:34.911+03:00,1745330552.933554,40.95222141235789,29.14026153500561,76.7301,-1,-1,-1,-1,30,17.58926956519938,-9999,38849.94585225,-0.4764404296875,0.69403076171875,-0.5194244384765625,38849.93577625,-2.81407107649981,-0.7662538047283959,-0.7855899864614847,-0.00536078168079257,0.004509304650127888,0.002367650857195258,0.003945112228393555,-0.0003028512001037598,5.888938903808594e-05,XArbitraryZVertical,-0.3986118599094056,0.2939685567990496,-0.8220727262222124,0.280868890596713,-0.4902426302433014,0.7072424292564392,-0.5093821287155151,0,0,0,-1,-1,38843.99246366667,unknown,2,2025-04-22T17:02:28.952+03:00,2025-04-21T17:08:51.449+03:00,8997,1.055654,0,0,7505.379,7,22,2025-04-22T17:01:47.683+03:00,767023354.2014439,0,-13.27,100.3636,1,0.4,2025-04-22T17:01:55.525+03:00,120,2,2025-04-22T14:20:19.516+03:00,0.02197104130929222,0
2025-04-22T17:02:34.921+03:00,1745330552.933554,40.95222141235789,29.14026153500561,76.7301,-1,-1,-1,-1,30,17.58926956519938,-9999,38849.95592825,-0.478668212890625,0.6912078857421875,-0.5204620361328125,38849.94585225,-2.814192056314292,-0.7662715208835194,-0.7857300912023089,-0.02159461379051208,0.006885909475386143,0.004828943870961666,0.01282712817192078,-0.006658017635345459,-0.005148112773895264,XArbitraryZVertical,-0.3986012576987622,0.2940510488607512,-0.8220576623740454,0.2808415811745713,-0.4901829063892365,0.7073414325714111,-0.509302020072937,0,0,0,-1,-1,38843.99246366667,unknown,2,2025-04-22T17:02:28.952+03:00,2025-04-21T17:08:51.449+03:00,8997,1.055654,0,0,7505.379,7,22,2025-04-22T17:01:47.683+03:00,767023354.2014439,0,-13.27,100.3636,1,0.4,2025-04-22T17:01:55.525+03:00,120,2,2025-04-22T14:20:19.516+03:00,0.02197104130929222,0
2025-04-22T17:02:34.931+03:00,1745330552.933554,40.95222141235789,29.14026153500561,76.7301,-1,-1,-1,-1,30,17.58926956519938,-9999,38849.96600425,-0.47747802734375,0.69244384765625,-0.5214080810546875,38849.95592825,-2.814431031228533,-0.7663645525268404,-0.7859694482335784,-0.03434456512331963,0.01223613321781158,0.002238987013697624,0.0132758617401123,-0.01433449983596802,-0.01076304912567139,XArbitraryZVertical,-0.3986041397485984,0.2941895507918241,-0.8220240891948666,0.2807908997368289,-0.4901129007339478,0.7075106501579285,-0.5091344714164734,0,0,0,-1,-1,38843.99246366667,unknown,2,2025-04-22T17:02:28.952+03:00,2025-04-21T17:08:51.449+03:00,8997,1.055654,0,0,7505.379,7,22,2025-04-22T17:01:47.683+03:00,767023354.2014439,0,-13.27,100.3636,1,0.4,2025-04-22T17:01:55.525+03:00,120,2,2025-04-22T14:20:19.516+03:00,0.02197104130929222,0
2025-04-22T17:02:34.941+03:00,1745330552.933554,40.95222141235789,29.14026153500561,76.7301,-1,-1,-1,-1,30,17.58926956519938,-9999,38849.97607925,-0.4763031005859375,0.6904754638671875,-0.5277252197265625,38849.96600425,-2.814815428796865,-0.7664435850802063,-0.7863003940871093,-0.04980368167161942,0.0274217426776886,0.001363605842925608,0.01127687096595764,-0.01693344116210938,-0.01200813055038452,XArbitraryZVertical,-0.3985797578649717,0.2943988104819751,-0.8219949627418535,0.2806913595299883,-0.4899907112121582,0.7077444791793823,-0.508927047252655,0,0,0,-1,-1,38843.99246366667,unknown,2,2025-04-22T17:02:28.952+03:00,2025-04-21T17:08:51.449+03:00,8997,1.055654,0,0,7505.379,7,22,2025-04-22T17:01:47.683+03:00,767023354.2014439,0,-13.27,100.3636,1,0.4,2025-04-22T17:01:55.525+03:00,120,2,2025-04-22T14:20:19.516+03:00,0.02197104130929222,0
2025-04-22T17:02:34.951+03:00,1745330552.933554,40.95222141235789,29.14026153500561,76.7301,-1,-1,-1,-1,30,17.58926956519938,-9999,38849.98615525,-0.4736480712890625,0.6943359375,-0.5323944091796875,38849.97607925,-2.815463747155896,-0.7665459758200803,-0.7867908925054544,-0.08511333167552948,0.0418412983417511,0.0007442210335284472,0.01220205426216125,-0.01554036140441895,-0.01291877031326294,XArbitraryZVertical,-0.3985258122304547,0.294726639912082,-0.8219657823847294,0.2805094050221651,-0.4898019731044769,0.7080909013748169,-0.5086267590522766,0,0,0,-1,-1,38843.99246366667,unknown,2,2025-04-22T17:02:28.952+03:00,2025-04-21T17:08:51.449+03:00,8997,1.055654,0,0,7505.379,7,22,2025-04-22T17:01:47.683+03:00,767023354.2014439,0,-13.27,100.3636,1,0.4,2025-04-22T17:01:55.525+03:00,120,2,2025-04-22T14:20:19.516+03:00,0.02197104130929222,0
2025-04-22T17:02:34.961+03:00,1745330552.933554,40.95222141235789,29.14026153500561,76.7301,-1,-1,-1,-1,30,17.58926956519938,-9999,38849.99623125,-0.47320556640625,0.6893463134765625,-0.5536041259765625,38849.98615525,-2.81669891076112,-0.7668944015346737,-0.7876733497123534,-0.158801406621933,0.06181793287396431,-0.0008667250513099134,0.01377642154693604,-0.01750600337982178,-0.02077227830886841,XArbitraryZVertical,-0.3984855916220043,0.2953070997630577,-0.8218898712601984,0.2801781615110878,-0.4895453453063965,0.7087137699127197,-0.5080059170722961,0,0,0,-1,-1,38843.99246366667,unknown,2,2025-04-22T17:02:28.952+03:00,2025-04-21T17:08:51.449+03:00,8997,1.055654,0,0,7505.379,7,22,2025-04-22T17:01:47.683+03:00,767023354.2014439,0,-13.27,100.3636,1,0.4,2025-04-22T17:01:55.525+03:00,120,2,2025-04-22T14:20:19.516+03:00,0.02197104130929222,0
2025-04-22T17:02:34.971+03:00,1745330552.933554,40.95222141235789,29.14026153500561,76.7301,-1,-1,-1,-1,30,17.58926956519938,-9999,38850.00630625,-0.468597412109375,0.6782073974609375,-0.567535400390625,38849.99623125,-2.818510007741326,-0.7675907669436579,-0.789054188727167,-0.2180888950824738,0.05397925153374672,0.01012590527534485,0.01525059342384338,-0.01472580432891846,-0.02702122926712036,XArbitraryZVertical,-0.3985013114660096,0.2961698629732198,-0.8217235540046356,0.2797327621752904,-0.4892190098762512,0.7096872329711914,-0.5069602131843567,0,0,0,-1,-1,38843.99246366667,unknown,2,2025-04-22T17:02:28.952+03:00,2025-04-21T17:08:51.449+03:00,8997,1.055654,0,0,7505.379,7,22,2025-04-22T17:01:47.683+03:00,767023354.2014439,0,-13.27,100.3636,1,0.4,2025-04-22T17:01:55.525+03:00,120,2,2025-04-22T14:20:19.516+03:00,0.02197104130929222,0
2025-04-22T17:02:34.982+03:00,1745330554.938654,40.95223584039709,29.14030532931736,75.80272,-1,-1,-1,-1,30,28.56743492949551,-9999,38850.01638225,-0.4724273681640625,0.6975555419921875,-0.561737060546875,38850.00630625,-2.820864303711605,-0.7687373091800975,-0.7908747127390604,-0.2625210583209991,0.05229640007019043,0.00748671218752861,0.01557338237762451,-0.0243842601776123,-0.05085086822509766,XArbitraryZVertical,-0.39861829520207,0.2972687235893052,-0.8214531130128186,0.2791944435829964,-0.4889009296894073,0.7109686732292175,-0.5054695010185242,0,0,0,-1,-1,38843.99246366667,unknown,2,2025-04-22T17:02:28.952+03:00,2025-04-21T17:08:51.449+03:00,8997,1.055654,0,0,7505.379,7,22,2025-04-22T17:01:47.683+03:00,767023354.2014439,0,-13.27,100.3636,1,0.4,2025-04-22T17:01:55.525+03:00,120,2,2025-04-22T14:20:19.516+03:00,0.02197104130929222,0
2025-04-22T17:02:34.991+03:00,1745330554.938654,40.95223584039709,29.14030532931736,75.80272,-1,-1,-1,-1,30,28.56743492949551,-9999,38850.02645825,-0.476165771484375,0.7148284912109375,-0.558746337890625,38850.01638225,-2.823372873491516,-0.7700140051924862,-0.7928460571537431,-0.2646848261356354,0.04531525820493698,0.01145205926150084,0.02004817128181458,-0.03318500518798828,-0.06337738037109375,XArbitraryZVertical,-0.3987622177229418,0.2984456731266277,-0.8211462636542188,0.2786353221364471,-0.4885692000389099,0.7123535871505737,-0.5038377642631531,0,0,0,-1,-1,38843.99246366667,unknown,2,2025-04-22T17:02:28.952+03:00,2025-04-21T17:08:51.449+03:00,8997,1.055654,0,0,7505.379,7,22,2025-04-22T17:01:47.683+03:00,767023354.2014439,0,-13.27,100.3636,1,0.4,2025-04-22T17:01:55.525+03:00,120,2,2025-04-22T14:20:19.516+03:00,0.02197104130929222,0
2025-04-22T17:02:35.002+03:00,1745330554.938654,40.95223584039709,29.14030532931736,75.80272,-1,-1,-1,-1,30,28.56743492949551,-9999,38850.03653325,-0.4751739501953125,0.72833251953125,-0.54638671875,38850.02645825,-2.825767768844518,-0.7712245543873264,-0.7948042696852369,-0.2422074824571609,0.05559106543660164,0.01897202804684639,0.01519840955734253,-0.01429426670074463,-0.05908048152923584,XArbitraryZVertical,-0.3988926942122036,0.2996035126328132,-0.8208382559036131,0.2781129837411668,-0.4882055222988129,0.7137265205383301,-0.5022447109222412,0,0,0,-1,-1,38843.99246366667,unknown,2,2025-04-22T17:02:28.952+03:00,2025-04-21T17:08:51.449+03:00,8997,1.055654,0,0,7505.379,7,22,2025-04-22T17:01:47.683+03:00,767023354.2014439,0,-13.27,100.3636,1,0.4,2025-04-22T17:01:55.525+03:00,120,2,2025-04-22T14:20:19.516+03:00,0.02197104130929222,0
2025-04-22T17:02:35.012+03:00,1745330554.938654,40.95223584039709,29.14030532931736,75.80272,-1,-1,-1,-1,30,28.56743492949551,-9999,38850.04660925,-0.4763031005859375,0.7428131103515625,-0.546295166015625,38850.03653325,-2.827596216922898,-0.7719557568241119,-0.7964703078855123,-0.1684339195489883,0.05439050868153572,0.03186186030507088,0.01191252470016479,0.002651989459991455,-0.05699443817138672,XArbitraryZVertical,-0.3989100301000544,0.3005883521622976,-0.820605884059121,0.2777108990931512,-0.4877425134181976,0.7148924469947815,-0.5010348558425903,0,0,0,-1,-1,38843.99246366667,unknown,2,2025-04-22T17:02:28.952+03:00,2025-04-21T17:08:51.449+03:00,8997,1.055654,0,0,7505.379,7,22,2025-04-22T17:01:47.683+03:00,767023354.2014439,0,-13.27,100.3636,1,0.4,2025-04-22T17:01:55.525+03:00,120,2,2025-04-22T14:20:19.516+03:00,0.02197104130929222,0
2025-04-22T17:02:35.021+03:00,1745330554.938654,40.95223584039709,29.14030532931736,75.80272,-1,-1,-1,-1,30,28.56743492949551,-9999,38850.05668525001,-0.46630859375,0.762847900390625,-0.5608367919921875,38850.04660925,-2.828408826457121,-0.7719176786318119,-0.7975694642932813,-0.09097588807344437,0.06387429684400558,0.03622651472687721,0.01178756356239319,0.013541579246521,-0.04456925392150879,XArbitraryZVertical,-0.398766125118503,0.3012317232890949,-0.8205013387135731,0.2775292643432962,-0.4871750473976135,0.7156606316566467,-0.5004900693893433,0,0,0,-1,-1,38843.99246366667,unknown,2,2025-04-22T17:02:28.952+03:00,2025-04-21T17:08:51.449+03:00,8997,1.055654,0,0,7505.379,7,22,2025-04-22T17:01:47.683+03:00,767023354.2014439,0,-13.27,100.3636,1,0.4,2025-04-22T17:01:55.525+03:00,120,2,2025-04-22T14:20:19.516+03:00,0.02197104130929222,0
2025-04-22T17:02:35.032+03:00,1745330554.938654,40.95223584039709,29.14030532931736,75.80272,-1,-1,-1,-1,30,28.56743492949551,-9999,38850.06676025,-0.4627838134765625,0.735748291015625,-0.5674285888671875,38850.05668525001,-2.828319638243121,-0.7710454813365916,-0.7982885830946121,-0.03976502642035484,0.07881635427474976,0.06805521994829178,0.01090052723884583,0.03012937307357788,-0.0470162034034729,XArbitraryZVertical,-0.3984177023529077,0.3016463716631693,-0.8205155903757045,0.2775373465162991,-0.4863795936107635,0.7161626815795898,-0.5005456209182739,0,0,0,-1,-1,38843.99246366667,unknown,2,2025-04-22T17:02:28.952+03:00,2025-04-21T17:08:51.449+03:00,8997,1.055654,0,0,7505.379,7,22,2025-04-22T17:01:47.683+03:00,767023354.2014439,0,-13.27,100.3636,1,0.4,2025-04-22T17:01:55.525+03:00,120,2,2025-04-22T14:20:19.516+03:00,0.02197104130929222,0
2025-04-22T17:02:35.042+03:00,1745330554.938654,40.95223584039709,29.14030532931736,75.80272,-1,-1,-1,-1,30,28.56743492949551,-9999,38850.07683625,-0.45892333984375,0.712860107421875,-0.5838623046875,38850.06676025,-2.828079413234502,-0.7698482206681003,-0.7991139102968479,-0.06964702904224396,0.1094528287649155,0.08205545693635941,0.0207383930683136,0.04458349943161011,-0.05976772308349609,XArbitraryZVertical,-0.3979582010928608,0.3021221291587469,-0.8205514241458536,0.2775730936316145,-0.485368400812149,0.7167384624481201,-0.500702977180481,0,0,0,-1,-1,38843.99246366667,unknown,2,2025-04-22T17:02:28.952+03:00,2025-04-21T17:08:51.449+03:00,8997,1.055654,0,0,7505.379,7,22,2025-04-22T17:01:47.683+03:00,767023354.2014439,0,-13.27,100.3636,1,0.4,2025-04-22T17:01:55.525+03:00,120,2,2025-04-22T14:20:19.516+03:00,0.02197104130929222,0
2025-04-22T17:02:35.052+03:00,1745330554.938654,40.95223584039709,29.14030532931736,75.80272,-1,-1,-1,-1,30,28.56743492949551,-9999,38850.08691225,-0.44720458984375,0.684234619140625,-0.5829925537109375,38850.07683625,-2.827996792911316,-0.7686328581862865,-0.8006036442840997,-0.1700973361730576,0.1000482738018036,0.1167349442839622,0.02083626389503479,0.01444685459136963,-0.06818604469299316,XArbitraryZVertical,-0.3974639014970172,0.3029195467174379,-0.8204759188248352,0.2776354475489879,-0.4840167164802551,0.7177765369415283,-0.5005244016647339,0,0,0,-1,-1,38843.99246366667,unknown,2,2025-04-22T17:02:28.952+03:00,2025-04-21T17:08:51.449+03:00,8997,1.055654,0,0,7505.379,7,22,2025-04-22T17:01:47.683+03:00,767023354.2014439,0,-13.27,100.3636,1,0.4,2025-04-22T17:01:55.525+03:00,120,2,2025-04-22T14:20:19.516+03:00,0.02197104130929222,0
2025-04-22T17:02:35.062+03:00,1745330554.938654,40.95223584039709,29.14030532931736,75.80272,-1,-1,-1,-1,30,28.56743492949551,-9999,38850.09698725,-0.4478912353515625,0.638336181640625,-0.57666015625,38850.08691225,-2.828853802088584,-0.7682064501396741,-0.8031328243587179,-0.2894777953624725,0.08663500100374222,0.1691238433122635,0.02462407946586609,-0.01027631759643555,-0.08500349521636963,XArbitraryZVertical,-0.3971445347411222,0.3042440689076616,-0.8201594839987805,0.2775789295682087,-0.4825402200222015,0.719535231590271,-0.4994235336780548,0,0,0,-1,-1,38843.99246366667,unknown,2,2025-04-22T17:02:28.952+03:00,2025-04-21T17:08:51.449+03:00,8997,1.055654,0,0,7505.379,7,22,2025-04-22T17:01:47.683+03:00,767023354.2014439,0,-13.27,100.3636,1,0.4,2025-04-22T17:01:55.525+03:00,120,2,2025-04-22T14:20:19.516+03:00,0.02197104130929222,0
2025-04-22T17:02:35.072+03:00,1745330554.938654,40.95223584039709,29.14030532931736,75.80272,-1,-1,-1,-1,30,28.56743492949551,-9999,38850.10706325001,-0.451019287109375,0.612884521484375,-0.58026123046875,38850.09698725,-2.830231642772177,-0.7685315504443508,-0.8069450561360086,-0.4229158163070679,0.04382701590657234,0.2143325656652451,0.03395414352416992,-0.04357337951660156,-0.08489304780960083,XArbitraryZVertical,-0.3970437340261967,0.3061221637157354,-0.8195002307790367,0.2776055033189617,-0.4807924628257751,0.7221774458885193,-0.4972909986972809,0,0,0,-1,-1,38843.99246366667,unknown,2,2025-04-22T17:02:28.952+03:00,2025-04-21T17:08:51.449+03:00,8997,1.055654,0,0,7505.379,7,22,2025-04-22T17:01:47.683+03:00,767023354.2014439,0,-13.27,100.3636,1,0.4,2025-04-22T17:01:55.525+03:00,120,2,2025-04-22T14:20:19.516+03:00,0.02197104130929222,0
