loggingTime(txt),locationTimestamp_since1970(s),locationLatitude(WGS84),locationLongitude(WGS84),locationAltitude(m),locationSpeed(m/s),locationSpeedAccuracy(m/s),locationCourse(°),locationCourseAccuracy(°),locationVerticalAccuracy(m),locationHorizontalAccuracy(m),locationFloor(Z),accelerometerTimestamp_sinceReboot(s),accelerometerAccelerationX(G),accelerometerAccelerationY(G),accelerometerAccelerationZ(G),motionTimestamp_sinceReboot(s),motionYaw(rad),motionRoll(rad),motionPitch(rad),motionRotationRateX(rad/s),motionRotationRateY(rad/s),motionRotationRateZ(rad/s),motionUserAccelerationX(G),motionUserAccelerationY(G),motionUserAccelerationZ(G),motionAttitudeReferenceFrame(txt),motionQuaternionX(R),motionQuaternionY(R),motionQuaternionZ(R),motionQuaternionW(R),motionGravityX(G),motionGravityY(G),motionGravityZ(G),motionMagneticFieldX(µT),motionMagneticFieldY(µT),motionMagneticFieldZ(µT),motionHeading(°),motionMagneticFieldCalibrationAccuracy(Z),activityTimestamp_sinceReboot(s),activity(txt),activityActivityConfidence(Z),activityActivityStartDate(txt),pedometerStartDate(txt),pedometerNumberofSteps(N),pedometerAverageActivePace(s/m),pedometerCurrentPace(s/m),pedometerCurrentCadence(steps/s),pedometerDistance(m),pedometerFloorAscended(N),pedometerFloorDescended(N),pedometerEndDate(txt),altimeterTimestamp_sinceReboot(s),altimeterReset(bool),altimeterRelativeAltitude(m),altimeterPressure(kPa),batteryState(N),batteryLevel(R),heartRateBPMTimestamp(txt),heartRateBPM(N),heartRateBPS(R),heartRateVariabilityTimestamp(txt),heartRateVariability(ms),label
2025-04-22T11:29:47.782+03:00,1745310587.030363,40.95228072708613,29.14030476268771,76.52575,-1,-1,-1,-1,30,32.49985521160348,-9999,28631.328,-0.705352783203125,0.638671875,-0.30712890625,28631.317923,-1.186823228604699,-1.148240482091232,-0.6879485541788366,0.002151780296117067,0.02870716899633408,-0.02583172731101513,0.0001165270805358887,-0.01152551174163818,0.001845300197601318,XArbitraryZVertical,-0.5206584379239196,-0.2655299513316593,-0.2901953954610322,0.7577566745290419,-0.7045995593070984,0.6349536776542664,-0.3168172836303711,0,0,0,-1,-1,28619.49941625,unknown,2,2025-04-22T11:29:35.925+03:00,2025-04-21T17:08:51.449+03:00,7169,0.952456,0,0,5985.539,5,20,2025-04-22T11:27:03.726+03:00,767003386.3442003,0,-21.23,100.4574,1,0.9,2025-04-22T11:28:21.440+03:00,82,1.366666666666667,2025-04-22T09:54:17.825+03:00,0.02225348692287972,0
2025-04-22T11:29:47.783+03:00,1745310587.030363,40.95228072708613,29.14030476268771,76.52575,-1,-1,-1,-1,30,32.49985521160348,-9999,28631.338077,-0.68939208984375,0.635040283203125,-0.3061370849609375,28631.328,-1.186921112053135,-1.148101134220187,-0.6877271621816307,-0.001796888536773622,0.01930540986359119,-0.0205119289457798,0.02968055009841919,-0.01979255676269531,0.02295142412185669,XArbitraryZVertical,-0.5205899852230137,-0.2655174254052016,-0.290333210951662,0.7577553336312297,-0.7046836018562317,0.634782612323761,-0.3169731199741364,0,0,0,-1,-1,28619.49941625,unknown,2,2025-04-22T11:29:35.925+03:00,2025-04-21T17:08:51.449+03:00,7169,0.952456,0,0,5985.539,5,20,2025-04-22T11:27:03.726+03:00,767003386.3442003,0,-21.23,100.4574,1,0.9,2025-04-22T11:28:21.440+03:00,82,1.366666666666667,2025-04-22T09:54:17.825+03:00,0.02225348692287972,0
2025-04-22T11:29:47.784+03:00,1745310587.030363,40.95228072708613,29.14030476268771,76.52575,-1,-1,-1,-1,30,32.49985521160348,-9999,28631.348153,-0.686981201171875,0.6325531005859375,-0.3064117431640625,28631.338077,-1.187105938493257,-1.147995788134965,-0.6875830034289955,-0.01278429199010134,0.02284448593854904,-0.01761867105960846,-0.002343356609344482,0.004916012287139893,0.008521616458892822,XArbitraryZVertical,-0.5205593590761827,-0.2654722157707105,-0.2904726194921727,0.7577387975641555,-0.704733669757843,0.6346712112426758,-0.3170849084854126,0,0,0,-1,-1,28619.49941625,unknown,2,2025-04-22T11:29:35.925+03:00,2025-04-21T17:08:51.449+03:00,7169,0.952456,0,0,5985.539,5,20,2025-04-22T11:27:03.726+03:00,767003386.3442003,0,-21.23,100.4574,1,0.9,2025-04-22T11:28:21.440+03:00,82,1.366666666666667,2025-04-22T09:54:17.825+03:00,0.02225348692287972,0
2025-04-22T11:29:47.789+03:00,1745310587.030363,40.95228072708613,29.14030476268771,76.52575,-1,-1,-1,-1,30,32.49985521160348,-9999,28631.35823,-0.6893768310546875,0.630523681640625,-0.3135986328125,28631.348153,-1.187409666776809,-1.14801543120911,-0.6874852500645484,-0.01865389943122864,0.01688406430184841,-0.01952110230922699,0.01741856336593628,-0.0008983612060546875,0.01106616854667664,XArbitraryZVertical,-0.5205755085061727,-0.2654296232208923,-0.2906110177872942,0.7576895317786118,-0.7047964334487915,0.6345956921577454,-0.3170965015888214,0,0,0,-1,-1,28619.49941625,unknown,2,2025-04-22T11:29:35.925+03:00,2025-04-21T17:08:51.449+03:00,7169,0.952456,0,0,5985.539,5,20,2025-04-22T11:27:03.726+03:00,767003386.3442003,0,-21.23,100.4574,1,0.9,2025-04-22T11:28:21.440+03:00,82,1.366666666666667,2025-04-22T09:54:17.825+03:00,0.02225348692287972,0
2025-04-22T11:29:47.798+03:00,1745310587.030363,40.95228072708613,29.14030476268771,76.52575,-1,-1,-1,-1,30,32.49985521160348,-9999,28631.368307,-0.690338134765625,0.63885498046875,-0.3167572021484375,28631.35823,-1.187759149010558,-1.148127702652698,-0.6873567041828195,-0.01837692968547344,0.01154788862913847,-0.02040180936455727,0.0171164870262146,-0.001943349838256836,0.009189426898956299,XArbitraryZVertical,-0.5206026818336853,-0.2654193567586127,-0.2907515905811749,0.7576205014962692,-0.7049064040184021,0.6344963312149048,-0.3170508146286011,0,0,0,-1,-1,28619.49941625,unknown,2,2025-04-22T11:29:35.925+03:00,2025-04-21T17:08:51.449+03:00,7169,0.952456,0,0,5985.539,5,20,2025-04-22T11:27:03.726+03:00,767003386.3442003,0,-21.23,100.4574,1,0.9,2025-04-22T11:28:21.440+03:00,82,1.366666666666667,2025-04-22T09:54:17.825+03:00,0.02225348692287972,0
2025-04-22T11:29:47.808+03:00,1745310587.030363,40.95228072708613,29.14030476268771,76.52575,-1,-1,-1,-1,30,32.49985521160348,-9999,28631.378383,-0.6913299560546875,0.63958740234375,-0.312103271484375,28631.368307,-1.188048677235889,-1.14819486209219,-0.6872806477593747,-0.01954858936369419,0.006685888394713402,-0.01873992942273617,0.01553386449813843,-0.003074824810028076,0.002097100019454956,XArbitraryZVertical,-0.520629859135797,-0.265392011929623,-0.2908659061642623,0.7575674962814133,-0.7049716711044312,0.6344375610351562,-0.3170232474803925,0,0,0,-1,-1,28619.49941625,unknown,2,2025-04-22T11:29:35.925+03:00,2025-04-21T17:08:51.449+03:00,7169,0.952456,0,0,5985.539,5,20,2025-04-22T11:27:03.726+03:00,767003386.3442003,0,-21.23,100.4574,1,0.9,2025-04-22T11:28:21.440+03:00,82,1.366666666666667,2025-04-22T09:54:17.825+03:00,0.02225348692287972,0
2025-04-22T11:29:47.818+03:00,1745310587.030363,40.95228072708613,29.14030476268771,76.52575,-1,-1,-1,-1,30,32.49985521160348,-9999,28631.38846,-0.6890869140625,0.6368255615234375,-0.3133392333984375,28631.378383,-1.188402979488638,-1.148364073025855,-0.6872413357390885,-0.02164236642420292,0.0008714091964066029,-0.01913807168602943,0.0136723518371582,0.005393743515014648,0.0009199380874633789,XArbitraryZVertical,-0.5206905973812779,-0.265375566454516,-0.2909675138734651,0.7574925450957299,-0.705048143863678,0.6344071626663208,-0.3169142305850983,0,0,0,-1,-1,28619.49941625,unknown,2,2025-04-22T11:29:35.925+03:00,2025-04-21T17:08:51.449+03:00,7169,0.952456,0,0,5985.539,5,20,2025-04-22T11:27:03.726+03:00,767003386.3442003,0,-21.23,100.4574,1,0.9,2025-04-22T11:28:21.440+03:00,82,1.366666666666667,2025-04-22T09:54:17.825+03:00,0.02225348692287972,0
2025-04-22T11:29:47.828+03:00,1745310587.030363,40.95228072708613,29.14030476268771,76.52575,-1,-1,-1,-1,30,32.49985521160348,-9999,28631.398537,-0.693115234375,0.636962890625,-0.3170166015625,28631.38846,-1.188759349954888,-1.148563397035106,-0.6871546891838566,-0.02161453478038311,0.001951453974470496,-0.01760043017566204,0.01445704698562622,0.004499375820159912,0.004433512687683105,XArbitraryZVertical,-0.5207429600879822,-0.2653840086028888,-0.2910757967231835,0.7574119650791989,-0.7051613926887512,0.6343401670455933,-0.3167961835861206,0,0,0,-1,-1,28619.49941625,unknown,2,2025-04-22T11:29:35.925+03:00,2025-04-21T17:08:51.449+03:00,7169,0.952456,0,0,5985.539,5,20,2025-04-22T11:27:03.726+03:00,767003386.3442003,0,-21.23,100.4574,1,0.9,2025-04-22T11:28:21.440+03:00,82,1.366666666666667,2025-04-22T09:54:17.825+03:00,0.02225348692287972,0
2025-04-22T11:29:47.839+03:00,1745310587.030363,40.95228072708613,29.14030476268771,76.52575,-1,-1,-1,-1,30,32.49985521160348,-9999,28631.408613,-0.6952056884765625,0.6385955810546875,-0.315155029296875,28631.398537,-1.189125105162105,-1.148795568446877,-0.6870809509940425,-0.02378740720450878,-0.001401732210069895,-0.01640094071626663,0.01574814319610596,0.001886129379272461,0.002076387405395508,XArbitraryZVertical,-0.5208049385583151,-0.2653985909751888,-0.2911753001358038,0.7573259573333988,-0.7052775621414185,0.634283185005188,-0.3166516125202179,0,0,0,-1,-1,28619.49941625,unknown,2,2025-04-22T11:29:35.925+03:00,2025-04-21T17:08:51.449+03:00,7169,0.952456,0,0,5985.539,5,20,2025-04-22T11:27:03.726+03:00,767003386.3442003,0,-21.23,100.4574,1,0.9,2025-04-22T11:28:21.440+03:00,82,1.366666666666667,2025-04-22T09:54:17.825+03:00,0.02225348692287972,0
2025-04-22T11:29:47.849+03:00,1745310587.030363,40.95228072708613,29.14030476268771,76.52575,-1,-1,-1,-1,30,32.49985521160348,-9999,28631.41869,-0.6955413818359375,0.63983154296875,-0.3139190673828125,28631.408613,-1.189517425602062,-1.149059806674008,-0.6870408495247672,-0.02440765872597694,-0.002018253784626722,-0.01689282804727554,0.01243704557418823,0.003061532974243164,-0.0009834766387939453,XArbitraryZVertical,-0.5208843927160408,-0.2654084006834865,-0.2912667172465951,0.7572327409172473,-0.7053844332695007,0.6342521905899048,-0.3164756596088409,0,0,0,-1,-1,28619.49941625,unknown,2,2025-04-22T11:29:35.925+03:00,2025-04-21T17:08:51.449+03:00,7169,0.952456,0,0,5985.539,5,20,2025-04-22T11:27:03.726+03:00,767003386.3442003,0,-21.23,100.4574,1,0.9,2025-04-22T11:28:21.440+03:00,82,1.366666666666667,2025-04-22T09:54:17.825+03:00,0.02225348692287972,0
2025-04-22T11:29:47.859+03:00,1745310587.030363,40.95228072708613,29.14030476268771,76.52575,-1,-1,-1,-1,30,32.49985521160348,-9999,28631.428766,-0.6959991455078125,0.639068603515625,-0.3191070556640625,28631.41869,-1.189919376775998,-1.149327559323507,-0.6869991218565707,-0.02871984802186489,-0.0004049106501042843,-0.01463899482041597,0.009997725486755371,0.00518423318862915,0.0009289383888244629,XArbitraryZVertical,-0.5209652018239167,-0.2654174929454758,-0.2913613138310331,0.7571375981048607,-0.7054933309555054,0.6342198848724365,-0.3162976205348969,0,0,0,-1,-1,28619.49941625,unknown,2,2025-04-22T11:29:35.925+03:00,2025-04-21T17:08:51.449+03:00,7169,0.952456,0,0,5985.539,5,20,2025-04-22T11:27:03.726+03:00,767003386.3442003,0,-21.23,100.4574,1,0.9,2025-04-22T11:28:21.440+03:00,82,1.366666666666667,2025-04-22T09:54:17.825+03:00,0.02225348692287972,0
2025-04-22T11:29:47.869+03:00,1745310587.030363,40.95228072708613,29.14030476268771,76.52575,-1,-1,-1,-1,30,32.49985521160348,-9999,28631.438843,-0.69390869140625,0.6378631591796875,-0.3182220458984375,28631.428766,-1.190289047446085,-1.149571313486845,-0.6869913555856302,-0.02521299757063389,-0.003243308048695326,-0.01174373924732208,0.009774088859558105,0.005297064781188965,0.002132236957550049,XArbitraryZVertical,-0.5210476490670536,-0.2654157603491298,-0.2914400007855039,0.7570511449221384,-0.7055748701095581,0.634213924407959,-0.3161276578903198,0,0,0,-1,-1,28619.49941625,unknown,2,2025-04-22T11:29:35.925+03:00,2025-04-21T17:08:51.449+03:00,7169,0.952456,0,0,5985.539,5,20,2025-04-22T11:27:03.726+03:00,767003386.3442003,0,-21.23,100.4574,1,0.9,2025-04-22T11:28:21.440+03:00,82,1.366666666666667,2025-04-22T09:54:17.825+03:00,0.02225348692287972,0
2025-04-22T11:29:47.879+03:00,1745310587.030363,40.95228072708613,29.14030476268771,76.52575,-1,-1,-1,-1,30,32.49985521160348,-9999,28631.44892,-0.6974334716796875,0.6383819580078125,-0.3146514892578125,28631.438843,-1.190627571985687,-1.149820479147861,-0.6870098178740885,-0.01936762593686581,-0.005117107648402452,-0.008651542477309704,0.0102388858795166,0.004550337791442871,-0.003694117069244385,XArbitraryZVertical,-0.5211339747642381,-0.2654163830469163,-0.2914978420354086,0.7569692419951147,-0.7056429386138916,0.6342281699180603,-0.3159470558166504,0,0,0,-1,-1,28619.49941625,unknown,2,2025-04-22T11:29:35.925+03:00,2025-04-21T17:08:51.449+03:00,7169,0.952456,0,0,5985.539,5,20,2025-04-22T11:27:03.726+03:00,767003386.3442003,0,-21.23,100.4574,1,0.9,2025-04-22T11:28:21.440+03:00,82,1.366666666666667,2025-04-22T09:54:17.825+03:00,0.02225348692287972,0
2025-04-22T11:29:47.889+03:00,1745310587.030363,40.95228072708613,29.14030476268771,76.52575,-1,-1,-1,-1,30,32.49985521160348,-9999,28631.458996,-0.69610595703125,0.638824462890625,-0.3123779296875,28631.44892,-1.190912034374542,-1.150049196518831,-0.6870356072937478,-0.02260336652398109,-0.006447356659919024,-0.007046987768262625,0.01095235347747803,0.004393100738525391,-0.002015829086303711,XArbitraryZVertical,-0.5212121547244861,-0.2654211645418278,-0.2915384064406683,0.7568981577142488,-0.7057002782821655,0.6342481374740601,-0.3157790005207062,0,0,0,-1,-1,28619.49941625,unknown,2,2025-04-22T11:29:35.925+03:00,2025-04-21T17:08:51.449+03:00,7169,0.952456,0,0,5985.539,5,20,2025-04-22T11:27:03.726+03:00,767003386.3442003,0,-21.23,100.4574,1,0.9,2025-04-22T11:28:21.440+03:00,82,1.366666666666667,2025-04-22T09:54:17.825+03:00,0.02225348692287972,0
2025-04-22T11:29:47.899+03:00,1745310587.030363,40.95228072708613,29.14030476268771,76.52575,-1,-1,-1,-1,30,32.49985521160348,-9999,28631.469073,-0.69549560546875,0.63671875,-0.3130645751953125,28631.458996,-1.191214031561404,-1.150289802733772,-0.687096324397411,-0.02610036358237267,-0.004030005540698767,-0.007665373850613832,0.008414387702941895,0.003842532634735107,0.00153699517250061,XArbitraryZVertical,-0.5213040762456821,-0.2654154231581696,-0.2915722734498352,0.7568237486897699,-0.7057410478591919,0.6342950463294983,-0.315593421459198,0,0,0,-1,-1,28619.49941625,unknown,2,2025-04-22T11:29:35.925+03:00,2025-04-21T17:08:51.449+03:00,7169,0.952456,0,0,5985.539,5,20,2025-04-22T11:27:03.726+03:00,767003386.3442003,0,-21.23,100.4574,1,0.9,2025-04-22T11:28:21.440+03:00,82,1.366666666666667,2025-04-22T09:54:17.825+03:00,0.02225348692287972,0
2025-04-22T11:29:47.909+03:00,1745310587.030363,40.95228072708613,29.14030476268771,76.52575,-1,-1,-1,-1,30,32.49985521160348,-9999,28631.47915,-0.69549560546875,0.634765625,-0.3137969970703125,28631.469073,-1.191540642279296,-1.150542677795913,-0.6871746045682406,-0.02585954777896404,-0.007620945572853088,-0.0051627685315907,0.00976109504699707,0.003949880599975586,0.002970904111862183,XArbitraryZVertical,-0.5214058642665532,-0.2654026777633893,-0.2916071350735875,0.7567446518643183,-0.7057754397392273,0.6343555450439453,-0.3153946995735168,0,0,0,-1,-1,28619.49941625,unknown,2,2025-04-22T11:29:35.925+03:00,2025-04-21T17:08:51.449+03:00,7169,0.952456,0,0,5985.539,5,20,2025-04-22T11:27:03.726+03:00,767003386.3442003,0,-21.23,100.4574,1,0.9,2025-04-22T11:28:21.440+03:00,82,1.366666666666667,2025-04-22T09:54:17.825+03:00,0.02225348692287972,0
2025-04-22T11:29:47.919+03:00,1745310587.030363,40.95228072708613,29.14030476268771,76.52575,-1,-1,-1,-1,30,32.49985521160348,-9999,28631.489226,-0.6953887939453125,0.6364593505859375,-0.3123626708984375,28631.47915,-1.191869526828981,-1.150834689815904,-0.6872708326466848,-0.02716343104839325,-0.01152354199439287,-0.003628254635259509,0.01042306423187256,0.002044439315795898,0.001351386308670044,XArbitraryZVertical,-0.5215185945119518,-0.2653987791916267,-0.2916273976919063,0.756660523489786,-0.7058117985725403,0.634429931640625,-0.3151637017726898,0,0,0,-1,-1,28619.49941625,unknown,2,2025-04-22T11:29:35.925+03:00,2025-04-21T17:08:51.449+03:00,7169,0.952456,0,0,5985.539,5,20,2025-04-22T11:27:03.726+03:00,767003386.3442003,0,-21.23,100.4574,1,0.9,2025-04-22T11:28:21.440+03:00,82,1.366666666666667,2025-04-22T09:54:17.825+03:00,0.02225348692287972,0
2025-04-22T11:29:47.929+03:00,1745310587.030363,40.95228072708613,29.14030476268771,76.52575,-1,-1,-1,-1,30,32.49985521160348,-9999,28631.499303,-0.7002410888671875,0.6360626220703125,-0.308929443359375,28631.489226,-1.192160654528698,-1.151137872137955,-0.687367891322295,-0.02708613313734531,-0.0139437559992075,0.0009432276128791273,0.009684145450592041,0.0004436373710632324,0.001234441995620728,XArbitraryZVertical,-0.5216280977348707,-0.2654087256983309,-0.2916302408439145,0.7565805991830277,-0.7058512568473816,0.6345049738883972,-0.3149246573448181,0,0,0,-1,-1,28619.49941625,unknown,2,2025-04-22T11:29:35.925+03:00,2025-04-21T17:08:51.449+03:00,7169,0.952456,0,0,5985.539,5,20,2025-04-22T11:27:03.726+03:00,767003386.3442003,0,-21.23,100.4574,1,0.9,2025-04-22T11:28:21.440+03:00,82,1.366666666666667,2025-04-22T09:54:17.825+03:00,0.02225348692287972,0
2025-04-22T11:29:47.939+03:00,1745310587.030363,40.95228072708613,29.14030476268771,76.52575,-1,-1,-1,-1,30,32.49985521160348,-9999,28631.509379,-0.6996917724609375,0.63677978515625,-0.311492919921875,28631.499303,-1.192457785265062,-1.151467673321888,-0.6874778943414438,-0.02669278346002102,-0.01511687971651554,-0.003783883294090629,0.01056349277496338,0.001472532749176025,0.00332304835319519,XArbitraryZVertical,-0.5217459072394296,-0.2654232295544974,-0.2916245464189604,0.7564964504151765,-0.7058913111686707,0.6345899701118469,-0.31466343998909,0,0,0,-1,-1,28619.49941625,unknown,2,2025-04-22T11:29:35.925+03:00,2025-04-21T17:08:51.449+03:00,7169,0.952456,0,0,5985.539,5,20,2025-04-22T11:27:03.726+03:00,767003386.3442003,0,-21.23,100.4574,1,0.9,2025-04-22T11:28:21.440+03:00,82,1.366666666666667,2025-04-22T09:54:17.825+03:00,0.02225348692287972,0
2025-04-22T11:29:47.949+03:00,1745310587.030363,40.95228072708613,29.14030476268771,76.52575,-1,-1,-1,-1,30,32.49985521160348,-9999,28631.519456,-0.6989593505859375,0.636016845703125,-0.31573486328125,28631.509379,-1.192756224069288,-1.15182842336615,-0.6875706872213145,-0.02347169071435928,-0.01728096418082714,-0.003703722031787038,0.005648791790008545,0.001263439655303955,0.005623161792755127,XArbitraryZVertical,-0.5218636644747575,-0.2654541785672221,-0.2916162451052971,0.7564075287573434,-0.705950915813446,0.6346617341041565,-0.314384788274765,0,0,0,-1,-1,28619.49941625,unknown,2,2025-04-22T11:29:35.925+03:00,2025-04-21T17:08:51.449+03:00,7169,0.952456,0,0,5985.539,5,20,2025-04-22T11:27:03.726+03:00,767003386.3442003,0,-21.23,100.4574,1,0.9,2025-04-22T11:28:21.440+03:00,82,1.366666666666667,2025-04-22T09:54:17.825+03:00,0.02225348692287972,0
2025-04-22T11:29:47.959+03:00,1745310587.030363,40.95228072708613,29.14030476268771,76.52575,-1,-1,-1,-1,30,32.49985521160348,-9999,28631.529533,-0.701904296875,0.6390838623046875,-0.3169097900390625,28631.519456,-1.193045970232974,-1.152200102731032,-0.6876375402140076,-0.02175341919064522,-0.02147384360432625,-0.006543983705341816,0.006535470485687256,0.001593172550201416,0.002200156450271606,XArbitraryZVertical,-0.5219747456201637,-0.2654991942595722,-0.2916093076087073,0.7563176656905273,-0.7060288786888123,0.634713351726532,-0.3141050934791565,0,0,0,-1,-1,28619.49941625,unknown,2,2025-04-22T11:29:35.925+03:00,2025-04-21T17:08:51.449+03:00,7169,0.952456,0,0,5985.539,5,20,2025-04-22T11:27:03.726+03:00,767003386.3442003,0,-21.23,100.4574,1,0.9,2025-04-22T11:28:21.440+03:00,82,1.366666666666667,2025-04-22T09:54:17.825+03:00,0.02225348692287972,0
2025-04-22T11:29:47.970+03:00,1745310587.030363,40.95228072708613,29.14030476268771,76.52575,-1,-1,-1,-1,30,32.49985521160348,-9999,28631.539609,-0.7027130126953125,0.638458251953125,-0.313812255859375,28631.529533,-1.193358787276425,-1.15259935407099,-0.6876678622176527,-0.02347934804856777,-0.02263651415705681,-0.01155348867177963,0.006673753261566162,0.001737594604492188,-0.002835065126419067,XArbitraryZVertical,-0.5220828327344453,-0.2655594822597189,-0.2916145382536687,0.756219859138183,-0.7061365842819214,0.6347367763519287,-0.3138153553009033,0,0,0,-1,-1,28619.49941625,unknown,2,2025-04-22T11:29:35.925+03:00,2025-04-21T17:08:51.449+03:00,7169,0.952456,0,0,5985.539,5,20,2025-04-22T11:27:03.726+03:00,767003386.3442003,0,-21.23,100.4574,1,0.9,2025-04-22T11:28:21.440+03:00,82,1.366666666666667,2025-04-22T09:54:17.825+03:00,0.02225348692287972,0
2025-04-22T11:29:47.980+03:00,1745310587.030363,40.95228072708613,29.14030476268771,76.52575,-1,-1,-1,-1,30,32.49985521160348,-9999,28631.549686,-0.702911376953125,0.635955810546875,-0.312164306640625,28631.539609,-1.193711813675218,-1.153025569998128,-0.6876608060140543,-0.0229302030056715,-0.01927453838288784,-0.01190662384033203,0.004553258419036865,0.003848791122436523,-0.003210514783859253,XArbitraryZVertical,-0.5221899152306551,-0.2656305703805855,-0.2916388036682608,0.7561116069190562,-0.7062743902206421,0.6347313523292542,-0.3135161995887756,0,0,0,-1,-1,28619.49941625,unknown,2,2025-04-22T11:29:35.925+03:00,2025-04-21T17:08:51.449+03:00,7169,0.952456,0,0,5985.539,5,20,2025-04-22T11:27:03.726+03:00,767003386.3442003,0,-21.23,100.4574,1,0.9,2025-04-22T11:28:21.440+03:00,82,1.366666666666667,2025-04-22T09:54:17.825+03:00,0.02225348692287972,0
2025-04-22T11:29:47.990+03:00,1745310587.030363,40.95228072708613,29.14030476268771,76.52575,-1,-1,-1,-1,30,32.49985521160348,-9999,28631.559763,-0.7009429931640625,0.6309967041015625,-0.310699462890625,28631.549686,-1.194108411526345,-1.153456582463136,-0.6876726706036717,-0.0312582403421402,-0.01774701662361622,-0.01335861254483461,0.00324714183807373,0.003961741924285889,-0.0007714033126831055,XArbitraryZVertical,-0.5223086706425886,-0.2656864405559243,-0.2916727499423014,0.7559969327504317,-0.7064026594161987,0.6347405314445496,-0.3132087290287018,0,0,0,-1,-1,28619.49941625,unknown,2,2025-04-22T11:29:35.925+03:00,2025-04-21T17:08:51.449+03:00,7169,0.952456,0,0,5985.539,5,20,2025-04-22T11:27:03.726+03:00,767003386.3442003,0,-21.23,100.4574,1,0.9,2025-04-22T11:28:21.440+03:00,82,1.366666666666667,2025-04-22T09:54:17.825+03:00,0.02225348692287972,0
2025-04-22T11:29:48.000+03:00,1745310587.030363,40.95228072708613,29.14030476268771,76.52575,-1,-1,-1,-1,30,32.49985521160348,-9999,28631.569839,-0.700286865234375,0.628753662109375,-0.3099517822265625,28631.559763,-1.194565641191923,-1.153925205862396,-0.6877058189652293,-0.03493287041783333,-0.01887060515582561,-0.01410962454974651,0.004015445709228516,0.0003197789192199707,0.0008726119995117188,XArbitraryZVertical,-0.5224468900217687,-0.2657342463908824,-0.29171347739003,0.755868843224732,-0.7065300941467285,0.6347661018371582,-0.3128691017627716,0,0,0,-1,-1,28619.49941625,unknown,2,2025-04-22T11:29:35.925+03:00,2025-04-21T17:08:51.449+03:00,7169,0.952456,0,0,5985.539,5,20,2025-04-22T11:27:03.726+03:00,767003386.3442003,0,-21.23,100.4574,1,0.9,2025-04-22T11:29:46.812+03:00,76,1.266666666666667,2025-04-22T09:54:17.825+03:00,0.02225348692287972,0
2025-04-22T11:29:48.010+03:00,1745310587.030363,40.95228072708613,29.14030476268771,76.52575,-1,-1,-1,-1,30,32.49985521160348,-9999,28631.579916,-0.70037841796875,0.628021240234375,-0.3119049072265625,28631.569839,-1.195082209912844,-1.15441243264888,-0.6877288982057018,-0.04003149271011353,-0.01675978302955627,-0.01508607249706984,0.006565272808074951,-0.004062056541442871,0.001956701278686523,XArbitraryZVertical,-0.5225929381912562,-0.2657765332669015,-0.2917746602117525,0.7557293847363635,-0.7066690325737,0.6347839832305908,-0.3125189244747162,0,0,0,-1,-1,28619.49941625,unknown,2,2025-04-22T11:29:35.925+03:00,2025-04-21T17:08:51.449+03:00,7169,0.952456,0,0,5985.539,5,20,2025-04-22T11:27:03.726+03:00,767003386.3442003,0,-21.23,100.4574,1,0.9,2025-04-22T11:29:46.812+03:00,76,1.266666666666667,2025-04-22T09:54:17.825+03:00,0.02225348692287972,0
2025-04-22T11:29:48.020+03:00,1745310587.030363,40.95228072708613,29.14030476268771,76.52575,-1,-1,-1,-1,30,32.49985521160348,-9999,28631.589993,-0.7046051025390625,0.628509521484375,-0.3119049072265625,28631.579916,-1.195665011342771,-1.154926458563933,-0.6877665786874821,-0.04338600859045982,-0.01283667981624603,-0.01832953654229641,0.006475090980529785,-0.006135821342468262,0.001736372709274292,XArbitraryZVertical,-0.5227556947746598,-0.2658072336763211,-0.2918495506378407,0.755577155921239,-0.7068077921867371,0.6348130702972412,-0.312146008014679,0,0,0,-1,-1,28619.49941625,unknown,2,2025-04-22T11:29:35.925+03:00,2025-04-21T17:08:51.449+03:00,7169,0.952456,0,0,5985.539,5,20,2025-04-22T11:27:03.726+03:00,767003386.3442003,0,-21.23,100.4574,1,0.9,2025-04-22T11:29:46.812+03:00,76,1.266666666666667,2025-04-22T09:54:17.825+03:00,0.02225348692287972,0
2025-04-22T11:29:48.035+03:00,1745310587.030363,40.95228072708613,29.14030476268771,76.52575,-1,-1,-1,-1,30,32.49985521160348,-9999,28631.600069,-0.7052154541015625,0.6290740966796875,-0.3108978271484375,28631.589993,-1.196304641227095,-1.15546930898647,-0.6877954890549198,-0.04796458408236504,-0.01251237373799086,-0.01789813674986362,0.006536126136779785,-0.007378876209259033,-0.000165402889251709,XArbitraryZVertical,-0.5229278690331395,-0.2658364566779727,-0.2919408102706736,0.7554124425990942,-0.7069603204727173,0.634835422039032,-0.3117548525333405,0,0,0,-1,-1,28619.49941625,unknown,2,2025-04-22T11:29:35.925+03:00,2025-04-21T17:08:51.449+03:00,7169,0.952456,0,0,5985.539,5,20,2025-04-22T11:27:03.726+03:00,767003386.3442003,0,-21.23,100.4574,1,0.9,2025-04-22T11:29:46.812+03:00,76,1.266666666666667,2025-04-22T09:54:17.825+03:00,0.02225348692287972,0
2025-04-22T11:29:48.046+03:00,1745310587.030363,40.95228072708613,29.14030476268771,76.52575,-1,-1,-1,-1,30,32.49985521160348,-9999,28631.610146,-0.7039031982421875,0.6287078857421875,-0.3082122802734375,28631.600069,-1.19698761613754,-1.156012752244185,-0.6878300864757108,-0.04992786422371864,-0.01050381828099489,-0.01990163326263428,0.002504408359527588,-0.006749510765075684,-0.0003906488418579102,XArbitraryZVertical,-0.5231074766575995,-0.2658527695041145,-0.2920465217633259,0.75524145259798,-0.7071095108985901,0.6348621249198914,-0.3113617599010468,0,0,0,-1,-1,28619.49941625,unknown,2,2025-04-22T11:29:35.925+03:00,2025-04-21T17:08:51.449+03:00,7169,0.952456,0,0,5985.539,5,20,2025-04-22T11:27:03.726+03:00,767003386.3442003,0,-21.23,100.4574,1,0.9,2025-04-22T11:29:46.812+03:00,76,1.266666666666667,2025-04-22T09:54:17.825+03:00,0.02225348692287972,0
2025-04-22T11:29:48.051+03:00,1745310587.030363,40.95228072708613,29.14030476268771,76.52575,-1,-1,-1,-1,30,32.49985521160348,-9999,28631.620222,-0.70745849609375,0.631011962890625,-0.3054046630859375,28631.610146,-1.197721129397736,-1.156532930636558,-0.6878596054375655,-0.0552503913640976,-0.001786159351468086,-0.02181960828602314,0.002420246601104736,-0.006451904773712158,0.0004088878631591797,XArbitraryZVertical,-0.5232890195593748,-0.2658484986062439,-0.292178792313858,0.7550660453506761,-0.7072542309761047,0.6348849534988403,-0.3109863698482513,0,0,0,-1,-1,28619.49941625,unknown,2,2025-04-22T11:29:35.925+03:00,2025-04-21T17:08:51.449+03:00,7169,0.952456,0,0,5985.539,5,20,2025-04-22T11:27:03.726+03:00,767003386.3442003,0,-21.23,100.4574,1,0.9,2025-04-22T11:29:46.812+03:00,76,1.266666666666667,2025-04-22T09:54:17.825+03:00,0.02225348692287972,0
2025-04-22T11:29:48.061+03:00,1745310587.030363,40.95228072708613,29.14030476268771,76.52575,-1,-1,-1,-1,30,32.49985521160348,-9999,28631.630299,-0.7099456787109375,0.6288909912109375,-0.303619384765625,28631.620222,-1.198547860802327,-1.157064346070494,-0.6879070234901961,-0.06414002925157547,-0.001149397343397141,-0.02356797456741333,0.003397047519683838,-0.005481481552124023,0.002706438302993774,XArbitraryZVertical,-0.5234895689403924,-0.2658185702671021,-0.2923379207661325,0.7548758681879729,-0.7073917388916016,0.6349216103553772,-0.3105983138084412,0,0,0,-1,-1,28619.49941625,unknown,2,2025-04-22T11:29:35.925+03:00,2025-04-21T17:08:51.449+03:00,7169,0.952456,0,0,5985.539,5,20,2025-04-22T11:27:03.726+03:00,767003386.3442003,0,-21.23,100.4574,1,0.9,2025-04-22T11:29:46.812+03:00,76,1.266666666666667,2025-04-22T09:54:17.825+03:00,0.02225348692287972,0
2025-04-22T11:29:48.071+03:00,1745310587.030363,40.95228072708613,29.14030476268771,76.52575,-1,-1,-1,-1,30,32.49985521160348,-9999,28631.640376,-0.708709716796875,0.6240386962890625,-0.303680419921875,28631.630299,-1.199506575928255,-1.157657170342588,-0.6879856922822438,-0.07569221407175064,0.002712785266339779,-0.02359563671052456,-0.0005235671997070312,-0.004016339778900146,0.005059301853179932,XArbitraryZVertical,-0.5237251655400686,-0.2657678111281147,-0.2925215296464789,0.7546591517969224,-0.7075300216674805,0.6349823474884033,-0.3101588487625122,0,0,0,-1,-1,28619.49941625,unknown,2,2025-04-22T11:29:35.925+03:00,2025-04-21T17:08:51.449+03:00,7169,0.952456,0,0,5985.539,5,20,2025-04-22T11:27:03.726+03:00,767003386.3442003,0,-21.23,100.4574,1,0.9,2025-04-22T11:29:46.812+03:00,76,1.266666666666667,2025-04-22T09:54:17.825+03:00,0.02225348692287972,0
2025-04-22T11:29:48.081+03:00,1745310587.030363,40.95228072708613,29.14030476268771,76.52575,-1,-1,-1,-1,30,32.49985521160348,-9999,28631.650452,-0.707855224609375,0.6215362548828125,-0.3039703369140625,28631.640376,-1.200621341676727,-1.158336130389542,-0.6881024674623438,-0.09059126675128937,0.003879782278090715,-0.02497808448970318,-0.002639293670654297,-0.006334304809570312,0.006578564643859863,XArbitraryZVertical,-0.5240044663592309,-0.2656971288100713,-0.292730155317636,0.7544093104649487,-0.7076725959777832,0.6350725889205933,-0.309648722410202,0,0,0,-1,-1,28619.49941625,unknown,2,2025-04-22T11:29:35.925+03:00,2025-04-21T17:08:51.449+03:00,7169,0.952456,0,0,5985.539,5,20,2025-04-22T11:27:03.726+03:00,767003386.3442003,0,-21.23,100.4574,1,0.9,2025-04-22T11:29:46.812+03:00,76,1.266666666666667,2025-04-22T09:54:17.825+03:00,0.02225348692287972,0
2025-04-22T11:29:48.091+03:00,1745310587.030363,40.95228072708613,29.14030476268771,76.52575,-1,-1,-1,-1,30,32.49985521160348,-9999,28631.660529,-0.7061309814453125,0.6188507080078125,-0.3038787841796875,28631.650452,-1.201901403457031,-1.159107383613598,-0.6882581056248843,-0.1028450727462769,0.002655460732057691,-0.02549050934612751,-0.001285910606384277,-0.01152044534683228,0.005321741104125977,XArbitraryZVertical,-0.5243298937813614,-0.2656059899043171,-0.292965255550421,0.7541239312427813,-0.7078205347061157,0.6351928114891052,-0.3090632557868958,0,0,0,-1,-1,28619.49941625,unknown,2,2025-04-22T11:29:35.925+03:00,2025-04-21T17:08:51.449+03:00,7169,0.952456,0,0,5985.539,5,20,2025-04-22T11:27:03.726+03:00,767003386.3442003,0,-21.23,100.4574,1,0.9,2025-04-22T11:29:46.812+03:00,76,1.266666666666667,2025-04-22T09:54:17.825+03:00,0.02225348692287972,0
2025-04-22T11:29:48.101+03:00,1745310587.030363,40.95228072708613,29.14030476268771,76.52575,-1,-1,-1,-1,30,32.49985521160348,-9999,28631.670606,-0.702850341796875,0.618377685546875,-0.303924560546875,28631.660529,-1.203370578588203,-1.16002642792235,-0.6884660389369135,-0.1199209988117218,6.606942042708397e-05,-0.02698640711605549,0.0005552172660827637,-0.01395457983016968,0.004114806652069092,XArbitraryZVertical,-0.524716274709671,-0.2655049885262221,-0.2932172719376623,0.7537927708761099,-0.7079832553863525,0.6353533864021301,-0.3083598613739014,0,0,0,-1,-1,28619.49941625,unknown,2,2025-04-22T11:29:35.925+03:00,2025-04-21T17:08:51.449+03:00,7169,0.952456,0,0,5985.539,5,20,2025-04-22T11:27:03.726+03:00,767003386.3442003,0,-21.23,100.4574,1,0.9,2025-04-22T11:29:46.812+03:00,76,1.266666666666667,2025-04-22T09:54:17.825+03:00,0.02225348692287972,0
2025-04-22T11:29:48.114+03:00,1745310587.030363,40.95228072708613,29.14030476268771,76.52575,-1,-1,-1,-1,30,32.49985521160348,-9999,28631.680682,-0.7039794921875,0.6199188232421875,-0.304901123046875,28631.670606,-1.205008062696256,-1.161049962358573,-0.6887157132634847,-0.1307067275047302,0.0002048863098025322,-0.02918587811291218,0.002449095249176025,-0.01655834913253784,0.003540366888046265,XArbitraryZVertical,-0.525151709474482,-0.2653861220783472,-0.2934925319117944,0.7534240411354687,-0.7081527709960938,0.6355461478233337,-0.3075717687606812,0,0,0,-1,-1,28619.49941625,unknown,2,2025-04-22T11:29:35.925+03:00,2025-04-21T17:08:51.449+03:00,7169,0.952456,0,0,5985.539,5,20,2025-04-22T11:27:03.726+03:00,767003386.3442003,0,-21.23,100.4574,1,0.9,2025-04-22T11:29:46.812+03:00,76,1.266666666666667,2025-04-22T09:54:17.825+03:00,0.02225348692287972,0
2025-04-22T11:29:48.123+03:00,1745310587.030363,40.95228072708613,29.14030476268771,76.52575,-1,-1,-1,-1,30,32.49985521160348,-9999,28631.690759,-0.7040252685546875,0.6231842041015625,-0.3066864013671875,28631.680682,-1.206804241768357,-1.162179681926296,-0.6889718273801472,-0.1444539725780487,5.175452679395676e-05,-0.03112386167049408,0.005072951316833496,-0.01754951477050781,0.002080410718917847,XArbitraryZVertical,-0.5256253911055521,-0.2652630703685596,-0.2937972623550811,0.7530182265007893,-0.7083504796028137,0.6357438564300537,-0.3067069053649902,0,0,0,-1,-1,28619.49941625,unknown,2,2025-04-22T11:29:35.925+03:00,2025-04-21T17:08:51.449+03:00,7169,0.952456,0,0,5985.539,5,20,2025-04-22T11:27:03.726+03:00,767003386.3442003,0,-21.23,100.4574,1,0.9,2025-04-22T11:29:46.812+03:00,76,1.266666666666667,2025-04-22T09:54:17.825+03:00,0.02225348692287972,0
2025-04-22T11:29:48.133+03:00,1745310587.030363,40.95228072708613,29.14030476268771,76.52575,-1,-1,-1,-1,30,32.49985521160348,-9999,28631.700836,-0.7043914794921875,0.6261444091796875,-0.306427001953125,28631.690759,-1.208746200309794,-1.163376085831363,-0.689276559537821,-0.1540805697441101,0.005028869956731796,-0.03386721760034561,0.004330635070800781,-0.0155874490737915,0.0007896721363067627,XArbitraryZVertical,-0.526141344850499,-0.2651114430053844,-0.2941243681698923,0.7525834494989809,-0.7085389494895935,0.6359790563583374,-0.3057824075222015,0,0,0,-1,-1,28619.49941625,unknown,2,2025-04-22T11:29:35.925+03:00,2025-04-21T17:08:51.449+03:00,7169,0.952456,0,0,5985.539,5,20,2025-04-22T11:27:03.726+03:00,767003386.3442003,0,-21.23,100.4574,1,0.9,2025-04-22T11:29:46.812+03:00,76,1.266666666666667,2025-04-22T09:54:17.825+03:00,0.02225348692287972,0
2025-04-22T11:29:48.150+03:00,1745310587.030363,40.95228072708613,29.14030476268771,76.52575,-1,-1,-1,-1,30,32.49985521160348,-9999,28631.710912,-0.70782470703125,0.626373291015625,-0.3049774169921875,28631.700836,-1.210865542463781,-1.164637517398127,-0.6896041649780401,-0.1709008365869522,0.01012642681598663,-0.0325031466782093,0.004295408725738525,-0.01223915815353394,-0.001453131437301636,XArbitraryZVertical,-0.5266964470798799,-0.264929852728723,-0.2944935749919884,0.7521145523911569,-0.7087326049804688,0.6362318396568298,-0.3048060536384583,0,0,0,-1,-1,28619.49941625,unknown,2,2025-04-22T11:29:35.925+03:00,2025-04-21T17:08:51.449+03:00,7169,0.952456,0,0,5985.539,5,20,2025-04-22T11:27:03.726+03:00,767003386.3442003,0,-21.23,100.4574,1,0.9,2025-04-22T11:29:46.812+03:00,76,1.266666666666667,2025-04-22T09:54:17.825+03:00,0.02225348692287972,0
2025-04-22T11:29:48.152+03:00,1745310587.030363,40.95228072708613,29.14030476268771,76.52575,-1,-1,-1,-1,30,32.49985521160348,-9999,28631.720989,-0.7111358642578125,0.6290283203125,-0.30157470703125,28631.710912,-1.213142971850763,-1.165934483526612,-0.6899828012434402,-0.1790373921394348,0.01912438124418259,-0.03359267860651016,0.004041492938995361,-0.01015084981918335,-0.003016799688339233,XArbitraryZVertical,-0.5272912990604168,-0.2647036639301686,-0.2948969902616923,0.7516192156747911,-0.7089059352874756,0.6365239024162292,-0.3037917017936707,0,0,0,-1,-1,28619.49941625,unknown,2,2025-04-22T11:29:35.925+03:00,2025-04-21T17:08:51.449+03:00,7169,0.952456,0,0,5985.539,5,20,2025-04-22T11:27:03.726+03:00,767003386.3442003,0,-21.23,100.4574,1,0.9,2025-04-22T11:29:46.812+03:00,76,1.266666666666667,2025-04-22T09:54:17.825+03:00,0.02225348692287972,0
2025-04-22T11:29:48.161+03:00,1745310587.030363,40.95228072708613,29.14030476268771,76.52575,-1,-1,-1,-1,30,32.49985521160348,-9999,28631.731065,-0.7108917236328125,0.63214111328125,-0.2998199462890625,28631.720989,-1.215533216927602,-1.167226208491943,-0.6903830653688693,-0.1889605969190598,0.02529466152191162,-0.03466033935546875,0.0008267760276794434,-0.01015424728393555,-0.00162196159362793,XArbitraryZVertical,-0.5279059027322085,-0.2644381038700441,-0.2953367931721932,0.7511084572328006,-0.7090634703636169,0.636832594871521,-0.3027756810188293,0,0,0,-1,-1,28619.49941625,unknown,2,2025-04-22T11:29:35.925+03:00,2025-04-21T17:08:51.449+03:00,7169,0.952456,0,0,5985.539,5,20,2025-04-22T11:27:03.726+03:00,767003386.3442003,0,-21.23,100.4574,1,0.9,2025-04-22T11:29:46.812+03:00,76,1.266666666666667,2025-04-22T09:54:17.825+03:00,0.02225348692287972,0
2025-04-22T11:29:48.171+03:00,1745310587.030363,40.95228072708613,29.14030476268771,76.52575,-1,-1,-1,-1,30,32.49985521160348,-9999,28631.741142,-0.7131195068359375,0.63336181640625,-0.3010406494140625,28631.731065,-1.21806299347457,-1.168539695456341,-0.6907968543302967,-0.2013311684131622,0.03277022019028664,-0.03907156735658646,-0.001398980617523193,-0.007772386074066162,0.0006544291973114014,XArbitraryZVertical,-0.5285454701771395,-0.2641386042834697,-0.2958181990218338,0.7505745560047798,-0.7092181444168091,0.6371515393257141,-0.301740974187851,0,0,0,-1,-1,28619.49941625,unknown,2,2025-04-22T11:29:35.925+03:00,2025-04-21T17:08:51.449+03:00,7169,0.952456,0,0,5985.539,5,20,2025-04-22T11:27:03.726+03:00,767003386.3442003,0,-21.23,100.4574,1,0.9,2025-04-22T11:29:46.812+03:00,76,1.266666666666667,2025-04-22T09:54:17.825+03:00,0.02225348692287972,0
2025-04-22T11:29:48.181+03:00,1745310587.030363,40.95228072708613,29.14030476268771,76.52575,-1,-1,-1,-1,30,32.49985521160348,-9999,28631.751219,-0.711181640625,0.6265106201171875,-0.29864501953125,28631.741142,-1.220842437413898,-1.169969943606311,-0.6912899852135397,-0.2243315726518631,0.03573325276374817,-0.03515938296914101,-0.002005219459533691,-0.005375266075134277,0.0007226169109344482,XArbitraryZVertical,-0.5292562617547564,-0.2637915471230203,-0.2963378029110937,0.749990525055525,-0.7093595862388611,0.6375315189361572,-0.3006036579608917,0,0,0,-1,-1,28619.49941625,unknown,2,2025-04-22T11:29:35.925+03:00,2025-04-21T17:08:51.449+03:00,7169,0.952456,0,0,5985.539,5,20,2025-04-22T11:27:03.726+03:00,767003386.3442003,0,-21.23,100.4574,1,0.9,2025-04-22T11:29:46.812+03:00,76,1.266666666666667,2025-04-22T09:54:17.825+03:00,0.02225348692287972,0
2025-04-22T11:29:48.191+03:00,1745310587.030363,40.95228072708613,29.14030476268771,76.52575,-1,-1,-1,-1,30,32.49985521160348,-9999,28631.761295,-0.713714599609375,0.6228790283203125,-0.292724609375,28631.751219,-1.223814623567268,-1.171457813619448,-0.691890859902577,-0.2415990978479385,0.04605872556567192,-0.02984417788684368,-0.003224074840545654,-0.005258321762084961,-0.001336634159088135,XArbitraryZVertical,-0.5300293220162513,-0.2633808754166972,-0.296881258999233,0.7493736859258225,-0.7094529271125793,0.6379943490028381,-0.2993988692760468,0,0,0,-1,-1,28619.49941625,unknown,2,2025-04-22T11:29:35.925+03:00,2025-04-21T17:08:51.449+03:00,7169,0.952456,0,0,5985.539,5,20,2025-04-22T11:27:03.726+03:00,767003386.3442003,0,-21.23,100.4574,1,0.9,2025-04-22T11:29:46.812+03:00,76,1.266666666666667,2025-04-22T09:54:17.825+03:00,0.02225348692287972,0
2025-04-22T11:29:48.201+03:00,1745310587.030363,40.95228072708613,29.14030476268771,76.52575,-1,-1,-1,-1,30,32.49985521160348,-9999,28631.771372,-0.7154998779296875,0.6302032470703125,-0.2886810302734375,28631.761295,-1.226960125389908,-1.172930312082757,-0.692577905331785,-0.2556670010089874,0.05616089701652527,-0.02742975763976574,-0.0008842349052429199,-0.01276051998138428,-0.0002932846546173096,XArbitraryZVertical,-0.5308451864427931,-0.2628905275631186,-0.2974667038340721,0.7487358290694558,-0.7094886302947998,0.638523280620575,-0.2981839179992676,0,0,0,-1,-1,28619.49941625,unknown,2,2025-04-22T11:29:35.925+03:00,2025-04-21T17:08:51.449+03:00,7169,0.952456,0,0,5985.539,5,20,2025-04-22T11:27:03.726+03:00,767003386.3442003,0,-21.23,100.4574,1,0.9,2025-04-22T11:29:46.812+03:00,76,1.266666666666667,2025-04-22T09:54:17.825+03:00,0.02225348692287972,0
2025-04-22T11:29:48.211+03:00,1745310587.030363,40.95228072708613,29.14030476268771,76.52575,-1,-1,-1,-1,30,32.49985521160348,-9999,28631.781449,-0.7176971435546875,0.633270263671875,-0.2882537841796875,28631.771372,-1.230239566434338,-1.174395924429282,-0.6933524556209465,-0.2739633619785309,0.06972790509462357,-0.02074998244643211,-0.004154562950134277,-0.01576733589172363,0.004823178052902222,XArbitraryZVertical,-0.5316999028067845,-0.2623334838976165,-0.2980766141862655,0.7480818762135075,-0.7094684839248657,0.6391191482543945,-0.2969527244567871,0,0,0,-1,-1,28619.49941625,unknown,2,2025-04-22T11:29:35.925+03:00,2025-04-21T17:08:51.449+03:00,7169,0.952456,0,0,5985.539,5,20,2025-04-22T11:27:03.726+03:00,767003386.3442003,0,-21.23,100.4574,1,0.9,2025-04-22T11:29:46.812+03:00,76,1.266666666666667,2025-04-22T09:54:17.825+03:00,0.02225348692287972,0
2025-04-22T11:29:48.222+03:00,1745310587.030363,40.95228072708613,29.14030476268771,76.52575,-1,-1,-1,-1,30,32.49985521160348,-9999,28631.791525,-0.7194366455078125,0.630950927734375,-0.290618896484375,28631.781449,-1.233843855637866,-1.175947353277893,-0.6942680636682711,-0.3081599473953247,0.07649286091327667,-0.02247091755270958,-0.00634080171585083,-0.008750319480895996,0.007464200258255005,XArbitraryZVertical,-0.5326461415495648,-0.2616770089335945,-0.2987416828494054,0.7473730677393298,-0.7093878984451294,0.6398230791091919,-0.2956264615058899,0,0,0,-1,-1,28619.49941625,unknown,2,2025-04-22T11:29:35.925+03:00,2025-04-21T17:08:51.449+03:00,7169,0.952456,0,0,5985.539,5,20,2025-04-22T11:27:03.726+03:00,767003386.3442003,0,-21.23,100.4574,1,0.9,2025-04-22T11:29:46.812+03:00,76,1.266666666666667,2025-04-22T09:54:17.825+03:00,0.02225348692287972,0
2025-04-22T11:29:48.232+03:00,1745310587.030363,40.95228072708613,29.14030476268771,76.52575,-1,-1,-1,-1,30,32.49985521160348,-9999,28631.801602,-0.7158966064453125,0.63336181640625,-0.2967376708984375,28631.791525,-1.237893819391529,-1.177753718724385,-0.6953100701522793,-0.3469347655773163,0.07920396327972412,-0.0196548905223608,-0.008713066577911377,-0.007643401622772217,0.005606323480606079,XArbitraryZVertical,-0.5337205632675105,-0.2609556305205689,-0.2994656013456337,0.7465686013941985,-0.7093044519424438,0.6406235694885254,-0.2940890491008759,0,0,0,-1,-1,28619.49941625,unknown,2,2025-04-22T11:29:35.925+03:00,2025-04-21T17:08:51.449+03:00,7169,0.952456,0,0,5985.539,5,20,2025-04-22T11:27:03.726+03:00,767003386.3442003,0,-21.23,100.4574,1,0.9,2025-04-22T11:29:46.812+03:00,76,1.266666666666667,2025-04-22T09:54:17.825+03:00,0.02225348692287972,0
2025-04-22T11:29:48.242+03:00,1745310587.030363,40.95228072708613,29.14030476268771,76.52575,-1,-1,-1,-1,30,32.49985521160348,-9999,28631.811678,-0.71624755859375,0.641326904296875,-0.3044891357421875,28631.801602,-1.242270051093121,-1.179695966344494,-0.6965171346242716,-0.3603411316871643,0.09143585711717606,-0.008029927499592304,-0.009819865226745605,-0.01099598407745361,0.0005151927471160889,XArbitraryZVertical,-0.5348992369455737,-0.260143948334376,-0.3002233025120393,0.7457035255014829,-0.7091589570045471,0.6415499448776245,-0.2924158573150635,0,0,0,-1,-1,28619.49941625,unknown,2,2025-04-22T11:29:35.925+03:00,2025-04-21T17:08:51.449+03:00,7169,0.952456,0,0,5985.539,5,20,2025-04-22T11:27:03.726+03:00,767003386.3442003,0,-21.23,100.4574,1,0.9,2025-04-22T11:29:46.812+03:00,76,1.266666666666667,2025-04-22T09:54:17.825+03:00,0.02225348692287972,0
2025-04-22T11:29:48.252+03:00,1745310587.030363,40.95228072708613,29.14030476268771,76.52575,-1,-1,-1,-1,30,32.49985521160348,-9999,28631.821755,-0.71539306640625,0.6439666748046875,-0.301544189453125,28631.811678,-1.246765071615947,-1.181666786886645,-0.6977890267368073,-0.3567944467067719,0.09400221705436707,-0.0152238579466939,-0.006719827651977539,-0.008263111114501953,-0.006960570812225342,XArbitraryZVertical,-0.5361121328524899,-0.2592871481265978,-0.3009951003031078,0.7448193593920711,-0.7089784145355225,0.6425250768661499,-0.290707916021347,0,0,0,-1,-1,28619.49941625,unknown,2,2025-04-22T11:29:35.925+03:00,2025-04-21T17:08:51.449+03:00,7169,0.952456,0,0,5985.539,5,20,2025-04-22T11:27:03.726+03:00,767003386.3442003,0,-21.23,100.4574,1,0.9,2025-04-22T11:29:46.812+03:00,76,1.266666666666667,2025-04-22T09:54:17.825+03:00,0.02225348692287972,0
2025-04-22T11:29:48.262+03:00,1745310587.030363,40.95228072708613,29.14030476268771,76.52575,-1,-1,-1,-1,30,32.49985521160348,-9999,28631.831832,-0.71746826171875,0.654052734375,-0.2958221435546875,28631.821755,-1.251107542265283,-1.183395974605253,-0.6989508807010274,-0.346837967634201,0.1138781830668449,-0.01740418747067451,-0.00803905725479126,-0.001737236976623535,-0.01542723178863525,XArbitraryZVertical,-0.537237658274947,-0.2584106388101973,-0.3018040231542873,0.7439851345868546,-0.7087883353233337,0.6434149146080017,-0.2891992926597595,0,0,0,-1,-1,28619.49941625,unknown,2,2025-04-22T11:29:35.925+03:00,2025-04-21T17:08:51.449+03:00,7169,0.952456,0,0,5985.539,5,20,2025-04-22T11:27:03.726+03:00,767003386.3442003,0,-21.23,100.4574,1,0.9,2025-04-22T11:29:46.812+03:00,76,1.266666666666667,2025-04-22T09:54:17.825+03:00,0.02225348692287972,0
2025-04-22T11:29:48.272+03:00,1745310587.030363,40.95228072708613,29.14030476268771,76.52575,-1,-1,-1,-1,30,32.49985521160348,-9999,28631.841908,-0.7171783447265625,0.6610260009765625,-0.29534912109375,28631.831832,-1.255339931116955,-1.184890026034592,-0.7000680955654295,-0.3297587931156158,0.1292529553174973,-0.01420876104384661,-0.006809353828430176,-0.0003337860107421875,-0.0133698582649231,XArbitraryZVertical,-0.5382993882651744,-0.2574862081963107,-0.3026455021233859,0.7431959529275211,-0.7085531949996948,0.6442697644233704,-0.2878692448139191,0,0,0,-1,-1,28619.49941625,unknown,2,2025-04-22T11:29:35.925+03:00,2025-04-21T17:08:51.449+03:00,7169,0.952456,0,0,5985.539,5,20,2025-04-22T11:27:03.726+03:00,767003386.3442003,0,-21.23,100.4574,1,0.9,2025-04-22T11:29:46.812+03:00,76,1.266666666666667,2025-04-22T09:54:17.825+03:00,0.02225348692287972,0
2025-04-22T11:29:48.282+03:00,1745310587.030363,40.95228072708613,29.14030476268771,76.52575,-1,-1,-1,-1,30,32.49985521160348,-9999,28631.851985,-0.7158203125,0.6477508544921875,-0.300140380859375,28631.841908,-1.259388084780408,-1.186078494531634,-0.7011011549568792,-0.3196832537651062,0.1476130485534668,-0.01864984817802906,-0.01024359464645386,0.01167863607406616,-0.008755266666412354,XArbitraryZVertical,-0.539266907759874,-0.2565203595348701,-0.30352322680309,0.7424702584872001,-0.7082775235176086,0.6450595259666443,-0.2867770195007324,0,0,0,-1,-1,28619.49941625,unknown,2,2025-04-22T11:29:35.925+03:00,2025-04-21T17:08:51.449+03:00,7169,0.952456,0,0,5985.539,5,20,2025-04-22T11:27:03.726+03:00,767003386.3442003,0,-21.23,100.4574,1,0.9,2025-04-22T11:29:46.812+03:00,76,1.266666666666667,2025-04-22T09:54:17.825+03:00,0.02225348692287972,0
2025-04-22T11:29:48.292+03:00,1745310587.030363,40.95228072708613,29.14030476268771,76.52575,-1,-1,-1,-1,30,32.49985521160348,-9999,28631.862062,-0.7131805419921875,0.649169921875,-0.3037261962890625,28631.851985,-1.26329736389352,-1.187052108428775,-0.7021039199389316,-0.3052184283733368,0.1608749181032181,-0.01842807419598103,-0.008901655673980713,0.01379662752151489,-0.009763598442077637,XArbitraryZVertical,-0.5401737839322585,-0.2555186763317923,-0.3044142464459776,0.7417913469938865,-0.7079562544822693,0.6458254456520081,-0.2858449816703796,0,0,0,-1,-1,28619.49941625,unknown,2,2025-04-22T11:29:35.925+03:00,2025-04-21T17:08:51.449+03:00,7169,0.952456,0,0,5985.539,5,20,2025-04-22T11:27:03.726+03:00,767003386.3442003,0,-21.23,100.4574,1,0.9,2025-04-22T11:29:46.812+03:00,76,1.266666666666667,2025-04-22T09:54:17.825+03:00,0.02225348692287972,0
2025-04-22T11:29:48.302+03:00,1745310587.030363,40.95228072708613,29.14030476268771,76.52575,-1,-1,-1,-1,30,32.49985521160348,-9999,28631.872138,-0.7111053466796875,0.651214599609375,-0.303314208984375,28631.862062,-1.267008257921302,-1.187735161988599,-0.7030022562122953,-0.2808132171630859,0.1782693564891815,-0.02902345918118954,-0.008070051670074463,0.001178622245788574,-0.01554536819458008,XArbitraryZVertical,-0.5409818676338576,-0.2544924915290399,-0.3053393852342772,0.7411747439749579,-0.707612931728363,0.6465110182762146,-0.2851443886756897,0,0,0,-1,-1,28619.49941625,unknown,2,2025-04-22T11:29:35.925+03:00,2025-04-21T17:08:51.449+03:00,7169,0.952456,0,0,5985.539,5,20,2025-04-22T11:27:03.726+03:00,767003386.3442003,0,-21.23,100.4574,1,0.9,2025-04-22T11:29:46.812+03:00,76,1.266666666666667,2025-04-22T09:54:17.825+03:00,0.02225348692287972,0
2025-04-22T11:29:48.313+03:00,1745310587.030363,40.95228072708613,29.14030476268771,76.52575,-1,-1,-1,-1,30,32.49985521160348,-9999,28631.882215,-0.7106170654296875,0.657928466796875,-0.29693603515625,28631.872138,-1.270478106901664,-1.188100597094416,-0.7037400367661626,-0.2584083676338196,0.1937241554260254,-0.02904612943530083,-0.005677282810211182,0.001851916313171387,-0.01961380243301392,XArbitraryZVertical,-0.5416674232690083,-0.2534613011694187,-0.3063073335559402,0.7406277256402669,-0.707274317741394,0.6470736861228943,-0.2847075462341309,0,0,0,-1,-1,28619.49941625,unknown,2,2025-04-22T11:29:35.925+03:00,2025-04-21T17:08:51.449+03:00,7169,0.952456,0,0,5985.539,5,20,2025-04-22T11:27:03.726+03:00,767003386.3442003,0,-21.23,100.4574,1,0.9,2025-04-22T11:29:46.812+03:00,76,1.266666666666667,2025-04-22T09:54:17.825+03:00,0.02225348692287972,0
2025-04-22T11:29:48.323+03:00,1745310587.030363,40.95228072708613,29.14030476268771,76.52575,-1,-1,-1,-1,30,32.49985521160348,-9999,28631.892292,-0.708648681640625,0.6507568359375,-0.2974700927734375,28631.882215,-1.273690932187777,-1.188166203810437,-0.7043910819221499,-0.2470683604478836,0.20343217253685,-0.03332449495792389,-0.004508435726165771,0.004636228084564209,-0.01820012927055359,XArbitraryZVertical,-0.5422501889309239,-0.2524140236646667,-0.3072860857661907,0.74015334749269,-0.706902027130127,0.6475699543952942,-0.2845037877559662,0,0,0,-1,-1,28619.49941625,unknown,2,2025-04-22T11:29:35.925+03:00,2025-04-21T17:08:51.449+03:00,7169,0.952456,0,0,5985.539,5,20,2025-04-22T11:27:03.726+03:00,767003386.3442003,0,-21.23,100.4574,1,0.9,2025-04-22T11:29:46.812+03:00,76,1.266666666666667,2025-04-22T09:54:17.825+03:00,0.02225348692287972,0
2025-04-22T11:29:48.332+03:00,1745310587.030363,40.95228072708613,29.14030476268771,76.52575,-1,-1,-1,-1,30,32.49985521160348,-9999,28631.902368,-0.706573486328125,0.63873291015625,-0.2930145263671875,28631.892292,-1.276927659285046,-1.188199400432672,-0.70498168128859,-0.2496916353702545,0.2052137553691864,-0.03901863470673561,-0.00418245792388916,0.009740531444549561,-0.01276645064353943,XArbitraryZVertical,-0.542813500062065,-0.2513657575495108,-0.3082996295507873,0.7396756136881002,-0.7065566182136536,0.6480198502540588,-0.2843375205993652,0,0,0,-1,-1,28619.49941625,unknown,2,2025-04-22T11:29:35.925+03:00,2025-04-21T17:08:51.449+03:00,7169,0.952456,0,0,5985.539,5,20,2025-04-22T11:27:03.726+03:00,767003386.3442003,0,-21.23,100.4574,1,0.9,2025-04-22T11:29:46.812+03:00,76,1.266666666666667,2025-04-22T09:54:17.825+03:00,0.02225348692287972,0
2025-04-22T11:29:48.343+03:00,1745310587.030363,40.95228072708613,29.14030476268771,76.52575,-1,-1,-1,-1,30,32.49985521160348,-9999,28631.912445,-0.7037811279296875,0.6360321044921875,-0.2929534912109375,28631.902368,-1.280227206319604,-1.188244971999074,-0.7055572476293542,-0.2524853050708771,0.207020178437233,-0.04185783118009567,-0.001616477966308594,0.0004369616508483887,-0.01295316219329834,XArbitraryZVertical,-0.5433807558714947,-0.2503084579654157,-0.3093366946099452,0.7391845483021421,-0.7062234878540039,0.6484581232070923,-0.2841660678386688,0,0,0,-1,-1,28619.49941625,unknown,2,2025-04-22T11:29:35.925+03:00,2025-04-21T17:08:51.449+03:00,7169,0.952456,0,0,5985.539,5,20,2025-04-22T11:27:03.726+03:00,767003386.3442003,0,-21.23,100.4574,1,0.9,2025-04-22T11:29:46.812+03:00,76,1.266666666666667,2025-04-22T09:54:17.825+03:00,0.02225348692287972,0
2025-04-22T11:29:48.353+03:00,1745310587.030363,40.95228072708613,29.14030476268771,76.52575,-1,-1,-1,-1,30,32.49985521160348,-9999,28631.922522,-0.697296142578125,0.6384124755859375,-0.2977752685546875,28631.912445,-1.28352350923381,-1.18835455597227,-0.7060402218774999,-0.247296929359436,0.1975241452455521,-0.05278358608484268,-0.0001212954521179199,-0.01181727647781372,-0.008447736501693726,XArbitraryZVertical,-0.5439320529705683,-0.2493031570708659,-0.3103817152435168,0.7386805046795571,-0.7059639096260071,0.6488257050514221,-0.2839717268943787,0,0,0,-1,-1,28619.49941625,unknown,2,2025-04-22T11:29:35.925+03:00,2025-04-21T17:08:51.449+03:00,7169,0.952456,0,0,5985.539,5,20,2025-04-22T11:27:03.726+03:00,767003386.3442003,0,-21.23,100.4574,1,0.9,2025-04-22T11:29:46.812+03:00,76,1.266666666666667,2025-04-22T09:54:17.825+03:00,0.02225348692287972,0
2025-04-22T11:29:48.363+03:00,1745310587.030363,40.95228072708613,29.14030476268771,76.52575,-1,-1,-1,-1,30,32.49985521160348,-9999,28631.932598,-0.6923370361328125,0.6429443359375,-0.2991943359375,28631.922522,-1.286790918769497,-1.188548546157018,-0.706438491811832,-0.2386198192834854,0.1789752244949341,-0.05993656814098358,0.002593159675598145,-0.01308155059814453,-0.009062618017196655,XArbitraryZVertical,-0.5444695626301883,-0.2483620745550185,-0.3114173561289411,0.7381654614651847,-0.7057791352272034,0.6491287350654602,-0.2837383449077606,0,0,0,-1,-1,28619.49941625,unknown,2,2025-04-22T11:29:35.925+03:00,2025-04-21T17:08:51.449+03:00,7169,0.952456,0,0,5985.539,5,20,2025-04-22T11:27:03.726+03:00,767003386.3442003,0,-21.23,100.4574,1,0.9,2025-04-22T11:29:46.812+03:00,76,1.266666666666667,2025-04-22T09:54:17.825+03:00,0.02225348692287972,0
2025-04-22T11:29:48.373+03:00,1745310587.030363,40.95228072708613,29.14030476268771,76.52575,-1,-1,-1,-1,30,32.49985521160348,-9999,28631.942675,-0.689849853515625,0.6412353515625,-0.2969818115234375,28631.932598,-1.289997648290437,-1.188882160492165,-0.7067288896249413,-0.2333227246999741,0.1677636504173279,-0.06932590901851654,0.009287714958190918,-0.01057106256484985,-0.01522767543792725,XArbitraryZVertical,-0.5449924728387923,-0.2475214959113524,-0.3124236363797057,0.7376365495157353,-0.7056988477706909,0.6493496298789978,-0.2834326326847076,0,0,0,-1,-1,28619.49941625,unknown,2,2025-04-22T11:29:35.925+03:00,2025-04-21T17:08:51.449+03:00,7169,0.952456,0,0,5985.539,5,20,2025-04-22T11:27:03.726+03:00,767003386.3442003,0,-21.23,100.4574,1,0.9,2025-04-22T11:29:46.812+03:00,76,1.266666666666667,2025-04-22T09:54:17.825+03:00,0.02225348692287972,0
2025-04-22T11:29:48.383+03:00,1745310587.030363,40.95228072708613,29.14030476268771,76.52575,-1,-1,-1,-1,30,32.49985521160348,-9999,28631.952751,-0.68963623046875,0.64678955078125,-0.29278564453125,28631.942675,-1.293257456669332,-1.189386621958496,-0.7069366948692494,-0.2352561801671982,0.1522360891103745,-0.07418644428253174,0.01431024074554443,-0.006670296192169189,-0.0156797468662262,XArbitraryZVertical,-0.5455265893518135,-0.2467540611719981,-0.3134263774084894,0.7370732253799037,-0.7057164907455444,0.6495076417922974,-0.2830263376235962,0,0,0,-1,-1,28619.49941625,unknown,2,2025-04-22T11:29:35.925+03:00,2025-04-21T17:08:51.449+03:00,7169,0.952456,0,0,5985.539,5,20,2025-04-22T11:27:03.726+03:00,767003386.3442003,0,-21.23,100.4574,1,0.9,2025-04-22T11:29:46.812+03:00,76,1.266666666666667,2025-04-22T09:54:17.825+03:00,0.02225348692287972,0
2025-04-22T11:29:48.393+03:00,1745310587.030363,40.95228072708613,29.14030476268771,76.52575,-1,-1,-1,-1,30,32.49985521160348,-9999,28631.962828,-0.692474365234375,0.650115966796875,-0.2877044677734375,28631.952751,-1.296403239634765,-1.189932143508897,-0.7070819488137957,-0.223573625087738,0.1431092321872711,-0.07914548367261887,0.01626914739608765,-0.008153975009918213,-0.01408571004867554,XArbitraryZVertical,-0.5460362486208887,-0.2460513441626374,-0.3143934375175937,0.7365187915896279,-0.7057833075523376,0.6496180891990662,-0.282606303691864,0,0,0,-1,-1,28619.49941625,unknown,2,2025-04-22T11:29:35.925+03:00,2025-04-21T17:08:51.449+03:00,7169,0.952456,0,0,5985.539,5,20,2025-04-22T11:27:03.726+03:00,767003386.3442003,0,-21.23,100.4574,1,0.9,2025-04-22T11:29:46.812+03:00,76,1.266666666666667,2025-04-22T09:54:17.825+03:00,0.02225348692287972,0
2025-04-22T11:29:48.403+03:00,1745310587.030363,40.95228072708613,29.14030476268771,76.52575,-1,-1,-1,-1,30,32.49985521160348,-9999,28631.972905,-0.69683837890625,0.6535797119140625,-0.2829437255859375,28631.962828,-1.299615005093959,-1.19061142517834,-0.7071197827857169,-0.2238753736019135,0.136077955365181,-0.08914964646100998,0.01591932773590088,-0.002155542373657227,-0.01027131080627441,XArbitraryZVertical,-0.5465473090183998,-0.2454123015184832,-0.3153789747349265,0.7359313368004068,-0.7059522867202759,0.6496468186378479,-0.2821176946163177,0,0,0,-1,-1,28619.49941625,unknown,2,2025-04-22T11:29:35.925+03:00,2025-04-21T17:08:51.449+03:00,7169,0.952456,0,0,5985.539,5,20,2025-04-22T11:27:03.726+03:00,767003386.3442003,0,-21.23,100.4574,1,0.9,2025-04-22T11:29:46.812+03:00,76,1.266666666666667,2025-04-22T09:54:17.825+03:00,0.02225348692287972,0
2025-04-22T11:29:48.414+03:00,1745310587.030363,40.95228072708613,29.14030476268771,76.52575,-1,-1,-1,-1,30,32.49985521160348,-9999,28631.982981,-0.694793701171875,0.65972900390625,-0.2827606201171875,28631.972905,-1.302708303952219,-1.191291262895553,-0.7070238383313157,-0.2014891654253006,0.1301678121089935,-0.1011368334293365,0.01281189918518066,0.001091241836547852,-0.005372405052185059,XArbitraryZVertical,-0.5470098096401266,-0.2448466573847042,-0.3163593045727697,0.7353551091082245,-0.7062017917633057,0.6495738625526428,-0.2816607654094696,0,0,0,-1,-1,28619.49941625,unknown,2,2025-04-22T11:29:35.925+03:00,2025-04-21T17:08:51.449+03:00,7169,0.952456,0,0,5985.539,5,20,2025-04-22T11:27:03.726+03:00,767003386.3442003,0,-21.23,100.4574,1,0.9,2025-04-22T11:29:46.812+03:00,76,1.266666666666667,2025-04-22T09:54:17.825+03:00,0.02225348692287972,0
2025-04-22T11:29:48.423+03:00,1745310587.030363,40.95228072708613,29.14030476268771,76.52575,-1,-1,-1,-1,30,32.49985521160348,-9999,28631.993058,-0.6959075927734375,0.659820556640625,-0.285369873046875,28631.982981,-1.30550499184028,-1.1918600844218,-0.7067162441723164,-0.1703352332115173,0.1166796982288361,-0.1116246283054352,0.009358108043670654,0.004621028900146484,-0.001137852668762207,XArbitraryZVertical,-0.5473651938790413,-0.2443867714350098,-0.3173226718409061,0.7348283389553366,-0.7065474390983582,0.6493399739265442,-0.2813329100608826,0,0,0,-1,-1,28619.49941625,unknown,2,2025-04-22T11:29:35.925+03:00,2025-04-21T17:08:51.449+03:00,7169,0.952456,0,0,5985.539,5,20,2025-04-22T11:27:03.726+03:00,767003386.3442003,0,-21.23,100.4574,1,0.9,2025-04-22T11:29:46.812+03:00,76,1.266666666666667,2025-04-22T09:54:17.825+03:00,0.02225348692287972,0
2025-04-22T11:29:48.433+03:00,1745310587.030363,40.95228072708613,29.14030476268771,76.52575,-1,-1,-1,-1,30,32.49985521160348,-9999,28632.003135,-0.6962432861328125,0.6474151611328125,-0.2825927734375,28631.993058,-1.308072541514006,-1.192350825113181,-0.7062425637794495,-0.153868705034256,0.1202898174524307,-0.1143345609307289,0.01237583160400391,0.01137477159500122,-0.002332329750061035,XArbitraryZVertical,-0.5476386045390416,-0.2440124624879973,-0.3182716462750611,0.7343384574961237,-0.7069711685180664,0.648979663848877,-0.2810997664928436,0,0,0,-1,-1,28619.49941625,unknown,2,2025-04-22T11:29:35.925+03:00,2025-04-21T17:08:51.449+03:00,7169,0.952456,0,0,5985.539,5,20,2025-04-22T11:27:03.726+03:00,767003386.3442003,0,-21.23,100.4574,1,0.9,2025-04-22T11:29:46.812+03:00,76,1.266666666666667,2025-04-22T09:54:17.825+03:00,0.02225348692287972,0
2025-04-22T11:29:48.443+03:00,1745310587.030363,40.95228072708613,29.14030476268771,76.52575,-1,-1,-1,-1,30,32.49985521160348,-9999,28632.013211,-0.6941070556640625,0.6443939208984375,-0.2843780517578125,28632.003135,-1.310538617373789,-1.19279672165,-0.705708980742193,-0.1511264443397522,0.1049774438142776,-0.1218635886907578,0.01222771406173706,0.009263098239898682,-0.004289865493774414,XArbitraryZVertical,-0.5478775556467241,-0.2436679305565788,-0.3192126853154659,0.7338660026623544,-0.7074181437492371,0.648573637008667,-0.2809122502803802,0,0,0,-1,-1,28619.49941625,unknown,2,2025-04-22T11:29:35.925+03:00,2025-04-21T17:08:51.449+03:00,7169,0.952456,0,0,5985.539,5,20,2025-04-22T11:27:03.726+03:00,767003386.3442003,0,-21.23,100.4574,1,0.9,2025-04-22T11:29:46.812+03:00,76,1.266666666666667,2025-04-22T09:54:17.825+03:00,0.02225348692287972,0
2025-04-22T11:29:48.453+03:00,1745310587.030363,40.95228072708613,29.14030476268771,76.52575,-1,-1,-1,-1,30,32.49985521160348,-9999,28632.023288,-0.6884918212890625,0.644317626953125,-0.289459228515625,28632.013211,-1.312949799989223,-1.193372900452378,-0.7050773115341069,-0.1419069170951843,0.09432046860456467,-0.1297530978918076,0.01176309585571289,-0.001547455787658691,-0.002578198909759521,XArbitraryZVertical,-0.5481063238182068,-0.2434167243505795,-0.320126258235963,0.7333804084513672,-0.7079605460166931,0.6480926871299744,-0.2806555032730103,0,0,0,-1,-1,28619.49941625,unknown,2,2025-04-22T11:29:35.925+03:00,2025-04-21T17:08:51.449+03:00,7169,0.952456,0,0,5985.539,5,20,2025-04-22T11:27:03.726+03:00,767003386.3442003,0,-21.23,100.4574,1,0.9,2025-04-22T11:29:46.812+03:00,76,1.266666666666667,2025-04-22T09:54:17.825+03:00,0.02225348692287972,0
2025-04-22T11:29:48.464+03:00,1745310587.030363,40.95228072708613,29.14030476268771,76.52575,-1,-1,-1,-1,30,32.49985521160348,-9999,28632.033364,-0.6877593994140625,0.6488037109375,-0.2942962646484375,28632.023288,-1.315204529372684,-1.193898484196085,-0.7043491553478399,-0.1239625439047813,0.0893334299325943,-0.1298937201499939,0.01555341482162476,-0.003525733947753906,-0.004790902137756348,XArbitraryZVertical,-0.5482842068145658,-0.2432199223116452,-0.3210242690226577,0.7329200687039488,-0.7085465788841248,0.6475380063056946,-0.2804569900035858,0,0,0,-1,-1,28619.49941625,unknown,2,2025-04-22T11:29:35.925+03:00,2025-04-21T17:08:51.449+03:00,7169,0.952456,0,0,5985.539,5,20,2025-04-22T11:27:03.726+03:00,767003386.3442003,0,-21.23,100.4574,1,0.9,2025-04-22T11:29:46.812+03:00,76,1.266666666666667,2025-04-22T09:54:17.825+03:00,0.02225348692287972,0
2025-04-22T11:29:48.473+03:00,1745310587.030363,40.95228072708613,29.14030476268771,76.52575,-1,-1,-1,-1,30,32.49985521160348,-9999,28632.043441,-0.68865966796875,0.656341552734375,-0.29718017578125,28632.033364,-1.31718553269667,-1.194320467435132,-0.7034913365001931,-0.08570949733257294,0.08307386934757233,-0.1394025534391403,0.02035367488861084,-0.002490341663360596,-0.009509235620498657,XArbitraryZVertical,-0.5483803265932948,-0.2431007797949855,-0.3218881747297527,0.7325085990016839,-0.7091811299324036,0.6468840837478638,-0.280362069606781,0,0,0,-1,-1,28619.49941625,unknown,2,2025-04-22T11:29:35.925+03:00,2025-04-21T17:08:51.449+03:00,7169,0.952456,0,0,5985.539,5,20,2025-04-22T11:27:03.726+03:00,767003386.3442003,0,-21.23,100.4574,1,0.9,2025-04-22T11:29:46.812+03:00,76,1.266666666666667,2025-04-22T09:54:17.825+03:00,0.02225348692287972,0
2025-04-22T11:29:48.484+03:00,1745310587.030363,40.95228072708613,29.14030476268771,76.52575,-1,-1,-1,-1,30,32.49985521160348,-9999,28632.053518,-0.69354248046875,0.659393310546875,-0.3016204833984375,28632.043441,-1.318782082161328,-1.194472912554782,-0.7024220829060993,-0.05256965756416321,0.08743453025817871,-0.1426209807395935,0.02235150337219238,0.0034371018409729,-0.01389512419700623,XArbitraryZVertical,-0.5483341677214117,-0.2430548391721043,-0.322747337483394,0.7321802640124502,-0.7098667025566101,0.6460683345794678,-0.2805079817771912,0,0,0,-1,-1,28619.49941625,unknown,2,2025-04-22T11:29:35.925+03:00,2025-04-21T17:08:51.449+03:00,7169,0.952456,0,0,5985.539,5,20,2025-04-22T11:27:03.726+03:00,767003386.3442003,0,-21.23,100.4574,1,0.9,2025-04-22T11:29:46.812+03:00,76,1.266666666666667,2025-04-22T09:54:17.825+03:00,0.02225348692287972,0
2025-04-22T11:29:48.494+03:00,1745310587.030363,40.95228072708613,29.14030476268771,76.52575,-1,-1,-1,-1,30,32.49985521160348,-9999,28632.063594,-0.6926422119140625,0.6778564453125,-0.3211669921875,28632.053518,-1.319601259522106,-1.194188583652823,-0.7010791175580948,0.04204074293375015,0.07204065471887589,-0.1583710610866547,0.02094173431396484,0.0114055871963501,-0.01668563485145569,XArbitraryZVertical,-0.5480552090573254,-0.2431483799955886,-0.3235223407873205,0.7320161540903058,-0.7105932831764221,0.6450426578521729,-0.2810287177562714,0,0,0,-1,-1,28619.49941625,unknown,2,2025-04-22T11:29:35.925+03:00,2025-04-21T17:08:51.449+03:00,7169,0.952456,0,0,5985.539,5,20,2025-04-22T11:27:03.726+03:00,767003386.3442003,0,-21.23,100.4574,1,0.9,2025-04-22T11:29:46.812+03:00,76,1.266666666666667,2025-04-22T09:54:17.825+03:00,0.02225348692287972,0
2025-04-22T11:29:48.504+03:00,1745310587.030363,40.95228072708613,29.14030476268771,76.52575,-1,-1,-1,-1,30,32.49985521160348,-9999,28632.073671,-0.7025299072265625,0.6978302001953125,-0.345855712890625,28632.063594,-1.319339684959608,-1.193328211880203,-0.6991802068391226,0.1329576075077057,0.05790619924664497,-0.1810524016618729,0.01747304201126099,0.01665717363357544,-0.02033835649490356,XArbitraryZVertical,-0.5474133932569152,-0.243501811065855,-0.3242233672873172,0.7320686911924139,-0.7114885449409485,0.6435904502868652,-0.2820909023284912,0,0,0,-1,-1,28619.49941625,unknown,2,2025-04-22T11:29:35.925+03:00,2025-04-21T17:08:51.449+03:00,7169,0.952456,0,0,5985.539,5,20,2025-04-22T11:27:03.726+03:00,767003386.3442003,0,-21.23,100.4574,1,0.9,2025-04-22T11:29:46.812+03:00,76,1.266666666666667,2025-04-22T09:54:17.825+03:00,0.02225348692287972,0
2025-04-22T11:29:48.514+03:00,1745310587.030363,40.95228072708613,29.14030476268771,76.52575,-1,-1,-1,-1,30,32.49985521160348,-9999,28632.083748,-0.697601318359375,0.6982269287109375,-0.359100341796875,28632.073671,-1.318363024675123,-1.192339311414022,-0.6967925412644201,0.1688971519470215,0.006510053295642138,-0.2115454971790314,0.01968777179718018,0.03989452123641968,-0.0413152277469635,XArbitraryZVertical,-0.5465407709301285,-0.2441567790603326,-0.3248412286087172,0.7322285880954134,-0.7126350998878479,0.6417611837387085,-0.2833613157272339,0,0,0,-1,-1,28619.49941625,unknown,2,2025-04-22T11:29:35.925+03:00,2025-04-21T17:08:51.449+03:00,7169,0.952456,0,0,5985.539,5,20,2025-04-22T11:27:03.726+03:00,767003386.3442003,0,-21.23,100.4574,1,0.9,2025-04-22T11:29:46.812+03:00,76,1.266666666666667,2025-04-22T09:54:17.825+03:00,0.02225348692287972,0
2025-04-22T11:29:48.524+03:00,1745310587.030363,40.95228072708613,29.14030476268771,76.52575,-1,-1,-1,-1,30,32.49985521160348,-9999,28632.093824,-0.6990203857421875,0.6771240234375,-0.355926513671875,28632.083748,-1.317467676198198,-1.191961502883424,-0.6942049691403981,0.1459830552339554,-0.04661628231406212,-0.2280917167663574,0.01053160429000854,0.05973398685455322,-0.06350407004356384,XArbitraryZVertical,-0.5457255096772127,-0.2450750217974954,-0.3253799303250611,0.7322908528884106,-0.7140686511993408,0.6397746205329895,-0.2842437922954559,0,0,0,-1,-1,28619.49941625,unknown,2,2025-04-22T11:29:35.925+03:00,2025-04-21T17:08:51.449+03:00,7169,0.952456,0,0,5985.539,5,20,2025-04-22T11:27:03.726+03:00,767003386.3442003,0,-21.23,100.4574,1,0.9,2025-04-22T11:29:46.812+03:00,76,1.266666666666667,2025-04-22T09:54:17.825+03:00,0.02225348692287972,0
2025-04-22T11:29:48.543+03:00,1745310587.030363,40.95228072708613,29.14030476268771,76.52575,-1,-1,-1,-1,30,32.49985521160348,-9999,28632.103901,-0.70550537109375,0.6461181640625,-0.346527099609375,28632.093824,-1.316546352331107,-1.192071243092312,-0.6914412068907014,0.1970216631889343,-0.09342140704393387,-0.2382573038339615,0.01884043216705322,0.05940371751785278,-0.07431289553642273,XArbitraryZVertical,-0.5449406759711685,-0.2462329028195727,-0.3258272823925562,0.7322878215508343,-0.7157397866249084,0.6376480460166931,-0.284818023443222,0,0,0,-1,-1,28619.49941625,unknown,2,2025-04-22T11:29:35.925+03:00,2025-04-21T17:08:51.449+03:00,7169,0.952456,0,0,5985.539,5,20,2025-04-22T11:27:03.726+03:00,767003386.3442003,0,-21.23,100.4574,1,0.9,2025-04-22T11:29:46.812+03:00,76,1.266666666666667,2025-04-22T09:54:17.825+03:00,0.02225348692287972,0
2025-04-22T11:29:48.546+03:00,1745310587.030363,40.95228072708613,29.14030476268771,76.52575,-1,-1,-1,-1,30,32.49985521160348,-9999,28632.113978,-0.701812744140625,0.661346435546875,-0.3441925048828125,28632.103901,-1.315099245857453,-1.192409631380284,-0.6883543367672073,0.2402357161045074,-0.1637232601642609,-0.26169553399086,0.01766479015350342,0.03691285848617554,-0.06989261507987976,XArbitraryZVertical,-0.5440452353629155,-0.2477175735020601,-0.3261146279034474,0.7323249120372698,-0.7176617383956909,0.6352671384811401,-0.2853015661239624,0,0,0,-1,-1,28619.49941625,unknown,2,2025-04-22T11:29:35.925+03:00,2025-04-21T17:08:51.449+03:00,7169,0.952456,0,0,5985.539,5,20,2025-04-22T11:27:03.726+03:00,767003386.3442003,0,-21.23,100.4574,1,0.9,2025-04-22T11:29:46.812+03:00,76,1.266666666666667,2025-04-22T09:54:17.825+03:00,0.02225348692287972,0
2025-04-22T11:29:48.555+03:00,1745310587.030363,40.95228072708613,29.14030476268771,76.52575,-1,-1,-1,-1,30,32.49985521160348,-9999,28632.124054,-0.6962127685546875,0.6815948486328125,-0.3577117919921875,28632.113978,-1.313453844032309,-1.193355671555757,-0.6849537146686835,0.2474259883165359,-0.2323481291532516,-0.2791213989257812,0.01398766040802002,0.0130687952041626,-0.06088122725486755,XArbitraryZVertical,-0.5431425447253165,-0.2495749252636807,-0.326256357093776,0.7323012956716461,-0.7199354767799377,0.6326371431350708,-0.2854170799255371,0,0,0,-1,-1,28619.49941625,unknown,2,2025-04-22T11:29:35.925+03:00,2025-04-21T17:08:51.449+03:00,7169,0.952456,0,0,5985.539,5,20,2025-04-22T11:27:03.726+03:00,767003386.3442003,0,-21.23,100.4574,1,0.9,2025-04-22T11:29:46.812+03:00,76,1.266666666666667,2025-04-22T09:54:17.825+03:00,0.02225348692287972,0
2025-04-22T11:29:48.564+03:00,1745310587.030363,40.95228072708613,29.14030476268771,76.52575,-1,-1,-1,-1,30,32.49985521160348,-9999,28632.134131,-0.7027130126953125,0.6413116455078125,-0.35076904296875,28632.124054,-1.311851323763944,-1.194947031881755,-0.6813989616405656,0.2178806066513062,-0.288673996925354,-0.3020272254943848,0.02196037769317627,0.03604370355606079,-0.05941832065582275,XArbitraryZVertical,-0.5423083760443194,-0.2517027322124545,-0.326284207929627,0.7321788589975941,-0.7224761843681335,0.6298801898956299,-0.2850947082042694,0,0,0,-1,-1,28619.49941625,unknown,2,2025-04-22T11:29:35.925+03:00,2025-04-21T17:08:51.449+03:00,7169,0.952456,0,0,5985.539,5,20,2025-04-22T11:27:03.726+03:00,767003386.3442003,0,-21.23,100.4574,1,0.9,2025-04-22T11:29:46.812+03:00,76,1.266666666666667,2025-04-22T09:54:17.825+03:00,0.02225348692287972,0
2025-04-22T11:29:48.574+03:00,1745310587.030363,40.95228072708613,29.14030476268771,76.52575,-1,-1,-1,-1,30,32.49985521160348,-9999,28632.144206375,-0.7029266357421875,0.58343505859375,-0.326507568359375,28632.134130375,-1.311659214887767,-1.197729782037789,-0.6781090961220902,0.06967469304800034,-0.3004480302333832,-0.2869555652141571,0.02882713079452515,0.05273199081420898,-0.07485151290893555,XArbitraryZVertical,-0.5419108462909714,-0.2537995038676725,-0.3264281134529121,0.7316850893544831,-0.7251924872398376,0.6273216009140015,-0.2838369011878967,0,0,0,-1,-1,28619.49941625,unknown,2,2025-04-22T11:29:35.925+03:00,2025-04-21T17:08:51.449+03:00,7169,0.952456,0,0,5985.539,5,20,2025-04-22T11:27:03.726+03:00,767003386.3442003,0,-21.23,100.4574,1,0.9,2025-04-22T11:29:46.812+03:00,76,1.266666666666667,2025-04-22T09:54:17.825+03:00,0.02225348692287972,0
2025-04-22T11:29:48.584+03:00,1745310587.030363,40.95228072708613,29.14030476268771,76.52575,-1,-1,-1,-1,30,32.49985521160348,-9999,28632.154283375,-0.666412353515625,0.557525634765625,-0.3287506103515625,28632.144206375,-1.312380766557716,-1.201479870290357,-0.6756082693494223,0.0329212099313736,-0.3469939529895782,-0.2094501256942749,0.02322953939437866,0.008599936962127686,-0.06531935930252075,XArbitraryZVertical,-0.5419862447034217,-0.2557547933821492,-0.3264123931607874,0.7309550355639431,-0.7277125716209412,0.625372052192688,-0.2816807925701141,0,0,0,-1,-1,28619.49941625,unknown,2,2025-04-22T11:29:35.925+03:00,2025-04-21T17:08:51.449+03:00,7169,0.952456,0,0,5985.539,5,20,2025-04-22T11:27:03.726+03:00,767003386.3442003,0,-21.23,100.4574,1,0.9,2025-04-22T11:29:46.812+03:00,76,1.266666666666667,2025-04-22T09:54:17.825+03:00,0.02225348692287972,0
2025-04-22T11:29:48.594+03:00,1745310587.030363,40.95228072708613,29.14030476268771,76.52575,-1,-1,-1,-1,30,32.49985521160348,-9999,28632.164360375,-0.670867919921875,0.5740203857421875,-0.3507843017578125,28632.154283375,-1.312507315048194,-1.205194335089649,-0.6736873153971163,0.06668882817029953,-0.3706606030464172,-0.1640411913394928,0.03086918592453003,-0.04634225368499756,-0.04579064249992371,XArbitraryZVertical,-0.5421261655259209,-0.2576758878190906,-0.3260182125770966,0.730352150231216,-0.729874312877655,0.6238719820976257,-0.2794047296047211,0,0,0,-1,-1,28619.49941625,unknown,2,2025-04-22T11:29:35.925+03:00,2025-04-21T17:08:51.449+03:00,7169,0.952456,0,0,5985.539,5,20,2025-04-22T11:27:03.726+03:00,767003386.3442003,0,-21.23,100.4574,1,0.9,2025-04-22T11:29:46.812+03:00,76,1.266666666666667,2025-04-22T09:54:17.825+03:00,0.02225348692287972,0
2025-04-22T11:29:48.605+03:00,1745310587.030363,40.95228072708613,29.14030476268771,76.52575,-1,-1,-1,-1,30,32.49985521160348,-9999,28632.174436375,-0.685882568359375,0.566925048828125,-0.3626708984375,28632.164360375,-1.312731832487008,-1.208932061472681,-0.6723978500752258,-0.03369636461138725,-0.3544400632381439,-0.09715644270181656,0.06870156526565552,-0.0650482177734375,-0.05379030108451843,XArbitraryZVertical,-0.542440667318421,-0.2593809134999383,-0.3254673653048504,0.7297606720824743,-0.7316654324531555,0.6228637099266052,-0.2769593298435211,0,0,0,-1,-1,28619.49941625,unknown,2,2025-04-22T11:29:35.925+03:00,2025-04-21T17:08:51.449+03:00,7169,0.952456,0,0,5985.539,5,20,2025-04-22T11:27:03.726+03:00,767003386.3442003,0,-21.23,100.4574,1,0.9,2025-04-22T11:29:46.812+03:00,76,1.266666666666667,2025-04-22T09:54:17.825+03:00,0.02225348692287972,0
2025-04-22T11:29:48.615+03:00,1745310587.030363,40.95228072708613,29.14030476268771,76.52575,-1,-1,-1,-1,30,32.49985521160348,-9999,28632.184513375,-0.6833648681640625,0.5371246337890625,-0.354278564453125,28632.174436375,-1.314981752731521,-1.213994871682157,-0.6724137751271846,-0.2961959540843964,-0.3910641968250275,-0.02068912982940674,0.05911403894424438,-0.04633820056915283,-0.08037447929382324,XArbitraryZVertical,-0.5435603260244737,-0.2606111171768727,-0.3249084699762038,0.7287375716773044,-0.7330489158630371,0.6228761672973633,-0.2732480466365814,0,0,0,-1,-1,28619.49941625,unknown,2,2025-04-22T11:29:35.925+03:00,2025-04-21T17:08:51.449+03:00,7169,0.952456,0,0,5985.539,5,20,2025-04-22T11:27:03.726+03:00,767003386.3442003,0,-21.23,100.4574,1,0.9,2025-04-22T11:29:46.812+03:00,76,1.266666666666667,2025-04-22T09:54:17.825+03:00,0.02225348692287972,0
2025-04-22T11:29:48.625+03:00,1745310587.030363,40.95228072708613,29.14030476268771,76.52575,-1,-1,-1,-1,30,32.49985521160348,-9999,28632.194590375,-0.681365966796875,0.5824432373046875,-0.40240478515625,28632.184513375,-1.319333724863403,-1.220691275546877,-0.6739136594992701,-0.4145516455173492,-0.4166081547737122,0.06137457862496376,0.04828441143035889,-0.06251031160354614,-0.09371250867843628,XArbitraryZVertical,-0.5455875973106015,-0.2613961884379428,-0.324224777184317,0.7272444245438011,-0.7339838743209839,0.6240488290786743,-0.2680124044418335,0,0,0,-1,-1,28619.49941625,unknown,2,2025-04-22T11:29:35.925+03:00,2025-04-21T17:08:51.449+03:00,7169,0.952456,0,0,5985.539,5,20,2025-04-22T11:27:03.726+03:00,767003386.3442003,0,-21.23,100.4574,1,0.9,2025-04-22T11:29:46.812+03:00,76,1.266666666666667,2025-04-22T09:54:17.825+03:00,0.02225348692287972,0
2025-04-22T11:29:48.635+03:00,1745310587.030363,40.95228072708613,29.14030476268771,76.52575,-1,-1,-1,-1,30,32.49985521160348,-9999,28632.204666375,-0.682891845703125,0.62884521484375,-0.4686126708984375,28632.194590375,-1.324933264102241,-1.228657528335766,-0.6763703110048499,-0.5459185838699341,-0.4680219888687134,0.1109864041209221,0.05149799585342407,-0.08823168277740479,-0.09463578462600708,XArbitraryZVertical,-0.5482150032325639,-0.2619912747432768,-0.3233497995554347,0.7254418327439617,-0.7346493005752563,0.6259665489196777,-0.2616417706012726,0,0,0,-1,-1,28619.49941625,unknown,2,2025-04-22T11:29:35.925+03:00,2025-04-21T17:08:51.449+03:00,7169,0.952456,0,0,5985.539,5,20,2025-04-22T11:27:03.726+03:00,767003386.3442003,0,-21.23,100.4574,1,0.9,2025-04-22T11:29:46.812+03:00,76,1.266666666666667,2025-04-22T09:54:17.825+03:00,0.02225348692287972,0
2025-04-22T11:29:48.645+03:00,1745310587.030363,40.95228072708613,29.14030476268771,76.52575,-1,-1,-1,-1,30,32.49985521160348,-9999,28632.214743375,-0.68157958984375,0.585418701171875,-0.49993896484375,28632.204666375,-1.332094463316801,-1.237980476703377,-0.6798793409319487,-0.6980841159820557,-0.5059821605682373,0.1800925135612488,0.05342692136764526,-0.03772646188735962,-0.1576505303382874,XArbitraryZVertical,-0.551513406294167,-0.2623011085587352,-0.3223333174795885,0.7232788560873398,-0.7349759936332703,0.6286991834640503,-0.2540621757507324,0,0,0,-1,-1,28619.49941625,unknown,2,2025-04-22T11:29:35.925+03:00,2025-04-21T17:08:51.449+03:00,7169,0.952456,0,0,5985.539,5,20,2025-04-22T11:27:03.726+03:00,767003386.3442003,0,-21.23,100.4574,1,0.9,2025-04-22T11:29:46.812+03:00,76,1.266666666666667,2025-04-22T09:54:17.825+03:00,0.02225348692287972,0
2025-04-22T11:29:48.655+03:00,1745310587.030363,40.95228072708613,29.14030476268771,76.52575,-1,-1,-1,-1,30,32.49985521160348,-9999,28632.224820375,-0.683990478515625,0.55780029296875,-0.520660400390625,28632.214743375,-1.340842428071064,-1.248749471650846,-0.6843646284365651,-0.9039149880409241,-0.50335693359375,0.2333288937807083,0.05151522159576416,-0.003808856010437012,-0.2290513962507248,XArbitraryZVertical,-0.5554711909192104,-0.2623603440346384,-0.3211670805233377,0.720742915719053,-0.7349868416786194,0.6321808695793152,-0.2452376186847687,0,0,0,-1,-1,28619.49941625,unknown,2,2025-04-22T11:29:35.925+03:00,2025-04-21T17:08:51.449+03:00,7169,0.952456,0,0,5985.539,5,20,2025-04-22T11:27:03.726+03:00,767003386.3442003,0,-21.23,100.4574,1,0.9,2025-04-22T11:29:46.812+03:00,76,1.266666666666667,2025-04-22T09:54:17.825+03:00,0.02225348692287972,0
2025-04-22T11:29:48.665+03:00,1745310587.030363,40.95228072708613,29.14030476268771,76.52575,-1,-1,-1,-1,30,32.49985521160348,-9999,28632.234896375,-0.66961669921875,0.6111907958984375,-0.5618743896484375,28632.224820375,-1.351371808415076,-1.26067811829972,-0.6899361736380194,-0.9047357439994812,-0.5563021898269653,0.3128732740879059,0.05294519662857056,-0.05894291400909424,-0.2666856050491333,XArbitraryZVertical,-0.5600803392265623,-0.2619595132662591,-0.3199497166448854,0.7178574597820088,-0.7344942688941956,0.6364879608154297,-0.2353744506835938,0,0,0,-1,-1,28619.49941625,unknown,2,2025-04-22T11:29:35.925+03:00,2025-04-21T17:08:51.449+03:00,7169,0.952456,0,0,5985.539,5,20,2025-04-22T11:27:03.726+03:00,767003386.3442003,0,-21.23,100.4574,1,0.9,2025-04-22T11:29:46.812+03:00,76,1.266666666666667,2025-04-22T09:54:17.825+03:00,0.02225348692287972,0
2025-04-22T11:29:48.675+03:00,1745310587.030363,40.95228072708613,29.14030476268771,76.52575,-1,-1,-1,-1,30,32.49985521160348,-9999,28632.244973375,-0.6667938232421875,0.69976806640625,-0.625396728515625,28632.234896375,-1.360897167795042,-1.272778233395352,-0.695730605251564,-0.860377311706543,-0.6557741761207581,0.3441741764545441,0.05044674873352051,-0.08044546842575073,-0.2977796792984009,XArbitraryZVertical,-0.5646034735686767,-0.2617848241171283,-0.3182064921134361,0.7151476315518492,-0.733750581741333,0.6409463882446289,-0.2253832519054413,0,0,0,-1,-1,28619.49941625,unknown,2,2025-04-22T11:29:35.925+03:00,2025-04-21T17:08:51.449+03:00,7169,0.952456,0,0,5985.539,5,20,2025-04-22T11:27:03.726+03:00,767003386.3442003,0,-21.23,100.4574,1,0.9,2025-04-22T11:29:46.812+03:00,76,1.266666666666667,2025-04-22T09:54:17.825+03:00,0.02225348692287972,0
2025-04-22T11:29:48.685+03:00,1745310587.030363,40.95228072708613,29.14030476268771,76.52575,-1,-1,-1,-1,30,32.49985521160348,-9999,28632.255050375,-0.6923065185546875,0.6877593994140625,-0.6381072998046875,28632.244973375,-1.370013264621381,-1.2854285631313,-0.7015129787242297,-0.819283127784729,-0.6905547976493835,0.3613662123680115,0.06537193059921265,-0.02202224731445312,-0.3552914261817932,XArbitraryZVertical,-0.5691215524421277,-0.2618825631342682,-0.316115695010007,0.7124528256264739,-0.7329744696617126,0.6453741192817688,-0.2150363624095917,0,0,0,-1,-1,28619.49941625,unknown,2,2025-04-22T11:29:35.925+03:00,2025-04-21T17:08:51.449+03:00,7169,0.952456,0,0,5985.539,5,20,2025-04-22T11:27:03.726+03:00,767003386.3442003,0,-21.23,100.4574,1,0.9,2025-04-22T11:29:46.812+03:00,76,1.266666666666667,2025-04-22T09:54:17.825+03:00,0.02225348692287972,0
2025-04-22T11:29:48.695+03:00,1745310587.030363,40.95228072708613,29.14030476268771,76.52575,-1,-1,-1,-1,30,32.49985521160348,-9999,28632.265126375,-0.6887359619140625,0.673980712890625,-0.61163330078125,28632.255050375,-1.379135575452296,-1.298866690401014,-0.7075368185343055,-0.8049625754356384,-0.8027423620223999,0.4025736749172211,0.06257563829421997,0.05515992641448975,-0.4252903461456299,XArbitraryZVertical,-0.5737802956675127,-0.26213813800488,-0.3136773585987486,0.709694473786401,-0.732039749622345,0.6499637961387634,-0.2041195333003998,0,0,0,-1,-1,28619.49941625,unknown,2,2025-04-22T11:29:35.925+03:00,2025-04-21T17:08:51.449+03:00,7169,0.952456,0,0,5985.539,5,20,2025-04-22T11:27:03.726+03:00,767003386.3442003,0,-21.23,100.4574,1,0.9,2025-04-22T11:29:46.812+03:00,76,1.266666666666667,2025-04-22T09:54:17.825+03:00,0.02225348692287972,0
2025-04-22T11:29:48.705+03:00,1745310587.030363,40.95228072708613,29.14030476268771,76.52575,-1,-1,-1,-1,30,32.49985521160348,-9999,28632.275203375,-0.69842529296875,0.723114013671875,-0.5759124755859375,28632.265126375,-1.386381685703946,-1.312122481361369,-0.7133919783756244,-0.5530259609222412,-0.9045765995979309,0.4241562187671661,0.03701984882354736,0.02876406908035278,-0.4434042870998383,XArbitraryZVertical,-0.5780857651454157,-0.2628805248352877,-0.3106269736280184,0.7072635034001375,-0.7309896945953369,0.6544023752212524,-0.1934213489294052,0,0,0,-1,-1,28619.49941625,unknown,2,2025-04-22T11:29:35.925+03:00,2025-04-21T17:08:51.449+03:00,7169,0.952456,0,0,5985.539,5,20,2025-04-22T11:27:03.726+03:00,767003386.3442003,0,-21.23,100.4574,1,0.9,2025-04-22T11:29:46.812+03:00,76,1.266666666666667,2025-04-22T09:54:17.825+03:00,0.02225348692287972,0
2025-04-22T11:29:48.716+03:00,1745310587.030363,40.95228072708613,29.14030476268771,76.52575,-1,-1,-1,-1,30,32.49985521160348,-9999,28632.285279375,-0.7287445068359375,0.7839508056640625,-0.5347137451171875,28632.275203375,-1.390512533322847,-1.325084129623868,-0.7184991493472206,-0.3033455610275269,-1.123301029205322,0.3981570899486542,0.04214966297149658,0.01810532808303833,-0.4234828352928162,XArbitraryZVertical,-0.5817334241510733,-0.2646292922320397,-0.3067489267451627,0.7053102420400348,-0.7301837205886841,0.6582555770874023,-0.1831151247024536,0,0,0,-1,-1,28619.49941625,unknown,2,2025-04-22T11:29:35.925+03:00,2025-04-21T17:08:51.449+03:00,7169,0.952456,0,0,5985.539,5,20,2025-04-22T11:27:03.726+03:00,767003386.3442003,0,-21.23,100.4574,1,0.9,2025-04-22T11:29:46.812+03:00,76,1.266666666666667,2025-04-22T09:54:17.825+03:00,0.02225348692287972,0
2025-04-22T11:29:48.726+03:00,1745310587.030363,40.95228072708613,29.14030476268771,76.52575,-1,-1,-1,-1,30,32.49985521160348,-9999,28632.295356375,-0.7679290771484375,0.78961181640625,-0.5033721923828125,28632.285279375,-1.392199956693152,-1.338147300105478,-0.7226323806468808,-0.1516827791929245,-1.234636068344116,0.3334031403064728,0.02818435430526733,0.07051098346710205,-0.3983108401298523,XArbitraryZVertical,-0.5848257573828438,-0.2674183542057244,-0.3022493777988763,0.703641619671451,-0.7298598289489746,0.6613613963127136,-0.1729325205087662,0,0,0,-1,-1,28619.49941625,unknown,2,2025-04-22T11:29:35.925+03:00,2025-04-21T17:08:51.449+03:00,7169,0.952456,0,0,5985.539,5,20,2025-04-22T11:27:03.726+03:00,767003386.3442003,0,-21.23,100.4574,1,0.9,2025-04-22T11:29:46.812+03:00,76,1.266666666666667,2025-04-22T09:54:17.825+03:00,0.02225348692287972,0
2025-04-22T11:29:48.736+03:00,1745310587.030363,40.95228072708613,29.14030476268771,76.52575,-1,-1,-1,-1,30,32.49985521160348,-9999,28632.305433375,-0.7953643798828125,0.7684326171875,-0.467926025390625,28632.295356375,-1.393504457215305,-1.351796233701859,-0.7255471331124416,-0.1922592371702194,-1.307422041893005,0.1807535439729691,-0.003497302532196045,0.1240221261978149,-0.3673108220100403,XArbitraryZVertical,-0.587660456306098,-0.2709012363382831,-0.2977966034632892,0.7018438959643143,-0.730267345905304,0.6635448932647705,-0.1625354140996933,0,0,0,-1,-1,28619.49941625,unknown,2,2025-04-22T11:29:35.925+03:00,2025-04-21T17:08:51.449+03:00,7169,0.952456,0,0,5985.539,5,20,2025-04-22T11:27:03.726+03:00,767003386.3442003,0,-21.23,100.4574,1,0.9,2025-04-22T11:29:46.812+03:00,76,1.266666666666667,2025-04-22T09:54:17.825+03:00,0.02225348692287972,0
2025-04-22T11:29:48.746+03:00,1745310587.030363,40.95228072708613,29.14030476268771,76.52575,-1,-1,-1,-1,30,32.49985521160348,-9999,28632.315509375,-0.78350830078125,0.734527587890625,-0.425811767578125,28632.305433375,-1.39724276738466,-1.367534389109339,-0.7277693535895573,-0.4471157789230347,-1.31273877620697,0.161197155714035,-0.04143154621124268,0.1236124038696289,-0.3477038145065308,XArbitraryZVertical,-0.5909573295533422,-0.2746035485898842,-0.2937711128396518,0.6993287801509628,-0.731288731098175,0.6652057766914368,-0.1507246494293213,0,0,0,-1,-1,28619.49941625,unknown,2,2025-04-22T11:29:35.925+03:00,2025-04-21T17:08:51.449+03:00,7169,0.952456,0,0,5985.539,5,20,2025-04-22T11:27:03.726+03:00,767003386.3442003,0,-21.23,100.4574,1,0.9,2025-04-22T11:29:46.812+03:00,76,1.266666666666667,2025-04-22T09:54:17.825+03:00,0.02225348692287972,0
2025-04-22T11:29:48.756+03:00,1745310587.030363,40.95228072708613,29.14030476268771,76.52575,-1,-1,-1,-1,30,32.49985521160348,-9999,28632.325586375,-0.739593505859375,0.7442169189453125,-0.350982666015625,28632.315509375,-1.404671016007815,-1.385744864564695,-0.7307399593165533,-0.7621042132377625,-1.319257497787476,0.2107339948415756,-0.06344372034072876,0.09669333696365356,-0.3261768221855164,XArbitraryZVertical,-0.5952435429057442,-0.2778049544760396,-0.2900243139512718,0.6959850666751257,-0.7319663763046265,0.6674208641052246,-0.1370190680027008,0,0,0,-1,-1,28619.49941625,unknown,2,2025-04-22T11:29:35.925+03:00,2025-04-21T17:08:51.449+03:00,7169,0.952456,0,0,5985.539,5,20,2025-04-22T11:27:03.726+03:00,767003386.3442003,0,-21.23,100.4574,1,0.9,2025-04-22T11:29:46.812+03:00,76,1.266666666666667,2025-04-22T09:54:17.825+03:00,0.02225348692287972,0
2025-04-22T11:29:48.766+03:00,1745310587.030363,40.95228072708613,29.14030476268771,76.52575,-1,-1,-1,-1,30,32.49985521160348,-9999,28632.335663375,-0.698333740234375,0.74664306640625,-0.2248382568359375,28632.325586375,-1.416154743672434,-1.406907905609447,-0.7341532568682119,-1.00139319896698,-1.345860958099365,0.1492887437343597,-0.04690766334533691,0.06377512216567993,-0.2988412380218506,XArbitraryZVertical,-0.6005724705922628,-0.2806233203950675,-0.2865979994117816,0.6916825032194289,-0.7324502468109131,0.669958770275116,-0.1211265176534653,0,0,0,-1,-1,28619.49941625,unknown,2,2025-04-22T11:29:35.925+03:00,2025-04-21T17:08:51.449+03:00,7169,0.952456,0,0,5985.539,5,20,2025-04-22T11:27:03.726+03:00,767003386.3442003,0,-21.23,100.4574,1,0.9,2025-04-22T11:29:46.812+03:00,76,1.266666666666667,2025-04-22T09:54:17.825+03:00,0.02225348692287972,0
2025-04-22T11:29:48.776+03:00,1745310587.030363,40.95228072708613,29.14030476268771,76.52575,-1,-1,-1,-1,30,32.49985521160348,-9999,28632.345739375,-0.731597900390625,0.7650146484375,-0.120819091796875,28632.335663375,-1.429995584555159,-1.429629668717461,-0.7369128609325436,-1.075486779212952,-1.3293696641922,0.07698629796504974,-0.0004167556762695312,0.07418018579483032,-0.2318660020828247,XArbitraryZVertical,-0.6062924705459541,-0.2833948277343797,-0.2836314033543141,0.6867678000565325,-0.733180046081543,0.6720049381256104,-0.1041936203837395,0,0,0,-1,-1,28619.49941625,unknown,2,2025-04-22T11:29:35.925+03:00,2025-04-21T17:08:51.449+03:00,7169,0.952456,0,0,5985.539,5,20,2025-04-22T11:27:03.726+03:00,767003386.3442003,0,-21.23,100.4574,1,0.9,2025-04-22T11:29:46.812+03:00,76,1.266666666666667,2025-04-22T09:54:17.825+03:00,0.02225348692287972,0
2025-04-22T11:29:48.786+03:00,1745310587.030363,40.95228072708613,29.14030476268771,76.52575,-1,-1,-1,-1,30,32.49985521160348,-9999,28632.355816375,-0.809326171875,0.81134033203125,0.0037384033203125,28632.345739375,-1.443833163667907,-1.45247345338974,-0.7392275186959949,-0.9722220897674561,-1.327024459838867,0.1339438557624817,0.03631240129470825,0.0726509690284729,-0.1226187944412231,XArbitraryZVertical,-0.6119152881620705,-0.286255069459988,-0.280666019370006,0.6817948621552431,-0.7338221073150635,0.6737172603607178,-0.08723542839288712,0,0,0,-1,-1,28619.49941625,unknown,2,2025-04-22T11:29:35.925+03:00,2025-04-21T17:08:51.449+03:00,7169,0.952456,0,0,5985.539,5,20,2025-04-22T11:27:03.726+03:00,767003386.3442003,0,-21.23,100.4574,1,0.9,2025-04-22T11:29:46.812+03:00,76,1.266666666666667,2025-04-22T09:54:17.825+03:00,0.02225348692287972,0
2025-04-22T11:29:48.796+03:00,1745310587.030363,40.95228072708613,29.14030476268771,76.52575,-1,-1,-1,-1,30,32.49985521160348,-9999,28632.365892375,-0.8301849365234375,0.821624755859375,0.153533935546875,28632.355816375,-1.455664625754164,-1.472041795054953,-0.7421323327460145,-0.7760524749755859,-1.011611223220825,0.2378527075052261,-0.008459568023681641,0.09533333778381348,-0.03528929501771927,XArbitraryZVertical,-0.616868481836553,-0.2883399371724115,-0.2777395191541262,0.6776386327129713,-0.7334380745887756,0.6758610606193542,-0.0726667121052742,0,0,0,-1,-1,28619.49941625,unknown,2,2025-04-22T11:29:35.925+03:00,2025-04-21T17:08:51.449+03:00,7169,0.952456,0,0,5985.539,5,20,2025-04-22T11:27:03.726+03:00,767003386.3442003,0,-21.23,100.4574,1,0.9,2025-04-22T11:29:46.812+03:00,76,1.266666666666667,2025-04-22T09:54:17.825+03:00,0.02225348692287972,0
2025-04-22T11:29:48.806+03:00,1745310587.030363,40.95228072708613,29.14030476268771,76.52575,-1,-1,-1,-1,30,32.49985521160348,-9999,28632.375969375,-0.8197479248046875,0.7774200439453125,0.26959228515625,28632.365892375,-1.463179217977192,-1.486861900223966,-0.7447776808374122,-0.3807741403579712,-0.9189077615737915,0.1788240075111389,-0.08369505405426025,0.1378501057624817,0.08403920382261276,XArbitraryZVertical,-0.6204652618119484,-0.2901778095313907,-0.2748400501458643,0.674746346456174,-0.7326502203941345,0.6778083443641663,-0.06163939461112022,0,0,0,-1,-1,28619.49941625,unknown,2,2025-04-22T11:29:35.925+03:00,2025-04-21T17:08:51.449+03:00,7169,0.952456,0,0,5985.539,5,20,2025-04-22T11:27:03.726+03:00,767003386.3442003,0,-21.23,100.4574,1,0.9,2025-04-22T11:29:46.812+03:00,76,1.266666666666667,2025-04-22T09:54:17.825+03:00,0.02225348692287972,0
2025-04-22T11:29:48.816+03:00,1745310587.030363,40.95228072708613,29.14030476268771,76.52575,-1,-1,-1,-1,30,32.49985521160348,-9999,28632.386046375,-0.8343353271484375,0.7771759033203125,0.3262176513671875,28632.375969375,-1.46568061496404,-1.49724260948595,-0.7467599874623685,-0.02745178528130054,-0.7728421092033386,0.1941250711679459,-0.09661257266998291,0.1384233236312866,0.2248150110244751,XArbitraryZVertical,-0.622588463472978,-0.2922629610678324,-0.27181377770597,0.6731145479628425,-0.7319091558456421,0.6792644858360291,-0.05393193289637566,0,0,0,-1,-1,28619.49941625,unknown,2,2025-04-22T11:29:35.925+03:00,2025-04-21T17:08:51.449+03:00,7169,0.952456,0,0,5985.539,5,20,2025-04-22T11:27:03.726+03:00,767003386.3442003,0,-21.23,100.4574,1,0.9,2025-04-22T11:29:46.812+03:00,76,1.266666666666667,2025-04-22T09:54:17.825+03:00,0.02225348692287972,0
2025-04-22T11:29:48.826+03:00,1745310587.030363,40.95228072708613,29.14030476268771,76.52575,-1,-1,-1,-1,30,32.49985521160348,-9999,28632.396122375,-0.845703125,0.760650634765625,0.374603271484375,28632.386046375,-1.464135621909898,-1.502845987169462,-0.7485198067893933,0.219888761639595,-0.5584467649459839,0.1605876237154007,-0.08985579013824463,0.09356904029846191,0.3291065096855164,XArbitraryZVertical,-0.6234187373208023,-0.2940658564741183,-0.2689760961677733,0.6727006222039074,-0.7310060262680054,0.680554986000061,-0.04974870011210442,0,0,0,-1,-1,28619.49941625,unknown,2,2025-04-22T11:29:35.925+03:00,2025-04-21T17:08:51.449+03:00,7169,0.952456,0,0,5985.539,5,20,2025-04-22T11:27:03.726+03:00,767003386.3442003,0,-21.23,100.4574,1,0.9,2025-04-22T11:29:46.812+03:00,76,1.266666666666667,2025-04-22T09:54:17.825+03:00,0.02225348692287972,0
2025-04-22T11:29:48.836+03:00,1745310587.030363,40.95228072708613,29.14030476268771,76.52575,-1,-1,-1,-1,30,32.49985521160348,-9999,28632.406199375,-0.8540191650390625,0.7099609375,0.48016357421875,28632.396122375,-1.459947112480368,-1.504397183345592,-0.7496490581153488,0.3527098000049591,-0.3052668273448944,0.1127081736922264,-0.1062480807304382,0.09759438037872314,0.3780924081802368,XArbitraryZVertical,-0.6232006774768538,-0.2955318494769628,-0.2667154385052327,0.6731601727637585,-0.7303150296211243,0.6813819408416748,-0.04856368154287338,0,0,0,-1,-1,28619.49941625,unknown,2,2025-04-22T11:29:35.925+03:00,2025-04-21T17:08:51.449+03:00,7169,0.952456,0,0,5985.539,5,20,2025-04-22T11:27:03.726+03:00,767003386.3442003,0,-21.23,100.4574,1,0.9,2025-04-22T11:29:46.812+03:00,76,1.266666666666667,2025-04-22T09:54:17.825+03:00,0.02225348692287972,0
2025-04-22T11:29:48.847+03:00,1745310587.030363,40.95228072708613,29.14030476268771,76.52575,-1,-1,-1,-1,30,32.49985521160348,-9999,28632.416276375,-0.8553466796875,0.6823883056640625,0.5979766845703125,28632.406199375,-1.454735220310104,-1.502376389019229,-0.7504957220353352,0.3825675547122955,0.005306504666805267,0.1124453172087669,-0.1170401573181152,0.07159948348999023,0.4348264932632446,XArbitraryZVertical,-0.6223050775188113,-0.296203348932241,-0.265312880025855,0.6742468830992199,-0.72963947057724,0.6820014119148254,-0.04999993368983269,0,0,0,-1,-1,28619.49941625,unknown,2,2025-04-22T11:29:35.925+03:00,2025-04-21T17:08:51.449+03:00,7169,0.952456,0,0,5985.539,5,20,2025-04-22T11:27:03.726+03:00,767003386.3442003,0,-21.23,100.4574,1,0.9,2025-04-22T11:29:46.812+03:00,76,1.266666666666667,2025-04-22T09:54:17.825+03:00,0.02225348692287972,0
2025-04-22T11:29:48.857+03:00,1745310587.030363,40.95228072708613,29.14030476268771,76.52575,-1,-1,-1,-1,30,32.49985521160348,-9999,28632.426352375,-0.832550048828125,0.638885498046875,0.6922454833984375,28632.416276375,-1.449250551481048,-1.496852962628121,-0.7514541581096672,0.4047178626060486,0.3521049320697784,0.1298717260360718,-0.1262194514274597,0.02323037385940552,0.5493422150611877,XArbitraryZVertical,-0.6209258111449729,-0.2957374933852459,-0.2648657222947733,0.6758967535147078,-0.7286999225616455,0.6827020049095154,-0.05398094281554222,0,0,0,-1,-1,28619.49941625,unknown,2,2025-04-22T11:29:35.925+03:00,2025-04-21T17:08:51.449+03:00,7169,0.952456,0,0,5985.539,5,20,2025-04-22T11:27:03.726+03:00,767003386.3442003,0,-21.23,100.4574,1,0.9,2025-04-22T11:29:46.812+03:00,76,1.266666666666667,2025-04-22T09:54:17.825+03:00,0.02225348692287972,0
2025-04-22T11:29:48.867+03:00,1745310587.030363,40.95228072708613,29.14030476268771,76.52575,-1,-1,-1,-1,30,32.49985521160348,-9999,28632.436429375,-0.804534912109375,0.5999603271484375,0.7941436767578125,28632.426352375,-1.443176690461148,-1.487375321519221,-0.7523342835956144,0.4698595702648163,0.7073424458503723,0.1095776259899139,-0.126126766204834,-0.005381762981414795,0.6723916530609131,XArbitraryZVertical,-0.6189263297049165,-0.2941306708486049,-0.2654605175288175,0.6781946336992256,-0.7275567054748535,0.683344841003418,-0.06083469465374947,0,0,0,-1,-1,28619.49941625,unknown,2,2025-04-22T11:29:35.925+03:00,2025-04-21T17:08:51.449+03:00,7169,0.952456,0,0,5985.539,5,20,2025-04-22T11:27:03.726+03:00,767003386.3442003,0,-21.23,100.4574,1,0.9,2025-04-22T11:29:46.812+03:00,76,1.266666666666667,2025-04-22T09:54:17.825+03:00,0.02225348692287972,0
2025-04-22T11:29:48.877+03:00,1745310587.030363,40.95228072708613,29.14030476268771,76.52575,-1,-1,-1,-1,30,32.49985521160348,-9999,28632.446506375,-0.782318115234375,0.592926025390625,0.891754150390625,28632.436429375,-1.435456006330409,-1.473242895908625,-0.7527512291269317,0.6487404108047485,1.045867800712585,0.07468835264444351,-0.101997971534729,-0.05077588558197021,0.7742227911949158,XArbitraryZVertical,-0.6159879430914322,-0.2915776536345479,-0.2670638271655537,0.6813355026405375,-0.7263405919075012,0.6836492419242859,-0.07108265161514282,0,0,0,-1,-1,28619.49941625,unknown,2,2025-04-22T11:29:35.925+03:00,2025-04-21T17:08:51.449+03:00,7169,0.952456,0,0,5985.539,5,20,2025-04-22T11:27:03.726+03:00,767003386.3442003,0,-21.23,100.4574,1,0.9,2025-04-22T11:29:46.812+03:00,76,1.266666666666667,2025-04-22T09:54:17.825+03:00,0.02225348692287972,0
2025-04-22T11:29:48.887+03:00,1745310587.030363,40.95228072708613,29.14030476268771,76.52575,-1,-1,-1,-1,30,32.49985521160348,-9999,28632.456582375,-0.7573089599609375,0.6024322509765625,0.909027099609375,28632.446506375,-1.424941126723271,-1.453956489273295,-0.7525189005434543,0.8729956150054932,1.356538772583008,0.03878121823072433,-0.07633811235427856,-0.08626610040664673,0.8941164612770081,XArbitraryZVertical,-0.6118346440045475,-0.2882890560029299,-0.2694661489627149,0.6855184965023682,-0.7249923944473267,0.6834796667098999,-0.08509557694196701,0,0,0,-1,-1,28619.49941625,unknown,2,2025-04-22T11:29:35.925+03:00,2025-04-21T17:08:51.449+03:00,7169,0.952456,0,0,5985.539,5,20,2025-04-22T11:27:03.726+03:00,767003386.3442003,0,-21.23,100.4574,1,0.9,2025-04-22T11:29:46.812+03:00,76,1.266666666666667,2025-04-22T09:54:17.825+03:00,0.02225348692287972,0
2025-04-22T11:29:48.897+03:00,1745310587.030363,40.95228072708613,29.14030476268771,76.52575,-1,-1,-1,-1,30,32.49985521160348,-9999,28632.466659375,-0.72515869140625,0.6039276123046875,0.933685302734375,28632.456582375,-1.412017163818885,-1.429946281332877,-0.7510436021685228,0.9922884106636047,1.652051687240601,-0.09608844667673111,-0.05555868148803711,-0.08898782730102539,1.00091814994812,XArbitraryZVertical,-0.6064542519237766,-0.2844366537231899,-0.2728091099148225,0.6905680014514678,-0.7237381935119629,0.6824019551277161,-0.1026180610060692,0,0,0,-1,-1,28619.49941625,unknown,2,2025-04-22T11:29:35.925+03:00,2025-04-21T17:08:51.449+03:00,7169,0.952456,0,0,5985.539,5,20,2025-04-22T11:27:03.726+03:00,767003386.3442003,0,-21.23,100.4574,1,0.9,2025-04-22T11:29:46.812+03:00,76,1.266666666666667,2025-04-22T09:54:17.825+03:00,0.02225348692287972,0
2025-04-22T11:29:48.907+03:00,1745310587.030363,40.95228072708613,29.14030476268771,76.52575,-1,-1,-1,-1,30,32.49985521160348,-9999,28632.476735375,-0.6907958984375,0.575775146484375,1.026870727539062,28632.466659375,-1.398895623180468,-1.402939343637488,-0.7476947628746637,0.9933995008468628,1.93856418132782,-0.2671805620193481,-0.03138124942779541,-0.07622110843658447,1.031532287597656,XArbitraryZVertical,-0.6002412339562446,-0.2801031983373047,-0.2774826085817145,0.6958850200994134,-0.7229522466659546,0.6799502372741699,-0.122505322098732,0,0,0,-1,-1,28619.49941625,unknown,2,2025-04-22T11:29:35.925+03:00,2025-04-21T17:08:51.449+03:00,7169,0.952456,0,0,5985.539,5,20,2025-04-22T11:27:03.726+03:00,767003386.3442003,0,-21.23,100.4574,1,0.9,2025-04-22T11:29:46.812+03:00,76,1.266666666666667,2025-04-22T09:54:17.825+03:00,0.02225348692287972,0
2025-04-22T11:29:48.917+03:00,1745310587.030363,40.95228072708613,29.14030476268771,76.52575,-1,-1,-1,-1,30,32.49985521160348,-9999,28632.486812375,-0.698211669921875,0.4938201904296875,1.14300537109375,28632.476735375,-1.386531230917604,-1.373294414087836,-0.7427601168370307,0.9605728387832642,2.279754877090454,-0.3244593143463135,0.002619266510009766,-0.07277762889862061,1.086721181869507,XArbitraryZVertical,-0.593380310204961,-0.2750116028756334,-0.2835805866591525,0.7013204593650199,-0.7222847938537598,0.6763235926628113,-0.1445368528366089,0,0,0,-1,-1,28619.49941625,unknown,2,2025-04-22T11:29:35.925+03:00,2025-04-21T17:08:51.449+03:00,7169,0.952456,0,0,5985.539,5,20,2025-04-22T11:27:03.726+03:00,767003386.3442003,0,-21.23,100.4574,1,0.9,2025-04-22T11:29:46.812+03:00,76,1.266666666666667,2025-04-22T09:54:17.825+03:00,0.02225348692287972,0
2025-04-22T11:29:48.927+03:00,1745310587.030363,40.95228072708613,29.14030476268771,76.52575,-1,-1,-1,-1,30,32.49985521160348,-9999,28632.496889375,-0.7508697509765625,0.368408203125,1.356491088867188,28632.486812375,-1.374956969467938,-1.34032987160864,-0.7386457687445953,0.835799515247345,2.766652822494507,-0.1609027236700058,0.03063791990280151,-0.1048822999000549,1.208982825279236,XArbitraryZVertical,-0.5862235532761974,-0.268128593208638,-0.2905235201267541,0.707138562827913,-0.7198315858840942,0.6732872128486633,-0.1688980013132095,0,0,0,-1,-1,28619.49941625,unknown,2,2025-04-22T11:29:35.925+03:00,2025-04-21T17:08:51.449+03:00,7169,0.952456,0,0,5985.539,5,20,2025-04-22T11:27:03.726+03:00,767003388.9109026,0,-21.24,100.4575,1,0.9,2025-04-22T11:29:46.812+03:00,76,1.266666666666667,2025-04-22T09:54:17.825+03:00,0.02225348692287972,0
2025-04-22T11:29:48.937+03:00,1745310587.030363,40.95228072708613,29.14030476268771,76.52575,-1,-1,-1,-1,30,32.49985521160348,-9999,28632.506965375,-0.7709197998046875,0.2111358642578125,1.626144409179688,28632.496889375,-1.366296257595482,-1.303864083412986,-0.7347818408627099,0.5794860124588013,3.24456787109375,-0.2339726388454437,0.01326125860214233,-0.1902923583984375,1.357914805412292,XArbitraryZVertical,-0.5788739875630766,-0.2589361625390773,-0.299274821711552,0.7129457084055075,-0.7156996726989746,0.6704252958297729,-0.1957139372825623,0,0,0,-1,-1,28619.49941625,unknown,2,2025-04-22T11:29:35.925+03:00,2025-04-21T17:08:51.449+03:00,7169,0.952456,0,0,5985.539,5,20,2025-04-22T11:27:03.726+03:00,767003388.9109026,0,-21.24,100.4575,1,0.9,2025-04-22T11:29:46.812+03:00,76,1.266666666666667,2025-04-22T09:54:17.825+03:00,0.02225348692287972,0
2025-04-22T11:29:48.947+03:00,1745310587.030363,40.95228072708613,29.14030476268771,76.52575,-1,-1,-1,-1,30,32.49985521160348,-9999,28632.517042375,-0.650360107421875,0.044036865234375,1.817733764648438,28632.506965375,-1.362452676169585,-1.26547691937675,-0.7317681567577439,0.08153215050697327,3.953924417495728,-0.2141685783863068,-0.04964649677276611,-0.3184701204299927,1.614359378814697,XArbitraryZVertical,-0.571871271290493,-0.2472685813843428,-0.309870155266905,0.7181935215839604,-0.7095850706100464,0.6681861877441406,-0.2236429899930954,0,0,0,-1,-1,28619.49941625,unknown,2,2025-04-22T11:29:35.925+03:00,2025-04-21T17:08:51.449+03:00,7169,0.952456,0,0,5985.539,5,20,2025-04-22T11:27:03.726+03:00,767003388.9109026,0,-21.24,100.4575,1,0.9,2025-04-22T11:29:46.812+03:00,76,1.266666666666667,2025-04-22T09:54:17.825+03:00,0.02225348692287972,0
2025-04-22T11:29:48.957+03:00,1745310587.030363,40.95228072708613,29.14030476268771,76.52575,-1,-1,-1,-1,30,32.49985521160348,-9999,28632.527119375,-0.487640380859375,-0.2227630615234375,1.951736450195312,28632.517042375,-1.365094866868787,-1.226408719073495,-0.7319512205385224,-0.4944263696670532,4.37633228302002,0.1552970260381699,-0.06277656555175781,-0.4769772291183472,1.906724691390991,XArbitraryZVertical,-0.5660594159178789,-0.2323867908243802,-0.3218810072745906,0.7224719965977213,-0.700193464756012,0.6683223843574524,-0.2511462271213531,0,0,0,-1,-1,28619.49941625,unknown,2,2025-04-22T11:29:35.925+03:00,2025-04-21T17:08:51.449+03:00,7169,0.952456,0,0,5985.539,5,20,2025-04-22T11:27:03.726+03:00,767003388.9109026,0,-21.24,100.4575,1,0.9,2025-04-22T11:29:46.812+03:00,76,1.266666666666667,2025-04-22T09:54:17.825+03:00,0.02225348692287972,0
2025-04-22T11:29:48.967+03:00,1745310587.030363,40.95228072708613,29.14030476268771,76.52575,-1,-1,-1,-1,30,32.49985521160348,-9999,28632.537195375,-0.312713623046875,-0.5035552978515625,1.992538452148438,28632.527119375,-1.372544610908907,-1.183977885217597,-0.7403212647971774,-1.127695441246033,5.143109798431396,0.8742080330848694,0.05347162485122681,-0.6573895812034607,2.114712953567505,XArbitraryZVertical,-0.5618824196878899,-0.2122207462155807,-0.3340459852458085,0.7264047322842235,-0.6837054491043091,0.6745251417160034,-0.2785010039806366,0,0,0,-1,-1,28619.49941625,unknown,2,2025-04-22T11:29:35.925+03:00,2025-04-21T17:08:51.449+03:00,7169,0.952456,0,0,5985.539,5,20,2025-04-22T11:27:03.726+03:00,767003388.9109026,0,-21.24,100.4575,1,0.9,2025-04-22T11:29:46.812+03:00,76,1.266666666666667,2025-04-22T09:54:17.825+03:00,0.02225348692287972,0
2025-04-22T11:29:48.977+03:00,1745310587.030363,40.95228072708613,29.14030476268771,76.52575,-1,-1,-1,-1,30,32.49985521160348,-9999,28632.547272375,-0.2654571533203125,-0.764007568359375,1.733718872070312,28632.537195375,-1.3895983494081,-1.142707449703356,-0.7571254387171016,-3.147230386734009,5.337384223937988,1.437437772750854,0.1955585479736328,-0.9469212293624878,2.26511812210083,XArbitraryZVertical,-0.5605207962871224,-0.1869608657094257,-0.3468827171923365,0.7283779725528234,-0.6612263321876526,0.686834990978241,-0.3017241358757019,0,0,0,-1,-1,28619.49941625,unknown,2,2025-04-22T11:29:35.925+03:00,2025-04-21T17:08:51.449+03:00,7169,0.952456,0,0,5985.539,5,20,2025-04-22T11:27:03.726+03:00,767003388.9109026,0,-21.24,100.4575,1,0.9,2025-04-22T11:29:46.812+03:00,76,1.266666666666667,2025-04-22T09:54:17.825+03:00,0.02225348692287972,0
2025-04-22T11:29:48.988+03:00,1745310587.030363,40.95228072708613,29.14030476268771,76.52575,-1,-1,-1,-1,30,32.49985521160348,-9999,28632.557349375,0.75048828125,0.0167388916015625,-4.336563110351562,28632.547272375,-1.402847467421667,-1.142063608830626,-0.7708919205932779,0.5881614089012146,1.93569815158844,0.1412573605775833,0.3555559515953064,-1.23371696472168,2.288851976394653,XArbitraryZVertical,-0.5648439443970281,-0.1784826435298107,-0.3478507100482726,0.7267015231967338,-0.6523699760437012,0.6967752575874329,-0.2981905341148376,0,0,0,-1,-1,28619.49941625,unknown,2,2025-04-22T11:29:35.925+03:00,2025-04-21T17:08:51.449+03:00,7169,0.952456,0,0,5985.539,5,20,2025-04-22T11:27:03.726+03:00,767003388.9109026,0,-21.24,100.4575,1,0.9,2025-04-22T11:29:46.812+03:00,76,1.266666666666667,2025-04-22T09:54:17.825+03:00,0.02225348692287972,0
2025-04-22T11:29:48.998+03:00,1745310587.030363,40.95228072708613,29.14030476268771,76.52575,-1,-1,-1,-1,30,32.49985521160348,-9999,28632.567425375,0.99578857421875,5.881454467773438,-9.124649047851562,28632.557349375,-1.404255769012067,-1.148543224867833,-0.7384643890557044,-2.579940557479858,-2.484364032745361,-6.314597606658936,0.4333705902099609,-1.466152548789978,1.82814610004425,XArbitraryZVertical,-0.5585292304899812,-0.1910882806808981,-0.3560206824910679,0.7244167652173765,-0.6745510101318359,0.6731531023979187,-0.3030607402324677,0,0,0,-1,-1,28619.49941625,unknown,2,2025-04-22T11:29:35.925+03:00,2025-04-21T17:08:51.449+03:00,7169,0.952456,0,0,5985.539,5,20,2025-04-22T11:27:03.726+03:00,767003388.9109026,0,-21.24,100.4575,1,0.9,2025-04-22T11:29:46.812+03:00,76,1.266666666666667,2025-04-22T09:54:17.825+03:00,0.02225348692287972,0
2025-04-22T11:29:49.008+03:00,1745310587.030363,40.95228072708613,29.14030476268771,76.52575,-1,-1,-1,-1,30,32.49985521160348,-9999,28632.577502375,0.414215087890625,4.245773315429688,-2.4564208984375,28632.567425375,-1.45087047821998,-1.21729639492263,-0.7161068374024814,-1.271875619888306,-3.634647130966187,-0.6562098264694214,1.660145282745361,-0.2006424069404602,-5.387761116027832,XArbitraryZVertical,-0.570406632668373,-0.2099084900532749,-0.3598757647115264,0.7078588246339971,-0.7077221870422363,0.6564527750015259,-0.2611494064331055,0,0,0,-1,-1,28619.49941625,unknown,2,2025-04-22T11:29:35.925+03:00,2025-04-21T17:08:51.449+03:00,7169,0.952456,0,0,5985.539,5,20,2025-04-22T11:27:03.726+03:00,767003388.9109026,0,-21.24,100.4575,1,0.9,2025-04-22T11:29:46.812+03:00,76,1.266666666666667,2025-04-22T09:54:17.825+03:00,0.02225348692287972,0
2025-04-22T11:29:49.018+03:00,1745310587.030363,40.95228072708613,29.14030476268771,76.52575,-1,-1,-1,-1,30,32.49985521160348,-9999,28632.587579375,-0.014923095703125,-2.671463012695312,-1.677291870117188,28632.577502375,-1.449667424721182,-1.238007621396603,-0.7047771934142332,1.202900528907776,-1.063418388366699,-1.382777214050293,1.552969932556152,5.896798133850098,-8.188879013061523,XArbitraryZVertical,-0.5714916228777447,-0.2212964690352604,-0.3568959751259626,0.7050179979377508,-0.7199621200561523,0.6478641033172607,-0.2488503903150558,0,0,0,-1,-1,28619.49941625,unknown,2,2025-04-22T11:29:35.925+03:00,2025-04-21T17:08:51.449+03:00,7169,0.952456,0,0,5985.539,5,20,2025-04-22T11:27:03.726+03:00,767003388.9109026,0,-21.24,100.4575,1,0.9,2025-04-22T11:29:46.812+03:00,76,1.266666666666667,2025-04-22T09:54:17.825+03:00,0.02225348692287972,0
2025-04-22T11:29:49.028+03:00,1745310587.030363,40.95228072708613,29.14030476268771,76.52575,-1,-1,-1,-1,30,32.49985521160348,-9999,28632.597655375,-1.353515625,1.06549072265625,0.6645355224609375,28632.587579375,-1.436096401525122,-1.23691727010482,-0.6909186052559916,1.310852527618408,-0.4131655991077423,-0.661817729473114,1.182769775390625,2.421683788299561,-1.839273929595947,XArbitraryZVertical,-0.5666929100633811,-0.2293084978229599,-0.3565276782267079,0.70651584185375,-0.7281035780906677,0.6372453570365906,-0.2525535225868225,0,0,0,-1,-1,28619.49941625,unknown,2,2025-04-22T11:29:35.925+03:00,2025-04-21T17:08:51.449+03:00,7169,0.952456,0,0,5985.539,5,20,2025-04-22T11:27:03.726+03:00,767003388.9109026,0,-21.24,100.4575,1,0.9,2025-04-22T11:29:46.812+03:00,76,1.266666666666667,2025-04-22T09:54:17.825+03:00,0.02225348692287972,0
2025-04-22T11:29:49.045+03:00,1745310587.030363,40.95228072708613,29.14030476268771,76.52575,-1,-1,-1,-1,30,32.49985521160348,-9999,28632.607732375,-1.722824096679688,1.3143310546875,0.505218505859375,28632.597655375,-1.425545765668261,-1.232407685704638,-0.6864161598607132,0.6791291236877441,0.1113604307174683,0.4674244225025177,0.5314447283744812,-3.248042345046997,-1.25020432472229,XArbitraryZVertical,-0.5636572930673426,-0.2321601029509894,-0.3554019027710521,0.7085771553046564,-0.729656457901001,0.6337690949440002,-0.2567842900753021,0,0,0,-1,-1,28619.49941625,unknown,2,2025-04-22T11:29:35.925+03:00,2025-04-21T17:08:51.449+03:00,7169,0.952456,0,0,5985.539,5,20,2025-04-22T11:27:03.726+03:00,767003388.9109026,0,-21.24,100.4575,1,0.9,2025-04-22T11:29:46.812+03:00,76,1.266666666666667,2025-04-22T09:54:17.825+03:00,0.02225348692287972,0
2025-04-22T11:29:49.048+03:00,1745310587.030363,40.95228072708613,29.14030476268771,76.52575,-1,-1,-1,-1,30,32.49985521160348,-9999,28632.617808375,-0.85369873046875,-0.4622344970703125,-0.709747314453125,28632.607732375,-1.415502788274814,-1.220786640901764,-0.6882875190191505,0.5997517108917236,0.7668344378471375,0.331192284822464,-0.7391986846923828,0.8644486665725708,1.13353705406189,XArbitraryZVertical,-0.5608615594554022,-0.2302494788036452,-0.3545500631801956,0.7118382660003126,-0.7255077958106995,0.6352155208587646,-0.2648389637470245,0,0,0,-1,-1,28619.49941625,unknown,2,2025-04-22T11:29:35.925+03:00,2025-04-21T17:08:51.449+03:00,7169,0.952456,0,0,5985.539,5,20,2025-04-22T11:27:03.726+03:00,767003388.9109026,0,-21.24,100.4575,1,0.9,2025-04-22T11:29:46.812+03:00,76,1.266666666666667,2025-04-22T09:54:17.825+03:00,0.02225348692287972,0
2025-04-22T11:29:49.059+03:00,1745310587.030363,40.95228072708613,29.14030476268771,76.52575,-1,-1,-1,-1,30,32.49985521160348,-9999,28632.627885375,-0.160675048828125,0.88958740234375,-0.395233154296875,28632.617808375,-1.407532494343465,-1.209968527895413,-0.6895362657507572,0.4870441257953644,0.3391360938549042,0.3951214551925659,-0.9463552236557007,0.3538411259651184,0.568992018699646,XArbitraryZVertical,-0.5583198414407688,-0.2282172015965943,-0.3543670345208104,0.714576759849087,-0.7218577265739441,0.6361794471740723,-0.2723917365074158,0,0,0,-1,-1,28619.49941625,unknown,2,2025-04-22T11:29:35.925+03:00,2025-04-21T17:08:51.449+03:00,7169,0.952456,0,0,5985.539,5,20,2025-04-22T11:27:03.726+03:00,767003388.9109026,0,-21.24,100.4575,1,0.9,2025-04-22T11:29:46.812+03:00,76,1.266666666666667,2025-04-22T09:54:17.825+03:00,0.02225348692287972,0
2025-04-22T11:29:49.068+03:00,1745310587.030363,40.95228072708613,29.14030476268771,76.52575,-1,-1,-1,-1,30,32.49985521160348,-9999,28632.637962375,-0.4717864990234375,1.09185791015625,-0.5465545654296875,28632.627885375,-1.398353923974189,-1.201984885681934,-0.6918235151852745,0.6851963400840759,0.1560006141662598,0.5110845565795898,-0.003302693367004395,-1.059573531150818,-0.4440132975578308,XArbitraryZVertical,-0.5563991821144735,-0.2271774996073757,-0.352634338531119,0.7172581324857278,-0.7183007597923279,0.6379424929618835,-0.2776206731796265,0,0,0,-1,-1,28619.49941625,unknown,2,2025-04-22T11:29:35.925+03:00,2025-04-21T17:08:51.449+03:00,7169,0.952456,0,0,5985.539,5,20,2025-04-22T11:27:03.726+03:00,767003388.9109026,0,-21.24,100.4575,1,0.9,2025-04-22T11:29:46.812+03:00,76,1.266666666666667,2025-04-22T09:54:17.825+03:00,0.02225348692287972,0
2025-04-22T11:29:49.078+03:00,1745310587.030363,40.95228072708613,29.14030476268771,76.52575,-1,-1,-1,-1,30,32.49985521160348,-9999,28632.648038375,-0.9089813232421875,0.32080078125,-0.3413848876953125,28632.637962375,-1.388018803019677,-1.193651452995046,-0.693742822026828,0.5868452787399292,0.1851017624139786,0.4277274906635284,0.5641421675682068,0.4189759492874146,-0.09165623784065247,XArbitraryZVertical,-0.5542158653309553,-0.2264332739467637,-0.3506712886541283,0.7201405620060145,-0.7148227691650391,0.6394193768501282,-0.2831454873085022,0,0,0,-1,-1,28619.49941625,unknown,2,2025-04-22T11:29:35.925+03:00,2025-04-21T17:08:51.449+03:00,7169,0.952456,0,0,5985.539,5,20,2025-04-22T11:27:03.726+03:00,767003388.9109026,0,-21.24,100.4575,1,0.9,2025-04-22T11:29:46.812+03:00,76,1.266666666666667,2025-04-22T09:54:17.825+03:00,0.02225348692287972,0
2025-04-22T11:29:49.088+03:00,1745310587.030363,40.95228072708613,29.14030476268771,76.52575,-1,-1,-1,-1,30,32.49985521160348,-9999,28632.658115375,-0.979522705078125,0.4070281982421875,-0.1131439208984375,28632.648038375,-1.380768746167673,-1.186904505274829,-0.6957128575704153,0.3122597634792328,0.229933962225914,0.3556857705116272,0.1695818901062012,0.3340121507644653,-0.2769179344177246,XArbitraryZVertical,-0.5526866878369849,-0.2253723031423843,-0.3493469287430241,0.7222890030582024,-0.7117266654968262,0.6409327983856201,-0.2874895036220551,0,0,0,-1,-1,28619.49941625,unknown,2,2025-04-22T11:29:35.925+03:00,2025-04-21T17:08:51.449+03:00,7169,0.952456,0,0,5985.539,5,20,2025-04-22T11:27:03.726+03:00,767003388.9109026,0,-21.24,100.4575,1,0.9,2025-04-22T11:29:46.812+03:00,76,1.266666666666667,2025-04-22T09:54:17.825+03:00,0.02225348692287972,0
2025-04-22T11:29:49.098+03:00,1745310587.030363,40.95228072708613,29.14030476268771,76.52575,-1,-1,-1,-1,30,32.49985521160348,-9999,28632.668192375,-0.8570709228515625,0.5830078125,-0.3376922607421875,28632.658115375,-1.376182400109768,-1.181797154232701,-0.6978477726497297,0.1850306540727615,0.1836755722761154,0.292312890291214,-0.2268707156181335,-0.3463971614837646,0.005109131336212158,XArbitraryZVertical,-0.5517934205706702,-0.2241058829378572,-0.3484746388301209,0.723785827862065,-0.7089813351631165,0.6425700783729553,-0.2906011343002319,0,0,0,-1,-1,28619.49941625,unknown,2,2025-04-22T11:29:35.925+03:00,2025-04-21T17:08:51.449+03:00,7169,0.952456,0,0,5985.539,5,20,2025-04-22T11:27:03.726+03:00,767003388.9109026,0,-21.24,100.4575,1,0.9,2025-04-22T11:29:46.812+03:00,76,1.266666666666667,2025-04-22T09:54:17.825+03:00,0.02225348692287972,0
2025-04-22T11:29:49.108+03:00,1745310587.030363,40.95228072708613,29.14030476268771,76.52575,-1,-1,-1,-1,30,32.49985521160348,-9999,28632.678268375,-0.786834716796875,0.718170166015625,-0.4096527099609375,28632.668192375,-1.373089760008692,-1.178376356468515,-0.6993381354425804,0.1431942582130432,0.1026278659701347,0.1632300019264221,-0.2631173729896545,-0.2121165990829468,0.1637366116046906,XArbitraryZVertical,-0.5512116943347567,-0.2232410694854284,-0.3478623890788959,0.7247901994733104,-0.7070975303649902,0.6437113285064697,-0.2926581799983978,0,0,0,-1,-1,28619.49941625,unknown,2,2025-04-22T11:29:35.925+03:00,2025-04-21T17:08:51.449+03:00,7169,0.952456,0,0,5985.539,5,20,2025-04-22T11:27:03.726+03:00,767003388.9109026,0,-21.24,100.4575,1,0.9,2025-04-22T11:29:46.812+03:00,76,1.266666666666667,2025-04-22T09:54:17.825+03:00,0.02225348692287972,0
2025-04-22T11:29:49.119+03:00,1745310587.030363,40.95228072708613,29.14030476268771,76.52575,-1,-1,-1,-1,30,32.49985521160348,-9999,28632.688345375,-0.749420166015625,0.6412506103515625,-0.3170166015625,28632.678268375,-1.370612642986213,-1.175964446173674,-0.6998662211673439,0.165645107626915,0.06617385149002075,0.08088140934705734,-0.1356754302978516,-0.03882986307144165,-0.06804227828979492,XArbitraryZVertical,-0.5506440015418176,-0.2228793453192034,-0.3474743740908172,0.7255187394815822,-0.7060756683349609,0.6441153883934021,-0.2942319512367249,0,0,0,-1,-1,28619.49941625,unknown,2,2025-04-22T11:29:35.925+03:00,2025-04-21T17:08:51.449+03:00,7169,0.952456,0,0,5985.539,5,20,2025-04-22T11:27:03.726+03:00,767003388.9109026,0,-21.24,100.4575,1,0.9,2025-04-22T11:29:46.812+03:00,76,1.266666666666667,2025-04-22T09:54:17.825+03:00,0.02225348692287972,0
2025-04-22T11:29:49.129+03:00,1745310587.030363,40.95228072708613,29.14030476268771,76.52575,-1,-1,-1,-1,30,32.49985521160348,-9999,28632.698421375,-0.65069580078125,0.5929107666015625,-0.26959228515625,28632.688345375,-1.368347575583332,-1.173976105638332,-0.6997743589886725,0.1641750335693359,0.03447584062814713,0.03697599470615387,-0.07900208234786987,0.07418590784072876,-0.1066398918628693,XArbitraryZVertical,-0.5500240048799875,-0.222810492218439,-0.3472262868990201,0.7261286814557271,-0.7055437564849854,0.6440451145172119,-0.2956581711769104,0,0,0,-1,-1,28619.49941625,unknown,2,2025-04-22T11:29:35.925+03:00,2025-04-21T17:08:51.449+03:00,7169,0.952456,0,0,5985.539,5,20,2025-04-22T11:27:03.726+03:00,767003388.9109026,0,-21.24,100.4575,1,0.9,2025-04-22T11:29:46.812+03:00,76,1.266666666666667,2025-04-22T09:54:17.825+03:00,0.02225348692287972,0
2025-04-22T11:29:49.139+03:00,1745310587.030363,40.95228072708613,29.14030476268771,76.52575,-1,-1,-1,-1,30,32.49985521160348,-9999,28632.708498375,-0.563690185546875,0.54974365234375,-0.280426025390625,28632.698421375,-1.366107057845502,-1.172445678475194,-0.6993540569973564,0.180475577712059,-0.01838910393416882,0.01932756043970585,-0.03457403182983398,-0.01487851142883301,-0.0091419517993927,XArbitraryZVertical,-0.54940640816774,-0.2230052072613679,-0.3469557781839254,0.7266655311933338,-0.7053398489952087,0.6437234878540039,-0.2968425452709198,0,0,0,-1,-1,28619.49941625,unknown,2,2025-04-22T11:29:35.925+03:00,2025-04-21T17:08:51.449+03:00,7169,0.952456,0,0,5985.539,5,20,2025-04-22T11:27:03.726+03:00,767003388.9109026,0,-21.24,100.4575,1,0.9,2025-04-22T11:29:46.812+03:00,76,1.266666666666667,2025-04-22T09:54:17.825+03:00,0.02225348692287972,0
