loggingTime(txt),locationTimestamp_since1970(s),locationLatitude(WGS84),locationLongitude(WGS84),locationAltitude(m),locationSpeed(m/s),locationSpeedAccuracy(m/s),locationCourse(°),locationCourseAccuracy(°),locationVerticalAccuracy(m),locationHorizontalAccuracy(m),locationFloor(Z),accelerometerTimestamp_sinceReboot(s),accelerometerAccelerationX(G),accelerometerAccelerationY(G),accelerometerAccelerationZ(G),motionTimestamp_sinceReboot(s),motionYaw(rad),motionRoll(rad),motionPitch(rad),motionRotationRateX(rad/s),motionRotationRateY(rad/s),motionRotationRateZ(rad/s),motionUserAccelerationX(G),motionUserAccelerationY(G),motionUserAccelerationZ(G),motionAttitudeReferenceFrame(txt),motionQuaternionX(R),motionQuaternionY(R),motionQuaternionZ(R),motionQuaternionW(R),motionGravityX(G),motionGravityY(G),motionGravityZ(G),motionMagneticFieldX(µT),motionMagneticFieldY(µT),motionMagneticFieldZ(µT),motionHeading(°),motionMagneticFieldCalibrationAccuracy(Z),activityTimestamp_sinceReboot(s),activity(txt),activityActivityConfidence(Z),activityActivityStartDate(txt),pedometerStartDate(txt),pedometerNumberofSteps(N),pedometerAverageActivePace(s/m),pedometerCurrentPace(s/m),pedometerCurrentCadence(steps/s),pedometerDistance(m),pedometerFloorAscended(N),pedometerFloorDescended(N),pedometerEndDate(txt),altimeterTimestamp_sinceReboot(s),altimeterReset(bool),altimeterRelativeAltitude(m),altimeterPressure(kPa),batteryState(N),batteryLevel(R),heartRateBPMTimestamp(txt),heartRateBPM(N),heartRateBPS(R),heartRateVariabilityTimestamp(txt),heartRateVariability(ms),label
2025-04-22T11:10:41.242+03:00,1745309436.128314,40.9522478792225,29.14028919083181,76.44633,-1,-1,-1,-1,30,23.16803173710119,-9999,27635.83114729167,-0.6953887939453125,0.623565673828125,-0.374420166015625,27635.82107129167,-1.246519315745711,-1.080334154552762,-0.6612603714987266,-0.00740201398730278,0.0235919002443552,0.01744817197322845,0.02163660526275635,-0.024314284324646,0.006681948900222778,XArbitraryZVertical,-0.5099888090646347,-0.2324589142229629,-0.3379047016233566,0.7561047956506686,-0.6961818337440491,0.6141120195388794,-0.3717485368251801,0,0,0,-1,-1,27627.78192266667,unknown,2,2025-04-22T11:10:33.160+03:00,2025-04-21T17:08:51.449+03:00,7097,0.9423593,0,0,5930.618,5,20,2025-04-22T11:09:49.311+03:00,767002240.9890206,0,-21.39,100.4594,1,0.95,2025-04-22T11:05:10.827+03:00,109,1.816666666666667,2025-04-22T09:54:17.825+03:00,0.02225348692287972,0
2025-04-22T11:10:41.244+03:00,1745309436.128314,40.9522478792225,29.14028919083181,76.44633,-1,-1,-1,-1,30,23.16803173710119,-9999,27635.84122329167,-0.69964599609375,0.622894287109375,-0.378997802734375,27635.83114729167,-1.24648004313506,-1.079968789293141,-0.6613749703005678,0.01612328551709652,0.07519064843654633,0.01419751811772585,0.01847851276397705,-0.02756327390670776,0.002600163221359253,XArbitraryZVertical,-0.509954645075988,-0.2322959201445459,-0.3379510960738934,0.7561572553800724,-0.6959839463233948,0.6142024993896484,-0.3719697296619415,0,0,0,-1,-1,27627.78192266667,unknown,2,2025-04-22T11:10:33.160+03:00,2025-04-21T17:08:51.449+03:00,7097,0.9423593,0,0,5930.618,5,20,2025-04-22T11:09:49.311+03:00,767002240.9890206,0,-21.39,100.4594,1,0.95,2025-04-22T11:05:10.827+03:00,109,1.816666666666667,2025-04-22T09:54:17.825+03:00,0.02225348692287972,0
2025-04-22T11:10:41.247+03:00,1745309436.128314,40.9522478792225,29.14028919083181,76.44633,-1,-1,-1,-1,30,23.16803173710119,-9999,27635.85129829167,-0.6982574462890625,0.608642578125,-0.373626708984375,27635.84122329167,-1.24622017612492,-1.078967634249572,-0.6613702345890042,0.02039899118244648,0.10633285343647,0.01498554740101099,-0.0024452805519104,0.01315093040466309,-0.002805352210998535,XArbitraryZVertical,-0.5097539238431671,-0.2319850690399041,-0.3381093903991466,0.7563172888156742,-0.6956138014793396,0.6141987442970276,-0.3726677298545837,0,0,0,-1,-1,27627.78192266667,unknown,2,2025-04-22T11:10:33.160+03:00,2025-04-21T17:08:51.449+03:00,7097,0.9423593,0,0,5930.618,5,20,2025-04-22T11:09:49.311+03:00,767002240.9890206,0,-21.39,100.4594,1,0.95,2025-04-22T11:05:10.827+03:00,109,1.816666666666667,2025-04-22T09:54:17.825+03:00,0.02225348692287972,0
2025-04-22T11:10:41.250+03:00,1745309436.128314,40.9522478792225,29.14028919083181,76.44633,-1,-1,-1,-1,30,23.16803173710119,-9999,27635.86137429167,-0.696533203125,0.61865234375,-0.3754730224609375,27635.85129829167,-1.245856372950123,-1.077607731663758,-0.6615161218646095,0.02061896771192551,0.1021588742733002,0.008981717750430107,-0.004130303859710693,0.005650579929351807,-0.004862368106842041,XArbitraryZVertical,-0.509522813310571,-0.2315190046576718,-0.3382776870107777,0.7565405100576849,-0.6950274109840393,0.6143139004707336,-0.3735709190368652,0,0,0,-1,-1,27627.78192266667,unknown,2,2025-04-22T11:10:33.160+03:00,2025-04-21T17:08:51.449+03:00,7097,0.9423593,0,0,5930.618,5,20,2025-04-22T11:09:49.311+03:00,767002240.9890206,0,-21.39,100.4594,1,0.95,2025-04-22T11:05:10.827+03:00,109,1.816666666666667,2025-04-22T09:54:17.825+03:00,0.02225348692287972,0
2025-04-22T11:10:41.255+03:00,1745309436.128314,40.9522478792225,29.14028919083181,76.44633,-1,-1,-1,-1,30,23.16803173710119,-9999,27635.87145029167,-0.671112060546875,0.6113433837890625,-0.371307373046875,27635.86137429167,-1.245582523405073,-1.076819668555159,-0.6615372410662215,0.01363575924187899,0.02842726930975914,0.008865669369697571,-0.003886997699737549,-0.004116415977478027,0.0003330409526824951,XArbitraryZVertical,-0.5093637021232045,-0.2312842453948716,-0.3383689866094966,0.7566787384113398,-0.694721519947052,0.614330530166626,-0.3741124272346497,0,0,0,-1,-1,27627.78192266667,unknown,2,2025-04-22T11:10:33.160+03:00,2025-04-21T17:08:51.449+03:00,7097,0.9423593,0,0,5930.618,5,20,2025-04-22T11:09:49.311+03:00,767002240.9890206,0,-21.39,100.4594,1,0.95,2025-04-22T11:05:10.827+03:00,109,1.816666666666667,2025-04-22T09:54:17.825+03:00,0.02225348692287972,0
2025-04-22T11:10:41.265+03:00,1745309436.128314,40.9522478792225,29.14028919083181,76.44633,-1,-1,-1,-1,30,23.16803173710119,-9999,27635.88152629167,-0.68084716796875,0.6034698486328125,-0.3732452392578125,27635.87145029167,-1.245473954867552,-1.076492982668625,-0.6615424036930233,0.001926372991874814,0.03036312013864517,0.001540912082418799,0.000962376594543457,0.005187332630157471,-0.00183713436126709,XArbitraryZVertical,-0.509297336053803,-0.231186713089079,-0.3384096624201369,0.7567350048970509,-0.6945964097976685,0.6143345832824707,-0.3743378520011902,0,0,0,-1,-1,27627.78192266667,unknown,2,2025-04-22T11:10:33.160+03:00,2025-04-21T17:08:51.449+03:00,7097,0.9423593,0,0,5930.618,5,20,2025-04-22T11:09:49.311+03:00,767002240.9890206,0,-21.39,100.4594,1,0.95,2025-04-22T11:05:10.827+03:00,109,1.816666666666667,2025-04-22T09:54:17.825+03:00,0.02225348692287972,0
2025-04-22T11:10:41.275+03:00,1745309436.128314,40.9522478792225,29.14028919083181,76.44633,-1,-1,-1,-1,30,23.16803173710119,-9999,27635.89160229167,-0.69921875,0.6084747314453125,-0.37744140625,27635.88152629167,-1.245465770550624,-1.076160212473718,-0.6615802366084391,-0.003503745887428522,0.03843709081411362,0.01045174896717072,0.02550601959228516,-0.0037841796875,0.003494620323181152,XArbitraryZVertical,-0.5092507277120786,-0.2310513598752811,-0.3384807697141858,0.756775889460209,-0.6944513320922852,0.6143644452095032,-0.3745579421520233,0,0,0,-1,-1,27627.78192266667,unknown,2,2025-04-22T11:10:33.160+03:00,2025-04-21T17:08:51.449+03:00,7097,0.9423593,0,0,5930.618,5,20,2025-04-22T11:09:49.311+03:00,767002240.9890206,0,-21.39,100.4594,1,0.95,2025-04-22T11:05:10.827+03:00,109,1.816666666666667,2025-04-22T09:54:17.825+03:00,0.02225348692287972,0
2025-04-22T11:10:41.286+03:00,1745309436.128314,40.9522478792225,29.14028919083181,76.44633,-1,-1,-1,-1,30,23.16803173710119,-9999,27635.90167729167,-0.6937408447265625,0.6085052490234375,-0.3735198974609375,27635.89160229167,-1.245455746413001,-1.075717290712878,-0.6616824315668158,-0.003674720879644156,0.0472140721976757,0.009401131421327591,0.008927345275878906,-0.0111280083656311,-0.0002254843711853027,XArbitraryZVertical,-0.5092033749608453,-0.2308551772045528,-0.3385613058044277,0.7568315430243842,-0.6942300796508789,0.6144450902938843,-0.3748356103897095,0,0,0,-1,-1,27627.78192266667,unknown,2,2025-04-22T11:10:33.160+03:00,2025-04-21T17:08:51.449+03:00,7097,0.9423593,0,0,5930.618,5,20,2025-04-22T11:09:49.311+03:00,767002240.9890206,0,-21.39,100.4594,1,0.95,2025-04-22T11:05:10.827+03:00,109,1.816666666666667,2025-04-22T09:54:17.825+03:00,0.02225348692287972,0
2025-04-22T11:10:41.296+03:00,1745309436.128314,40.9522478792225,29.14028919083181,76.44633,-1,-1,-1,-1,30,23.16803173710119,-9999,27635.91175329167,-0.68829345703125,0.6103057861328125,-0.3727874755859375,27635.90167729167,-1.245451307722621,-1.075293353552834,-0.6618004884724816,-0.00867826770991087,0.03722988069057465,0.0128689669072628,-0.005486071109771729,-0.005926311016082764,-0.001628875732421875,XArbitraryZVertical,-0.5091642886864581,-0.2306599496495258,-0.3386347386920219,0.7568845557333492,-0.6940073370933533,0.6145382523536682,-0.3750954270362854,0,0,0,-1,-1,27627.78192266667,unknown,2,2025-04-22T11:10:33.160+03:00,2025-04-21T17:08:51.449+03:00,7097,0.9423593,0,0,5930.618,5,20,2025-04-22T11:09:49.311+03:00,767002240.9890206,0,-21.39,100.4594,1,0.95,2025-04-22T11:05:10.827+03:00,109,1.816666666666667,2025-04-22T09:54:17.825+03:00,0.02225348692287972,0
2025-04-22T11:10:41.305+03:00,1745309436.128314,40.9522478792225,29.14028919083181,76.44633,-1,-1,-1,-1,30,23.16803173710119,-9999,27635.92182929167,-0.689483642578125,0.612701416015625,-0.3748779296875,27635.91175329167,-1.245484618664687,-1.074893994216818,-0.6619458674140319,-0.007316859904676676,0.04711926355957985,0.01170596480369568,0.0002822279930114746,-0.006651341915130615,0.002145767211914062,XArbitraryZVertical,-0.5091414140853529,-0.2304560662351498,-0.3387085879568893,0.7569290050165716,-0.6937788724899292,0.6146529316902161,-0.3753300309181213,0,0,0,-1,-1,27627.78192266667,unknown,2,2025-04-22T11:10:33.160+03:00,2025-04-21T17:08:51.449+03:00,7097,0.9423593,0,0,5930.618,5,20,2025-04-22T11:09:49.311+03:00,767002240.9890206,0,-21.39,100.4594,1,0.95,2025-04-22T11:05:10.827+03:00,109,1.816666666666667,2025-04-22T09:54:17.825+03:00,0.02225348692287972,0
2025-04-22T11:10:41.315+03:00,1745309436.128314,40.9522478792225,29.14028919083181,76.44633,-1,-1,-1,-1,30,23.16803173710119,-9999,27635.93190529167,-0.6906585693359375,0.6140594482421875,-0.374969482421875,27635.92182929167,-1.245536538995136,-1.074495927070207,-0.6621359541768977,-0.01678712852299213,0.03954143822193146,0.01334777101874352,0.006133437156677246,-0.003184974193572998,0.002366185188293457,XArbitraryZVertical,-0.5091335092209195,-0.23023427823017,-0.3387766968927611,0.7569712481172186,-0.693526566028595,0.6148028373718262,-0.3755505084991455,0,0,0,-1,-1,27627.78192266667,unknown,2,2025-04-22T11:10:33.160+03:00,2025-04-21T17:08:51.449+03:00,7097,0.9423593,0,0,5930.618,5,20,2025-04-22T11:09:49.311+03:00,767002240.9890206,0,-21.39,100.4594,1,0.95,2025-04-22T11:05:10.827+03:00,109,1.816666666666667,2025-04-22T09:54:17.825+03:00,0.02225348692287972,0
2025-04-22T11:10:41.325+03:00,1745309436.128314,40.9522478792225,29.14028919083181,76.44633,-1,-1,-1,-1,30,23.16803173710119,-9999,27635.94198129167,-0.688812255859375,0.6071929931640625,-0.3772430419921875,27635.93190529167,-1.2456628821263,-1.074180224236947,-0.6623165180120192,-0.01894588582217693,0.03722155839204788,0.01046090386807919,0.003277480602264404,-0.002518653869628906,0.0004723668098449707,XArbitraryZVertical,-0.5091453518629526,-0.2300276645386748,-0.3388547144105221,0.7569912509534049,-0.6933104395866394,0.6149452328681946,-0.3757165670394897,0,0,0,-1,-1,27627.78192266667,unknown,2,2025-04-22T11:10:33.160+03:00,2025-04-21T17:08:51.449+03:00,7097,0.9423593,0,0,5930.618,5,20,2025-04-22T11:09:49.311+03:00,767002240.9890206,0,-21.39,100.4594,1,0.95,2025-04-22T11:05:10.827+03:00,109,1.816666666666667,2025-04-22T09:54:17.825+03:00,0.02225348692287972,0
2025-04-22T11:10:41.335+03:00,1745309436.128314,40.9522478792225,29.14028919083181,76.44633,-1,-1,-1,-1,30,23.16803173710119,-9999,27635.95205729167,-0.690948486328125,0.6082000732421875,-0.3761444091796875,27635.94198129167,-1.245879460919492,-1.073945707801454,-0.6625232479240813,-0.02762066759169102,0.0389871671795845,0.01365413423627615,0.00298607349395752,-0.001552462577819824,5.555152893066406e-05,XArbitraryZVertical,-0.5091886760536427,-0.2298208155613602,-0.3389389420384366,0.7569872708792301,-0.6931105852127075,0.6151082515716553,-0.3758185803890228,0,0,0,-1,-1,27627.78192266667,unknown,2,2025-04-22T11:10:33.160+03:00,2025-04-21T17:08:51.449+03:00,7097,0.9423593,0,0,5930.618,5,20,2025-04-22T11:09:49.311+03:00,767002240.9890206,0,-21.39,100.4594,1,0.95,2025-04-22T11:05:10.827+03:00,109,1.816666666666667,2025-04-22T09:54:17.825+03:00,0.02225348692287972,0
2025-04-22T11:10:41.345+03:00,1745309436.128314,40.9522478792225,29.14028919083181,76.44633,-1,-1,-1,-1,30,23.16803173710119,-9999,27635.96213229167,-0.689605712890625,0.6125640869140625,-0.377166748046875,27635.95205729167,-1.24610426774346,-1.073693997093751,-0.6627661389594935,-0.02708670310676098,0.03751683607697487,0.01132306922227144,0.003416180610656738,-0.008656203746795654,-0.0008330941200256348,XArbitraryZVertical,-0.5092402127779538,-0.2295942978848634,-0.3390205869224138,0.756984719331437,-0.6928845643997192,0.6152997612953186,-0.3759217262268066,0,0,0,-1,-1,27627.78192266667,unknown,2,2025-04-22T11:10:33.160+03:00,2025-04-21T17:08:51.449+03:00,7097,0.9423593,0,0,5930.618,5,20,2025-04-22T11:09:49.311+03:00,767002240.9890206,0,-21.39,100.4594,1,0.95,2025-04-22T11:05:10.827+03:00,109,1.816666666666667,2025-04-22T09:54:17.825+03:00,0.02225348692287972,0
2025-04-22T11:10:41.355+03:00,1745309436.128314,40.9522478792225,29.14028919083181,76.44633,-1,-1,-1,-1,30,23.16803173710119,-9999,27635.97220829167,-0.6883544921875,0.613433837890625,-0.3813934326171875,27635.96213229167,-1.246334801412053,-1.073419942884323,-0.6630242492085157,-0.02846362255513668,0.04046915099024773,0.01188416313380003,0.001724004745483398,-0.007089614868164062,0.0006085038185119629,XArbitraryZVertical,-0.5092928209067977,-0.2293532398020495,-0.3391058965086894,0.7569842124745446,-0.6926419734954834,0.615503191947937,-0.3760358393192291,0,0,0,-1,-1,27627.78192266667,unknown,2,2025-04-22T11:10:33.160+03:00,2025-04-21T17:08:51.449+03:00,7097,0.9423593,0,0,5930.618,5,20,2025-04-22T11:09:49.311+03:00,767002240.9890206,0,-21.39,100.4594,1,0.95,2025-04-22T11:05:10.827+03:00,109,1.816666666666667,2025-04-22T09:54:17.825+03:00,0.02225348692287972,0
2025-04-22T11:10:41.365+03:00,1745309436.128314,40.9522478792225,29.14028919083181,76.44633,-1,-1,-1,-1,30,23.16803173710119,-9999,27635.98228429167,-0.687652587890625,0.614410400390625,-0.382843017578125,27635.97220829167,-1.246603406175613,-1.073208702605061,-0.6632661135009327,-0.02962263114750385,0.03503257408738136,0.01154594216495752,0.00307011604309082,-0.001954913139343262,-0.001757621765136719,XArbitraryZVertical,-0.5093558179152349,-0.2291311983767807,-0.3391941512625303,0.7569695673146857,-0.6924316883087158,0.6156938076019287,-0.3761110901832581,0,0,0,-1,-1,27627.78192266667,unknown,2,2025-04-22T11:10:33.160+03:00,2025-04-21T17:08:51.449+03:00,7097,0.9423593,0,0,5930.618,5,20,2025-04-22T11:09:49.311+03:00,767002240.9890206,0,-21.39,100.4594,1,0.95,2025-04-22T11:05:10.827+03:00,109,1.816666666666667,2025-04-22T09:54:17.825+03:00,0.02225348692287972,0
2025-04-22T11:10:41.375+03:00,1745309436.128314,40.9522478792225,29.14028919083181,76.44633,-1,-1,-1,-1,30,23.16803173710119,-9999,27635.99236029167,-0.6870880126953125,0.614471435546875,-0.382843017578125,27635.98228429167,-1.246910280735864,-1.073037011832554,-0.6635167221389727,-0.03614477813243866,0.03872205317020416,0.01329800207167864,0.003922760486602783,-0.002182841300964355,-0.005481421947479248,XArbitraryZVertical,-0.5094323397062075,-0.2289116718331155,-0.3392843756256222,0.75694403878814,-0.6922315359115601,0.6158912181854248,-0.3761562705039978,0,0,0,-1,-1,27627.78192266667,unknown,2,2025-04-22T11:10:33.160+03:00,2025-04-21T17:08:51.449+03:00,7097,0.9423593,0,0,5930.618,5,20,2025-04-22T11:09:49.311+03:00,767002240.9890206,0,-21.39,100.4594,1,0.95,2025-04-22T11:05:10.827+03:00,109,1.816666666666667,2025-04-22T09:54:17.825+03:00,0.02225348692287972,0
2025-04-22T11:10:41.386+03:00,1745309436.128314,40.9522478792225,29.14028919083181,76.44633,-1,-1,-1,-1,30,23.16803173710119,-9999,27636.00243629167,-0.687835693359375,0.6125946044921875,-0.37969970703125,27635.99236029167,-1.247241652547697,-1.072869405318453,-0.6637738709723993,-0.02696353197097778,0.03640030696988106,0.007663819473236799,0.004407167434692383,-0.001729249954223633,-0.007027924060821533,XArbitraryZVertical,-0.5095141277321371,-0.2286854414791571,-0.3393810264765215,0.7569140533829462,-0.6920292973518372,0.6160938143730164,-0.3761966526508331,0,0,0,-1,-1,27627.78192266667,unknown,2,2025-04-22T11:10:33.160+03:00,2025-04-21T17:08:51.449+03:00,7097,0.9423593,0,0,5930.618,5,20,2025-04-22T11:09:49.311+03:00,767002240.9890206,0,-21.39,100.4594,1,0.95,2025-04-22T11:05:10.827+03:00,109,1.816666666666667,2025-04-22T09:54:17.825+03:00,0.02225348692287972,0
2025-04-22T11:10:41.396+03:00,1745309436.128314,40.9522478792225,29.14028919083181,76.44633,-1,-1,-1,-1,30,23.16803173710119,-9999,27636.01251129167,-0.684356689453125,0.6214599609375,-0.370269775390625,27636.00243629167,-1.247423968598316,-1.072726434885031,-0.6639595021413216,-0.0173878688365221,0.01672700233757496,0.01164471171796322,0.005046367645263672,-0.001616179943084717,-0.006602197885513306,XArbitraryZVertical,-0.5095629473437502,-0.2285282526345225,-0.3394348318806167,0.7569044370943929,-0.6918749213218689,0.6162400245666504,-0.3762408792972565,0,0,0,-1,-1,27627.78192266667,unknown,2,2025-04-22T11:10:33.160+03:00,2025-04-21T17:08:51.449+03:00,7097,0.9423593,0,0,5930.618,5,20,2025-04-22T11:09:49.311+03:00,767002240.9890206,0,-21.39,100.4594,1,0.95,2025-04-22T11:05:10.827+03:00,109,1.816666666666667,2025-04-22T09:54:17.825+03:00,0.02225348692287972,0
2025-04-22T11:10:41.406+03:00,1745309436.128314,40.9522478792225,29.14028919083181,76.44633,-1,-1,-1,-1,30,23.16803173710119,-9999,27636.02258729167,-0.6942596435546875,0.620697021484375,-0.3742218017578125,27636.01251129167,-1.247569176269592,-1.072629072399891,-0.6641186083676376,-0.01595748588442802,0.02554339729249477,0.006128773093223572,0.004923582077026367,-0.003587782382965088,-0.002660155296325684,XArbitraryZVertical,-0.5096077222704671,-0.2284059116045469,-0.3394703967762605,0.7568953220591178,-0.6917521953582764,0.6163653135299683,-0.3762614130973816,0,0,0,-1,-1,27627.78192266667,unknown,2,2025-04-22T11:10:33.160+03:00,2025-04-21T17:08:51.449+03:00,7097,0.9423593,0,0,5930.618,5,20,2025-04-22T11:09:49.311+03:00,767002240.9890206,0,-21.39,100.4594,1,0.95,2025-04-22T11:05:10.827+03:00,109,1.816666666666667,2025-04-22T09:54:17.825+03:00,0.02225348692287972,0
2025-04-22T11:10:41.416+03:00,1745309436.128314,40.9522478792225,29.14028919083181,76.44633,-1,-1,-1,-1,30,23.16803173710119,-9999,27636.03266329167,-0.696014404296875,0.60626220703125,-0.3813629150390625,27636.02258729167,-1.247728127488437,-1.072431167829435,-0.664199342304178,-0.01752748526632786,0.02696492522954941,-0.001758344937115908,0.006621241569519043,0.006297409534454346,0.006623446941375732,XArbitraryZVertical,-0.5096149649812642,-0.2282658991090979,-0.3395585500200364,0.7568931570730808,-0.6916340589523315,0.6164289116859436,-0.3763745427131653,0,0,0,-1,-1,27627.78192266667,unknown,2,2025-04-22T11:10:33.160+03:00,2025-04-21T17:08:51.449+03:00,7097,0.9423593,0,0,5930.618,5,20,2025-04-22T11:09:49.311+03:00,767002240.9890206,0,-21.39,100.4594,1,0.95,2025-04-22T11:05:10.827+03:00,109,1.816666666666667,2025-04-22T09:54:17.825+03:00,0.02225348692287972,0
2025-04-22T11:10:41.426+03:00,1745309436.128314,40.9522478792225,29.14028919083181,76.44633,-1,-1,-1,-1,30,23.16803173710119,-9999,27636.04273929167,-0.6808319091796875,0.606964111328125,-0.371673583984375,27636.03266329167,-1.248027640498439,-1.072420690307097,-0.6643185301997069,-0.03384813666343689,0.01177105959504843,0.004206869285553694,-0.004235327243804932,0.002648234367370605,-0.000286102294921875,XArbitraryZVertical,-0.5096808872692306,-0.228149243109643,-0.3396414332922427,0.7568467060496128,-0.6915655136108398,0.6165227293968201,-0.376346617937088,0,0,0,-1,-1,27627.78192266667,unknown,2,2025-04-22T11:10:33.160+03:00,2025-04-21T17:08:51.449+03:00,7097,0.9423593,0,0,5930.618,5,20,2025-04-22T11:09:49.311+03:00,767002240.9890206,0,-21.39,100.4594,1,0.95,2025-04-22T11:05:10.827+03:00,109,1.816666666666667,2025-04-22T09:54:17.825+03:00,0.02225348692287972,0
2025-04-22T11:10:41.436+03:00,1745309436.128314,40.9522478792225,29.14028919083181,76.44633,-1,-1,-1,-1,30,23.16803173710119,-9999,27636.05281529167,-0.6815338134765625,0.6015625,-0.373199462890625,27636.04273929167,-1.248408538898692,-1.072509975701291,-0.6645230682914692,-0.03952819108963013,0.01637426763772964,0.007600102573633194,-0.002786576747894287,-0.0115966796875,-0.003902405500411987,XArbitraryZVertical,-0.5097969925152265,-0.2280235398635886,-0.3397059604264791,0.7567773834910907,-0.6914882659912109,0.6166837811470032,-0.3762245774269104,0,0,0,-1,-1,27627.78192266667,unknown,2,2025-04-22T11:10:33.160+03:00,2025-04-21T17:08:51.449+03:00,7097,0.9423593,0,0,5930.618,5,20,2025-04-22T11:09:49.311+03:00,767002240.9890206,0,-21.39,100.4594,1,0.95,2025-04-22T11:05:10.827+03:00,109,1.816666666666667,2025-04-22T09:54:17.825+03:00,0.02225348692287972,0
2025-04-22T11:10:41.446+03:00,1745309436.128314,40.9522478792225,29.14028919083181,76.44633,-1,-1,-1,-1,30,23.16803173710119,-9999,27636.06289029167,-0.6798858642578125,0.610626220703125,-0.3692626953125,27636.05281529167,-1.248844779476201,-1.072649884384966,-0.6648433156236648,-0.05153904855251312,0.007639897987246513,0.01646949350833893,0.01125264167785645,-0.01041436195373535,0.005336403846740723,XArbitraryZVertical,-0.5099604127374486,-0.2278675730470322,-0.3397463742933716,0.7566961786005812,-0.6913674473762512,0.6169358491897583,-0.3760334849357605,0,0,0,-1,-1,27627.78192266667,unknown,2,2025-04-22T11:10:33.160+03:00,2025-04-21T17:08:51.449+03:00,7097,0.9423593,0,0,5930.618,5,20,2025-04-22T11:09:49.311+03:00,767002240.9890206,0,-21.39,100.4594,1,0.95,2025-04-22T11:05:10.827+03:00,109,1.816666666666667,2025-04-22T09:54:17.825+03:00,0.02225348692287972,0
2025-04-22T11:10:41.456+03:00,1745309436.128314,40.9522478792225,29.14028919083181,76.44633,-1,-1,-1,-1,30,23.16803173710119,-9999,27636.07296629167,-0.6798095703125,0.6099853515625,-0.3758697509765625,27636.06289029167,-1.249419817708298,-1.072957918913197,-0.6652507503635273,-0.06443327665328979,-0.002081439364701509,0.01023902930319309,0.009728550910949707,-0.01580089330673218,0.002378880977630615,XArbitraryZVertical,-0.5101926077017379,-0.2277131182465208,-0.3397721256032895,0.756574636491981,-0.6912623643875122,0.6172564625740051,-0.3757004737854004,0,0,0,-1,-1,27627.78192266667,unknown,2,2025-04-22T11:10:33.160+03:00,2025-04-21T17:08:51.449+03:00,7097,0.9423593,0,0,5930.618,5,20,2025-04-22T11:09:49.311+03:00,767002240.9890206,0,-21.39,100.4594,1,0.95,2025-04-22T11:05:10.827+03:00,109,1.816666666666667,2025-04-22T09:54:17.825+03:00,0.02225348692287972,0
2025-04-22T11:10:41.466+03:00,1745309436.128314,40.9522478792225,29.14028919083181,76.44633,-1,-1,-1,-1,30,23.16803173710119,-9999,27636.08304229167,-0.6812896728515625,0.6192169189453125,-0.3871307373046875,27636.07296629167,-1.250037928821349,-1.073407697982714,-0.6656218147750236,-0.05556148663163185,-0.01612482219934464,0.007395305670797825,0.01169502735137939,-0.006815433502197266,0.006658315658569336,XArbitraryZVertical,-0.5104435029015999,-0.2276122340065636,-0.3397879823250629,0.7564286047208623,-0.6912299394607544,0.6175483465194702,-0.3752802014350891,0,0,0,-1,-1,27627.78192266667,unknown,2,2025-04-22T11:10:33.160+03:00,2025-04-21T17:08:51.449+03:00,7097,0.9423593,0,0,5930.618,5,20,2025-04-22T11:09:49.311+03:00,767002240.9890206,0,-21.39,100.4594,1,0.95,2025-04-22T11:05:10.827+03:00,109,1.816666666666667,2025-04-22T09:54:17.825+03:00,0.02225348692287972,0
2025-04-22T11:10:41.476+03:00,1745309436.128314,40.9522478792225,29.14028919083181,76.44633,-1,-1,-1,-1,30,23.16803173710119,-9999,27636.09311829167,-0.682403564453125,0.626953125,-0.382965087890625,27636.08304229167,-1.250500316986128,-1.073912340734338,-0.6658690920500093,-0.03539356961846352,-0.02553636580705643,0.001179654151201248,0.01152116060256958,-0.007742345333099365,-0.002903401851654053,XArbitraryZVertical,-0.5106512007584395,-0.2276095207573379,-0.3397652456012032,0.7562994182922574,-0.6912849545478821,0.6177427768707275,-0.3748585283756256,0,0,0,-1,-1,27627.78192266667,unknown,2,2025-04-22T11:10:33.160+03:00,2025-04-21T17:08:51.449+03:00,7097,0.9423593,0,0,5930.618,5,20,2025-04-22T11:09:49.311+03:00,767002240.9890206,0,-21.39,100.4594,1,0.95,2025-04-22T11:05:10.827+03:00,109,1.816666666666667,2025-04-22T09:54:17.825+03:00,0.02225348692287972,0
2025-04-22T11:10:41.486+03:00,1745309436.128314,40.9522478792225,29.14028919083181,76.44633,-1,-1,-1,-1,30,23.16803173710119,-9999,27636.10319325,-0.6856536865234375,0.6276397705078125,-0.377349853515625,27636.09311829167,-1.250794543353372,-1.074393260436207,-0.6659869557238144,-0.01977838948369026,-0.03500496596097946,-0.002788455691188574,0.01020294427871704,0.002830803394317627,-0.01309725642204285,XArbitraryZVertical,-0.5107994550953053,-0.227680199196989,-0.3397208702195926,0.7561978651250728,-0.6914010047912598,0.6178354620933533,-0.374491274356842,0,0,0,-1,-1,27627.78192266667,unknown,2,2025-04-22T11:10:33.160+03:00,2025-04-21T17:08:51.449+03:00,7097,0.9423593,0,0,5930.618,5,20,2025-04-22T11:09:49.311+03:00,767002240.9890206,0,-21.39,100.4594,1,0.95,2025-04-22T11:05:10.827+03:00,109,1.816666666666667,2025-04-22T09:54:17.825+03:00,0.02225348692287972,0
2025-04-22T11:10:41.496+03:00,1745309436.128314,40.9522478792225,29.14028919083181,76.44633,-1,-1,-1,-1,30,23.16803173710119,-9999,27636.11326825,-0.689697265625,0.62811279296875,-0.3767547607421875,27636.10319325,-1.250978046178748,-1.074837056982579,-0.6660482418800147,-0.01065779570490122,-0.03131402283906937,-0.004843450617045164,0.009130358695983887,0.008962452411651611,-0.007959455251693726,XArbitraryZVertical,-0.5109128780320669,-0.2277824090288497,-0.3396598482948486,0.7561179047370518,-0.6915339231491089,0.6178836822509766,-0.3741663992404938,0,0,0,-1,-1,27627.78192266667,unknown,2,2025-04-22T11:10:33.160+03:00,2025-04-21T17:08:51.449+03:00,7097,0.9423593,0,0,5930.618,5,20,2025-04-22T11:09:49.311+03:00,767002240.9890206,0,-21.39,100.4594,1,0.95,2025-04-22T11:05:10.827+03:00,109,1.816666666666667,2025-04-22T09:54:17.825+03:00,0.02225348692287972,0
2025-04-22T11:10:41.506+03:00,1745309436.128314,40.9522478792225,29.14028919083181,76.44633,-1,-1,-1,-1,30,23.16803173710119,-9999,27636.12334425,-0.6914825439453125,0.6179962158203125,-0.37774658203125,27636.11326825,-1.251084507966842,-1.075213002361487,-0.6660436789955776,-0.003075242973864079,-0.02814752794802189,-0.005190460477024317,0.005443453788757324,0.01082760095596313,-0.004037231206893921,XArbitraryZVertical,-0.5109875822574697,-0.2278987184178787,-0.339605311701641,0.7560568421487559,-0.6916769742965698,0.61788010597229,-0.3739077150821686,0,0,0,-1,-1,27627.78192266667,unknown,2,2025-04-22T11:10:33.160+03:00,2025-04-21T17:08:51.449+03:00,7097,0.9423593,0,0,5930.618,5,20,2025-04-22T11:09:49.311+03:00,767002240.9890206,0,-21.39,100.4594,1,0.95,2025-04-22T11:05:10.827+03:00,109,1.816666666666667,2025-04-22T09:54:17.825+03:00,0.02225348692287972,0
2025-04-22T11:10:41.517+03:00,1745309436.128314,40.9522478792225,29.14028919083181,76.44633,-1,-1,-1,-1,30,23.16803173710119,-9999,27636.13342025,-0.68878173828125,0.6165618896484375,-0.3797607421875,27636.12334425,-1.25116389931401,-1.075531208659892,-0.6659549286833403,-0.005581211298704147,-0.02763533405959606,-0.009659345261752605,0.002467334270477295,0.01011925935745239,-0.002934277057647705,XArbitraryZVertical,-0.5110258047037095,-0.2280258406988932,-0.3395787321194938,0.7560046335397752,-0.6918441653251648,0.6178103089332581,-0.3737136721611023,0,0,0,-1,-1,27627.78192266667,unknown,2,2025-04-22T11:10:33.160+03:00,2025-04-21T17:08:51.449+03:00,7097,0.9423593,0,0,5930.618,5,20,2025-04-22T11:09:49.311+03:00,767002240.9890206,0,-21.39,100.4594,1,0.95,2025-04-22T11:05:10.827+03:00,109,1.816666666666667,2025-04-22T09:54:17.825+03:00,0.02225348692287972,0
2025-04-22T11:10:41.527+03:00,1745309436.128314,40.9522478792225,29.14028919083181,76.44633,-1,-1,-1,-1,30,23.16803173710119,-9999,27636.14349625,-0.6878204345703125,0.61456298828125,-0.3779296875,27636.13342025,-1.251290976528525,-1.075913599402768,-0.6658881173933056,-0.005693863146007061,-0.03151822090148926,-0.01026015356183052,0.0008307099342346191,-0.0001432299613952637,-0.004506856203079224,XArbitraryZVertical,-0.5110865355014148,-0.228158303957351,-0.3395476420859926,0.7559375353830804,-0.6920233368873596,0.6177577376365662,-0.3734686970710754,0,0,0,-1,-1,27627.78192266667,unknown,2,2025-04-22T11:10:33.160+03:00,2025-04-21T17:08:51.449+03:00,7097,0.9423593,0,0,5930.618,5,20,2025-04-22T11:09:49.311+03:00,767002240.9890206,0,-21.39,100.4594,1,0.95,2025-04-22T11:10:40.189+03:00,77.00000000000001,1.283333333333333,2025-04-22T09:54:17.825+03:00,0.02225348692287972,0
2025-04-22T11:10:41.537+03:00,1745309436.128314,40.9522478792225,29.14028919083181,76.44633,-1,-1,-1,-1,30,23.16803173710119,-9999,27636.15357225,-0.6910858154296875,0.6156463623046875,-0.37738037109375,27636.14349625,-1.251387617216744,-1.076242840015228,-0.6657876705069785,-0.0009670849540270865,-0.02486065402626991,-0.01213265582919121,0.004395723342895508,-0.0009797215461730957,-0.007070362567901611,XArbitraryZVertical,-0.511125324299769,-0.228288750648148,-0.3395280157277213,0.7558807876398291,-0.6922008991241455,0.6176787614822388,-0.3732703030109406,0,0,0,-1,-1,27627.78192266667,unknown,2,2025-04-22T11:10:33.160+03:00,2025-04-21T17:08:51.449+03:00,7097,0.9423593,0,0,5930.618,5,20,2025-04-22T11:09:49.311+03:00,767002240.9890206,0,-21.39,100.4594,1,0.95,2025-04-22T11:10:40.189+03:00,77.00000000000001,1.283333333333333,2025-04-22T09:54:17.825+03:00,0.02225348692287972,0
2025-04-22T11:10:41.547+03:00,1745309436.128314,40.9522478792225,29.14028919083181,76.44633,-1,-1,-1,-1,30,23.16803173710119,-9999,27636.16364825,-0.690521240234375,0.6138916015625,-0.3748931884765625,27636.15357225,-1.251491393358311,-1.076544885046942,-0.6657037530169791,-0.007679848466068506,-0.02993370965123177,-0.01240083668380976,0.004767715930938721,-0.003217756748199463,-0.005179643630981445,XArbitraryZVertical,-0.5111649616978768,-0.2284020207984857,-0.3395134144925528,0.75582633078869,-0.6923592686653137,0.6176127791404724,-0.3730857968330383,0,0,0,-1,-1,27627.78192266667,unknown,2,2025-04-22T11:10:33.160+03:00,2025-04-21T17:08:51.449+03:00,7097,0.9423593,0,0,5930.618,5,20,2025-04-22T11:09:49.311+03:00,767002240.9890206,0,-21.39,100.4594,1,0.95,2025-04-22T11:10:40.189+03:00,77.00000000000001,1.283333333333333,2025-04-22T09:54:17.825+03:00,0.02225348692287972,0
2025-04-22T11:10:41.557+03:00,1745309436.128314,40.9522478792225,29.14028919083181,76.44633,-1,-1,-1,-1,30,23.16803173710119,-9999,27636.17372325,-0.6898040771484375,0.6022491455078125,-0.36907958984375,27636.16364825,-1.251663335807121,-1.076843887141827,-0.6656639479202906,-0.01558437757194042,-0.01723442599177361,-0.006489550694823265,0.0009794235229492188,-0.001614809036254883,-0.005313992500305176,XArbitraryZVertical,-0.5112242057048554,-0.2284832401805003,-0.3395130662736174,0.7557619052004191,-0.6924924254417419,0.6175814867019653,-0.372890442609787,0,0,0,-1,-1,27627.78192266667,unknown,2,2025-04-22T11:10:33.160+03:00,2025-04-21T17:08:51.449+03:00,7097,0.9423593,0,0,5930.618,5,20,2025-04-22T11:09:49.311+03:00,767002240.9890206,0,-21.39,100.4594,1,0.95,2025-04-22T11:10:40.189+03:00,77.00000000000001,1.283333333333333,2025-04-22T09:54:17.825+03:00,0.02225348692287972,0
2025-04-22T11:10:41.567+03:00,1745309436.128314,40.9522478792225,29.14028919083181,76.44633,-1,-1,-1,-1,30,23.16803173710119,-9999,27636.18379925,-0.689971923828125,0.60418701171875,-0.3699951171875,27636.17372325,-1.251901809802574,-1.077183597004149,-0.6656845358636062,-0.02021161839365959,-0.02258098870515823,-0.01019400823861361,0.002651214599609375,-0.004621744155883789,-0.001313328742980957,XArbitraryZVertical,-0.511314891655626,-0.2285443401474316,-0.3395105901796121,0.7556831622706314,-0.6926078796386719,0.6175976395606995,-0.3726491332054138,0,0,0,-1,-1,27627.78192266667,unknown,2,2025-04-22T11:10:33.160+03:00,2025-04-21T17:08:51.449+03:00,7097,0.9423593,0,0,5930.618,5,20,2025-04-22T11:09:49.311+03:00,767002240.9890206,0,-21.39,100.4594,1,0.95,2025-04-22T11:10:40.189+03:00,77.00000000000001,1.283333333333333,2025-04-22T09:54:17.825+03:00,0.02225348692287972,0
2025-04-22T11:10:41.577+03:00,1745309436.128314,40.9522478792225,29.14028919083181,76.44633,-1,-1,-1,-1,30,23.16803173710119,-9999,27636.19387525,-0.6952056884765625,0.615386962890625,-0.378173828125,27636.18379925,-1.252128531877916,-1.077486802706141,-0.6657030580153235,-0.01296149659901857,-0.01398304011672735,-0.009884714148938656,0.002952516078948975,-0.01627874374389648,0.004071235656738281,XArbitraryZVertical,-0.5113974282930064,-0.2285952904486781,-0.3395135857617818,0.755610606421169,-0.692710816860199,0.6176122426986694,-0.3724337220191956,0,0,0,-1,-1,27627.78192266667,unknown,2,2025-04-22T11:10:33.160+03:00,2025-04-21T17:08:51.449+03:00,7097,0.9423593,0,0,5930.618,5,20,2025-04-22T11:09:49.311+03:00,767002240.9890206,0,-21.39,100.4594,1,0.95,2025-04-22T11:10:40.189+03:00,77.00000000000001,1.283333333333333,2025-04-22T09:54:17.825+03:00,0.02225348692287972,0
2025-04-22T11:10:41.590+03:00,1745309436.128314,40.9522478792225,29.14028919083181,76.44633,-1,-1,-1,-1,30,23.16803173710119,-9999,27636.20395125,-0.6972808837890625,0.6174774169921875,-0.3802337646484375,27636.19387525,-1.252291018888628,-1.077710870650638,-0.6656650951923948,-0.01057210844010115,-0.01412205677479506,-0.01171403937041759,0.002492010593414307,-0.01170170307159424,0.001394122838973999,XArbitraryZVertical,-0.5114434173147732,-0.2286500021537394,-0.3395282615937816,0.7555563529672402,-0.6928148865699768,0.617582380771637,-0.372289627790451,0,0,0,-1,-1,27627.78192266667,unknown,2,2025-04-22T11:10:33.160+03:00,2025-04-21T17:08:51.449+03:00,7097,0.9423593,0,0,5930.618,5,20,2025-04-22T11:09:49.311+03:00,767002240.9890206,0,-21.39,100.4594,1,0.95,2025-04-22T11:10:40.189+03:00,77.00000000000001,1.283333333333333,2025-04-22T09:54:17.825+03:00,0.02225348692287972,0
2025-04-22T11:10:41.605+03:00,1745309436.128314,40.9522478792225,29.14028919083181,76.44633,-1,-1,-1,-1,30,23.16803173710119,-9999,27636.21402725,-0.69024658203125,0.612030029296875,-0.3781585693359375,27636.20395125,-1.252560034267734,-1.078056934281113,-0.6655795563093685,-0.01588085293769836,-0.01738496124744415,-0.01820576190948486,-0.00310051441192627,-0.000846564769744873,-0.006907820701599121,XArbitraryZVertical,-0.5115090544069895,-0.2287380504920312,-0.3395651971509284,0.7554685957399211,-0.6929901838302612,0.6175150871276855,-0.3720747828483582,0,0,0,-1,-1,27627.78192266667,unknown,2,2025-04-22T11:10:33.160+03:00,2025-04-21T17:08:51.449+03:00,7097,0.9423593,0,0,5930.618,5,20,2025-04-22T11:09:49.311+03:00,767002240.9890206,0,-21.39,100.4594,1,0.95,2025-04-22T11:10:40.189+03:00,77.00000000000001,1.283333333333333,2025-04-22T09:54:17.825+03:00,0.02225348692287972,0
2025-04-22T11:10:41.607+03:00,1745309436.128314,40.9522478792225,29.14028919083181,76.44633,-1,-1,-1,-1,30,23.16803173710119,-9999,27636.22410225,-0.6878662109375,0.607452392578125,-0.3701934814453125,27636.21402725,-1.252893488702155,-1.078455454061646,-0.6655400990457571,-0.02805363014340401,-0.02028114721179008,-0.01495537348091602,-0.003174960613250732,-0.0008612871170043945,-0.008271157741546631,XArbitraryZVertical,-0.5116038331160687,-0.2288153496409466,-0.339600214811302,0.7553652743224899,-0.6931598782539368,0.6174840331077576,-0.371810108423233,0,0,0,-1,-1,27627.78192266667,unknown,2,2025-04-22T11:10:33.160+03:00,2025-04-21T17:08:51.449+03:00,7097,0.9423593,0,0,5930.618,5,20,2025-04-22T11:09:49.311+03:00,767002240.9890206,0,-21.39,100.4594,1,0.95,2025-04-22T11:10:40.189+03:00,77.00000000000001,1.283333333333333,2025-04-22T09:54:17.825+03:00,0.02225348692287972,0
2025-04-22T11:10:41.617+03:00,1745309436.128314,40.9522478792225,29.14028919083181,76.44633,-1,-1,-1,-1,30,23.16803173710119,-9999,27636.23417825,-0.690216064453125,0.61090087890625,-0.367095947265625,27636.22410225,-1.253293372922504,-1.078892505334681,-0.665542368447115,-0.0296529233455658,-0.02192278951406479,-0.01574889570474625,0.003547489643096924,-0.005684852600097656,-0.006072282791137695,XArbitraryZVertical,-0.5117244292707833,-0.2288774140860755,-0.3396387949330498,0.7552474484171379,-0.6933211088180542,0.6174858212471008,-0.3715064823627472,0,0,0,-1,-1,27627.78192266667,unknown,2,2025-04-22T11:10:33.160+03:00,2025-04-21T17:08:51.449+03:00,7097,0.9423593,0,0,5930.618,5,20,2025-04-22T11:09:49.311+03:00,767002240.9890206,0,-21.39,100.4594,1,0.95,2025-04-22T11:10:40.189+03:00,77.00000000000001,1.283333333333333,2025-04-22T09:54:17.825+03:00,0.02225348692287972,0
2025-04-22T11:10:41.627+03:00,1745309436.128314,40.9522478792225,29.14028919083181,76.44633,-1,-1,-1,-1,30,23.16803173710119,-9999,27636.24425425,-0.691497802734375,0.6109466552734375,-0.3700103759765625,27636.23417825,-1.253748772318932,-1.079377843253484,-0.6655614703975169,-0.03684026375412941,-0.02166233211755753,-0.01631614752113819,0.005701065063476562,-0.009773969650268555,0.002420425415039062,XArbitraryZVertical,-0.5118642916736165,-0.2289383112382367,-0.3396812395590337,0.7551151517932222,-0.6934909820556641,0.6175008416175842,-0.3711643815040588,0,0,0,-1,-1,27627.78192266667,unknown,2,2025-04-22T11:10:33.160+03:00,2025-04-21T17:08:51.449+03:00,7097,0.9423593,0,0,5930.618,5,20,2025-04-22T11:09:49.311+03:00,767002240.9890206,0,-21.39,100.4594,1,0.95,2025-04-22T11:10:40.189+03:00,77.00000000000001,1.283333333333333,2025-04-22T09:54:17.825+03:00,0.02225348692287972,0
2025-04-22T11:10:41.637+03:00,1745309436.128314,40.9522478792225,29.14028919083181,76.44633,-1,-1,-1,-1,30,23.16803173710119,-9999,27636.25433025,-0.692626953125,0.6126708984375,-0.3723907470703125,27636.24425425,-1.254259148701452,-1.079902482091416,-0.6655828442501515,-0.03660058230161667,-0.020972840487957,-0.01736117154359818,0.004083454608917236,-0.006403267383575439,0.004018694162368774,XArbitraryZVertical,-0.5120177967721325,-0.2289991958055529,-0.3397336644514921,0.754969021179253,-0.6936739683151245,0.6175176501274109,-0.3707942962646484,0,0,0,-1,-1,27627.78192266667,unknown,2,2025-04-22T11:10:33.160+03:00,2025-04-21T17:08:51.449+03:00,7097,0.9423593,0,0,5930.618,5,20,2025-04-22T11:09:49.311+03:00,767002240.9890206,0,-21.39,100.4594,1,0.95,2025-04-22T11:10:40.189+03:00,77.00000000000001,1.283333333333333,2025-04-22T09:54:17.825+03:00,0.02225348692287972,0
2025-04-22T11:10:41.648+03:00,1745309436.128314,40.9522478792225,29.14028919083181,76.44633,-1,-1,-1,-1,30,23.16803173710119,-9999,27636.26440625,-0.691070556640625,0.62115478515625,-0.3729400634765625,27636.25433025,-1.254717550771757,-1.080424770898511,-0.6655841975288853,-0.02760761603713036,-0.02765630558133125,-0.01828129403293133,0.002475738525390625,-0.006663799285888672,0.0001769661903381348,XArbitraryZVertical,-0.5121594095424543,-0.2290785363457513,-0.3397725705904943,0.7548313417296623,-0.6938667297363281,0.6175187230110168,-0.370431512594223,0,0,0,-1,-1,27627.78192266667,unknown,2,2025-04-22T11:10:33.160+03:00,2025-04-21T17:08:51.449+03:00,7097,0.9423593,0,0,5930.618,5,20,2025-04-22T11:09:49.311+03:00,767002240.9890206,0,-21.39,100.4594,1,0.95,2025-04-22T11:10:40.189+03:00,77.00000000000001,1.283333333333333,2025-04-22T09:54:17.825+03:00,0.02225348692287972,0
2025-04-22T11:10:41.658+03:00,1745309436.128314,40.9522478792225,29.14028919083181,76.44633,-1,-1,-1,-1,30,23.16803173710119,-9999,27636.27448225,-0.6911163330078125,0.6201324462890625,-0.3762054443359375,27636.26440625,-1.255109786219828,-1.08094842593904,-0.6655206736315297,-0.02462014928460121,-0.0286172442138195,-0.0162326917052269,0.001239359378814697,-0.003607869148254395,-0.002685725688934326,XArbitraryZVertical,-0.5122756325431489,-0.2291951136776378,-0.3398041873105921,0.7547027863945533,-0.6940951943397522,0.6174687743186951,-0.3700865507125854,0,0,0,-1,-1,27627.78192266667,unknown,2,2025-04-22T11:10:33.160+03:00,2025-04-21T17:08:51.449+03:00,7097,0.9423593,0,0,5930.618,5,20,2025-04-22T11:09:49.311+03:00,767002240.9890206,0,-21.39,100.4594,1,0.95,2025-04-22T11:10:40.189+03:00,77.00000000000001,1.283333333333333,2025-04-22T09:54:17.825+03:00,0.02225348692287972,0
2025-04-22T11:10:41.668+03:00,1745309436.128314,40.9522478792225,29.14028919083181,76.44633,-1,-1,-1,-1,30,23.16803173710119,-9999,27636.28455725,-0.6949462890625,0.606201171875,-0.37274169921875,27636.27448225,-1.255467929599393,-1.081402208218863,-0.6654420032584584,-0.02412719838321209,-0.01846767030656338,-0.01789423823356628,0.003372728824615479,0.004129230976104736,-0.003222048282623291,XArbitraryZVertical,-0.5123718580614933,-0.2292986735880115,-0.3398450452994913,0.7545876264304151,-0.694305956363678,0.6174069046974182,-0.3697943985462189,0,0,0,-1,-1,27627.78192266667,unknown,2,2025-04-22T11:10:33.160+03:00,2025-04-21T17:08:51.449+03:00,7097,0.9423593,0,0,5930.618,5,20,2025-04-22T11:09:49.311+03:00,767002240.9890206,0,-21.39,100.4594,1,0.95,2025-04-22T11:10:40.189+03:00,77.00000000000001,1.283333333333333,2025-04-22T09:54:17.825+03:00,0.02225348692287972,0
2025-04-22T11:10:41.689+03:00,1745309436.128314,40.9522478792225,29.14028919083181,76.44633,-1,-1,-1,-1,30,23.16803173710119,-9999,27636.29463325,-0.687744140625,0.5990142822265625,-0.3661041259765625,27636.28455725,-1.255964893612686,-1.081915743675462,-0.6654342754504179,-0.04688876867294312,-0.0261490922421217,-0.01585668697953224,0.003108978271484375,0.001892268657684326,-0.006307721138000488,XArbitraryZVertical,-0.5125139670111547,-0.2293674350439435,-0.3399031018532706,0.754444042717925,-0.6944999694824219,0.6174008250236511,-0.3694400191307068,0,0,0,-1,-1,27627.78192266667,unknown,2,2025-04-22T11:10:33.160+03:00,2025-04-21T17:08:51.449+03:00,7097,0.9423593,0,0,5930.618,5,20,2025-04-22T11:09:49.311+03:00,767002240.9890206,0,-21.39,100.4594,1,0.95,2025-04-22T11:10:40.189+03:00,77.00000000000001,1.283333333333333,2025-04-22T09:54:17.825+03:00,0.02225348692287972,0
2025-04-22T11:10:41.690+03:00,1745309436.128314,40.9522478792225,29.14028919083181,76.44633,-1,-1,-1,-1,30,23.16803173710119,-9999,27636.30470925,-0.6844482421875,0.598236083984375,-0.3685302734375,27636.29463325,-1.256670762248733,-1.082640879766344,-0.6655551496628717,-0.06589016318321228,-0.03277450054883957,-0.01461032778024673,-9.191036224365234e-05,-0.01268339157104492,-0.003321647644042969,XArbitraryZVertical,-0.5127518097245733,-0.2294230138613672,-0.3399497234422906,0.7542445094927659,-0.6947017908096313,0.6174958944320679,-0.3689013123512268,0,0,0,-1,-1,27627.78192266667,unknown,2,2025-04-22T11:10:33.160+03:00,2025-04-21T17:08:51.449+03:00,7097,0.9423593,0,0,5930.618,5,20,2025-04-22T11:09:49.311+03:00,767002240.9890206,0,-21.39,100.4594,1,0.95,2025-04-22T11:10:40.189+03:00,77.00000000000001,1.283333333333333,2025-04-22T09:54:17.825+03:00,0.02225348692287972,0
2025-04-22T11:10:41.698+03:00,1745309436.128314,40.9522478792225,29.14028919083181,76.44633,-1,-1,-1,-1,30,23.16803173710119,-9999,27636.31478525,-0.6898040771484375,0.60394287109375,-0.3708343505859375,27636.30470925,-1.257583333369908,-1.083576252156697,-0.6657618853530628,-0.07960830628871918,-0.04589236900210381,-0.01517834700644016,0.008379697799682617,-0.01910215616226196,0.00223994255065918,XArbitraryZVertical,-0.5130730003434464,-0.2294783516710298,-0.3399961722617121,0.7539882392983728,-0.6949336528778076,0.6176584959030151,-0.3681915700435638,0,0,0,-1,-1,27627.78192266667,unknown,2,2025-04-22T11:10:33.160+03:00,2025-04-21T17:08:51.449+03:00,7097,0.9423593,0,0,5930.618,5,20,2025-04-22T11:09:49.311+03:00,767002240.9890206,0,-21.39,100.4594,1,0.95,2025-04-22T11:10:40.189+03:00,77.00000000000001,1.283333333333333,2025-04-22T09:54:17.825+03:00,0.02225348692287972,0
2025-04-22T11:10:41.708+03:00,1745309436.128314,40.9522478792225,29.14028919083181,76.44633,-1,-1,-1,-1,30,23.16803173710119,-9999,27636.32486125,-0.6909027099609375,0.61688232421875,-0.3762054443359375,27636.31478525,-1.258579236358234,-1.084657810324522,-0.6660221889958408,-0.08086477965116501,-0.04577785357832909,-0.01313783321529627,0.01043587923049927,-0.01982563734054565,-0.00182187557220459,XArbitraryZVertical,-0.5134434464551291,-0.2295506970846627,-0.3400212409301443,0.7537026901354121,-0.6951892971992493,0.6178631782531738,-0.3673646152019501,0,0,0,-1,-1,27627.78192266667,unknown,2,2025-04-22T11:10:33.160+03:00,2025-04-21T17:08:51.449+03:00,7097,0.9423593,0,0,5930.618,5,20,2025-04-22T11:09:49.311+03:00,767002240.9890206,0,-21.39,100.4594,1,0.95,2025-04-22T11:10:40.189+03:00,77.00000000000001,1.283333333333333,2025-04-22T09:54:17.825+03:00,0.02225348692287972,0
2025-04-22T11:10:41.718+03:00,1745309436.128314,40.9522478792225,29.14028919083181,76.44633,-1,-1,-1,-1,30,23.16803173710119,-9999,27636.33493625,-0.693572998046875,0.62896728515625,-0.3830718994140625,27636.32486125,-1.259467472189752,-1.085687332426152,-0.6662506973708752,-0.05616256222128868,-0.04908996075391769,-0.01151366997510195,0.005882382392883301,-0.01245218515396118,-0.004312574863433838,XArbitraryZVertical,-0.5137838014253516,-0.2296404958783195,-0.3400276506276078,0.7534405318612774,-0.6954423189163208,0.6180428266525269,-0.3665829002857208,0,0,0,-1,-1,27627.78192266667,unknown,2,2025-04-22T11:10:33.160+03:00,2025-04-21T17:08:51.449+03:00,7097,0.9423593,0,0,5930.618,5,20,2025-04-22T11:09:49.311+03:00,767002240.9890206,0,-21.39,100.4594,1,0.95,2025-04-22T11:10:40.189+03:00,77.00000000000001,1.283333333333333,2025-04-22T09:54:17.825+03:00,0.02225348692287972,0
2025-04-22T11:10:41.728+03:00,1745309436.128314,40.9522478792225,29.14028919083181,76.44633,-1,-1,-1,-1,30,23.16803173710119,-9999,27636.34501225,-0.698394775390625,0.635772705078125,-0.389556884765625,27636.33493625,-1.26008619745828,-1.086559938229831,-0.6663052217516766,-0.03991541638970375,-0.05002259835600853,-0.02807453833520412,0.004432618618011475,0.0001392364501953125,-0.01134395599365234,XArbitraryZVertical,-0.5140183636729584,-0.2297934553004636,-0.3400212095753167,0.7532367126374525,-0.6957319974899292,0.6180856823921204,-0.3659601807594299,0,0,0,-1,-1,27627.78192266667,unknown,2,2025-04-22T11:10:33.160+03:00,2025-04-21T17:08:51.449+03:00,7097,0.9423593,0,0,5930.618,5,20,2025-04-22T11:09:49.311+03:00,767002240.9890206,0,-21.39,100.4594,1,0.95,2025-04-22T11:10:40.189+03:00,77.00000000000001,1.283333333333333,2025-04-22T09:54:17.825+03:00,0.02225348692287972,0
2025-04-22T11:10:41.738+03:00,1745309436.128314,40.9522478792225,29.14028919083181,76.44633,-1,-1,-1,-1,30,23.16803173710119,-9999,27636.35508825,-0.69696044921875,0.6245574951171875,-0.3912200927734375,27636.34501225,-1.260863829681875,-1.087497306106127,-0.6663391811142013,-0.07385148108005524,-0.04456278681755066,-0.02325830981135368,0.002574801445007324,0.01294523477554321,-0.0191929042339325,XArbitraryZVertical,-0.5142764728476744,-0.2299361412559854,-0.3400635878702091,0.7529979130252418,-0.6960562467575073,0.6181123852729797,-0.3652981519699097,0,0,0,-1,-1,27627.78192266667,unknown,2,2025-04-22T11:10:33.160+03:00,2025-04-21T17:08:51.449+03:00,7097,0.9423593,0,0,5930.618,5,20,2025-04-22T11:09:49.311+03:00,767002240.9890206,0,-21.39,100.4594,1,0.95,2025-04-22T11:10:40.189+03:00,77.00000000000001,1.283333333333333,2025-04-22T09:54:17.825+03:00,0.02225348692287972,0
2025-04-22T11:10:41.749+03:00,1745309436.128314,40.9522478792225,29.14028919083181,76.44633,-1,-1,-1,-1,30,23.16803173710119,-9999,27636.36516425,-0.688873291015625,0.6075592041015625,-0.3957977294921875,27636.35508825,-1.261922245678711,-1.088684085405792,-0.6664760730329037,-0.08750417828559875,-0.06609444320201874,-0.02838090062141418,-0.002163589000701904,0.01816290616989136,-0.02506333589553833,XArbitraryZVertical,-0.5146378802592463,-0.2300686045915107,-0.340118375462274,0.7526856810630284,-0.6964142918586731,0.6182200312614441,-0.3644325733184814,0,0,0,-1,-1,27627.78192266667,unknown,2,2025-04-22T11:10:33.160+03:00,2025-04-21T17:08:51.449+03:00,7097,0.9423593,0,0,5930.618,5,20,2025-04-22T11:09:49.311+03:00,767002240.9890206,0,-21.39,100.4594,1,0.95,2025-04-22T11:10:40.189+03:00,77.00000000000001,1.283333333333333,2025-04-22T09:54:17.825+03:00,0.02225348692287972,0
2025-04-22T11:10:41.759+03:00,1745309436.128314,40.9522478792225,29.14028919083181,76.44633,-1,-1,-1,-1,30,23.16803173710119,-9999,27636.37524025,-0.6895751953125,0.618194580078125,-0.3960418701171875,27636.36516425,-1.263024788313178,-1.089998148674021,-0.6665481510071801,-0.06724051386117935,-0.0644577294588089,-0.03943238407373428,0.0007012486457824707,0.003030538558959961,-0.02776944637298584,XArbitraryZVertical,-0.5150082044190102,-0.2302570667010276,-0.3401747313942016,0.7523491118822609,-0.69685298204422,0.6182766556739807,-0.3634964525699615,0,0,0,-1,-1,27627.78192266667,unknown,2,2025-04-22T11:10:33.160+03:00,2025-04-21T17:08:51.449+03:00,7097,0.9423593,0,0,5930.618,5,20,2025-04-22T11:09:49.311+03:00,767002240.9890206,0,-21.39,100.4594,1,0.95,2025-04-22T11:10:40.189+03:00,77.00000000000001,1.283333333333333,2025-04-22T09:54:17.825+03:00,0.02225348692287972,0
2025-04-22T11:10:41.769+03:00,1745309436.128314,40.9522478792225,29.14028919083181,76.44633,-1,-1,-1,-1,30,23.16803173710119,-9999,27636.38531525,-0.694183349609375,0.628631591796875,-0.3923492431640625,27636.37524025,-1.263663995019361,-1.091034602979725,-0.6663733997292766,-0.005749722942709923,-0.06013355404138565,-0.03278167545795441,0.009474337100982666,-0.009847819805145264,-0.03297382593154907,XArbitraryZVertical,-0.5152098599022575,-0.2305359568466532,-0.3401972342544658,0.7521155473511723,-0.6973252892494202,0.6181393265724182,-0.3628239333629608,0,0,0,-1,-1,27627.78192266667,unknown,2,2025-04-22T11:10:33.160+03:00,2025-04-21T17:08:51.449+03:00,7097,0.9423593,0,0,5930.618,5,20,2025-04-22T11:09:49.311+03:00,767002240.9890206,0,-21.39,100.4594,1,0.95,2025-04-22T11:10:40.189+03:00,77.00000000000001,1.283333333333333,2025-04-22T09:54:17.825+03:00,0.02225348692287972,0
2025-04-22T11:10:41.779+03:00,1745309436.128314,40.9522478792225,29.14028919083181,76.44633,-1,-1,-1,-1,30,23.16803173710119,-9999,27636.39539125,-0.702880859375,0.62274169921875,-0.380279541015625,27636.38531525,-1.263860306881701,-1.09169018323128,-0.6660177722462207,-0.001931149163283408,-0.04262234270572662,-0.03998732194304466,0.008091270923614502,0.001387655735015869,-0.03354337811470032,XArbitraryZVertical,-0.5152459207620613,-0.2308411041611145,-0.3402019072336959,0.7519951654554038,-0.6977580785751343,0.6178597211837769,-0.3624680638313293,0,0,0,-1,-1,27627.78192266667,unknown,2,2025-04-22T11:10:33.160+03:00,2025-04-21T17:08:51.449+03:00,7097,0.9423593,0,0,5930.618,5,20,2025-04-22T11:09:49.311+03:00,767002240.9890206,0,-21.39,100.4594,1,0.95,2025-04-22T11:10:40.189+03:00,77.00000000000001,1.283333333333333,2025-04-22T09:54:17.825+03:00,0.02225348692287972,0
2025-04-22T11:10:41.796+03:00,1745309436.128314,40.9522478792225,29.14028919083181,76.44633,-1,-1,-1,-1,30,23.16803173710119,-9999,27636.40546725,-0.706451416015625,0.6004791259765625,-0.376922607421875,27636.39539125,-1.264411318489993,-1.092262374236882,-0.6657437774826606,-0.04900278896093369,-0.01386179961264133,-0.04819012805819511,0.00319969654083252,0.01146018505096436,-0.02841740846633911,XArbitraryZVertical,-0.5153314073845943,-0.2309983431960939,-0.3403384486396418,0.751826375609037,-0.6981154680252075,0.6176442503929138,-0.3621466159820557,0,0,0,-1,-1,27627.78192266667,unknown,2,2025-04-22T11:10:33.160+03:00,2025-04-21T17:08:51.449+03:00,7097,0.9423593,0,0,5930.618,5,20,2025-04-22T11:09:49.311+03:00,767002240.9890206,0,-21.39,100.4594,1,0.95,2025-04-22T11:10:40.189+03:00,77.00000000000001,1.283333333333333,2025-04-22T09:54:17.825+03:00,0.02225348692287972,0
2025-04-22T11:10:41.800+03:00,1745309436.128314,40.9522478792225,29.14028919083181,76.44633,-1,-1,-1,-1,30,23.16803173710119,-9999,27636.41554325,-0.6952362060546875,0.5781097412109375,-0.393157958984375,27636.40546725,-1.265655044043618,-1.09321077084085,-0.6658298537279694,-0.154339388012886,-0.01340699661523104,-0.02773162163794041,-0.006102025508880615,0.003427445888519287,-0.01747679710388184,XArbitraryZVertical,-0.5156601562753692,-0.2310078166285961,-0.3405373235116266,0.7515080462856494,-0.6984115242958069,0.6177119612693787,-0.3614599704742432,0,0,0,-1,-1,27627.78192266667,unknown,2,2025-04-22T11:10:33.160+03:00,2025-04-21T17:08:51.449+03:00,7097,0.9423593,0,0,5930.618,5,20,2025-04-22T11:09:49.311+03:00,767002240.9890206,0,-21.39,100.4594,1,0.95,2025-04-22T11:10:40.189+03:00,77.00000000000001,1.283333333333333,2025-04-22T09:54:17.825+03:00,0.02225348692287972,0
2025-04-22T11:10:41.809+03:00,1745309436.128314,40.9522478792225,29.14028919083181,76.44633,-1,-1,-1,-1,30,23.16803173710119,-9999,27636.42561925,-0.6838226318359375,0.546875,-0.4091339111328125,27636.41554325,-1.268106669175242,-1.094729322113575,-0.6665559291609154,-0.2407882660627365,0.005458835512399673,-0.01528587099164724,-0.006822645664215088,-0.0209776759147644,-0.01785847544670105,XArbitraryZVertical,-0.5164015307893142,-0.2307223858661943,-0.3408624922759815,0.7509388922979697,-0.6985606551170349,0.6182827949523926,-0.360193282365799,0,0,0,-1,-1,27627.78192266667,unknown,2,2025-04-22T11:10:33.160+03:00,2025-04-21T17:08:51.449+03:00,7097,0.9423593,0,0,5930.618,5,20,2025-04-22T11:09:49.311+03:00,767002240.9890206,0,-21.39,100.4594,1,0.95,2025-04-22T11:10:40.189+03:00,77.00000000000001,1.283333333333333,2025-04-22T09:54:17.825+03:00,0.02225348692287972,0
2025-04-22T11:10:41.819+03:00,1745309436.128314,40.9522478792225,29.14028919083181,76.44633,-1,-1,-1,-1,30,23.16803173710119,-9999,27636.43569525,-0.6634368896484375,0.551239013671875,-0.439605712890625,27636.42561925,-1.270951366542248,-1.096562840104191,-0.6677767830514031,-0.2540998756885529,-0.03461967781186104,0.02039406262338161,0.004669725894927979,-0.04477918148040771,-0.03665104508399963,XArbitraryZVertical,-0.5173767414079948,-0.2302995207439449,-0.3411131899948746,0.7502832988070249,-0.6985478401184082,0.6192418336868286,-0.3585668802261353,0,0,0,-1,-1,27627.78192266667,unknown,2,2025-04-22T11:10:33.160+03:00,2025-04-21T17:08:51.449+03:00,7097,0.9423593,0,0,5930.618,5,20,2025-04-22T11:09:49.311+03:00,767002240.9890206,0,-21.39,100.4594,1,0.95,2025-04-22T11:10:40.189+03:00,77.00000000000001,1.283333333333333,2025-04-22T09:54:17.825+03:00,0.02225348692287972,0
2025-04-22T11:10:41.829+03:00,1745309436.128314,40.9522478792225,29.14028919083181,76.44633,-1,-1,-1,-1,30,23.16803173710119,-9999,27636.44577025,-0.656005859375,0.5880889892578125,-0.4731292724609375,27636.43569525,-1.273570162541665,-1.098581326468888,-0.669085337863092,-0.2326412051916122,-0.05614201352000237,0.01139204483479261,0.0171363353729248,-0.07553017139434814,-0.05500173568725586,XArbitraryZVertical,-0.5183800169034234,-0.2299750126656226,-0.3412044235728356,0.7496486682533248,-0.6985480189323425,0.6202688217163086,-0.3567872941493988,0,0,0,-1,-1,27627.78192266667,unknown,2,2025-04-22T11:10:33.160+03:00,2025-04-21T17:08:51.449+03:00,7097,0.9423593,0,0,5930.618,5,20,2025-04-22T11:09:49.311+03:00,767002240.9890206,0,-21.39,100.4594,1,0.95,2025-04-22T11:10:40.189+03:00,77.00000000000001,1.283333333333333,2025-04-22T09:54:17.825+03:00,0.02225348692287972,0
2025-04-22T11:10:41.839+03:00,1745309436.128314,40.9522478792225,29.14028919083181,76.44633,-1,-1,-1,-1,30,23.16803173710119,-9999,27636.45584625,-0.6670379638671875,0.5979766845703125,-0.4986114501953125,27636.44577025,-1.275358583397861,-1.100289830848554,-0.6700165144039995,-0.1076911389827728,-0.08655384182929993,0.0212149154394865,0.03727972507476807,-0.06551814079284668,-0.08801281452178955,XArbitraryZVertical,-0.5191308901223527,-0.229864002090955,-0.3411691510826841,0.7491790211442478,-0.6986414790153503,0.6209989190101624,-0.3553313314914703,0,0,0,-1,-1,27627.78192266667,unknown,2,2025-04-22T11:10:33.160+03:00,2025-04-21T17:08:51.449+03:00,7097,0.9423593,0,0,5930.618,5,20,2025-04-22T11:09:49.311+03:00,767002240.9890206,0,-21.39,100.4594,1,0.95,2025-04-22T11:10:40.189+03:00,77.00000000000001,1.283333333333333,2025-04-22T09:54:17.825+03:00,0.02225348692287972,0
2025-04-22T11:10:41.849+03:00,1745309436.128314,40.9522478792225,29.14028919083181,76.44633,-1,-1,-1,-1,30,23.16803173710119,-9999,27636.46592225,-0.6804962158203125,0.5677490234375,-0.502197265625,27636.45584625,-1.276048132298163,-1.101690327033182,-0.6708967115249194,-0.002624103799462318,-0.04943018034100533,0.1710464805364609,0.04174447059631348,-0.03022760152816772,-0.1226709187030792,XArbitraryZVertical,-0.5196884183827328,-0.2299376596125078,-0.3408155320029064,0.748930727759901,-0.6986505389213562,0.6216886043548584,-0.3541052341461182,0,0,0,-1,-1,27627.78192266667,unknown,2,2025-04-22T11:10:33.160+03:00,2025-04-21T17:08:51.449+03:00,7097,0.9423593,0,0,5930.618,5,20,2025-04-22T11:09:49.311+03:00,767002240.9890206,0,-21.39,100.4594,1,0.95,2025-04-22T11:10:40.189+03:00,77.00000000000001,1.283333333333333,2025-04-22T09:54:17.825+03:00,0.02225348692287972,0
2025-04-22T11:10:41.860+03:00,1745309436.128314,40.9522478792225,29.14028919083181,76.44633,-1,-1,-1,-1,30,23.16803173710119,-9999,27636.47599825,-0.679931640625,0.572052001953125,-0.5546417236328125,27636.46592225,-1.272913836443011,-1.100052158863847,-0.6725030314536772,0.2262404263019562,0.01110633462667465,0.2906161248683929,0.02849274873733521,-0.02722769975662231,-0.1452651917934418,XArbitraryZVertical,-0.5194866643105147,-0.2296424052413256,-0.3396138439535761,0.7497068774361618,-0.6971787214279175,0.6229459643363953,-0.3547959327697754,0,0,0,-1,-1,27627.78192266667,unknown,2,2025-04-22T11:10:33.160+03:00,2025-04-21T17:08:51.449+03:00,7097,0.9423593,0,0,5930.618,5,20,2025-04-22T11:09:49.311+03:00,767002240.9890206,0,-21.39,100.4594,1,0.95,2025-04-22T11:10:40.189+03:00,77.00000000000001,1.283333333333333,2025-04-22T09:54:17.825+03:00,0.02225348692287972,0
2025-04-22T11:10:41.870+03:00,1745309436.128314,40.9522478792225,29.14028919083181,76.44633,-1,-1,-1,-1,30,23.16803173710119,-9999,27636.48607425,-0.686676025390625,0.60125732421875,-0.5799560546875,27636.47599825,-1.266751834241622,-1.095632718377931,-0.674208864276167,0.4012245237827301,0.1727671325206757,0.4848247468471527,0.01521456241607666,-0.05999433994293213,-0.1485488414764404,XArbitraryZVertical,-0.5184971652046737,-0.2290572808022318,-0.3379675719627596,0.7513130200351906,-0.6946578621864319,0.6242794990539551,-0.3573869168758392,0,0,0,-1,-1,27627.78192266667,unknown,2,2025-04-22T11:10:33.160+03:00,2025-04-21T17:08:51.449+03:00,7097,0.9423593,0,0,5930.618,5,20,2025-04-22T11:09:49.311+03:00,767002240.9890206,0,-21.39,100.4594,1,0.95,2025-04-22T11:10:40.189+03:00,77.00000000000001,1.283333333333333,2025-04-22T09:54:17.825+03:00,0.02225348692287972,0
2025-04-22T11:10:41.880+03:00,1745309436.128314,40.9522478792225,29.14028919083181,76.44633,-1,-1,-1,-1,30,23.16803173710119,-9999,27636.49614925,-0.6779632568359375,0.5733184814453125,-0.585235595703125,27636.48607425,-1.259066483978542,-1.091100030375466,-0.6762632740183364,0.3499164581298828,-0.2180681228637695,0.3121685981750488,0.009366035461425781,-0.04934513568878174,-0.1992496252059937,XArbitraryZVertical,-0.5174181494868875,-0.2287112418412985,-0.3356725163261274,0.753188906827938,-0.6918916702270508,0.6258830428123474,-0.3599392473697662,0,0,0,-1,-1,27627.78192266667,unknown,2,2025-04-22T11:10:33.160+03:00,2025-04-21T17:08:51.449+03:00,7097,0.9423593,0,0,5930.618,5,20,2025-04-22T11:09:49.311+03:00,767002240.9890206,0,-21.39,100.4594,1,0.95,2025-04-22T11:10:40.189+03:00,77.00000000000001,1.283333333333333,2025-04-22T09:54:17.825+03:00,0.02225348692287972,0
2025-04-22T11:10:41.890+03:00,1745309436.128314,40.9522478792225,29.14028919083181,76.44633,-1,-1,-1,-1,30,23.16803173710119,-9999,27636.50622525,-0.6812591552734375,0.5776824951171875,-0.627655029296875,27636.49614925,-1.251531468491548,-1.087297073191684,-0.677850582929466,0.5727732181549072,0.1801772564649582,0.5420337915420532,0.006287753582000732,-0.02564942836761475,-0.2204902768135071,XArbitraryZVertical,-0.5163584167514446,-0.2287382561852064,-0.3333681404526731,0.7549294382139874,-0.6896373629570007,0.6271202564239502,-0.3621055781841278,0,0,0,-1,-1,27627.78192266667,unknown,2,2025-04-22T11:10:33.160+03:00,2025-04-21T17:08:51.449+03:00,7097,0.9423593,0,0,5930.618,5,20,2025-04-22T11:09:49.311+03:00,767002240.9890206,0,-21.39,100.4594,1,0.95,2025-04-22T11:10:40.189+03:00,77.00000000000001,1.283333333333333,2025-04-22T09:54:17.825+03:00,0.02225348692287972,0
2025-04-22T11:10:41.900+03:00,1745309436.128314,40.9522478792225,29.14028919083181,76.44633,-1,-1,-1,-1,30,23.16803173710119,-9999,27636.51630125,-0.5840606689453125,0.591094970703125,-0.647796630859375,27636.50622525,-1.242433416814473,-1.081422175107024,-0.6820672062123719,0.4009311497211456,-0.03861208632588387,0.8073549270629883,0.002144157886505127,-0.06252807378768921,-0.2180269658565521,XArbitraryZVertical,-0.5155162214605536,-0.2275757360909533,-0.3302600099332679,0.7572190551223001,-0.6851581335067749,0.6303991079330444,-0.3649046123027802,0,0,0,-1,-1,27627.78192266667,unknown,2,2025-04-22T11:10:33.160+03:00,2025-04-21T17:08:51.449+03:00,7097,0.9423593,0,0,5930.618,5,20,2025-04-22T11:09:49.311+03:00,767002240.9890206,0,-21.39,100.4594,1,0.95,2025-04-22T11:10:40.189+03:00,77.00000000000001,1.283333333333333,2025-04-22T09:54:17.825+03:00,0.02225348692287972,0
2025-04-22T11:10:41.910+03:00,1745309436.128314,40.9522478792225,29.14028919083181,76.44633,-1,-1,-1,-1,30,23.16803173710119,-9999,27636.52637725,-0.5736541748046875,0.5115814208984375,-0.6454315185546875,27636.51630125,-1.233383896627918,-1.07772521525673,-0.6864037440695181,0.3687263429164886,-0.2816300690174103,0.6694956421852112,0.009835183620452881,-0.04739487171173096,-0.2725953459739685,XArbitraryZVertical,-0.5150905852427967,-0.2271846621923745,-0.3265646367685932,0.7592260951262626,-0.6813898086547852,0.6337594985961914,-0.3661376237869263,0,0,0,-1,-1,27627.78192266667,unknown,2,2025-04-22T11:10:33.160+03:00,2025-04-21T17:08:51.449+03:00,7097,0.9423593,0,0,5930.618,5,20,2025-04-22T11:09:49.311+03:00,767002240.9890206,0,-21.39,100.4594,1,0.95,2025-04-22T11:10:40.189+03:00,77.00000000000001,1.283333333333333,2025-04-22T09:54:17.825+03:00,0.02225348692287972,0
2025-04-22T11:10:41.920+03:00,1745309436.128314,40.9522478792225,29.14028919083181,76.44633,-1,-1,-1,-1,30,23.16803173710119,-9999,27636.53645325,-0.5556793212890625,0.5099029541015625,-0.6869049072265625,27636.52637725,-1.225559736618117,-1.076763980333758,-0.6915661144890723,0.2887010276317596,-0.4248756170272827,0.8777514100074768,0.1012131571769714,-0.0582156777381897,-0.2787458002567291,XArbitraryZVertical,-0.5154915875808082,-0.2272671285382175,-0.3223895498624878,0.7607120795914918,-0.6781479120254517,0.6377442479133606,-0.3652361631393433,0,0,0,-1,-1,27627.78192266667,unknown,2,2025-04-22T11:10:33.160+03:00,2025-04-21T17:08:51.449+03:00,7097,0.9423593,0,0,5930.618,5,20,2025-04-22T11:09:49.311+03:00,767002240.9890206,0,-21.39,100.4594,1,0.95,2025-04-22T11:10:40.189+03:00,77.00000000000001,1.283333333333333,2025-04-22T09:54:17.825+03:00,0.02225348692287972,0
2025-04-22T11:10:41.930+03:00,1745309436.128314,40.9522478792225,29.14028919083181,76.44633,-1,-1,-1,-1,30,23.16803173710119,-9999,27636.54652825,-0.574676513671875,0.53131103515625,-0.743682861328125,27636.53645325,-1.215800730564938,-1.07546723715319,-0.6982312439935346,0.3337838053703308,-0.5672780275344849,0.9688331484794617,0.0996696949005127,-0.1336781978607178,-0.2853731513023376,XArbitraryZVertical,-0.5160468624517711,-0.2272713500233336,-0.3171332734958066,0.7625416727504485,-0.6739190220832825,0.6428638696670532,-0.3640867471694946,0,0,0,-1,-1,27627.78192266667,unknown,2,2025-04-22T11:10:33.160+03:00,2025-04-21T17:08:51.449+03:00,7097,0.9423593,0,0,5930.618,5,20,2025-04-22T11:09:49.311+03:00,767002240.9890206,0,-21.39,100.4594,1,0.95,2025-04-22T11:10:40.189+03:00,77.00000000000001,1.283333333333333,2025-04-22T09:54:17.825+03:00,0.02225348692287972,0
2025-04-22T11:10:41.940+03:00,1745309436.128314,40.9522478792225,29.14028919083181,76.44633,-1,-1,-1,-1,30,23.16803173710119,-9999,27636.55660425,-0.630859375,0.62353515625,-0.7295379638671875,27636.54652825,-1.204695300921282,-1.074887222345738,-0.7051686612924962,0.5103998780250549,-0.7170277833938599,1.050542950630188,0.1159817576408386,-0.1405177712440491,-0.3330879807472229,XArbitraryZVertical,-0.5166460913788218,-0.2278233365084224,-0.3110891557969633,0.7644585207728077,-0.6697689890861511,0.6481622457504272,-0.3623466789722443,0,0,0,-1,-1,27627.78192266667,unknown,2,2025-04-22T11:10:33.160+03:00,2025-04-21T17:08:51.449+03:00,7097,0.9423593,0,0,5930.618,5,20,2025-04-22T11:09:49.311+03:00,767002240.9890206,0,-21.39,100.4594,1,0.95,2025-04-22T11:10:40.189+03:00,77.00000000000001,1.283333333333333,2025-04-22T09:54:17.825+03:00,0.02225348692287972,0
2025-04-22T11:10:41.950+03:00,1745309436.128314,40.9522478792225,29.14028919083181,76.44633,-1,-1,-1,-1,30,23.16803173710119,-9999,27636.56668025,-0.687042236328125,0.666290283203125,-0.6924896240234375,27636.55660425,-1.191223975705197,-1.073790727588221,-0.7121061433626464,0.6070302724838257,-0.8106315135955811,1.109700202941895,0.08373749256134033,-0.1102625727653503,-0.3836092352867126,XArbitraryZVertical,-0.5169008834031469,-0.2287999037195642,-0.3042577417853882,0.766740638739018,-0.6654025316238403,0.6534295678138733,-0.3609281480312347,0,0,0,-1,-1,27627.78192266667,unknown,2,2025-04-22T11:10:33.160+03:00,2025-04-21T17:08:51.449+03:00,7097,0.9423593,0,0,5930.618,5,20,2025-04-22T11:09:49.311+03:00,767002240.9890206,0,-21.39,100.4594,1,0.95,2025-04-22T11:10:40.189+03:00,77.00000000000001,1.283333333333333,2025-04-22T09:54:17.825+03:00,0.02225348692287972,0
2025-04-22T11:10:41.960+03:00,1745309436.128314,40.9522478792225,29.14028919083181,76.44633,-1,-1,-1,-1,30,23.16803173710119,-9999,27636.57675625,-0.7517547607421875,0.6750030517578125,-0.6403961181640625,27636.56668025,-1.176667995882166,-1.072715031401002,-0.7189241872547691,0.65754234790802,-0.8651332259178162,1.122134447097778,0.02389287948608398,-0.02696859836578369,-0.3669946193695068,XArbitraryZVertical,-0.5170060409976157,-0.2301114628659493,-0.2970196027728689,0.7691116310927901,-0.6610846519470215,0.6585754752159119,-0.3595069348812103,0,0,0,-1,-1,27627.78192266667,unknown,2,2025-04-22T11:10:33.160+03:00,2025-04-21T17:08:51.449+03:00,7097,0.9423593,0,0,5930.618,5,20,2025-04-22T11:09:49.311+03:00,767002240.9890206,0,-21.39,100.4594,1,0.95,2025-04-22T11:10:40.189+03:00,77.00000000000001,1.283333333333333,2025-04-22T09:54:17.825+03:00,0.02225348692287972,0
2025-04-22T11:10:41.970+03:00,1745309436.128314,40.9522478792225,29.14028919083181,76.44633,-1,-1,-1,-1,30,23.16803173710119,-9999,27636.58683225,-0.7579498291015625,0.68096923828125,-0.596771240234375,27636.57675625,-1.161442494877543,-1.071547690692043,-0.7257008622303601,0.6918563842773438,-0.8952139019966125,1.150798320770264,-0.039786696434021,0.005483627319335938,-0.3275507688522339,XArbitraryZVertical,-0.5170126825899184,-0.2315840055153438,-0.2895389680812407,0.7715140165341668,-0.6567312479019165,0.6636598706245422,-0.358133465051651,0,0,0,-1,-1,27627.78192266667,unknown,2,2025-04-22T11:10:33.160+03:00,2025-04-21T17:08:51.449+03:00,7097,0.9423593,0,0,5930.618,5,20,2025-04-22T11:09:49.311+03:00,767002240.9890206,0,-21.39,100.4594,1,0.95,2025-04-22T11:10:40.189+03:00,77.00000000000001,1.283333333333333,2025-04-22T09:54:17.825+03:00,0.02225348692287972,0
2025-04-22T11:10:41.980+03:00,1745309436.128314,40.9522478792225,29.14028919083181,76.44633,-1,-1,-1,-1,30,23.16803173710119,-9999,27636.59690825,-0.6941680908203125,0.7105560302734375,-0.540191650390625,27636.58683225,-1.145772873071589,-1.070354422556626,-0.7326985778075384,0.6639243960380554,-0.9439171552658081,1.174266695976257,-0.1039518117904663,0.005636453628540039,-0.2775060832500458,XArbitraryZVertical,-0.5170312068588757,-0.2331069746226694,-0.2818101202441443,0.7739009889246324,-0.6522126793861389,0.6688781380653381,-0.3566797375679016,0,0,0,-1,-1,27627.78192266667,unknown,2,2025-04-22T11:10:33.160+03:00,2025-04-21T17:08:51.449+03:00,7097,0.9423593,0,0,5930.618,5,20,2025-04-22T11:09:49.311+03:00,767002240.9890206,0,-21.39,100.4594,1,0.95,2025-04-22T11:10:40.189+03:00,77.00000000000001,1.283333333333333,2025-04-22T09:54:17.825+03:00,0.02225348692287972,0
2025-04-22T11:10:41.990+03:00,1745309436.128314,40.9522478792225,29.14028919083181,76.44633,-1,-1,-1,-1,30,23.16803173710119,-9999,27636.60698325,-0.6181182861328125,0.7496337890625,-0.4571380615234375,27636.59690825,-1.130587597890861,-1.070049608632964,-0.7399216999744852,0.6041023731231689,-1.026285290718079,1.144345998764038,-0.105279266834259,0.009790718555450439,-0.2356754839420319,XArbitraryZVertical,-0.5172971282322406,-0.2347952314891374,-0.2739549245534729,0.7760305088626086,-0.6478487253189087,0.6742300987243652,-0.354549765586853,0,0,0,-1,-1,27627.78192266667,unknown,2,2025-04-22T11:10:33.160+03:00,2025-04-21T17:08:51.449+03:00,7097,0.9423593,0,0,5930.618,5,20,2025-04-22T11:09:49.311+03:00,767002240.9890206,0,-21.39,100.4594,1,0.95,2025-04-22T11:10:40.189+03:00,77.00000000000001,1.283333333333333,2025-04-22T09:54:17.825+03:00,0.02225348692287972,0
2025-04-22T11:10:42.000+03:00,1745309436.128314,40.9522478792225,29.14028919083181,76.44633,-1,-1,-1,-1,30,23.16803173710119,-9999,27636.61705925,-0.5752105712890625,0.791778564453125,-0.3828277587890625,27636.60698325,-1.116305311381282,-1.071173924402074,-0.7470612200285448,0.5533977746963501,-1.11957859992981,1.105895280838013,-0.03998523950576782,0.0368381142616272,-0.1792863309383392,XArbitraryZVertical,-0.5178336812672049,-0.236844469124838,-0.2660859923816721,0.7777859643163771,-0.6440051794052124,0.679485559463501,-0.3515059649944305,0,0,0,-1,-1,27627.78192266667,unknown,2,2025-04-22T11:10:33.160+03:00,2025-04-21T17:08:51.449+03:00,7097,0.9423593,0,0,5930.618,5,20,2025-04-22T11:09:49.311+03:00,767002240.9890206,0,-21.39,100.4594,1,0.95,2025-04-22T11:10:40.189+03:00,77.00000000000001,1.283333333333333,2025-04-22T09:54:17.825+03:00,0.02225348692287972,0
2025-04-22T11:10:42.011+03:00,1745309436.128314,40.9522478792225,29.14028919083181,76.44633,-1,-1,-1,-1,30,23.16803173710119,-9999,27636.62713525,-0.5847015380859375,0.86724853515625,-0.3366851806640625,27636.61705925,-1.102845720678897,-1.073519758623624,-0.7537443562929571,0.5278221368789673,-1.15240204334259,0.978415846824646,0.03010481595993042,0.06995958089828491,-0.09828576445579529,XArbitraryZVertical,-0.5184814097178492,-0.2393050496755902,-0.2583344871564492,0.7792132548146251,-0.6408225893974304,0.684373676776886,-0.3478202521800995,0,0,0,-1,-1,27627.78192266667,unknown,2,2025-04-22T11:10:33.160+03:00,2025-04-21T17:08:51.449+03:00,7097,0.9423593,0,0,5930.618,5,20,2025-04-22T11:09:49.311+03:00,767002240.9890206,0,-21.39,100.4594,1,0.95,2025-04-22T11:10:40.189+03:00,77.00000000000001,1.283333333333333,2025-04-22T09:54:17.825+03:00,0.02225348692287972,0
2025-04-22T11:10:42.021+03:00,1745309436.128314,40.9522478792225,29.14028919083181,76.44633,-1,-1,-1,-1,30,23.16803173710119,-9999,27636.63721125,-0.6140899658203125,0.95111083984375,-0.269622802734375,27636.62713525,-1.090683962131605,-1.076634557210344,-0.7591887839528136,0.4967693984508514,-1.123111128807068,0.812893807888031,0.06508105993270874,0.1105862855911255,-0.03288775682449341,XArbitraryZVertical,-0.5190005740710252,-0.242101840665566,-0.2512293745279173,0.7803261194330364,-0.6386131644248962,0.6883332133293152,-0.3440501987934113,0,0,0,-1,-1,27627.78192266667,unknown,2,2025-04-22T11:10:33.160+03:00,2025-04-21T17:08:51.449+03:00,7097,0.9423593,0,0,5930.618,5,20,2025-04-22T11:09:49.311+03:00,767002240.9890206,0,-21.39,100.4594,1,0.95,2025-04-22T11:10:40.189+03:00,77.00000000000001,1.283333333333333,2025-04-22T09:54:17.825+03:00,0.02225348692287972,0
2025-04-22T11:10:42.031+03:00,1745309436.128314,40.9522478792225,29.14028919083181,76.44633,-1,-1,-1,-1,30,23.16803173710119,-9999,27636.64728725,-0.6302642822265625,0.9830169677734375,-0.1912994384765625,27636.63721125,-1.080177561595865,-1.080509264913394,-0.7635037139421932,0.425224632024765,-1.077078342437744,0.6517555117607117,0.04789876937866211,0.1863507032394409,0.01036795973777771,XArbitraryZVertical,-0.5194606130410149,-0.2451018643368638,-0.2448861642754889,0.7810995865783561,-0.6373153924942017,0.6914568543434143,-0.3401714861392975,0,0,0,-1,-1,27627.78192266667,unknown,2,2025-04-22T11:10:33.160+03:00,2025-04-21T17:08:51.449+03:00,7097,0.9423593,0,0,5930.618,5,20,2025-04-22T11:09:49.311+03:00,767002240.9890206,0,-21.39,100.4594,1,0.95,2025-04-22T11:10:40.189+03:00,77.00000000000001,1.283333333333333,2025-04-22T09:54:17.825+03:00,0.02225348692287972,0
2025-04-22T11:10:42.041+03:00,1745309436.128314,40.9522478792225,29.14028919083181,76.44633,-1,-1,-1,-1,30,23.16803173710119,-9999,27636.65736225,-0.65496826171875,0.9696502685546875,-0.129425048828125,27636.64728725,-1.071924516596318,-1.085326391008667,-0.7667598554755206,0.3166247308254242,-1.01476001739502,0.4693469107151031,0.02061885595321655,0.2648736238479614,0.07682877779006958,XArbitraryZVertical,-0.5199770960647981,-0.2481960055559272,-0.2394750501960836,0.7814564930871175,-0.6369518637657166,0.693805456161499,-0.336045116186142,0,0,0,-1,-1,27627.78192266667,unknown,2,2025-04-22T11:10:33.160+03:00,2025-04-21T17:08:51.449+03:00,7097,0.9423593,0,0,5930.618,5,20,2025-04-22T11:09:49.311+03:00,767002240.9890206,0,-21.39,100.4594,1,0.95,2025-04-22T11:10:40.189+03:00,77.00000000000001,1.283333333333333,2025-04-22T09:54:17.825+03:00,0.02225348692287972,0
2025-04-22T11:10:42.051+03:00,1745309436.128314,40.9522478792225,29.14028919083181,76.44633,-1,-1,-1,-1,30,23.16803173710119,-9999,27636.66743825,-0.670440673828125,0.948394775390625,-0.0723876953125,27636.65736225,-1.0661501280222,-1.091157201523598,-0.7689260928388856,0.2056963443756104,-0.9314172267913818,0.2975951135158539,0.004280030727386475,0.2877292633056641,0.1489986777305603,XArbitraryZVertical,-0.5205800829685774,-0.2513578857626523,-0.2350779377203987,0.781379543123057,-0.6375656127929688,0.6953638792037964,-0.3316311836242676,0,0,0,-1,-1,27627.78192266667,unknown,2,2025-04-22T11:10:33.160+03:00,2025-04-21T17:08:51.449+03:00,7097,0.9423593,0,0,5930.618,5,20,2025-04-22T11:09:49.311+03:00,767002240.9890206,0,-21.39,100.4594,1,0.95,2025-04-22T11:10:40.189+03:00,77.00000000000001,1.283333333333333,2025-04-22T09:54:17.825+03:00,0.02225348692287972,0
2025-04-22T11:10:42.061+03:00,1745309436.128314,40.9522478792225,29.14028919083181,76.44633,-1,-1,-1,-1,30,23.16803173710119,-9999,27636.67751425,-0.6758880615234375,0.94976806640625,-0.01654052734375,27636.66743825,-1.063176823635402,-1.097925060278033,-0.7701838620585264,0.06429747492074966,-0.8265119791030884,0.1197496429085732,-0.01892757415771484,0.2704837322235107,0.2046566009521484,XArbitraryZVertical,-0.5213606371677411,-0.254417129691943,-0.2317900725586427,0.7808510033666036,-0.6390162110328674,0.6962672472000122,-0.3269100189208984,0,0,0,-1,-1,27627.78192266667,unknown,2,2025-04-22T11:10:33.160+03:00,2025-04-21T17:08:51.449+03:00,7097,0.9423593,0,0,5930.618,5,20,2025-04-22T11:09:49.311+03:00,767002240.9890206,0,-21.39,100.4594,1,0.95,2025-04-22T11:10:40.189+03:00,77.00000000000001,1.283333333333333,2025-04-22T09:54:17.825+03:00,0.02225348692287972,0
2025-04-22T11:10:42.071+03:00,1745309436.128314,40.9522478792225,29.14028919083181,76.44633,-1,-1,-1,-1,30,23.16803173710119,-9999,27636.68759025,-0.6776275634765625,0.9415435791015625,0.01812744140625,27636.67751425,-1.062557844194985,-1.105330098270092,-0.7703142426055271,0.007242442108690739,-0.7244293689727783,-0.0612126812338829,-0.02945339679718018,0.2513777017593384,0.2575073838233948,XArbitraryZVertical,-0.5221734444984228,-0.2574309560352789,-0.2295788416033265,0.7799728349965576,-0.6413382291793823,0.6963608264923096,-0.3221283853054047,0,0,0,-1,-1,27627.78192266667,unknown,2,2025-04-22T11:10:33.160+03:00,2025-04-21T17:08:51.449+03:00,7097,0.9423593,0,0,5930.618,5,20,2025-04-22T11:09:49.311+03:00,767002240.9890206,0,-21.39,100.4594,1,0.95,2025-04-22T11:10:40.189+03:00,77.00000000000001,1.283333333333333,2025-04-22T09:54:17.825+03:00,0.02225348692287972,0
2025-04-22T11:10:42.081+03:00,1745309436.128314,40.9522478792225,29.14028919083181,76.44633,-1,-1,-1,-1,30,23.16803173710119,-9999,27636.69766625,-0.685791015625,0.9033966064453125,0.047607421875,27636.68759025,-1.06344044438859,-1.112589582754424,-0.7689850640165748,0.003180921543389559,-0.5954795479774475,-0.2277442514896393,-0.03179538249969482,0.2546973824501038,0.3070396184921265,XArbitraryZVertical,-0.522733987746676,-0.2604083309730187,-0.2284135538243069,0.7789505279680963,-0.6444894671440125,0.6954062581062317,-0.3178733587265015,0,0,0,-1,-1,27627.78192266667,unknown,2,2025-04-22T11:10:33.160+03:00,2025-04-21T17:08:51.449+03:00,7097,0.9423593,0,0,5930.618,5,20,2025-04-22T11:09:49.311+03:00,767002240.9890206,0,-21.39,100.4594,1,0.95,2025-04-22T11:10:40.189+03:00,77.00000000000001,1.283333333333333,2025-04-22T09:54:17.825+03:00,0.02225348692287972,0
2025-04-22T11:10:42.091+03:00,1745309436.128314,40.9522478792225,29.14028919083181,76.44633,-1,-1,-1,-1,30,23.16803173710119,-9999,27636.70774225,-0.6929779052734375,0.848175048828125,0.0565643310546875,27636.69766625,-1.065066559826276,-1.119118437840464,-0.7662759157800114,0.01695612259209156,-0.4727152585983276,-0.3567858636379242,-0.02988749742507935,0.2452788949012756,0.3365136086940765,XArbitraryZVertical,-0.5229101510439242,-0.2632964352012078,-0.2281310795220792,0.7779434536742914,-0.6482436060905457,0.6934568285942078,-0.3144799172878265,0,0,0,-1,-1,27627.78192266667,unknown,2,2025-04-22T11:10:33.160+03:00,2025-04-21T17:08:51.449+03:00,7097,0.9423593,0,0,5930.618,5,20,2025-04-22T11:09:49.311+03:00,767002240.9890206,0,-21.39,100.4594,1,0.95,2025-04-22T11:10:40.189+03:00,77.00000000000001,1.283333333333333,2025-04-22T09:54:17.825+03:00,0.02225348692287972,0
2025-04-22T11:10:42.101+03:00,1745309436.128314,40.9522478792225,29.14028919083181,76.44633,-1,-1,-1,-1,30,23.16803173710119,-9999,27636.71781725,-0.6903839111328125,0.8069000244140625,0.07403564453125,27636.70774225,-1.067479084320984,-1.124884489172864,-0.7624881154623736,-0.001918565831147134,-0.340007871389389,-0.4715484082698822,-0.03490549325942993,0.2062649726867676,0.3613212704658508,XArbitraryZVertical,-0.5227973948521933,-0.2659870208196825,-0.2286706536763545,0.7769449946739643,-0.6524114012718201,0.6907227635383606,-0.3118675649166107,0,0,0,-1,-1,27627.78192266667,unknown,2,2025-04-22T11:10:33.160+03:00,2025-04-21T17:08:51.449+03:00,7097,0.9423593,0,0,5930.618,5,20,2025-04-22T11:09:49.311+03:00,767002240.9890206,0,-21.39,100.4594,1,0.95,2025-04-22T11:10:40.189+03:00,77.00000000000001,1.283333333333333,2025-04-22T09:54:17.825+03:00,0.02225348692287972,0
2025-04-22T11:10:42.111+03:00,1745309436.128314,40.9522478792225,29.14028919083181,76.44633,-1,-1,-1,-1,30,23.16803173710119,-9999,27636.72789325,-0.6868133544921875,0.773223876953125,0.0983734130859375,27636.71781725,-1.070794317734449,-1.129916998684331,-0.757732453332975,-0.02669714763760567,-0.2041850686073303,-0.5849285125732422,-0.03608787059783936,0.154764711856842,0.367473691701889,XArbitraryZVertical,-0.5224515141976144,-0.2684308860581707,-0.2300377159137478,0.7759327992059503,-0.6569357514381409,0.6872760653495789,-0.3099785447120667,0,0,0,-1,-1,27627.78192266667,unknown,2,2025-04-22T11:10:33.160+03:00,2025-04-21T17:08:51.449+03:00,7097,0.9423593,0,0,5930.618,5,20,2025-04-22T11:09:49.311+03:00,767002240.9890206,0,-21.39,100.4594,1,0.95,2025-04-22T11:10:40.189+03:00,77.00000000000001,1.283333333333333,2025-04-22T09:54:17.825+03:00,0.02225348692287972,0
2025-04-22T11:10:42.122+03:00,1745309436.128314,40.9522478792225,29.14028919083181,76.44633,-1,-1,-1,-1,30,23.16803173710119,-9999,27636.73796925,-0.69012451171875,0.72821044921875,0.1053314208984375,27636.72789325,-1.074963217768651,-1.134141760961914,-0.7521635048473789,-0.05097778514027596,-0.06707388162612915,-0.6640267968177795,-0.02770966291427612,0.1190716028213501,0.3864205181598663,XArbitraryZVertical,-0.5219048024699833,-0.2705701292586318,-0.2321869131408064,0.7749170521955873,-0.6616977453231812,0.6832201480865479,-0.3088143765926361,0,0,0,-1,-1,27627.78192266667,unknown,2,2025-04-22T11:10:33.160+03:00,2025-04-21T17:08:51.449+03:00,7097,0.9423593,0,0,5930.618,5,20,2025-04-22T11:09:49.311+03:00,767002240.9890206,0,-21.39,100.4594,1,0.95,2025-04-22T11:10:40.189+03:00,77.00000000000001,1.283333333333333,2025-04-22T09:54:17.825+03:00,0.02225348692287972,0
2025-04-22T11:10:42.132+03:00,1745309436.128314,40.9522478792225,29.14028919083181,76.44633,-1,-1,-1,-1,30,23.16803173710119,-9999,27636.74804525,-0.693328857421875,0.687652587890625,0.0890655517578125,27636.73796925,-1.079561680405654,-1.137242946436169,-0.7460979966474925,-0.04463546723127365,0.0757162868976593,-0.7083644270896912,-0.0203668475151062,0.08892154693603516,0.4088988900184631,XArbitraryZVertical,-0.5211545587125868,-0.2723047426445243,-0.2349417823243685,0.7739834904286138,-0.6664007306098938,0.6787785291671753,-0.3084961175918579,0,0,0,-1,-1,27627.78192266667,unknown,2,2025-04-22T11:10:33.160+03:00,2025-04-21T17:08:51.449+03:00,7097,0.9423593,0,0,5930.618,5,20,2025-04-22T11:09:49.311+03:00,767002240.9890206,0,-21.39,100.4594,1,0.95,2025-04-22T11:10:40.189+03:00,77.00000000000001,1.283333333333333,2025-04-22T09:54:17.825+03:00,0.02225348692287972,0
2025-04-22T11:10:42.142+03:00,1745309436.128314,40.9522478792225,29.14028919083181,76.44633,-1,-1,-1,-1,30,23.16803173710119,-9999,27636.75812125,-0.6922149658203125,0.66107177734375,0.0669097900390625,27636.74804525,-1.084059850254985,-1.138799308730184,-0.7396341018207022,-0.01339619047939777,0.2166264057159424,-0.7310768961906433,-0.01970124244689941,0.04918777942657471,0.4132472276687622,XArbitraryZVertical,-0.5201031050793901,-0.2735839752964858,-0.2381763914312489,0.7732506711837694,-0.6708505749702454,0.6740176677703857,-0.3092891275882721,0,0,0,-1,-1,27627.78192266667,unknown,2,2025-04-22T11:10:33.160+03:00,2025-04-21T17:08:51.449+03:00,7097,0.9423593,0,0,5930.618,5,20,2025-04-22T11:09:49.311+03:00,767002240.9890206,0,-21.39,100.4594,1,0.95,2025-04-22T11:10:40.189+03:00,77.00000000000001,1.283333333333333,2025-04-22T09:54:17.825+03:00,0.02225348692287972,0
2025-04-22T11:10:42.152+03:00,1745309436.128314,40.9522478792225,29.14028919083181,76.44633,-1,-1,-1,-1,30,23.16803173710119,-9999,27636.76819625,-0.6854705810546875,0.6341705322265625,0.037841796875,27636.75812125,-1.088005861689949,-1.138531727424449,-0.7328979279062381,0.04900247231125832,0.3651032149791718,-0.7236397266387939,-0.01799601316452026,0.01385015249252319,0.3978809118270874,XArbitraryZVertical,-0.5186832280072423,-0.2743827851054838,-0.2417488700513895,0.7728124862446308,-0.6748750805854797,0.6690263152122498,-0.3113635778427124,0,0,0,-1,-1,27627.78192266667,unknown,2,2025-04-22T11:10:33.160+03:00,2025-04-21T17:08:51.449+03:00,7097,0.9423593,0,0,5930.618,5,20,2025-04-22T11:09:49.311+03:00,767002240.9890206,0,-21.39,100.4594,1,0.95,2025-04-22T11:10:40.189+03:00,77.00000000000001,1.283333333333333,2025-04-22T09:54:17.825+03:00,0.02225348692287972,0
2025-04-22T11:10:42.162+03:00,1745309436.128314,40.9522478792225,29.14028919083181,76.44633,-1,-1,-1,-1,30,23.16803173710119,-9999,27636.77827225,-0.682342529296875,0.6054840087890625,0.0048065185546875,27636.76819625,-1.091124872393337,-1.136273732144117,-0.72600810056828,0.103983037173748,0.4951593577861786,-0.7062529325485229,-0.01320815086364746,-0.006358146667480469,0.3786929547786713,XArbitraryZVertical,-0.516860008978992,-0.2746741286621378,-0.2455574265437302,0.77272975151407,-0.6783353686332703,0.6638896465301514,-0.3148196935653687,0,0,0,-1,-1,27627.78192266667,unknown,2,2025-04-22T11:10:33.160+03:00,2025-04-21T17:08:51.449+03:00,7097,0.9423593,0,0,5930.618,5,20,2025-04-22T11:09:49.311+03:00,767002240.9890206,0,-21.39,100.4594,1,0.95,2025-04-22T11:10:40.189+03:00,77.00000000000001,1.283333333333333,2025-04-22T09:54:17.825+03:00,0.02225348692287972,0
2025-04-22T11:10:42.172+03:00,1745309436.128314,40.9522478792225,29.14028919083181,76.44633,-1,-1,-1,-1,30,23.16803173710119,-9999,27636.78834825,-0.67559814453125,0.591033935546875,-0.03387451171875,27636.77827225,-1.093375912840108,-1.132182258362168,-0.7191339526384306,0.1720483750104904,0.6097040772438049,-0.6671311259269714,-0.003855526447296143,-0.0288812518119812,0.3539163768291473,XArbitraryZVertical,-0.5146842648332202,-0.2744787491647784,-0.2494906162921171,0.7729914477152441,-0.6811572313308716,0.6587333083152771,-0.31952303647995,0,0,0,-1,-1,27627.78192266667,unknown,2,2025-04-22T11:10:33.160+03:00,2025-04-21T17:08:51.449+03:00,7097,0.9423593,0,0,5930.618,5,20,2025-04-22T11:09:49.311+03:00,767002240.9890206,0,-21.39,100.4594,1,0.95,2025-04-22T11:10:40.189+03:00,77.00000000000001,1.283333333333333,2025-04-22T09:54:17.825+03:00,0.02225348692287972,0
2025-04-22T11:10:42.190+03:00,1745309436.128314,40.9522478792225,29.14028919083181,76.44633,-1,-1,-1,-1,30,23.16803173710119,-9999,27636.79842425,-0.659149169921875,0.5809326171875,-0.095611572265625,27636.78834825,-1.094290995279715,-1.126126480761902,-0.7122352402957289,0.2954080104827881,0.7088382244110107,-0.6311882734298706,0.001228272914886475,-0.05133926868438721,0.3263826668262482,XArbitraryZVertical,-0.5120531366837067,-0.2738739515153569,-0.2534062621325517,0.7736794818656941,-0.683296263217926,0.6535272598266602,-0.3255892992019653,0,0,0,-1,-1,27627.78192266667,unknown,2,2025-04-22T11:10:33.160+03:00,2025-04-21T17:08:51.449+03:00,7097,0.9423593,0,0,5930.618,5,20,2025-04-22T11:09:49.311+03:00,767002240.9890206,0,-21.39,100.4594,1,0.95,2025-04-22T11:10:40.189+03:00,77.00000000000001,1.283333333333333,2025-04-22T09:54:17.825+03:00,0.02225348692287972,0
2025-04-22T11:10:42.193+03:00,1745309436.128314,40.9522478792225,29.14028919083181,76.44633,-1,-1,-1,-1,30,23.16803173710119,-9999,27636.80850025,-0.650909423828125,0.5613250732421875,-0.1605377197265625,27636.79842425,-1.093569762336133,-1.11813365600744,-0.7051369620576197,0.4038639068603516,0.7789179682731628,-0.5898591876029968,0.0116545557975769,-0.05788254737854004,0.2924266457557678,XArbitraryZVertical,-0.5088678261168649,-0.2729892382814445,-0.2572220920508343,0.7748336806005337,-0.6848266124725342,0.6481381058692932,-0.3330608308315277,0,0,0,-1,-1,27627.78192266667,unknown,2,2025-04-22T11:10:33.160+03:00,2025-04-21T17:08:51.449+03:00,7097,0.9423593,0,0,5930.618,5,20,2025-04-22T11:09:49.311+03:00,767002240.9890206,0,-21.39,100.4594,1,0.95,2025-04-22T11:10:40.189+03:00,77.00000000000001,1.283333333333333,2025-04-22T09:54:17.825+03:00,0.02225348692287972,0
2025-04-22T11:10:42.203+03:00,1745309436.128314,40.9522478792225,29.14028919083181,76.44633,-1,-1,-1,-1,30,23.16803173710119,-9999,27636.81857625,-0.641387939453125,0.5368194580078125,-0.2202911376953125,27636.80850025,-1.091625641813385,-1.108907782970707,-0.6980683011485735,0.4735098779201508,0.79815673828125,-0.5370886325836182,0.02885711193084717,-0.06406480073928833,0.2369818985462189,XArbitraryZVertical,-0.505333837014445,-0.2719168510278872,-0.2608417822720846,0.7763121486036738,-0.6858090758323669,0.6427390575408936,-0.3413978815078735,0,0,0,-1,-1,27627.78192266667,unknown,2,2025-04-22T11:10:33.160+03:00,2025-04-21T17:08:51.449+03:00,7097,0.9423593,0,0,5930.618,5,20,2025-04-22T11:09:49.311+03:00,767002240.9890206,0,-21.39,100.4594,1,0.95,2025-04-22T11:10:40.189+03:00,77.00000000000001,1.283333333333333,2025-04-22T09:54:17.825+03:00,0.02225348692287972,0
2025-04-22T11:10:42.212+03:00,1745309436.128314,40.9522478792225,29.14028919083181,76.44633,-1,-1,-1,-1,30,23.16803173710119,-9999,27636.82865125,-0.6284332275390625,0.51434326171875,-0.307037353515625,27636.81857625,-1.089160561420322,-1.099433984951769,-0.6913659256196003,0.454544723033905,0.7646885514259338,-0.4848743975162506,0.03579294681549072,-0.07901173830032349,0.1828052699565887,XArbitraryZVertical,-0.5017722714905677,-0.2707592873020329,-0.2641859502923246,0.7778943719713454,-0.6863666176795959,0.6375900506973267,-0.3498280048370361,0,0,0,-1,-1,27627.78192266667,unknown,2,2025-04-22T11:10:33.160+03:00,2025-04-21T17:08:51.449+03:00,7097,0.9423593,0,0,5930.618,5,20,2025-04-22T11:09:49.311+03:00,767002240.9890206,0,-21.39,100.4594,1,0.95,2025-04-22T11:10:40.189+03:00,77.00000000000001,1.283333333333333,2025-04-22T09:54:17.825+03:00,0.02225348692287972,0
2025-04-22T11:10:42.222+03:00,1745309436.128314,40.9522478792225,29.14028919083181,76.44633,-1,-1,-1,-1,30,23.16803173710119,-9999,27636.83872725,-0.616790771484375,0.5115966796875,-0.3839569091796875,27636.82865125,-1.087092031014337,-1.090745151738934,-0.6852238302375975,0.3739358186721802,0.6926714777946472,-0.4592998623847961,0.04648780822753906,-0.09961283206939697,0.1288052797317505,XArbitraryZVertical,-0.4985055418804624,-0.2696331794162309,-0.2672991493804178,0.779321098558125,-0.6867618560791016,0.6328463554382324,-0.3575803339481354,0,0,0,-1,-1,27627.78192266667,unknown,2,2025-04-22T11:10:33.160+03:00,2025-04-21T17:08:51.449+03:00,7097,0.9423593,0,0,5930.618,5,20,2025-04-22T11:09:49.311+03:00,767002240.9890206,0,-21.39,100.4594,1,0.95,2025-04-22T11:10:40.189+03:00,77.00000000000001,1.283333333333333,2025-04-22T09:54:17.825+03:00,0.02225348692287972,0
2025-04-22T11:10:42.232+03:00,1745309436.128314,40.9522478792225,29.14028919083181,76.44633,-1,-1,-1,-1,30,23.16803173710119,-9999,27636.84880325,-0.608795166015625,0.537506103515625,-0.3918609619140625,27636.83872725,-1.086431549145057,-1.083855788122792,-0.6797086816097225,0.2227580100297928,0.5891123414039612,-0.4640597105026245,0.06076931953430176,-0.1155965924263,0.04508313536643982,XArbitraryZVertical,-0.4958338823035484,-0.2686695765263581,-0.2703131086127845,0.7803180869299012,-0.6873562335968018,0.6285665035247803,-0.3639308512210846,0,0,0,-1,-1,27627.78192266667,unknown,2,2025-04-22T11:10:33.160+03:00,2025-04-21T17:08:51.449+03:00,7097,0.9423593,0,0,5930.618,5,20,2025-04-22T11:09:49.311+03:00,767002240.9890206,0,-21.39,100.4594,1,0.95,2025-04-22T11:10:40.189+03:00,77.00000000000001,1.283333333333333,2025-04-22T09:54:17.825+03:00,0.02225348692287972,0
2025-04-22T11:10:42.242+03:00,1745309436.128314,40.9522478792225,29.14028919083181,76.44633,-1,-1,-1,-1,30,23.16803173710119,-9999,27636.85887925,-0.625152587890625,0.5539093017578125,-0.3861846923828125,27636.84880325,-1.087553026303311,-1.079210387856362,-0.674845061415804,0.07676026225090027,0.4725489318370819,-0.4670151770114899,0.07350748777389526,-0.1113640069961548,-0.02015912532806396,XArbitraryZVertical,-0.4938850783224186,-0.2679519411546199,-0.2732689694399992,0.7807709557201304,-0.6883451342582703,0.6247763633728027,-0.3685585856437683,0,0,0,-1,-1,27627.78192266667,unknown,2,2025-04-22T11:10:33.160+03:00,2025-04-21T17:08:51.449+03:00,7097,0.9423593,0,0,5930.618,5,20,2025-04-22T11:09:49.311+03:00,767002240.9890206,0,-21.39,100.4594,1,0.95,2025-04-22T11:10:40.189+03:00,77.00000000000001,1.283333333333333,2025-04-22T09:54:17.825+03:00,0.02225348692287972,0
2025-04-22T11:10:42.253+03:00,1745309436.128314,40.9522478792225,29.14028919083181,76.44633,-1,-1,-1,-1,30,23.16803173710119,-9999,27636.86895525,-0.6600189208984375,0.552764892578125,-0.39361572265625,27636.85887925,-1.09033955937962,-1.076672245448201,-0.6707353320182194,-0.07632888853549957,0.379783570766449,-0.4574757516384125,0.08060753345489502,-0.08007371425628662,-0.01881605386734009,XArbitraryZVertical,-0.4926657885046518,-0.2674338951863242,-0.2761358459847808,0.7807101446843889,-0.6896620988845825,0.6215621829032898,-0.3715190589427948,0,0,0,-1,-1,27627.78192266667,unknown,2,2025-04-22T11:10:33.160+03:00,2025-04-21T17:08:51.449+03:00,7097,0.9423593,0,0,5930.618,5,20,2025-04-22T11:09:49.311+03:00,767002240.9890206,0,-21.39,100.4594,1,0.95,2025-04-22T11:10:40.189+03:00,77.00000000000001,1.283333333333333,2025-04-22T09:54:17.825+03:00,0.02225348692287972,0
2025-04-22T11:10:42.263+03:00,1745309436.128314,40.9522478792225,29.14028919083181,76.44633,-1,-1,-1,-1,30,23.16803173710119,-9999,27636.87903025,-0.6777191162109375,0.5677337646484375,-0.394317626953125,27636.86895525,-1.094708844166576,-1.07592715370973,-0.6674289974426599,-0.2036289274692535,0.3053086698055267,-0.4404440820217133,0.06200903654098511,-0.0646781325340271,-0.01413923501968384,XArbitraryZVertical,-0.4921449686858244,-0.2670017067451035,-0.278950320915314,0.780185922644282,-0.6911899447441101,0.6189687252044678,-0.3730068504810333,0,0,0,-1,-1,27627.78192266667,unknown,2,2025-04-22T11:10:33.160+03:00,2025-04-21T17:08:51.449+03:00,7097,0.9423593,0,0,5930.618,5,20,2025-04-22T11:09:49.311+03:00,767002240.9890206,0,-21.39,100.4594,1,0.95,2025-04-22T11:10:40.189+03:00,77.00000000000001,1.283333333333333,2025-04-22T09:54:17.825+03:00,0.02225348692287972,0
2025-04-22T11:10:42.273+03:00,1745309436.128314,40.9522478792225,29.14028919083181,76.44633,-1,-1,-1,-1,30,23.16803173710119,-9999,27636.88910625,-0.66033935546875,0.60955810546875,-0.4129638671875,27636.87903025,-1.100126193931349,-1.076507790146607,-0.6647328629101201,-0.2754546403884888,0.2477902472019196,-0.4347976446151733,0.02826112508773804,-0.06353479623794556,-0.01985380053520203,XArbitraryZVertical,-0.4921335448757477,-0.2666583474495535,-0.2816740333176398,0.7793315132936184,-0.6928730010986328,0.616848886013031,-0.3733958005905151,0,0,0,-1,-1,27627.78192266667,unknown,2,2025-04-22T11:10:33.160+03:00,2025-04-21T17:08:51.449+03:00,7097,0.9423593,0,0,5930.618,5,20,2025-04-22T11:09:49.311+03:00,767002240.9890206,0,-21.39,100.4594,1,0.95,2025-04-22T11:10:40.189+03:00,77.00000000000001,1.283333333333333,2025-04-22T09:54:17.825+03:00,0.02225348692287972,0
2025-04-22T11:10:42.283+03:00,1745309436.128314,40.9522478792225,29.14028919083181,76.44633,-1,-1,-1,-1,30,23.16803173710119,-9999,27636.89918225,-0.6432037353515625,0.6562652587890625,-0.4767303466796875,27636.88910625,-1.105665324558586,-1.077636346243686,-0.6621078897469651,-0.2237952351570129,0.2060661613941193,-0.4346596002578735,0.01789891719818115,-0.04280513525009155,-0.02104562520980835,XArbitraryZVertical,-0.4922389988789783,-0.266479533179905,-0.2842877258260575,0.7783763861097555,-0.6947177648544312,0.6147807240486145,-0.3733788430690765,0,0,0,-1,-1,27627.78192266667,unknown,2,2025-04-22T11:10:33.160+03:00,2025-04-21T17:08:51.449+03:00,7097,0.9423593,0,0,5930.618,5,20,2025-04-22T11:09:49.311+03:00,767002240.9890206,0,-21.39,100.4594,1,0.95,2025-04-22T11:10:40.189+03:00,77.00000000000001,1.283333333333333,2025-04-22T09:54:17.825+03:00,0.02225348692287972,0
2025-04-22T11:10:42.293+03:00,1745309436.128314,40.9522478792225,29.14028919083181,76.44633,-1,-1,-1,-1,30,23.16803173710119,-9999,27636.90925825,-0.6334991455078125,0.6710662841796875,-0.54486083984375,27636.89918225,-1.110235317438778,-1.078585517745118,-0.6590015549859845,-0.1162477359175682,0.1650058180093765,-0.4494467973709106,0.03854840993881226,0.004325509071350098,-0.04419624805450439,XArbitraryZVertical,-0.492047247590202,-0.266607417695621,-0.2867006367990342,0.7775684340264168,-0.6967515349388123,0.6123277544975281,-0.3736199736595154,0,0,0,-1,-1,27627.78192266667,unknown,2,2025-04-22T11:10:33.160+03:00,2025-04-21T17:08:51.449+03:00,7097,0.9423593,0,0,5930.618,5,20,2025-04-22T11:09:49.311+03:00,767002240.9890206,0,-21.39,100.4594,1,0.95,2025-04-22T11:10:40.189+03:00,77.00000000000001,1.283333333333333,2025-04-22T09:54:17.825+03:00,0.02225348692287972,0
2025-04-22T11:10:42.303+03:00,1745309436.128314,40.9522478792225,29.14028919083181,76.44633,-1,-1,-1,-1,30,23.16803173710119,-9999,27636.91933425,-0.6268157958984375,0.647979736328125,-0.5868682861328125,27636.90925825,-1.113706356948678,-1.079238268896676,-0.6552099290818265,-0.01651282235980034,0.1213841065764427,-0.471289336681366,0.05738973617553711,0.05035734176635742,-0.1119020581245422,XArbitraryZVertical,-0.4914624472349617,-0.267087110300314,-0.2889489989493079,0.7769411725476835,-0.6990371346473694,0.6093257069587708,-0.374258279800415,0,0,0,-1,-1,27627.78192266667,unknown,2,2025-04-22T11:10:33.160+03:00,2025-04-21T17:08:51.449+03:00,7097,0.9423593,0,0,5930.618,5,20,2025-04-22T11:09:49.311+03:00,767002240.9890206,0,-21.39,100.4594,1,0.95,2025-04-22T11:10:40.189+03:00,77.00000000000001,1.283333333333333,2025-04-22T09:54:17.825+03:00,0.02225348692287972,0
2025-04-22T11:10:42.313+03:00,1745309436.128314,40.9522478792225,29.14028919083181,76.44633,-1,-1,-1,-1,30,23.16803173710119,-9999,27636.92941025,-0.620513916015625,0.6095428466796875,-0.5782470703125,27636.91933425,-1.116563096687544,-1.080047441730406,-0.6509844718589263,0.003047297708690166,0.06034179404377937,-0.4775014221668243,0.06853240728378296,0.06384509801864624,-0.1764127612113953,XArbitraryZVertical,-0.4906896055858124,-0.2679037354668472,-0.2910400223581174,0.7763678342526926,-0.7016043066978455,0.6059698462486267,-0.374902606010437,0,0,0,-1,-1,27627.78192266667,unknown,2,2025-04-22T11:10:33.160+03:00,2025-04-21T17:08:51.449+03:00,7097,0.9423593,0,0,5930.618,5,20,2025-04-22T11:09:49.311+03:00,767002240.9890206,0,-21.39,100.4594,1,0.95,2025-04-22T11:10:40.189+03:00,77.00000000000001,1.283333333333333,2025-04-22T09:54:17.825+03:00,0.02225348692287972,0
2025-04-22T11:10:42.323+03:00,1745309436.128314,40.9522478792225,29.14028919083181,76.44633,-1,-1,-1,-1,30,23.16803173710119,-9999,27636.93948525,-0.62469482421875,0.577972412109375,-0.5250396728515625,27636.92941025,-1.119598907586751,-1.081686020391006,-0.6468698914683702,-0.04681293666362762,-0.02238957397639751,-0.4665743708610535,0.07878708839416504,0.04026782512664795,-0.214099109172821,XArbitraryZVertical,-0.490097789009734,-0.2689680134174574,-0.2929649520737033,0.7756493049003338,-0.7044126391410828,0.6026915907859802,-0.3749207258224487,0,0,0,-1,-1,27627.78192266667,unknown,2,2025-04-22T11:10:33.160+03:00,2025-04-21T17:08:51.449+03:00,7097,0.9423593,0,0,5930.618,5,20,2025-04-22T11:09:49.311+03:00,767002240.9890206,0,-21.39,100.4594,1,0.95,2025-04-22T11:10:40.189+03:00,77.00000000000001,1.283333333333333,2025-04-22T09:54:17.825+03:00,0.02225348692287972,0
2025-04-22T11:10:42.333+03:00,1745309436.128314,40.9522478792225,29.14028919083181,76.44633,-1,-1,-1,-1,30,23.16803173710119,-9999,27636.94956125,-0.6504058837890625,0.5598602294921875,-0.47454833984375,27636.93948525,-1.123038784761301,-1.084329015096925,-0.6432209439603584,-0.09167388081550598,-0.08710518479347229,-0.426672488451004,0.08671975135803223,0.005616545677185059,-0.1985027492046356,XArbitraryZVertical,-0.4898523655961876,-0.2701906453124827,-0.294669609577456,0.7747332072149321,-0.7073405385017395,0.5997758507728577,-0.3740833401679993,0,0,0,-1,-1,27627.78192266667,unknown,2,2025-04-22T11:10:33.160+03:00,2025-04-21T17:08:51.449+03:00,7097,0.9423593,0,0,5930.618,5,20,2025-04-22T11:09:49.311+03:00,767002240.9890206,0,-21.39,100.4594,1,0.95,2025-04-22T11:10:40.189+03:00,77.00000000000001,1.283333333333333,2025-04-22T09:54:17.825+03:00,0.02225348692287972,0
2025-04-22T11:10:42.343+03:00,1745309436.128314,40.9522478792225,29.14028919083181,76.44633,-1,-1,-1,-1,30,23.16803173710119,-9999,27636.95963725,-0.6873626708984375,0.54998779296875,-0.4539794921875,27636.94956125,-1.126295603481128,-1.0873809467078,-0.6400833679003598,-0.07160083949565887,-0.1297828704118729,-0.365636944770813,0.08427184820175171,-0.02327257394790649,-0.1453470587730408,XArbitraryZVertical,-0.4898020257019668,-0.271470319600773,-0.2960594931287103,0.7737871619465669,-0.7101415991783142,0.5972623229026794,-0.3727956712245941,0,0,0,-1,-1,27627.78192266667,unknown,2,2025-04-22T11:10:33.160+03:00,2025-04-21T17:08:51.449+03:00,7097,0.9423593,0,0,5930.618,5,20,2025-04-22T11:09:49.311+03:00,767002240.9890206,0,-21.39,100.4594,1,0.95,2025-04-22T11:10:40.189+03:00,77.00000000000001,1.283333333333333,2025-04-22T09:54:17.825+03:00,0.02225348692287972,0
2025-04-22T11:10:42.353+03:00,1745309436.128314,40.9522478792225,29.14028919083181,76.44633,-1,-1,-1,-1,30,23.16803173710119,-9999,27636.96971325,-0.70166015625,0.529205322265625,-0.4547576904296875,27636.95963725,-1.128910970786293,-1.090442073294796,-0.6373578405751038,-0.04866489768028259,-0.1661573946475983,-0.308695912361145,0.05796575546264648,-0.03611427545547485,-0.09927117824554443,XArbitraryZVertical,-0.4897947596991166,-0.2727922682124397,-0.2970831568026163,0.7729340257736951,-0.7127203941345215,0.5950741171836853,-0.371370941400528,0,0,0,-1,-1,27627.78192266667,unknown,2,2025-04-22T11:10:33.160+03:00,2025-04-21T17:08:51.449+03:00,7097,0.9423593,0,0,5930.618,5,20,2025-04-22T11:09:49.311+03:00,767002240.9890206,0,-21.39,100.4594,1,0.95,2025-04-22T11:10:40.189+03:00,77.00000000000001,1.283333333333333,2025-04-22T09:54:17.825+03:00,0.02225348692287972,0
2025-04-22T11:10:42.363+03:00,1745309436.128314,40.9522478792225,29.14028919083181,76.44633,-1,-1,-1,-1,30,23.16803173710119,-9999,27636.97978925,-0.688507080078125,0.4884185791015625,-0.4709320068359375,27636.96971325,-1.131119804873724,-1.09361464031776,-0.6351194041453393,-0.06593037396669388,-0.2059596031904221,-0.2448870837688446,0.02374643087387085,-0.0443388819694519,-0.08291798830032349,XArbitraryZVertical,-0.4898986337496669,-0.2741166773451909,-0.2977857271417393,0.7721288191847442,-0.7150763869285583,0.5932736396789551,-0.3697187602519989,0,0,0,-1,-1,27627.78192266667,unknown,2,2025-04-22T11:10:33.160+03:00,2025-04-21T17:08:51.449+03:00,7097,0.9423593,0,0,5930.618,5,20,2025-04-22T11:09:49.311+03:00,767002240.9890206,0,-21.39,100.4594,1,0.95,2025-04-22T11:10:40.189+03:00,77.00000000000001,1.283333333333333,2025-04-22T09:54:17.825+03:00,0.02225348692287972,0
2025-04-22T11:10:42.373+03:00,1745309436.128314,40.9522478792225,29.14028919083181,76.44633,-1,-1,-1,-1,30,23.16803173710119,-9999,27636.98986525,-0.656829833984375,0.436553955078125,-0.5136871337890625,27636.97978925,-1.133279763292245,-1.097257132105267,-0.6337405982675809,-0.1252389699220657,-0.2680235207080841,-0.1556067317724228,0.01624852418899536,-0.0663607120513916,-0.08831098675727844,XArbitraryZVertical,-0.4903261092018563,-0.2753872547628659,-0.2981128752955373,0.7712786388458471,-0.7171456813812256,0.5921631455421448,-0.3674843311309814,0,0,0,-1,-1,27627.78192266667,unknown,2,2025-04-22T11:10:33.160+03:00,2025-04-21T17:08:51.449+03:00,7097,0.9423593,0,0,5930.618,5,20,2025-04-22T11:09:49.311+03:00,767002240.9890206,0,-21.39,100.4594,1,0.95,2025-04-22T11:10:40.189+03:00,77.00000000000001,1.283333333333333,2025-04-22T09:54:17.825+03:00,0.02225348692287972,0
2025-04-22T11:10:42.384+03:00,1745309436.128314,40.9522478792225,29.14028919083181,76.44633,-1,-1,-1,-1,30,23.16803173710119,-9999,27636.99994025,-0.6272430419921875,0.387054443359375,-0.5429229736328125,27636.98986525,-1.135800312818409,-1.101943090093341,-0.6335409658879121,-0.2136617749929428,-0.3674914836883545,-0.06225201860070229,0.03331154584884644,-0.1089397072792053,-0.1109855473041534,XArbitraryZVertical,-0.4913128424238407,-0.2766317140962756,-0.297990297966252,0.7702519909915898,-0.7189651727676392,0.592002272605896,-0.3641731739044189,0,0,0,-1,-1,27627.78192266667,unknown,2,2025-04-22T11:10:33.160+03:00,2025-04-21T17:08:51.449+03:00,7097,0.9423593,0,0,5930.618,5,20,2025-04-22T11:09:49.311+03:00,767002240.9890206,0,-21.39,100.4594,1,0.95,2025-04-22T11:10:40.189+03:00,77.00000000000001,1.283333333333333,2025-04-22T09:54:17.825+03:00,0.02225348692287972,0
2025-04-22T11:10:42.393+03:00,1745309442.336617,40.95221753305533,29.14027132362839,76.35622,-1,-1,-1,-1,30,20.20684363988094,-9999,27637.01001625,-0.6160888671875,0.36480712890625,-0.53692626953125,27636.99994025,-1.138709714924274,-1.107961842254487,-0.6346141975096352,-0.2925776243209839,-0.4873401522636414,0.04675835743546486,0.06836873292922974,-0.1631032228469849,-0.1594722867012024,XArbitraryZVertical,-0.4929303861200817,-0.2779242636802846,-0.297326765100795,0.7690087053126412,-0.7205751538276672,0.5928668975830078,-0.3595554828643799,0,0,0,-1,-1,27627.78192266667,unknown,2,2025-04-22T11:10:33.160+03:00,2025-04-21T17:08:51.449+03:00,7097,0.9423593,0,0,5930.618,5,20,2025-04-22T11:09:49.311+03:00,767002240.9890206,0,-21.39,100.4594,1,0.95,2025-04-22T11:10:40.189+03:00,77.00000000000001,1.283333333333333,2025-04-22T09:54:17.825+03:00,0.02225348692287972,0
2025-04-22T11:10:42.403+03:00,1745309442.336617,40.95221753305533,29.14027132362839,76.35622,-1,-1,-1,-1,30,20.20684363988094,-9999,27637.02009225,-0.6349029541015625,0.3831939697265625,-0.524169921875,27637.01001625,-1.141530366331049,-1.115065475678776,-0.6370043408106772,-0.3118083775043488,-0.5883762836456299,0.1763928830623627,0.0975385308265686,-0.2128321528434753,-0.1899897158145905,XArbitraryZVertical,-0.4950824675418778,-0.2792701642885498,-0.2959802700662169,0.7676568318923651,-0.7218365669250488,0.594789981842041,-0.3538030385971069,0,0,0,-1,-1,27627.78192266667,unknown,2,2025-04-22T11:10:33.160+03:00,2025-04-21T17:08:51.449+03:00,7097,0.9423593,0,0,5930.618,5,20,2025-04-22T11:09:49.311+03:00,767002240.9890206,0,-21.39,100.4594,1,0.95,2025-04-22T11:10:40.189+03:00,77.00000000000001,1.283333333333333,2025-04-22T09:54:17.825+03:00,0.02225348692287972,0
2025-04-22T11:10:42.414+03:00,1745309442.336617,40.95221753305533,29.14027132362839,76.35622,-1,-1,-1,-1,30,20.20684363988094,-9999,27637.03016825,-0.6659698486328125,0.4275970458984375,-0.5023956298828125,27637.02009225,-1.14352845518799,-1.122583809186766,-0.6405531633937482,-0.2792863845825195,-0.6652920842170715,0.3170075118541718,0.1057480573654175,-0.2330304384231567,-0.1878443956375122,XArbitraryZVertical,-0.4975121056257251,-0.280636965615513,-0.2938735043557047,0.7663960016598275,-0.7225693464279175,0.5976390242576599,-0.3474491834640503,0,0,0,-1,-1,27627.78192266667,unknown,2,2025-04-22T11:10:33.160+03:00,2025-04-21T17:08:51.449+03:00,7097,0.9423593,0,0,5930.618,5,20,2025-04-22T11:09:49.311+03:00,767002240.9890206,0,-21.39,100.4594,1,0.95,2025-04-22T11:10:40.189+03:00,77.00000000000001,1.283333333333333,2025-04-22T09:54:17.825+03:00,0.02225348692287972,0
2025-04-22T11:10:42.424+03:00,1745309442.336617,40.95221753305533,29.14027132362839,76.35622,-1,-1,-1,-1,30,20.20684363988094,-9999,27637.04024425,-0.68280029296875,0.465850830078125,-0.463470458984375,27637.03016825,-1.144342986326011,-1.130084214094691,-0.6450419019780428,-0.2246410548686981,-0.7241289019584656,0.4266079962253571,0.0831339955329895,-0.2131247520446777,-0.1815125942230225,XArbitraryZVertical,-0.5000325489696383,-0.282013099084849,-0.2910345331973705,0.765333201528261,-0.7227214574813843,0.6012319326400757,-0.3408721089363098,0,0,0,-1,-1,27627.78192266667,unknown,2,2025-04-22T11:10:33.160+03:00,2025-04-21T17:08:51.449+03:00,7097,0.9423593,0,0,5930.618,5,20,2025-04-22T11:09:49.311+03:00,767002240.9890206,0,-21.39,100.4594,1,0.95,2025-04-22T11:10:40.189+03:00,77.00000000000001,1.283333333333333,2025-04-22T09:54:17.825+03:00,0.02225348692287972,0
2025-04-22T11:10:42.434+03:00,1745309442.336617,40.95221753305533,29.14027132362839,76.35622,-1,-1,-1,-1,30,20.20684363988094,-9999,27637.05031925,-0.690338134765625,0.4742279052734375,-0.406524658203125,27637.04024425,-1.144211282878889,-1.137509649028348,-0.6502592077754279,-0.2033562660217285,-0.7624325752258301,0.5185099840164185,0.05359834432601929,-0.1709599494934082,-0.1637196242809296,XArbitraryZVertical,-0.5026007912174475,-0.2833815794489835,-0.2876271938594203,0.764432972368367,-0.722375750541687,0.6053927540779114,-0.3341746628284454,0,0,0,-1,-1,27627.78192266667,unknown,2,2025-04-22T11:10:33.160+03:00,2025-04-21T17:08:51.449+03:00,7097,0.9423593,0,0,5930.618,5,20,2025-04-22T11:09:49.311+03:00,767002240.9890206,0,-21.39,100.4594,1,0.95,2025-04-22T11:10:40.189+03:00,77.00000000000001,1.283333333333333,2025-04-22T09:54:17.825+03:00,0.02225348692287972,0
2025-04-22T11:10:42.444+03:00,1745309442.336617,40.95221753305533,29.14027132362839,76.35622,-1,-1,-1,-1,30,20.20684363988094,-9999,27637.06039525,-0.6868743896484375,0.4824676513671875,-0.340667724609375,27637.05031925,-1.143808425242429,-1.145022979634416,-0.6563166701201421,-0.2427534162998199,-0.7770140767097473,0.5975295901298523,0.03788888454437256,-0.1416361331939697,-0.1298599243164062,XArbitraryZVertical,-0.505362621054585,-0.2846050400521774,-0.2838344431477635,0.7635747990454642,-0.7215130925178528,0.6102029085159302,-0.3272171914577484,0,0,0,-1,-1,27627.78192266667,unknown,2,2025-04-22T11:10:33.160+03:00,2025-04-21T17:08:51.449+03:00,7097,0.9423593,0,0,5930.618,5,20,2025-04-22T11:09:49.311+03:00,767002240.9890206,0,-21.39,100.4594,1,0.95,2025-04-22T11:10:40.189+03:00,77.00000000000001,1.283333333333333,2025-04-22T09:54:17.825+03:00,0.02225348692287972,0
2025-04-22T11:10:42.454+03:00,1745309442.336617,40.95221753305533,29.14027132362839,76.35622,-1,-1,-1,-1,30,20.20684363988094,-9999,27637.07047125,-0.6797332763671875,0.531280517578125,-0.249237060546875,27637.06039525,-1.144083630273556,-1.15294777626491,-0.6633184029617295,-0.373060554265976,-0.7569605112075806,0.6477528214454651,0.02965503931045532,-0.1420565247535706,-0.0794377326965332,XArbitraryZVertical,-0.50852294992214,-0.2855357147933792,-0.2799020558343938,0.7625801856679798,-0.7201610207557678,0.6157349944114685,-0.3197475373744965,0,0,0,-1,-1,27627.78192266667,unknown,2,2025-04-22T11:10:33.160+03:00,2025-04-21T17:08:51.449+03:00,7097,0.9423593,0,0,5930.618,5,20,2025-04-22T11:09:49.311+03:00,767002240.9890206,0,-21.39,100.4594,1,0.95,2025-04-22T11:10:40.189+03:00,77.00000000000001,1.283333333333333,2025-04-22T09:54:17.825+03:00,0.02225348692287972,0
2025-04-22T11:10:42.464+03:00,1745309442.336617,40.95221753305533,29.14027132362839,76.35622,-1,-1,-1,-1,30,20.20684363988094,-9999,27637.08054725,-0.678802490234375,0.601226806640625,-0.182830810546875,27637.07047125,-1.145702517255159,-1.161352307989772,-0.6710225869792658,-0.4602599740028381,-0.709247350692749,0.6440911889076233,0.03259766101837158,-0.1362221837043762,-0.01905521750450134,XArbitraryZVertical,-0.5121105806327384,-0.2860940837916931,-0.276129226974178,0.7613444185082116,-0.7184496521949768,0.6217871904373169,-0.3117858469486237,0,0,0,-1,-1,27627.78192266667,unknown,2,2025-04-22T11:10:33.160+03:00,2025-04-21T17:08:51.449+03:00,7097,0.9423593,0,0,5930.618,5,20,2025-04-22T11:09:49.311+03:00,767002240.9890206,0,-21.39,100.4594,1,0.95,2025-04-22T11:10:40.189+03:00,77.00000000000001,1.283333333333333,2025-04-22T09:54:17.825+03:00,0.02225348692287972,0
2025-04-22T11:10:42.474+03:00,1745309442.336617,40.95221753305533,29.14027132362839,76.35622,-1,-1,-1,-1,30,20.20684363988094,-9999,27637.09062325,-0.701202392578125,0.65582275390625,-0.1422576904296875,27637.08054725,-1.148202543852846,-1.169704331391502,-0.6786430291839479,-0.4941383004188538,-0.624518096446991,0.5907766222953796,0.03790420293807983,-0.08742368221282959,0.06580236554145813,XArbitraryZVertical,-0.5157593442051281,-0.2864164440262176,-0.2727004161330455,0.7599950225722248,-0.7166457176208496,0.627737283706665,-0.3039158284664154,0,0,0,-1,-1,27627.78192266667,unknown,2,2025-04-22T11:10:33.160+03:00,2025-04-21T17:08:51.449+03:00,7097,0.9423593,0,0,5930.618,5,20,2025-04-22T11:09:49.311+03:00,767002240.9890206,0,-21.39,100.4594,1,0.95,2025-04-22T11:10:40.189+03:00,77.00000000000001,1.283333333333333,2025-04-22T09:54:17.825+03:00,0.02225348692287972,0
2025-04-22T11:10:42.484+03:00,1745309442.336617,40.95221753305533,29.14027132362839,76.35622,-1,-1,-1,-1,30,20.20684363988094,-9999,27637.10069925,-0.7357177734375,0.728057861328125,-0.040130615234375,27637.09062325,-1.151413083671852,-1.17732910181365,-0.6857388417407981,-0.5015185475349426,-0.484433501958847,0.5110418796539307,0.03500044345855713,-0.02446526288986206,0.1180623173713684,XArbitraryZVertical,-0.5192327702367594,-0.2864150591607696,-0.2698553841674513,0.7586446279000144,-0.7148100137710571,0.6332449913024902,-0.2967274785041809,0,0,0,-1,-1,27627.78192266667,unknown,2,2025-04-22T11:10:33.160+03:00,2025-04-21T17:08:51.449+03:00,7097,0.9423593,0,0,5930.618,5,20,2025-04-22T11:09:49.311+03:00,767002240.9890206,0,-21.39,100.4594,1,0.95,2025-04-22T11:10:40.189+03:00,77.00000000000001,1.283333333333333,2025-04-22T09:54:17.825+03:00,0.02225348692287972,0
2025-04-22T11:10:42.494+03:00,1745309442.336617,40.95221753305533,29.14027132362839,76.35622,-1,-1,-1,-1,30,20.20684363988094,-9999,27637.11077541667,-0.7670135498046875,0.8204803466796875,0.0664520263671875,27637.10069925,-1.155053557551711,-1.183671548761413,-0.6917228316982138,-0.4524532556533813,-0.3080507516860962,0.3606321513652802,0.007864117622375488,0.02503764629364014,0.1580921709537506,XArbitraryZVertical,-0.5222613936511875,-0.2861240837080676,-0.2678121843457396,0.757398503219608,-0.7131558060646057,0.6378649473190308,-0.2907520830631256,0,0,0,-1,-1,27627.78192266667,unknown,2,2025-04-22T11:10:33.160+03:00,2025-04-21T17:08:51.449+03:00,7097,0.9423593,0,0,5930.618,5,20,2025-04-22T11:09:49.311+03:00,767002240.9890206,0,-21.39,100.4594,1,0.95,2025-04-22T11:10:40.189+03:00,77.00000000000001,1.283333333333333,2025-04-22T09:54:17.825+03:00,0.02225348692287972,0
2025-04-22T11:10:42.505+03:00,1745309442.336617,40.95221753305533,29.14027132362839,76.35622,-1,-1,-1,-1,30,20.20684363988094,-9999,27637.12085141667,-0.8206634521484375,0.870941162109375,0.1508941650390625,27637.11077541667,-1.158723607340926,-1.18791577879314,-0.6957422543091488,-0.3786657154560089,-0.06758235394954681,0.1739129573106766,-0.02760922908782959,0.09877532720565796,0.261036217212677,XArbitraryZVertical,-0.5244570061675757,-0.2855933620596516,-0.2668964720130115,0.7564043062052042,-0.7119995355606079,0.6409553289413452,-0.2867625653743744,0,0,0,-1,-1,27627.78192266667,unknown,2,2025-04-22T11:10:33.160+03:00,2025-04-21T17:08:51.449+03:00,7097,0.9423593,0,0,5930.618,5,20,2025-04-22T11:09:49.311+03:00,767002240.9890206,0,-21.39,100.4594,1,0.95,2025-04-22T11:10:40.189+03:00,77.00000000000001,1.283333333333333,2025-04-22T09:54:17.825+03:00,0.02225348692287972,0
2025-04-22T11:10:42.514+03:00,1745309442.336617,40.95221753305533,29.14027132362839,76.35622,-1,-1,-1,-1,30,20.20684363988094,-9999,27637.13092741667,-0.860321044921875,0.9009857177734375,0.1672821044921875,27637.12085141667,-1.162653760512133,-1.189904153576173,-0.6978981073178261,-0.3302089869976044,0.1758401691913605,-0.0008836297784000635,-0.06136012077331543,0.1869810223579407,0.3630179166793823,XArbitraryZVertical,-0.5258717409935113,-0.2846804243460495,-0.2672183274222991,0.755652225530825,-0.7112839221954346,0.642608642578125,-0.2848319411277771,0,0,0,-1,-1,27627.78192266667,unknown,2,2025-04-22T11:10:33.160+03:00,2025-04-21T17:08:51.449+03:00,7097,0.9423593,0,0,5930.618,5,20,2025-04-22T11:09:49.311+03:00,767002240.9890206,0,-21.39,100.4594,1,0.95,2025-04-22T11:10:40.189+03:00,77.00000000000001,1.283333333333333,2025-04-22T09:54:17.825+03:00,0.02225348692287972,0
2025-04-22T11:10:42.524+03:00,1745309442.336617,40.95221753305533,29.14027132362839,76.35622,-1,-1,-1,-1,30,20.20684363988094,-9999,27637.14100341667,-0.8787841796875,0.9237213134765625,0.1567230224609375,27637.13092741667,-1.166990419035502,-1.18965123041371,-0.6981272551936133,-0.3101893067359924,0.4236708879470825,-0.2056964933872223,-0.1157376766204834,0.2328411936759949,0.442564994096756,XArbitraryZVertical,-0.526516148703387,-0.2833765140061534,-0.2688545136348511,0.7551129398455892,-0.7110750079154968,0.6427841782569885,-0.2849569916725159,0,0,0,-1,-1,27627.78192266667,unknown,2,2025-04-22T11:10:33.160+03:00,2025-04-21T17:08:51.449+03:00,7097,0.9423593,0,0,5930.618,5,20,2025-04-22T11:09:49.311+03:00,767002240.9890206,0,-21.39,100.4594,1,0.95,2025-04-22T11:10:40.189+03:00,77.00000000000001,1.283333333333333,2025-04-22T09:54:17.825+03:00,0.02225348692287972,0
2025-04-22T11:10:42.534+03:00,1745309442.336617,40.95221753305533,29.14027132362839,76.35622,-1,-1,-1,-1,30,20.20684363988094,-9999,27637.15107941667,-0.884521484375,0.93682861328125,0.18316650390625,27637.14100341667,-1.172376663694116,-1.187560248978926,-0.6963939351032936,-0.3100162148475647,0.6792488694190979,-0.4178596138954163,-0.1512218713760376,0.2624750733375549,0.450342059135437,XArbitraryZVertical,-0.5265230807842414,-0.2816801615107888,-0.271953703585931,0.7546329774983903,-0.7115100622177124,0.6414554119110107,-0.2868594527244568,0,0,0,-1,-1,27627.78192266667,unknown,2,2025-04-22T11:10:33.160+03:00,2025-04-21T17:08:51.449+03:00,7097,0.9423593,0,0,5930.618,5,20,2025-04-22T11:09:49.311+03:00,767002240.9890206,0,-21.39,100.4594,1,0.95,2025-04-22T11:10:40.189+03:00,77.00000000000001,1.283333333333333,2025-04-22T09:54:17.825+03:00,0.02225348692287972,0
2025-04-22T11:10:42.544+03:00,1745309442.336617,40.95221753305533,29.14027132362839,76.35622,-1,-1,-1,-1,30,20.20684363988094,-9999,27637.16115541667,-0.8806915283203125,0.9493255615234375,0.1887054443359375,27637.15107941667,-1.178381188165985,-1.18333113247856,-0.6926969268339215,-0.2477673590183258,0.9194032549858093,-0.6062538027763367,-0.1672031283378601,0.2874408960342407,0.4499701261520386,XArbitraryZVertical,-0.5257809031030406,-0.2795969288401444,-0.2764287599937778,0.7542990995578676,-0.7124813199043274,0.63861483335495,-0.2907600104808807,0,0,0,-1,-1,27627.78192266667,unknown,2,2025-04-22T11:10:33.160+03:00,2025-04-21T17:08:51.449+03:00,7097,0.9423593,0,0,5930.618,5,20,2025-04-22T11:09:49.311+03:00,767002240.9890206,0,-21.39,100.4594,1,0.95,2025-04-22T11:10:40.189+03:00,77.00000000000001,1.283333333333333,2025-04-22T09:54:17.825+03:00,0.02225348692287972,0
2025-04-22T11:10:42.554+03:00,1745309442.336617,40.95221753305533,29.14027132362839,76.35622,-1,-1,-1,-1,30,20.20684363988094,-9999,27637.17123041667,-0.875518798828125,0.945037841796875,0.2534637451171875,27637.16115541667,-1.184070997509844,-1.176466795084753,-0.6867462512283238,-0.1062594875693321,1.165748119354248,-0.8157551288604736,-0.170465350151062,0.3039027452468872,0.4824012517929077,XArbitraryZVertical,-0.5239934409245666,-0.2772753172397452,-0.2821354921569544,0.7542869154976092,-0.713964581489563,0.6340243816375732,-0.2970985472202301,0,0,0,-1,-1,27627.78192266667,unknown,2,2025-04-22T11:10:33.160+03:00,2025-04-21T17:08:51.449+03:00,7097,0.9423593,0,0,5930.618,5,20,2025-04-22T11:09:49.311+03:00,767002240.9890206,0,-21.39,100.4594,1,0.95,2025-04-22T11:10:40.189+03:00,77.00000000000001,1.283333333333333,2025-04-22T09:54:17.825+03:00,0.02225348692287972,0
2025-04-22T11:10:42.565+03:00,1745309442.336617,40.95221753305533,29.14027132362839,76.35622,-1,-1,-1,-1,30,20.20684363988094,-9999,27637.18130641667,-0.8701629638671875,0.900787353515625,0.4132080078125,27637.17123041667,-1.189117322264706,-1.16646792033007,-0.6783774464920805,0.03627076372504234,1.458292841911316,-1.021092414855957,-0.164498507976532,0.3228782415390015,0.4986667037010193,XArbitraryZVertical,-0.5209703711778229,-0.2746639552046912,-0.2891111002783226,0.7546948767342063,-0.7158116102218628,0.6275305151939392,-0.3062991797924042,0,0,0,-1,-1,27627.78192266667,unknown,2,2025-04-22T11:10:33.160+03:00,2025-04-21T17:08:51.449+03:00,7097,0.9423593,0,0,5930.618,5,20,2025-04-22T11:09:49.311+03:00,767002240.9890206,0,-21.39,100.4594,1,0.95,2025-04-22T11:10:40.189+03:00,77.00000000000001,1.283333333333333,2025-04-22T09:54:17.825+03:00,0.02225348692287972,0
