loggingTime(txt),locationTimestamp_since1970(s),locationLatitude(WGS84),locationLongitude(WGS84),locationAltitude(m),locationSpeed(m/s),locationSpeedAccuracy(m/s),locationCourse(°),locationCourseAccuracy(°),locationVerticalAccuracy(m),locationHorizontalAccuracy(m),locationFloor(Z),accelerometerTimestamp_sinceReboot(s),accelerometerAccelerationX(G),accelerometerAccelerationY(G),accelerometerAccelerationZ(G),motionTimestamp_sinceReboot(s),motionYaw(rad),motionRoll(rad),motionPitch(rad),motionRotationRateX(rad/s),motionRotationRateY(rad/s),motionRotationRateZ(rad/s),motionUserAccelerationX(G),motionUserAccelerationY(G),motionUserAccelerationZ(G),motionAttitudeReferenceFrame(txt),motionQuaternionX(R),motionQuaternionY(R),motionQuaternionZ(R),motionQuaternionW(R),motionGravityX(G),motionGravityY(G),motionGravityZ(G),motionMagneticFieldX(µT),motionMagneticFieldY(µT),motionMagneticFieldZ(µT),motionHeading(°),motionMagneticFieldCalibrationAccuracy(Z),activityTimestamp_sinceReboot(s),activity(txt),activityActivityConfidence(Z),activityActivityStartDate(txt),pedometerStartDate(txt),pedometerNumberofSteps(N),pedometerAverageActivePace(s/m),pedometerCurrentPace(s/m),pedometerCurrentCadence(steps/s),pedometerDistance(m),pedometerFloorAscended(N),pedometerFloorDescended(N),pedometerEndDate(txt),altimeterTimestamp_sinceReboot(s),altimeterReset(bool),altimeterRelativeAltitude(m),altimeterPressure(kPa),batteryState(N),batteryLevel(R),heartRateBPMTimestamp(txt),heartRateBPM(N),heartRateBPS(R),heartRateVariabilityTimestamp(txt),heartRateVariability(ms),label
2025-04-21T16:43:19.394+03:00,1745242998.53616,40.95237388445845,29.14013565701957,78.28703,-1,-1,-1,-1,30,34.22672640375541,-9999,20311.572564,-0.638397216796875,0.681396484375,-0.3837127685546875,20311.565025,1.974394645817678,-1.026310919106573,-0.7356962560317892,-0.0621054545044899,-0.06658581644296646,-0.07124808430671692,0.002688229084014893,0.002419233322143555,-0.004921406507492065,XArbitraryZVertical,-0.2096341122765218,0.5138565433480951,-0.7756490116863719,-0.3006217390686027,-0.6341578960418701,0.6711034774780273,-0.38400998711586,0,0,0,-1,-1,20309.90125491667,unknown,2,2025-04-21T16:43:17.691+03:00,2025-04-20T21:57:49.637+03:00,6805,0.9845527,0,0,5579.851,5,6,2025-04-21T16:43:17.691+03:00,766935790.0548265,0,-38.69,100.1966,1,0.3,2025-04-21T16:43:07.230+03:00,101,1.683333333333333,2025-04-21T12:30:07.995+03:00,0.02023345852159405,0
2025-04-21T16:43:19.396+03:00,1745242998.53616,40.95237388445845,29.14013565701957,78.28703,-1,-1,-1,-1,30,34.22672640375541,-9999,20311.58264,-0.6297149658203125,0.676605224609375,-0.388641357421875,20311.5751,1.973313186926889,-1.027571794689138,-0.7355019321033111,-0.06055149808526039,-0.05812042951583862,-0.05260209739208221,-0.003460824489593506,0.01054370403289795,2.241134643554688e-05,XArbitraryZVertical,-0.2099028760970907,0.514103103520245,-0.7753550677867245,-0.3007711849551954,-0.6347533464431763,0.6709594130516052,-0.38327756524086,0,0,0,-1,-1,20309.90125491667,unknown,2,2025-04-21T16:43:17.691+03:00,2025-04-20T21:57:49.637+03:00,6805,0.9845527,0,0,5579.851,5,6,2025-04-21T16:43:17.691+03:00,766935790.0548265,0,-38.69,100.1966,1,0.3,2025-04-21T16:43:07.230+03:00,101,1.683333333333333,2025-04-21T12:30:07.995+03:00,0.02023345852159405,0
2025-04-21T16:43:19.398+03:00,1745242998.53616,40.95237388445845,29.14013565701957,78.28703,-1,-1,-1,-1,30,34.22672640375541,-9999,20311.592716,-0.63037109375,0.671173095703125,-0.387847900390625,20311.585176,1.972510726731225,-1.028590789028682,-0.7354166150482049,-0.04683302342891693,-0.05121671408414841,-0.02817611582577229,0.005904793739318848,0.004213571548461914,-0.006591796875,XArbitraryZVertical,-0.2101169898739778,0.5143158796966464,-0.7751276860069518,-0.3008438303818853,-0.6351925134658813,0.6708961725234985,-0.3826600611209869,0,0,0,-1,-1,20309.90125491667,unknown,2,2025-04-21T16:43:17.691+03:00,2025-04-20T21:57:49.637+03:00,6805,0.9845527,0,0,5579.851,5,6,2025-04-21T16:43:17.691+03:00,766935790.0548265,0,-38.69,100.1966,1,0.3,2025-04-21T16:43:07.230+03:00,101,1.683333333333333,2025-04-21T12:30:07.995+03:00,0.02023345852159405,0
2025-04-21T16:43:19.398+03:00,1745242998.53616,40.95237388445845,29.14013565701957,78.28703,-1,-1,-1,-1,30,34.22672640375541,-9999,20311.602792,-0.6360931396484375,0.6756439208984375,-0.3848419189453125,20311.595252,1.971814611309972,-1.029400629229756,-0.7354786836071968,-0.05739692226052284,-0.02480767667293549,-0.01698188483715057,0.003874778747558594,-0.0004406571388244629,-0.005510330200195312,XArbitraryZVertical,-0.2102332605976656,0.5145288496669629,-0.7749376417143213,-0.3008880833920449,-0.6354665160179138,0.6709421873092651,-0.3821240663528442,0,0,0,-1,-1,20309.90125491667,unknown,2,2025-04-21T16:43:17.691+03:00,2025-04-20T21:57:49.637+03:00,6805,0.9845527,0,0,5579.851,5,6,2025-04-21T16:43:17.691+03:00,766935790.0548265,0,-38.69,100.1966,1,0.3,2025-04-21T16:43:07.230+03:00,101,1.683333333333333,2025-04-21T12:30:07.995+03:00,0.02023345852159405,0
2025-04-21T16:43:19.408+03:00,1745242998.53616,40.95237388445845,29.14013565701957,78.28703,-1,-1,-1,-1,30,34.22672640375541,-9999,20311.612868,-0.635589599609375,0.681365966796875,-0.3886871337890625,20311.605328,1.971152586803541,-1.029959639791592,-0.7357124978276182,-0.05589276552200317,-0.01358591578900814,-0.001426627160981297,-0.0005323290824890137,0.005871057510375977,-0.00388646125793457,XArbitraryZVertical,-0.2102097734541464,0.5147502650195733,-0.7747784588957465,-0.3009358076851608,-0.6355456113815308,0.671115517616272,-0.3816880285739899,0,0,0,-1,-1,20309.90125491667,unknown,2,2025-04-21T16:43:17.691+03:00,2025-04-20T21:57:49.637+03:00,6805,0.9845527,0,0,5579.851,5,6,2025-04-21T16:43:17.691+03:00,766935790.0548265,0,-38.69,100.1966,1,0.3,2025-04-21T16:43:07.230+03:00,101,1.683333333333333,2025-04-21T12:30:07.995+03:00,0.02023345852159405,0
2025-04-21T16:43:19.418+03:00,1745242998.53616,40.95237388445845,29.14013565701957,78.28703,-1,-1,-1,-1,30,34.22672640375541,-9999,20311.622943,-0.614898681640625,0.6745452880859375,-0.3828125,20311.615404,1.971774771800606,-1.030706483279494,-0.7354259390801354,0.08214166760444641,-0.1225596740841866,-0.007638250477612019,0.001946926116943359,0.01044744253158569,-0.007832914590835571,XArbitraryZVertical,-0.2107446842058518,0.5147141253191411,-0.7747943827798233,-0.3005820930669717,-0.6359952688217163,0.6709030866622925,-0.3813121020793915,0,0,0,-1,-1,20309.90125491667,unknown,2,2025-04-21T16:43:17.691+03:00,2025-04-20T21:57:49.637+03:00,6805,0.9845527,0,0,5579.851,5,6,2025-04-21T16:43:17.691+03:00,766935790.0548265,0,-38.69,100.1966,1,0.3,2025-04-21T16:43:07.230+03:00,101,1.683333333333333,2025-04-21T12:30:07.995+03:00,0.02023345852159405,0
2025-04-21T16:43:19.427+03:00,1745242998.53616,40.95237388445845,29.14013565701957,78.28703,-1,-1,-1,-1,30,34.22672640375541,-9999,20311.633019,-0.6027679443359375,0.664886474609375,-0.3789520263671875,20311.625479,1.971691423537794,-1.03172085605133,-0.7354059766596941,-0.03780870139598846,-0.1094111055135727,-0.009497936815023422,0.02569079399108887,0.001032352447509766,0.000500798225402832,XArbitraryZVertical,-0.2111220691986508,0.5148695256847162,-0.7746749830918959,-0.3003589732499458,-0.6363933086395264,0.6708882451057434,-0.3806736767292023,0,0,0,-1,-1,20309.90125491667,unknown,2,2025-04-21T16:43:17.691+03:00,2025-04-20T21:57:49.637+03:00,6805,0.9845527,0,0,5579.851,5,6,2025-04-21T16:43:17.691+03:00,766935790.0548265,0,-38.69,100.1966,1,0.3,2025-04-21T16:43:07.230+03:00,101,1.683333333333333,2025-04-21T12:30:07.995+03:00,0.02023345852159405,0
2025-04-21T16:43:19.437+03:00,1745242998.53616,40.95237388445845,29.14013565701957,78.28703,-1,-1,-1,-1,30,34.22672640375541,-9999,20311.643095,-0.642913818359375,0.6795501708984375,-0.3906097412109375,20311.635555,1.97155735446338,-1.032467633156707,-0.7355143684124027,0.001873861299827695,-0.04070994257926941,0.0005222740583121777,0.02984923124313354,-0.004464924335479736,-0.001217246055603027,XArbitraryZVertical,-0.2113444902904047,0.515027169498154,-0.7745756266129279,-0.3001884356704828,-0.636614978313446,0.6709686517715454,-0.3801610469818115,0,0,0,-1,-1,20309.90125491667,unknown,2,2025-04-21T16:43:17.691+03:00,2025-04-20T21:57:49.637+03:00,6805,0.9845527,0,0,5579.851,5,6,2025-04-21T16:43:17.691+03:00,766935790.0548265,0,-38.69,100.1966,1,0.3,2025-04-21T16:43:07.230+03:00,101,1.683333333333333,2025-04-21T12:30:07.995+03:00,0.02023345852159405,0
2025-04-21T16:43:19.447+03:00,1745242998.53616,40.95237388445845,29.14013565701957,78.28703,-1,-1,-1,-1,30,34.22672640375541,-9999,20311.653171,-0.648529052734375,0.6606597900390625,-0.383148193359375,20311.645631,1.971647057408373,-1.032604713625821,-0.735630088268306,-0.003684688592329621,-0.016041349619627,0.01598431915044785,-0.009166836738586426,0.007076501846313477,-0.00943148136138916,XArbitraryZVertical,-0.2113862012862818,0.5150717375333995,-0.7745742260006209,-0.300086152149507,-0.6366003751754761,0.6710544228553772,-0.3800339698791504,0,0,0,-1,-1,20309.90125491667,unknown,2,2025-04-21T16:43:17.691+03:00,2025-04-20T21:57:49.637+03:00,6805,0.9845527,0,0,5579.851,5,6,2025-04-21T16:43:17.691+03:00,766935790.0548265,0,-38.69,100.1966,1,0.3,2025-04-21T16:43:07.230+03:00,101,1.683333333333333,2025-04-21T12:30:07.995+03:00,0.02023345852159405,0
2025-04-21T16:43:19.457+03:00,1745242998.53616,40.95237388445845,29.14013565701957,78.28703,-1,-1,-1,-1,30,34.22672640375541,-9999,20311.663247,-0.6304473876953125,0.6617431640625,-0.386810302734375,20311.655707,1.971756145552304,-1.032711893575438,-0.7357888919460442,-0.002524216193705797,-0.01876935921609402,0.01473509799689054,-0.01019418239593506,-0.0124046802520752,-0.003572970628738403,XArbitraryZVertical,-0.2114085296952563,0.5151222273760444,-0.7745787115841528,-0.2999719343104263,-0.6365495324134827,0.6711721420288086,-0.3799110352993011,0,0,0,-1,-1,20309.90125491667,unknown,2,2025-04-21T16:43:17.691+03:00,2025-04-20T21:57:49.637+03:00,6805,0.9845527,0,0,5579.851,5,6,2025-04-21T16:43:17.691+03:00,766935790.0548265,0,-38.69,100.1966,1,0.3,2025-04-21T16:43:07.230+03:00,101,1.683333333333333,2025-04-21T12:30:07.995+03:00,0.02023345852159405,0
2025-04-21T16:43:19.467+03:00,1745242998.53616,40.95237388445845,29.14013565701957,78.28703,-1,-1,-1,-1,30,34.22672640375541,-9999,20311.673322,-0.623748779296875,0.6672210693359375,-0.384552001953125,20311.665783,1.971796007823237,-1.03284893280908,-0.7359720331464162,-0.009353626519441605,-0.01976538263261318,0.00853765569627285,0.008596897125244141,-0.008237481117248535,-0.006652861833572388,XArbitraryZVertical,-0.2114172970856246,0.5151915354348536,-0.7745696072341193,-0.29987018434159,-0.6364960074424744,0.6713079214096069,-0.3797608017921448,0,0,0,-1,-1,20309.90125491667,unknown,2,2025-04-21T16:43:17.691+03:00,2025-04-20T21:57:49.637+03:00,6805,0.9845527,0,0,5579.851,5,6,2025-04-21T16:43:17.691+03:00,766935790.0548265,0,-38.69,100.1966,1,0.3,2025-04-21T16:43:07.230+03:00,101,1.683333333333333,2025-04-21T12:30:07.995+03:00,0.02023345852159405,0
2025-04-21T16:43:19.479+03:00,1745242998.53616,40.95237388445845,29.14013565701957,78.28703,-1,-1,-1,-1,30,34.22672640375541,-9999,20311.683398,-0.6240234375,0.674530029296875,-0.38372802734375,20311.675858,1.971686108417815,-1.033175794087231,-0.7360473755671494,-0.01780909672379494,-0.03143981471657753,-0.004601281601935625,0.01295012235641479,-0.003547728061676025,-0.004872620105743408,XArbitraryZVertical,-0.2114929933233529,0.5152739307391309,-0.774518431778681,-0.2998079238132182,-0.6365768313407898,0.6713637709617615,-0.3795269727706909,0,0,0,-1,-1,20309.90125491667,unknown,2,2025-04-21T16:43:17.691+03:00,2025-04-20T21:57:49.637+03:00,6805,0.9845527,0,0,5579.851,5,6,2025-04-21T16:43:17.691+03:00,766935790.0548265,0,-38.69,100.1966,1,0.3,2025-04-21T16:43:07.230+03:00,101,1.683333333333333,2025-04-21T12:30:07.995+03:00,0.02023345852159405,0
2025-04-21T16:43:19.487+03:00,1745242998.53616,40.95237388445845,29.14013565701957,78.28703,-1,-1,-1,-1,30,34.22672640375541,-9999,20311.693474,-0.625457763671875,0.6707611083984375,-0.3836212158203125,20311.685934,1.971410428062953,-1.033617380453633,-0.736090486086768,-0.02046666480600834,-0.0213277917355299,-0.0008664645720273256,0.01271116733551025,0.00394284725189209,-0.004802346229553223,XArbitraryZVertical,-0.211580221963986,0.5153817585189565,-0.7744301728183834,-0.2997885496615386,-0.636719286441803,0.6713957190513611,-0.3792309165000916,0,0,0,-1,-1,20309.90125491667,unknown,2,2025-04-21T16:43:17.691+03:00,2025-04-20T21:57:49.637+03:00,6805,0.9845527,0,0,5579.851,5,6,2025-04-21T16:43:17.691+03:00,766935790.0548265,0,-38.69,100.1966,1,0.3,2025-04-21T16:43:07.230+03:00,101,1.683333333333333,2025-04-21T12:30:07.995+03:00,0.02023345852159405,0
2025-04-21T16:43:19.497+03:00,1745242998.53616,40.95237388445845,29.14013565701957,78.28703,-1,-1,-1,-1,30,34.22672640375541,-9999,20311.70355,-0.6339569091796875,0.664581298828125,-0.3759307861328125,20311.69601,1.971149782955681,-1.033940013744685,-0.73621300393644,-0.02617368474602699,-0.01550146099179983,-0.01316673960536718,0.01003152132034302,-0.00243455171585083,-0.003234148025512695,XArbitraryZVertical,-0.2116014117481638,0.5154930947759633,-0.7743566262677757,-0.2997722952895976,-0.636771023273468,0.671486496925354,-0.3789834380149841,0,0,0,-1,-1,20309.90125491667,unknown,2,2025-04-21T16:43:17.691+03:00,2025-04-20T21:57:49.637+03:00,6805,0.9845527,0,0,5579.851,5,6,2025-04-21T16:43:17.691+03:00,766935790.0548265,0,-38.69,100.1966,1,0.3,2025-04-21T16:43:07.230+03:00,101,1.683333333333333,2025-04-21T12:30:07.995+03:00,0.02023345852159405,0
2025-04-21T16:43:19.508+03:00,1745242998.53616,40.95237388445845,29.14013565701957,78.28703,-1,-1,-1,-1,30,34.22672640375541,-9999,20311.713625,-0.629302978515625,0.672821044921875,-0.372222900390625,20311.706086,1.970840487822481,-1.034314479319326,-0.7363047778237579,-0.02142367139458656,-0.02503051608800888,-0.006554110907018185,0.0026589035987854,-0.005172908306121826,0.004201561212539673,XArbitraryZVertical,-0.2116393195287936,0.5156084626795714,-0.7742703519442553,-0.299769870624157,-0.6368598937988281,0.6715545058250427,-0.3787134289741516,0,0,0,-1,-1,20309.90125491667,unknown,2,2025-04-21T16:43:17.691+03:00,2025-04-20T21:57:49.637+03:00,6805,0.9845527,0,0,5579.851,5,6,2025-04-21T16:43:17.691+03:00,766935790.0548265,0,-38.69,100.1966,1,0.3,2025-04-21T16:43:07.230+03:00,101,1.683333333333333,2025-04-21T12:30:07.995+03:00,0.02023345852159405,0
2025-04-21T16:43:19.518+03:00,1745242998.53616,40.95237388445845,29.14013565701957,78.28703,-1,-1,-1,-1,30,34.22672640375541,-9999,20311.723701,-0.624481201171875,0.6696319580078125,-0.3804473876953125,20311.716161,1.970528289858927,-1.034697417209969,-0.7364394246626013,-0.03404832258820534,-0.01759623736143112,-0.006594158709049225,0.009516298770904541,0.001029253005981445,0.004964381456375122,XArbitraryZVertical,-0.2116668965489399,0.5157377765097566,-0.7741826541865183,-0.2997545043466648,-0.6369271278381348,0.6716542840003967,-0.3784233331680298,0,0,0,-1,-1,20309.90125491667,unknown,2,2025-04-21T16:43:17.691+03:00,2025-04-20T21:57:49.637+03:00,6805,0.9845527,0,0,5579.851,5,6,2025-04-21T16:43:17.691+03:00,766935790.0548265,0,-38.69,100.1966,1,0.3,2025-04-21T16:43:07.230+03:00,101,1.683333333333333,2025-04-21T12:30:07.995+03:00,0.02023345852159405,0
2025-04-21T16:43:19.528+03:00,1745242998.53616,40.95237388445845,29.14013565701957,78.28703,-1,-1,-1,-1,30,34.22672640375541,-9999,20311.733777,-0.6282196044921875,0.6698150634765625,-0.382659912109375,20311.726237,1.970108042605693,-1.035156519197951,-0.7365150870965134,-0.02988526597619057,-0.02443310432136059,-0.01145975291728973,0.01230126619338989,-0.002460062503814697,-0.002724021673202515,XArbitraryZVertical,-0.2117136534581151,0.5158729091330687,-0.7740708543881634,-0.2997776506987436,-0.6370570659637451,0.6717103123664856,-0.378104954957962,0,0,0,-1,-1,20309.90125491667,unknown,2,2025-04-21T16:43:17.691+03:00,2025-04-20T21:57:49.637+03:00,6805,0.9845527,0,0,5579.851,5,6,2025-04-21T16:43:17.691+03:00,766935790.0548265,0,-38.69,100.1966,1,0.3,2025-04-21T16:43:07.230+03:00,101,1.683333333333333,2025-04-21T12:30:07.995+03:00,0.02023345852159405,0
2025-04-21T16:43:19.538+03:00,1745242998.53616,40.95237388445845,29.14013565701957,78.28703,-1,-1,-1,-1,30,34.22672640375541,-9999,20311.743853,-0.6259918212890625,0.6744232177734375,-0.3775177001953125,20311.736313,1.969779348985077,-1.035702776804696,-0.7365044417116933,-0.01631772704422474,-0.03950652852654457,-0.005883327219635248,0.009492695331573486,-0.0008498430252075195,-0.004090726375579834,XArbitraryZVertical,-0.2118433600830599,0.5159865096162068,-0.7739638433506275,-0.2997671644959403,-0.6372698545455933,0.6717024445533752,-0.3777606189250946,0,0,0,-1,-1,20309.90125491667,unknown,2,2025-04-21T16:43:17.691+03:00,2025-04-20T21:57:49.637+03:00,6805,0.9845527,0,0,5579.851,5,6,2025-04-21T16:43:17.691+03:00,766935790.0548265,0,-38.69,100.1966,1,0.3,2025-04-21T16:43:07.230+03:00,101,1.683333333333333,2025-04-21T12:30:07.995+03:00,0.02023345852159405,0
2025-04-21T16:43:19.548+03:00,1745242998.53616,40.95237388445845,29.14013565701957,78.28703,-1,-1,-1,-1,30,34.22672640375541,-9999,20311.753929,-0.6293182373046875,0.68231201171875,-0.3818359375,20311.746389,1.969623985057323,-1.03618066954711,-0.736491701987106,-0.009701368398964405,-0.04295585304498672,-0.008010660298168659,0.01088589429855347,0.002913177013397217,0.0004460811614990234,XArbitraryZVertical,-0.2119920744186219,0.5160709271522181,-0.7738898952040221,-0.2997073175071804,-0.6374574899673462,0.6716930270195007,-0.3774603307247162,0,0,0,-1,-1,20309.90125491667,unknown,2,2025-04-21T16:43:17.691+03:00,2025-04-20T21:57:49.637+03:00,6805,0.9845527,0,0,5579.851,5,6,2025-04-21T16:43:17.691+03:00,766935790.0548265,0,-38.69,100.1966,1,0.3,2025-04-21T16:43:07.230+03:00,101,1.683333333333333,2025-04-21T12:30:07.995+03:00,0.02023345852159405,0
2025-04-21T16:43:19.558+03:00,1745242998.53616,40.95237388445845,29.14013565701957,78.28703,-1,-1,-1,-1,30,34.22672640375541,-9999,20311.764004,-0.6302490234375,0.67938232421875,-0.3854522705078125,20311.756465,1.969566805267432,-1.036700395891369,-0.7363792526253421,0.006206557620316744,-0.06261017918586731,-0.01963785476982594,0.007759511470794678,0.01126670837402344,-0.004775434732437134,XArbitraryZVertical,-0.2122120080820533,0.5161224460123148,-0.7738264566270943,-0.2996265829394614,-0.6377185583114624,0.6716096997261047,-0.3771673738956451,0,0,0,-1,-1,20309.90125491667,unknown,2,2025-04-21T16:43:17.691+03:00,2025-04-20T21:57:49.637+03:00,6805,0.9845527,0,0,5579.851,5,6,2025-04-21T16:43:17.691+03:00,766935790.0548265,0,-38.69,100.1966,1,0.3,2025-04-21T16:43:07.230+03:00,101,1.683333333333333,2025-04-21T12:30:07.995+03:00,0.02023345852159405,0
2025-04-21T16:43:19.568+03:00,1745242998.53616,40.95237388445845,29.14013565701957,78.28703,-1,-1,-1,-1,30,34.22672640375541,-9999,20311.77408,-0.6246490478515625,0.6664886474609375,-0.381561279296875,20311.76654,1.969553191089369,-1.037373718214188,-0.7361696864000805,0.008958668448030949,-0.07262526452541351,-0.02819059602916241,0.008638083934783936,0.007164835929870605,-0.008322477340698242,XArbitraryZVertical,-0.212531483320674,0.5161643314067151,-0.7737534513029291,-0.2995167061733382,-0.6380935907363892,0.6714544296264648,-0.3768095076084137,0,0,0,-1,-1,20309.90125491667,unknown,2,2025-04-21T16:43:17.691+03:00,2025-04-20T21:57:49.637+03:00,6805,0.9845527,0,0,5579.851,5,6,2025-04-21T16:43:17.691+03:00,766935790.0548265,0,-38.69,100.1966,1,0.3,2025-04-21T16:43:07.230+03:00,101,1.683333333333333,2025-04-21T12:30:07.995+03:00,0.02023345852159405,0
2025-04-21T16:43:19.578+03:00,1745242998.53616,40.95237388445845,29.14013565701957,78.28703,-1,-1,-1,-1,30,34.22672640375541,-9999,20311.784156,-0.6283416748046875,0.6591339111328125,-0.3823394775390625,20311.776616,1.969374135838193,-1.038186062844528,-0.7359621824934053,-0.008918732404708862,-0.06981044262647629,-0.02427941188216209,0.0133364200592041,-0.006444871425628662,-0.004894465208053589,XArbitraryZVertical,-0.2128614551079514,0.5162452184649126,-0.7736406886039074,-0.2994341809325527,-0.6385194659233093,0.6713006496429443,-0.376361757516861,0,0,0,-1,-1,20309.90125491667,unknown,2,2025-04-21T16:43:17.691+03:00,2025-04-20T21:57:49.637+03:00,6805,0.9845527,0,0,5579.851,5,6,2025-04-21T16:43:17.691+03:00,766935790.0548265,0,-38.69,100.1966,1,0.3,2025-04-21T16:43:07.230+03:00,101,1.683333333333333,2025-04-21T12:30:07.995+03:00,0.02023345852159405,0
2025-04-21T16:43:19.588+03:00,1745242998.53616,40.95237388445845,29.14013565701957,78.28703,-1,-1,-1,-1,30,34.22672640375541,-9999,20311.794232,-0.6356658935546875,0.6660308837890625,-0.3830108642578125,20311.786692,1.968975219109551,-1.038993681651403,-0.7358347799476087,-0.02356292121112347,-0.03998570144176483,-0.02523096092045307,0.00951772928237915,-0.01108062267303467,-0.006465494632720947,XArbitraryZVertical,-0.2131088430353056,0.5163719121525034,-0.7734952333567766,-0.2994156324283554,-0.6388970017433167,0.6712061762809753,-0.3758893311023712,0,0,0,-1,-1,20309.90125491667,unknown,2,2025-04-21T16:43:17.691+03:00,2025-04-20T21:57:49.637+03:00,6805,0.9845527,0,0,5579.851,5,6,2025-04-21T16:43:17.691+03:00,766935790.0548265,0,-38.69,100.1966,1,0.3,2025-04-21T16:43:07.230+03:00,101,1.683333333333333,2025-04-21T12:30:07.995+03:00,0.02023345852159405,0
2025-04-21T16:43:19.599+03:00,1745242998.53616,40.95237388445845,29.14013565701957,78.28703,-1,-1,-1,-1,30,34.22672640375541,-9999,20311.804308,-0.6388702392578125,0.6684722900390625,-0.3798370361328125,20311.796768,1.968553240895161,-1.039608021660786,-0.7358256851333264,-0.02399488538503647,-0.0295983050018549,-0.01679300144314766,0.003024697303771973,-0.004405736923217773,-0.007297515869140625,XArbitraryZVertical,-0.2132401172131112,0.5165062382247483,-0.7733666380232208,-0.299422880676127,-0.6391331553459167,0.6711994409561157,-0.3754999041557312,0,0,0,-1,-1,20309.90125491667,unknown,2,2025-04-21T16:43:17.691+03:00,2025-04-20T21:57:49.637+03:00,6805,0.9845527,0,0,5579.851,5,6,2025-04-21T16:43:17.691+03:00,766935790.0548265,0,-38.69,100.1966,1,0.3,2025-04-21T16:43:07.230+03:00,101,1.683333333333333,2025-04-21T12:30:07.995+03:00,0.02023345852159405,0
2025-04-21T16:43:19.609+03:00,1745242998.53616,40.95237388445845,29.14013565701957,78.28703,-1,-1,-1,-1,30,34.22672640375541,-9999,20311.814384,-0.6361236572265625,0.6678314208984375,-0.373779296875,20311.806844,1.968141199768218,-1.040123871178754,-0.7358304250685476,-0.02815607562661171,-0.02331191301345825,-0.01582786999642849,0.0005300045013427734,-0.002807080745697021,-0.003997266292572021,XArbitraryZVertical,-0.213331753278778,0.5166287772804445,-0.7732499126071152,-0.2994475801193225,-0.6393240094184875,0.6712029576301575,-0.3751685321331024,0,0,0,-1,-1,20309.90125491667,unknown,2,2025-04-21T16:43:17.691+03:00,2025-04-20T21:57:49.637+03:00,6805,0.9845527,0,0,5579.851,5,6,2025-04-21T16:43:17.691+03:00,766935790.0548265,0,-38.69,100.1966,1,0.3,2025-04-21T16:43:07.230+03:00,101,1.683333333333333,2025-04-21T12:30:07.995+03:00,0.02023345852159405,0
2025-04-21T16:43:19.619+03:00,1745242998.53616,40.95237388445845,29.14013565701957,78.28703,-1,-1,-1,-1,30,34.22672640375541,-9999,20311.824459,-0.6345062255859375,0.6677703857421875,-0.37164306640625,20311.81692,1.967750449084312,-1.040560031646255,-0.7359092045177923,-0.02983673103153706,-0.01700761169195175,-0.00694979028776288,0.003730297088623047,-0.003002822399139404,0.001464962959289551,XArbitraryZVertical,-0.2133758822799488,0.516758422318658,-0.7731447704139252,-0.2994639974173347,-0.639441967010498,0.6712613701820374,-0.374862939119339,0,0,0,-1,-1,20309.90125491667,unknown,2,2025-04-21T16:43:17.691+03:00,2025-04-20T21:57:49.637+03:00,6805,0.9845527,0,0,5579.851,5,6,2025-04-21T16:43:17.691+03:00,766935790.0548265,0,-38.69,100.1966,1,0.3,2025-04-21T16:43:07.230+03:00,101,1.683333333333333,2025-04-21T12:30:07.995+03:00,0.02023345852159405,0
2025-04-21T16:43:19.629+03:00,1745242998.53616,40.95237388445845,29.14013565701957,78.28703,-1,-1,-1,-1,30,34.22672640375541,-9999,20311.834535,-0.63818359375,0.670166015625,-0.3726043701171875,20311.826995,1.967406254119342,-1.040861099170314,-0.7360006556033063,-0.02040461264550686,-0.00281216436997056,-0.00892212800681591,0.004354715347290039,-0.003040075302124023,0.002935111522674561,XArbitraryZVertical,-0.2133760277237443,0.5168665190908583,-0.7730609589849439,-0.2994936177082304,-0.6395018100738525,0.671329140663147,-0.3746393322944641,0,0,0,-1,-1,20309.90125491667,unknown,2,2025-04-21T16:43:17.691+03:00,2025-04-20T21:57:49.637+03:00,6805,0.9845527,0,0,5579.851,5,6,2025-04-21T16:43:17.691+03:00,766935790.0548265,0,-38.69,100.1966,1,0.3,2025-04-21T16:43:07.230+03:00,101,1.683333333333333,2025-04-21T12:30:07.995+03:00,0.02023345852159405,0
2025-04-21T16:43:19.639+03:00,1745242998.53616,40.95237388445845,29.14013565701957,78.28703,-1,-1,-1,-1,30,34.22672640375541,-9999,20311.844611,-0.637359619140625,0.6661224365234375,-0.3687744140625,20311.837071,1.967233174316608,-1.041006990063261,-0.7360325283492291,-0.00479516014456749,-0.006335393059998751,-0.008502346463501453,0.001125454902648926,-0.001385271549224854,0.002312183380126953,XArbitraryZVertical,-0.2133781982393337,0.5169159963630909,-0.7730194033435301,-0.2995138020325499,-0.6395379304885864,0.671352744102478,-0.3745352029800415,0,0,0,-1,-1,20309.90125491667,unknown,2,2025-04-21T16:43:17.691+03:00,2025-04-20T21:57:49.637+03:00,6805,0.9845527,0,0,5579.851,5,6,2025-04-21T16:43:17.691+03:00,766935790.0548265,0,-38.69,100.1966,1,0.3,2025-04-21T16:43:07.230+03:00,101,1.683333333333333,2025-04-21T12:30:07.995+03:00,0.02023345852159405,0
2025-04-21T16:43:19.649+03:00,1745242998.53616,40.95237388445845,29.14013565701957,78.28703,-1,-1,-1,-1,30,34.22672640375541,-9999,20311.854687,-0.6374359130859375,0.6627960205078125,-0.3687744140625,20311.847147,1.96720019000838,-1.0410794757627,-0.7359929581804064,-0.0007346385391429067,-0.007631553802639246,-0.006792863830924034,0.002609848976135254,-0.006070971488952637,0.005910784006118774,XArbitraryZVertical,-0.2134095327683692,0.5169190018511055,-0.7730067646312515,-0.299518809896674,-0.639587938785553,0.6713234186172485,-0.3745022416114807,0,0,0,-1,-1,20309.90125491667,unknown,2,2025-04-21T16:43:17.691+03:00,2025-04-20T21:57:49.637+03:00,6805,0.9845527,0,0,5579.851,5,6,2025-04-21T16:43:17.691+03:00,766935790.0548265,0,-38.69,100.1966,1,0.3,2025-04-21T16:43:07.230+03:00,101,1.683333333333333,2025-04-21T12:30:07.995+03:00,0.02023345852159405,0
2025-04-21T16:43:19.659+03:00,1745242998.53616,40.95237388445845,29.14013565701957,78.28703,-1,-1,-1,-1,30,34.22672640375541,-9999,20311.864762,-0.6381683349609375,0.6630706787109375,-0.372314453125,20311.857223,1.967262113383167,-1.041080433859324,-0.7359731169852602,0.004372172523289919,-0.00299186073243618,0.004082654137164354,0.002606570720672607,-0.00790250301361084,0.005413413047790527,XArbitraryZVertical,-0.2134317608587346,0.516906827380438,-0.7730160233491484,-0.2995003968741293,-0.6395999193191528,0.6713087558746338,-0.3745084404945374,0,0,0,-1,-1,20309.90125491667,unknown,2,2025-04-21T16:43:17.691+03:00,2025-04-20T21:57:49.637+03:00,6805,0.9845527,0,0,5579.851,5,6,2025-04-21T16:43:17.691+03:00,766935790.0548265,0,-38.69,100.1966,1,0.3,2025-04-21T16:43:07.230+03:00,101,1.683333333333333,2025-04-21T12:30:07.995+03:00,0.02023345852159405,0
2025-04-21T16:43:19.670+03:00,1745242998.53616,40.95237388445845,29.14013565701957,78.28703,-1,-1,-1,-1,30,34.22672640375541,-9999,20311.874838,-0.6389617919921875,0.664520263671875,-0.3776702880859375,20311.867298,1.967334875850622,-1.040995389465277,-0.735996041372513,0.002498638816177845,0.000140815507620573,0.008078726939857006,0.0005472302436828613,-0.007919490337371826,0.001324892044067383,XArbitraryZVertical,-0.2134108789948446,0.5168929195291421,-0.7730359373546998,-0.2994877504117406,-0.6395547389984131,0.6713257431983948,-0.3745550215244293,0,0,0,-1,-1,20309.90125491667,unknown,2,2025-04-21T16:43:17.691+03:00,2025-04-20T21:57:49.637+03:00,6805,0.9845527,0,0,5579.851,5,6,2025-04-21T16:43:17.691+03:00,766935790.0548265,0,-38.69,100.1966,1,0.3,2025-04-21T16:43:07.230+03:00,101,1.683333333333333,2025-04-21T12:30:07.995+03:00,0.02023345852159405,0
2025-04-21T16:43:19.702+03:00,1745242998.53616,40.95237388445845,29.14013565701957,78.28703,-1,-1,-1,-1,30,34.22672640375541,-9999,20311.884914,-0.6356201171875,0.6634368896484375,-0.37957763671875,20311.877374,1.967445679762316,-1.040924640941977,-0.7359979669153354,0.007717235945165157,-0.009110872633755207,-0.0008099057013168931,0.00120621919631958,-0.007341086864471436,-0.003772735595703125,XArbitraryZVertical,-0.2134115890308272,0.5168710552942928,-0.7730600796411194,-0.2994626833255327,-0.6395271420478821,0.6713271737098694,-0.3745996057987213,0,0,0,-1,-1,20309.90125491667,unknown,2,2025-04-21T16:43:17.691+03:00,2025-04-20T21:57:49.637+03:00,6805,0.9845527,0,0,5579.851,5,6,2025-04-21T16:43:17.691+03:00,766935790.0548265,0,-38.69,100.1966,1,0.3,2025-04-21T16:43:07.230+03:00,101,1.683333333333333,2025-04-21T12:30:07.995+03:00,0.02023345852159405,0
2025-04-21T16:43:19.704+03:00,1745242998.53616,40.95237388445845,29.14013565701957,78.28703,-1,-1,-1,-1,30,34.22672640375541,-9999,20311.89499,-0.6304779052734375,0.660552978515625,-0.3750762939453125,20311.88745,1.967503770350649,-1.041030576619068,-0.7359591043440081,-0.003285613842308521,-0.02001731656491756,-0.001514045521616936,0.004961013793945312,-0.007556498050689697,-0.00550571084022522,XArbitraryZVertical,-0.2134792052318102,0.5168695515646198,-0.7730574855352446,-0.2994235701529255,-0.639589250087738,0.6712983250617981,-0.3745449781417847,0,0,0,-1,-1,20309.90125491667,unknown,2,2025-04-21T16:43:17.691+03:00,2025-04-20T21:57:49.637+03:00,6805,0.9845527,0,0,5579.851,5,6,2025-04-21T16:43:17.691+03:00,766935790.0548265,0,-38.69,100.1966,1,0.3,2025-04-21T16:43:07.230+03:00,101,1.683333333333333,2025-04-21T12:30:07.995+03:00,0.02023345852159405,0
2025-04-21T16:43:19.705+03:00,1745242998.53616,40.95237388445845,29.14013565701957,78.28703,-1,-1,-1,-1,30,34.22672640375541,-9999,20311.905066,-0.634002685546875,0.658843994140625,-0.3712615966796875,20311.897526,1.967321313395448,-1.041334151220068,-0.7359645448211697,-0.0209391750395298,-0.01312665268778801,-0.01151834335178137,0.009496629238128662,-0.01140570640563965,0.0008442997932434082,XArbitraryZVertical,-0.213547720134632,0.5169360372873126,-0.7729977866936105,-0.2994142309054265,-0.6396998167037964,0.6713023781776428,-0.3743489980697632,0,0,0,-1,-1,20309.90125491667,unknown,2,2025-04-21T16:43:17.691+03:00,2025-04-20T21:57:49.637+03:00,6805,0.9845527,0,0,5579.851,5,6,2025-04-21T16:43:17.691+03:00,766935790.0548265,0,-38.69,100.1966,1,0.3,2025-04-21T16:43:07.230+03:00,101,1.683333333333333,2025-04-21T12:30:07.995+03:00,0.02023345852159405,0
2025-04-21T16:43:19.709+03:00,1745242998.53616,40.95237388445845,29.14013565701957,78.28703,-1,-1,-1,-1,30,34.22672640375541,-9999,20311.915142,-0.6394500732421875,0.66131591796875,-0.374267578125,20311.907602,1.966796959022435,-1.041756159096284,-0.7360326266072968,-0.04777957871556282,-0.005653024651110172,-0.01877173036336899,0.004472851753234863,-0.01217323541641235,0.002336472272872925,XArbitraryZVertical,-0.2135548930368084,0.5170747664547298,-0.7728741589428542,-0.2994888492208565,-0.6398183703422546,0.6713528037071228,-0.3740559816360474,0,0,0,-1,-1,20309.90125491667,unknown,2,2025-04-21T16:43:17.691+03:00,2025-04-20T21:57:49.637+03:00,6805,0.9845527,0,0,5579.851,5,6,2025-04-21T16:43:17.691+03:00,766935790.0548265,0,-38.69,100.1966,1,0.3,2025-04-21T16:43:07.230+03:00,101,1.683333333333333,2025-04-21T12:30:07.995+03:00,0.02023345852159405,0
2025-04-21T16:43:19.719+03:00,1745242998.53616,40.95237388445845,29.14013565701957,78.28703,-1,-1,-1,-1,30,34.22672640375541,-9999,20311.925217,-0.636962890625,0.6664581298828125,-0.37420654296875,20311.917678,1.96607411213891,-1.042332494421133,-0.7361191004761169,-0.050227090716362,-0.01423725858330727,-0.02317183651030064,0.001021802425384521,-0.009658694267272949,-0.0002894699573516846,XArbitraryZVertical,-0.2135649189022732,0.5172631082506727,-0.7727041844527855,-0.2995946580959827,-0.6399835348129272,0.6714169383049011,-0.3736577928066254,0,0,0,-1,-1,20309.90125491667,unknown,2,2025-04-21T16:43:17.691+03:00,2025-04-20T21:57:49.637+03:00,6805,0.9845527,0,0,5579.851,5,6,2025-04-21T16:43:17.691+03:00,766935790.0548265,0,-38.69,100.1966,1,0.3,2025-04-21T16:43:07.230+03:00,101,1.683333333333333,2025-04-21T12:30:07.995+03:00,0.02023345852159405,0
2025-04-21T16:43:19.729+03:00,1745242998.53616,40.95237388445845,29.14013565701957,78.28703,-1,-1,-1,-1,30,34.22672640375541,-9999,20311.935293,-0.6351470947265625,0.6682891845703125,-0.37274169921875,20311.927753,1.96527223968548,-1.043088222358775,-0.7361797511791577,-0.0540495254099369,-0.0215740017592907,-0.02515189535915852,0.004000186920166016,-0.004607200622558594,-0.001449793577194214,XArbitraryZVertical,-0.2136312833992869,0.5174793714124473,-0.7725032879190643,-0.2996919860711322,-0.6402305960655212,0.6714618802070618,-0.3731535375118256,0,0,0,-1,-1,20309.90125491667,unknown,2,2025-04-21T16:43:17.691+03:00,2025-04-20T21:57:49.637+03:00,6805,0.9845527,0,0,5579.851,5,6,2025-04-21T16:43:17.691+03:00,766935790.0548265,0,-38.69,100.1966,1,0.3,2025-04-21T16:43:07.230+03:00,101,1.683333333333333,2025-04-21T12:30:07.995+03:00,0.02023345852159405,0
2025-04-21T16:43:19.739+03:00,1745242998.53616,40.95237388445845,29.14013565701957,78.28703,-1,-1,-1,-1,30,34.22672640375541,-9999,20311.945369,-0.63946533203125,0.6697998046875,-0.3714599609375,20311.937829,1.964359198506429,-1.043850162565043,-0.7362135603806959,-0.06715553998947144,-0.01217151153832674,-0.03422984853386879,0.005210697650909424,-0.002816438674926758,0.0002633929252624512,XArbitraryZVertical,-0.2136791327265372,0.5177008017848345,-0.7722850254722886,-0.2998379722900787,-0.6404951214790344,0.6714869141578674,-0.3726542294025421,0,0,0,-1,-1,20309.90125491667,unknown,2,2025-04-21T16:43:17.691+03:00,2025-04-20T21:57:49.637+03:00,6805,0.9845527,0,0,5579.851,5,6,2025-04-21T16:43:17.691+03:00,766935790.0548265,0,-38.69,100.1966,1,0.3,2025-04-21T16:43:07.230+03:00,101,1.683333333333333,2025-04-21T12:30:07.995+03:00,0.02023345852159405,0
2025-04-21T16:43:19.750+03:00,1745242998.53616,40.95237388445845,29.14013565701957,78.28703,-1,-1,-1,-1,30,34.22672640375541,-9999,20311.955445,-0.64208984375,0.6672821044921875,-0.3725738525390625,20311.947905,1.963296349269307,-1.044670508412848,-0.7363132174296446,-0.08054991066455841,-0.007251320406794548,-0.02746781520545483,-0.0002179145812988281,-0.002218842506408691,0.001413196325302124,XArbitraryZVertical,-0.2136907889725564,0.5179659146333283,-0.7720379904628063,-0.3000081709978384,-0.6407428383827209,0.6715607643127441,-0.3720951080322266,0,0,0,-1,-1,20309.90125491667,unknown,2,2025-04-21T16:43:17.691+03:00,2025-04-20T21:57:49.637+03:00,6805,0.9845527,0,0,5579.851,5,6,2025-04-21T16:43:17.691+03:00,766935790.0548265,0,-38.69,100.1966,1,0.3,2025-04-21T16:43:07.230+03:00,101,1.683333333333333,2025-04-21T12:30:07.995+03:00,0.02023345852159405,0
2025-04-21T16:43:19.760+03:00,1745242998.53616,40.95237388445845,29.14013565701957,78.28703,-1,-1,-1,-1,30,34.22672640375541,-9999,20311.965521,-0.6429901123046875,0.6649932861328125,-0.375030517578125,20311.957981,1.962071883614132,-1.045471997888463,-0.7364902693986857,-0.09666016697883606,0.008583568967878819,-0.03198706358671188,-0.001487612724304199,-0.004974603652954102,-0.001418381929397583,XArbitraryZVertical,-0.2136299603839121,0.5182676524145537,-0.7717685486905059,-0.3002233614581871,-0.640937864780426,0.6716919541358948,-0.3715217709541321,0,0,0,-1,-1,20309.90125491667,unknown,2,2025-04-21T16:43:17.691+03:00,2025-04-20T21:57:49.637+03:00,6805,0.9845527,0,0,5579.851,5,6,2025-04-21T16:43:17.691+03:00,766935790.0548265,0,-38.69,100.1966,1,0.3,2025-04-21T16:43:07.230+03:00,101,1.683333333333333,2025-04-21T12:30:07.995+03:00,0.02023345852159405,0
2025-04-21T16:43:19.770+03:00,1745242998.53616,40.95237388445845,29.14013565701957,78.28703,-1,-1,-1,-1,30,34.22672640375541,-9999,20311.975596,-0.6451416015625,0.66790771484375,-0.374755859375,20311.968057,1.960765985345128,-1.046215072843766,-0.7366655036713707,-0.08948002010583878,0.008952150121331215,-0.03133885189890862,-0.002229213714599609,-0.006584525108337402,-0.004746168851852417,XArbitraryZVertical,-0.2135256971652664,0.5185687819512329,-0.771493053796774,-0.3004853309168301,-0.6411117911338806,0.6718217730522156,-0.3709864020347595,0,0,0,-1,-1,20309.90125491667,unknown,2,2025-04-21T16:43:17.691+03:00,2025-04-20T21:57:49.637+03:00,6805,0.9845527,0,0,5579.851,5,6,2025-04-21T16:43:17.691+03:00,766935790.0548265,0,-38.69,100.1966,1,0.3,2025-04-21T16:43:07.230+03:00,101,1.683333333333333,2025-04-21T12:30:07.995+03:00,0.02023345852159405,0
2025-04-21T16:43:19.780+03:00,1745242998.53616,40.95237388445845,29.14013565701957,78.28703,-1,-1,-1,-1,30,34.22672640375541,-9999,20311.985672,-0.641143798828125,0.6731719970703125,-0.3697052001953125,20311.978132,1.959682183082488,-1.046876151524728,-0.7368162900097266,-0.06894751638174057,0.001001349650323391,-0.02547413855791092,-0.004024863243103027,-0.003461301326751709,-0.004442453384399414,XArbitraryZVertical,-0.2134543179068511,0.5188268663321081,-0.7712596973910318,-0.3006898069092345,-0.641269326210022,0.6719334125518799,-0.3705118596553802,0,0,0,-1,-1,20309.90125491667,unknown,2,2025-04-21T16:43:17.691+03:00,2025-04-20T21:57:49.637+03:00,6805,0.9845527,0,0,5579.851,5,6,2025-04-21T16:43:17.691+03:00,766935790.0548265,0,-38.69,100.1966,1,0.3,2025-04-21T16:43:07.230+03:00,101,1.683333333333333,2025-04-21T12:30:07.995+03:00,0.02023345852159405,0
2025-04-21T16:43:19.790+03:00,1745242998.53616,40.95237388445845,29.14013565701957,78.28703,-1,-1,-1,-1,30,34.22672640375541,-9999,20311.995748,-0.64093017578125,0.6759033203125,-0.36639404296875,20311.988208,1.95877178074802,-1.047505930566661,-0.7368824691351511,-0.05169076099991798,-0.008280565962195396,-0.02180137299001217,-3.069639205932617e-05,0.00125044584274292,0.001219630241394043,XArbitraryZVertical,-0.2134410692348211,0.5190376127443318,-0.7710556157132493,-0.3008589032853537,-0.6414640545845032,0.67198246717453,-0.370085746049881,0,0,0,-1,-1,20309.90125491667,unknown,2,2025-04-21T16:43:17.691+03:00,2025-04-20T21:57:49.637+03:00,6805,0.9845527,0,0,5579.851,5,6,2025-04-21T16:43:17.691+03:00,766935790.0548265,0,-38.69,100.1966,1,0.3,2025-04-21T16:43:07.230+03:00,101,1.683333333333333,2025-04-21T12:30:07.995+03:00,0.02023345852159405,0
2025-04-21T16:43:19.800+03:00,1745242998.53616,40.95237388445845,29.14013565701957,78.28703,-1,-1,-1,-1,30,34.22672640375541,-9999,20312.005824,-0.6393280029296875,0.67694091796875,-0.3682403564453125,20311.998284,1.958111425840664,-1.048070311592311,-0.736904502151717,-0.03602025657892227,-0.01861049979925156,-0.01904849708080292,0.001263916492462158,0.004377424716949463,0.003367841243743896,XArbitraryZVertical,-0.2134806113204636,0.5191992853294309,-0.7708960477375324,-0.3009608142046728,-0.6416599750518799,0.6719987392425537,-0.3697162568569183,0,0,0,-1,-1,20309.90125491667,unknown,2,2025-04-21T16:43:17.691+03:00,2025-04-20T21:57:49.637+03:00,6805,0.9845527,0,0,5579.851,5,6,2025-04-21T16:43:17.691+03:00,766935790.0548265,0,-38.69,100.1966,1,0.3,2025-04-21T16:43:07.230+03:00,101,1.683333333333333,2025-04-21T12:30:07.995+03:00,0.02023345852159405,0
2025-04-21T16:43:19.810+03:00,1745242998.53616,40.95237388445845,29.14013565701957,78.28703,-1,-1,-1,-1,30,34.22672640375541,-9999,20312.0159,-0.636688232421875,0.6777191162109375,-0.3696441650390625,20312.00836,1.957652610090933,-1.048612983931242,-0.7369266224174615,-0.0264736246317625,-0.02682129293680191,-0.0104560749605298,0.003694534301757812,0.00474250316619873,0.001120030879974365,XArbitraryZVertical,-0.2135640221506159,0.5193362373761974,-0.7707690692434377,-0.300990488409458,-0.6418476104736328,0.6720151305198669,-0.3693605661392212,0,0,0,-1,-1,20309.90125491667,unknown,2,2025-04-21T16:43:17.691+03:00,2025-04-20T21:57:49.637+03:00,6805,0.9845527,0,0,5579.851,5,6,2025-04-21T16:43:17.691+03:00,766935790.0548265,0,-38.69,100.1966,1,0.3,2025-04-21T16:43:07.230+03:00,101,1.683333333333333,2025-04-21T12:30:07.995+03:00,0.02023345852159405,0
2025-04-21T16:43:19.820+03:00,1745242998.53616,40.95237388445845,29.14013565701957,78.28703,-1,-1,-1,-1,30,34.22672640375541,-9999,20312.025975,-0.6387939453125,0.6770477294921875,-0.3701934814453125,20312.018436,1.95733051059318,-1.049134609335401,-0.7369398668596764,-0.0182393305003643,-0.03254169598221779,-0.008034296333789825,0.005435824394226074,0.005404114723205566,-0.001034975051879883,XArbitraryZVertical,-0.2136773945333566,0.5194529102033648,-0.7706649075961407,-0.3009754786501445,-0.6420325040817261,0.6720249652862549,-0.3690212965011597,0,0,0,-1,-1,20309.90125491667,unknown,2,2025-04-21T16:43:17.691+03:00,2025-04-20T21:57:49.637+03:00,6805,0.9845527,0,0,5579.851,5,6,2025-04-21T16:43:17.691+03:00,766935790.0548265,0,-38.69,100.1966,1,0.3,2025-04-21T16:43:07.230+03:00,101,1.683333333333333,2025-04-21T12:30:07.995+03:00,0.02023345852159405,0
2025-04-21T16:43:19.830+03:00,1745242998.53616,40.95237388445845,29.14013565701957,78.28703,-1,-1,-1,-1,30,34.22672640375541,-9999,20312.036051,-0.639404296875,0.67529296875,-0.3676910400390625,20312.028511,1.957102363421953,-1.049625083101408,-0.7370021111318584,-0.01385123934596777,-0.0352485328912735,0.0009008757187984884,0.002391338348388672,0.004976511001586914,-0.001492857933044434,XArbitraryZVertical,-0.2137884747664184,0.5195688134540171,-0.7705781954441574,-0.3009183709581281,-0.6421771049499512,0.6720710396766663,-0.3686854839324951,0,0,0,-1,-1,20309.90125491667,unknown,2,2025-04-21T16:43:17.691+03:00,2025-04-20T21:57:49.637+03:00,6805,0.9845527,0,0,5579.851,5,6,2025-04-21T16:43:17.691+03:00,766935790.0548265,0,-38.69,100.1966,1,0.3,2025-04-21T16:43:07.230+03:00,101,1.683333333333333,2025-04-21T12:30:07.995+03:00,0.02023345852159405,0
2025-04-21T16:43:19.840+03:00,1745242998.53616,40.95237388445845,29.14013565701957,78.28703,-1,-1,-1,-1,30,34.22672640375541,-9999,20312.046127,-0.6405487060546875,0.674163818359375,-0.3667144775390625,20312.038587,1.957010657541384,-1.050010266084436,-0.7370861545438822,-0.009447303600609303,-0.02705678157508373,0.009422258473932743,0.002728462219238281,0.003525733947753906,0.0008409023284912109,XArbitraryZVertical,-0.213887785897552,0.5196604710648307,-0.770523340995366,-0.3008301181261551,-0.6422700881958008,0.6721332669258118,-0.3684100210666656,0,0,0,-1,-1,20309.90125491667,unknown,2,2025-04-21T16:43:17.691+03:00,2025-04-20T21:57:49.637+03:00,6805,0.9845527,0,0,5579.851,5,6,2025-04-21T16:43:17.691+03:00,766935790.0548265,0,-38.69,100.1966,1,0.3,2025-04-21T16:43:07.230+03:00,101,1.683333333333333,2025-04-21T12:30:07.995+03:00,0.02023345852159405,0
2025-04-21T16:43:19.851+03:00,1745242998.53616,40.95237388445845,29.14013565701957,78.28703,-1,-1,-1,-1,30,34.22672640375541,-9999,20312.0562035,-0.64739990234375,0.6740570068359375,-0.368011474609375,20312.048663,1.956984519187058,-1.050180466030854,-0.7372123565521973,-0.01018420048058033,-0.007237539160996675,0.01753318309783936,0.00145113468170166,0.001936972141265869,0.001391291618347168,XArbitraryZVertical,-0.2139086557045379,0.5197247585965703,-0.7705013734533812,-0.3007605580123209,-0.6422592401504517,0.6722267270088196,-0.368258535861969,0,0,0,-1,-1,20309.90125491667,unknown,2,2025-04-21T16:43:17.691+03:00,2025-04-20T21:57:49.637+03:00,6805,0.9845527,0,0,5579.851,5,6,2025-04-21T16:43:17.691+03:00,766935790.0548265,0,-38.69,100.1966,1,0.3,2025-04-21T16:43:07.230+03:00,101,1.683333333333333,2025-04-21T12:30:07.995+03:00,0.02023345852159405,0
2025-04-21T16:43:19.861+03:00,1745242998.53616,40.95237388445845,29.14013565701957,78.28703,-1,-1,-1,-1,30,34.22672640375541,-9999,20312.0662795,-0.6477508544921875,0.67205810546875,-0.3707275390625,20312.0587395,1.957030815579847,-1.050137525126029,-0.7373885547175719,-0.00707016559317708,0.004316851962357759,0.01973841153085232,-0.006281614303588867,0.001119792461395264,-0.0004253685474395752,XArbitraryZVertical,-0.213851310123468,0.5197634700220196,-0.7705130791385555,-0.3007041644067905,-0.6421405673027039,0.6723571419715881,-0.36822709441185,0,0,0,-1,-1,20309.90125491667,unknown,2,2025-04-21T16:43:17.691+03:00,2025-04-20T21:57:49.637+03:00,6805,0.9845527,0,0,5579.851,5,6,2025-04-21T16:43:17.691+03:00,766935790.0548265,0,-38.69,100.1966,1,0.3,2025-04-21T16:43:07.230+03:00,101,1.683333333333333,2025-04-21T12:30:07.995+03:00,0.02023345852159405,0
2025-04-21T16:43:19.871+03:00,1745242998.53616,40.95237388445845,29.14013565701957,78.28703,-1,-1,-1,-1,30,34.22672640375541,-9999,20312.0763555,-0.642333984375,0.6688690185546875,-0.369384765625,20312.0688155,1.957087440643253,-1.050024711793124,-0.7375850396182785,-0.006833410821855068,0.008110525086522102,0.01801907457411289,-0.005598604679107666,-0.0009329319000244141,-0.002371788024902344,XArbitraryZVertical,-0.2137635615756268,0.5197963361349531,-0.7705338800592533,-0.3006564815880644,-0.6419844031333923,0.6725025773048401,-0.3682338297367096,0,0,0,-1,-1,20309.90125491667,unknown,2,2025-04-21T16:43:17.691+03:00,2025-04-20T21:57:49.637+03:00,6805,0.9845527,0,0,5579.851,5,6,2025-04-21T16:43:17.691+03:00,766935790.0548265,0,-38.69,100.1966,1,0.3,2025-04-21T16:43:07.230+03:00,101,1.683333333333333,2025-04-21T12:30:07.995+03:00,0.02023345852159405,0
2025-04-21T16:43:19.881+03:00,1745242998.53616,40.95237388445845,29.14013565701957,78.28703,-1,-1,-1,-1,30,34.22672640375541,-9999,20312.0864305,-0.6399078369140625,0.669921875,-0.36810302734375,20312.0788915,1.957071257395864,-1.049947897057561,-0.7378639101984849,-0.01809318736195564,0.01104725897312164,0.02393691800534725,8.51750373840332e-05,-0.003412842750549316,-0.000493168830871582,XArbitraryZVertical,-0.2136459724549624,0.5198658205502688,-0.7705399967169001,-0.3006044872274351,-0.6417935490608215,0.6727089285850525,-0.3681898415088654,0,0,0,-1,-1,20309.90125491667,unknown,2,2025-04-21T16:43:17.691+03:00,2025-04-20T21:57:49.637+03:00,6805,0.9845527,0,0,5579.851,5,6,2025-04-21T16:43:17.691+03:00,766935790.0548265,0,-38.69,100.1966,1,0.3,2025-04-21T16:43:07.230+03:00,101,1.683333333333333,2025-04-21T12:30:07.995+03:00,0.02023345852159405,0
2025-04-21T16:43:19.891+03:00,1745242998.53616,40.95237388445845,29.14013565701957,78.28703,-1,-1,-1,-1,30,34.22672640375541,-9999,20312.0965065,-0.6399078369140625,0.6715240478515625,-0.3690643310546875,20312.0889665,1.957071484187122,-1.049842111761569,-0.73817974947989,-0.01192291080951691,0.00916440412402153,0.02969733625650406,0.002181172370910645,-0.003844797611236572,-0.001004070043563843,XArbitraryZVertical,-0.2135104376483122,0.519939710548749,-0.7705516404251535,-0.300543143593051,-0.6415702700614929,0.672942578792572,-0.368151992559433,0,0,0,-1,-1,20309.90125491667,unknown,2,2025-04-21T16:43:17.691+03:00,2025-04-20T21:57:49.637+03:00,6805,0.9845527,0,0,5579.851,5,6,2025-04-21T16:43:17.691+03:00,766935790.0548265,0,-38.69,100.1966,1,0.3,2025-04-21T16:43:07.230+03:00,101,1.683333333333333,2025-04-21T12:30:07.995+03:00,0.02023345852159405,0
2025-04-21T16:43:19.901+03:00,1745242998.53616,40.95237388445845,29.14013565701957,78.28703,-1,-1,-1,-1,30,34.22672640375541,-9999,20312.1065825,-0.6410064697265625,0.6763153076171875,-0.3680877685546875,20312.0990425,1.957147187244039,-1.049692848626202,-0.7384939076582373,-0.007305588573217392,0.005762682296335697,0.0241432823240757,0.001454591751098633,-0.001147568225860596,-0.0008304417133331299,XArbitraryZVertical,-0.2133783141103694,0.5199985372964784,-0.7705791970136935,-0.3004643787528583,-0.6413318514823914,0.6731749176979065,-0.3681424260139465,0,0,0,-1,-1,20309.90125491667,unknown,2,2025-04-21T16:43:17.691+03:00,2025-04-20T21:57:49.637+03:00,6805,0.9845527,0,0,5579.851,5,6,2025-04-21T16:43:17.691+03:00,766935790.0548265,0,-38.69,100.1966,1,0.3,2025-04-21T16:43:07.230+03:00,101,1.683333333333333,2025-04-21T12:30:07.995+03:00,0.02023345852159405,0
2025-04-21T16:43:19.911+03:00,1745242998.53616,40.95237388445845,29.14013565701957,78.28703,-1,-1,-1,-1,30,34.22672640375541,-9999,20312.1166585,-0.63671875,0.6790618896484375,-0.3694000244140625,20312.1091185,1.957229349255159,-1.049607759234975,-0.7387402071555081,-0.009716548025608063,-0.0009812405332922935,0.02125108987092972,0.0007148981094360352,0.003156483173370361,-0.0004769563674926758,XArbitraryZVertical,-0.21329289469258,0.5200470195547313,-0.7706008480526526,-0.300385742766025,-0.641156792640686,0.6733570694923401,-0.3681144714355469,0,0,0,-1,-1,20309.90125491667,unknown,2,2025-04-21T16:43:17.691+03:00,2025-04-20T21:57:49.637+03:00,6805,0.9845527,0,0,5579.851,5,6,2025-04-21T16:43:17.691+03:00,766935790.0548265,0,-38.69,100.1966,1,0.3,2025-04-21T16:43:07.230+03:00,101,1.683333333333333,2025-04-21T12:30:07.995+03:00,0.02023345852159405,0
2025-04-21T16:43:19.921+03:00,1745242998.53616,40.95237388445845,29.14013565701957,78.28703,-1,-1,-1,-1,30,34.22672640375541,-9999,20312.1267345,-0.63629150390625,0.677642822265625,-0.3650665283203125,20312.1191945,1.957194215881916,-1.04963639426934,-0.7389897758158179,-0.01793632842600346,-0.001756686717271805,0.01740005798637867,0.004531681537628174,0.005901634693145752,-0.001738667488098145,XArbitraryZVertical,-0.2132198563888039,0.5201260221364188,-0.7705927024093501,-0.3003216662546365,-0.6410215497016907,0.6735415458679199,-0.3680124282836914,0,0,0,-1,-1,20309.90125491667,unknown,2,2025-04-21T16:43:17.691+03:00,2025-04-20T21:57:49.637+03:00,6805,0.9845527,0,0,5579.851,5,6,2025-04-21T16:43:17.691+03:00,766935790.0548265,0,-38.69,100.1966,1,0.3,2025-04-21T16:43:07.230+03:00,101,1.683333333333333,2025-04-21T12:30:07.995+03:00,0.02023345852159405,0
2025-04-21T16:43:19.931+03:00,1745242998.53616,40.95237388445845,29.14013565701957,78.28703,-1,-1,-1,-1,30,34.22672640375541,-9999,20312.1368095,-0.6416473388671875,0.675628662109375,-0.360107421875,20312.1292705,1.957065926481487,-1.049732506092587,-0.7392234688572864,-0.02228899858891964,-0.0007958179339766502,0.01368281710892916,0.003942191600799561,0.00426405668258667,0.003538191318511963,XArbitraryZVertical,-0.2131533821832969,0.5202205619951019,-0.7705633323920026,-0.3002802812565417,-0.6409203410148621,0.673714280128479,-0.367872416973114,0,0,0,-1,-1,20309.90125491667,unknown,2,2025-04-21T16:43:17.691+03:00,2025-04-20T21:57:49.637+03:00,6805,0.9845527,0,0,5579.851,5,6,2025-04-21T16:43:17.691+03:00,766935790.0548265,0,-38.69,100.1966,1,0.3,2025-04-21T16:43:07.230+03:00,101,1.683333333333333,2025-04-21T12:30:07.995+03:00,0.02023345852159405,0
2025-04-21T16:43:19.941+03:00,1745242998.53616,40.95237388445845,29.14013565701957,78.28703,-1,-1,-1,-1,30,34.22672640375541,-9999,20312.1468855,-0.638397216796875,0.6740875244140625,-0.3627166748046875,20312.1393455,1.956802654659953,-1.049948663638782,-0.7394060546337861,-0.0301900003105402,-0.00799853727221489,0.00152006046846509,-0.001135647296905518,0.001107931137084961,0.008312821388244629,XArbitraryZVertical,-0.2131133010665918,0.5203329555974442,-0.7705009321881662,-0.3002742468227643,-0.6408931612968445,0.6738491654396057,-0.3676726818084717,0,0,0,-1,-1,20309.90125491667,unknown,2,2025-04-21T16:43:17.691+03:00,2025-04-20T21:57:49.637+03:00,6805,0.9845527,0,0,5579.851,5,6,2025-04-21T16:43:17.691+03:00,766935790.0548265,0,-38.69,100.1966,1,0.3,2025-04-21T16:43:07.230+03:00,101,1.683333333333333,2025-04-21T12:30:07.995+03:00,0.02023345852159405,0
2025-04-21T16:43:19.951+03:00,1745242998.53616,40.95237388445845,29.14013565701957,78.28703,-1,-1,-1,-1,30,34.22672640375541,-9999,20312.1569615,-0.6317901611328125,0.6709747314453125,-0.367767333984375,20312.1494215,1.956142042551977,-1.050621260042194,-0.7392988586045034,-0.04634499922394753,-0.05483688041567802,-0.09073769301176071,0.003568768501281738,0.0008361935615539551,0.003950297832489014,XArbitraryZVertical,-0.2132326731827704,0.5204739166968068,-0.7703299717110443,-0.3003839376105232,-0.6412030458450317,0.6737699508666992,-0.3672774434089661,0,0,0,-1,-1,20309.90125491667,unknown,2,2025-04-21T16:43:17.691+03:00,2025-04-20T21:57:49.637+03:00,6805,0.9845527,0,0,5579.851,5,6,2025-04-21T16:43:17.691+03:00,766935790.0548265,0,-38.69,100.1966,1,0.3,2025-04-21T16:43:07.230+03:00,101,1.683333333333333,2025-04-21T12:30:07.995+03:00,0.02023345852159405,0
2025-04-21T16:43:19.961+03:00,1745242998.53616,40.95237388445845,29.14013565701957,78.28703,-1,-1,-1,-1,30,34.22672640375541,-9999,20312.1670375,-0.6138763427734375,0.6425933837890625,-0.3651885986328125,20312.1594975,1.955240575115475,-1.052239956578539,-0.7389873787893815,-0.0505446083843708,-0.1300832331180573,-0.05974359810352325,0.01189780235290527,-0.006349384784698486,-0.001943230628967285,XArbitraryZVertical,-0.2137149862001695,0.5207248634287515,-0.7700214140371943,-0.3003973106527185,-0.641978919506073,0.6735397577285767,-0.3663430511951447,0,0,0,-1,-1,20309.90125491667,unknown,2,2025-04-21T16:43:17.691+03:00,2025-04-20T21:57:49.637+03:00,6805,0.9845527,0,0,5579.851,5,6,2025-04-21T16:43:17.691+03:00,766935790.0548265,0,-38.69,100.1966,1,0.3,2025-04-21T16:43:07.230+03:00,101,1.683333333333333,2025-04-21T12:30:07.995+03:00,0.02023345852159405,0
2025-04-21T16:43:19.971+03:00,1745242998.53616,40.95237388445845,29.14013565701957,78.28703,-1,-1,-1,-1,30,34.22672640375541,-9999,20312.1771135,-0.6275482177734375,0.654998779296875,-0.362274169921875,20312.1695735,1.954116743169687,-1.05433607729803,-0.7386107673507115,-0.06171363964676857,-0.1448067873716354,-0.06747661530971527,0.03075271844863892,-0.03211778402328491,0.0004823505878448486,XArbitraryZVertical,-0.2143424078211915,0.5210532264899339,-0.7696276140863346,-0.3003898008114621,-0.6429657936096191,0.6732613444328308,-0.3651217222213745,0,0,0,-1,-1,20309.90125491667,unknown,2,2025-04-21T16:43:17.691+03:00,2025-04-20T21:57:49.637+03:00,6805,0.9845527,0,0,5579.851,5,6,2025-04-21T16:43:17.691+03:00,766935790.0548265,0,-38.69,100.1966,1,0.3,2025-04-21T16:43:07.230+03:00,101,1.683333333333333,2025-04-21T12:30:07.995+03:00,0.02023345852159405,0
2025-04-21T16:43:19.981+03:00,1745242998.53616,40.95237388445845,29.14013565701957,78.28703,-1,-1,-1,-1,30,34.22672640375541,-9999,20312.1871885,-0.647369384765625,0.6728668212890625,-0.362030029296875,20312.1796495,1.95310696108877,-1.056388433253071,-0.7383773825606027,-0.04860762134194374,-0.1199413239955902,-0.0492580309510231,0.01245719194412231,-0.01485526561737061,0.001436591148376465,XArbitraryZVertical,-0.2149390035365223,0.5214037562457914,-0.7692552137356269,-0.3003092534451126,-0.6438506245613098,0.6730887889862061,-0.3638786971569061,0,0,0,-1,-1,20309.90125491667,unknown,2,2025-04-21T16:43:17.691+03:00,2025-04-20T21:57:49.637+03:00,6805,0.9845527,0,0,5579.851,5,6,2025-04-21T16:43:17.691+03:00,766935790.0548265,0,-38.69,100.1966,1,0.3,2025-04-21T16:43:07.230+03:00,101,1.683333333333333,2025-04-21T12:30:07.995+03:00,0.02023345852159405,0
2025-04-21T16:43:19.992+03:00,1745242998.53616,40.95237388445845,29.14013565701957,78.28703,-1,-1,-1,-1,30,34.22672640375541,-9999,20312.1972645,-0.663665771484375,0.670166015625,-0.3611297607421875,20312.1897245,1.952355042265104,-1.057740204560453,-0.7382764746300252,-0.0403297170996666,-0.05021896213293076,-0.02713248878717422,-0.004768729209899902,0.0004934072494506836,0.001468956470489502,XArbitraryZVertical,-0.2152931023036533,0.5216590685815178,-0.7689966825562452,-0.3002744711339008,-0.6444011926651001,0.6730141639709473,-0.3630414009094238,0,0,0,-1,-1,20309.90125491667,unknown,2,2025-04-21T16:43:17.691+03:00,2025-04-20T21:57:49.637+03:00,6805,0.9845527,0,0,5579.851,5,6,2025-04-21T16:43:17.691+03:00,766935790.0548265,0,-38.69,100.1966,1,0.3,2025-04-21T16:43:07.230+03:00,101,1.683333333333333,2025-04-21T12:30:07.995+03:00,0.02023345852159405,0
2025-04-21T16:43:20.002+03:00,1745242998.53616,40.95237388445845,29.14013565701957,78.28703,-1,-1,-1,-1,30,34.22672640375541,-9999,20312.2073405,-0.6734771728515625,0.6656646728515625,-0.3586578369140625,20312.1998005,1.951834472727776,-1.058286695633162,-0.7383285904649903,-0.0296363290399313,0.002527341013774276,-0.007326294668018818,-0.02149254083633423,-0.00484001636505127,0.0008401572704315186,XArbitraryZVertical,-0.2153517681896368,0.521811891809655,-0.7688597966274968,-0.3003172069412643,-0.6445688009262085,0.6730526685714722,-0.3626719415187836,0,0,0,-1,-1,20309.90125491667,unknown,2,2025-04-21T16:43:17.691+03:00,2025-04-20T21:57:49.637+03:00,6805,0.9845527,0,0,5579.851,5,6,2025-04-21T16:43:17.691+03:00,766935790.0548265,0,-38.69,100.1966,1,0.3,2025-04-21T16:43:07.230+03:00,101,1.683333333333333,2025-04-21T12:30:07.995+03:00,0.02023345852159405,0
2025-04-21T16:43:20.012+03:00,1745242998.53616,40.95237388445845,29.14013565701957,78.28703,-1,-1,-1,-1,30,34.22672640375541,-9999,20312.2174165,-0.6557464599609375,0.6708831787109375,-0.3548583984375,20312.2098765,1.951497136626663,-1.058451103488694,-0.7384107706659164,-0.02170570194721222,-0.001674062106758356,-0.01079053431749344,-0.02784407138824463,-0.006975948810577393,0.004018187522888184,XArbitraryZVertical,-0.2153021871981773,0.5218960987260374,-0.7687916968280746,-0.3003808544153573,-0.6445802450180054,0.6731134653091431,-0.3625388741493225,0,0,0,-1,-1,20309.90125491667,unknown,2,2025-04-21T16:43:17.691+03:00,2025-04-20T21:57:49.637+03:00,6805,0.9845527,0,0,5579.851,5,6,2025-04-21T16:43:17.691+03:00,766935790.0548265,0,-38.69,100.1966,1,0.3,2025-04-21T16:43:07.230+03:00,101,1.683333333333333,2025-04-21T12:30:07.995+03:00,0.02023345852159405,0
2025-04-21T16:43:20.022+03:00,1745242998.53616,40.95237388445845,29.14013565701957,78.28703,-1,-1,-1,-1,30,34.22672640375541,-9999,20312.2274925,-0.6351776123046875,0.6729736328125,-0.35516357421875,20312.2199525,1.951169353443374,-1.058841249948271,-0.7384263747837705,-0.02685625478625298,-0.0314633809030056,-0.01271187234669924,-0.008165299892425537,-0.001906335353851318,0.006904870271682739,XArbitraryZVertical,-0.2153619319434765,0.5219943939791469,-0.7687004881736104,-0.3004005519673257,-0.6447124481201172,0.6731250286102295,-0.3622821867465973,0,0,0,-1,-1,20309.90125491667,unknown,2,2025-04-21T16:43:17.691+03:00,2025-04-20T21:57:49.637+03:00,6805,0.9845527,0,0,5579.851,5,6,2025-04-21T16:43:17.691+03:00,766935790.0548265,0,-38.69,100.1966,1,0.3,2025-04-21T16:43:07.230+03:00,101,1.683333333333333,2025-04-21T12:30:07.995+03:00,0.02023345852159405,0
2025-04-21T16:43:20.032+03:00,1745242998.53616,40.95237388445845,29.14013565701957,78.28703,-1,-1,-1,-1,30,34.22672640375541,-9999,20312.2375685,-0.6361236572265625,0.6715087890625,-0.3586578369140625,20312.2300285,1.950773589057802,-1.059459380984691,-0.7384735931991421,-0.02665758319199085,-0.03584082052111626,-0.01312892325222492,0.010875403881073,0.0006527304649353027,0.007116347551345825,XArbitraryZVertical,-0.2154819539810515,0.522143180814074,-0.7685746237463346,-0.3003779944493523,-0.6449085474014282,0.6731598973274231,-0.3618680536746979,0,0,0,-1,-1,20309.90125491667,unknown,2,2025-04-21T16:43:17.691+03:00,2025-04-20T21:57:49.637+03:00,6805,0.9845527,0,0,5579.851,5,6,2025-04-21T16:43:17.691+03:00,766935790.0548265,0,-38.69,100.1966,1,0.3,2025-04-21T16:43:07.230+03:00,101,1.683333333333333,2025-04-21T12:30:07.995+03:00,0.02023345852159405,0
2025-04-21T16:43:20.042+03:00,1745242998.53616,40.95237388445845,29.14013565701957,78.28703,-1,-1,-1,-1,30,34.22672640375541,-9999,20312.2476435,-0.6472930908203125,0.6662750244140625,-0.3631744384765625,20312.2401045,1.950414793833665,-1.059967266871148,-0.7385126377443867,-0.02515109814703465,-0.02171681076288223,-0.008521022275090218,0.007480919361114502,-0.001573383808135986,0.002488225698471069,XArbitraryZVertical,-0.2155716761096879,0.522269132711374,-0.7684661303292655,-0.3003722131330664,-0.6450693607330322,0.6731888055801392,-0.3615276217460632,0,0,0,-1,-1,20309.90125491667,unknown,2,2025-04-21T16:43:17.691+03:00,2025-04-20T21:57:49.637+03:00,6805,0.9845527,0,0,5579.851,5,6,2025-04-21T16:43:17.691+03:00,766935790.0548265,0,-38.69,100.1966,1,0.3,2025-04-21T16:43:07.230+03:00,101,1.683333333333333,2025-04-21T12:30:07.995+03:00,0.02023345852159405,0
2025-04-21T16:43:20.052+03:00,1745242998.53616,40.95237388445845,29.14013565701957,78.28703,-1,-1,-1,-1,30,34.22672640375541,-9999,20312.2577195,-0.65203857421875,0.66485595703125,-0.3595123291015625,20312.2501795,1.950100792527399,-1.060264614066911,-0.738566921154224,-0.02848643995821476,-0.005704023875296116,-0.00755695765838027,-0.003872334957122803,-0.007366061210632324,-0.001353025436401367,XArbitraryZVertical,-0.2155875264937226,0.5223629334842779,-0.7683871323728948,-0.3003999795795361,-0.6451449990272522,0.673228919506073,-0.3613179624080658,0,0,0,-1,-1,20309.90125491667,unknown,2,2025-04-21T16:43:17.691+03:00,2025-04-20T21:57:49.637+03:00,6805,0.9845527,0,0,5579.851,5,6,2025-04-21T16:43:17.691+03:00,766935790.0548265,0,-38.69,100.1966,1,0.3,2025-04-21T16:43:07.230+03:00,101,1.683333333333333,2025-04-21T12:30:07.995+03:00,0.02023345852159405,0
2025-04-21T16:43:20.062+03:00,1745242998.53616,40.95237388445845,29.14013565701957,78.28703,-1,-1,-1,-1,30,34.22672640375541,-9999,20312.2677955,-0.645050048828125,0.67022705078125,-0.3575439453125,20312.2602555,1.949683107597589,-1.06059818859283,-0.7386393699082702,-0.03188449889421463,-0.01001927629113197,-0.00897076353430748,-0.006617248058319092,-0.0083504319190979,0.001719057559967041,XArbitraryZVertical,-0.2155847238091031,0.5224784729219828,-0.7682887002891176,-0.3004528944713172,-0.6452229619026184,0.6732825040817261,-0.3610789477825165,0,0,0,-1,-1,20309.90125491667,unknown,2,2025-04-21T16:43:17.691+03:00,2025-04-20T21:57:49.637+03:00,6805,0.9845527,0,0,5579.851,5,6,2025-04-21T16:43:17.691+03:00,766935790.0548265,0,-38.69,100.1966,1,0.3,2025-04-21T16:43:07.230+03:00,101,1.683333333333333,2025-04-21T12:30:07.995+03:00,0.02023345852159405,0
2025-04-21T16:43:20.072+03:00,1745242998.53616,40.95237388445845,29.14013565701957,78.28703,-1,-1,-1,-1,30,34.22672640375541,-9999,20312.2778715,-0.6400909423828125,0.6714935302734375,-0.3582611083984375,20312.2703315,1.949216411859072,-1.061087197700737,-0.738662273057757,-0.03282672539353371,-0.02215290442109108,-0.01966948062181473,0.001175105571746826,-0.002431750297546387,0.003501683473587036,XArbitraryZVertical,-0.2156437888794782,0.5226087091192982,-0.7681658952164729,-0.3004977215858857,-0.6453858613967896,0.6732994318008423,-0.3607558012008667,0,0,0,-1,-1,20309.90125491667,unknown,2,2025-04-21T16:43:17.691+03:00,2025-04-20T21:57:49.637+03:00,6805,0.9845527,0,0,5579.851,5,6,2025-04-21T16:43:17.691+03:00,766935790.0548265,0,-38.69,100.1966,1,0.3,2025-04-21T16:43:07.230+03:00,101,1.683333333333333,2025-04-21T12:30:07.995+03:00,0.02023345852159405,0
2025-04-21T16:43:20.082+03:00,1745242998.53616,40.95237388445845,29.14013565701957,78.28703,-1,-1,-1,-1,30,34.22672640375541,-9999,20312.2879475,-0.644622802734375,0.670654296875,-0.3596649169921875,20312.2804075,1.948702315920432,-1.061694878966457,-0.7385766760536713,-0.02958492934703827,-0.02642627991735935,-0.02087632566690445,0.005533874034881592,-0.002643048763275146,0.001947343349456787,XArbitraryZVertical,-0.2157685862626944,0.5227313753550017,-0.7680228090416118,-0.3005606418403667,-0.6456553339958191,0.6732361316680908,-0.3603916466236115,0,0,0,-1,-1,20309.90125491667,unknown,2,2025-04-21T16:43:17.691+03:00,2025-04-20T21:57:49.637+03:00,6805,0.9845527,0,0,5579.851,5,6,2025-04-21T16:43:17.691+03:00,766935790.0548265,0,-38.69,100.1966,1,0.3,2025-04-21T16:43:07.230+03:00,101,1.683333333333333,2025-04-21T12:30:07.995+03:00,0.02023345852159405,0
2025-04-21T16:43:20.092+03:00,1745242998.53616,40.95237388445845,29.14013565701957,78.28703,-1,-1,-1,-1,30,34.22672640375541,-9999,20312.2980235,-0.6494140625,0.6696014404296875,-0.359039306640625,20312.2904835,1.948191972963462,-1.062320205308763,-0.7384470946959765,-0.02415314689278603,-0.02395007386803627,-0.02388223633170128,0.000449061393737793,-0.003020226955413818,0.0005025863647460938,XArbitraryZVertical,-0.2159143246307514,0.5228439830928867,-0.7678781422024323,-0.3006299042463742,-0.6459568738937378,0.6731403470039368,-0.3600303530693054,0,0,0,-1,-1,20309.90125491667,unknown,2,2025-04-21T16:43:17.691+03:00,2025-04-20T21:57:49.637+03:00,6805,0.9845527,0,0,5579.851,5,6,2025-04-21T16:43:17.691+03:00,766935790.0548265,0,-38.69,100.1966,1,0.3,2025-04-21T16:43:07.230+03:00,101,1.683333333333333,2025-04-21T12:30:07.995+03:00,0.02023345852159405,0
2025-04-21T16:43:20.102+03:00,1745242998.53616,40.95237388445845,29.14013565701957,78.28703,-1,-1,-1,-1,30,34.22672640375541,-9999,20312.3080985,-0.649505615234375,0.6696929931640625,-0.356964111328125,20312.3005595,1.947761116032636,-1.062842089138009,-0.7383454191454419,-0.02329900301992893,-0.01786761172115803,-0.02181545458734035,-0.003041863441467285,-0.003769099712371826,0.0007937848567962646,XArbitraryZVertical,-0.216032781382865,0.5229403855012951,-0.7677565292436536,-0.3006873694055957,-0.6462042927742004,0.6730651259422302,-0.3597263693809509,0,0,0,-1,-1,20309.90125491667,unknown,2,2025-04-21T16:43:17.691+03:00,2025-04-20T21:57:49.637+03:00,6805,0.9845527,0,0,5579.851,5,6,2025-04-21T16:43:17.691+03:00,766935790.0548265,0,-38.69,100.1966,1,0.3,2025-04-21T16:43:07.230+03:00,101,1.683333333333333,2025-04-21T12:30:07.995+03:00,0.02023345852159405,0
2025-04-21T16:43:20.112+03:00,1745242998.53616,40.95237388445845,29.14013565701957,78.28703,-1,-1,-1,-1,30,34.22672640375541,-9999,20312.3181745,-0.648712158203125,0.672271728515625,-0.3595733642578125,20312.3106345,1.94738992236228,-1.063284119521227,-0.7382660655667768,-0.01701154746115208,-0.02050787024199963,-0.02252039313316345,-0.003141283988952637,-0.003313601016998291,0.001678526401519775,XArbitraryZVertical,-0.2161292414759081,0.5230246423730425,-0.7676526903296196,-0.3007369668947887,-0.6464100480079651,0.6730064153671265,-0.3594667613506317,0,0,0,-1,-1,20309.90125491667,unknown,2,2025-04-21T16:43:17.691+03:00,2025-04-20T21:57:49.637+03:00,6805,0.9845527,0,0,5579.851,5,6,2025-04-21T16:43:17.691+03:00,766935790.0548265,0,-38.69,100.1966,1,0.3,2025-04-21T16:43:07.230+03:00,101,1.683333333333333,2025-04-21T12:30:07.995+03:00,0.02023345852159405,0
2025-04-21T16:43:20.123+03:00,1745242998.53616,40.95237388445845,29.14013565701957,78.28703,-1,-1,-1,-1,30,34.22672640375541,-9999,20312.3282505,-0.647064208984375,0.6707763671875,-0.3609466552734375,20312.3207105,1.947050681296638,-1.063701974222593,-0.738171360565662,-0.01660388149321079,-0.01791268773376942,-0.02234146371483803,-0.002096235752105713,-0.0007105469703674316,-0.0004222095012664795,XArbitraryZVertical,-0.2162294427182358,0.5230975403006601,-0.7675561087017705,-0.3007847384326575,-0.6466159820556641,0.6729363799095154,-0.3592275977134705,0,0,0,-1,-1,20309.90125491667,unknown,2,2025-04-21T16:43:17.691+03:00,2025-04-20T21:57:49.637+03:00,6805,0.9845527,0,0,5579.851,5,6,2025-04-21T16:43:17.691+03:00,766935790.0548265,0,-38.69,100.1966,1,0.3,2025-04-21T16:43:07.230+03:00,101,1.683333333333333,2025-04-21T12:30:07.995+03:00,0.02023345852159405,0
2025-04-21T16:43:20.133+03:00,1745242998.53616,40.95237388445845,29.14013565701957,78.28703,-1,-1,-1,-1,30,34.22672640375541,-9999,20312.3383265,-0.649200439453125,0.665618896484375,-0.36004638671875,20312.3307865,1.946693769642154,-1.064104014701392,-0.7380534358241949,-0.02077785506844521,-0.01567776128649712,-0.0213483702391386,-0.0009212493896484375,-0.002912223339080811,-0.001696616411209106,XArbitraryZVertical,-0.2163260368229495,0.5231634966102838,-0.7674583472105212,-0.300849653032338,-0.6468295454978943,0.672849178314209,-0.3590060174465179,0,0,0,-1,-1,20309.90125491667,unknown,2,2025-04-21T16:43:17.691+03:00,2025-04-20T21:57:49.637+03:00,6805,0.9845527,0,0,5579.851,5,6,2025-04-21T16:43:17.691+03:00,766935790.0548265,0,-38.69,100.1966,1,0.3,2025-04-21T16:43:07.230+03:00,101,1.683333333333333,2025-04-21T12:30:07.995+03:00,0.02023345852159405,0
2025-04-21T16:43:20.143+03:00,1745242998.53616,40.95237388445845,29.14013565701957,78.28703,-1,-1,-1,-1,30,34.22672640375541,-9999,20312.3484025,-0.6499481201171875,0.6638031005859375,-0.358612060546875,20312.3408625,1.946284776315457,-1.064526238204802,-0.7379513990906521,-0.02053211070597172,-0.01163941156119108,-0.02147863246500492,-0.002449095249176025,-0.007948338985443115,-0.001356631517410278,XArbitraryZVertical,-0.2164117523706827,0.5232426108345588,-0.7673507338607005,-0.3009252755076802,-0.6470412611961365,0.6727736592292786,-0.3587662577629089,0,0,0,-1,-1,20309.90125491667,unknown,2,2025-04-21T16:43:17.691+03:00,2025-04-20T21:57:49.637+03:00,6805,0.9845527,0,0,5579.851,5,6,2025-04-21T16:43:17.691+03:00,766935790.0548265,0,-38.69,100.1966,1,0.3,2025-04-21T16:43:07.230+03:00,101,1.683333333333333,2025-04-21T12:30:07.995+03:00,0.02023345852159405,0
2025-04-21T16:43:20.153+03:00,1745242998.53616,40.95237388445845,29.14013565701957,78.28703,-1,-1,-1,-1,30,34.22672640375541,-9999,20312.3584785,-0.6481475830078125,0.6656646728515625,-0.3582611083984375,20312.3509385,1.945839159694709,-1.064928981654216,-0.7378902006360146,-0.02729973569512367,-0.01111077424138784,-0.02123308926820755,-0.002222836017608643,-0.008940696716308594,4.887580871582031e-06,XArbitraryZVertical,-0.2164681510867914,0.5233342687397038,-0.767239789284883,-0.3010081527390707,-0.6472217440605164,0.672728419303894,-0.3585255742073059,0,0,0,-1,-1,20309.90125491667,unknown,2,2025-04-21T16:43:17.691+03:00,2025-04-20T21:57:49.637+03:00,6805,0.9845527,0,0,5579.851,5,6,2025-04-21T16:43:17.691+03:00,766935790.0548265,0,-38.69,100.1966,1,0.3,2025-04-21T16:43:07.230+03:00,101,1.683333333333333,2025-04-21T12:30:07.995+03:00,0.02023345852159405,0
2025-04-21T16:43:20.163+03:00,1745242998.53616,40.95237388445845,29.14013565701957,78.28703,-1,-1,-1,-1,30,34.22672640375541,-9999,20312.3685535,-0.646942138671875,0.67156982421875,-0.3592681884765625,20312.3610145,1.945390184407612,-1.065341079951312,-0.7378216951923842,-0.02249699272215366,-0.01351001672446728,-0.02663357928395271,-0.001043021678924561,-0.006524920463562012,-0.0004988908767700195,XArbitraryZVertical,-0.2165293997725059,0.5234256834362305,-0.7671272722042886,-0.3010919765909082,-0.6474097371101379,0.6726776957511902,-0.358281135559082,0,0,0,-1,-1,20309.90125491667,unknown,2,2025-04-21T16:43:17.691+03:00,2025-04-20T21:57:49.637+03:00,6805,0.9845527,0,0,5579.851,5,6,2025-04-21T16:43:17.691+03:00,766935790.0548265,0,-38.69,100.1966,1,0.3,2025-04-21T16:43:07.230+03:00,101,1.683333333333333,2025-04-21T12:30:07.995+03:00,0.02023345852159405,0
2025-04-21T16:43:20.188+03:00,1745242998.53616,40.95237388445845,29.14013565701957,78.28703,-1,-1,-1,-1,30,34.22672640375541,-9999,20312.3786295,-0.6463470458984375,0.67401123046875,-0.3547515869140625,20312.3710895,1.94498278073234,-1.065756016679562,-0.7376692688297366,-0.01448061130940914,-0.01235580258071423,-0.02779125608503819,0.0006753802299499512,-0.0005374550819396973,-0.0009315609931945801,XArbitraryZVertical,-0.2166279662421962,0.5234895399517676,-0.7670201967001793,-0.3011826959433831,-0.64764803647995,0.6725649237632751,-0.3580620586872101,0,0,0,-1,-1,20309.90125491667,unknown,2,2025-04-21T16:43:17.691+03:00,2025-04-20T21:57:49.637+03:00,6805,0.9845527,0,0,5579.851,5,6,2025-04-21T16:43:17.691+03:00,766935790.0548265,0,-38.69,100.1966,1,0.3,2025-04-21T16:43:07.230+03:00,101,1.683333333333333,2025-04-21T12:30:07.995+03:00,0.02023345852159405,0
2025-04-21T16:43:20.190+03:00,1745242998.53616,40.95237388445845,29.14013565701957,78.28703,-1,-1,-1,-1,30,34.22672640375541,-9999,20312.3887055,-0.650238037109375,0.6728973388671875,-0.3511199951171875,20312.3811655,1.944661154012634,-1.066082480324958,-0.7374813549678751,-0.009391576051712036,-0.007388739380985498,-0.02403593249619007,0.0008264780044555664,0.001676738262176514,0.003159970045089722,XArbitraryZVertical,-0.2167257800386793,0.523520885109854,-0.7669353552696707,-0.3012736123747319,-0.6478753685951233,0.6724258065223694,-0.3579116463661194,0,0,0,-1,-1,20309.90125491667,unknown,2,2025-04-21T16:43:17.691+03:00,2025-04-20T21:57:49.637+03:00,6805,0.9845527,0,0,5579.851,5,6,2025-04-21T16:43:17.691+03:00,766935790.0548265,0,-38.69,100.1966,1,0.3,2025-04-21T16:43:07.230+03:00,101,1.683333333333333,2025-04-21T12:30:07.995+03:00,0.02023345852159405,0
2025-04-21T16:43:20.193+03:00,1745242998.53616,40.95237388445845,29.14013565701957,78.28703,-1,-1,-1,-1,30,34.22672640375541,-9999,20312.3987815,-0.651580810546875,0.6662750244140625,-0.353271484375,20312.3912415,1.94438537939663,-1.066309831174119,-0.7373359608582992,-0.01576532050967216,0.0003631892614066601,-0.021146135404706,-0.003034889698028564,0.0007315874099731445,0.005898058414459229,XArbitraryZVertical,-0.2167846403198935,0.523544275177468,-0.7668684207113126,-0.3013611358661331,-0.6480423808097839,0.6723182201385498,-0.3578116297721863,0,0,0,-1,-1,20309.90125491667,unknown,2,2025-04-21T16:43:17.691+03:00,2025-04-20T21:57:49.637+03:00,6805,0.9845527,0,0,5579.851,5,6,2025-04-21T16:43:17.691+03:00,766935790.0548265,0,-38.69,100.1966,1,0.3,2025-04-21T16:43:07.230+03:00,101,1.683333333333333,2025-04-21T12:30:07.995+03:00,0.02023345852159405,0
2025-04-21T16:43:20.203+03:00,1745242998.53616,40.95237388445845,29.14013565701957,78.28703,-1,-1,-1,-1,30,34.22672640375541,-9999,20312.4088575,-0.6467437744140625,0.6597442626953125,-0.3553619384765625,20312.4013175,1.944060501342184,-1.066542154875797,-0.7372203091317341,-0.01780290529131889,-0.002609431277960539,-0.01931814290583134,-0.003097295761108398,-0.00711745023727417,0.004488080739974976,XArbitraryZVertical,-0.2168236039731053,0.5235821007537986,-0.7667936429102786,-0.3014576260232749,-0.6481935381889343,0.6722325682640076,-0.3576986193656921,0,0,0,-1,-1,20309.90125491667,unknown,2,2025-04-21T16:43:17.691+03:00,2025-04-20T21:57:49.637+03:00,6805,0.9845527,0,0,5579.851,5,6,2025-04-21T16:43:17.691+03:00,766935790.0548265,0,-38.69,100.1966,1,0.3,2025-04-21T16:43:07.230+03:00,101,1.683333333333333,2025-04-21T12:30:07.995+03:00,0.02023345852159405,0
2025-04-21T16:43:20.213+03:00,1745242998.53616,40.95237388445845,29.14013565701957,78.28703,-1,-1,-1,-1,30,34.22672640375541,-9999,20312.4189335,-0.6446380615234375,0.6576080322265625,-0.3556976318359375,20312.4113935,1.943716059657941,-1.066843458857191,-0.7371625692235078,-0.02165223844349384,-0.01065404154360294,-0.01595563627779484,0.002156078815460205,-0.01308661699295044,0.002022624015808105,XArbitraryZVertical,-0.2168664046484389,0.523648694756672,-0.7667087121272186,-0.3015270766924933,-0.6483352184295654,0.6721898317337036,-0.3575220108032227,0,0,0,-1,-1,20309.90125491667,unknown,2,2025-04-21T16:43:17.691+03:00,2025-04-20T21:57:49.637+03:00,6805,0.9845527,0,0,5579.851,5,6,2025-04-21T16:43:17.691+03:00,766935790.0548265,0,-38.69,100.1966,1,0.3,2025-04-21T16:43:07.230+03:00,101,1.683333333333333,2025-04-21T12:30:07.995+03:00,0.02023345852159405,0
2025-04-21T16:43:20.223+03:00,1745242998.53616,40.95237388445845,29.14013565701957,78.28703,-1,-1,-1,-1,30,34.22672640375541,-9999,20312.4290085,-0.6469879150390625,0.6591796875,-0.357574462890625,20312.4214695,1.94329963171912,-1.067233279982361,-0.7371201438707999,-0.0253160148859024,-0.01192683260887861,-0.01784771308302879,0.003586828708648682,-0.01481002569198608,0.001249581575393677,XArbitraryZVertical,-0.2169196339435192,0.5237407547950244,-0.7666033895742768,-0.3015965824582626,-0.6484994888305664,0.672158420085907,-0.3572829961776733,0,0,0,-1,-1,20309.90125491667,unknown,2,2025-04-21T16:43:17.691+03:00,2025-04-20T21:57:49.637+03:00,6805,0.9845527,0,0,5579.851,5,6,2025-04-21T16:43:17.691+03:00,766935790.0548265,0,-38.69,100.1966,1,0.3,2025-04-21T16:43:07.230+03:00,101,1.683333333333333,2025-04-21T12:30:07.995+03:00,0.02023345852159405,0
2025-04-21T16:43:20.233+03:00,1745242998.53616,40.95237388445845,29.14013565701957,78.28703,-1,-1,-1,-1,30,34.22672640375541,-9999,20312.4390845,-0.6491241455078125,0.6626434326171875,-0.358306884765625,20312.4315445,1.942847920855892,-1.067664394650868,-0.7370921741380316,-0.03334810957312584,-0.01460357662290335,-0.01490331999957561,0.00151437520980835,-0.01251572370529175,-0.0007146596908569336,XArbitraryZVertical,-0.2169748998080653,0.5238469335381696,-0.7664884320515806,-0.3016650856447776,-0.6486701369285583,0.6721377372741699,-0.3570125699043274,0,0,0,-1,-1,20309.90125491667,unknown,2,2025-04-21T16:43:17.691+03:00,2025-04-20T21:57:49.637+03:00,6805,0.9845527,0,0,5579.851,5,6,2025-04-21T16:43:17.691+03:00,766935790.0548265,0,-38.69,100.1966,1,0.3,2025-04-21T16:43:07.230+03:00,101,1.683333333333333,2025-04-21T12:30:07.995+03:00,0.02023345852159405,0
2025-04-21T16:43:20.243+03:00,1745242998.53616,40.95237388445845,29.14013565701957,78.28703,-1,-1,-1,-1,30,34.22672640375541,-9999,20312.4491605,-0.649810791015625,0.6672210693359375,-0.35723876953125,20312.4416205,1.942332576323884,-1.068148257304001,-0.7371066968400766,-0.03535540029406548,-0.01486250199377537,-0.01623666658997536,-0.0008392333984375,-0.009139001369476318,-0.001384198665618896,XArbitraryZVertical,-0.2170209625166283,0.5239799034031263,-0.7663582579832434,-0.3017316197608663,-0.648834228515625,0.6721484661102295,-0.3566939234733582,0,0,0,-1,-1,20309.90125491667,unknown,2,2025-04-21T16:43:17.691+03:00,2025-04-20T21:57:49.637+03:00,6805,0.9845527,0,0,5579.851,5,6,2025-04-21T16:43:17.691+03:00,766935790.0548265,0,-38.69,100.1966,1,0.3,2025-04-21T16:43:07.230+03:00,101,1.683333333333333,2025-04-21T12:30:07.995+03:00,0.02023345852159405,0
2025-04-21T16:43:20.253+03:00,1745242998.53616,40.95237388445845,29.14013565701957,78.28703,-1,-1,-1,-1,30,34.22672640375541,-9999,20312.4592365,-0.649749755859375,0.672637939453125,-0.3573150634765625,20312.4516965,1.941845329925337,-1.06862153589114,-0.7371055792711242,-0.02910655736923218,-0.01411468535661697,-0.01849183067679405,-0.0009445548057556152,-0.004484236240386963,-0.000836491584777832,XArbitraryZVertical,-0.2170749883494074,0.5241038796223364,-0.7662333560111401,-0.3017945520346176,-0.6490035653114319,0.6721476316452026,-0.3563871383666992,0,0,0,-1,-1,20309.90125491667,unknown,2,2025-04-21T16:43:17.691+03:00,2025-04-20T21:57:49.637+03:00,6805,0.9845527,0,0,5579.851,5,6,2025-04-21T16:43:17.691+03:00,766935790.0548265,0,-38.69,100.1966,1,0.3,2025-04-21T16:43:07.230+03:00,101,1.683333333333333,2025-04-21T12:30:07.995+03:00,0.02023345852159405,0
2025-04-21T16:43:20.264+03:00,1745242998.53616,40.95237388445845,29.14013565701957,78.28703,-1,-1,-1,-1,30,34.22672640375541,-9999,20312.4693125,-0.652191162109375,0.6706085205078125,-0.3560028076171875,20312.4617725,1.941399137906259,-1.069061006525093,-0.737083866751054,-0.02446906268596649,-0.01261386275291443,-0.01947167329490185,-0.00152277946472168,0.001330196857452393,-0.001465678215026855,XArbitraryZVertical,-0.2171329524732889,0.524212566549385,-0.7661181950278049,-0.3018565218897148,-0.6491729617118835,0.6721315979957581,-0.3561089336872101,0,0,0,-1,-1,20309.90125491667,unknown,2,2025-04-21T16:43:17.691+03:00,2025-04-20T21:57:49.637+03:00,6805,0.9845527,0,0,5579.851,5,6,2025-04-21T16:43:17.691+03:00,766935790.0548265,0,-38.69,100.1966,1,0.3,2025-04-21T16:43:07.230+03:00,101,1.683333333333333,2025-04-21T12:30:07.995+03:00,0.02023345852159405,0
2025-04-21T16:43:20.274+03:00,1745242998.53616,40.95237388445845,29.14013565701957,78.28703,-1,-1,-1,-1,30,34.22672640375541,-9999,20312.4793885,-0.652862548828125,0.667724609375,-0.3484344482421875,20312.4718485,1.940993773447788,-1.069449417073,-0.7370331435226625,-0.02415454387664795,-0.008369848132133484,-0.01729161106050014,-0.003109455108642578,-0.001500844955444336,0.001060396432876587,XArbitraryZVertical,-0.2171907976936293,0.5243010390624944,-0.766014520747658,-0.3019243971798262,-0.6493411660194397,0.6720939874649048,-0.355873167514801,0,0,0,-1,-1,20309.90125491667,unknown,2,2025-04-21T16:43:17.691+03:00,2025-04-20T21:57:49.637+03:00,6805,0.9845527,0,0,5579.851,5,6,2025-04-21T16:43:17.691+03:00,766935790.0548265,0,-38.69,100.1966,1,0.3,2025-04-21T16:43:07.230+03:00,101,1.683333333333333,2025-04-21T12:30:07.995+03:00,0.02023345852159405,0
2025-04-21T16:43:20.284+03:00,1745242998.53616,40.95237388445845,29.14013565701957,78.28703,-1,-1,-1,-1,30,34.22672640375541,-9999,20312.4894635,-0.6527862548828125,0.665985107421875,-0.3481292724609375,20312.4819245,1.94056296928007,-1.069821788261649,-0.7370139924808502,-0.02677129954099655,-0.004440553486347198,-0.01035936921834946,-0.003347158432006836,-0.004065454006195068,0.008255720138549805,XArbitraryZVertical,-0.2172262915138849,0.524398702072279,-0.765908884568669,-0.301997085276935,-0.6494848728179932,0.672079861164093,-0.3556374907493591,0,0,0,-1,-1,20309.90125491667,unknown,2,2025-04-21T16:43:17.691+03:00,2025-04-20T21:57:49.637+03:00,6805,0.9845527,0,0,5579.851,5,6,2025-04-21T16:43:17.691+03:00,766935790.0548265,0,-38.69,100.1966,1,0.3,2025-04-21T16:43:07.230+03:00,101,1.683333333333333,2025-04-21T12:30:07.995+03:00,0.02023345852159405,0
2025-04-21T16:43:20.294+03:00,1745242998.53616,40.95237388445845,29.14013565701957,78.28703,-1,-1,-1,-1,30,34.22672640375541,-9999,20312.4995395,-0.6517333984375,0.663360595703125,-0.3551788330078125,20312.4919995,1.940196015443417,-1.070087154700355,-0.737014924483019,-0.02485914900898933,0.0006535407155752182,-0.01179135031998158,-0.003024458885192871,-0.006355047225952148,0.007060736417770386,XArbitraryZVertical,-0.2172314183832379,0.5244788944752156,-0.7658246414077542,-0.3020677147962082,-0.6495786309242249,0.6720805168151855,-0.3554647862911224,0,0,0,-1,-1,20309.90125491667,unknown,2,2025-04-21T16:43:17.691+03:00,2025-04-20T21:57:49.637+03:00,6805,0.9845527,0,0,5579.851,5,6,2025-04-21T16:43:17.691+03:00,766935790.0548265,0,-38.69,100.1966,1,0.3,2025-04-21T16:43:07.230+03:00,101,1.683333333333333,2025-04-21T12:30:07.995+03:00,0.02023345852159405,0
2025-04-21T16:43:20.304+03:00,1745242998.53616,40.95237388445845,29.14013565701957,78.28703,-1,-1,-1,-1,30,34.22672640375541,-9999,20312.5096155,-0.64874267578125,0.6655426025390625,-0.3573150634765625,20312.5020755,1.93985175845571,-1.070313298226739,-0.7370125095069389,-0.0214867889881134,-0.003272225148975849,-0.0100246099755168,-0.001355826854705811,-0.008275866508483887,0.0001244843006134033,XArbitraryZVertical,-0.2172284926858887,0.5245497746860813,-0.7657480316367502,-0.3021407901642456,-0.6496603488922119,0.6720787286758423,-0.3553186357021332,0,0,0,-1,-1,20309.90125491667,unknown,2,2025-04-21T16:43:17.691+03:00,2025-04-20T21:57:49.637+03:00,6805,0.9845527,0,0,5579.851,5,6,2025-04-21T16:43:17.691+03:00,766935790.0548265,0,-38.69,100.1966,1,0.3,2025-04-21T16:43:07.230+03:00,101,1.683333333333333,2025-04-21T12:30:07.995+03:00,0.02023345852159405,0
2025-04-21T16:43:20.314+03:00,1745242998.53616,40.95237388445845,29.14013565701957,78.28703,-1,-1,-1,-1,30,34.22672640375541,-9999,20312.5196915,-0.645172119140625,0.6699676513671875,-0.358489990234375,20312.5121515,1.939503418246731,-1.070562013314597,-0.7370111866141922,-0.02794202417135239,-0.004915395751595497,-0.0126291811466217,0.001708745956420898,-0.005741894245147705,-0.001760989427566528,XArbitraryZVertical,-0.2172327573558841,0.5246248193024745,-0.7656683706325604,-0.3022092622707421,-0.6497494578361511,0.6720777750015259,-0.3551574647426605,0,0,0,-1,-1,20309.90125491667,unknown,2,2025-04-21T16:43:17.691+03:00,2025-04-20T21:57:49.637+03:00,6805,0.9845527,0,0,5579.851,5,6,2025-04-21T16:43:17.691+03:00,766935790.0548265,0,-38.69,100.1966,1,0.3,2025-04-21T16:43:07.230+03:00,101,1.683333333333333,2025-04-21T12:30:07.995+03:00,0.02023345852159405,0
2025-04-21T16:43:20.324+03:00,1745242998.53616,40.95237388445845,29.14013565701957,78.28703,-1,-1,-1,-1,30,34.22672640375541,-9999,20312.5297675,-0.6453704833984375,0.6732177734375,-0.3556671142578125,20312.5222275,1.939144827940505,-1.070884323405297,-0.7369931415450072,-0.02195337414741516,-0.012661999091506,-0.01353838481009007,0.005602836608886719,-0.001852750778198242,-0.003246307373046875,XArbitraryZVertical,-0.2172674437774274,0.5247074386914471,-0.7655791167933927,-0.3022673722565326,-0.6498746871948242,0.6720644235610962,-0.3549539148807526,0,0,0,-1,-1,20309.90125491667,unknown,2,2025-04-21T16:43:17.691+03:00,2025-04-20T21:57:49.637+03:00,6805,0.9845527,0,0,5579.851,5,6,2025-04-21T16:43:17.691+03:00,766935790.0548265,0,-38.69,100.1966,1,0.3,2025-04-21T16:43:07.230+03:00,101,1.683333333333333,2025-04-21T12:30:07.995+03:00,0.02023345852159405,0
2025-04-21T16:43:20.334+03:00,1745242998.53616,40.95237388445845,29.14013565701957,78.28703,-1,-1,-1,-1,30,34.22672640375541,-9999,20312.5398435,-0.64898681640625,0.6708984375,-0.353759765625,20312.5323035,1.938802569290752,-1.071247185822764,-0.736978500306764,-0.01961112394928932,-0.01064492017030716,-0.01168056298047304,0.003909111022949219,0.001576006412506104,-0.0004256665706634521,XArbitraryZVertical,-0.2173210532011918,0.5247953938398505,-0.7654877936151758,-0.3023070700347907,-0.6500119566917419,0.6720535755157471,-0.3547227084636688,0,0,0,-1,-1,20309.90125491667,unknown,2,2025-04-21T16:43:17.691+03:00,2025-04-20T21:57:49.637+03:00,6805,0.9845527,0,0,5579.851,5,6,2025-04-21T16:43:17.691+03:00,766935790.0548265,0,-38.69,100.1966,1,0.3,2025-04-21T16:43:07.230+03:00,101,1.683333333333333,2025-04-21T12:30:07.995+03:00,0.02023345852159405,0
2025-04-21T16:43:20.344+03:00,1745242998.53616,40.95237388445845,29.14013565701957,78.28703,-1,-1,-1,-1,30,34.22672640375541,-9999,20312.5499185,-0.6555328369140625,0.668304443359375,-0.352325439453125,20312.5423795,1.938486540364812,-1.071465538138905,-0.7370126667686469,-0.02676623873412609,0.008694423362612724,-0.006147313397377729,0.0003959536552429199,-0.001378893852233887,0.001115173101425171,XArbitraryZVertical,-0.2173112193410668,0.5248722519232095,-0.765416634558191,-0.3023614039793561,-0.6500694751739502,0.6720788478851318,-0.3545699119567871,0,0,0,-1,-1,20309.90125491667,unknown,2,2025-04-21T16:43:17.691+03:00,2025-04-20T21:57:49.637+03:00,6805,0.9845527,0,0,5579.851,5,6,2025-04-21T16:43:17.691+03:00,766935790.0548265,0,-38.69,100.1966,1,0.3,2025-04-21T16:43:07.230+03:00,101,1.683333333333333,2025-04-21T12:30:07.995+03:00,0.02023345852159405,0
2025-04-21T16:43:20.354+03:00,1745242998.53616,40.95237388445845,29.14013565701957,78.28703,-1,-1,-1,-1,30,34.22672640375541,-9999,20312.5599945,-0.65576171875,0.669036865234375,-0.355255126953125,20312.5524545,1.938143445003804,-1.071553259458625,-0.7370777601263445,-0.02609831839799881,0.01636858657002449,-0.002957378979772329,-0.006844043731689453,-0.004143118858337402,0.001632243394851685,XArbitraryZVertical,-0.217235056310713,0.5249409258612389,-0.7653556698579408,-0.3024511253632008,-0.650062084197998,0.6721270680427551,-0.3544919192790985,0,0,0,-1,-1,20309.90125491667,unknown,2,2025-04-21T16:43:17.691+03:00,2025-04-20T21:57:49.637+03:00,6805,0.9845527,0,0,5579.851,5,6,2025-04-21T16:43:17.691+03:00,766935790.0548265,0,-38.69,100.1966,1,0.3,2025-04-21T16:43:07.230+03:00,101,1.683333333333333,2025-04-21T12:30:07.995+03:00,0.02023345852159405,0
2025-04-21T16:43:20.364+03:00,1745242998.53616,40.95237388445845,29.14013565701957,78.28703,-1,-1,-1,-1,30,34.22672640375541,-9999,20312.5700705,-0.64794921875,0.6663970947265625,-0.357696533203125,20312.5625305,1.937799958692352,-1.07164378511274,-0.7371724363208326,-0.02489190548658371,0.01249049231410027,-0.00343008991330862,-0.004609644412994385,-0.003389358520507812,-0.0009289979934692383,XArbitraryZVertical,-0.2171509371919307,0.5250182955053193,-0.765294504018242,-0.3025316901350976,-0.6500381827354431,0.672197163105011,-0.3544025123119354,0,0,0,-1,-1,20309.90125491667,unknown,2,2025-04-21T16:43:17.691+03:00,2025-04-20T21:57:49.637+03:00,6805,0.9845527,0,0,5579.851,5,6,2025-04-21T16:43:17.691+03:00,766935790.0548265,0,-38.69,100.1966,1,0.3,2025-04-21T16:43:07.230+03:00,101,1.683333333333333,2025-04-21T12:30:07.995+03:00,0.02023345852159405,0
2025-04-21T16:43:20.374+03:00,1745242998.53616,40.95237388445845,29.14013565701957,78.28703,-1,-1,-1,-1,30,34.22672640375541,-9999,20312.5801465,-0.641143798828125,0.6662445068359375,-0.357696533203125,20312.5726065,1.937437753191175,-1.071863169808141,-0.7372520487857978,-0.02733482420444489,-0.004929509945213795,-0.005654096137732267,0.003325164318084717,-0.006393253803253174,-0.003630191087722778,XArbitraryZVertical,-0.2171156862824536,0.5251129764018783,-0.7652164534367918,-0.3025900348427777,-0.6500688791275024,0.6722561120986938,-0.3542342782020569,0,0,0,-1,-1,20309.90125491667,unknown,2,2025-04-21T16:43:17.691+03:00,2025-04-20T21:57:49.637+03:00,6805,0.9845527,0,0,5579.851,5,6,2025-04-21T16:43:17.691+03:00,766935790.0548265,0,-38.69,100.1966,1,0.3,2025-04-21T16:43:07.230+03:00,101,1.683333333333333,2025-04-21T12:30:07.995+03:00,0.02023345852159405,0
2025-04-21T16:43:20.385+03:00,1745242998.53616,40.95237388445845,29.14013565701957,78.28703,-1,-1,-1,-1,30,34.22672640375541,-9999,20312.5902225,-0.6412200927734375,0.6702728271484375,-0.3523406982421875,20312.5826825,1.937034945609715,-1.072198896217584,-0.737340511919104,-0.02903065830469131,-0.007980627939105034,-0.004386930726468563,0.009327530860900879,-0.005054891109466553,-0.003907382488250732,XArbitraryZVertical,-0.2171115166280502,0.525232120459418,-0.7651197349785355,-0.3026309765143343,-0.6501356363296509,0.6723215579986572,-0.3539876043796539,0,0,0,-1,-1,20309.90125491667,unknown,2,2025-04-21T16:43:17.691+03:00,2025-04-20T21:57:49.637+03:00,6805,0.9866872,0,0,5579.851,5,6,2025-04-21T16:43:20.270+03:00,766935800.3712647,0,-38.4,100.1934,1,0.3,2025-04-21T16:43:07.230+03:00,101,1.683333333333333,2025-04-21T12:30:07.995+03:00,0.02023345852159405,0
2025-04-21T16:43:20.395+03:00,1745242998.53616,40.95237388445845,29.14013565701957,78.28703,-1,-1,-1,-1,30,34.22672640375541,-9999,20312.6002985,-0.648895263671875,0.6719207763671875,-0.3502960205078125,20312.5927585,1.936667876441863,-1.072521073357079,-0.7374285909005238,-0.02775953151285648,-0.004562993068248034,-0.0039589605294168,0.007863700389862061,-0.00144273042678833,0.002294063568115234,XArbitraryZVertical,-0.2171116481617004,0.5253452250888019,-0.7650298735007064,-0.3026617954282071,-0.6501976251602173,0.6723867654800415,-0.3537498414516449,0,0,0,-1,-1,20309.90125491667,unknown,2,2025-04-21T16:43:17.691+03:00,2025-04-20T21:57:49.637+03:00,6805,0.9866872,0,0,5579.851,5,6,2025-04-21T16:43:20.270+03:00,766935800.3712647,0,-38.4,100.1934,1,0.3,2025-04-21T16:43:07.230+03:00,101,1.683333333333333,2025-04-21T12:30:07.995+03:00,0.02023345852159405,0
2025-04-21T16:43:20.405+03:00,1745242998.53616,40.95237388445845,29.14013565701957,78.28703,-1,-1,-1,-1,30,34.22672640375541,-9999,20312.6103735,-0.6519317626953125,0.6749114990234375,-0.3553924560546875,20312.6028345,1.936389431494461,-1.072674690853117,-0.7375200124983449,-0.01949933730065823,0.007976101711392403,-0.00123314862139523,0.0005093216896057129,0.0003054141998291016,0.002454698085784912,XArbitraryZVertical,-0.2170695408415934,0.5254241233209972,-0.7649717471928762,-0.3027020087608912,-0.6501979827880859,0.6724544763565063,-0.3536206185817719,0,0,0,-1,-1,20309.90125491667,unknown,2,2025-04-21T16:43:17.691+03:00,2025-04-20T21:57:49.637+03:00,6805,0.9866872,0,0,5579.851,5,6,2025-04-21T16:43:20.270+03:00,766935800.3712647,0,-38.4,100.1934,1,0.3,2025-04-21T16:43:07.230+03:00,101,1.683333333333333,2025-04-21T12:30:07.995+03:00,0.02023345852159405,0
2025-04-21T16:43:20.415+03:00,1745242998.53616,40.95237388445845,29.14013565701957,78.28703,-1,-1,-1,-1,30,34.22672640375541,-9999,20312.6204495,-0.6549072265625,0.67279052734375,-0.3519744873046875,20312.6129095,1.936199430429263,-1.072664534842906,-0.7376141994062253,-0.01518874615430832,0.01954167708754539,0.003583178156986833,-0.001899898052215576,0.002280294895172119,-0.001658350229263306,XArbitraryZVertical,-0.2169872675858004,0.5254694006937402,-0.7649447301338114,-0.3027503496866953,-0.6501386165618896,0.6725241541862488,-0.3535968661308289,0,0,0,-1,-1,20309.90125491667,unknown,2,2025-04-21T16:43:17.691+03:00,2025-04-20T21:57:49.637+03:00,6805,0.9866872,0,0,5579.851,5,6,2025-04-21T16:43:20.270+03:00,766935800.3712647,0,-38.4,100.1934,1,0.3,2025-04-21T16:43:07.230+03:00,101,1.683333333333333,2025-04-21T12:30:07.995+03:00,0.02023345852159405,0
2025-04-21T16:43:20.425+03:00,1745242998.53616,40.95237388445845,29.14013565701957,78.28703,-1,-1,-1,-1,30,34.22672640375541,-9999,20312.6305255,-0.653961181640625,0.6676788330078125,-0.353363037109375,20312.6229855,1.936034694023637,-1.072541458440267,-0.7377172775011214,-0.02046706341207027,0.02417058497667313,0.002163213910534978,-0.005818963050842285,3.725290298461914e-05,0.002569407224655151,XArbitraryZVertical,-0.2168656374471083,0.5254972932922005,-0.7649339272903245,-0.3028164828715118,-0.6500342488288879,0.6726004481315613,-0.3536437749862671,0,0,0,-1,-1,20309.90125491667,unknown,2,2025-04-21T16:43:17.691+03:00,2025-04-20T21:57:49.637+03:00,6805,0.9866872,0,0,5579.851,5,6,2025-04-21T16:43:20.270+03:00,766935800.3712647,0,-38.4,100.1934,1,0.3,2025-04-21T16:43:07.230+03:00,101,1.683333333333333,2025-04-21T12:30:07.995+03:00,0.02023345852159405,0
2025-04-21T16:43:20.435+03:00,1745242998.53616,40.95237388445845,29.14013565701957,78.28703,-1,-1,-1,-1,30,34.22672640375541,-9999,20312.6406015,-0.650360107421875,0.668701171875,-0.3629608154296875,20312.6330615,1.935828719806385,-1.072479439825931,-0.7377907092156273,-0.01419132482260466,0.01460797246545553,0.001212731935083866,-0.004114210605621338,-0.004518330097198486,-0.0009080767631530762,XArbitraryZVertical,-0.2167654762904662,0.5255306413868419,-0.7649100515249131,-0.3028908630259356,-0.6499690413475037,0.6726547479629517,-0.3536605536937714,0,0,0,-1,-1,20309.90125491667,unknown,2,2025-04-21T16:43:17.691+03:00,2025-04-20T21:57:49.637+03:00,6805,0.9866872,0,0,5579.851,5,6,2025-04-21T16:43:20.270+03:00,766935800.3712647,0,-38.4,100.1934,1,0.3,2025-04-21T16:43:07.230+03:00,101,1.683333333333333,2025-04-21T12:30:07.995+03:00,0.02023345852159405,0
2025-04-21T16:43:20.445+03:00,1745242998.53616,40.95237388445845,29.14013565701957,78.28703,-1,-1,-1,-1,30,34.22672640375541,-9999,20312.6506775,-0.6497039794921875,0.6703033447265625,-0.35894775390625,20312.6431375,1.935671351264118,-1.072473082091974,-0.7378222252323726,-0.01088800653815269,0.008008592762053013,-0.005619774106889963,0.0005340576171875,-0.003656625747680664,-0.009352266788482666,XArbitraryZVertical,-0.2167121841959433,0.5255554971464235,-0.7648871036176559,-0.3029436225748489,-0.6499480605125427,0.6726781129837036,-0.3536545038223267,0,0,0,-1,-1,20309.90125491667,unknown,2,2025-04-21T16:43:17.691+03:00,2025-04-20T21:57:49.637+03:00,6805,0.9866872,0,0,5579.851,5,6,2025-04-21T16:43:20.270+03:00,766935800.3712647,0,-38.4,100.1934,1,0.3,2025-04-21T16:43:07.230+03:00,101,1.683333333333333,2025-04-21T12:30:07.995+03:00,0.02023345852159405,0
2025-04-21T16:43:20.455+03:00,1745242998.53616,40.95237388445845,29.14013565701957,78.28703,-1,-1,-1,-1,30,34.22672640375541,-9999,20312.6607535,-0.6498565673828125,0.67034912109375,-0.3535919189453125,20312.6532135,1.935511876009765,-1.072496154225535,-0.7378258825393363,-0.01051170192658901,0.008132163435220718,-0.00420084223151207,0.0005095601081848145,-0.002408146858215332,-0.004424512386322021,XArbitraryZVertical,-0.2166779688002236,0.5255772856966082,-0.7648604905885864,-0.3029975774394058,-0.6499541401863098,0.6726807951927185,-0.3536383509635925,0,0,0,-1,-1,20309.90125491667,unknown,2,2025-04-21T16:43:17.691+03:00,2025-04-20T21:57:49.637+03:00,6805,0.9866872,0,0,5579.851,5,6,2025-04-21T16:43:20.270+03:00,766935800.3712647,0,-38.4,100.1934,1,0.3,2025-04-21T16:43:07.230+03:00,101,1.683333333333333,2025-04-21T12:30:07.995+03:00,0.02023345852159405,0
2025-04-21T16:43:20.465+03:00,1745242998.53616,40.95237388445845,29.14013565701957,78.28703,-1,-1,-1,-1,30,34.22672640375541,-9999,20312.6708295,-0.65301513671875,0.6732177734375,-0.3549041748046875,20312.6632895,1.935445181802415,-1.072404129220183,-0.7378176954576013,0.0003219040809199214,0.01752792857587337,-0.003179320134222507,-0.0008303523063659668,-0.002493560314178467,0.0006428062915802002,XArbitraryZVertical,-0.2166276820528411,0.5255682879241024,-0.7648603320416172,-0.3030497422919124,-0.649926483631134,0.6726747155189514,-0.3537008464336395,0,0,0,-1,-1,20309.90125491667,unknown,2,2025-04-21T16:43:17.691+03:00,2025-04-20T21:57:49.637+03:00,6805,0.9866872,0,0,5579.851,5,6,2025-04-21T16:43:20.270+03:00,766935800.3712647,0,-38.4,100.1934,1,0.3,2025-04-21T16:43:07.230+03:00,101,1.683333333333333,2025-04-21T12:30:07.995+03:00,0.02023345852159405,0
2025-04-21T16:43:20.475+03:00,1745242998.53616,40.95237388445845,29.14013565701957,78.28703,-1,-1,-1,-1,30,34.22672640375541,-9999,20312.6809045,-0.6515045166015625,0.6846466064453125,-0.3603515625,20312.6733655,1.935469856411921,-1.07215607114273,-0.7377462289573518,0.008831769227981567,0.02531048469245434,-0.008551448583602905,-0.003988802433013916,0.001572251319885254,-0.001690715551376343,XArbitraryZVertical,-0.2165610737900736,0.5255081670724164,-0.7648903217420899,-0.3031254837619274,-0.6498807668685913,0.6726218461990356,-0.3538849353790283,0,0,0,-1,-1,20309.90125491667,unknown,2,2025-04-21T16:43:17.691+03:00,2025-04-20T21:57:49.637+03:00,6805,0.9866872,0,0,5579.851,5,6,2025-04-21T16:43:20.270+03:00,766935800.3712647,0,-38.4,100.1934,1,0.3,2025-04-21T16:43:07.230+03:00,101,1.683333333333333,2025-04-21T12:30:07.995+03:00,0.02023345852159405,0
2025-04-21T16:43:20.485+03:00,1745242998.53616,40.95237388445845,29.14013565701957,78.28703,-1,-1,-1,-1,30,34.22672640375541,-9999,20312.6909805,-0.6448211669921875,0.695037841796875,-0.3707427978515625,20312.6834405,1.935563875499873,-1.07182800401437,-0.7375741844656258,0.01776101440191269,0.02665984071791172,-0.0139828659594059,-5.424022674560547e-06,0.01407456398010254,-0.006564348936080933,XArbitraryZVertical,-0.216512373608722,0.5254004143377493,-0.7649388911679552,-0.3032248864191499,-0.6498664021492004,0.6724945306777954,-0.3541536033153534,0,0,0,-1,-1,20309.90125491667,unknown,2,2025-04-21T16:43:17.691+03:00,2025-04-20T21:57:49.637+03:00,6805,0.9866872,0,0,5579.851,5,6,2025-04-21T16:43:20.270+03:00,766935800.3712647,0,-38.4,100.1934,1,0.3,2025-04-21T16:43:07.230+03:00,101,1.683333333333333,2025-04-21T12:30:07.995+03:00,0.02023345852159405,0
2025-04-21T16:43:20.495+03:00,1745242998.53616,40.95237388445845,29.14013565701957,78.28703,-1,-1,-1,-1,30,34.22672640375541,-9999,20312.7010565,-0.64288330078125,0.6904144287109375,-0.3831939697265625,20312.6935165,1.935709543910137,-1.071448477010498,-0.7373136591975008,0.02720964327454567,0.03217258304357529,-0.02306131646037102,0.006117343902587891,0.02287328243255615,-0.01773899793624878,XArbitraryZVertical,-0.2164845294498097,0.5252546387291241,-0.7650000840464496,-0.3033426523843237,-0.6498856544494629,0.672301709651947,-0.3544840216636658,0,0,0,-1,-1,20309.90125491667,unknown,2,2025-04-21T16:43:17.691+03:00,2025-04-20T21:57:49.637+03:00,6805,0.9866872,0,0,5579.851,5,6,2025-04-21T16:43:20.270+03:00,766935800.3712647,0,-38.4,100.1934,1,0.3,2025-04-21T16:43:07.230+03:00,101,1.683333333333333,2025-04-21T12:30:07.995+03:00,0.02023345852159405,0
2025-04-21T16:43:20.505+03:00,1745242998.53616,40.95237388445845,29.14013565701957,78.28703,-1,-1,-1,-1,30,34.22672640375541,-9999,20312.7111325,-0.6448211669921875,0.687957763671875,-0.3887176513671875,20312.7035925,1.935808088496186,-1.070989141682797,-0.7368942993189546,0.02631848305463791,0.04341745004057884,-0.03805134817957878,0.006705403327941895,0.01784324645996094,-0.02963453531265259,XArbitraryZVertical,-0.2164618160436107,0.5250575907428144,-0.7650616716353382,-0.3035447023117563,-0.6499701738357544,0.671991229057312,-0.3549176156520844,0,0,0,-1,-1,20309.90125491667,unknown,2,2025-04-21T16:43:17.691+03:00,2025-04-20T21:57:49.637+03:00,6805,0.9866872,0,0,5579.851,5,6,2025-04-21T16:43:20.270+03:00,766935800.3712647,0,-38.4,100.1934,1,0.3,2025-04-21T16:43:07.230+03:00,101,1.683333333333333,2025-04-21T12:30:07.995+03:00,0.02023345852159405,0
2025-04-21T16:43:20.516+03:00,1745242998.53616,40.95237388445845,29.14013565701957,78.28703,-1,-1,-1,-1,30,34.22672640375541,-9999,20312.7212085,-0.6454315185546875,0.6876373291015625,-0.3979034423828125,20312.7136685,1.93576104653949,-1.070604496957702,-0.7363979645895213,0.0154120409861207,0.03622372075915337,-0.04784911870956421,0.005488157272338867,0.01663917303085327,-0.03311565518379211,XArbitraryZVertical,-0.2164528330344038,0.5248661136314092,-0.7650924452726816,-0.303804393861084,-0.6501260995864868,0.6716235280036926,-0.3553274571895599,0,0,0,-1,-1,20309.90125491667,unknown,2,2025-04-21T16:43:17.691+03:00,2025-04-20T21:57:49.637+03:00,6805,0.9866872,0,0,5579.851,5,6,2025-04-21T16:43:20.270+03:00,766935800.3712647,0,-38.4,100.1934,1,0.3,2025-04-21T16:43:07.230+03:00,101,1.683333333333333,2025-04-21T12:30:07.995+03:00,0.02023345852159405,0
2025-04-21T16:43:20.526+03:00,1745242998.53616,40.95237388445845,29.14013565701957,78.28703,-1,-1,-1,-1,30,34.22672640375541,-9999,20312.7312845,-0.6444244384765625,0.6831512451171875,-0.430908203125,20312.7237445,1.935851568081643,-1.070286456674757,-0.7357292980227732,0.04936088621616364,0.008114519529044628,-0.06345008313655853,0.005845248699188232,0.01531893014907837,-0.04496148228645325,XArbitraryZVertical,-0.2165575890808244,0.5246217551503537,-0.7651356423288651,-0.3040429449161677,-0.6504069566726685,0.67112797498703,-0.355749636888504,0,0,0,-1,-1,20309.90125491667,unknown,2,2025-04-21T16:43:17.691+03:00,2025-04-20T21:57:49.637+03:00,6805,0.9866872,0,0,5579.851,5,6,2025-04-21T16:43:20.270+03:00,766935800.3712647,0,-38.4,100.1934,1,0.3,2025-04-21T16:43:07.230+03:00,101,1.683333333333333,2025-04-21T12:30:07.995+03:00,0.02023345852159405,0
2025-04-21T16:43:20.536+03:00,1745242998.53616,40.95237388445845,29.14013565701957,78.28703,-1,-1,-1,-1,30,34.22672640375541,-9999,20312.7413595,-0.6451263427734375,0.7008514404296875,-0.4799957275390625,20312.7338205,1.936231452312885,-1.07017645833274,-0.7348079279976156,0.09067077189683914,-0.0407148040831089,-0.07215408980846405,0.006134688854217529,0.01311838626861572,-0.08104658126831055,XArbitraryZVertical,-0.2168942922180838,0.5243070948601618,-0.7651983990463985,-0.3041879052945345,-0.6509100794792175,0.670444667339325,-0.3561178743839264,0,0,0,-1,-1,20309.90125491667,unknown,2,2025-04-21T16:43:17.691+03:00,2025-04-20T21:57:49.637+03:00,6805,0.9866872,0,0,5579.851,5,6,2025-04-21T16:43:20.270+03:00,766935800.3712647,0,-38.4,100.1934,1,0.3,2025-04-21T16:43:07.230+03:00,101,1.683333333333333,2025-04-21T12:30:07.995+03:00,0.02023345852159405,0
2025-04-21T16:43:20.546+03:00,1745242998.53616,40.95237388445845,29.14013565701957,78.28703,-1,-1,-1,-1,30,34.22672640375541,-9999,20312.7514355,-0.63525390625,0.7331085205078125,-0.49169921875,20312.7438955,1.936523880030236,-1.070544116432483,-0.7338563464629901,0.02303234301507473,-0.06559725105762482,-0.06940504163503647,0.007801592350006104,0.0354769229888916,-0.1288469135761261,XArbitraryZVertical,-0.2173999404221197,0.5240659421410083,-0.7651955778592081,-0.304249308201517,-0.6516003608703613,0.6697382926940918,-0.3561843037605286,0,0,0,-1,-1,20309.90125491667,unknown,2,2025-04-21T16:43:17.691+03:00,2025-04-20T21:57:49.637+03:00,6805,0.9866872,0,0,5579.851,5,6,2025-04-21T16:43:20.270+03:00,766935800.3712647,0,-38.4,100.1934,1,0.3,2025-04-21T16:43:07.230+03:00,101,1.683333333333333,2025-04-21T12:30:07.995+03:00,0.02023345852159405,0
2025-04-21T16:43:20.556+03:00,1745242998.53616,40.95237388445845,29.14013565701957,78.28703,-1,-1,-1,-1,30,34.22672640375541,-9999,20312.7615115,-0.644775390625,0.70819091796875,-0.448089599609375,20312.7539715,1.935569952378749,-1.071955520302741,-0.7334459760547341,-0.1122679635882378,-0.07626587897539139,-0.0701960027217865,0.01779186725616455,0.06462091207504272,-0.1328397989273071,XArbitraryZVertical,-0.2178140637587545,0.5242700858413526,-0.7648936431569635,-0.3043609443981746,-0.6523438692092896,0.6694335341453552,-0.3553958237171173,0,0,0,-1,-1,20309.90125491667,unknown,2,2025-04-21T16:43:17.691+03:00,2025-04-20T21:57:49.637+03:00,6805,0.9866872,0,0,5579.851,5,6,2025-04-21T16:43:20.270+03:00,766935800.3712647,0,-38.4,100.1934,1,0.3,2025-04-21T16:43:07.230+03:00,101,1.683333333333333,2025-04-21T12:30:07.995+03:00,0.02023345852159405,0
2025-04-21T16:43:20.566+03:00,1745242998.53616,40.95237388445845,29.14013565701957,78.28703,-1,-1,-1,-1,30,34.22672640375541,-9999,20312.7715875,-0.6780242919921875,0.6424713134765625,-0.430419921875,20312.7640475,1.93265932200694,-1.074383813949251,-0.7338252220519412,-0.2964555621147156,-0.0131510216742754,-0.06413261592388153,0.00448310375213623,0.03031212091445923,-0.09002071619033813,XArbitraryZVertical,-0.2178638160506827,0.5250623750546902,-0.7641891770336833,-0.3047288078565664,-0.6529815793037415,0.6697152256965637,-0.3536897301673889,0,0,0,-1,-1,20309.90125491667,unknown,2,2025-04-21T16:43:17.691+03:00,2025-04-20T21:57:49.637+03:00,6805,0.9866872,0,0,5579.851,5,6,2025-04-21T16:43:20.270+03:00,766935800.3712647,0,-38.4,100.1934,1,0.3,2025-04-21T16:43:07.230+03:00,101,1.683333333333333,2025-04-21T12:30:07.995+03:00,0.02023345852159405,0
2025-04-21T16:43:20.576+03:00,1745242998.53616,40.95237388445845,29.14013565701957,78.28703,-1,-1,-1,-1,30,34.22672640375541,-9999,20312.7816635,-0.6978759765625,0.6206207275390625,-0.4196319580078125,20312.7741235,1.927711185748082,-1.077387081827361,-0.7352445301670384,-0.4658232927322388,0.07342115044593811,-0.03624133393168449,-0.02837646007537842,-0.03456872701644897,-0.07867050170898438,XArbitraryZVertical,-0.2172785969320034,0.5264520410497489,-0.7631210158783788,-0.3054251524151202,-0.6532031297683716,0.6707685589790344,-0.3512765169143677,0,0,0,-1,-1,20309.90125491667,unknown,2,2025-04-21T16:43:17.691+03:00,2025-04-20T21:57:49.637+03:00,6805,0.9866872,0,0,5579.851,5,6,2025-04-21T16:43:20.270+03:00,766935800.3712647,0,-38.4,100.1934,1,0.3,2025-04-21T16:43:07.230+03:00,101,1.683333333333333,2025-04-21T12:30:07.995+03:00,0.02023345852159405,0
2025-04-21T16:43:20.586+03:00,1745242998.53616,40.95237388445845,29.14013565701957,78.28703,-1,-1,-1,-1,30,34.22672640375541,-9999,20312.7917395,-0.7010650634765625,0.6363525390625,-0.411376953125,20312.7841995,1.921440516586274,-1.080346785393095,-0.7374780275269105,-0.5242850184440613,0.1715735495090485,-0.006170116830617189,-0.04640883207321167,-0.0517265796661377,-0.0692422091960907,XArbitraryZVertical,-0.2160732582692128,0.528199578198134,-0.7618641581706482,-0.3063990499481596,-0.6529166102409363,0.6724233627319336,-0.3486351072788239,0,0,0,-1,-1,20309.90125491667,unknown,2,2025-04-21T16:43:17.691+03:00,2025-04-20T21:57:49.637+03:00,6805,0.9866872,0,0,5579.851,5,6,2025-04-21T16:43:20.270+03:00,766935800.3712647,0,-38.4,100.1934,1,0.3,2025-04-21T16:43:07.230+03:00,101,1.683333333333333,2025-04-21T12:30:07.995+03:00,0.02023345852159405,0
2025-04-21T16:43:20.596+03:00,1745242998.53616,40.95237388445845,29.14013565701957,78.28703,-1,-1,-1,-1,30,34.22672640375541,-9999,20312.8018155,-0.6874237060546875,0.6828765869140625,-0.4439544677734375,20312.7942755,1.915464588419476,-1.082337180268974,-0.7401482895758288,-0.4955657422542572,0.2154451310634613,0.05610604211688042,-0.04815858602523804,-0.03395569324493408,-0.06657969951629639,XArbitraryZVertical,-0.2144340528423416,0.5298796939668372,-0.7607625553122231,-0.3073855267617183,-0.6520214676856995,0.6743974089622498,-0.3464910984039307,0,0,0,-1,-1,20309.90125491667,unknown,2,2025-04-21T16:43:17.691+03:00,2025-04-20T21:57:49.637+03:00,6805,0.9866872,0,0,5579.851,5,6,2025-04-21T16:43:20.270+03:00,766935800.3712647,0,-38.4,100.1934,1,0.3,2025-04-21T16:43:07.230+03:00,101,1.683333333333333,2025-04-21T12:30:07.995+03:00,0.02023345852159405,0
2025-04-21T16:43:20.606+03:00,1745242998.53616,40.95237388445845,29.14013565701957,78.28703,-1,-1,-1,-1,30,34.22672640375541,-9999,20312.8118905,-0.6593170166015625,0.746673583984375,-0.475341796875,20312.8043515,1.910643676257163,-1.083384535366338,-0.742881443839551,-0.370235800743103,0.2133039534091949,0.08807834982872009,-0.0330238938331604,0.01401656866073608,-0.1035735607147217,XArbitraryZVertical,-0.2127156347213909,0.5313006140035088,-0.7599404090355399,-0.3081594046238922,-0.6507529616355896,0.6764129400253296,-0.3449434340000153,0,0,0,-1,-1,20309.90125491667,unknown,2,2025-04-21T16:43:17.691+03:00,2025-04-20T21:57:49.637+03:00,6805,0.9866872,0,0,5579.851,5,6,2025-04-21T16:43:20.270+03:00,766935800.3712647,0,-38.4,100.1934,1,0.3,2025-04-21T16:43:07.230+03:00,101,1.683333333333333,2025-04-21T12:30:07.995+03:00,0.02023345852159405,0
2025-04-21T16:43:20.616+03:00,1745242998.53616,40.95237388445845,29.14013565701957,78.28703,-1,-1,-1,-1,30,34.22672640375541,-9999,20312.8219665,-0.6494598388671875,0.776458740234375,-0.4794464111328125,20312.8144265,1.907550335573371,-1.083658507389514,-0.7451219314949837,-0.247015580534935,0.1177036613225937,0.0854567363858223,-0.007567346096038818,0.07431876659393311,-0.1326909065246582,XArbitraryZVertical,-0.2113090486193422,0.5322791143602876,-0.759460713667066,-0.3086207552253492,-0.6495066285133362,0.6780614256858826,-0.3440548479557037,0,0,0,-1,-1,20309.90125491667,unknown,2,2025-04-21T16:43:17.691+03:00,2025-04-20T21:57:49.637+03:00,6805,0.9866872,0,0,5579.851,5,6,2025-04-21T16:43:20.270+03:00,766935800.3712647,0,-38.4,100.1934,1,0.3,2025-04-21T16:43:07.230+03:00,101,1.683333333333333,2025-04-21T12:30:07.995+03:00,0.02023345852159405,0
2025-04-21T16:43:20.626+03:00,1745242998.53616,40.95237388445845,29.14013565701957,78.28703,-1,-1,-1,-1,30,34.22672640375541,-9999,20312.8320425,-0.657135009765625,0.772552490234375,-0.46234130859375,20312.8245025,1.905402077399479,-1.084019909273047,-0.74689296441665,-0.1902737468481064,0.114170715212822,0.07144185155630112,-0.001394808292388916,0.09795099496841431,-0.135471522808075,XArbitraryZVertical,-0.2103292944453497,0.5330409535704177,-0.7591119182872694,-0.3088333266872954,-0.6485685706138611,0.6793621182441711,-0.343257874250412,0,0,0,-1,-1,20309.90125491667,unknown,2,2025-04-21T16:43:17.691+03:00,2025-04-20T21:57:49.637+03:00,6805,0.9866872,0,0,5579.851,5,6,2025-04-21T16:43:20.270+03:00,766935800.3712647,0,-38.4,100.1934,1,0.3,2025-04-21T16:43:07.230+03:00,101,1.683333333333333,2025-04-21T12:30:07.995+03:00,0.02023345852159405,0
2025-04-21T16:43:20.636+03:00,1745242998.53616,40.95237388445845,29.14013565701957,78.28703,-1,-1,-1,-1,30,34.22672640375541,-9999,20312.8421185,-0.6585235595703125,0.7455596923828125,-0.4470062255859375,20312.8345785,1.903644234303559,-1.084117079756757,-0.7483015569779414,-0.1950051188468933,0.08089877665042877,0.05011259764432907,-0.01053929328918457,0.08956331014633179,-0.1175804138183594,XArbitraryZVertical,-0.2094636817002376,0.5336211389948979,-0.7588467741616909,-0.309071036200101,-0.6477553844451904,0.6803950667381287,-0.3427468836307526,0,0,0,-1,-1,20309.90125491667,unknown,2,2025-04-21T16:43:17.691+03:00,2025-04-20T21:57:49.637+03:00,6805,0.9866872,0,0,5579.851,5,6,2025-04-21T16:43:20.270+03:00,766935800.3712647,0,-38.4,100.1934,1,0.3,2025-04-21T16:43:07.230+03:00,101,1.683333333333333,2025-04-21T12:30:07.995+03:00,0.02023345852159405,0
2025-04-21T16:43:20.646+03:00,1745242998.53616,40.95237388445845,29.14013565701957,78.28703,-1,-1,-1,-1,30,34.22672640375541,-9999,20312.8521945,-0.65509033203125,0.70361328125,-0.4121856689453125,20312.8446545,1.901725603151062,-1.084747620975766,-0.7496409456863575,-0.1894167363643646,0.05399366095662117,0.0620422251522541,-0.01070243120193481,0.05908709764480591,-0.1013402938842773,XArbitraryZVertical,-0.2087777459013301,0.5342805109284623,-0.7585001592318783,-0.3092468132177048,-0.6471650004386902,0.6813759803771973,-0.3419123888015747,0,0,0,-1,-1,20309.90125491667,unknown,2,2025-04-21T16:43:17.691+03:00,2025-04-20T21:57:49.637+03:00,6805,0.9866872,0,0,5579.851,5,6,2025-04-21T16:43:20.270+03:00,766935800.3712647,0,-38.4,100.1934,1,0.3,2025-04-21T16:43:07.230+03:00,101,1.683333333333333,2025-04-21T12:30:07.995+03:00,0.02023345852159405,0
2025-04-21T16:43:20.657+03:00,1745242998.53616,40.95237388445845,29.14013565701957,78.28703,-1,-1,-1,-1,30,34.22672640375541,-9999,20312.8622705,-0.6508026123046875,0.66766357421875,-0.4008026123046875,20312.8547305,1.89987082167775,-1.085875696922025,-0.7511517044759021,-0.1918695718050003,-0.0276528000831604,0.08078645169734955,-0.007261216640472412,0.01527279615402222,-0.06773021817207336,XArbitraryZVertical,-0.2082433346470288,0.5350548928424593,-0.7581139549564289,-0.3092155745821374,-0.6466389894485474,0.6824809908866882,-0.3407019376754761,0,0,0,-1,-1,20309.90125491667,unknown,2,2025-04-21T16:43:17.691+03:00,2025-04-20T21:57:49.637+03:00,6805,0.9866872,0,0,5579.851,5,6,2025-04-21T16:43:20.270+03:00,766935800.3712647,0,-38.4,100.1934,1,0.3,2025-04-21T16:43:07.230+03:00,101,1.683333333333333,2025-04-21T12:30:07.995+03:00,0.02023345852159405,0
2025-04-21T16:43:20.667+03:00,1745242998.53616,40.95237388445845,29.14013565701957,78.28703,-1,-1,-1,-1,30,34.22672640375541,-9999,20312.8723455,-0.655792236328125,0.66790771484375,-0.41387939453125,20312.8648065,1.897896324606636,-1.087685667992902,-0.7527992498830764,-0.210426539182663,-0.06202788650989532,0.07126601785421371,-0.004224300384521484,-0.01722627878189087,-0.06200820207595825,XArbitraryZVertical,-0.2078915971201178,0.5359822835255688,-0.7576405585308114,-0.3090061559660531,-0.6462578773498535,0.6836842894554138,-0.3390081524848938,0,0,0,-1,-1,20309.90125491667,unknown,2,2025-04-21T16:43:17.691+03:00,2025-04-20T21:57:49.637+03:00,6805,0.9866872,0,0,5579.851,5,6,2025-04-21T16:43:20.270+03:00,766935800.3712647,0,-38.4,100.1934,1,0.3,2025-04-21T16:43:07.230+03:00,101,1.683333333333333,2025-04-21T12:30:07.995+03:00,0.02023345852159405,0
2025-04-21T16:43:20.688+03:00,1745242998.53616,40.95237388445845,29.14013565701957,78.28703,-1,-1,-1,-1,30,34.22672640375541,-9999,20312.8824215,-0.67071533203125,0.6776275634765625,-0.4133758544921875,20312.8748815,1.895125668098933,-1.090266092786883,-0.7544833950202086,-0.2923184931278229,-0.06112400442361832,0.04269243404269218,-0.01204878091812134,-0.01586043834686279,-0.07789686322212219,XArbitraryZVertical,-0.2076044897558456,0.5371192188390201,-0.7569656709503558,-0.3088788478641923,-0.6461084485054016,0.6849123239517212,-0.3368066549301147,0,0,0,-1,-1,20309.90125491667,unknown,2,2025-04-21T16:43:17.691+03:00,2025-04-20T21:57:49.637+03:00,6805,0.9866872,0,0,5579.851,5,6,2025-04-21T16:43:20.270+03:00,766935800.3712647,0,-38.4,100.1934,1,0.3,2025-04-21T16:43:07.230+03:00,101,1.683333333333333,2025-04-21T12:30:07.995+03:00,0.02023345852159405,0
2025-04-21T16:43:20.691+03:00,1745242998.53616,40.95237388445845,29.14013565701957,78.28703,-1,-1,-1,-1,30,34.22672640375541,-9999,20312.8924975,-0.6733856201171875,0.663604736328125,-0.405120849609375,20312.8849575,1.890684024181143,-1.094057251380378,-0.7564644475528188,-0.4733625054359436,-0.09843162447214127,0.01750415377318859,-0.02583831548690796,-0.009306907653808594,-0.07798132300376892,XArbitraryZVertical,-0.2072298900614373,0.53869290070196,-0.7559126638685462,-0.3089687549348106,-0.6461739540100098,0.6863544583320618,-0.333731472492218,0,0,0,-1,-1,20309.90125491667,unknown,2,2025-04-21T16:43:17.691+03:00,2025-04-20T21:57:49.637+03:00,6805,0.9866872,0,0,5579.851,5,6,2025-04-21T16:43:20.270+03:00,766935800.3712647,0,-38.4,100.1934,1,0.3,2025-04-21T16:43:07.230+03:00,101,1.683333333333333,2025-04-21T12:30:07.995+03:00,0.02023345852159405,0
2025-04-21T16:43:20.697+03:00,1745242998.53616,40.95237388445845,29.14013565701957,78.28703,-1,-1,-1,-1,30,34.22672640375541,-9999,20312.9025735,-0.6616973876953125,0.66412353515625,-0.4143524169921875,20312.8950335,1.883973685741432,-1.100210677602781,-0.759192390852268,-0.6270748376846313,-0.2053852379322052,0.02415060624480247,-0.02562081813812256,-0.02610456943511963,-0.07700037956237793,XArbitraryZVertical,-0.206894146758071,0.541059508834029,-0.7542779941811925,-0.3090535131201551,-0.6465440988540649,0.6883358359336853,-0.3288988471031189,0,0,0,-1,-1,20309.90125491667,unknown,2,2025-04-21T16:43:17.691+03:00,2025-04-20T21:57:49.637+03:00,6805,0.9866872,0,0,5579.851,5,6,2025-04-21T16:43:20.270+03:00,766935800.3712647,0,-38.4,100.1934,1,0.3,2025-04-21T16:43:07.230+03:00,101,1.683333333333333,2025-04-21T12:30:07.995+03:00,0.02023345852159405,0
2025-04-21T16:43:20.707+03:00,1745242998.53616,40.95237388445845,29.14013565701957,78.28703,-1,-1,-1,-1,30,34.22672640375541,-9999,20312.9126495,-0.653656005859375,0.680084228515625,-0.4403076171875,20312.9051095,1.875762064516872,-1.108475665099424,-0.7624169563408287,-0.7078848481178284,-0.3131349980831146,0.01798092573881149,-0.01362299919128418,-0.02499157190322876,-0.09465360641479492,XArbitraryZVertical,-0.2067739605366206,0.5440297445723155,-0.7522061135991072,-0.3089694446850073,-0.6472504138946533,0.6906713247299194,-0.3225523233413696,0,0,0,-1,-1,20309.90125491667,unknown,2,2025-04-21T16:43:17.691+03:00,2025-04-20T21:57:49.637+03:00,6805,0.9866872,0,0,5579.851,5,6,2025-04-21T16:43:20.270+03:00,766935800.3712647,0,-38.4,100.1934,1,0.3,2025-04-21T16:43:07.230+03:00,101,1.683333333333333,2025-04-21T12:30:07.995+03:00,0.02023345852159405,0
2025-04-21T16:43:20.717+03:00,1745242998.53616,40.95237388445845,29.14013565701957,78.28703,-1,-1,-1,-1,30,34.22672640375541,-9999,20312.9227255,-0.650665283203125,0.6985015869140625,-0.4723052978515625,20312.9151855,1.867000031876132,-1.118479381505475,-0.7656221516683105,-0.6793410778045654,-0.4751380383968353,0.0003121839254163206,-0.004778504371643066,-0.01140624284744263,-0.1290454864501953,XArbitraryZVertical,-0.207136839575631,0.5473099698610158,-0.7498760277977856,-0.3085969132009253,-0.6484502553939819,0.6929856538772583,-0.3150922656059265,0,0,0,-1,-1,20309.90125491667,unknown,2,2025-04-21T16:43:17.691+03:00,2025-04-20T21:57:49.637+03:00,6805,0.9866872,0,0,5579.851,5,6,2025-04-21T16:43:20.270+03:00,766935800.3712647,0,-38.4,100.1934,1,0.3,2025-04-21T16:43:07.230+03:00,101,1.683333333333333,2025-04-21T12:30:07.995+03:00,0.02023345852159405,0
2025-04-21T16:43:20.727+03:00,1745242998.53616,40.95237388445845,29.14013565701957,78.28703,-1,-1,-1,-1,30,34.22672640375541,-9999,20312.9328015,-0.6389007568359375,0.721221923828125,-0.5010223388671875,20312.9252615,1.859540202995007,-1.128892678201887,-0.7682923092677854,-0.4997861981391907,-0.5680351257324219,0.0255587175488472,-0.0005677938461303711,0.006324529647827148,-0.1690170466899872,XArbitraryZVertical,-0.2081497523521535,0.5503712324205977,-0.7476996211722415,-0.3077507124876266,-0.6500212550163269,0.6949082612991333,-0.3075303733348846,0,0,0,-1,-1,20309.90125491667,unknown,2,2025-04-21T16:43:17.691+03:00,2025-04-20T21:57:49.637+03:00,6805,0.9866872,0,0,5579.851,5,6,2025-04-21T16:43:20.270+03:00,766935800.3712647,0,-38.4,100.1934,1,0.3,2025-04-21T16:43:07.230+03:00,101,1.683333333333333,2025-04-21T12:30:07.995+03:00,0.02023345852159405,0
2025-04-21T16:43:20.737+03:00,1745242998.53616,40.95237388445845,29.14013565701957,78.28703,-1,-1,-1,-1,30,34.22672640375541,-9999,20312.9428765,-0.6153717041015625,0.74884033203125,-0.4924468994140625,20312.9353375,1.854842308252084,-1.138028760463778,-0.7704457866303731,-0.2782681882381439,-0.5938875079154968,0.0791335329413414,0.01498430967330933,0.02823030948638916,-0.2018876075744629,XArbitraryZVertical,-0.2095878689961884,0.5528088207005587,-0.7460721933010236,-0.3063521158509586,-0.6514436602592468,0.696455180644989,-0.300950676202774,0,0,0,-1,-1,20309.90125491667,unknown,2,2025-04-21T16:43:17.691+03:00,2025-04-20T21:57:49.637+03:00,6805,0.9866872,0,0,5579.851,5,6,2025-04-21T16:43:20.270+03:00,766935800.3712647,0,-38.4,100.1934,1,0.3,2025-04-21T16:43:07.230+03:00,101,1.683333333333333,2025-04-21T12:30:07.995+03:00,0.02023345852159405,0
