loggingTime(txt),locationTimestamp_since1970(s),locationLatitude(WGS84),locationLongitude(WGS84),locationAltitude(m),locationSpeed(m/s),locationSpeedAccuracy(m/s),locationCourse(°),locationCourseAccuracy(°),locationVerticalAccuracy(m),locationHorizontalAccuracy(m),locationFloor(Z),accelerometerTimestamp_sinceReboot(s),accelerometerAccelerationX(G),accelerometerAccelerationY(G),accelerometerAccelerationZ(G),motionTimestamp_sinceReboot(s),motionYaw(rad),motionRoll(rad),motionPitch(rad),motionRotationRateX(rad/s),motionRotationRateY(rad/s),motionRotationRateZ(rad/s),motionUserAccelerationX(G),motionUserAccelerationY(G),motionUserAccelerationZ(G),motionAttitudeReferenceFrame(txt),motionQuaternionX(R),motionQuaternionY(R),motionQuaternionZ(R),motionQuaternionW(R),motionGravityX(G),motionGravityY(G),motionGravityZ(G),motionMagneticFieldX(µT),motionMagneticFieldY(µT),motionMagneticFieldZ(µT),motionHeading(°),motionMagneticFieldCalibrationAccuracy(Z),activityTimestamp_sinceReboot(s),activity(txt),activityActivityConfidence(Z),activityActivityStartDate(txt),pedometerStartDate(txt),pedometerNumberofSteps(N),pedometerAverageActivePace(s/m),pedometerCurrentPace(s/m),pedometerCurrentCadence(steps/s),pedometerDistance(m),pedometerFloorAscended(N),pedometerFloorDescended(N),pedometerEndDate(txt),altimeterTimestamp_sinceReboot(s),altimeterReset(bool),altimeterRelativeAltitude(m),altimeterPressure(kPa),batteryState(N),batteryLevel(R),heartRateBPMTimestamp(txt),heartRateBPM(N),heartRateBPS(R),heartRateVariabilityTimestamp(txt),heartRateVariability(ms),label
2025-04-21T16:22:46.629+03:00,1745241764.490131,40.95217467493313,29.1402139776233,75.61637,-1,-1,-1,-1,30,14.84804685185824,-9999,19755.33098004167,-0.6647491455078125,0.6601409912109375,-0.349456787109375,19755.32594204167,1.871807112941027,-1.07733437265013,-0.7230865969993094,-0.06084651872515678,0.0142368795350194,-0.008756023831665516,0.009134292602539062,-0.001500189304351807,0.01345759630203247,XArbitraryZVertical,-0.2062470068688373,0.5290446745756028,-0.754062160212859,-0.330097134002058,-0.6603183746337891,0.661702036857605,-0.3551478087902069,0,0,0,-1,-1,19753.483416,unknown,2,2025-04-21T16:22:44.754+03:00,2025-04-20T21:57:49.637+03:00,6753,0.9838091,0,0,5541.095,5,6,2025-04-21T16:22:11.224+03:00,766934564.8435568,0,-38.71,100.2005,1,0.35,2025-04-21T16:06:01.980+03:00,83,1.383333333333333,2025-04-21T12:30:07.995+03:00,0.02023345852159405,0
2025-04-21T16:22:46.631+03:00,1745241764.490131,40.95217467493313,29.1402139776233,75.61637,-1,-1,-1,-1,30,14.84804685185824,-9999,19755.34105504167,-0.650604248046875,0.6664886474609375,-0.3470306396484375,19755.33601704167,1.870992621729566,-1.077932282749816,-0.7232639415353441,-0.0621347576379776,-0.02253957837820053,-0.0149200763553381,-0.004245579242706299,-0.003983020782470703,0.006934225559234619,XArbitraryZVertical,-0.2062017088352209,0.5292751143226749,-0.753869638864848,-0.330195792534815,-0.6604272723197937,0.6618350148200989,-0.3546974062919617,0,0,0,-1,-1,19753.483416,unknown,2,2025-04-21T16:22:44.754+03:00,2025-04-20T21:57:49.637+03:00,6753,0.9838091,0,0,5541.095,5,6,2025-04-21T16:22:11.224+03:00,766934564.8435568,0,-38.71,100.2005,1,0.35,2025-04-21T16:06:01.980+03:00,83,1.383333333333333,2025-04-21T12:30:07.995+03:00,0.02023345852159405,0
2025-04-21T16:22:46.631+03:00,1745241764.490131,40.95217467493313,29.1402139776233,75.61637,-1,-1,-1,-1,30,14.84804685185824,-9999,19755.35113004167,-0.6490936279296875,0.66510009765625,-0.3456268310546875,19755.34609304167,1.870280423431998,-1.078628830171318,-0.7234282453926641,-0.04489637911319733,-0.02035551890730858,-0.006764945108443499,0.003702700138092041,0.00334012508392334,0.005247831344604492,XArbitraryZVertical,-0.2062245654435959,0.52950775957251,-0.7536835700180201,-0.3302332829673806,-0.6605783104896545,0.6619581580162048,-0.3541859090328217,0,0,0,-1,-1,19753.483416,unknown,2,2025-04-21T16:22:44.754+03:00,2025-04-20T21:57:49.637+03:00,6753,0.9838091,0,0,5541.095,5,6,2025-04-21T16:22:11.224+03:00,766934564.8435568,0,-38.71,100.2005,1,0.35,2025-04-21T16:06:01.980+03:00,83,1.383333333333333,2025-04-21T12:30:07.995+03:00,0.02023345852159405,0
2025-04-21T16:22:46.640+03:00,1745241764.490131,40.95217467493313,29.1402139776233,75.61637,-1,-1,-1,-1,30,14.84804685185824,-9999,19755.36120604167,-0.65850830078125,0.66778564453125,-0.349151611328125,19755.35616804167,1.86982833583694,-1.079089243234703,-0.7236165379888233,-0.0313287042081356,-0.01300313137471676,-0.001036918140016496,0.01413178443908691,0.003244757652282715,0.0081501305103302,XArbitraryZVertical,-0.2062197438989932,0.5296810243405751,-0.7535652809545487,-0.330228254102894,-0.6606313586235046,0.662099301815033,-0.3538228571414948,0,0,0,-1,-1,19753.483416,unknown,2,2025-04-21T16:22:44.754+03:00,2025-04-20T21:57:49.637+03:00,6753,0.9838091,0,0,5541.095,5,6,2025-04-21T16:22:11.224+03:00,766934564.8435568,0,-38.71,100.2005,1,0.35,2025-04-21T16:06:01.980+03:00,83,1.383333333333333,2025-04-21T12:30:07.995+03:00,0.02023345852159405,0
2025-04-21T16:22:46.647+03:00,1745241764.490131,40.95217467493313,29.1402139776233,75.61637,-1,-1,-1,-1,30,14.84804685185824,-9999,19755.37128104167,-0.6565093994140625,0.66986083984375,-0.3466644287109375,19755.36624404167,1.869524496772197,-1.079463530914441,-0.7237489122811107,-0.01986459828913212,-0.02133829332888126,0.002256080508232117,0.004375457763671875,0.004412055015563965,0.005206406116485596,XArbitraryZVertical,-0.2062390629290052,0.5298097258321743,-0.753479235407697,-0.3302060405825302,-0.6606864333152771,0.6621984839439392,-0.3535341918468475,0,0,0,-1,-1,19753.483416,unknown,2,2025-04-21T16:22:44.754+03:00,2025-04-20T21:57:49.637+03:00,6753,0.9838091,0,0,5541.095,5,6,2025-04-21T16:22:11.224+03:00,766934564.8435568,0,-38.71,100.2005,1,0.35,2025-04-21T16:06:01.980+03:00,83,1.383333333333333,2025-04-21T12:30:07.995+03:00,0.02023345852159405,0
2025-04-21T16:22:46.657+03:00,1745241764.490131,40.95217467493313,29.1402139776233,75.61637,-1,-1,-1,-1,30,14.84804685185824,-9999,19755.38135704167,-0.6539764404296875,0.66650390625,-0.3453369140625,19755.37631904167,1.86931627441037,-1.079785208904296,-0.7239077531907731,-0.02061507664620876,-0.01497972942888737,0.006652959622442722,0.001954913139343262,0.00804668664932251,0.00488319993019104,XArbitraryZVertical,-0.2062556415045159,0.5299269749562274,-0.7534149377902308,-0.3301541126034206,-0.6607072949409485,0.6623175144195557,-0.353272020816803,0,0,0,-1,-1,19753.483416,unknown,2,2025-04-21T16:22:44.754+03:00,2025-04-20T21:57:49.637+03:00,6753,0.9838091,0,0,5541.095,5,6,2025-04-21T16:22:11.224+03:00,766934564.8435568,0,-38.71,100.2005,1,0.35,2025-04-21T16:06:01.980+03:00,83,1.383333333333333,2025-04-21T12:30:07.995+03:00,0.02023345852159405,0
2025-04-21T16:22:46.668+03:00,1745241764.490131,40.95217467493313,29.1402139776233,75.61637,-1,-1,-1,-1,30,14.84804685185824,-9999,19755.39143204167,-0.661468505859375,0.6621856689453125,-0.351837158203125,19755.38639504167,1.868948876514121,-1.080130285452651,-0.7241269267626694,-0.04520350694656372,-0.007229131180793047,0.003611629363149405,0.006678998470306396,0.005288481712341309,0.008294671773910522,XArbitraryZVertical,-0.2062199808596469,0.5300806712251834,-0.7533232413069217,-0.330138920201298,-0.6607011556625366,0.6624816656112671,-0.352975606918335,0,0,0,-1,-1,19753.483416,unknown,2,2025-04-21T16:22:44.754+03:00,2025-04-20T21:57:49.637+03:00,6753,0.9838091,0,0,5541.095,5,6,2025-04-21T16:22:11.224+03:00,766934564.8435568,0,-38.71,100.2005,1,0.35,2025-04-21T16:06:01.980+03:00,83,1.383333333333333,2025-04-21T12:30:07.995+03:00,0.02023345852159405,0
2025-04-21T16:22:46.677+03:00,1745241764.490131,40.95217467493313,29.1402139776233,75.61637,-1,-1,-1,-1,30,14.84804685185824,-9999,19755.40150804167,-0.66046142578125,0.6563568115234375,-0.349578857421875,19755.39647004167,1.868392347927693,-1.080583091932622,-0.724379097018648,-0.04621930420398712,-0.009843889623880386,0.001303434604778886,0.001976370811462402,0.001727402210235596,0.002896696329116821,XArbitraryZVertical,-0.2061644213121908,0.5302804618358884,-0.7531899201036397,-0.3301569377356957,-0.6607134938240051,0.6626705527305603,-0.352597713470459,0,0,0,-1,-1,19753.483416,unknown,2,2025-04-21T16:22:44.754+03:00,2025-04-20T21:57:49.637+03:00,6753,0.9838091,0,0,5541.095,5,6,2025-04-21T16:22:11.224+03:00,766934564.8435568,0,-38.71,100.2005,1,0.35,2025-04-21T16:06:01.980+03:00,83,1.383333333333333,2025-04-21T12:30:07.995+03:00,0.02023345852159405,0
2025-04-21T16:22:46.687+03:00,1745241764.490131,40.95217467493313,29.1402139776233,75.61637,-1,-1,-1,-1,30,14.84804685185824,-9999,19755.41158304167,-0.6561279296875,0.6619873046875,-0.3458709716796875,19755.40654504167,1.867832357516377,-1.081091599978606,-0.7245980833399458,-0.04283176362514496,-0.01531828287988901,-0.002328318310901523,-0.001420974731445312,-0.006020128726959229,0.001775264739990234,XArbitraryZVertical,-0.2061391055051726,0.5304808473286059,-0.7530496582631057,-0.3301709458159506,-0.6607646942138672,0.6628345251083374,-0.3521934747695923,0,0,0,-1,-1,19753.483416,unknown,2,2025-04-21T16:22:44.754+03:00,2025-04-20T21:57:49.637+03:00,6753,0.9838091,0,0,5541.095,5,6,2025-04-21T16:22:11.224+03:00,766934564.8435568,0,-38.71,100.2005,1,0.35,2025-04-21T16:06:01.980+03:00,83,1.383333333333333,2025-04-21T12:30:07.995+03:00,0.02023345852159405,0
2025-04-21T16:22:46.697+03:00,1745241764.490131,40.95217467493313,29.1402139776233,75.61637,-1,-1,-1,-1,30,14.84804685185824,-9999,19755.42165904167,-0.6581268310546875,0.666778564453125,-0.34326171875,19755.41662104167,1.867358607109266,-1.081585828908399,-0.7247098918738781,-0.02458245493471622,-0.01866321265697479,-0.006268464960157871,0.004302859306335449,-0.003235280513763428,0.004145175218582153,XArbitraryZVertical,-0.2061646669201903,0.5306412358610465,-0.7529228365806703,-0.3301864040529418,-0.6608732342720032,0.6629182696342468,-0.3518320322036743,0,0,0,-1,-1,19753.483416,unknown,2,2025-04-21T16:22:44.754+03:00,2025-04-20T21:57:49.637+03:00,6753,0.9838091,0,0,5541.095,5,6,2025-04-21T16:22:11.224+03:00,766934564.8435568,0,-38.71,100.2005,1,0.35,2025-04-21T16:06:01.980+03:00,83,1.383333333333333,2025-04-21T12:30:07.995+03:00,0.02023345852159405,0
2025-04-21T16:22:46.707+03:00,1745241764.490131,40.95217467493313,29.1402139776233,75.61637,-1,-1,-1,-1,30,14.84804685185824,-9999,19755.43173404167,-0.6586151123046875,0.6724853515625,-0.3482666015625,19755.42669604167,1.867105548841854,-1.08197611689438,-0.7247301027895091,-0.009375271387398243,-0.02407315745949745,-0.01259720139205456,0.003573834896087646,0.001479864120483398,0.007680326700210571,XArbitraryZVertical,-0.206238135539207,0.53073717221112,-0.7528412482464963,-0.3301723744581347,-0.6609986424446106,0.6629334092140198,-0.3515677750110626,0,0,0,-1,-1,19753.483416,unknown,2,2025-04-21T16:22:44.754+03:00,2025-04-20T21:57:49.637+03:00,6753,0.9838091,0,0,5541.095,5,6,2025-04-21T16:22:11.224+03:00,766934564.8435568,0,-38.71,100.2005,1,0.35,2025-04-21T16:06:01.980+03:00,83,1.383333333333333,2025-04-21T12:30:07.995+03:00,0.02023345852159405,0
2025-04-21T16:22:46.718+03:00,1745241764.490131,40.95217467493313,29.1402139776233,75.61637,-1,-1,-1,-1,30,14.84804685185824,-9999,19755.44181004167,-0.659210205078125,0.67376708984375,-0.3485870361328125,19755.43677204167,1.866926466855163,-1.082387319613419,-0.7246577331201979,-0.007658464834094048,-0.03464231267571449,-0.0181271880865097,0.002188920974731445,0.007088184356689453,0.006423860788345337,XArbitraryZVertical,-0.2063680039366419,0.530804152691541,-0.7527677021084246,-0.3301510522911579,-0.6611854434013367,0.6628792285919189,-0.3513183891773224,0,0,0,-1,-1,19753.483416,unknown,2,2025-04-21T16:22:44.754+03:00,2025-04-20T21:57:49.637+03:00,6753,0.9838091,0,0,5541.095,5,6,2025-04-21T16:22:11.224+03:00,766934564.8435568,0,-38.71,100.2005,1,0.35,2025-04-21T16:06:01.980+03:00,83,1.383333333333333,2025-04-21T12:30:07.995+03:00,0.02023345852159405,0
2025-04-21T16:22:46.727+03:00,1745241764.490131,40.95217467493313,29.1402139776233,75.61637,-1,-1,-1,-1,30,14.84804685185824,-9999,19755.45188504167,-0.657867431640625,0.6647796630859375,-0.34417724609375,19755.44684704167,1.866638217009011,-1.082941752036313,-0.7245587435332989,-0.02299081534147263,-0.03068245947360992,-0.02501438930630684,0.002380669116973877,0.01103818416595459,0.001800328493118286,XArbitraryZVertical,-0.2065309021948919,0.530898921512162,-0.7526608627975239,-0.3301408682498166,-0.6614382863044739,0.6628050804138184,-0.3509826362133026,0,0,0,-1,-1,19753.483416,unknown,2,2025-04-21T16:22:44.754+03:00,2025-04-20T21:57:49.637+03:00,6753,0.9838091,0,0,5541.095,5,6,2025-04-21T16:22:11.224+03:00,766934564.8435568,0,-38.71,100.2005,1,0.35,2025-04-21T16:06:01.980+03:00,83,1.383333333333333,2025-04-21T12:30:07.995+03:00,0.02023345852159405,0
2025-04-21T16:22:46.737+03:00,1745241764.490131,40.95217467493313,29.1402139776233,75.61637,-1,-1,-1,-1,30,14.84804685185824,-9999,19755.46196004167,-0.661285400390625,0.6590423583984375,-0.3485565185546875,19755.45692304167,1.866299265188542,-1.083486228678925,-0.7244450227353753,-0.01432322524487972,-0.03440655767917633,-0.0214045736938715,0.00334012508392334,0.006209909915924072,0.005213767290115356,XArbitraryZVertical,-0.2066813763469665,0.5309933969701787,-0.7525461550644693,-0.330155867260707,-0.6616957187652588,0.6627199649810791,-0.3506576418876648,0,0,0,-1,-1,19753.483416,unknown,2,2025-04-21T16:22:44.754+03:00,2025-04-20T21:57:49.637+03:00,6753,0.9838091,0,0,5541.095,5,6,2025-04-21T16:22:11.224+03:00,766934564.8435568,0,-38.71,100.2005,1,0.35,2025-04-21T16:06:01.980+03:00,83,1.383333333333333,2025-04-21T12:30:07.995+03:00,0.02023345852159405,0
2025-04-21T16:22:46.747+03:00,1745241764.490131,40.95217467493313,29.1402139776233,75.61637,-1,-1,-1,-1,30,14.84804685185824,-9999,19755.47203604167,-0.655181884765625,0.6667938232421875,-0.34942626953125,19755.46699804167,1.866027034068682,-1.084078747030557,-0.7243563347894332,-0.007302066776901484,-0.04529009759426117,-0.01773447170853615,0.002302765846252441,-0.003000974655151367,0.00382685661315918,XArbitraryZVertical,-0.2068596000601912,0.5310956225903547,-0.7524381010488885,-0.3301264266834744,-0.6619554758071899,0.6626535058021545,-0.3502930998802185,0,0,0,-1,-1,19753.483416,unknown,2,2025-04-21T16:22:44.754+03:00,2025-04-20T21:57:49.637+03:00,6753,0.9838091,0,0,5541.095,5,6,2025-04-21T16:22:11.224+03:00,766934564.8435568,0,-38.71,100.2005,1,0.35,2025-04-21T16:06:01.980+03:00,83,1.383333333333333,2025-04-21T12:30:07.995+03:00,0.02023345852159405,0
2025-04-21T16:22:46.758+03:00,1745241766.564504,40.95219089591637,29.14024283873915,75.61634,-1,-1,-1,-1,30.00193829710236,18.60218947907108,-9999,19755.48211104167,-0.656219482421875,0.66912841796875,-0.3436431884765625,19755.47707404167,1.865856159107643,-1.084632871924715,-0.7242313100250918,-0.005681200418621302,-0.04235576093196869,-0.01863432116806507,0.004034817218780518,0.0006479024887084961,-0.0004228055477142334,XArbitraryZVertical,-0.2070617465814831,0.5311713450330403,-0.7523497918373385,-0.3300788803048278,-0.6622226238250732,0.6625598669052124,-0.3499648571014404,0,0,0,-1,-1,19753.483416,unknown,2,2025-04-21T16:22:44.754+03:00,2025-04-20T21:57:49.637+03:00,6753,0.9838091,0,0,5541.095,5,6,2025-04-21T16:22:11.224+03:00,766934564.8435568,0,-38.71,100.2005,1,0.35,2025-04-21T16:06:01.980+03:00,83,1.383333333333333,2025-04-21T12:30:07.995+03:00,0.02023345852159405,0
2025-04-21T16:22:46.768+03:00,1745241766.564504,40.95219089591637,29.14024283873915,75.61634,-1,-1,-1,-1,30.00193829710236,18.60218947907108,-9999,19755.49218691667,-0.6590728759765625,0.66766357421875,-0.344573974609375,19755.48714891667,1.865637912891457,-1.085148185526312,-0.7241134784066132,-0.01544514764100313,-0.02809000387787819,-0.01716958358883858,0.007824122905731201,0.00664132833480835,0.004734963178634644,XArbitraryZVertical,-0.2072343702921989,0.5312475031771451,-0.7522578217392026,-0.3300576000780683,-0.6624718904495239,0.6624715924263,-0.3496600091457367,0,0,0,-1,-1,19753.483416,unknown,2,2025-04-21T16:22:44.754+03:00,2025-04-20T21:57:49.637+03:00,6753,0.9838091,0,0,5541.095,5,6,2025-04-21T16:22:11.224+03:00,766934564.8435568,0,-38.71,100.2005,1,0.35,2025-04-21T16:06:01.980+03:00,83,1.383333333333333,2025-04-21T12:30:07.995+03:00,0.02023345852159405,0
2025-04-21T16:22:46.778+03:00,1745241766.564504,40.95219089591637,29.14024283873915,75.61634,-1,-1,-1,-1,30.00193829710236,18.60218947907108,-9999,19755.50226191667,-0.660003662109375,0.664764404296875,-0.34710693359375,19755.49722391667,1.865408368770465,-1.085572612659855,-0.7240503312085635,-0.01106597855687141,-0.02950374409556389,-0.01096408441662788,0.003157198429107666,0.005681514739990234,0.005236238241195679,XArbitraryZVertical,-0.2073527345447299,0.5313244668739986,-0.7521745525577139,-0.3300491053827597,-0.6626572012901306,0.6624243259429932,-0.3493983149528503,0,0,0,-1,-1,19753.483416,unknown,2,2025-04-21T16:22:44.754+03:00,2025-04-20T21:57:49.637+03:00,6753,0.9838091,0,0,5541.095,5,6,2025-04-21T16:22:11.224+03:00,766934564.8435568,0,-38.71,100.2005,1,0.35,2025-04-21T16:06:01.980+03:00,83,1.383333333333333,2025-04-21T12:30:07.995+03:00,0.02023345852159405,0
2025-04-21T16:22:46.788+03:00,1745241766.564504,40.95219089591637,29.14024283873915,75.61634,-1,-1,-1,-1,30.00193829710236,18.60218947907108,-9999,19755.51233791667,-0.6571197509765625,0.671295166015625,-0.3485870361328125,19755.50729991667,1.86522287938448,-1.086000486985754,-0.7240232635758304,-0.009218011051416397,-0.02328259870409966,-0.004293398465961218,0.0025443434715271,0.002406060695648193,0.0032062828540802,XArbitraryZVertical,-0.2074727243867047,0.531407073353856,-0.7520990272049246,-0.3300131292748005,-0.6628226637840271,0.6624040603637695,-0.3491231799125671,0,0,0,-1,-1,19753.483416,unknown,2,2025-04-21T16:22:44.754+03:00,2025-04-20T21:57:49.637+03:00,6753,0.9838091,0,0,5541.095,5,6,2025-04-21T16:22:11.224+03:00,766934564.8435568,0,-38.71,100.2005,1,0.35,2025-04-21T16:06:01.980+03:00,83,1.383333333333333,2025-04-21T12:30:07.995+03:00,0.02023345852159405,0
2025-04-21T16:22:46.798+03:00,1745241766.564504,40.95219089591637,29.14024283873915,75.61634,-1,-1,-1,-1,30.00193829710236,18.60218947907108,-9999,19755.52241291667,-0.6601409912109375,0.669097900390625,-0.3464508056640625,19755.51737491667,1.865071832681808,-1.086242360320346,-0.7240812623424563,-0.01055059116333723,-0.005813261028379202,0.00127077754586935,0.00412064790725708,0.006512939929962158,0.0004951357841491699,XArbitraryZVertical,-0.2075054627121233,0.5314781398441009,-0.7520502874911595,-0.3299891136717893,-0.6628730893135071,0.6624475121498108,-0.3489449322223663,0,0,0,-1,-1,19753.483416,unknown,2,2025-04-21T16:22:44.754+03:00,2025-04-20T21:57:49.637+03:00,6753,0.9838091,0,0,5541.095,5,6,2025-04-21T16:22:11.224+03:00,766934564.8435568,0,-38.71,100.2005,1,0.35,2025-04-21T16:06:01.980+03:00,83,1.383333333333333,2025-04-21T12:30:07.995+03:00,0.02023345852159405,0
2025-04-21T16:22:46.813+03:00,1745241766.564504,40.95219089591637,29.14024283873915,75.61634,-1,-1,-1,-1,30.00193829710236,18.60218947907108,-9999,19755.53248891667,-0.661163330078125,0.6716156005859375,-0.3414459228515625,19755.52745091667,1.865008440540158,-1.086360002062836,-0.7241803589226883,-0.006639206316322088,-0.009394681081175804,0.004629289731383324,0.004393517971038818,0.007018506526947021,0.001088410615921021,XArbitraryZVertical,-0.2075019885852986,0.5315305841406931,-0.7520297879275305,-0.3299533338493617,-0.6628559231758118,0.6625217199325562,-0.3488363325595856,0,0,0,-1,-1,19753.483416,unknown,2,2025-04-21T16:22:44.754+03:00,2025-04-20T21:57:49.637+03:00,6753,0.9838091,0,0,5541.095,5,6,2025-04-21T16:22:11.224+03:00,766934564.8435568,0,-38.71,100.2005,1,0.35,2025-04-21T16:06:01.980+03:00,83,1.383333333333333,2025-04-21T12:30:07.995+03:00,0.02023345852159405,0
2025-04-21T16:22:46.818+03:00,1745241766.564504,40.95219089591637,29.14024283873915,75.61634,-1,-1,-1,-1,30.00193829710236,18.60218947907108,-9999,19755.54256391667,-0.6573028564453125,0.67156982421875,-0.3441314697265625,19755.53752591667,1.864977485608579,-1.086530550973399,-0.7242784860906043,-0.004057871177792549,-0.01735307089984417,0.004727527499198914,7.718801498413086e-05,0.007601141929626465,0.005904197692871094,XArbitraryZVertical,-0.2075272509485398,0.5315881189459165,-0.7520091811345694,-0.3298917951139952,-0.6628578901290894,0.6625952124595642,-0.3486930131912231,0,0,0,-1,-1,19753.483416,unknown,2,2025-04-21T16:22:44.754+03:00,2025-04-20T21:57:49.637+03:00,6753,0.9838091,0,0,5541.095,5,6,2025-04-21T16:22:11.224+03:00,766934564.8435568,0,-38.71,100.2005,1,0.35,2025-04-21T16:06:01.980+03:00,83,1.383333333333333,2025-04-21T12:30:07.995+03:00,0.02023345852159405,0
2025-04-21T16:22:46.828+03:00,1745241766.564504,40.95219089591637,29.14024283873915,75.61634,-1,-1,-1,-1,30.00193829710236,18.60218947907108,-9999,19755.55263991667,-0.657958984375,0.6644287109375,-0.3466339111328125,19755.54760191667,1.864971528548863,-1.086740571417967,-0.7243598669559769,-0.003137215971946716,-0.02121092565357685,0.009646118618547916,0.005214393138885498,0.00895923376083374,0.006518155336380005,XArbitraryZVertical,-0.207579236891207,0.5316450923317934,-0.7519882173678809,-0.3298150743411384,-0.6628834009170532,0.6626561880111694,-0.3485287129878998,0,0,0,-1,-1,19753.483416,unknown,2,2025-04-21T16:22:44.754+03:00,2025-04-20T21:57:49.637+03:00,6753,0.9838091,0,0,5541.095,5,6,2025-04-21T16:22:11.224+03:00,766934564.8435568,0,-38.71,100.2005,1,0.35,2025-04-21T16:06:01.980+03:00,83,1.383333333333333,2025-04-21T12:30:07.995+03:00,0.02023345852159405,0
2025-04-21T16:22:46.838+03:00,1745241766.564504,40.95219089591637,29.14024283873915,75.61634,-1,-1,-1,-1,30.00193829710236,18.60218947907108,-9999,19755.56271491667,-0.66143798828125,0.666107177734375,-0.345947265625,19755.55767691667,1.865012678026498,-1.086917079788642,-0.7244903624783261,0.0001939990470418707,-0.02266514673829079,0.01238564681261778,0.0056723952293396,0.004375457763671875,0.002988696098327637,XArbitraryZVertical,-0.2076158071594094,0.5317047424029587,-0.7519795958419665,-0.3297156013811772,-0.6628683805465698,0.6627538800239563,-0.3483714759349823,0,0,0,-1,-1,19753.483416,unknown,2,2025-04-21T16:22:44.754+03:00,2025-04-20T21:57:49.637+03:00,6753,0.9838091,0,0,5541.095,5,6,2025-04-21T16:22:11.224+03:00,766934564.8435568,0,-38.71,100.2005,1,0.35,2025-04-21T16:06:01.980+03:00,83,1.383333333333333,2025-04-21T12:30:07.995+03:00,0.02023345852159405,0
2025-04-21T16:22:46.848+03:00,1745241766.564504,40.95219089591637,29.14024283873915,75.61634,-1,-1,-1,-1,30.00193829710236,18.60218947907108,-9999,19755.57278991667,-0.6615447998046875,0.6659698486328125,-0.343414306640625,19755.56775291667,1.86513002929135,-1.087054322944173,-0.7245966367379493,0.007893198169767857,-0.02158603072166443,0.01150334160774946,0.002773880958557129,0.001717150211334229,0.00153738260269165,XArbitraryZVertical,-0.2076654648893629,0.5317435359533617,-0.7519870437312757,-0.3296047028478126,-0.6628538370132446,0.6628334522247314,-0.3482477366924286,0,0,0,-1,-1,19753.483416,unknown,2,2025-04-21T16:22:44.754+03:00,2025-04-20T21:57:49.637+03:00,6753,0.9838091,0,0,5541.095,5,6,2025-04-21T16:22:11.224+03:00,766934564.8435568,0,-38.71,100.2005,1,0.35,2025-04-21T16:06:01.980+03:00,83,1.383333333333333,2025-04-21T12:30:07.995+03:00,0.02023345852159405,0
2025-04-21T16:22:46.858+03:00,1745241766.564504,40.95219089591637,29.14024283873915,75.61634,-1,-1,-1,-1,30.00193829710236,18.60218947907108,-9999,19755.58286591667,-0.659698486328125,0.666015625,-0.341766357421875,19755.57782791667,1.865313019197521,-1.087208204508439,-0.7246228769106103,0.01472820062190294,-0.03142481669783592,0.003875515423715115,0.001331925392150879,0.00349801778793335,0.003990769386291504,XArbitraryZVertical,-0.2077637929978332,0.5317568876430773,-0.7520017948416521,-0.3294875078546071,-0.6628919839859009,0.6628531217575073,-0.3481376469135284,0,0,0,-1,-1,19753.483416,unknown,2,2025-04-21T16:22:44.754+03:00,2025-04-20T21:57:49.637+03:00,6753,0.9838091,0,0,5541.095,5,6,2025-04-21T16:22:11.224+03:00,766934564.8435568,0,-38.71,100.2005,1,0.35,2025-04-21T16:06:01.980+03:00,83,1.383333333333333,2025-04-21T12:30:07.995+03:00,0.02023345852159405,0
2025-04-21T16:22:46.869+03:00,1745241766.564504,40.95219089591637,29.14024283873915,75.61634,-1,-1,-1,-1,30.00193829710236,18.60218947907108,-9999,19755.59294091667,-0.6597442626953125,0.6661224365234375,-0.3422088623046875,19755.58790391667,1.865537874075823,-1.087418821237194,-0.7245648322572698,0.02021005190908909,-0.03707630932331085,0.000244028982706368,0.003682374954223633,0.002397060394287109,0.005501717329025269,XArbitraryZVertical,-0.2079209038127797,0.53175272738966,-0.75201563587342,-0.3293634051187272,-0.6629993319511414,0.6628096699714661,-0.3480158746242523,0,0,0,-1,-1,19753.483416,unknown,2,2025-04-21T16:22:44.754+03:00,2025-04-20T21:57:49.637+03:00,6753,0.9838091,0,0,5541.095,5,6,2025-04-21T16:22:11.224+03:00,766934564.8435568,0,-38.71,100.2005,1,0.35,2025-04-21T16:06:01.980+03:00,83,1.383333333333333,2025-04-21T12:30:07.995+03:00,0.02023345852159405,0
2025-04-21T16:22:46.878+03:00,1745241766.564504,40.95219089591637,29.14024283873915,75.61634,-1,-1,-1,-1,30.00193829710236,18.60218947907108,-9999,19755.60301691667,-0.6584625244140625,0.6624908447265625,-0.3430023193359375,19755.59797891667,1.865776806825195,-1.087654249169811,-0.7244558695727517,0.02049673907458782,-0.04280676692724228,-0.007151369471102953,0.003172159194946289,0.003607809543609619,0.005760669708251953,XArbitraryZVertical,-0.2081068926572489,0.5317375632465624,-0.7520280984300852,-0.3292421316547086,-0.6631453037261963,0.6627280712127686,-0.3478933572769165,0,0,0,-1,-1,19753.483416,unknown,2,2025-04-21T16:22:44.754+03:00,2025-04-20T21:57:49.637+03:00,6753,0.9838091,0,0,5541.095,5,6,2025-04-21T16:22:11.224+03:00,766934564.8435568,0,-38.71,100.2005,1,0.35,2025-04-21T16:06:01.980+03:00,83,1.383333333333333,2025-04-21T12:30:07.995+03:00,0.02023345852159405,0
2025-04-21T16:22:46.889+03:00,1745241766.564504,40.95219089591637,29.14024283873915,75.61634,-1,-1,-1,-1,30.00193829710236,18.60218947907108,-9999,19755.61309191667,-0.65777587890625,0.66314697265625,-0.338897705078125,19755.60805391667,1.865841821139613,-1.087981703903949,-0.7243639143908471,-0.01548176724463701,-0.02075179666280746,-0.01039616577327251,0.004240334033966064,0.001433670520782471,0.00505298376083374,XArbitraryZVertical,-0.2082759518311624,0.5317601569582776,-0.7520026851779469,-0.329156899225043,-0.6633132100105286,0.662659227848053,-0.3477045297622681,0,0,0,-1,-1,19753.483416,unknown,2,2025-04-21T16:22:44.754+03:00,2025-04-20T21:57:49.637+03:00,6753,0.9838091,0,0,5541.095,5,6,2025-04-21T16:22:11.224+03:00,766934564.8435568,0,-38.71,100.2005,1,0.35,2025-04-21T16:06:01.980+03:00,83,1.383333333333333,2025-04-21T12:30:07.995+03:00,0.02023345852159405,0
2025-04-21T16:22:46.899+03:00,1745241766.564504,40.95219089591637,29.14024283873915,75.61634,-1,-1,-1,-1,30.00193829710236,18.60218947907108,-9999,19755.62316791667,-0.6635284423828125,0.6580047607421875,-0.3364105224609375,19755.61812991667,1.86575586607259,-1.088246547299847,-0.7243310915178499,0.002301424974575639,-0.02185441367328167,-0.002258776454254985,0.006197810173034668,0.0009851455688476562,0.006413251161575317,XArbitraryZVertical,-0.2083630231384154,0.5318039477934317,-0.7519601465530876,-0.3291278131848145,-0.6634243130683899,0.6626346111297607,-0.3475388288497925,0,0,0,-1,-1,19753.483416,unknown,2,2025-04-21T16:22:44.754+03:00,2025-04-20T21:57:49.637+03:00,6753,0.9838091,0,0,5541.095,5,6,2025-04-21T16:22:11.224+03:00,766934564.8435568,0,-38.71,100.2005,1,0.35,2025-04-21T16:06:01.980+03:00,83,1.383333333333333,2025-04-21T12:30:07.995+03:00,0.02023345852159405,0
2025-04-21T16:22:46.909+03:00,1745241766.564504,40.95219089591637,29.14024283873915,75.61634,-1,-1,-1,-1,30.00193829710236,18.60218947907108,-9999,19755.63324291667,-0.6596832275390625,0.6671905517578125,-0.3474273681640625,19755.62820491667,1.865851226616471,-1.088458303043993,-0.7242884374115147,0.01435649022459984,-0.03194912523031235,-0.003152000717818737,0.002741158008575439,-0.002797544002532959,0.01231306791305542,XArbitraryZVertical,-0.2084812457853407,0.5318174711314941,-0.7519528504594187,-0.3290479571045867,-0.6635230183601379,0.6626026630401611,-0.3474114835262299,0,0,0,-1,-1,19753.483416,unknown,2,2025-04-21T16:22:44.754+03:00,2025-04-20T21:57:49.637+03:00,6753,0.9838091,0,0,5541.095,5,6,2025-04-21T16:22:11.224+03:00,766934564.8435568,0,-38.71,100.2005,1,0.35,2025-04-21T16:06:01.980+03:00,83,1.383333333333333,2025-04-21T12:30:07.995+03:00,0.02023345852159405,0
2025-04-21T16:22:46.919+03:00,1745241766.564504,40.95219089591637,29.14024283873915,75.61634,-1,-1,-1,-1,30.00193829710236,18.60218947907108,-9999,19755.64331891667,-0.6572113037109375,0.66796875,-0.346466064453125,19755.63828091667,1.865965325676933,-1.088680310566842,-0.7241964479947289,0.01289734430611134,-0.02894294820725918,-0.006144328508526087,0.0001714825630187988,-5.835294723510742e-05,0.003252387046813965,XArbitraryZVertical,-0.2086237385716846,0.53181755654791,-0.7519464106888271,-0.3289722351109935,-0.6636541485786438,0.6625337600708008,-0.3472924530506134,0,0,0,-1,-1,19753.483416,unknown,2,2025-04-21T16:22:44.754+03:00,2025-04-20T21:57:49.637+03:00,6753,0.9838091,0,0,5541.095,5,6,2025-04-21T16:22:11.224+03:00,766934564.8435568,0,-38.71,100.2005,1,0.35,2025-04-21T16:06:01.980+03:00,83,1.383333333333333,2025-04-21T12:30:07.995+03:00,0.02023345852159405,0
2025-04-21T16:22:46.929+03:00,1745241766.564504,40.95219089591637,29.14024283873915,75.61634,-1,-1,-1,-1,30.00193829710236,18.60218947907108,-9999,19755.65339391667,-0.6635894775390625,0.6648101806640625,-0.3464202880859375,19755.64835591667,1.866077246194203,-1.088869154615497,-0.7240926565278208,0.01000701542943716,-0.02051910385489464,-0.002859585685655475,0.007515430450439453,0.007328331470489502,-0.00134238600730896,XArbitraryZVertical,-0.2087568900328291,0.5318092532814563,-0.7519427662854365,-0.3289094275022032,-0.6637806296348572,0.6624560356140137,-0.3471989631652832,0,0,0,-1,-1,19753.483416,unknown,2,2025-04-21T16:22:44.754+03:00,2025-04-20T21:57:49.637+03:00,6753,0.9838091,0,0,5541.095,5,6,2025-04-21T16:22:11.224+03:00,766934564.8435568,0,-38.71,100.2005,1,0.35,2025-04-21T16:06:01.980+03:00,83,1.383333333333333,2025-04-21T12:30:07.995+03:00,0.02023345852159405,0
2025-04-21T16:22:46.940+03:00,1745241766.564504,40.95219089591637,29.14024283873915,75.61634,-1,-1,-1,-1,30.00193829710236,18.60218947907108,-9999,19755.66346991667,-0.665313720703125,0.66632080078125,-0.3475189208984375,19755.65843191667,1.866166486595793,-1.08897658085024,-0.7240181354142322,0.01167142391204834,-0.01359415333718061,-0.003237121971324086,0.002011775970458984,0.002074122428894043,0.00172191858291626,XArbitraryZVertical,-0.2088442242575797,0.5317977217984835,-0.7519445650183703,-0.3288685996065512,-0.6638616919517517,0.6624001860618591,-0.3471505343914032,0,0,0,-1,-1,19753.483416,unknown,2,2025-04-21T16:22:44.754+03:00,2025-04-20T21:57:49.637+03:00,6753,0.9838091,0,0,5541.095,5,6,2025-04-21T16:22:11.224+03:00,766934564.8435568,0,-38.71,100.2005,1,0.35,2025-04-21T16:06:01.980+03:00,83,1.383333333333333,2025-04-21T12:30:07.995+03:00,0.02023345852159405,0
2025-04-21T16:22:46.949+03:00,1745241766.564504,40.95219089591637,29.14024283873915,75.61634,-1,-1,-1,-1,30.00193829710236,18.60218947907108,-9999,19755.67354491667,-0.6608734130859375,0.6652069091796875,-0.345855712890625,19755.66850691667,1.866268332329256,-1.089038133370885,-0.7239467059318563,0.01076035667210817,-0.01010700967162848,-0.004580154083669186,-0.0008546113967895508,0.003851950168609619,-0.0007536709308624268,XArbitraryZVertical,-0.2089166791114597,0.531778147836888,-0.7519533020670762,-0.3288344044456829,-0.6639250516891479,0.6623466610908508,-0.3471316397190094,0,0,0,-1,-1,19753.483416,unknown,2,2025-04-21T16:22:44.754+03:00,2025-04-20T21:57:49.637+03:00,6753,0.9838091,0,0,5541.095,5,6,2025-04-21T16:22:11.224+03:00,766934564.8435568,0,-38.71,100.2005,1,0.35,2025-04-21T16:06:01.980+03:00,83,1.383333333333333,2025-04-21T12:30:07.995+03:00,0.02023345852159405,0
2025-04-21T16:22:46.959+03:00,1745241766.564504,40.95219089591637,29.14024283873915,75.61634,-1,-1,-1,-1,30.00193829710236,18.60218947907108,-9999,19755.68361991667,-0.662506103515625,0.6661376953125,-0.34490966796875,19755.67858291667,1.866395646890029,-1.089034373462931,-0.7238891262960115,0.01257064007222652,-0.002844968810677528,0.001478071208111942,0.001146197319030762,0.003818750381469727,0.000700831413269043,XArbitraryZVertical,-0.208967139206128,0.5317488728546419,-0.7519732841607289,-0.3288037241631936,-0.663957417011261,0.6623035669326782,-0.3471517562866211,0,0,0,-1,-1,19753.483416,unknown,2,2025-04-21T16:22:44.754+03:00,2025-04-20T21:57:49.637+03:00,6753,0.9838091,0,0,5541.095,5,6,2025-04-21T16:22:11.224+03:00,766934564.8435568,0,-38.71,100.2005,1,0.35,2025-04-21T16:06:01.980+03:00,83,1.383333333333333,2025-04-21T12:30:07.995+03:00,0.02023345852159405,0
2025-04-21T16:22:46.979+03:00,1745241766.564504,40.95219089591637,29.14024283873915,75.61634,-1,-1,-1,-1,30.00193829710236,18.60218947907108,-9999,19755.69369591667,-0.6650238037109375,0.6670684814453125,-0.344451904296875,19755.68865791667,1.866625116802761,-1.088892642437223,-0.7238752053992399,0.01884478330612183,0.003693091683089733,0.009656905196607113,0.003271937370300293,0.003371357917785645,0.00163838267326355,XArbitraryZVertical,-0.2089792091581187,0.5316978835744083,-0.7520254940880696,-0.3287590485904344,-0.6639163494110107,0.6622931361198425,-0.3472501039505005,0,0,0,-1,-1,19753.483416,unknown,2,2025-04-21T16:22:44.754+03:00,2025-04-20T21:57:49.637+03:00,6753,0.9838091,0,0,5541.095,5,6,2025-04-21T16:22:11.224+03:00,766934564.8435568,0,-38.71,100.2005,1,0.35,2025-04-21T16:06:01.980+03:00,83,1.383333333333333,2025-04-21T12:30:07.995+03:00,0.02023345852159405,0
2025-04-21T16:22:46.980+03:00,1745241766.564504,40.95219089591637,29.14024283873915,75.61634,-1,-1,-1,-1,30.00193829710236,18.60218947907108,-9999,19755.70377091667,-0.6641845703125,0.666656494140625,-0.34271240234375,19755.69873391667,1.866886276131074,-1.088620300634304,-0.7239013837096876,0.0126869548112154,0.01425192691385746,0.007879079319536686,-0.001064717769622803,0.004358828067779541,0.002497822046279907,XArbitraryZVertical,-0.2089380566674401,0.5316328190190061,-0.7520974667067813,-0.3287258099683769,-0.6638064384460449,0.6623127460479736,-0.347422868013382,0,0,0,-1,-1,19753.483416,unknown,2,2025-04-21T16:22:44.754+03:00,2025-04-20T21:57:49.637+03:00,6753,0.9838091,0,0,5541.095,5,6,2025-04-21T16:22:11.224+03:00,766934564.8435568,0,-38.71,100.2005,1,0.35,2025-04-21T16:06:01.980+03:00,83,1.383333333333333,2025-04-21T12:30:07.995+03:00,0.02023345852159405,0
2025-04-21T16:22:46.989+03:00,1745241766.564504,40.95219089591637,29.14024283873915,75.61634,-1,-1,-1,-1,30.00193829710236,18.60218947907108,-9999,19755.71384691667,-0.66278076171875,0.6629791259765625,-0.345550537109375,19755.70880891667,1.866994789528959,-1.088455521603825,-0.7239114442454403,0.005501745734363794,0.005289856810122728,0.0006185026722960174,-0.0008990168571472168,0.005602538585662842,0.004465699195861816,XArbitraryZVertical,-0.2089017713227424,0.5315970838029908,-0.7521327575963176,-0.3287260172408015,-0.6637433171272278,0.6623202562332153,-0.3475291728973389,0,0,0,-1,-1,19753.483416,unknown,2,2025-04-21T16:22:44.754+03:00,2025-04-20T21:57:49.637+03:00,6753,0.9838091,0,0,5541.095,5,6,2025-04-21T16:22:11.224+03:00,766934564.8435568,0,-38.71,100.2005,1,0.35,2025-04-21T16:06:01.980+03:00,83,1.383333333333333,2025-04-21T12:30:07.995+03:00,0.02023345852159405,0
2025-04-21T16:22:46.999+03:00,1745241766.564504,40.95219089591637,29.14024283873915,75.61634,-1,-1,-1,-1,30.00193829710236,18.60218947907108,-9999,19755.72392191667,-0.658172607421875,0.66387939453125,-0.3420867919921875,19755.71888491667,1.86697921348598,-1.088406175158589,-0.7238942322791686,-0.002381477272138,0.00481687905266881,-0.005313954781740904,-0.0001430511474609375,0.001785516738891602,0.002901613712310791,XArbitraryZVertical,-0.2088844000160769,0.5315860014205779,-0.7521349933197944,-0.328750007964209,-0.6637363433837891,0.6623073816299438,-0.3475672602653503,0,0,0,-1,-1,19753.483416,unknown,2,2025-04-21T16:22:44.754+03:00,2025-04-20T21:57:49.637+03:00,6753,0.9838091,0,0,5541.095,5,6,2025-04-21T16:22:11.224+03:00,766934564.8435568,0,-38.71,100.2005,1,0.35,2025-04-21T16:06:01.980+03:00,83,1.383333333333333,2025-04-21T12:30:07.995+03:00,0.02023345852159405,0
2025-04-21T16:22:47.009+03:00,1745241766.564504,40.95219089591637,29.14024283873915,75.61634,-1,-1,-1,-1,30.00193829710236,18.60218947907108,-9999,19755.73399791667,-0.66259765625,0.6658782958984375,-0.3408355712890625,19755.72895991667,1.866984823706999,-1.088316124799698,-0.723887555124516,0.003604243509471416,0.009089121595025063,-0.001581800868734717,0.005231142044067383,0.0007071495056152344,0.002887099981307983,XArbitraryZVertical,-0.2088541154106339,0.5315688308635,-0.7521451655081471,-0.3287737091148988,-0.6637089252471924,0.6623023748397827,-0.3476290702819824,0,0,0,-1,-1,19753.483416,unknown,2,2025-04-21T16:22:44.754+03:00,2025-04-20T21:57:49.637+03:00,6753,0.9838091,0,0,5541.095,5,6,2025-04-21T16:22:11.224+03:00,766934564.8435568,0,-38.71,100.2005,1,0.35,2025-04-21T16:06:01.980+03:00,83,1.383333333333333,2025-04-21T12:30:07.995+03:00,0.02023345852159405,0
2025-04-21T16:22:47.019+03:00,1745241766.564504,40.95219089591637,29.14024283873915,75.61634,-1,-1,-1,-1,30.00193829710236,18.60218947907108,-9999,19755.74407291667,-0.661163330078125,0.667022705078125,-0.3445892333984375,19755.73903591667,1.8670045997536,-1.088247406331847,-0.7238462521799052,0.003580940654501319,0.0003594136796891689,-0.00644906098023057,0.002866387367248535,0.002828478813171387,0.007065266370773315,XArbitraryZVertical,-0.2088464337138361,0.5315444432497914,-0.7521546507788743,-0.3287962016212838,-0.6637092232704163,0.6622714400291443,-0.3476873338222504,0,0,0,-1,-1,19753.483416,unknown,2,2025-04-21T16:22:44.754+03:00,2025-04-20T21:57:49.637+03:00,6753,0.9838091,0,0,5541.095,5,6,2025-04-21T16:22:11.224+03:00,766934564.8435568,0,-38.71,100.2005,1,0.35,2025-04-21T16:06:01.980+03:00,83,1.383333333333333,2025-04-21T12:30:07.995+03:00,0.02023345852159405,0
2025-04-21T16:22:47.030+03:00,1745241766.564504,40.95219089591637,29.14024283873915,75.61634,-1,-1,-1,-1,30.00193829710236,18.60218947907108,-9999,19755.75414891667,-0.66009521484375,0.6651611328125,-0.3411712646484375,19755.74911091667,1.866999043832392,-1.088292985741887,-0.72376993628606,0.004207049962133169,-0.007489987183362246,-0.006916179321706295,0.001477360725402832,0.004487872123718262,0.003487944602966309,XArbitraryZVertical,-0.2088858805097705,0.5315321387600556,-0.7521472791019747,-0.3288079220004583,-0.6637698411941528,0.6622142195701599,-0.347680538892746,0,0,0,-1,-1,19753.483416,unknown,2,2025-04-21T16:22:44.754+03:00,2025-04-20T21:57:49.637+03:00,6753,0.9838091,0,0,5541.095,5,6,2025-04-21T16:22:11.224+03:00,766934564.8435568,0,-38.71,100.2005,1,0.35,2025-04-21T16:06:01.980+03:00,83,1.383333333333333,2025-04-21T12:30:07.995+03:00,0.02023345852159405,0
2025-04-21T16:22:47.040+03:00,1745241766.564504,40.95219089591637,29.14024283873915,75.61634,-1,-1,-1,-1,30.00193829710236,18.60218947907108,-9999,19755.76422391667,-0.6612548828125,0.6652069091796875,-0.344818115234375,19755.75918691667,1.8669555408714,-1.088345905014677,-0.723686089588664,0.0006291595636866987,-0.0005811485461890697,-0.01179958414286375,0.004062652587890625,0.003146827220916748,0.005095988512039185,XArbitraryZVertical,-0.2089203785975656,0.5315229965885757,-0.7521327114912225,-0.3288340200534462,-0.6638373732566833,0.6621513962745667,-0.3476711511611938,0,0,0,-1,-1,19753.483416,unknown,2,2025-04-21T16:22:44.754+03:00,2025-04-20T21:57:49.637+03:00,6753,0.9838091,0,0,5541.095,5,6,2025-04-21T16:22:11.224+03:00,766934564.8435568,0,-38.71,100.2005,1,0.35,2025-04-21T16:06:01.980+03:00,83,1.383333333333333,2025-04-21T12:30:07.995+03:00,0.02023345852159405,0
2025-04-21T16:22:47.050+03:00,1745241766.564504,40.95219089591637,29.14024283873915,75.61634,-1,-1,-1,-1,30.00193829710236,18.60218947907108,-9999,19755.77429991667,-0.662322998046875,0.660675048828125,-0.347869873046875,19755.76926191667,1.866886317182261,-1.088431032579065,-0.723574683761078,0.004941616207361221,-0.009656934998929501,-0.01432532630860806,0.003531992435455322,0.00350499153137207,0.004539579153060913,XArbitraryZVertical,-0.208968723867168,0.531514479486943,-0.752109941700334,-0.3288691359186944,-0.6639323234558105,0.6620679497718811,-0.3476488590240479,0,0,0,-1,-1,19753.483416,unknown,2,2025-04-21T16:22:44.754+03:00,2025-04-20T21:57:49.637+03:00,6753,0.9838091,0,0,5541.095,5,6,2025-04-21T16:22:11.224+03:00,766934564.8435568,0,-38.71,100.2005,1,0.35,2025-04-21T16:06:01.980+03:00,83,1.383333333333333,2025-04-21T12:30:07.995+03:00,0.02023345852159405,0
2025-04-21T16:22:47.060+03:00,1745241766.564504,40.95219089591637,29.14024283873915,75.61634,-1,-1,-1,-1,30.00193829710236,18.60218947907108,-9999,19755.78437491667,-0.6576385498046875,0.6586761474609375,-0.3437347412109375,19755.77933691667,1.866806666471997,-1.08862071502269,-0.7234132359366329,-0.002369626425206661,-0.01191855873912573,-0.0203799232840538,0.001449525356292725,0.001291394233703613,0.0005111992359161377,XArbitraryZVertical,-0.2090692257095183,0.5315108904404352,-0.7520733889163197,-0.3288945956116482,-0.6640928983688354,0.6619468927383423,-0.3475724756717682,0,0,0,-1,-1,19753.483416,unknown,2,2025-04-21T16:22:44.754+03:00,2025-04-20T21:57:49.637+03:00,6753,0.9838091,0,0,5541.095,5,6,2025-04-21T16:22:11.224+03:00,766934564.8435568,0,-38.71,100.2005,1,0.35,2025-04-21T16:06:01.980+03:00,83,1.383333333333333,2025-04-21T12:30:07.995+03:00,0.02023345852159405,0
2025-04-21T16:22:47.070+03:00,1745241766.564504,40.95219089591637,29.14024283873915,75.61634,-1,-1,-1,-1,30.00193829710236,18.60218947907108,-9999,19755.79445091667,-0.6566925048828125,0.6639556884765625,-0.3423919677734375,19755.78941291667,1.866572377972703,-1.088884489903688,-0.7232613457429847,-0.00740033807232976,-0.00557623989880085,-0.0242801234126091,0.003964900970458984,-0.002836704254150391,0.00129815936088562,XArbitraryZVertical,-0.2091534959800285,0.5315382192878947,-0.7520038556874625,-0.3289558243912418,-0.6642736792564392,0.6618330478668213,-0.3474438786506653,0,0,0,-1,-1,19753.483416,unknown,2,2025-04-21T16:22:44.754+03:00,2025-04-20T21:57:49.637+03:00,6753,0.9838091,0,0,5541.095,5,6,2025-04-21T16:22:11.224+03:00,766934564.8435568,0,-38.71,100.2005,1,0.35,2025-04-21T16:06:01.980+03:00,83,1.383333333333333,2025-04-21T12:30:07.995+03:00,0.02023345852159405,0
2025-04-21T16:22:47.080+03:00,1745241766.564504,40.95219089591637,29.14024283873915,75.61634,-1,-1,-1,-1,30.00193829710236,18.60218947907108,-9999,19755.80452591667,-0.6610870361328125,0.665985107421875,-0.34210205078125,19755.79948791667,1.866342393631375,-1.089077877407614,-0.7230956253623633,-0.008282975293695927,-0.003271340392529964,-0.0240175686776638,0.007837235927581787,0.0002325773239135742,0.006088078022003174,XArbitraryZVertical,-0.2092166584489125,0.5315498463102338,-0.7519421071140948,-0.3290383429072362,-0.6644381880760193,0.6617088317871094,-0.3473663032054901,0,0,0,-1,-1,19753.483416,unknown,2,2025-04-21T16:22:44.754+03:00,2025-04-20T21:57:49.637+03:00,6753,0.9838091,0,0,5541.095,5,6,2025-04-21T16:22:11.224+03:00,766934564.8435568,0,-38.71,100.2005,1,0.35,2025-04-21T16:06:01.980+03:00,83,1.383333333333333,2025-04-21T12:30:07.995+03:00,0.02023345852159405,0
2025-04-21T16:22:47.090+03:00,1745241766.564504,40.95219089591637,29.14024283873915,75.61634,-1,-1,-1,-1,30.00193829710236,18.60218947907108,-9999,19755.81460191667,-0.660858154296875,0.6634521484375,-0.3387298583984375,19755.80956391667,1.866117267600259,-1.089314156293466,-0.7229061031363795,-0.001761959632858634,-0.01592854596674442,-0.02887783758342266,0.005222737789154053,0.005104899406433105,0.004554808139801025,XArbitraryZVertical,-0.2093048116426251,0.5315617056938698,-0.7518759909516116,-0.3291139316616582,-0.6646312475204468,0.6615667343139648,-0.3472672998905182,0,0,0,-1,-1,19753.483416,unknown,2,2025-04-21T16:22:44.754+03:00,2025-04-20T21:57:49.637+03:00,6753,0.9838091,0,0,5541.095,5,6,2025-04-21T16:22:11.224+03:00,766934564.8435568,0,-38.71,100.2005,1,0.35,2025-04-21T16:06:01.980+03:00,83,1.383333333333333,2025-04-21T12:30:07.995+03:00,0.02023345852159405,0
2025-04-21T16:22:47.100+03:00,1745241766.564504,40.95219089591637,29.14024283873915,75.61634,-1,-1,-1,-1,30.00193829710236,18.60218947907108,-9999,19755.82467691667,-0.656280517578125,0.662109375,-0.3404541015625,19755.81963891667,1.865891548480807,-1.089638665775755,-0.722687245045104,-0.003490750445052981,-0.01590391248464584,-0.02629716694355011,0.002808749675750732,0.003026008605957031,0.006923794746398926,XArbitraryZVertical,-0.2094350017865754,0.5315803409291846,-0.7517999037399654,-0.3291749758773925,-0.6648723483085632,0.6614025831222534,-0.3471186459064484,0,0,0,-1,-1,19753.483416,unknown,2,2025-04-21T16:22:44.754+03:00,2025-04-20T21:57:49.637+03:00,6753,0.9838091,0,0,5541.095,5,6,2025-04-21T16:22:11.224+03:00,766934564.8435568,0,-38.71,100.2005,1,0.35,2025-04-21T16:06:01.980+03:00,83,1.383333333333333,2025-04-21T12:30:07.995+03:00,0.02023345852159405,0
2025-04-21T16:22:47.110+03:00,1745241766.564504,40.95219089591637,29.14024283873915,75.61634,-1,-1,-1,-1,30.00193829710236,18.60218947907108,-9999,19755.83475291667,-0.6576385498046875,0.664825439453125,-0.3459930419921875,19755.82971491667,1.865692892708567,-1.089932031233704,-0.7224936414163382,-0.00350486533716321,-0.01800514757633209,-0.02302121371030807,0.007815301418304443,0.001355409622192383,0.008145987987518311,XArbitraryZVertical,-0.2095528485196473,0.5315977903895884,-0.7517320243363975,-0.3292267639287625,-0.6650876402854919,0.6612573266029358,-0.3469827771186829,0,0,0,-1,-1,19753.483416,unknown,2,2025-04-21T16:22:44.754+03:00,2025-04-20T21:57:49.637+03:00,6753,0.9838091,0,0,5541.095,5,6,2025-04-21T16:22:11.224+03:00,766934564.8435568,0,-38.71,100.2005,1,0.35,2025-04-21T16:06:01.980+03:00,83,1.383333333333333,2025-04-21T12:30:07.995+03:00,0.02023345852159405,0
2025-04-21T16:22:47.121+03:00,1745241766.564504,40.95219089591637,29.14024283873915,75.61634,-1,-1,-1,-1,30.00193829710236,18.60218947907108,-9999,19755.84482791667,-0.6571044921875,0.6650238037109375,-0.3443603515625,19755.83978991667,1.865529359120056,-1.090259074304886,-0.7222837246015004,-0.0001821724872570485,-0.0253585334867239,-0.02953497134149075,0.008356988430023193,0.002611517906188965,0.002590954303741455,XArbitraryZVertical,-0.2096977468998214,0.5316127782969301,-0.7516659880015867,-0.3292610966616417,-0.6653241515159607,0.6610998511314392,-0.3468294143676758,0,0,0,-1,-1,19753.483416,unknown,2,2025-04-21T16:22:44.754+03:00,2025-04-20T21:57:49.637+03:00,6753,0.9838091,0,0,5541.095,5,6,2025-04-21T16:22:11.224+03:00,766934564.8435568,0,-38.71,100.2005,1,0.35,2025-04-21T16:06:01.980+03:00,83,1.383333333333333,2025-04-21T12:30:07.995+03:00,0.02023345852159405,0
2025-04-21T16:22:47.131+03:00,1745241766.564504,40.95219089591637,29.14024283873915,75.61634,-1,-1,-1,-1,30.00193829710236,18.60218947907108,-9999,19755.85490291667,-0.6520843505859375,0.6635284423828125,-0.338623046875,19755.84986591667,1.865295924653382,-1.090715905485885,-0.7220111544565008,-0.001668216427788138,-0.03192828595638275,-0.03712231665849686,0.008385241031646729,0.00464707612991333,0.001225769519805908,XArbitraryZVertical,-0.209892368664909,0.5316397913564327,-0.7515733128639221,-0.3293050254391513,-0.6656423211097717,0.6608953475952148,-0.3466086387634277,0,0,0,-1,-1,19753.483416,unknown,2,2025-04-21T16:22:44.754+03:00,2025-04-20T21:57:49.637+03:00,6753,0.9838091,0,0,5541.095,5,6,2025-04-21T16:22:11.224+03:00,766934564.8435568,0,-38.71,100.2005,1,0.35,2025-04-21T16:06:01.980+03:00,83,1.383333333333333,2025-04-21T12:30:07.995+03:00,0.02023345852159405,0
2025-04-21T16:22:47.141+03:00,1745241766.564504,40.95219089591637,29.14024283873915,75.61634,-1,-1,-1,-1,30.00193829710236,18.60218947907108,-9999,19755.86497891667,-0.6540374755859375,0.6648101806640625,-0.3380279541015625,19755.85994091667,1.865093180433936,-1.091160300137841,-0.7217172454030754,0.002299893647432327,-0.03348889946937561,-0.03359003365039825,0.01260250806808472,0.003524959087371826,0.005566716194152832,XArbitraryZVertical,-0.2100971004636709,0.5316558939621181,-0.7514864116428572,-0.329346824944198,-0.6659685969352722,0.6606747508049011,-0.3464024364948273,0,0,0,-1,-1,19753.483416,unknown,2,2025-04-21T16:22:44.754+03:00,2025-04-20T21:57:49.637+03:00,6753,0.9838091,0,0,5541.095,5,6,2025-04-21T16:22:11.224+03:00,766934564.8435568,0,-38.71,100.2005,1,0.35,2025-04-21T16:06:01.980+03:00,83,1.383333333333333,2025-04-21T12:30:07.995+03:00,0.02023345852159405,0
2025-04-21T16:22:47.151+03:00,1745241766.564504,40.95219089591637,29.14024283873915,75.61634,-1,-1,-1,-1,30.00193829710236,18.60218947907108,-9999,19755.87505391667,-0.65521240234375,0.6667938232421875,-0.3394012451171875,19755.87001691667,1.864863356137353,-1.091689732410653,-0.7214012023586192,-0.002190728671848774,-0.04419800266623497,-0.03945937380194664,0.01362717151641846,0.003167092800140381,0.008362054824829102,XArbitraryZVertical,-0.2103334996477522,0.5316829991641778,-0.7513854677627716,-0.3293823903673524,-0.6663371324539185,0.6604374647140503,-0.3461460173130035,0,0,0,-1,-1,19753.483416,unknown,2,2025-04-21T16:22:44.754+03:00,2025-04-20T21:57:49.637+03:00,6753,0.9838091,0,0,5541.095,5,6,2025-04-21T16:22:11.224+03:00,766934564.8435568,0,-38.71,100.2005,1,0.35,2025-04-21T16:06:01.980+03:00,83,1.383333333333333,2025-04-21T12:30:07.995+03:00,0.02023345852159405,0
2025-04-21T16:22:47.161+03:00,1745241766.564504,40.95219089591637,29.14024283873915,75.61634,-1,-1,-1,-1,30.00193829710236,18.60218947907108,-9999,19755.88512991667,-0.6549835205078125,0.6634521484375,-0.3416900634765625,19755.88009191667,1.864563025758803,-1.092371897625187,-0.721059669842762,-0.004732449539005756,-0.04832616448402405,-0.04323747009038925,0.01156097650527954,0.006780624389648438,0.007065266370773315,XArbitraryZVertical,-0.2106163298792831,0.531735943532174,-0.7512561786885853,-0.3294114436155447,-0.6667734384536743,0.6601809859275818,-0.3457953035831451,0,0,0,-1,-1,19753.483416,unknown,2,2025-04-21T16:22:44.754+03:00,2025-04-20T21:57:49.637+03:00,6753,0.9838091,0,0,5541.095,5,6,2025-04-21T16:22:11.224+03:00,766934564.8435568,0,-38.71,100.2005,1,0.35,2025-04-21T16:06:01.980+03:00,83,1.383333333333333,2025-04-21T12:30:07.995+03:00,0.02023345852159405,0
2025-04-21T16:22:47.171+03:00,1745241766.564504,40.95219089591637,29.14024283873915,75.61634,-1,-1,-1,-1,30.00193829710236,18.60218947907108,-9999,19755.89520491667,-0.6592254638671875,0.6651763916015625,-0.345458984375,19755.89016791667,1.864240555194606,-1.093053292638822,-0.720758204251563,-0.006416898686438799,-0.04420652240514755,-0.03660406917333603,0.01154583692550659,0.005389571189880371,0.004657626152038574,XArbitraryZVertical,-0.210880624492511,0.531801865014498,-0.7511239904137745,-0.3294370299953432,-0.6671854257583618,0.6599544882774353,-0.3454322814941406,0,0,0,-1,-1,19753.483416,unknown,2,2025-04-21T16:22:44.754+03:00,2025-04-20T21:57:49.637+03:00,6753,0.9838091,0,0,5541.095,5,6,2025-04-21T16:22:11.224+03:00,766934564.8435568,0,-38.71,100.2005,1,0.35,2025-04-21T16:06:01.980+03:00,83,1.383333333333333,2025-04-21T12:30:07.995+03:00,0.02023345852159405,0
2025-04-21T16:22:47.181+03:00,1745241766.564504,40.95219089591637,29.14024283873915,75.61634,-1,-1,-1,-1,30.00193829710236,18.60218947907108,-9999,19755.90528091667,-0.6619720458984375,0.664642333984375,-0.345855712890625,19755.90024291667,1.863936245146296,-1.093717711219715,-0.7205081952350038,-0.008288435637950897,-0.05449684336781502,-0.03232043981552124,0.01091474294662476,0.004967033863067627,-7.399916648864746e-05,XArbitraryZVertical,-0.2111271765104349,0.5318768473337083,-0.7509977413076083,-0.3294459136076287,-0.6675613522529602,0.659766674041748,-0.3450646698474884,0,0,0,-1,-1,19753.483416,unknown,2,2025-04-21T16:22:44.754+03:00,2025-04-20T21:57:49.637+03:00,6753,0.9838091,0,0,5541.095,5,6,2025-04-21T16:22:11.224+03:00,766934564.8435568,0,-38.71,100.2005,1,0.35,2025-04-21T16:06:01.980+03:00,83,1.383333333333333,2025-04-21T12:30:07.995+03:00,0.02023345852159405,0
2025-04-21T16:22:47.191+03:00,1745241766.564504,40.95219089591637,29.14024283873915,75.61634,-1,-1,-1,-1,30.00193829710236,18.60218947907108,-9999,19755.91535591667,-0.655303955078125,0.66265869140625,-0.3408660888671875,19755.91031891667,1.863660892412285,-1.094527097735191,-0.7202482290865785,-0.003616718109697104,-0.0698944479227066,-0.03712638095021248,0.006173491477966309,0.006276428699493408,-0.0009477436542510986,XArbitraryZVertical,-0.2114388516087292,0.531970061312466,-0.750860604733484,-0.3294083634828857,-0.6679930090904236,0.6595712900161743,-0.3446029424667358,0,0,0,-1,-1,19753.483416,unknown,2,2025-04-21T16:22:44.754+03:00,2025-04-20T21:57:49.637+03:00,6753,0.9838091,0,0,5541.095,5,6,2025-04-21T16:22:11.224+03:00,766934564.8435568,0,-38.71,100.2005,1,0.35,2025-04-21T16:06:01.980+03:00,83,1.383333333333333,2025-04-21T12:30:07.995+03:00,0.02023345852159405,0
2025-04-21T16:22:47.201+03:00,1745241766.564504,40.95219089591637,29.14024283873915,75.61634,-1,-1,-1,-1,30.00193829710236,18.60218947907108,-9999,19755.92543191667,-0.6578521728515625,0.6619415283203125,-0.341949462890625,19755.92039391667,1.863404549025154,-1.095341014882637,-0.720005236781905,-0.007895153015851974,-0.05056209117174149,-0.03060765936970711,0.01030409336090088,0.00333094596862793,0.001038432121276855,XArbitraryZVertical,-0.2117520284049878,0.5320665899193842,-0.7507262916550786,-0.3293572863813233,-0.6684156656265259,0.6593886017799377,-0.3441324532032013,0,0,0,-1,-1,19753.483416,unknown,2,2025-04-21T16:22:44.754+03:00,2025-04-20T21:57:49.637+03:00,6753,0.9838091,0,0,5541.095,5,6,2025-04-21T16:22:11.224+03:00,766934564.8435568,0,-38.71,100.2005,1,0.35,2025-04-21T16:06:01.980+03:00,83,1.383333333333333,2025-04-21T12:30:07.995+03:00,0.02023345852159405,0
2025-04-21T16:22:47.211+03:00,1745241766.564504,40.95219089591637,29.14024283873915,75.61634,-1,-1,-1,-1,30.00193829710236,18.60218947907108,-9999,19755.93550691667,-0.665924072265625,0.6656341552734375,-0.3455352783203125,19755.93046891667,1.863130537367516,-1.095969696343321,-0.7198442861483566,-0.01217458583414555,-0.04151639714837074,-0.02194013632833958,0.01299500465393066,0.002750098705291748,0.002879202365875244,XArbitraryZVertical,-0.2119653057037569,0.532156347694851,-0.7506105870172906,-0.3293387547096003,-0.6687262058258057,0.6592676043510437,-0.3437606692314148,0,0,0,-1,-1,19753.483416,unknown,2,2025-04-21T16:22:44.754+03:00,2025-04-20T21:57:49.637+03:00,6753,0.9838091,0,0,5541.095,5,6,2025-04-21T16:22:11.224+03:00,766934564.8435568,0,-38.71,100.2005,1,0.35,2025-04-21T16:06:01.980+03:00,83,1.383333333333333,2025-04-21T12:30:07.995+03:00,0.02023345852159405,0
2025-04-21T16:22:47.221+03:00,1745241766.564504,40.95219089591637,29.14024283873915,75.61634,-1,-1,-1,-1,30.00193829710236,18.60218947907108,-9999,19755.94558291667,-0.6626739501953125,0.6663970947265625,-0.342071533203125,19755.94054491667,1.862880243092657,-1.096471932427444,-0.7197938961510411,-0.008880256675183773,-0.03044191002845764,-0.007690226659178734,0.004316568374633789,0.003734052181243896,-0.001607149839401245,XArbitraryZVertical,-0.2121028694469543,0.5322521877049732,-0.7505148947432537,-0.329313511211773,-0.6689283847808838,0.6592296957969666,-0.3434399664402008,0,0,0,-1,-1,19753.483416,unknown,2,2025-04-21T16:22:44.754+03:00,2025-04-20T21:57:49.637+03:00,6753,0.9838091,0,0,5541.095,5,6,2025-04-21T16:22:11.224+03:00,766934564.8435568,0,-38.71,100.2005,1,0.35,2025-04-21T16:06:01.980+03:00,83,1.383333333333333,2025-04-21T12:30:07.995+03:00,0.02023345852159405,0
2025-04-21T16:22:47.231+03:00,1745241766.564504,40.95219089591637,29.14024283873915,75.61634,-1,-1,-1,-1,30.00193829710236,18.60218947907108,-9999,19755.95565791667,-0.6647186279296875,0.6650238037109375,-0.3414154052734375,19755.95061991667,1.862729426524969,-1.096832295124053,-0.7198203455769447,-0.0127722006291151,-0.02240954712033272,-0.006657186429947615,0.005263984203338623,0.007971286773681641,2.053380012512207e-05,XArbitraryZVertical,-0.2121897752687451,0.5323345495866189,-0.7504524502616324,-0.3292664265014592,-0.6690364480018616,0.6592496037483215,-0.3431908488273621,0,0,0,-1,-1,19753.483416,unknown,2,2025-04-21T16:22:44.754+03:00,2025-04-20T21:57:49.637+03:00,6753,0.9838091,0,0,5541.095,5,6,2025-04-21T16:22:11.224+03:00,766934564.8435568,0,-38.71,100.2005,1,0.35,2025-04-21T16:06:01.980+03:00,83,1.383333333333333,2025-04-21T12:30:07.995+03:00,0.02023345852159405,0
2025-04-21T16:22:47.242+03:00,1745241766.564504,40.95219089591637,29.14024283873915,75.61634,-1,-1,-1,-1,30.00193829710236,18.60218947907108,-9999,19755.96573391667,-0.65264892578125,0.652435302734375,-0.33770751953125,19755.96069591667,1.862701125731782,-1.097603725311095,-0.7179899220356429,-0.01447349414229393,-0.2758059203624725,-0.1350496858358383,0.006952404975891113,0.006876766681671143,0.001549035310745239,XArbitraryZVertical,-0.2130426491102828,0.5319782392747729,-0.7503195674247322,-0.3295941271945594,-0.6703739166259766,0.6578721404075623,-0.3432239592075348,0,0,0,-1,-1,19753.483416,unknown,2,2025-04-21T16:22:44.754+03:00,2025-04-20T21:57:49.637+03:00,6753,0.9838091,0,0,5541.095,5,6,2025-04-21T16:22:11.224+03:00,766934564.8435568,0,-38.71,100.2005,1,0.35,2025-04-21T16:06:01.980+03:00,83,1.383333333333333,2025-04-21T12:30:07.995+03:00,0.02023345852159405,0
2025-04-21T16:22:47.252+03:00,1745241766.564504,40.95219089591637,29.14024283873915,75.61634,-1,-1,-1,-1,30.00193829710236,18.60218947907108,-9999,19755.97580891667,-0.611846923828125,0.6472320556640625,-0.3187408447265625,19755.97077091667,1.861742162588418,-1.100180955734762,-0.7169351437123535,-0.002129209460690618,-0.08855694532394409,-0.1077008843421936,0.009032726287841797,0.007198512554168701,0.0008976161479949951,XArbitraryZVertical,-0.2140830368417733,0.5322251925164424,-0.7498591016598558,-0.3295693330315498,-0.6718744039535522,0.657077431678772,-0.3418096005916595,0,0,0,-1,-1,19753.483416,unknown,2,2025-04-21T16:22:44.754+03:00,2025-04-20T21:57:49.637+03:00,6753,0.9838091,0,0,5541.095,5,6,2025-04-21T16:22:11.224+03:00,766934564.8435568,0,-38.71,100.2005,1,0.35,2025-04-21T16:06:01.980+03:00,83,1.383333333333333,2025-04-21T12:30:07.995+03:00,0.02023345852159405,0
2025-04-21T16:22:47.262+03:00,1745241766.564504,40.95219089591637,29.14024283873915,75.61634,-1,-1,-1,-1,30.00193829710236,18.60218947907108,-9999,19755.98588491667,-0.7145843505859375,0.686767578125,-0.358245849609375,19755.98084691667,1.861533223232375,-1.100659132307921,-0.7163960766099206,0.012591945938766,0.00146455829963088,-0.0299774557352066,0.05586802959442139,-0.02297359704971313,0.0197797417640686,XArbitraryZVertical,-0.2143747688086983,0.5321833107885658,-0.749759313617109,-0.3296746229929838,-0.6723536252975464,0.6566709280014038,-0.3416487574577332,0,0,0,-1,-1,19753.483416,unknown,2,2025-04-21T16:22:44.754+03:00,2025-04-20T21:57:49.637+03:00,6753,0.9838091,0,0,5541.095,5,6,2025-04-21T16:22:11.224+03:00,766934564.8435568,0,-38.71,100.2005,1,0.35,2025-04-21T16:06:01.980+03:00,83,1.383333333333333,2025-04-21T12:30:07.995+03:00,0.02023345852159405,0
2025-04-21T16:22:47.272+03:00,1745241766.564504,40.95219089591637,29.14024283873915,75.61634,-1,-1,-1,-1,30.00193829710236,18.60218947907108,-9999,19755.99595991667,-0.6939544677734375,0.6595306396484375,-0.3431549072265625,19755.99092191667,1.861591523827074,-1.100788851728688,-0.7162095336914994,0.01740188151597977,-0.02852663025259972,-0.02598004974424839,-0.000405430793762207,0.02816200256347656,-0.00152277946472168,XArbitraryZVertical,-0.2144970886003988,0.5321489357551237,-0.7497500854128968,-0.329671543276632,-0.6725071668624878,0.6565302610397339,-0.3416170179843903,0,0,0,-1,-1,19753.483416,unknown,2,2025-04-21T16:22:44.754+03:00,2025-04-20T21:57:49.637+03:00,6753,0.9838091,0,0,5541.095,5,6,2025-04-21T16:22:11.224+03:00,766934564.8435568,0,-38.71,100.2005,1,0.35,2025-04-21T16:06:01.980+03:00,83,1.383333333333333,2025-04-21T12:30:07.995+03:00,0.02023345852159405,0
2025-04-21T16:22:47.282+03:00,1745241766.564504,40.95219089591637,29.14024283873915,75.61634,-1,-1,-1,-1,30.00193829710236,18.60218947907108,-9999,19756.00603591667,-0.6539459228515625,0.6636962890625,-0.333709716796875,19756.00099791667,1.861620469893589,-1.101201991674178,-0.7159341807233515,0.0155686279758811,-0.05015569180250168,-0.0317087434232235,-0.04813790321350098,0.009433567523956299,-0.01369702816009521,XArbitraryZVertical,-0.2147455573053355,0.5321408513010792,-0.7497032056394267,-0.3296293573018243,-0.672809362411499,0.6563225388526917,-0.3414209187030792,0,0,0,-1,-1,19753.483416,unknown,2,2025-04-21T16:22:44.754+03:00,2025-04-20T21:57:49.637+03:00,6753,0.9838091,0,0,5541.095,5,6,2025-04-21T16:22:11.224+03:00,766934564.8435568,0,-38.71,100.2005,1,0.35,2025-04-21T16:06:01.980+03:00,83,1.383333333333333,2025-04-21T12:30:07.995+03:00,0.02023345852159405,0
2025-04-21T16:22:47.292+03:00,1745241766.564504,40.95219089591637,29.14024283873915,75.61634,-1,-1,-1,-1,30.00193829710236,18.60218947907108,-9999,19756.01611091667,-0.668243408203125,0.65771484375,-0.3369293212890625,19756.01107291667,1.861633259617701,-1.101629784861188,-0.7157405858502601,0.0105230025947094,-0.03051914274692535,-0.01748240366578102,0.01517075300216675,0.007092416286468506,0.0081673264503479,XArbitraryZVertical,-0.2149696866684498,0.532158604356706,-0.7496542013727943,-0.329566045049416,-0.673068642616272,0.6561764478683472,-0.3411905169487,0,0,0,-1,-1,19753.483416,unknown,2,2025-04-21T16:22:44.754+03:00,2025-04-20T21:57:49.637+03:00,6753,0.9838091,0,0,5541.095,5,6,2025-04-21T16:22:11.224+03:00,766934564.8435568,0,-38.71,100.2005,1,0.35,2025-04-21T16:06:01.980+03:00,83,1.383333333333333,2025-04-21T12:30:07.995+03:00,0.02023345852159405,0
2025-04-21T16:22:47.302+03:00,1745241766.564504,40.95219089591637,29.14024283873915,75.61634,-1,-1,-1,-1,30.00193829710236,18.60218947907108,-9999,19756.02618691667,-0.6735992431640625,0.6620330810546875,-0.3419342041015625,19756.02114891667,1.861702307800976,-1.101832490630539,-0.715600596205257,0.009316324256360531,-0.01526189129799604,-0.007970125414431095,0.01082050800323486,0.003474950790405273,0.004929065704345703,XArbitraryZVertical,-0.2151076755213185,0.5321474342486251,-0.7496400563301427,-0.329526271596769,-0.6732197999954224,0.6560708284378052,-0.3410955965518951,0,0,0,-1,-1,19753.483416,unknown,2,2025-04-21T16:22:44.754+03:00,2025-04-20T21:57:49.637+03:00,6753,0.9838091,0,0,5541.095,5,6,2025-04-21T16:22:11.224+03:00,766934564.8435568,0,-38.71,100.2005,1,0.35,2025-04-21T16:06:01.980+03:00,83,1.383333333333333,2025-04-21T12:30:07.995+03:00,0.02023345852159405,0
2025-04-21T16:22:47.318+03:00,1745241766.564504,40.95219089591637,29.14024283873915,75.61634,-1,-1,-1,-1,30.00193829710236,18.60218947907108,-9999,19756.03626191667,-0.67071533203125,0.6665802001953125,-0.3439178466796875,19756.03122391667,1.861809311642118,-1.101918797580786,-0.7155268443628753,0.01167215686291456,-0.01787525042891502,-0.004117862787097692,0.0005475878715515137,0.002660870552062988,0.002008914947509766,XArbitraryZVertical,-0.2151915135902464,0.5321305735428009,-0.7496464154112743,-0.3294842099027404,-0.673292338848114,0.656015157699585,-0.3410593271255493,0,0,0,-1,-1,19753.483416,unknown,2,2025-04-21T16:22:44.754+03:00,2025-04-20T21:57:49.637+03:00,6753,0.9838091,0,0,5541.095,5,6,2025-04-21T16:22:11.224+03:00,766934564.8435568,0,-38.71,100.2005,1,0.35,2025-04-21T16:06:01.980+03:00,83,1.383333333333333,2025-04-21T12:30:07.995+03:00,0.02023345852159405,0
2025-04-21T16:22:47.322+03:00,1745241766.564504,40.95219089591637,29.14024283873915,75.61634,-1,-1,-1,-1,30.00193829710236,18.60218947907108,-9999,19756.04633791667,-0.66815185546875,0.6563873291015625,-0.3350677490234375,19756.04129991667,1.861950929061282,-1.102060447423783,-0.715440329008465,0.01526342984288931,-0.02734838053584099,-0.007539891637861729,0.0009212493896484375,0.01095062494277954,-0.004408478736877441,XArbitraryZVertical,-0.2153092291104753,0.5321157051876161,-0.7496522058256466,-0.3294182564697666,-0.6733913421630859,0.6559498310089111,-0.3409896194934845,0,0,0,-1,-1,19753.483416,unknown,2,2025-04-21T16:22:44.754+03:00,2025-04-20T21:57:49.637+03:00,6753,0.9838091,0,0,5541.095,5,6,2025-04-21T16:22:11.224+03:00,766934564.8435568,0,-38.71,100.2005,1,0.35,2025-04-21T16:06:01.980+03:00,83,1.383333333333333,2025-04-21T12:30:07.995+03:00,0.02023345852159405,0
2025-04-21T16:22:47.332+03:00,1745241766.564504,40.95219089591637,29.14024283873915,75.61634,-1,-1,-1,-1,30.00193829710236,18.60218947907108,-9999,19756.05641291667,-0.669708251953125,0.6548004150390625,-0.33416748046875,19756.05137491667,1.862086064964882,-1.102267162555007,-0.7153266496957889,0.01437073759734631,-0.03405741602182388,-0.00977348443120718,0.00502544641494751,0.003956317901611328,0.002550750970840454,XArbitraryZVertical,-0.2154581765351544,0.532105032322839,-0.7496491091058056,-0.3293448790206789,-0.6735281944274902,0.6558640599250793,-0.3408840298652649,0,0,0,-1,-1,19753.483416,unknown,2,2025-04-21T16:22:44.754+03:00,2025-04-20T21:57:49.637+03:00,6753,0.9838091,0,0,5541.095,5,6,2025-04-21T16:22:11.224+03:00,766934564.8435568,0,-38.71,100.2005,1,0.35,2025-04-21T16:06:01.980+03:00,83,1.383333333333333,2025-04-21T12:30:07.995+03:00,0.02023345852159405,0
2025-04-21T16:22:47.342+03:00,1745241766.564504,40.95219089591637,29.14024283873915,75.61634,-1,-1,-1,-1,30.00193829710236,18.60218947907108,-9999,19756.06648891667,-0.6702880859375,0.6552581787109375,-0.3369598388671875,19756.06145091667,1.862237549568892,-1.102484162176663,-0.7152437405075789,0.01674614474177361,-0.03179173171520233,-0.007118379697203636,0.004690170288085938,-0.0007570981979370117,0.007556110620498657,XArbitraryZVertical,-0.2156056514645344,0.5321024331806069,-0.7496484506334069,-0.3292540901166962,-0.6736506819725037,0.6558014154434204,-0.3407624065876007,0,0,0,-1,-1,19753.483416,unknown,2,2025-04-21T16:22:44.754+03:00,2025-04-20T21:57:49.637+03:00,6753,0.9838091,0,0,5541.095,5,6,2025-04-21T16:22:11.224+03:00,766934564.8435568,0,-38.71,100.2005,1,0.35,2025-04-21T16:06:01.980+03:00,83,1.383333333333333,2025-04-21T12:30:07.995+03:00,0.02023345852159405,0
2025-04-21T16:22:47.352+03:00,1745241766.564504,40.95219089591637,29.14024283873915,75.61634,-1,-1,-1,-1,30.00193829710236,18.60218947907108,-9999,19756.07656391667,-0.670562744140625,0.6603240966796875,-0.341339111328125,19756.07152591667,1.862445247830756,-1.102534344395603,-0.7151959644086145,0.01642310433089733,-0.005397409200668335,0.005058391485363245,0.003468751907348633,-0.000919342041015625,0.004667818546295166,XArbitraryZVertical,-0.2156945688482364,0.5320756164178472,-0.7496759755496358,-0.329176666011074,-0.6736958026885986,0.6557653546333313,-0.3407427966594696,0,0,0,-1,-1,19753.483416,unknown,2,2025-04-21T16:22:44.754+03:00,2025-04-20T21:57:49.637+03:00,6753,0.9838091,0,0,5541.095,5,6,2025-04-21T16:22:11.224+03:00,766934564.8435568,0,-38.71,100.2005,1,0.35,2025-04-21T16:06:01.980+03:00,83,1.383333333333333,2025-04-21T12:30:07.995+03:00,0.02023345852159405,0
2025-04-21T16:22:47.362+03:00,1745241766.564504,40.95219089591637,29.14024283873915,75.61634,-1,-1,-1,-1,30.00193829710236,18.60218947907108,-9999,19756.08663991667,-0.671539306640625,0.666229248046875,-0.345672607421875,19756.08160191667,1.862663875622322,-1.102405529271006,-0.7151150975709042,0.01797759160399437,0.00325280474498868,0.005957208573818207,0.00292283296585083,0.001659393310546875,0.002276062965393066,XArbitraryZVertical,-0.215729684903383,0.5320093716754043,-0.7497236593265973,-0.3291519759287437,-0.6736991405487061,0.6557043194770813,-0.3408534526824951,0,0,0,-1,-1,19753.483416,unknown,2,2025-04-21T16:22:44.754+03:00,2025-04-20T21:57:49.637+03:00,6753,0.9838091,0,0,5541.095,5,6,2025-04-21T16:22:11.224+03:00,766934564.8435568,0,-38.71,100.2005,1,0.35,2025-04-21T16:06:01.980+03:00,83,1.383333333333333,2025-04-21T12:30:07.995+03:00,0.02023345852159405,0
2025-04-21T16:22:47.372+03:00,1745241766.564504,40.95219089591637,29.14024283873915,75.61634,-1,-1,-1,-1,30.00193829710236,18.60218947907108,-9999,19756.09671491667,-0.6685638427734375,0.66436767578125,-0.33770751953125,19756.09167691667,1.86292121499644,-1.102256498859027,-0.7151030579698976,0.02263625897467136,-0.007455766201019287,-0.0002373040770180523,0.002634882926940918,0.009374141693115234,-0.00447121262550354,XArbitraryZVertical,-0.2157460492550818,0.5319538929593404,-0.7497817411681724,-0.3290984958169563,-0.6736553311347961,0.6556952595710754,-0.3409574031829834,0,0,0,-1,-1,19753.483416,unknown,2,2025-04-21T16:22:44.754+03:00,2025-04-20T21:57:49.637+03:00,6753,0.9838091,0,0,5541.095,5,6,2025-04-21T16:22:11.224+03:00,766934564.8435568,0,-38.71,100.2005,1,0.35,2025-04-21T16:06:01.980+03:00,83,1.383333333333333,2025-04-21T12:30:07.995+03:00,0.02023345852159405,0
2025-04-21T16:22:47.382+03:00,1745241766.564504,40.95219089591637,29.14024283873915,75.61634,-1,-1,-1,-1,30.00193829710236,18.60218947907108,-9999,19756.10678991667,-0.66925048828125,0.6563720703125,-0.3307037353515625,19756.10175291667,1.863208208752578,-1.102173843376064,-0.7150203638009548,0.02302694506943226,-0.01098658517003059,0.001474043121561408,0.003158748149871826,0.01047420501708984,-0.0007593631744384766,XArbitraryZVertical,-0.2158170789378566,0.531887363417766,-0.7498357254285398,-0.3290367508414256,-0.6736757159233093,0.6556327939033508,-0.3410376310348511,0,0,0,-1,-1,19753.483416,unknown,2,2025-04-21T16:22:44.754+03:00,2025-04-20T21:57:49.637+03:00,6753,0.9838091,0,0,5541.095,5,6,2025-04-21T16:22:11.224+03:00,766934564.8435568,0,-38.71,100.2005,1,0.35,2025-04-21T16:06:01.980+03:00,83,1.383333333333333,2025-04-21T12:30:07.995+03:00,0.02023345852159405,0
2025-04-21T16:22:47.392+03:00,1745241766.564504,40.95219089591637,29.14024283873915,75.61634,-1,-1,-1,-1,30.00193829710236,18.60218947907108,-9999,19756.11686591667,-0.672027587890625,0.6526031494140625,-0.3294525146484375,19756.11182791667,1.863522544740468,-1.102102084521829,-0.7149540725135636,0.02881825342774391,-0.01257595978677273,0.006283978465944529,0.005126118659973145,0.004222452640533447,0.008158713579177856,XArbitraryZVertical,-0.215894412783488,0.531824023416733,-0.7498934154650706,-0.3289569386958729,-0.6736900210380554,0.6555827260017395,-0.3411056101322174,0,0,0,-1,-1,19753.483416,unknown,2,2025-04-21T16:22:44.754+03:00,2025-04-20T21:57:49.637+03:00,6753,0.9838091,0,0,5541.095,5,6,2025-04-21T16:22:11.224+03:00,766934564.8435568,0,-38.71,100.2005,1,0.35,2025-04-21T16:06:01.980+03:00,83,1.383333333333333,2025-04-21T12:30:07.995+03:00,0.02023345852159405,0
2025-04-21T16:22:47.403+03:00,1745241766.564504,40.95219089591637,29.14024283873915,75.61634,-1,-1,-1,-1,30.00193829710236,18.60218947907108,-9999,19756.12694091667,-0.6697235107421875,0.654266357421875,-0.33428955078125,19756.12190391667,1.863872722489938,-1.102027308727602,-0.7149060615818928,0.02365358546376228,-0.02034732885658741,0.004177418071776628,0.002565145492553711,-0.002104341983795166,0.01170220971107483,XArbitraryZVertical,-0.2159745374186083,0.5317611666620919,-0.7499577353124803,-0.3288589495594232,-0.6736924052238464,0.6555464863777161,-0.3411701321601868,0,0,0,-1,-1,19753.483416,unknown,2,2025-04-21T16:22:44.754+03:00,2025-04-20T21:57:49.637+03:00,6753,0.9838091,0,0,5541.095,5,6,2025-04-21T16:22:11.224+03:00,766934564.8435568,0,-38.71,100.2005,1,0.35,2025-04-21T16:06:01.980+03:00,83,1.383333333333333,2025-04-21T12:30:07.995+03:00,0.02023345852159405,0
2025-04-21T16:22:47.413+03:00,1745241766.564504,40.95219089591637,29.14024283873915,75.61634,-1,-1,-1,-1,30.00193829710236,18.60218947907108,-9999,19756.13701691667,-0.6634368896484375,0.657379150390625,-0.3390655517578125,19756.13197891667,1.864161153929388,-1.102118714265734,-0.7148408986707112,0.0237268228083849,-0.03353024274110794,-0.0001044123782776296,0.00290912389755249,-0.002009272575378418,0.009554266929626465,XArbitraryZVertical,-0.2161057636405443,0.5317277173888225,-0.7499935705240468,-0.3287452036612313,-0.6737617254257202,0.6554972529411316,-0.341127872467041,0,0,0,-1,-1,19753.483416,unknown,2,2025-04-21T16:22:44.754+03:00,2025-04-20T21:57:49.637+03:00,6753,0.9838091,0,0,5541.095,5,6,2025-04-21T16:22:11.224+03:00,766934564.8435568,0,-38.71,100.2005,1,0.35,2025-04-21T16:06:01.980+03:00,83,1.383333333333333,2025-04-21T12:30:07.995+03:00,0.02023345852159405,0
2025-04-21T16:22:47.423+03:00,1745241766.564504,40.95219089591637,29.14024283873915,75.61634,-1,-1,-1,-1,30.00193829710236,18.60218947907108,-9999,19756.14709191667,-0.6622467041015625,0.6583251953125,-0.3448486328125,19756.14205491667,1.864385288886695,-1.10232238719479,-0.7147751611525028,0.01685959659516811,-0.03008650988340378,0.002777394140139222,0.008098304271697998,0.001824617385864258,0.003867059946060181,XArbitraryZVertical,-0.2162621210024883,0.5317194850990563,-0.750006698893538,-0.3286260326617319,-0.673869788646698,0.6554476022720337,-0.341010183095932,0,0,0,-1,-1,19753.483416,unknown,2,2025-04-21T16:22:44.754+03:00,2025-04-20T21:57:49.637+03:00,6753,0.9838091,0,0,5541.095,5,6,2025-04-21T16:22:11.224+03:00,766934564.8435568,0,-38.71,100.2005,1,0.35,2025-04-21T16:06:01.980+03:00,83,1.383333333333333,2025-04-21T12:30:07.995+03:00,0.02023345852159405,0
2025-04-21T16:22:47.433+03:00,1745241766.564504,40.95219089591637,29.14024283873915,75.61634,-1,-1,-1,-1,30.00193829710236,18.60218947907108,-9999,19756.15716791667,-0.668670654296875,0.6588592529296875,-0.341064453125,19756.15212991667,1.864582206961038,-1.1024755871701,-0.7147569509989786,0.01692790351808071,-0.02429799735546112,0.007065949495881796,0.01296770572662354,0.002997994422912598,-0.001846015453338623,XArbitraryZVertical,-0.2163776153644311,0.5317185156728536,-0.7500219821475791,-0.3285166009968086,-0.673932671546936,0.6554338932037354,-0.3409122824668884,0,0,0,-1,-1,19753.483416,unknown,2,2025-04-21T16:22:44.754+03:00,2025-04-20T21:57:49.637+03:00,6753,0.9838091,0,0,5541.095,5,6,2025-04-21T16:22:11.224+03:00,766934567.4238306,0,-38.72,100.1985,1,0.35,2025-04-21T16:06:01.980+03:00,83,1.383333333333333,2025-04-21T12:30:07.995+03:00,0.02023345852159405,0
2025-04-21T16:22:47.443+03:00,1745241766.564504,40.95219089591637,29.14024283873915,75.61634,-1,-1,-1,-1,30.00193829710236,18.60218947907108,-9999,19756.16724291667,-0.670654296875,0.6600494384765625,-0.33575439453125,19756.16220591667,1.86483966489236,-1.102526837021206,-0.7147756834124003,0.01912261545658112,-0.02310596406459808,0.009622449986636639,0.007572591304779053,0.00397568941116333,-0.002374380826950073,XArbitraryZVertical,-0.2164594293451952,0.5317040516476703,-0.7500592293939505,-0.3284011296120168,-0.6739392280578613,0.6554480195045471,-0.3408722281455994,0,0,0,-1,-1,19753.483416,unknown,2,2025-04-21T16:22:44.754+03:00,2025-04-20T21:57:49.637+03:00,6753,0.9838091,0,0,5541.095,5,6,2025-04-21T16:22:11.224+03:00,766934567.4238306,0,-38.72,100.1985,1,0.35,2025-04-21T16:06:01.980+03:00,83,1.383333333333333,2025-04-21T12:30:07.995+03:00,0.02023345852159405,0
2025-04-21T16:22:47.453+03:00,1745241766.564504,40.95219089591637,29.14024283873915,75.61634,-1,-1,-1,-1,30.00193829710236,18.60218947907108,-9999,19756.17731891667,-0.667144775390625,0.6588592529296875,-0.3298187255859375,19756.17228091667,1.865147579944352,-1.102564403514501,-0.7147845512799482,0.0218395721167326,-0.02318985387682915,0.01068824715912342,0.003048360347747803,0.004106342792510986,0.002602547407150269,XArbitraryZVertical,-0.2165526069428169,0.5316792433603253,-0.7501059535930462,-0.328273152861673,-0.6739468574523926,0.655454695224762,-0.3408443033695221,0,0,0,-1,-1,19753.483416,unknown,2,2025-04-21T16:22:44.754+03:00,2025-04-20T21:57:49.637+03:00,6753,0.9838091,0,0,5541.095,5,6,2025-04-21T16:22:11.224+03:00,766934567.4238306,0,-38.72,100.1985,1,0.35,2025-04-21T16:06:01.980+03:00,83,1.383333333333333,2025-04-21T12:30:07.995+03:00,0.02023345852159405,0
2025-04-21T16:22:47.463+03:00,1745241766.564504,40.95219089591637,29.14024283873915,75.61634,-1,-1,-1,-1,30.00193829710236,18.60218947907108,-9999,19756.18739391667,-0.669281005859375,0.65423583984375,-0.3299560546875,19756.18235691667,1.8654639895913,-1.102583150490183,-0.7147920091215941,0.02165414951741695,-0.02148176915943623,0.01061417907476425,0.005598545074462891,0.004878818988800049,0.009118407964706421,XArbitraryZVertical,-0.2166415359188726,0.5316500420226671,-0.7501559725117293,-0.3281470425444913,-0.6739486455917358,0.6554603576660156,-0.3408293426036835,0,0,0,-1,-1,19753.483416,unknown,2,2025-04-21T16:22:44.754+03:00,2025-04-20T21:57:49.637+03:00,6753,0.9838091,0,0,5541.095,5,6,2025-04-21T16:22:11.224+03:00,766934567.4238306,0,-38.72,100.1985,1,0.35,2025-04-21T16:06:01.980+03:00,83,1.383333333333333,2025-04-21T12:30:07.995+03:00,0.02023345852159405,0
2025-04-21T16:22:47.473+03:00,1745241766.564504,40.95219089591637,29.14024283873915,75.61634,-1,-1,-1,-1,30.00193829710236,18.60218947907108,-9999,19756.19746991667,-0.66925048828125,0.654296875,-0.3358154296875,19756.19243191667,1.865797606176112,-1.102615799035186,-0.7148261360200259,0.01921682432293892,-0.02340004406869411,0.01306375488638878,0.006551086902618408,-0.0003806948661804199,0.01213812828063965,XArbitraryZVertical,-0.2167317489262227,0.5316283236616562,-0.7502081261094867,-0.3280037520895674,-0.6739400029182434,0.6554861068725586,-0.3407973349094391,0,0,0,-1,-1,19753.483416,unknown,2,2025-04-21T16:22:44.754+03:00,2025-04-20T21:57:49.637+03:00,6753,0.9838091,0,0,5541.095,5,6,2025-04-21T16:22:11.224+03:00,766934567.4238306,0,-38.72,100.1985,1,0.35,2025-04-21T16:06:01.980+03:00,83,1.383333333333333,2025-04-21T12:30:07.995+03:00,0.02023345852159405,0
2025-04-21T16:22:47.483+03:00,1745241766.564504,40.95219089591637,29.14024283873915,75.61634,-1,-1,-1,-1,30.00193829710236,18.60218947907108,-9999,19756.20754491667,-0.666900634765625,0.6567840576171875,-0.3416595458984375,19756.20250791667,1.866037421784124,-1.102721137759509,-0.7148407866462368,0.01212256401777267,-0.02384332753717899,0.008646967820823193,0.004350602626800537,-0.001826107501983643,0.007576704025268555,XArbitraryZVertical,-0.2168304614826241,0.5316234999458747,-0.7502364097504328,-0.3278815703377908,-0.6739673018455505,0.6554971933364868,-0.3407220244407654,0,0,0,-1,-1,19753.483416,unknown,2,2025-04-21T16:22:44.754+03:00,2025-04-20T21:57:49.637+03:00,6753,0.9838091,0,0,5541.095,5,6,2025-04-21T16:22:11.224+03:00,766934567.4238306,0,-38.72,100.1985,1,0.35,2025-04-21T16:06:01.980+03:00,83,1.383333333333333,2025-04-21T12:30:07.995+03:00,0.02023345852159405,0
2025-04-21T16:22:47.493+03:00,1745241766.564504,40.95219089591637,29.14024283873915,75.61634,-1,-1,-1,-1,30.00193829710236,18.60218947907108,-9999,19756.21762091667,-0.667266845703125,0.657867431640625,-0.342437744140625,19756.21258291667,1.866253548104479,-1.102843439197643,-0.714850119762192,0.01695966348052025,-0.02587478794157505,0.007684501819312572,0.006034731864929199,0.0006541013717651367,0.001418560743331909,XArbitraryZVertical,-0.2169308702238286,0.5316225916624356,-0.75025882872176,-0.3277653612866699,-0.674003541469574,0.6555042266845703,-0.3406368494033813,0,0,0,-1,-1,19753.483416,unknown,2,2025-04-21T16:22:44.754+03:00,2025-04-20T21:57:49.637+03:00,6753,0.9838091,0,0,5541.095,5,6,2025-04-21T16:22:11.224+03:00,766934567.4238306,0,-38.72,100.1985,1,0.35,2025-04-21T16:06:01.980+03:00,83,1.383333333333333,2025-04-21T12:30:07.995+03:00,0.02023345852159405,0
2025-04-21T16:22:47.503+03:00,1745241766.564504,40.95219089591637,29.14024283873915,75.61634,-1,-1,-1,-1,30.00193829710236,18.60218947907108,-9999,19756.22769591667,-0.67108154296875,0.658599853515625,-0.3363189697265625,19756.22265891667,1.866512605197102,-1.102907091524587,-0.7148590935217038,0.02129335887730122,-0.02130753174424171,0.008456517942249775,0.006936192512512207,0.001715362071990967,-0.002136558294296265,XArbitraryZVertical,-0.2170208865812346,0.5316073077529572,-0.7502945590400582,-0.3276484827951264,-0.6740198135375977,0.6555110216140747,-0.3405912220478058,0,0,0,-1,-1,19753.483416,unknown,2,2025-04-21T16:22:44.754+03:00,2025-04-20T21:57:49.637+03:00,6753,0.9838091,0,0,5541.095,5,6,2025-04-21T16:22:11.224+03:00,766934567.4238306,0,-38.72,100.1985,1,0.35,2025-04-21T16:06:01.980+03:00,83,1.383333333333333,2025-04-21T12:30:07.995+03:00,0.02023345852159405,0
2025-04-21T16:22:47.513+03:00,1745241766.564504,40.95219089591637,29.14024283873915,75.61634,-1,-1,-1,-1,30.00193829710236,18.60218947907108,-9999,19756.23777191667,-0.6749267578125,0.6598358154296875,-0.3339080810546875,19756.23273391667,1.86685321134703,-1.102830729051908,-0.7148694077686596,0.02016710676252842,-0.01342670526355505,0.01143526379019022,0.004249095916748047,0.002943575382232666,0.00212329626083374,XArbitraryZVertical,-0.2170795244974104,0.5315605779785241,-0.7503589317881308,-0.3275381533078845,-0.673987865447998,0.6555188298225403,-0.3406396508216858,0,0,0,-1,-1,19753.483416,unknown,2,2025-04-21T16:22:44.754+03:00,2025-04-20T21:57:49.637+03:00,6753,0.9838091,0,0,5541.095,5,6,2025-04-21T16:22:11.224+03:00,766934567.4238306,0,-38.72,100.1985,1,0.35,2025-04-21T16:06:01.980+03:00,83,1.383333333333333,2025-04-21T12:30:07.995+03:00,0.02023345852159405,0
2025-04-21T16:22:47.524+03:00,1745241766.564504,40.95219089591637,29.14024283873915,75.61634,-1,-1,-1,-1,30.00193829710236,18.60218947907108,-9999,19756.24784691667,-0.6761627197265625,0.6588287353515625,-0.3349456787109375,19756.24280991667,1.867149970808027,-1.102746508443272,-0.7148908424906535,0.01568780466914177,-0.01096421480178833,0.01166023500263691,0.0003473758697509766,0.00465160608291626,0.005820512771606445,XArbitraryZVertical,-0.2171201390937271,0.5315202790760322,-0.7504172217811331,-0.3274430326657701,-0.6739466190338135,0.6555349826812744,-0.3406900763511658,0,0,0,-1,-1,19753.483416,unknown,2,2025-04-21T16:22:44.754+03:00,2025-04-20T21:57:49.637+03:00,6753,0.9838091,0,0,5541.095,5,6,2025-04-21T16:22:11.224+03:00,766934567.4238306,0,-38.72,100.1985,1,0.35,2025-04-21T16:06:01.980+03:00,83,1.383333333333333,2025-04-21T12:30:07.995+03:00,0.02023345852159405,0
2025-04-21T16:22:47.534+03:00,1745241766.564504,40.95219089591637,29.14024283873915,75.61634,-1,-1,-1,-1,30.00193829710236,18.60218947907108,-9999,19756.25792291667,-0.6748046875,0.6554107666015625,-0.3387451171875,19756.25288491667,1.867393137728996,-1.102693913101531,-0.714942936023573,0.01564652472734451,-0.01198180764913559,0.01105143688619137,-0.001348912715911865,0.003956139087677002,0.006481468677520752,XArbitraryZVertical,-0.2171488094107457,0.5314991346712985,-0.7504641126636871,-0.3273509220340849,-0.6738982200622559,0.6555743217468262,-0.3407101333141327,0,0,0,-1,-1,19753.483416,unknown,2,2025-04-21T16:22:44.754+03:00,2025-04-20T21:57:49.637+03:00,6753,0.9838091,0,0,5541.095,5,6,2025-04-21T16:22:11.224+03:00,766934567.4238306,0,-38.72,100.1985,1,0.35,2025-04-21T16:06:01.980+03:00,83,1.383333333333333,2025-04-21T12:30:07.995+03:00,0.02023345852159405,0
2025-04-21T16:22:47.544+03:00,1745241766.564504,40.95219089591637,29.14024283873915,75.61634,-1,-1,-1,-1,30.00193829710236,18.60218947907108,-9999,19756.26799791667,-0.6716766357421875,0.6544189453125,-0.3380889892578125,19756.26296091667,1.867621212998165,-1.102674151739971,-0.7149923396697159,0.01279847417026758,-0.01052645780146122,0.0113624595105648,-0.001827120780944824,0.0007449984550476074,0.003504693508148193,XArbitraryZVertical,-0.2171866617396371,0.5314842884433363,-0.7505048598569787,-0.3272564007287744,-0.6738625764846802,0.6556116342544556,-0.3407088220119476,0,0,0,-1,-1,19753.483416,unknown,2,2025-04-21T16:22:44.754+03:00,2025-04-20T21:57:49.637+03:00,6753,0.9838091,0,0,5541.095,5,6,2025-04-21T16:22:11.224+03:00,766934567.4238306,0,-38.72,100.1985,1,0.35,2025-04-21T16:06:01.980+03:00,83,1.383333333333333,2025-04-21T12:30:07.995+03:00,0.02023345852159405,0
2025-04-21T16:22:47.554+03:00,1745241766.564504,40.95219089591637,29.14024283873915,75.61634,-1,-1,-1,-1,30.00193829710236,18.60218947907108,-9999,19756.27807391667,-0.6724853515625,0.655303955078125,-0.339324951171875,19756.27303591667,1.867808712298569,-1.102653107516995,-0.7150450581035082,0.009758475236594677,-0.007624943740665913,0.009871622547507286,0.001308798789978027,-0.0008969306945800781,0.002389490604400635,XArbitraryZVertical,-0.2172121420960076,0.5314745159972252,-0.7505392347967547,-0.3271767237054853,-0.673824667930603,0.6556514501571655,-0.3407074511051178,0,0,0,-1,-1,19753.483416,unknown,2,2025-04-21T16:22:44.754+03:00,2025-04-20T21:57:49.637+03:00,6753,0.9838091,0,0,5541.095,5,6,2025-04-21T16:22:11.224+03:00,766934567.4238306,0,-38.72,100.1985,1,0.35,2025-04-21T16:06:01.980+03:00,83,1.383333333333333,2025-04-21T12:30:07.995+03:00,0.02023345852159405,0
2025-04-21T16:22:47.564+03:00,1745241766.564504,40.95219089591637,29.14024283873915,75.61634,-1,-1,-1,-1,30.00193829710236,18.60218947907108,-9999,19756.28814891667,-0.6738433837890625,0.655731201171875,-0.3398895263671875,19756.28311191667,1.867951715173482,-1.102609482929213,-0.7151012210080906,0.006846974603831768,-0.002487838733941317,0.007408930454403162,0.002298593521118164,-0.0008020401000976562,0.002127528190612793,XArbitraryZVertical,-0.2172163337132258,0.531466804588257,-0.7505688100616992,-0.3271185162446422,-0.6737768650054932,0.6556938290596008,-0.3407202064990997,0,0,0,-1,-1,19753.483416,unknown,2,2025-04-21T16:22:44.754+03:00,2025-04-20T21:57:49.637+03:00,6753,0.9838091,0,0,5541.095,5,6,2025-04-21T16:22:11.224+03:00,766934567.4238306,0,-38.72,100.1985,1,0.35,2025-04-21T16:06:01.980+03:00,83,1.383333333333333,2025-04-21T12:30:07.995+03:00,0.02023345852159405,0
2025-04-21T16:22:47.574+03:00,1745241766.564504,40.95219089591637,29.14024283873915,75.61634,-1,-1,-1,-1,30.00193829710236,18.60218947907108,-9999,19756.29822491667,-0.6716766357421875,0.6581268310546875,-0.3417816162109375,19756.29318691667,1.868078278257675,-1.10255889179911,-0.7151236920087596,0.009290425106883049,-0.002962680067867041,0.003075435291975737,4.047155380249023e-05,0.0002490878105163574,0.0009647607803344727,XArbitraryZVertical,-0.2172240010598614,0.5314507686514161,-0.7505955825158418,-0.3270780097368594,-0.6737464666366577,0.6557108163833618,-0.3407476246356964,0,0,0,-1,-1,19753.483416,unknown,2,2025-04-21T16:22:44.754+03:00,2025-04-20T21:57:49.637+03:00,6753,0.9838091,0,0,5541.095,5,6,2025-04-21T16:22:11.224+03:00,766934567.4238306,0,-38.72,100.1985,1,0.35,2025-04-21T16:06:01.980+03:00,83,1.383333333333333,2025-04-21T12:30:07.995+03:00,0.02023345852159405,0
2025-04-21T16:22:47.584+03:00,1745241766.564504,40.95219089591637,29.14024283873915,75.61634,-1,-1,-1,-1,30.00193829710236,18.60218947907108,-9999,19756.30829991667,-0.6716766357421875,0.6574859619140625,-0.339202880859375,19756.30326291667,1.868240910121451,-1.102451639133602,-0.7151288349979356,0.0123846186324954,0.00138905830681324,0.006518569774925709,0.001053690910339355,0.001847386360168457,-0.0002462863922119141,XArbitraryZVertical,-0.2172253812281502,0.5314169363674803,-0.7506339481865555,-0.3270439477703001,-0.6737068891525269,0.6557146906852722,-0.3408183455467224,0,0,0,-1,-1,19753.483416,unknown,2,2025-04-21T16:22:44.754+03:00,2025-04-20T21:57:49.637+03:00,6753,0.9838091,0,0,5541.095,5,6,2025-04-21T16:22:11.224+03:00,766934567.4238306,0,-38.72,100.1985,1,0.35,2025-04-21T16:06:01.980+03:00,83,1.383333333333333,2025-04-21T12:30:07.995+03:00,0.02023345852159405,0
2025-04-21T16:22:47.594+03:00,1745241766.564504,40.95219089591637,29.14024283873915,75.61634,-1,-1,-1,-1,30.00193829710236,18.60218947907108,-9999,19756.31837591667,-0.6738433837890625,0.656829833984375,-0.3350677490234375,19756.31333791667,1.868410657611177,-1.102305284542451,-0.7151546968939436,0.01051401440054178,0.006686618085950613,0.005661830771714449,0.00259089469909668,0.002819716930389404,-0.0003078579902648926,XArbitraryZVertical,-0.2172074830142621,0.5313814564513032,-0.7506782900392076,-0.327011815551937,-0.6736419200897217,0.6557342410087585,-0.3409093022346497,0,0,0,-1,-1,19753.483416,unknown,2,2025-04-21T16:22:44.754+03:00,2025-04-20T21:57:49.637+03:00,6753,0.9838091,0,0,5541.095,5,6,2025-04-21T16:22:11.224+03:00,766934567.4238306,0,-38.72,100.1985,1,0.35,2025-04-21T16:06:01.980+03:00,83,1.383333333333333,2025-04-21T12:30:07.995+03:00,0.02023345852159405,0
2025-04-21T16:22:47.604+03:00,1745241766.564504,40.95219089591637,29.14024283873915,75.61634,-1,-1,-1,-1,30.00193829710236,18.60218947907108,-9999,19756.32845091667,-0.6760101318359375,0.6578521728515625,-0.334381103515625,19756.32341391667,1.868578581576124,-1.102117584033029,-0.7151839552622428,0.01262776553630829,0.01061877608299255,0.00622349139302969,0.000724494457244873,0.001332700252532959,0.005348831415176392,XArbitraryZVertical,-0.2171725919546771,0.5313403286239022,-0.7507268561752288,-0.3269901571761046,-0.6735607385635376,0.6557562947273254,-0.3410270512104034,0,0,0,-1,-1,19753.483416,unknown,2,2025-04-21T16:22:44.754+03:00,2025-04-20T21:57:49.637+03:00,6753,0.9838091,0,0,5541.095,5,6,2025-04-21T16:22:11.224+03:00,766934567.4238306,0,-38.72,100.1985,1,0.35,2025-04-21T16:06:01.980+03:00,83,1.383333333333333,2025-04-21T12:30:07.995+03:00,0.02023345852159405,0
2025-04-21T16:22:47.614+03:00,1745241766.564504,40.95219089591637,29.14024283873915,75.61634,-1,-1,-1,-1,30.00193829710236,18.60218947907108,-9999,19756.33852691667,-0.6784515380859375,0.656951904296875,-0.3352508544921875,19756.33348891667,1.868740423621015,-1.101887539949863,-0.7152197457220743,0.01312098279595375,0.01610994711518288,0.008057876490056515,-0.002396225929260254,0.001443028450012207,0.006744354963302612,XArbitraryZVertical,-0.2171181325207238,0.5312946844962048,-0.7507791999313532,-0.3269802141423828,-0.6734612584114075,0.6557833552360535,-0.3411713540554047,0,0,0,-1,-1,19753.483416,unknown,2,2025-04-21T16:22:44.754+03:00,2025-04-20T21:57:49.637+03:00,6753,0.9838091,0,0,5541.095,5,6,2025-04-21T16:22:11.224+03:00,766934567.4238306,0,-38.72,100.1985,1,0.35,2025-04-21T16:06:01.980+03:00,83,1.383333333333333,2025-04-21T12:30:07.995+03:00,0.02023345852159405,0
2025-04-21T16:22:47.624+03:00,1745241766.564504,40.95219089591637,29.14024283873915,75.61634,-1,-1,-1,-1,30.00193829710236,18.60218947907108,-9999,19756.34860191667,-0.67523193359375,0.655792236328125,-0.3376922607421875,19756.34356491667,1.868911064901961,-1.101633344830593,-0.7152449686297995,0.009696491062641144,0.01528656482696533,0.008071758784353733,-0.004115164279937744,0.002110600471496582,0.006846994161605835,XArbitraryZVertical,-0.2170602034170185,0.5312413269204876,-0.7508353329825033,-0.3269764419501404,-0.673359751701355,0.6558023691177368,-0.3413350284099579,0,0,0,-1,-1,19753.483416,unknown,2,2025-04-21T16:22:44.754+03:00,2025-04-20T21:57:49.637+03:00,6753,0.9838091,0,0,5541.095,5,6,2025-04-21T16:22:11.224+03:00,766934567.4238306,0,-38.72,100.1985,1,0.35,2025-04-21T16:06:01.980+03:00,83,1.383333333333333,2025-04-21T12:30:07.995+03:00,0.02023345852159405,0
2025-04-21T16:22:47.634+03:00,1745241766.564504,40.95219089591637,29.14024283873915,75.61634,-1,-1,-1,-1,30.00193829710236,18.60218947907108,-9999,19756.35867791667,-0.6735687255859375,0.6562042236328125,-0.340484619140625,19756.35363991667,1.869045476440282,-1.101386048306698,-0.7152645879111035,0.006685254629701376,0.02039104513823986,0.005888498853892088,-0.003493905067443848,0.0005089044570922852,0.005237668752670288,XArbitraryZVertical,-0.2169969582279626,0.5311915403372313,-0.7508846508436979,-0.3269860726712386,-0.6732638478279114,0.6558172106742859,-0.3414957225322723,0,0,0,-1,-1,19753.483416,unknown,2,2025-04-21T16:22:44.754+03:00,2025-04-20T21:57:49.637+03:00,6753,0.9838091,0,0,5541.095,5,6,2025-04-21T16:22:11.224+03:00,766934567.4238306,0,-38.72,100.1985,1,0.35,2025-04-21T16:06:01.980+03:00,83,1.383333333333333,2025-04-21T12:30:07.995+03:00,0.02023345852159405,0
2025-04-21T16:22:47.645+03:00,1745241766.564504,40.95219089591637,29.14024283873915,75.61634,-1,-1,-1,-1,30.00193829710236,18.60218947907108,-9999,19756.36875291667,-0.6740570068359375,0.6594696044921875,-0.3460845947265625,19756.36371591667,1.869084286440009,-1.10113228534589,-0.7152900227163046,-0.0004144001577515155,0.02545298263430595,0.000809617864433676,0.0003107786178588867,7.772445678710938e-05,0.002883285284042358,XArbitraryZVertical,-0.2169040929707163,0.5311526208785715,-0.7509191696450336,-0.3270316036753527,-0.6731622815132141,0.6558364033699036,-0.3416590094566345,0,0,0,-1,-1,19753.483416,unknown,2,2025-04-21T16:22:44.754+03:00,2025-04-20T21:57:49.637+03:00,6753,0.9838091,0,0,5541.095,5,6,2025-04-21T16:22:11.224+03:00,766934567.4238306,0,-38.72,100.1985,1,0.35,2025-04-21T16:06:01.980+03:00,83,1.383333333333333,2025-04-21T12:30:07.995+03:00,0.02023345852159405,0
2025-04-21T16:22:47.654+03:00,1745241766.564504,40.95219089591637,29.14024283873915,75.61634,-1,-1,-1,-1,30.00193829710236,18.60218947907108,-9999,19756.37882891667,-0.6735076904296875,0.65997314453125,-0.3453826904296875,19756.37379091667,1.869048525814815,-1.100912773277159,-0.7152655794380424,0.0006782948039472103,0.02256185561418533,-0.006071723997592926,-0.001001179218292236,0.00221717357635498,-0.002576947212219238,XArbitraryZVertical,-0.216819759476008,0.5311140817371323,-0.7509365081832533,-0.3271103554025111,-0.6731016039848328,0.6558179259300232,-0.3418140411376953,0,0,0,-1,-1,19753.483416,unknown,2,2025-04-21T16:22:44.754+03:00,2025-04-20T21:57:49.637+03:00,6753,0.9838091,0,0,5541.095,5,6,2025-04-21T16:22:11.224+03:00,766934567.4238306,0,-38.72,100.1985,1,0.35,2025-04-21T16:06:01.980+03:00,83,1.383333333333333,2025-04-21T12:30:07.995+03:00,0.02023345852159405,0
2025-04-21T16:22:47.665+03:00,1745241766.564504,40.95219089591637,29.14024283873915,75.61634,-1,-1,-1,-1,30.00193829710236,18.60218947907108,-9999,19756.38890391667,-0.6737518310546875,0.658203125,-0.3405303955078125,19756.38386691667,1.868991621486948,-1.100713833373784,-0.7152026538840206,-0.003877574810758233,0.02752838283777237,-0.006344431545585394,-0.001551151275634766,0.004171967506408691,-0.003721326589584351,XArbitraryZVertical,-0.2167495161559729,0.5310709267323952,-0.7509471507062778,-0.3272025128573324,-0.6730703711509705,0.6557704210281372,-0.3419666290283203,0,0,0,-1,-1,19753.483416,unknown,2,2025-04-21T16:22:44.754+03:00,2025-04-20T21:57:49.637+03:00,6753,0.9838091,0,0,5541.095,5,6,2025-04-21T16:22:11.224+03:00,766934567.4238306,0,-38.72,100.1985,1,0.35,2025-04-21T16:06:01.980+03:00,83,1.383333333333333,2025-04-21T12:30:07.995+03:00,0.02023345852159405,0
2025-04-21T16:22:47.675+03:00,1745241766.564504,40.95219089591637,29.14024283873915,75.61634,-1,-1,-1,-1,30.00193829710236,18.60218947907108,-9999,19756.39897991667,-0.679656982421875,0.6556243896484375,-0.3389129638671875,19756.39394191667,1.868888345264806,-1.100479075558826,-0.7151632510199976,-0.006114630028605461,0.03408801555633545,-0.007227269466966391,-0.0001893043518066406,0.002965867519378662,-0.0003319680690765381,XArbitraryZVertical,-0.2166460998388112,0.5310331890467895,-0.7509547455273297,-0.3273151676810643,-0.6730132699012756,0.6557406783103943,-0.3421364426612854,0,0,0,-1,-1,19753.483416,unknown,2,2025-04-21T16:22:44.754+03:00,2025-04-20T21:57:49.637+03:00,6753,0.9838091,0,0,5541.095,5,6,2025-04-21T16:22:11.224+03:00,766934567.4238306,0,-38.72,100.1985,1,0.35,2025-04-21T16:06:01.980+03:00,83,1.383333333333333,2025-04-21T12:30:07.995+03:00,0.02023345852159405,0
2025-04-21T16:22:47.685+03:00,1745241766.564504,40.95219089591637,29.14024283873915,75.61634,-1,-1,-1,-1,30.00193829710236,18.60218947907108,-9999,19756.40905491667,-0.6782379150390625,0.6550445556640625,-0.3431549072265625,19756.40401791667,1.868689085720483,-1.10023620413889,-0.7151116493750779,-0.01450511906296015,0.04107914492487907,-0.01446157973259687,-0.004667341709136963,0.0004107356071472168,0.004165023565292358,XArbitraryZVertical,-0.216518116772825,0.5310012507567604,-0.750947059239485,-0.3274689878865783,-0.6729601621627808,0.6557016968727112,-0.3423151671886444,0,0,0,-1,-1,19753.483416,unknown,2,2025-04-21T16:22:44.754+03:00,2025-04-20T21:57:49.637+03:00,6753,0.9838091,0,0,5541.095,5,6,2025-04-21T16:22:11.224+03:00,766934567.4238306,0,-38.72,100.1985,1,0.35,2025-04-21T16:06:01.980+03:00,83,1.383333333333333,2025-04-21T12:30:07.995+03:00,0.02023345852159405,0
2025-04-21T16:22:47.695+03:00,1745241766.564504,40.95219089591637,29.14024283873915,75.61634,-1,-1,-1,-1,30.00193829710236,18.60218947907108,-9999,19756.41913091667,-0.6732635498046875,0.6556243896484375,-0.3452911376953125,19756.41409291667,1.868376164269576,-1.100054409650076,-0.7150482290636202,-0.01565906591713428,0.0416053868830204,-0.01617665588855743,-0.007011711597442627,-0.0004110336303710938,0.001071393489837646,XArbitraryZVertical,-0.2163864182023599,0.530988422778868,-0.7509139150877312,-0.3276530907847276,-0.6729351282119751,0.6556538343429565,-0.3424564301967621,0,0,0,-1,-1,19753.483416,unknown,2,2025-04-21T16:22:44.754+03:00,2025-04-20T21:57:49.637+03:00,6753,0.9838091,0,0,5541.095,5,6,2025-04-21T16:22:11.224+03:00,766934567.4238306,0,-38.72,100.1985,1,0.35,2025-04-21T16:06:01.980+03:00,83,1.383333333333333,2025-04-21T12:30:07.995+03:00,0.02023345852159405,0
2025-04-21T16:22:47.705+03:00,1745241766.564504,40.95219089591637,29.14024283873915,75.61634,-1,-1,-1,-1,30.00193829710236,18.60218947907108,-9999,19756.42920591667,-0.672119140625,0.6540069580078125,-0.3439483642578125,19756.42416891667,1.868124979042386,-1.099763646851778,-0.7149818522586062,-0.005631599109619856,0.05043176561594009,-0.009433066472411156,-0.001762568950653076,-0.0003761649131774902,-0.002390593290328979,XArbitraryZVertical,-0.2162312015897166,0.5309502370426344,-0.7509025018572789,-0.3278435496806004,-0.6728743314743042,0.6556037068367004,-0.3426718413829803,0,0,0,-1,-1,19753.483416,unknown,2,2025-04-21T16:22:44.754+03:00,2025-04-20T21:57:49.637+03:00,6753,0.9838091,0,0,5541.095,5,6,2025-04-21T16:22:11.224+03:00,766934567.4238306,0,-38.72,100.1985,1,0.35,2025-04-21T16:06:01.980+03:00,83,1.383333333333333,2025-04-21T12:30:07.995+03:00,0.02023345852159405,0
2025-04-21T16:22:47.715+03:00,1745241766.564504,40.95219089591637,29.14024283873915,75.61634,-1,-1,-1,-1,30.00193829710236,18.60218947907108,-9999,19756.43928191667,-0.673065185546875,0.6552734375,-0.341949462890625,19756.43424391667,1.868030291751154,-1.099260171952954,-0.7149290321903349,-0.004309872165322304,0.0619502067565918,-0.008334511891007423,0.0005828142166137695,-0.0007940530776977539,-0.002066701650619507,XArbitraryZVertical,-0.2160334957888349,0.530863828003333,-0.7509400075142739,-0.3280277110025484,-0.6727324724197388,0.6555638313293457,-0.3430262506008148,0,0,0,-1,-1,19753.483416,unknown,2,2025-04-21T16:22:44.754+03:00,2025-04-20T21:57:49.637+03:00,6753,0.9838091,0,0,5541.095,5,6,2025-04-21T16:22:11.224+03:00,766934567.4238306,0,-38.72,100.1985,1,0.35,2025-04-21T16:06:01.980+03:00,83,1.383333333333333,2025-04-21T12:30:07.995+03:00,0.02023345852159405,0
2025-04-21T16:22:47.725+03:00,1745241766.564504,40.95219089591637,29.14024283873915,75.61634,-1,-1,-1,-1,30.00193829710236,18.60218947907108,-9999,19756.44935691667,-0.6721038818359375,0.6554412841796875,-0.347503662109375,19756.44431991667,1.867814975310043,-1.098746854575339,-0.7148976604348207,-0.02091215178370476,0.06869372725486755,-0.01292719971388578,-0.0006736516952514648,0.0001909136772155762,0.001416027545928955,XArbitraryZVertical,-0.2157933689953123,0.5307944825461307,-0.7509592939589764,-0.328253743407125,-0.6725746393203735,0.6555401086807251,-0.343380868434906,0,0,0,-1,-1,19753.483416,unknown,2,2025-04-21T16:22:44.754+03:00,2025-04-20T21:57:49.637+03:00,6753,0.9838091,0,0,5541.095,5,6,2025-04-21T16:22:11.224+03:00,766934567.4238306,0,-38.72,100.1985,1,0.35,2025-04-21T16:06:01.980+03:00,83,1.383333333333333,2025-04-21T12:30:07.995+03:00,0.02023345852159405,0
2025-04-21T16:22:47.735+03:00,1745241766.564504,40.95219089591637,29.14024283873915,75.61634,-1,-1,-1,-1,30.00193829710236,18.60218947907108,-9999,19756.45943291667,-0.669769287109375,0.65155029296875,-0.354278564453125,19756.45439491667,1.867246677972048,-1.098416448127535,-0.7149196884123549,-0.05748267844319344,0.07383682578802109,-0.02215452119708061,-9.816884994506836e-05,9.79304313659668e-05,-0.001588016748428345,XArbitraryZVertical,-0.2155116817614595,0.5308073870237845,-0.7509021357488781,-0.3285483834834366,-0.6724481582641602,0.6555567979812622,-0.3435964584350586,0,0,0,-1,-1,19753.483416,unknown,2,2025-04-21T16:22:44.754+03:00,2025-04-20T21:57:49.637+03:00,6753,0.9838091,0,0,5541.095,5,6,2025-04-21T16:22:11.224+03:00,766934567.4238306,0,-38.72,100.1985,1,0.35,2025-04-21T16:06:01.980+03:00,83,1.383333333333333,2025-04-21T12:30:07.995+03:00,0.02023345852159405,0
2025-04-21T16:22:47.745+03:00,1745241766.564504,40.95219089591637,29.14024283873915,75.61634,-1,-1,-1,-1,30.00193829710236,18.60218947907108,-9999,19756.46950791667,-0.670013427734375,0.6520843505859375,-0.3550567626953125,19756.46447091667,1.866238682053406,-1.098228845463477,-0.7150282778456963,-0.09025181084871292,0.09379349648952484,-0.02927408181130886,0.002200186252593994,-0.002501785755157471,-0.00813177227973938,XArbitraryZVertical,-0.215139884389874,0.5309140347714162,-0.7507594411195635,-0.3289456987747009,-0.6723203659057617,0.6556387543678284,-0.3436902463436127,0,0,0,-1,-1,19753.483416,unknown,2,2025-04-21T16:22:44.754+03:00,2025-04-20T21:57:49.637+03:00,6753,0.9838091,0,0,5541.095,5,6,2025-04-21T16:22:11.224+03:00,766934567.4238306,0,-38.72,100.1985,1,0.35,2025-04-21T16:06:01.980+03:00,83,1.383333333333333,2025-04-21T12:30:07.995+03:00,0.02023345852159405,0
2025-04-21T16:22:47.755+03:00,1745241766.564504,40.95219089591637,29.14024283873915,75.61634,-1,-1,-1,-1,30.00193829710236,18.60218947907108,-9999,19756.47958391667,-0.6709136962890625,0.6547393798828125,-0.368499755859375,19756.47454591667,1.864866249671977,-1.098057747660695,-0.7151711194148864,-0.0971512645483017,0.119718037545681,-0.04469405114650726,0.002180099487304688,-0.004532158374786377,-0.01089751720428467,XArbitraryZVertical,-0.2146667999545948,0.5310714134340433,-0.7505556031119058,-0.3294655527300833,-0.6721782088279724,0.6557466387748718,-0.3437626361846924,0,0,0,-1,-1,19753.483416,unknown,2,2025-04-21T16:22:44.754+03:00,2025-04-20T21:57:49.637+03:00,6753,0.9838091,0,0,5541.095,5,6,2025-04-21T16:22:11.224+03:00,766934567.4238306,0,-38.72,100.1985,1,0.35,2025-04-21T16:06:01.980+03:00,83,1.383333333333333,2025-04-21T12:30:07.995+03:00,0.02023345852159405,0
2025-04-21T16:22:47.765+03:00,1745241766.564504,40.95219089591637,29.14024283873915,75.61634,-1,-1,-1,-1,30.00193829710236,18.60218947907108,-9999,19756.48965991667,-0.6706085205078125,0.65997314453125,-0.385528564453125,19756.48462291667,1.863396024144428,-1.09783664815153,-0.7151297401532052,-0.08895451575517654,0.1143243983387947,-0.06009121611714363,0.001639902591705322,-0.001327097415924072,-0.01786243915557861,XArbitraryZVertical,-0.2142062927010031,0.53118157092757,-0.7503358150435503,-0.3300877276786443,-0.6721263527870178,0.6557154059410095,-0.3439235985279083,0,0,0,-1,-1,19753.483416,unknown,2,2025-04-21T16:22:44.754+03:00,2025-04-20T21:57:49.637+03:00,6753,0.9838091,0,0,5541.095,5,6,2025-04-21T16:22:11.224+03:00,766934567.4238306,0,-38.72,100.1985,1,0.35,2025-04-21T16:06:01.980+03:00,83,1.383333333333333,2025-04-21T12:30:07.995+03:00,0.02023345852159405,0
2025-04-21T16:22:47.775+03:00,1745241766.564504,40.95219089591637,29.14024283873915,75.61634,-1,-1,-1,-1,30.00193829710236,18.60218947907108,-9999,19756.49973591667,-0.6692352294921875,0.6778106689453125,-0.38275146484375,19756.49469791667,1.862159946495179,-1.097510323523501,-0.7148420547364842,-0.04304242134094238,0.1096894294023514,-0.07044824957847595,0.001619160175323486,0.0001260638236999512,-0.03777506947517395,XArbitraryZVertical,-0.2138453033052332,0.5311833615922703,-0.7501590144242439,-0.3307199800886172,-0.6721818447113037,0.6554981470108032,-0.3442288339138031,0,0,0,-1,-1,19753.483416,unknown,2,2025-04-21T16:22:44.754+03:00,2025-04-20T21:57:49.637+03:00,6753,0.9838091,0,0,5541.095,5,6,2025-04-21T16:22:11.224+03:00,766934567.4238306,0,-38.72,100.1985,1,0.35,2025-04-21T16:06:01.980+03:00,83,1.383333333333333,2025-04-21T12:30:07.995+03:00,0.02023345852159405,0
2025-04-21T16:22:47.786+03:00,1745241766.564504,40.95219089591637,29.14024283873915,75.61634,-1,-1,-1,-1,30.00193829710236,18.60218947907108,-9999,19756.50981091667,-0.6773834228515625,0.6906890869140625,-0.3841552734375,19756.50477391667,1.861529769166549,-1.096746863471047,-0.7141527323734707,0.01870276778936386,0.12740857899189,-0.0819765031337738,0.002932965755462646,0.01515787839889526,-0.03940567374229431,XArbitraryZVertical,-0.2136065526021115,0.5309408488620806,-0.750118251157801,-0.3313555340766093,-0.6723207235336304,0.6549774408340454,-0.3449481129646301,0,0,0,-1,-1,19753.483416,unknown,2,2025-04-21T16:22:44.754+03:00,2025-04-20T21:57:49.637+03:00,6753,0.9838091,0,0,5541.095,5,6,2025-04-21T16:22:11.224+03:00,766934567.4238306,0,-38.72,100.1985,1,0.35,2025-04-21T16:06:01.980+03:00,83,1.383333333333333,2025-04-21T12:30:07.995+03:00,0.02023345852159405,0
2025-04-21T16:22:47.796+03:00,1745241766.564504,40.95219089591637,29.14024283873915,75.61634,-1,-1,-1,-1,30.00193829710236,18.60218947907108,-9999,19756.51988691667,-0.6941070556640625,0.6862335205078125,-0.3816986083984375,19756.51484891667,1.861509783321392,-1.095258992953039,-0.713126790270701,0.06386572122573853,0.1811655461788177,-0.09857784956693649,-0.0004934072494506836,0.03331327438354492,-0.03696906566619873,XArbitraryZVertical,-0.2133630075458265,0.5304228919588304,-0.7502469075178787,-0.3320501784763609,-0.6724039316177368,0.6542018055915833,-0.3462555706501007,0,0,0,-1,-1,19753.483416,unknown,2,2025-04-21T16:22:44.754+03:00,2025-04-20T21:57:49.637+03:00,6753,0.9838091,0,0,5541.095,5,6,2025-04-21T16:22:11.224+03:00,766934567.4238306,0,-38.72,100.1985,1,0.35,2025-04-21T16:06:01.980+03:00,83,1.383333333333333,2025-04-21T12:30:07.995+03:00,0.02023345852159405,0
2025-04-21T16:22:47.819+03:00,1745241766.564504,40.95219089591637,29.14024283873915,75.61634,-1,-1,-1,-1,30.00193829710236,18.60218947907108,-9999,19756.52996191667,-0.696441650390625,0.6851959228515625,-0.389434814453125,19756.52492491667,1.861968330618162,-1.092926752300339,-0.7118555161616655,0.1095705553889275,0.2170712798833847,-0.09743379801511765,-0.01676970720291138,0.03650301694869995,-0.03439399600028992,XArbitraryZVertical,-0.2130058466240685,0.5296470733389966,-0.7505385267112786,-0.3328576882504732,-0.6723324060440063,0.6532397866249084,-0.3482049703598022,0,0,0,-1,-1,19753.483416,unknown,2,2025-04-21T16:22:44.754+03:00,2025-04-20T21:57:49.637+03:00,6753,0.9838091,0,0,5541.095,5,6,2025-04-21T16:22:11.224+03:00,766934567.4238306,0,-38.72,100.1985,1,0.35,2025-04-21T16:06:01.980+03:00,83,1.383333333333333,2025-04-21T12:30:07.995+03:00,0.02023345852159405,0
2025-04-21T16:22:47.822+03:00,1745241766.564504,40.95219089591637,29.14024283873915,75.61634,-1,-1,-1,-1,30.00193829710236,18.60218947907108,-9999,19756.54003791667,-0.6776885986328125,0.694183349609375,-0.4039154052734375,19756.53499991667,1.862747172644856,-1.09028899555712,-0.7102303471391715,0.1404725462198257,0.1982784271240234,-0.1396480947732925,-0.02627146244049072,0.03060859441757202,-0.03390157222747803,XArbitraryZVertical,-0.2127281960533439,0.5286898563954727,-0.7509070180705419,-0.3337249351962579,-0.6723521947860718,0.6520084142684937,-0.3504675030708313,0,0,0,-1,-1,19753.483416,unknown,2,2025-04-21T16:22:44.754+03:00,2025-04-20T21:57:49.637+03:00,6753,0.9838091,0,0,5541.095,5,6,2025-04-21T16:22:11.224+03:00,766934567.4238306,0,-38.72,100.1985,1,0.35,2025-04-21T16:06:01.980+03:00,83,1.383333333333333,2025-04-21T12:30:07.995+03:00,0.02023345852159405,0
2025-04-21T16:22:47.826+03:00,1745241766.564504,40.95219089591637,29.14024283873915,75.61634,-1,-1,-1,-1,30.00193829710236,18.60218947907108,-9999,19756.55011391667,-0.667236328125,0.6791534423828125,-0.406219482421875,19756.54507591667,1.863629721044785,-1.088107555484198,-0.7082405687846385,0.1503739058971405,0.11417605727911,-0.1531223654747009,-0.01197373867034912,0.04278451204299927,-0.04678776860237122,XArbitraryZVertical,-0.2127617257433767,0.5276978349082253,-0.7512353286903194,-0.3345339373663548,-0.6727339029312134,0.6504984498023987,-0.3525348901748657,0,0,0,-1,-1,19753.483416,unknown,2,2025-04-21T16:22:44.754+03:00,2025-04-20T21:57:49.637+03:00,6753,0.9838091,0,0,5541.095,5,6,2025-04-21T16:22:11.224+03:00,766934567.4238306,0,-38.72,100.1985,1,0.35,2025-04-21T16:06:01.980+03:00,83,1.383333333333333,2025-04-21T12:30:07.995+03:00,0.02023345852159405,0
2025-04-21T16:22:47.836+03:00,1745241766.564504,40.95219089591637,29.14024283873915,75.61634,-1,-1,-1,-1,30.00193829710236,18.60218947907108,-9999,19756.56018891667,-0.667083740234375,0.665252685546875,-0.39105224609375,19756.55515091667,1.864373515567874,-1.086805651864122,-0.7061884626621641,0.1139847487211227,0.05386664718389511,-0.1395200043916702,0.004219293594360352,0.03636407852172852,-0.05412667989730835,XArbitraryZVertical,-0.2131074809229354,0.5268489433922616,-0.7514456515436664,-0.3351786992341703,-0.6734544634819031,0.6489385366439819,-0.3540307879447937,0,0,0,-1,-1,19753.483416,unknown,2,2025-04-21T16:22:44.754+03:00,2025-04-20T21:57:49.637+03:00,6753,0.9838091,0,0,5541.095,5,6,2025-04-21T16:22:11.224+03:00,766934567.4238306,0,-38.72,100.1985,1,0.35,2025-04-21T16:06:01.980+03:00,83,1.383333333333333,2025-04-21T12:30:07.995+03:00,0.02023345852159405,0
2025-04-21T16:22:47.846+03:00,1745241766.564504,40.95219089591637,29.14024283873915,75.61634,-1,-1,-1,-1,30.00193829710236,18.60218947907108,-9999,19756.57026491667,-0.67010498046875,0.6430206298828125,-0.365264892578125,19756.56522691667,1.86442981238309,-1.08647078773262,-0.7047082951701251,0.02082331106066704,0.01306428946554661,-0.1191473826766014,0.008108556270599365,0.02238470315933228,-0.04327675700187683,XArbitraryZVertical,-0.2134570084724839,0.5263882157185075,-0.7514524870479913,-0.335664386320345,-0.6741851568222046,0.6478116512298584,-0.3547030985355377,0,0,0,-1,-1,19753.483416,unknown,2,2025-04-21T16:22:44.754+03:00,2025-04-20T21:57:49.637+03:00,6753,0.9838091,0,0,5541.095,5,6,2025-04-21T16:22:11.224+03:00,766934567.4238306,0,-38.72,100.1985,1,0.35,2025-04-21T16:06:01.980+03:00,83,1.383333333333333,2025-04-21T12:30:07.995+03:00,0.02023345852159405,0
2025-04-21T16:22:47.856+03:00,1745241766.564504,40.95219089591637,29.14024283873915,75.61634,-1,-1,-1,-1,30.00193829710236,18.60218947907108,-9999,19756.58033991667,-0.680999755859375,0.6160430908203125,-0.3516387939453125,19756.57530191667,1.863216966285488,-1.087162031200612,-0.7038910956983302,-0.1272620260715485,0.01430745236575603,-0.1157478541135788,0.006548523902893066,0.006192386150360107,-0.0227905809879303,XArbitraryZVertical,-0.2136516355909806,0.5264137383576216,-0.7511536057312239,-0.3361693862087972,-0.6748987436294556,0.6471889019012451,-0.3544830977916718,0,0,0,-1,-1,19753.483416,unknown,2,2025-04-21T16:22:44.754+03:00,2025-04-20T21:57:49.637+03:00,6753,0.9838091,0,0,5541.095,5,6,2025-04-21T16:22:11.224+03:00,766934567.4238306,0,-38.72,100.1985,1,0.35,2025-04-21T16:06:01.980+03:00,83,1.383333333333333,2025-04-21T12:30:07.995+03:00,0.02023345852159405,0
2025-04-21T16:22:47.866+03:00,1745241766.564504,40.95219089591637,29.14024283873915,75.61634,-1,-1,-1,-1,30.00193829710236,18.60218947907108,-9999,19756.59041491667,-0.68389892578125,0.6055755615234375,-0.36163330078125,19756.58537791667,1.860447001535925,-1.088670957693887,-0.7037913214732672,-0.2389327585697174,0.03724512457847595,-0.1030948460102081,-0.001633942127227783,-0.02228081226348877,0.001824796199798584,XArbitraryZVertical,-0.2135197637819581,0.5269366032681256,-0.7505237293992935,-0.3368400982227799,-0.6754900813102722,0.6471127867698669,-0.353494256734848,0,0,0,-1,-1,19753.483416,unknown,2,2025-04-21T16:22:44.754+03:00,2025-04-20T21:57:49.637+03:00,6753,0.9838091,0,0,5541.095,5,6,2025-04-21T16:22:11.224+03:00,766934567.4238306,0,-38.72,100.1985,1,0.35,2025-04-21T16:06:01.980+03:00,83,1.383333333333333,2025-04-21T12:30:07.995+03:00,0.02023345852159405,0
2025-04-21T16:22:47.876+03:00,1745241766.564504,40.95219089591637,29.14024283873915,75.61634,-1,-1,-1,-1,30.00193829710236,18.60218947907108,-9999,19756.60049091667,-0.6691436767578125,0.619659423828125,-0.3863067626953125,19756.59545291667,1.856674775250257,-1.090849776818988,-0.7041456084316573,-0.3050353527069092,0.01745224744081497,-0.104718305170536,-0.008286237716674805,-0.03924405574798584,-0.005689412355422974,XArbitraryZVertical,-0.2132318529208667,0.5278014081622728,-0.7496649468552016,-0.3375798423850609,-0.6760551333427429,0.6473828554153442,-0.3519156873226166,0,0,0,-1,-1,19753.483416,unknown,2,2025-04-21T16:22:44.754+03:00,2025-04-20T21:57:49.637+03:00,6753,0.9838091,0,0,5541.095,5,6,2025-04-21T16:22:11.224+03:00,766934567.4238306,0,-38.72,100.1985,1,0.35,2025-04-21T16:06:01.980+03:00,83,1.383333333333333,2025-04-21T12:30:07.995+03:00,0.02023345852159405,0
2025-04-21T16:22:47.886+03:00,1745241766.564504,40.95219089591637,29.14024283873915,75.61634,-1,-1,-1,-1,30.00193829710236,18.60218947907108,-9999,19756.61056691667,-0.650482177734375,0.653564453125,-0.40948486328125,19756.60552891667,1.852608452377314,-1.093569429729398,-0.7047686683834226,-0.3055243790149689,-0.03357158973813057,-0.08039888739585876,0.0006412267684936523,-0.03781139850616455,-0.02419412136077881,XArbitraryZVertical,-0.2129818178874079,0.528860578375137,-0.7487058299087621,-0.3382081403464384,-0.6766513586044312,0.6478576064109802,-0.3498904705047607,0,0,0,-1,-1,19753.483416,unknown,2,2025-04-21T16:22:44.754+03:00,2025-04-20T21:57:49.637+03:00,6753,0.9838091,0,0,5541.095,5,6,2025-04-21T16:22:11.224+03:00,766934567.4238306,0,-38.72,100.1985,1,0.35,2025-04-21T16:06:01.980+03:00,83,1.383333333333333,2025-04-21T12:30:07.995+03:00,0.02023345852159405,0
2025-04-21T16:22:47.896+03:00,1745241766.564504,40.95219089591637,29.14024283873915,75.61634,-1,-1,-1,-1,30.00193829710236,18.60218947907108,-9999,19756.62064191667,-0.6453094482421875,0.670074462890625,-0.4075469970703125,19756.61560391667,1.848460670263276,-1.096862284669882,-0.7055014114391078,-0.3159013986587524,-0.09107430279254913,-0.08033496886491776,0.02074575424194336,-0.006661713123321533,-0.05696013569831848,XArbitraryZVertical,-0.2128864388886903,0.5300542690380728,-0.7476747476404457,-0.3386799920857048,-0.6773771643638611,0.6484156250953674,-0.3474436700344086,0,0,0,-1,-1,19753.483416,unknown,2,2025-04-21T16:22:44.754+03:00,2025-04-20T21:57:49.637+03:00,6753,0.9838091,0,0,5541.095,5,6,2025-04-21T16:22:11.224+03:00,766934567.4238306,0,-38.72,100.1985,1,0.35,2025-04-21T16:06:01.980+03:00,83,1.383333333333333,2025-04-21T12:30:07.995+03:00,0.02023345852159405,0
2025-04-21T16:22:47.906+03:00,1745241766.564504,40.95219089591637,29.14024283873915,75.61634,-1,-1,-1,-1,30.00193829710236,18.60218947907108,-9999,19756.63071791667,-0.6516571044921875,0.6646270751953125,-0.385040283203125,19756.62567991667,1.844140556255814,-1.100702099067357,-0.7063906121238549,-0.3621844053268433,-0.1300858110189438,-0.06320828199386597,0.03326410055160522,0.01773190498352051,-0.06688982248306274,XArbitraryZVertical,-0.212895741569769,0.5314000212152642,-0.7465609923003819,-0.3390221531960375,-0.6781920790672302,0.6490923166275024,-0.3445788323879242,0,0,0,-1,-1,19753.483416,unknown,2,2025-04-21T16:22:44.754+03:00,2025-04-20T21:57:49.637+03:00,6753,0.9838091,0,0,5541.095,5,6,2025-04-21T16:22:11.224+03:00,766934567.4238306,0,-38.72,100.1985,1,0.35,2025-04-21T16:06:01.980+03:00,83,1.383333333333333,2025-04-21T12:30:07.995+03:00,0.02023345852159405,0
2025-04-21T16:22:47.917+03:00,1745241766.564504,40.95219089591637,29.14024283873915,75.61634,-1,-1,-1,-1,30.00193829710236,18.60218947907108,-9999,19756.64079291667,-0.6501312255859375,0.643890380859375,-0.36932373046875,19756.63575491667,1.838798340575442,-1.105601654341254,-0.7076640597059948,-0.4730280935764313,-0.1514699310064316,-0.0779198482632637,0.02833032608032227,0.01905244588851929,-0.05270454287528992,XArbitraryZVertical,-0.212901345595645,0.5331347147622153,-0.7451734322110778,-0.3393476539333429,-0.679132878780365,0.6500605344772339,-0.3408807814121246,0,0,0,-1,-1,19753.483416,unknown,2,2025-04-21T16:22:44.754+03:00,2025-04-20T21:57:49.637+03:00,6753,0.9838091,0,0,5541.095,5,6,2025-04-21T16:22:11.224+03:00,766934567.4238306,0,-38.72,100.1985,1,0.35,2025-04-21T16:06:01.980+03:00,83,1.383333333333333,2025-04-21T12:30:07.995+03:00,0.02023345852159405,0
2025-04-21T16:22:47.927+03:00,1745241766.564504,40.95219089591637,29.14024283873915,75.61634,-1,-1,-1,-1,30.00193829710236,18.60218947907108,-9999,19756.65086891667,-0.6529998779296875,0.626953125,-0.366180419921875,19756.64583091667,1.832404045851563,-1.111063866457927,-0.7093042079594212,-0.5475687384605408,-0.0752732902765274,-0.05281536281108856,0.03037017583847046,0.001068174839019775,-0.0369037389755249,XArbitraryZVertical,-0.2127102318502338,0.535171037743284,-0.7435603639320237,-0.3398002785320333,-0.6800283193588257,0.6513059735298157,-0.3366926312446594,0,0,0,-1,-1,19753.483416,unknown,2,2025-04-21T16:22:44.754+03:00,2025-04-20T21:57:49.637+03:00,6753,0.9838091,0,0,5541.095,5,6,2025-04-21T16:22:11.224+03:00,766934567.4238306,0,-38.72,100.1985,1,0.35,2025-04-21T16:06:01.980+03:00,83,1.383333333333333,2025-04-21T12:30:07.995+03:00,0.02023345852159405,0
2025-04-21T16:22:47.937+03:00,1745241766.564504,40.95219089591637,29.14024283873915,75.61634,-1,-1,-1,-1,30.00193829710236,18.60218947907108,-9999,19756.66094391667,-0.621063232421875,0.62432861328125,-0.3845062255859375,19756.65590591667,1.825034599449739,-1.115738110106599,-0.7118926090480587,-0.7298842668533325,-0.01790348067879677,-0.03788221627473831,0.02698671817779541,-0.02166104316711426,-0.03200843930244446,XArbitraryZVertical,-0.2116528524051381,0.5374187732548518,-0.741899499552878,-0.3405424281530842,-0.6800780892372131,0.6532678604125977,-0.3327682614326477,0,0,0,-1,-1,19753.483416,unknown,2,2025-04-21T16:22:44.754+03:00,2025-04-20T21:57:49.637+03:00,6753,0.9838091,0,0,5541.095,5,6,2025-04-21T16:22:11.224+03:00,766934567.4238306,0,-38.72,100.1985,1,0.35,2025-04-21T16:06:01.980+03:00,83,1.383333333333333,2025-04-21T12:30:07.995+03:00,0.02023345852159405,0
2025-04-21T16:22:47.947+03:00,1745241766.564504,40.95219089591637,29.14024283873915,75.61634,-1,-1,-1,-1,30.00193829710236,18.60218947907108,-9999,19756.67101991667,-0.5830078125,0.60107421875,-0.3533477783203125,19756.66598191667,1.813711000831227,-1.12565091312261,-0.714625933610332,-0.9610678553581238,-0.4385409355163574,-0.1680405884981155,0.04185187816619873,-0.03167784214019775,-0.05203324556350708,XArbitraryZVertical,-0.2114037129858104,0.5410066809930936,-0.7390198015897153,-0.3412768447209435,-0.6817291378974915,0.6553348898887634,-0.3252404928207397,0,0,0,-1,-1,19753.483416,unknown,2,2025-04-21T16:22:44.754+03:00,2025-04-20T21:57:49.637+03:00,6753,0.9838091,0,0,5541.095,5,6,2025-04-21T16:22:11.224+03:00,766934567.4238306,0,-38.72,100.1985,1,0.35,2025-04-21T16:06:01.980+03:00,83,1.383333333333333,2025-04-21T12:30:07.995+03:00,0.02023345852159405,0
