loggingTime(txt),locationTimestamp_since1970(s),locationLatitude(WGS84),locationLongitude(WGS84),locationAltitude(m),locationSpeed(m/s),locationSpeedAccuracy(m/s),locationCourse(°),locationCourseAccuracy(°),locationVerticalAccuracy(m),locationHorizontalAccuracy(m),locationFloor(Z),accelerometerTimestamp_sinceReboot(s),accelerometerAccelerationX(G),accelerometerAccelerationY(G),accelerometerAccelerationZ(G),motionTimestamp_sinceReboot(s),motionYaw(rad),motionRoll(rad),motionPitch(rad),motionRotationRateX(rad/s),motionRotationRateY(rad/s),motionRotationRateZ(rad/s),motionUserAccelerationX(G),motionUserAccelerationY(G),motionUserAccelerationZ(G),motionAttitudeReferenceFrame(txt),motionQuaternionX(R),motionQuaternionY(R),motionQuaternionZ(R),motionQuaternionW(R),motionGravityX(G),motionGravityY(G),motionGravityZ(G),motionMagneticFieldX(µT),motionMagneticFieldY(µT),motionMagneticFieldZ(µT),motionHeading(°),motionMagneticFieldCalibrationAccuracy(Z),activityTimestamp_sinceReboot(s),activity(txt),activityActivityConfidence(Z),activityActivityStartDate(txt),pedometerStartDate(txt),pedometerNumberofSteps(N),pedometerAverageActivePace(s/m),pedometerCurrentPace(s/m),pedometerCurrentCadence(steps/s),pedometerDistance(m),pedometerFloorAscended(N),pedometerFloorDescended(N),pedometerEndDate(txt),altimeterTimestamp_sinceReboot(s),altimeterReset(bool),altimeterRelativeAltitude(m),altimeterPressure(kPa),batteryState(N),batteryLevel(R),heartRateBPMTimestamp(txt),heartRateBPM(N),heartRateBPS(R),heartRateVariabilityTimestamp(txt),heartRateVariability(ms),label
2025-04-21T15:12:25.094+03:00,1745237542.616518,40.95223020707327,29.14028338385629,76.36061,-1,-1,-1,-1,30,18.16335761253691,-9999,17930.12976325,-0.7115631103515625,0.450531005859375,-0.459747314453125,17930.11968725,-0.5809172182847946,-1.002097643802507,-0.4823500325009685,0.1264243721961975,0.09382671117782593,-0.02030392922461033,-0.03336310386657715,0.01074707508087158,0.001140773296356201,XArbitraryZVertical,0.3342956980604263,0.3869107072122165,0.1339963349002014,-0.8488766114703655,-0.7464677095413208,0.4638623595237732,-0.477092981338501,0,0,0,-1,-1,17929.96478025,unknown,2,2025-04-21T15:12:24.903+03:00,2025-04-20T21:57:49.637+03:00,6664,0.9608214,0,0,5475.677,5,6,2025-04-21T15:12:24.903+03:00,766930345.0033971,0,-44.25,100.2639,1,0.45,2025-04-21T15:12:15.606+03:00,97,1.616666666666667,2025-04-21T12:30:07.995+03:00,0.02023345852159405,0
2025-04-21T15:12:25.096+03:00,1745237542.616518,40.95223020707327,29.14028338385629,76.36061,-1,-1,-1,-1,30,18.16335761253691,-9999,17930.13983925,-0.6927642822265625,0.444183349609375,-0.4630126953125,17930.12976325,-0.5800319488842927,-1.00124826830541,-0.4815774601872819,0.09526991844177246,0.0215477179735899,-0.01909592002630234,0.00576329231262207,-0.004300206899642944,0.01399165391921997,XArbitraryZVertical,0.3337649408171393,0.3868345827865921,0.133958121915162,-0.8491261344185557,-0.7463637590408325,0.4631778001785278,-0.4779199361801147,0,0,0,-1,-1,17929.96478025,unknown,2,2025-04-21T15:12:24.903+03:00,2025-04-20T21:57:49.637+03:00,6664,0.9608214,0,0,5475.677,5,6,2025-04-21T15:12:24.903+03:00,766930345.0033971,0,-44.25,100.2639,1,0.45,2025-04-21T15:12:15.606+03:00,97,1.616666666666667,2025-04-21T12:30:07.995+03:00,0.02023345852159405,0
2025-04-21T15:12:25.096+03:00,1745237542.616518,40.95223020707327,29.14028338385629,76.36061,-1,-1,-1,-1,30,18.16335761253691,-9999,17930.14991425,-0.746978759765625,0.4566802978515625,-0.4744873046875,17930.13983925,-0.5792243395149476,-1.000580831197272,-0.4807872372358426,0.09654325246810913,0.05432996526360512,-0.002636885037645698,0.06089729070663452,-0.01895004510879517,0.02007350325584412,XArbitraryZVertical,0.3332543351662946,0.3868253545566501,0.13392653953804,-0.8493357930493434,-0.7463524341583252,0.4624772965908051,-0.4786153733730316,0,0,0,-1,-1,17929.96478025,unknown,2,2025-04-21T15:12:24.903+03:00,2025-04-20T21:57:49.637+03:00,6664,0.9608214,0,0,5475.677,5,6,2025-04-21T15:12:24.903+03:00,766930345.0033971,0,-44.25,100.2639,1,0.45,2025-04-21T15:12:15.606+03:00,97,1.616666666666667,2025-04-21T12:30:07.995+03:00,0.02023345852159405,0
2025-04-21T15:12:25.103+03:00,1745237542.616518,40.95223020707327,29.14028338385629,76.36061,-1,-1,-1,-1,30,18.16335761253691,-9999,17930.15999025,-0.7521820068359375,0.4590301513671875,-0.46417236328125,17930.14991425,-0.5783097767510472,-0.9994594012089045,-0.4802188973642847,0.09384839981794357,0.07359181344509125,0.001544544007629156,0.0183599591255188,-0.009824842214584351,0.006739437580108643,XArbitraryZVertical,0.3327795322791926,0.3866015089243486,0.1338685687921225,-0.849632942927026,-0.746036171913147,0.4619733393192291,-0.4795941114425659,0,0,0,-1,-1,17929.96478025,unknown,2,2025-04-21T15:12:24.903+03:00,2025-04-20T21:57:49.637+03:00,6664,0.9608214,0,0,5475.677,5,6,2025-04-21T15:12:24.903+03:00,766930345.0033971,0,-44.25,100.2639,1,0.45,2025-04-21T15:12:15.606+03:00,97,1.616666666666667,2025-04-21T12:30:07.995+03:00,0.02023345852159405,0
2025-04-21T15:12:25.113+03:00,1745237542.616518,40.95223020707327,29.14028338385629,76.36061,-1,-1,-1,-1,30,18.16335761253691,-9999,17930.17006625,-0.7222442626953125,0.45635986328125,-0.462066650390625,17930.15999025,-0.5774160185781687,-0.9984645971147952,-0.4797518738815699,0.08824004232883453,0.03510753437876701,-0.0002846480929292738,-0.01217913627624512,-0.001842230558395386,0.01184007525444031,XArbitraryZVertical,0.3323569978574371,0.3864096679636939,0.1337722520315022,-0.8499006510225942,-0.7457399368286133,0.4615590870380402,-0.4804527759552002,0,0,0,-1,-1,17929.96478025,unknown,2,2025-04-21T15:12:24.903+03:00,2025-04-20T21:57:49.637+03:00,6664,0.9608214,0,0,5475.677,5,6,2025-04-21T15:12:24.903+03:00,766930345.0033971,0,-44.25,100.2639,1,0.45,2025-04-21T15:12:15.606+03:00,97,1.616666666666667,2025-04-21T12:30:07.995+03:00,0.02023345852159405,0
2025-04-21T15:12:25.123+03:00,1745237542.616518,40.95223020707327,29.14028338385629,76.36061,-1,-1,-1,-1,30,18.16335761253691,-9999,17930.18014225,-0.719146728515625,0.4571990966796875,-0.4659881591796875,17930.17006625,-0.5766114816791058,-0.9979044199284992,-0.4793569357903318,0.0784665048122406,0.008539040572941303,0.005633428692817688,0.01304960250854492,-0.00533708930015564,0.01961973309516907,XArbitraryZVertical,0.3320090264532472,0.3863746589414936,0.1336231076285539,-0.8500760607551185,-0.7456238269805908,0.4612086713314056,-0.480969250202179,0,0,0,-1,-1,17929.96478025,unknown,2,2025-04-21T15:12:24.903+03:00,2025-04-20T21:57:49.637+03:00,6664,0.9608214,0,0,5475.677,5,6,2025-04-21T15:12:24.903+03:00,766930345.0033971,0,-44.25,100.2639,1,0.45,2025-04-21T15:12:15.606+03:00,97,1.616666666666667,2025-04-21T12:30:07.995+03:00,0.02023345852159405,0
2025-04-21T15:12:25.134+03:00,1745237542.616518,40.95223020707327,29.14028338385629,76.36061,-1,-1,-1,-1,30,18.16335761253691,-9999,17930.19021825,-0.73870849609375,0.4516448974609375,-0.4693450927734375,17930.18014225,-0.5758756577860147,-0.9974554311570786,-0.4790808199796693,0.06741818785667419,0.01617465727031231,0.009378798305988312,0.02966415882110596,-0.003154188394546509,0.01700228452682495,XArbitraryZVertical,0.3317284175165146,0.3863543955617743,0.1334545307831302,-0.8502213436262468,-0.7455148100852966,0.4609636664390564,-0.4813730716705322,0,0,0,-1,-1,17929.96478025,unknown,2,2025-04-21T15:12:24.903+03:00,2025-04-20T21:57:49.637+03:00,6664,0.9608214,0,0,5475.677,5,6,2025-04-21T15:12:24.903+03:00,766930345.0033971,0,-44.25,100.2639,1,0.45,2025-04-21T15:12:15.606+03:00,97,1.616666666666667,2025-04-21T12:30:07.995+03:00,0.02023345852159405,0
2025-04-21T15:12:25.143+03:00,1745237542.616518,40.95223020707327,29.14028338385629,76.36061,-1,-1,-1,-1,30,18.16335761253691,-9999,17930.20029325,-0.7386932373046875,0.445068359375,-0.468353271484375,17930.19021825,-0.575249010124841,-0.9970269247400175,-0.4788662252499012,0.05194574967026711,0.01200228184461594,0.01174927782267332,0.01295459270477295,-0.006168067455291748,0.01273676753044128,XArbitraryZVertical,0.3314944584563345,0.3863137730077216,0.1333133091316112,-0.8503532216270246,-0.7453915476799011,0.460773229598999,-0.4817461967468262,0,0,0,-1,-1,17929.96478025,unknown,2,2025-04-21T15:12:24.903+03:00,2025-04-20T21:57:49.637+03:00,6664,0.9608214,0,0,5475.677,5,6,2025-04-21T15:12:24.903+03:00,766930345.0033971,0,-44.25,100.2639,1,0.45,2025-04-21T15:12:15.606+03:00,97,1.616666666666667,2025-04-21T12:30:07.995+03:00,0.02023345852159405,0
2025-04-21T15:12:25.153+03:00,1745237542.616518,40.95223020707327,29.14028338385629,76.36061,-1,-1,-1,-1,30,18.16335761253691,-9999,17930.21036925,-0.7276153564453125,0.4445343017578125,-0.47113037109375,17930.20029325,-0.5748348267155045,-0.9969044977324107,-0.478755175421365,0.02364527247846127,-0.01555331237614155,0.01245148666203022,0.004088461399078369,-0.01409563422203064,0.01235222816467285,XArbitraryZVertical,0.3313626524519753,0.3863498259856326,0.1331854981648999,-0.8504082292786806,-0.7453755140304565,0.4606746733188629,-0.4818651974201202,0,0,0,-1,-1,17929.96478025,unknown,2,2025-04-21T15:12:24.903+03:00,2025-04-20T21:57:49.637+03:00,6664,0.9608214,0,0,5475.677,5,6,2025-04-21T15:12:24.903+03:00,766930345.0033971,0,-44.25,100.2639,1,0.45,2025-04-21T15:12:15.606+03:00,97,1.616666666666667,2025-04-21T12:30:07.995+03:00,0.02023345852159405,0
2025-04-21T15:12:25.164+03:00,1745237542.616518,40.95223020707327,29.14028338385629,76.36061,-1,-1,-1,-1,30,18.16335761253691,-9999,17930.22044525,-0.735626220703125,0.4504547119140625,-0.475982666015625,17930.21036925,-0.5745363064978761,-0.9970079534279529,-0.4787471559034537,0.0279846265912056,-0.02247060649096966,0.01329890452325344,0.01462417840957642,-0.01672825217247009,0.01252126693725586,XArbitraryZVertical,0.3313086990260976,0.3864446755047347,0.1330434551045565,-0.8504084233213448,-0.7454285025596619,0.4606675505638123,-0.4817901253700256,0,0,0,-1,-1,17929.96478025,unknown,2,2025-04-21T15:12:24.903+03:00,2025-04-20T21:57:49.637+03:00,6664,0.9608214,0,0,5475.677,5,6,2025-04-21T15:12:24.903+03:00,766930345.0033971,0,-44.25,100.2639,1,0.45,2025-04-21T15:12:15.606+03:00,97,1.616666666666667,2025-04-21T12:30:07.995+03:00,0.02023345852159405,0
2025-04-21T15:12:25.173+03:00,1745237542.616518,40.95223020707327,29.14028338385629,76.36061,-1,-1,-1,-1,30,18.16335761253691,-9999,17930.23052125,-0.7511138916015625,0.45648193359375,-0.466094970703125,17930.22044525,-0.574107536708224,-0.9969536571210129,-0.4787224179884442,0.03431922197341919,-0.008602995425462723,0.01171499025076628,0.01530951261520386,-0.01217442750930786,0.006616950035095215,XArbitraryZVertical,0.3312125119513911,0.3864969391163779,0.132876368154301,-0.8504482606294875,-0.7454119324684143,0.4606455862522125,-0.4818367660045624,0,0,0,-1,-1,17929.96478025,unknown,2,2025-04-21T15:12:24.903+03:00,2025-04-20T21:57:49.637+03:00,6664,0.9608214,0,0,5475.677,5,6,2025-04-21T15:12:24.903+03:00,766930345.0033971,0,-44.25,100.2639,1,0.45,2025-04-21T15:12:15.606+03:00,97,1.616666666666667,2025-04-21T12:30:07.995+03:00,0.02023345852159405,0
2025-04-21T15:12:25.184+03:00,1745237542.616518,40.95223020707327,29.14028338385629,76.36061,-1,-1,-1,-1,30,18.16335761253691,-9999,17930.24059725,-0.7529449462890625,0.457733154296875,-0.4514007568359375,17930.23052125,-0.5736908719537126,-0.996806801620668,-0.4786211753301612,0.03877335786819458,-0.0041754893027246,0.01087263226509094,-0.000728607177734375,-0.00639304518699646,0.009422004222869873,XArbitraryZVertical,0.3310824249653382,0.3865212061167827,0.1327490365459111,-0.850507788177149,-0.7453803420066833,0.4605557322502136,-0.4819715619087219,0,0,0,-1,-1,17929.96478025,unknown,2,2025-04-21T15:12:24.903+03:00,2025-04-20T21:57:49.637+03:00,6664,0.9608214,0,0,5475.677,5,6,2025-04-21T15:12:24.903+03:00,766930345.0033971,0,-44.25,100.2639,1,0.45,2025-04-21T15:12:15.606+03:00,97,1.616666666666667,2025-04-21T12:30:07.995+03:00,0.02023345852159405,0
2025-04-21T15:12:25.194+03:00,1745237542.616518,40.95223020707327,29.14028338385629,76.36061,-1,-1,-1,-1,30,18.16335761253691,-9999,17930.25067225,-0.7434234619140625,0.454833984375,-0.4599456787109375,17930.24059725,-0.5733168852629484,-0.9967429461406694,-0.4784842612492647,0.03646805882453918,-0.004850666970014572,0.005072633270174265,-0.009434401988983154,-0.003387600183486938,0.02734142541885376,XArbitraryZVertical,0.3309520779430412,0.3865799105337001,0.1326350812703882,-0.8505495904740729,-0.745402455329895,0.4604341983795166,-0.4820533990859985,0,0,0,-1,-1,17929.96478025,unknown,2,2025-04-21T15:12:24.903+03:00,2025-04-20T21:57:49.637+03:00,6664,0.9608214,0,0,5475.677,5,6,2025-04-21T15:12:24.903+03:00,766930345.0033971,0,-44.25,100.2639,1,0.45,2025-04-21T15:12:15.606+03:00,97,1.616666666666667,2025-04-21T12:30:07.995+03:00,0.02023345852159405,0
2025-04-21T15:12:25.204+03:00,1745237542.616518,40.95223020707327,29.14028338385629,76.36061,-1,-1,-1,-1,30,18.16335761253691,-9999,17930.26074825,-0.73223876953125,0.44708251953125,-0.4711456298828125,17930.25067225,-0.572967772952535,-0.9966963789416149,-0.4783286319190669,0.03615833446383476,-0.01610065810382366,0.004901392385363579,-0.002240300178527832,-0.003951370716094971,0.02739977836608887,XArbitraryZVertical,0.330820303795442,0.3866450877446101,0.1325335512533961,-0.8505870451371642,-0.7454401850700378,0.4602960348129272,-0.4821270108222961,0,0,0,-1,-1,17929.96478025,unknown,2,2025-04-21T15:12:24.903+03:00,2025-04-20T21:57:49.637+03:00,6664,0.9608214,0,0,5475.677,5,6,2025-04-21T15:12:24.903+03:00,766930345.0033971,0,-44.25,100.2639,1,0.45,2025-04-21T15:12:15.606+03:00,97,1.616666666666667,2025-04-21T12:30:07.995+03:00,0.02023345852159405,0
2025-04-21T15:12:25.214+03:00,1745237542.616518,40.95223020707327,29.14028338385629,76.36061,-1,-1,-1,-1,30,18.16335761253691,-9999,17930.27082425,-0.728790283203125,0.4423980712890625,-0.463531494140625,17930.26074825,-0.5726680318286368,-0.9968125425964215,-0.4782714470189228,0.01746287569403648,-0.03203867748379707,0.008689705282449722,0.00886988639831543,-0.01064500212669373,0.01209920644760132,XArbitraryZVertical,0.3307475455203329,0.3867540643678715,0.1324012814577747,-0.8505864121995256,-0.7455183267593384,0.460245281457901,-0.4820547103881836,0,0,0,-1,-1,17929.96478025,unknown,2,2025-04-21T15:12:24.903+03:00,2025-04-20T21:57:49.637+03:00,6664,0.9608214,0,0,5475.677,5,6,2025-04-21T15:12:24.903+03:00,766930345.0033971,0,-44.25,100.2639,1,0.45,2025-04-21T15:12:15.606+03:00,97,1.616666666666667,2025-04-21T12:30:07.995+03:00,0.02023345852159405,0
2025-04-21T15:12:25.224+03:00,1745237542.616518,40.95223020707327,29.14028338385629,76.36061,-1,-1,-1,-1,30,18.16335761253691,-9999,17930.28090025,-0.735076904296875,0.4339447021484375,-0.4733123779296875,17930.27082425,-0.5725619756234855,-0.9971448592753761,-0.4783828371780239,-0.01269156485795975,-0.04128703847527504,0.01688052341341972,0.0173182487487793,-0.01555046439170837,0.01516523957252502,XArbitraryZVertical,0.3307928699902752,0.3868934618293235,0.132273111736758,-0.850525226493646,-0.7456353306770325,0.4603441655635834,-0.4817790389060974,0,0,0,-1,-1,17929.96478025,unknown,2,2025-04-21T15:12:24.903+03:00,2025-04-20T21:57:49.637+03:00,6664,0.9608214,0,0,5475.677,5,6,2025-04-21T15:12:24.903+03:00,766930345.0033971,0,-44.25,100.2639,1,0.45,2025-04-21T15:12:15.606+03:00,97,1.616666666666667,2025-04-21T12:30:07.995+03:00,0.02023345852159405,0
2025-04-21T15:12:25.234+03:00,1745237542.616518,40.95223020707327,29.14028338385629,76.36061,-1,-1,-1,-1,30,18.16335761253691,-9999,17930.29097625,-0.7403411865234375,0.4367218017578125,-0.4838409423828125,17930.28090025,-0.572668903096323,-0.9976104132886129,-0.4787087904254609,-0.03689004480838776,-0.04128937050700188,0.02541465498507023,0.01262509822845459,-0.02398794889450073,0.01394322514533997,XArbitraryZVertical,0.3309724985040219,0.3870167502548736,0.132159339250546,-0.8504169577657466,-0.7457334399223328,0.4606334865093231,-0.4813504815101624,0,0,0,-1,-1,17929.96478025,unknown,2,2025-04-21T15:12:24.903+03:00,2025-04-20T21:57:49.637+03:00,6664,0.9608214,0,0,5475.677,5,6,2025-04-21T15:12:24.903+03:00,766930345.0033971,0,-44.25,100.2639,1,0.45,2025-04-21T15:12:15.606+03:00,97,1.616666666666667,2025-04-21T12:30:07.995+03:00,0.02023345852159405,0
2025-04-21T15:12:25.244+03:00,1745237542.616518,40.95223020707327,29.14028338385629,76.36061,-1,-1,-1,-1,30,18.16335761253691,-9999,17930.30105125,-0.741485595703125,0.4464874267578125,-0.483795166015625,17930.29097625,-0.572938835139568,-0.9982027410949965,-0.479144733486047,-0.0521363765001297,-0.05038725957274437,0.02206706255674362,0.007278621196746826,-0.02713665366172791,-0.0005997717380523682,XArbitraryZVertical,0.3312352397960496,0.3871476454114481,0.1320660247754887,-0.8502695714009223,-0.7458495497703552,0.4610203802585602,-0.4807998239994049,0,0,0,-1,-1,17929.96478025,unknown,2,2025-04-21T15:12:24.903+03:00,2025-04-20T21:57:49.637+03:00,6664,0.9608214,0,0,5475.677,5,6,2025-04-21T15:12:24.903+03:00,766930345.0033971,0,-44.25,100.2639,1,0.45,2025-04-21T15:12:15.606+03:00,97,1.616666666666667,2025-04-21T12:30:07.995+03:00,0.02023345852159405,0
2025-04-21T15:12:25.254+03:00,1745237542.616518,40.95223020707327,29.14028338385629,76.36061,-1,-1,-1,-1,30,18.16335761253691,-9999,17930.31112725,-0.7394561767578125,0.453094482421875,-0.4825439453125,17930.30105125,-0.5733269599462165,-0.998927162933122,-0.4796477190813,-0.05924481898546219,-0.05893753841519356,0.02523372881114483,0.004303574562072754,-0.01868703961372375,-0.004256486892700195,XArbitraryZVertical,0.3315558302561968,0.3873032291074189,0.1319839723102062,-0.8500865637087403,-0.7460026741027832,0.4614666700363159,-0.4801338911056519,0,0,0,-1,-1,17929.96478025,unknown,2,2025-04-21T15:12:24.903+03:00,2025-04-20T21:57:49.637+03:00,6664,0.9608214,0,0,5475.677,5,6,2025-04-21T15:12:24.903+03:00,766930345.0033971,0,-44.25,100.2639,1,0.45,2025-04-21T15:12:15.606+03:00,97,1.616666666666667,2025-04-21T12:30:07.995+03:00,0.02023345852159405,0
2025-04-21T15:12:25.264+03:00,1745237542.616518,40.95223020707327,29.14028338385629,76.36061,-1,-1,-1,-1,30,18.16335761253691,-9999,17930.32120325,-0.74267578125,0.4471435546875,-0.47491455078125,17930.31112725,-0.5737395755742877,-0.9997490312480684,-0.4801424373919536,-0.05565540865063667,-0.06496374309062958,0.02177454903721809,0.006031692028045654,-0.009543389081954956,-0.004611670970916748,XArbitraryZVertical,0.3318842779812544,0.3874974109029263,0.1318980048852459,-0.8498832579900054,-0.7462048530578613,0.4619055092334747,-0.479397177696228,0,0,0,-1,-1,17929.96478025,unknown,2,2025-04-21T15:12:24.903+03:00,2025-04-20T21:57:49.637+03:00,6664,0.9608214,0,0,5475.677,5,6,2025-04-21T15:12:24.903+03:00,766930345.0033971,0,-44.25,100.2639,1,0.45,2025-04-21T15:12:15.606+03:00,97,1.616666666666667,2025-04-21T12:30:07.995+03:00,0.02023345852159405,0
2025-04-21T15:12:25.288+03:00,1745237542.616518,40.95223020707327,29.14028338385629,76.36061,-1,-1,-1,-1,30,18.16335761253691,-9999,17930.33127925,-0.75128173828125,0.448974609375,-0.4697265625,17930.32120325,-0.5741272371790659,-1.000575831836619,-0.4806257467800021,-0.04821666702628136,-0.05423945561051369,0.02126561850309372,0.006499111652374268,-0.01294746994972229,0.0004946887493133545,XArbitraryZVertical,0.3322037036731477,0.3876996161134079,0.1318032115632012,-0.8496808165055005,-0.7464128732681274,0.4623341262340546,-0.4786594212055206,0,0,0,-1,-1,17929.96478025,unknown,2,2025-04-21T15:12:24.903+03:00,2025-04-20T21:57:49.637+03:00,6664,0.9608214,0,0,5475.677,5,6,2025-04-21T15:12:24.903+03:00,766930345.0033971,0,-44.25,100.2639,1,0.45,2025-04-21T15:12:15.606+03:00,97,1.616666666666667,2025-04-21T12:30:07.995+03:00,0.02023345852159405,0
2025-04-21T15:12:25.291+03:00,1745237542.616518,40.95223020707327,29.14028338385629,76.36061,-1,-1,-1,-1,30,18.16335761253691,-9999,17930.34135525,-0.7536773681640625,0.4584197998046875,-0.4775543212890625,17930.33127925,-0.5744188875611788,-1.001236826954658,-0.4810206932820314,-0.03465238958597183,-0.04640230536460876,0.01579415425658226,-0.001837611198425293,-0.01612049341201782,0.007944107055664062,XArbitraryZVertical,0.3324587674158223,0.387862649548436,0.1317173386238671,-0.8495200185121601,-0.7465753555297852,0.4626842737197876,-0.4780674576759338,0,0,0,-1,-1,17929.96478025,unknown,2,2025-04-21T15:12:24.903+03:00,2025-04-20T21:57:49.637+03:00,6664,0.9608214,0,0,5475.677,5,6,2025-04-21T15:12:24.903+03:00,766930345.0033971,0,-44.25,100.2639,1,0.45,2025-04-21T15:12:15.606+03:00,97,1.616666666666667,2025-04-21T12:30:07.995+03:00,0.02023345852159405,0
2025-04-21T15:12:25.295+03:00,1745237542.616518,40.95223020707327,29.14028338385629,76.36061,-1,-1,-1,-1,30,18.16335761253691,-9999,17930.35143025,-0.7508087158203125,0.4634246826171875,-0.4857635498046875,17930.34135525,-0.5746326953605955,-1.001793596393967,-0.4813155787909211,-0.0316954143345356,-0.04587333649396896,0.0154082952067256,-0.006782948970794678,-0.007867485284805298,0.004006385803222656,XArbitraryZVertical,0.3326525705889845,0.388011806822214,0.1316409149774127,-0.8493879137099216,-0.7467264533042908,0.4629456996917725,-0.4775782227516174,0,0,0,-1,-1,17929.96478025,unknown,2,2025-04-21T15:12:24.903+03:00,2025-04-20T21:57:49.637+03:00,6664,0.9608214,0,0,5475.677,5,6,2025-04-21T15:12:24.903+03:00,766930345.0033971,0,-44.25,100.2639,1,0.45,2025-04-21T15:12:15.606+03:00,97,1.616666666666667,2025-04-21T12:30:07.995+03:00,0.02023345852159405,0
2025-04-21T15:12:25.305+03:00,1745237542.616518,40.95223020707327,29.14028338385629,76.36061,-1,-1,-1,-1,30,18.16335761253691,-9999,17930.36150625,-0.7523193359375,0.45452880859375,-0.4880828857421875,17930.35143025,-0.5748568835964086,-1.002358728250329,-0.4815908736886023,-0.03197478130459785,-0.04374866560101509,0.01163672562688589,-0.004713296890258789,-0.0001159310340881348,-0.00629580020904541,XArbitraryZVertical,0.3328412794054716,0.3881661521925464,0.1315723399005818,-0.8492539541902648,-0.7468886971473694,0.4631896913051605,-0.4770874381065369,0,0,0,-1,-1,17929.96478025,unknown,2,2025-04-21T15:12:24.903+03:00,2025-04-20T21:57:49.637+03:00,6664,0.9608214,0,0,5475.677,5,6,2025-04-21T15:12:24.903+03:00,766930345.0033971,0,-44.25,100.2639,1,0.45,2025-04-21T15:12:15.606+03:00,97,1.616666666666667,2025-04-21T12:30:07.995+03:00,0.02023345852159405,0
2025-04-21T15:12:25.315+03:00,1745237542.616518,40.95223020707327,29.14028338385629,76.36061,-1,-1,-1,-1,30,18.16335761253691,-9999,17930.37158225,-0.7571868896484375,0.452850341796875,-0.484954833984375,17930.36150625,-0.5750591533574312,-1.002862115885984,-0.4817937533051196,-0.02696610614657402,-0.03962709009647369,0.01003526709973812,-0.00429302453994751,-0.004522383213043213,-0.01151362061500549,XArbitraryZVertical,0.3329932060906423,0.3883105746260179,0.1315230127731652,-0.8491359956498225,-0.7470495104789734,0.4633694887161255,-0.4766608476638794,0,0,0,-1,-1,17929.96478025,unknown,2,2025-04-21T15:12:24.903+03:00,2025-04-20T21:57:49.637+03:00,6664,0.9608214,0,0,5475.677,5,6,2025-04-21T15:12:24.903+03:00,766930345.0033971,0,-44.25,100.2639,1,0.45,2025-04-21T15:12:15.606+03:00,97,1.616666666666667,2025-04-21T12:30:07.995+03:00,0.02023345852159405,0
2025-04-21T15:12:25.325+03:00,1745237542.616518,40.95223020707327,29.14028338385629,76.36061,-1,-1,-1,-1,30,18.16335761253691,-9999,17930.38165825,-0.7547454833984375,0.45941162109375,-0.4780426025390625,17930.37158225,-0.5752929983142472,-1.003294582460808,-0.4819035136916485,-0.03276833891868591,-0.03393138945102692,0.001045234734192491,-0.008448123931884766,-0.01093679666519165,-0.01030772924423218,XArbitraryZVertical,0.3331100726880042,0.3884359412209638,0.1315224496165771,-0.8490329237983389,-0.7472127079963684,0.4634667336940765,-0.4763104021549225,0,0,0,-1,-1,17929.96478025,unknown,2,2025-04-21T15:12:24.903+03:00,2025-04-20T21:57:49.637+03:00,6664,0.9608214,0,0,5475.677,5,6,2025-04-21T15:12:24.903+03:00,766930345.0033971,0,-44.25,100.2639,1,0.45,2025-04-21T15:12:15.606+03:00,97,1.616666666666667,2025-04-21T12:30:07.995+03:00,0.02023345852159405,0
2025-04-21T15:12:25.335+03:00,1745237542.616518,40.95223020707327,29.14028338385629,76.36061,-1,-1,-1,-1,30,18.16335761253691,-9999,17930.3917335,-0.754547119140625,0.46185302734375,-0.476043701171875,17930.38165825,-0.5755757209001581,-1.00373684210521,-0.4820175248590756,-0.03029585815966129,-0.03070070594549179,-0.001377442968077958,-0.008953452110290527,-0.006475448608398438,-0.004608809947967529,XArbitraryZVertical,0.3332387208693749,0.3885565282218659,0.1315398886607133,-0.8489246571724864,-0.7473788261413574,0.4635677635669708,-0.4759515523910522,0,0,0,-1,-1,17929.96478025,unknown,2,2025-04-21T15:12:24.903+03:00,2025-04-20T21:57:49.637+03:00,6664,0.9608214,0,0,5475.677,5,6,2025-04-21T15:12:24.903+03:00,766930345.0033971,0,-44.25,100.2639,1,0.45,2025-04-21T15:12:15.606+03:00,97,1.616666666666667,2025-04-21T12:30:07.995+03:00,0.02023345852159405,0
2025-04-21T15:12:25.345+03:00,1745237542.616518,40.95223020707327,29.14028338385629,76.36061,-1,-1,-1,-1,30,18.16335761253691,-9999,17930.4018095,-0.760345458984375,0.463958740234375,-0.47564697265625,17930.3917335,-0.5758673400738301,-1.004101383891719,-0.4821074890035928,-0.02456500194966793,-0.02139056287705898,-0.005604678764939308,-0.006160140037536621,-0.002313196659088135,-0.0007685422897338867,XArbitraryZVertical,0.3333546104737005,0.3886468307780628,0.1315800893606059,-0.8488315931021631,-0.7475170493125916,0.4636474847793579,-0.4756566882133484,0,0,0,-1,-1,17929.96478025,unknown,2,2025-04-21T15:12:24.903+03:00,2025-04-20T21:57:49.637+03:00,6664,0.9608214,0,0,5475.677,5,6,2025-04-21T15:12:24.903+03:00,766930345.0033971,0,-44.25,100.2639,1,0.45,2025-04-21T15:12:15.606+03:00,97,1.616666666666667,2025-04-21T12:30:07.995+03:00,0.02023345852159405,0
2025-04-21T15:12:25.355+03:00,1745237542.616518,40.95223020707327,29.14028338385629,76.36061,-1,-1,-1,-1,30,18.16335761253691,-9999,17930.4118845,-0.7646331787109375,0.466796875,-0.47357177734375,17930.4018095,-0.5760496733606593,-1.004311974112012,-0.4821285147178658,-0.01018206775188446,-0.005631306674331427,-0.003033396555110812,-0.009562492370605469,-0.0008516907691955566,-0.0005344748497009277,XArbitraryZVertical,0.3334121386480656,0.3887021126028275,0.1316170326321593,-0.8487779559762917,-0.74760901927948,0.4636661112308502,-0.4754940271377563,0,0,0,-1,-1,17929.96478025,unknown,2,2025-04-21T15:12:24.903+03:00,2025-04-20T21:57:49.637+03:00,6664,0.9608214,0,0,5475.677,5,6,2025-04-21T15:12:24.903+03:00,766930345.0033971,0,-44.25,100.2639,1,0.45,2025-04-21T15:12:15.606+03:00,97,1.616666666666667,2025-04-21T12:30:07.995+03:00,0.02023345852159405,0
2025-04-21T15:12:25.365+03:00,1745237542.616518,40.95223020707327,29.14028338385629,76.36061,-1,-1,-1,-1,30,18.16335761253691,-9999,17930.4219605,-0.7615509033203125,0.4640960693359375,-0.4748382568359375,17930.4118845,-0.576103570180874,-1.004346512919196,-0.4820867560972871,0.00368261500261724,0.005249836947768927,-0.0003310869797132909,-0.01645725965499878,0.002511709928512573,0.0007165670394897461,XArbitraryZVertical,0.3334085409542021,0.3887151353665876,0.1316447405608086,-0.8487690739961091,-0.7476417422294617,0.4636290967464447,-0.4754785895347595,0,0,0,-1,-1,17929.96478025,unknown,2,2025-04-21T15:12:24.903+03:00,2025-04-20T21:57:49.637+03:00,6664,0.9608214,0,0,5475.677,5,6,2025-04-21T15:12:24.903+03:00,766930345.0033971,0,-44.25,100.2639,1,0.45,2025-04-21T15:12:15.606+03:00,97,1.616666666666667,2025-04-21T12:30:07.995+03:00,0.02023345852159405,0
2025-04-21T15:12:25.375+03:00,1745237542.616518,40.95223020707327,29.14028338385629,76.36061,-1,-1,-1,-1,30,18.16335761253691,-9999,17930.4320365,-0.7562103271484375,0.460357666015625,-0.474853515625,17930.4219605,-0.5760475523796281,-1.004288298928926,-0.4819849916544977,0.01027540303766727,0.004084570799022913,-0.004066769499331713,-0.0151786208152771,0.002128839492797852,0.001166880130767822,XArbitraryZVertical,0.3333539580706829,0.3887176762394963,0.1316564966424097,-0.8487875174845253,-0.7476538419723511,0.4635389447212219,-0.4755474030971527,0,0,0,-1,-1,17929.96478025,unknown,2,2025-04-21T15:12:24.903+03:00,2025-04-20T21:57:49.637+03:00,6664,0.9608214,0,0,5475.677,5,6,2025-04-21T15:12:24.903+03:00,766930345.0033971,0,-44.25,100.2639,1,0.45,2025-04-21T15:12:15.606+03:00,97,1.616666666666667,2025-04-21T12:30:07.995+03:00,0.02023345852159405,0
2025-04-21T15:12:25.386+03:00,1745237542.616518,40.95223020707327,29.14028338385629,76.36061,-1,-1,-1,-1,30,18.16335761253691,-9999,17930.4421125,-0.753204345703125,0.4593353271484375,-0.475128173828125,17930.4320365,-0.5759466094412857,-1.004139581381893,-0.4818849919060858,0.01559480093419552,0.01222745236009359,-0.002014005091041327,-0.009640812873840332,-0.00197872519493103,0.0004789829254150391,XArbitraryZVertical,0.3332853718385766,0.3886889783075783,0.1316638179106402,-0.8488264561573894,-0.7476222515106201,0.4634503424167633,-0.4756834805011749,0,0,0,-1,-1,17929.96478025,unknown,2,2025-04-21T15:12:24.903+03:00,2025-04-20T21:57:49.637+03:00,6664,0.9608214,0,0,5475.677,5,6,2025-04-21T15:12:24.903+03:00,766930345.0033971,0,-44.25,100.2639,1,0.45,2025-04-21T15:12:15.606+03:00,97,1.616666666666667,2025-04-21T12:30:07.995+03:00,0.02023345852159405,0
2025-04-21T15:12:25.398+03:00,1745237542.616518,40.95223020707327,29.14028338385629,76.36061,-1,-1,-1,-1,30,18.16335761253691,-9999,17930.4521885,-0.7532196044921875,0.4674530029296875,-0.47821044921875,17930.4421125,-0.5757640284726516,-1.003867324883458,-0.4817322194737301,0.0241432823240757,0.01857110112905502,-0.00135726947337389,-0.007070839405059814,-0.004712015390396118,0.0008120536804199219,XArbitraryZVertical,0.3331721169337629,0.3886307195891368,0.1316704435287474,-0.8488965335517392,-0.7475523948669434,0.463314950466156,-0.4759249985218048,0,0,0,-1,-1,17929.96478025,unknown,2,2025-04-21T15:12:24.903+03:00,2025-04-20T21:57:49.637+03:00,6664,0.9608214,0,0,5475.677,5,6,2025-04-21T15:12:24.903+03:00,766930345.0033971,0,-44.25,100.2639,1,0.45,2025-04-21T15:12:15.606+03:00,97,1.616666666666667,2025-04-21T12:30:07.995+03:00,0.02023345852159405,0
2025-04-21T15:12:25.405+03:00,1745237542.616518,40.95223020707327,29.14028338385629,76.36061,-1,-1,-1,-1,30,18.16335761253691,-9999,17930.4622635,-0.7548370361328125,0.4689788818359375,-0.47479248046875,17930.4521885,-0.575500450858775,-1.003472663623111,-0.4815092076549561,0.03268137574195862,0.03171593323349953,-0.003218818921595812,-0.00555419921875,0.001055091619491577,-0.0009583830833435059,XArbitraryZVertical,0.3330075067968198,0.3885463073277459,0.1316808627110003,-0.848998180258663,-0.7474516630172729,0.4631173014640808,-0.4762755334377289,0,0,0,-1,-1,17929.96478025,unknown,2,2025-04-21T15:12:24.903+03:00,2025-04-20T21:57:49.637+03:00,6664,0.9608214,0,0,5475.677,5,6,2025-04-21T15:12:24.903+03:00,766930345.0033971,0,-44.25,100.2639,1,0.45,2025-04-21T15:12:15.606+03:00,97,1.616666666666667,2025-04-21T12:30:07.995+03:00,0.02023345852159405,0
2025-04-21T15:12:25.415+03:00,1745237542.616518,40.95223020707327,29.14028338385629,76.36061,-1,-1,-1,-1,30,18.16335761253691,-9999,17930.4723395,-0.753082275390625,0.4636077880859375,-0.476043701171875,17930.4622635,-0.5752067390120691,-1.002981414537207,-0.4812797461004866,0.03344523906707764,0.04103333503007889,-0.003615197259932756,-0.007285594940185547,0.007072120904922485,0.0004118680953979492,XArbitraryZVertical,0.3328281506087994,0.3884269772809318,0.1316961284962632,-0.8491207588281666,-0.7473071813583374,0.4629139304161072,-0.4766997992992401,0,0,0,-1,-1,17929.96478025,unknown,2,2025-04-21T15:12:24.903+03:00,2025-04-20T21:57:49.637+03:00,6664,0.9608214,0,0,5475.677,5,6,2025-04-21T15:12:24.903+03:00,766930345.0033971,0,-44.25,100.2639,1,0.45,2025-04-21T15:12:15.606+03:00,97,1.616666666666667,2025-04-21T12:30:07.995+03:00,0.02023345852159405,0
2025-04-21T15:12:25.425+03:00,1745237542.616518,40.95223020707327,29.14028338385629,76.36061,-1,-1,-1,-1,30,18.16335761253691,-9999,17930.4824155,-0.7464752197265625,0.460205078125,-0.4763031005859375,17930.4723395,-0.5749546110841038,-1.002446242821868,-0.4810825252509264,0.02409727685153484,0.04518093913793564,-0.003916134592145681,-0.00694507360458374,0.003142297267913818,0.002798736095428467,XArbitraryZVertical,0.3326666272627982,0.3882763423498953,0.1317280928407367,-0.8492479512895909,-0.7471288442611694,0.462739109992981,-0.4771488010883331,0,0,0,-1,-1,17929.96478025,unknown,2,2025-04-21T15:12:24.903+03:00,2025-04-20T21:57:49.637+03:00,6664,0.9608214,0,0,5475.677,5,6,2025-04-21T15:12:24.903+03:00,766930345.0033971,0,-44.25,100.2639,1,0.45,2025-04-21T15:12:15.606+03:00,97,1.616666666666667,2025-04-21T12:30:07.995+03:00,0.02023345852159405,0
2025-04-21T15:12:25.435+03:00,1745237542.616518,40.95223020707327,29.14028338385629,76.36061,-1,-1,-1,-1,30,18.16335761253691,-9999,17930.4924915,-0.7410888671875,0.461700439453125,-0.4763641357421875,17930.4824155,-0.5748088517177294,-1.001950620474499,-0.4809457521751062,0.01294895075261593,0.04297870397567749,-0.002988189226016402,-0.002520263195037842,-0.002382218837738037,-0.0001844167709350586,XArbitraryZVertical,0.3325520507090454,0.3881141353688607,0.1317832638889519,-0.8493583788036437,-0.7469455599784851,0.4626178443431854,-0.4775530993938446,0,0,0,-1,-1,17929.96478025,unknown,2,2025-04-21T15:12:24.903+03:00,2025-04-20T21:57:49.637+03:00,6664,0.9608214,0,0,5475.677,5,6,2025-04-21T15:12:24.903+03:00,766930345.0033971,0,-44.25,100.2639,1,0.45,2025-04-21T15:12:15.606+03:00,97,1.616666666666667,2025-04-21T12:30:07.995+03:00,0.02023345852159405,0
2025-04-21T15:12:25.446+03:00,1745237542.616518,40.95223020707327,29.14028338385629,76.36061,-1,-1,-1,-1,30,18.16335761253691,-9999,17930.5025675,-0.7371673583984375,0.4571990966796875,-0.4782867431640625,17930.4924915,-0.5747348236845019,-1.001514038834109,-0.4808473160426764,0.01221604924649,0.04232143610715866,-0.002354889642447233,0.003229975700378418,-0.00189816951751709,0.002882301807403564,XArbitraryZVertical,0.3324702972383631,0.3879583079115449,0.1318493351385428,-0.8494513183951717,-0.7467753887176514,0.4625305831432343,-0.4779036939144135,0,0,0,-1,-1,17929.96478025,unknown,2,2025-04-21T15:12:24.903+03:00,2025-04-20T21:57:49.637+03:00,6664,0.9608214,0,0,5475.677,5,6,2025-04-21T15:12:24.903+03:00,766930345.0033971,0,-44.25,100.2639,1,0.45,2025-04-21T15:12:15.606+03:00,97,1.616666666666667,2025-04-21T12:30:07.995+03:00,0.02023345852159405,0
2025-04-21T15:12:25.456+03:00,1745237542.616518,40.95223020707327,29.14028338385629,76.36061,-1,-1,-1,-1,30,18.16335761253691,-9999,17930.5126425,-0.7375335693359375,0.457977294921875,-0.474822998046875,17930.5025675,-0.57464007720763,-1.001056119744946,-0.4807614717884173,0.01080257538706064,0.04174579679965973,-0.001241488615050912,0.007866322994232178,-0.002600282430648804,-0.0003554821014404297,XArbitraryZVertical,0.3323880303079247,0.3877946225718821,0.1319069410865619,-0.8495493468144508,-0.7465898990631104,0.4624544680118561,-0.4782670438289642,0,0,0,-1,-1,17929.96478025,unknown,2,2025-04-21T15:12:24.903+03:00,2025-04-20T21:57:49.637+03:00,6664,0.9608214,0,0,5475.677,5,6,2025-04-21T15:12:24.903+03:00,766930345.0033971,0,-44.25,100.2639,1,0.45,2025-04-21T15:12:15.606+03:00,97,1.616666666666667,2025-04-21T12:30:07.995+03:00,0.02023345852159405,0
2025-04-21T15:12:25.466+03:00,1745237542.616518,40.95223020707327,29.14028338385629,76.36061,-1,-1,-1,-1,30,18.16335761253691,-9999,17930.5227185,-0.740386962890625,0.4641265869140625,-0.4698333740234375,17930.5126425,-0.5745844490665342,-1.000660356004523,-0.4806724271283194,0.007575890514999628,0.03856411948800087,-0.004965386819094419,0.009542703628540039,-0.006076633930206299,0.001411765813827515,XArbitraryZVertical,0.3323162326052832,0.3876513786064207,0.1319715926388833,-0.84963266128515,-0.7464351654052734,0.4623755216598511,-0.4785846471786499,0,0,0,-1,-1,17929.96478025,unknown,2,2025-04-21T15:12:24.903+03:00,2025-04-20T21:57:49.637+03:00,6664,0.9608214,0,0,5475.677,5,6,2025-04-21T15:12:24.903+03:00,766930345.0033971,0,-44.25,100.2639,1,0.45,2025-04-21T15:12:15.606+03:00,97,1.616666666666667,2025-04-21T12:30:07.995+03:00,0.02023345852159405,0
2025-04-21T15:12:25.476+03:00,1745237542.616518,40.95223020707327,29.14028338385629,76.36061,-1,-1,-1,-1,30,18.16335761253691,-9999,17930.5327945,-0.7457122802734375,0.4610748291015625,-0.47418212890625,17930.5227185,-0.5745322560315456,-1.000243608838507,-0.4806040805267515,0.009380914270877838,0.04546909406781197,-0.0002476301451679319,0.007172465324401855,0.0004689395427703857,0.00737038254737854,XArbitraryZVertical,0.3322517859402654,0.3874949934428622,0.1320359477446553,-0.8497192023024799,-0.74626225233078,0.4623149037361145,-0.4789127707481384,0,0,0,-1,-1,17929.96478025,unknown,2,2025-04-21T15:12:24.903+03:00,2025-04-20T21:57:49.637+03:00,6664,0.9608214,0,0,5475.677,5,6,2025-04-21T15:12:24.903+03:00,766930345.0033971,0,-44.25,100.2639,1,0.45,2025-04-21T15:12:15.606+03:00,97,1.616666666666667,2025-04-21T12:30:07.995+03:00,0.02023345852159405,0
2025-04-21T15:12:25.486+03:00,1745237542.616518,40.95223020707327,29.14028338385629,76.36061,-1,-1,-1,-1,30,18.16335761253691,-9999,17930.5428705,-0.745147705078125,0.45709228515625,-0.4780120849609375,17930.5327945,-0.5744489825390384,-0.9997620506292344,-0.4805691905102013,0.008987831883132458,0.04338011145591736,0.002140959026291966,0.001980960369110107,0.0006066858768463135,0.007891029119491577,XArbitraryZVertical,0.3321901596593378,0.3873103408286193,0.1320893814563876,-0.8498191774948869,-0.7460451126098633,0.4622839689254761,-0.4792807996273041,0,0,0,-1,-1,17929.96478025,unknown,2,2025-04-21T15:12:24.903+03:00,2025-04-20T21:57:49.637+03:00,6664,0.9608214,0,0,5475.677,5,6,2025-04-21T15:12:24.903+03:00,766930345.0033971,0,-44.25,100.2639,1,0.45,2025-04-21T15:12:15.606+03:00,97,1.616666666666667,2025-04-21T12:30:07.995+03:00,0.02023345852159405,0
2025-04-21T15:12:25.496+03:00,1745237542.616518,40.95223020707327,29.14028338385629,76.36061,-1,-1,-1,-1,30,18.16335761253691,-9999,17930.5529465,-0.742340087890625,0.457061767578125,-0.4752349853515625,17930.5428705,-0.5743683476447824,-0.9993180283560594,-0.4805719492992029,0.007246323861181736,0.04209799692034721,0.003920583054423332,-0.0007964372634887695,-0.004599004983901978,0.001675456762313843,XArbitraryZVertical,0.3321463015465473,0.3871345695829259,0.1321281646933956,-0.8499103765662667,-0.7458311319351196,0.4622864127159119,-0.4796113073825836,0,0,0,-1,-1,17929.96478025,unknown,2,2025-04-21T15:12:24.903+03:00,2025-04-20T21:57:49.637+03:00,6664,0.9608214,0,0,5475.677,5,6,2025-04-21T15:12:24.903+03:00,766930345.0033971,0,-44.25,100.2639,1,0.45,2025-04-21T15:12:15.606+03:00,97,1.616666666666667,2025-04-21T12:30:07.995+03:00,0.02023345852159405,0
2025-04-21T15:12:25.506+03:00,1745237542.616518,40.95223020707327,29.14028338385629,76.36061,-1,-1,-1,-1,30,18.16335761253691,-9999,17930.5630225,-0.7406768798828125,0.4577178955078125,-0.4795989990234375,17930.5529465,-0.5742899653240503,-0.9989070283426403,-0.4805751541449198,0.005386638920754194,0.03564063087105751,0.004631114657968283,0.002590954303741455,-0.005593657493591309,0.004712522029876709,XArbitraryZVertical,0.3321052080444197,0.3869723565154674,0.1321623077521719,-0.8499950672441136,-0.7456327676773071,0.4622892439365387,-0.479917049407959,0,0,0,-1,-1,17929.96478025,unknown,2,2025-04-21T15:12:24.903+03:00,2025-04-20T21:57:49.637+03:00,6664,0.9608214,0,0,5475.677,5,6,2025-04-21T15:12:24.903+03:00,766930345.0033971,0,-44.25,100.2639,1,0.45,2025-04-21T15:12:15.606+03:00,97,1.616666666666667,2025-04-21T12:30:07.995+03:00,0.02023345852159405,0
2025-04-21T15:12:25.516+03:00,1745237542.616518,40.95223020707327,29.14028338385629,76.36061,-1,-1,-1,-1,30,18.16335761253691,-9999,17930.5730975,-0.7378692626953125,0.4546661376953125,-0.4815673828125,17930.5630225,-0.5742501571904818,-0.9985600403489903,-0.4805531515804549,0.002159286988899112,0.03183537721633911,0.0005984894232824445,0.003867208957672119,-0.00514686107635498,0.002596378326416016,XArbitraryZVertical,0.3320659319658251,0.3868353501373586,0.1322085619784058,-0.8500655801982054,-0.7454747557640076,0.4622697532176971,-0.4801812469959259,0,0,0,-1,-1,17929.96478025,unknown,2,2025-04-21T15:12:24.903+03:00,2025-04-20T21:57:49.637+03:00,6664,0.9608214,0,0,5475.677,5,6,2025-04-21T15:12:24.903+03:00,766930345.0033971,0,-44.25,100.2639,1,0.45,2025-04-21T15:12:15.606+03:00,97,1.616666666666667,2025-04-21T12:30:07.995+03:00,0.02023345852159405,0
2025-04-21T15:12:25.526+03:00,1745237542.616518,40.95223020707327,29.14028338385629,76.36061,-1,-1,-1,-1,30,18.16335761253691,-9999,17930.5831735,-0.7371673583984375,0.453094482421875,-0.482666015625,17930.5730975,-0.5742970685055883,-0.9982957579699505,-0.4805822028426654,-0.008572453632950783,0.02780414745211601,-0.001108330441638827,0.006460309028625488,-0.006011903285980225,-0.000433504581451416,XArbitraryZVertical,0.3320689374596213,0.3867101341552723,0.132265045453518,-0.850112599325604,-0.7453365325927734,0.4622955024242401,-0.4803709983825684,0,0,0,-1,-1,17929.96478025,unknown,2,2025-04-21T15:12:24.903+03:00,2025-04-20T21:57:49.637+03:00,6664,0.9608214,0,0,5475.677,5,6,2025-04-21T15:12:24.903+03:00,766930345.0033971,0,-44.25,100.2639,1,0.45,2025-04-21T15:12:15.606+03:00,97,1.616666666666667,2025-04-21T12:30:07.995+03:00,0.02023345852159405,0
2025-04-21T15:12:25.537+03:00,1745237542.616518,40.95223020707327,29.14028338385629,76.36061,-1,-1,-1,-1,30,18.16335761253691,-9999,17930.5932495,-0.736846923828125,0.455078125,-0.48663330078125,17930.5831735,-0.5744490059262267,-0.9980857003904046,-0.4806261357097556,-0.02151568233966827,0.02588294260203838,-0.005568859167397022,0.00774616003036499,-0.009682416915893555,-0.001554429531097412,XArbitraryZVertical,0.3321016752353121,0.3865879126458216,0.1323534115663271,-0.8501416350869964,-0.7452185153961182,0.4623344540596008,-0.4805165231227875,0,0,0,-1,-1,17929.96478025,unknown,2,2025-04-21T15:12:24.903+03:00,2025-04-20T21:57:49.637+03:00,6664,0.9608214,0,0,5475.677,5,6,2025-04-21T15:12:24.903+03:00,766930345.0033971,0,-44.25,100.2639,1,0.45,2025-04-21T15:12:15.606+03:00,97,1.616666666666667,2025-04-21T12:30:07.995+03:00,0.02023345852159405,0
2025-04-21T15:12:25.547+03:00,1745237542.616518,40.95223020707327,29.14028338385629,76.36061,-1,-1,-1,-1,30,18.16335761253691,-9999,17930.6033255,-0.7371673583984375,0.4563751220703125,-0.48565673828125,17930.5932495,-0.5747197002195504,-0.9979955660680866,-0.4806967322757848,-0.02485502138733864,0.01699304580688477,-0.01008291728794575,0.007858514785766602,-0.008325934410095215,-0.004221022129058838,XArbitraryZVertical,0.3321757616760671,0.3864922598221632,0.1324656162452192,-0.8501386875632951,-0.7451477646827698,0.4623970687389374,-0.480565994977951,0,0,0,-1,-1,17929.96478025,unknown,2,2025-04-21T15:12:24.903+03:00,2025-04-20T21:57:49.637+03:00,6664,0.9608214,0,0,5475.677,5,6,2025-04-21T15:12:24.903+03:00,766930345.0033971,0,-44.25,100.2639,1,0.45,2025-04-21T15:12:15.606+03:00,97,1.616666666666667,2025-04-21T12:30:07.995+03:00,0.02023345852159405,0
2025-04-21T15:12:25.557+03:00,1745237542.616518,40.95223020707327,29.14028338385629,76.36061,-1,-1,-1,-1,30,18.16335761253691,-9999,17930.6134015,-0.741455078125,0.462127685546875,-0.480987548828125,17930.6033255,-0.5750419066356395,-0.9980074864090378,-0.4807215909860453,-0.02337050810456276,0.01412195805460215,-0.01600602082908154,0.008617520332336426,-0.006486475467681885,-0.006723374128341675,XArbitraryZVertical,0.3322485940048533,0.3864394446741382,0.1325943100648323,-0.8501141255284382,-0.7451438307762146,0.4624190926551819,-0.4805508553981781,0,0,0,-1,-1,17929.96478025,unknown,2,2025-04-21T15:12:24.903+03:00,2025-04-20T21:57:49.637+03:00,6664,0.9608214,0,0,5475.677,5,6,2025-04-21T15:12:24.903+03:00,766930345.0033971,0,-44.25,100.2639,1,0.45,2025-04-21T15:12:15.606+03:00,97,1.616666666666667,2025-04-21T12:30:07.995+03:00,0.02023345852159405,0
2025-04-21T15:12:25.567+03:00,1745237542.616518,40.95223020707327,29.14028338385629,76.36061,-1,-1,-1,-1,30,18.16335761253691,-9999,17930.6234765,-0.74981689453125,0.4665985107421875,-0.4780731201171875,17930.6134015,-0.5753475554892454,-0.9980125533079018,-0.4806787137796308,-0.01581352204084396,0.01807781681418419,-0.0214705616235733,0.005813717842102051,-0.003778129816055298,-0.001803040504455566,XArbitraryZVertical,0.3322911172669517,0.3863983453144932,0.132734223159538,-0.8500944260105069,-0.7451629638671875,0.4623810946941376,-0.4805578589439392,0,0,0,-1,-1,17929.96478025,unknown,2,2025-04-21T15:12:24.903+03:00,2025-04-20T21:57:49.637+03:00,6664,0.9608214,0,0,5475.677,5,6,2025-04-21T15:12:24.903+03:00,766930345.0033971,0,-44.25,100.2639,1,0.45,2025-04-21T15:12:15.606+03:00,97,1.616666666666667,2025-04-21T12:30:07.995+03:00,0.02023345852159405,0
2025-04-21T15:12:25.577+03:00,1745237542.616518,40.95223020707327,29.14028338385629,76.36061,-1,-1,-1,-1,30,18.16335761253691,-9999,17930.6335525,-0.7554168701171875,0.4661102294921875,-0.47674560546875,17930.6234765,-0.5755542205181263,-0.9978544870628209,-0.4805331370961975,0.002522675320506096,0.03353433683514595,-0.02036491595208645,-0.001224696636199951,0.003339499235153198,0.001753926277160645,XArbitraryZVertical,0.3322633586793284,0.3863223874497867,0.1328850886717062,-0.8501162623819315,-0.7451435923576355,0.4622519910335541,-0.4807121455669403,0,0,0,-1,-1,17929.96478025,unknown,2,2025-04-21T15:12:24.903+03:00,2025-04-20T21:57:49.637+03:00,6664,0.9608214,0,0,5475.677,5,6,2025-04-21T15:12:24.903+03:00,766930345.0033971,0,-44.25,100.2639,1,0.45,2025-04-21T15:12:15.606+03:00,97,1.616666666666667,2025-04-21T12:30:07.995+03:00,0.02023345852159405,0
2025-04-21T15:12:25.587+03:00,1745237542.616518,40.95223020707327,29.14028338385629,76.36061,-1,-1,-1,-1,30,18.16335761253691,-9999,17930.6436285,-0.7533111572265625,0.4645843505859375,-0.47259521484375,17930.6335525,-0.5756059506962542,-0.9975072726939215,-0.480336796174871,0.01138913724571466,0.04144126549363136,-0.01500716805458069,-0.009036421775817871,0.003757745027542114,0.003572463989257812,XArbitraryZVertical,0.3321731696547088,0.386200683673196,0.1330143078993745,-0.8501865453612677,-0.7450528144836426,0.4620778858661652,-0.4810200333595276,0,0,0,-1,-1,17929.96478025,unknown,2,2025-04-21T15:12:24.903+03:00,2025-04-20T21:57:49.637+03:00,6664,0.9608214,0,0,5475.677,5,6,2025-04-21T15:12:24.903+03:00,766930345.0033971,0,-44.25,100.2639,1,0.45,2025-04-21T15:12:15.606+03:00,97,1.616666666666667,2025-04-21T12:30:07.995+03:00,0.02023345852159405,0
2025-04-21T15:12:25.597+03:00,1745237542.616518,40.95223020707327,29.14028338385629,76.36061,-1,-1,-1,-1,30,18.16335761253691,-9999,17930.6537045,-0.746124267578125,0.4603424072265625,-0.47674560546875,17930.6436285,-0.5755224507426656,-0.9970389797953655,-0.480109767961069,0.02135295420885086,0.04264168441295624,-0.01165191829204559,-0.00998234748840332,0.002936750650405884,0.007686138153076172,XArbitraryZVertical,0.3320366926995028,0.386055330036904,0.1331138663981183,-0.8502903203895255,-0.7449156045913696,0.4618765413761139,-0.4814258217811584,0,0,0,-1,-1,17929.96478025,unknown,2,2025-04-21T15:12:24.903+03:00,2025-04-20T21:57:49.637+03:00,6664,0.9608214,0,0,5475.677,5,6,2025-04-21T15:12:24.903+03:00,766930345.0033971,0,-44.25,100.2639,1,0.45,2025-04-21T15:12:15.606+03:00,97,1.616666666666667,2025-04-21T12:30:07.995+03:00,0.02023345852159405,0
2025-04-21T15:12:25.607+03:00,1745237542.616518,40.95223020707327,29.14028338385629,76.36061,-1,-1,-1,-1,30,18.16335761253691,-9999,17930.6637805,-0.7390289306640625,0.45306396484375,-0.479736328125,17930.6537045,-0.5754060254174042,-0.9965838335974311,-0.479899610164806,0.01278423424810171,0.03618804737925529,-0.01391347497701645,-0.003543496131896973,0.0007123351097106934,0.007070720195770264,XArbitraryZVertical,0.3319013300075782,0.3859180287696791,0.1331929300875136,-0.8503931484374542,-0.7447779178619385,0.4616901278495789,-0.4818175733089447,0,0,0,-1,-1,17929.96478025,unknown,2,2025-04-21T15:12:24.903+03:00,2025-04-20T21:57:49.637+03:00,6664,0.9608214,0,0,5475.677,5,6,2025-04-21T15:12:24.903+03:00,766930345.0033971,0,-44.25,100.2639,1,0.45,2025-04-21T15:12:15.606+03:00,97,1.616666666666667,2025-04-21T12:30:07.995+03:00,0.02023345852159405,0
2025-04-21T15:12:25.617+03:00,1745237542.616518,40.95223020707327,29.14028338385629,76.36061,-1,-1,-1,-1,30,18.16335761253691,-9999,17930.6738555,-0.729766845703125,0.443328857421875,-0.4817657470703125,17930.6637805,-0.575440056687109,-0.9962920776701031,-0.4797518352608682,-0.002593723125755787,0.02274274453520775,-0.01253532152622938,0.003132760524749756,-0.004649817943572998,0.003312021493911743,XArbitraryZVertical,0.331830434656012,0.3858142625820063,0.1332930542836442,-0.850452074923748,-0.7446944713592529,0.4615590274333954,-0.4820718467235565,0,0,0,-1,-1,17929.96478025,unknown,2,2025-04-21T15:12:24.903+03:00,2025-04-20T21:57:49.637+03:00,6664,0.9608214,0,0,5475.677,5,6,2025-04-21T15:12:24.903+03:00,766930345.0033971,0,-44.25,100.2639,1,0.45,2025-04-21T15:12:15.606+03:00,97,1.616666666666667,2025-04-21T12:30:07.995+03:00,0.02023345852159405,0
2025-04-21T15:12:25.627+03:00,1745237542.616518,40.95223020707327,29.14028338385629,76.36061,-1,-1,-1,-1,30,18.16335761253691,-9999,17930.6839315,-0.7289276123046875,0.4388580322265625,-0.4785614013671875,17930.6738555,-0.5755817672695589,-0.9962201303867159,-0.4796798903949923,-0.01473347656428814,0.002437738934531808,-0.01076165679842234,0.01182341575622559,-0.01458051800727844,0.001384735107421875,XArbitraryZVertical,0.3318246855252733,0.3857727826989589,0.1333833950505688,-0.8504590042000684,-0.7446876764297485,0.4614952206611633,-0.4821434617042542,0,0,0,-1,-1,17929.96478025,unknown,2,2025-04-21T15:12:24.903+03:00,2025-04-20T21:57:49.637+03:00,6664,0.9608214,0,0,5475.677,5,6,2025-04-21T15:12:24.903+03:00,766930345.0033971,0,-44.25,100.2639,1,0.45,2025-04-21T15:12:15.606+03:00,97,1.616666666666667,2025-04-21T12:30:07.995+03:00,0.02023345852159405,0
2025-04-21T15:12:25.637+03:00,1745237542.616518,40.95223020707327,29.14028338385629,76.36061,-1,-1,-1,-1,30,18.16335761253691,-9999,17930.6940075,-0.7339935302734375,0.4473114013671875,-0.481170654296875,17930.6839315,-0.5757873373259137,-0.9962853796924162,-0.4796677742872654,-0.0167174655944109,-0.002617407124489546,-0.01042832899838686,0.01613205671310425,-0.02171087265014648,0.001720696687698364,XArbitraryZVertical,0.3318639355409729,0.3857685469407983,0.1334630335157398,-0.8504330963856246,-0.7447237968444824,0.4614844620227814,-0.4820979237556458,0,0,0,-1,-1,17929.96478025,unknown,2,2025-04-21T15:12:24.903+03:00,2025-04-20T21:57:49.637+03:00,6664,0.9608214,0,0,5475.677,5,6,2025-04-21T15:12:24.903+03:00,766930345.0033971,0,-44.25,100.2639,1,0.45,2025-04-21T15:12:15.606+03:00,97,1.616666666666667,2025-04-21T12:30:07.995+03:00,0.02023345852159405,0
2025-04-21T15:12:25.647+03:00,1745237542.616518,40.95223020707327,29.14028338385629,76.36061,-1,-1,-1,-1,30,18.16335761253691,-9999,17930.7040835,-0.7399749755859375,0.4622344970703125,-0.4869842529296875,17930.6940075,-0.5759610017608348,-0.996385085465146,-0.4796334156787393,-0.005748170893639326,-0.003375608939677477,-0.0117686977609992,0.0131722092628479,-0.01867437362670898,0.003821760416030884,XArbitraryZVertical,0.3318906021635814,0.3857881587009839,0.1335289888255052,-0.8504033977969152,-0.7447851300239563,0.4614539742469788,-0.4820322394371033,0,0,0,-1,-1,17929.96478025,unknown,2,2025-04-21T15:12:24.903+03:00,2025-04-20T21:57:49.637+03:00,6664,0.9608214,0,0,5475.677,5,6,2025-04-21T15:12:24.903+03:00,766930345.0033971,0,-44.25,100.2639,1,0.45,2025-04-21T15:12:15.606+03:00,97,1.616666666666667,2025-04-21T12:30:07.995+03:00,0.02023345852159405,0
2025-04-21T15:12:25.657+03:00,1745237542.616518,40.95223020707327,29.14028338385629,76.36061,-1,-1,-1,-1,30,18.16335761253691,-9999,17930.7141595,-0.747589111328125,0.4699554443359375,-0.487274169921875,17930.7040835,-0.5760390381442793,-0.9964562205246109,-0.4795593687716276,0.004101263824850321,-0.003137256484478712,-0.009706346318125725,0.007467329502105713,-0.004845321178436279,-0.003185898065567017,XArbitraryZVertical,0.3318813012121121,0.3858184572435423,0.1335690399924646,-0.8503870101937562,-0.7448481321334839,0.4613882899284363,-0.4819978475570679,0,0,0,-1,-1,17929.96478025,unknown,2,2025-04-21T15:12:24.903+03:00,2025-04-20T21:57:49.637+03:00,6664,0.9608214,0,0,5475.677,5,6,2025-04-21T15:12:24.903+03:00,766930345.0033971,0,-44.25,100.2639,1,0.45,2025-04-21T15:12:15.606+03:00,97,1.616666666666667,2025-04-21T12:30:07.995+03:00,0.02023345852159405,0
2025-04-21T15:12:25.668+03:00,1745237542.616518,40.95223020707327,29.14028338385629,76.36061,-1,-1,-1,-1,30,18.16335761253691,-9999,17930.7242355,-0.753326416015625,0.4645233154296875,-0.4888153076171875,17930.7141595,-0.576047025062506,-0.9964691326159212,-0.4794392123917718,0.007850462570786476,0.009092777967453003,-0.01004323642700911,4.333257675170898e-05,0.007208973169326782,-0.005423694849014282,XArbitraryZVertical,0.3318364961729198,0.3858437214241371,0.1336005893764548,-0.8503880538811359,-0.7449008822441101,0.4612816870212555,-0.4820183217525482,0,0,0,-1,-1,17929.96478025,unknown,2,2025-04-21T15:12:24.903+03:00,2025-04-20T21:57:49.637+03:00,6664,0.9608214,0,0,5475.677,5,6,2025-04-21T15:12:24.903+03:00,766930345.0033971,0,-44.25,100.2639,1,0.45,2025-04-21T15:12:15.606+03:00,97,1.616666666666667,2025-04-21T12:30:07.995+03:00,0.02023345852159405,0
2025-04-21T15:12:25.678+03:00,1745237542.616518,40.95223020707327,29.14028338385629,76.36061,-1,-1,-1,-1,30,18.16335761253691,-9999,17930.7343105,-0.7514190673828125,0.4579925537109375,-0.4877471923828125,17930.7242355,-0.5760277066237318,-0.9963967096870044,-0.4793022051262518,0.01275746896862984,0.0104476623237133,-0.008814653381705284,-0.007339060306549072,0.006353944540023804,-0.006785005331039429,XArbitraryZVertical,0.3317740786985438,0.3858401870588195,0.1336389425796435,-0.850408015715723,-0.7449190616607666,0.4611601233482361,-0.482106626033783,0,0,0,-1,-1,17929.96478025,unknown,2,2025-04-21T15:12:24.903+03:00,2025-04-20T21:57:49.637+03:00,6664,0.9608214,0,0,5475.677,5,6,2025-04-21T15:12:24.903+03:00,766930345.0033971,0,-44.25,100.2639,1,0.45,2025-04-21T15:12:15.606+03:00,97,1.616666666666667,2025-04-21T12:30:07.995+03:00,0.02023345852159405,0
2025-04-21T15:12:25.688+03:00,1745237542.616518,40.95223020707327,29.14028338385629,76.36061,-1,-1,-1,-1,30,18.16335761253691,-9999,17930.7443865,-0.7473297119140625,0.458709716796875,-0.4852142333984375,17930.7343105,-0.5759135161455818,-0.996275444307045,-0.4791067358308337,0.02895268425345421,0.00764761446043849,-0.01139632146805525,-0.00843578577041626,-0.0006136894226074219,-0.005714952945709229,XArbitraryZVertical,0.3316671282780938,0.3858418777047745,0.1336597827170007,-0.8504456812400206,-0.7449362277984619,0.4609866738319397,-0.482245922088623,0,0,0,-1,-1,17929.96478025,unknown,2,2025-04-21T15:12:24.903+03:00,2025-04-20T21:57:49.637+03:00,6664,0.9608214,0,0,5475.677,5,6,2025-04-21T15:12:24.903+03:00,766930345.0033971,0,-44.25,100.2639,1,0.45,2025-04-21T15:12:15.606+03:00,97,1.616666666666667,2025-04-21T12:30:07.995+03:00,0.02023345852159405,0
2025-04-21T15:12:25.698+03:00,1745237542.616518,40.95223020707327,29.14028338385629,76.36061,-1,-1,-1,-1,30,18.16335761253691,-9999,17930.7544625,-0.748870849609375,0.463348388671875,-0.48309326171875,17930.7443865,-0.5756456545595248,-0.9960759205977056,-0.478830530716968,0.04101407527923584,0.007501606363803148,-0.009971963241696358,-0.003404974937438965,-0.003130406141281128,-0.004093319177627563,XArbitraryZVertical,0.3314935518211567,0.3858499112419884,0.1336485846392091,-0.8505114694191931,-0.7449468374252319,0.4607415497303009,-0.4824637472629547,0,0,0,-1,-1,17929.96478025,unknown,2,2025-04-21T15:12:24.903+03:00,2025-04-20T21:57:49.637+03:00,6664,0.9608214,0,0,5475.677,5,6,2025-04-21T15:12:24.903+03:00,766930345.0033971,0,-44.25,100.2639,1,0.45,2025-04-21T15:12:15.606+03:00,97,1.616666666666667,2025-04-21T12:30:07.995+03:00,0.02023345852159405,0
2025-04-21T15:12:25.708+03:00,1745237542.616518,40.95223020707327,29.14028338385629,76.36061,-1,-1,-1,-1,30,18.16335761253691,-9999,17930.7645385,-0.7468109130859375,0.4640045166015625,-0.484619140625,17930.7544625,-0.5752323664701016,-0.995763732966926,-0.4784354371825522,0.0575653538107872,0.01446364168077707,-0.01096665393561125,-0.003189325332641602,0.0007602870464324951,-0.0009084045886993408,XArbitraryZVertical,0.3312376263943098,0.3858549108500446,0.1336241166834653,-0.8506127474743685,-0.7449488639831543,0.4603908658027649,-0.482795238494873,0,0,0,-1,-1,17929.96478025,unknown,2,2025-04-21T15:12:24.903+03:00,2025-04-20T21:57:49.637+03:00,6664,0.9608214,0,0,5475.677,5,6,2025-04-21T15:12:24.903+03:00,766930345.0033971,0,-44.25,100.2639,1,0.45,2025-04-21T15:12:15.606+03:00,97,1.616666666666667,2025-04-21T12:30:07.995+03:00,0.02023345852159405,0
2025-04-21T15:12:25.718+03:00,1745237542.616518,40.95223020707327,29.14028338385629,76.36061,-1,-1,-1,-1,30,18.16335761253691,-9999,17930.7746145,-0.74456787109375,0.460357666015625,-0.4825439453125,17930.7645385,-0.574737120155724,-0.9953789865857313,-0.4779577171359002,0.05727014318108559,0.01647792384028435,-0.01558104623109102,-0.002778708934783936,0.004770249128341675,-0.001844942569732666,XArbitraryZVertical,0.3309284790427713,0.3858569638500409,0.1335975232848836,-0.8507363740675782,-0.7449475526809692,0.4599667191505432,-0.4832015037536621,0,0,0,-1,-1,17929.96478025,unknown,2,2025-04-21T15:12:24.903+03:00,2025-04-20T21:57:49.637+03:00,6664,0.9608214,0,0,5475.677,5,6,2025-04-21T15:12:24.903+03:00,766930345.0033971,0,-44.25,100.2639,1,0.45,2025-04-21T15:12:15.606+03:00,97,1.616666666666667,2025-04-21T12:30:07.995+03:00,0.02023345852159405,0
2025-04-21T15:12:25.728+03:00,1745237542.616518,40.95223020707327,29.14028338385629,76.36061,-1,-1,-1,-1,30,18.16335761253691,-9999,17930.7846895,-0.7400054931640625,0.4586029052734375,-0.48944091796875,17930.7746145,-0.574270573501784,-0.9950035532200926,-0.4774803420882651,0.05695908516645432,0.01164295524358749,-0.01573843881487846,-0.001173913478851318,0.002249240875244141,0.0009803473949432373,XArbitraryZVertical,0.3306255978274378,0.3858580043845857,0.1335813627531944,-0.8508561770412584,-0.7449501752853394,0.4595427811145782,-0.4836006164550781,0,0,0,-1,-1,17929.96478025,unknown,2,2025-04-21T15:12:24.903+03:00,2025-04-20T21:57:49.637+03:00,6664,0.9608214,0,0,5475.677,5,6,2025-04-21T15:12:24.903+03:00,766930345.0033971,0,-44.25,100.2639,1,0.45,2025-04-21T15:12:15.606+03:00,97,1.616666666666667,2025-04-21T12:30:07.995+03:00,0.02023345852159405,0
2025-04-21T15:12:25.738+03:00,1745237542.616518,40.95223020707327,29.14028338385629,76.36061,-1,-1,-1,-1,30,18.16335761253691,-9999,17930.7947655,-0.7423095703125,0.45330810546875,-0.4893798828125,17930.7846895,-0.5737537481928866,-0.9946644517176231,-0.4770124675176431,0.06501468271017075,0.006106309592723846,-0.01401973515748978,0.003007888793945312,7.095932960510254e-05,-0.002586781978607178,XArbitraryZVertical,0.3303190909113338,0.3858809817194218,0.133535299864718,-0.8509720952427184,-0.7449663877487183,0.4591271877288818,-0.4839703440666199,0,0,0,-1,-1,17929.96478025,unknown,2,2025-04-21T15:12:24.903+03:00,2025-04-20T21:57:49.637+03:00,6664,0.9608214,0,0,5475.677,5,6,2025-04-21T15:12:24.903+03:00,766930345.0033971,0,-44.25,100.2639,1,0.45,2025-04-21T15:12:15.606+03:00,97,1.616666666666667,2025-04-21T12:30:07.995+03:00,0.02023345852159405,0
2025-04-21T15:12:25.748+03:00,1745237542.616518,40.95223020707327,29.14028338385629,76.36061,-1,-1,-1,-1,30,18.16335761253691,-9999,17930.8048415,-0.7472991943359375,0.4570159912109375,-0.4871063232421875,17930.7947655,-0.5732369913024922,-0.9943632884191372,-0.4765572985236821,0.0661822110414505,0.00616143736988306,-0.01462587062269449,0.00436478853225708,-0.00341564416885376,-0.006353199481964111,XArbitraryZVertical,0.3300200928892451,0.3859177033152399,0.1334796768108304,-0.8510801903125179,-0.7449957728385925,0.4587228000164032,-0.4843085408210754,0,0,0,-1,-1,17929.96478025,unknown,2,2025-04-21T15:12:24.903+03:00,2025-04-20T21:57:49.637+03:00,6664,0.9608214,0,0,5475.677,5,6,2025-04-21T15:12:24.903+03:00,766930345.0033971,0,-44.25,100.2639,1,0.45,2025-04-21T15:12:15.606+03:00,97,1.616666666666667,2025-04-21T12:30:07.995+03:00,0.02023345852159405,0
2025-04-21T15:12:25.758+03:00,1745237542.616518,40.95223020707327,29.14028338385629,76.36061,-1,-1,-1,-1,30,18.16335761253691,-9999,17930.8149175,-0.7510833740234375,0.46331787109375,-0.4870758056640625,17930.8048415,-0.5726440290019021,-0.9940574753960092,-0.4761017308019739,0.07247232645750046,0.002909983973950148,-0.006711621303111315,-0.0008725523948669434,-0.004658818244934082,-0.001754283905029297,XArbitraryZVertical,0.3297059007569703,0.3859649192907513,0.1333923621992108,-0.8511941611217454,-0.7450226545333862,0.4583179354667664,-0.484650194644928,0,0,0,-1,-1,17929.96478025,unknown,2,2025-04-21T15:12:24.903+03:00,2025-04-20T21:57:49.637+03:00,6664,0.9608214,0,0,5475.677,5,6,2025-04-21T15:12:24.903+03:00,766930345.0033971,0,-44.25,100.2639,1,0.45,2025-04-21T15:12:15.606+03:00,97,1.616666666666667,2025-04-21T12:30:07.995+03:00,0.02023345852159405,0
2025-04-21T15:12:25.768+03:00,1745237542.616518,40.95223020707327,29.14028338385629,76.36061,-1,-1,-1,-1,30,18.16335761253691,-9999,17930.8249935,-0.755645751953125,0.4568328857421875,-0.485626220703125,17930.8149175,-0.5719243402499257,-0.993658760867088,-0.4756150695263331,0.08983267843723297,0.01485932059586048,-0.006094034295529127,-0.004144370555877686,0.004379719495773315,-0.002266407012939453,XArbitraryZVertical,0.3293487023927311,0.3859986925849571,0.1332741214329912,-0.851335691734337,-0.7450162172317505,0.4578853249549866,-0.4850688874721527,0,0,0,-1,-1,17929.96478025,unknown,2,2025-04-21T15:12:24.903+03:00,2025-04-20T21:57:49.637+03:00,6664,0.9608214,0,0,5475.677,5,6,2025-04-21T15:12:24.903+03:00,766930345.0033971,0,-44.25,100.2639,1,0.45,2025-04-21T15:12:15.606+03:00,97,1.616666666666667,2025-04-21T12:30:07.995+03:00,0.02023345852159405,0
2025-04-21T15:12:25.789+03:00,1745237542.616518,40.95223020707327,29.14028338385629,76.36061,-1,-1,-1,-1,30,18.16335761253691,-9999,17930.8350695,-0.7484130859375,0.455047607421875,-0.482940673828125,17930.8249935,-0.5710208530545926,-0.993105769239392,-0.4750226196346948,0.1060639768838882,0.01442988589406013,-0.003507905174046755,-0.009587228298187256,0.003548502922058105,0.0001093745231628418,XArbitraryZVertical,0.3289040191322107,0.3860151844974114,0.1331294030308702,-0.8515227423525005,-0.7449750304222107,0.4573585689067841,-0.4856288433074951,0,0,0,-1,-1,17929.96478025,unknown,2,2025-04-21T15:12:24.903+03:00,2025-04-20T21:57:49.637+03:00,6664,0.9608214,0,0,5475.677,5,6,2025-04-21T15:12:24.903+03:00,766930345.0033971,0,-44.25,100.2639,1,0.45,2025-04-21T15:12:15.606+03:00,97,1.616666666666667,2025-04-21T12:30:07.995+03:00,0.02023345852159405,0
2025-04-21T15:12:25.792+03:00,1745237542.616518,40.95223020707327,29.14028338385629,76.36061,-1,-1,-1,-1,30,18.16335761253691,-9999,17930.8451445,-0.7352752685546875,0.46246337890625,-0.476165771484375,17930.8350695,-0.5699614059781332,-0.9925340137431953,-0.4743703650182197,0.1230693235993385,0.004327184986323118,-0.003184863831847906,-0.00764697790145874,-0.003775477409362793,0.0006218850612640381,XArbitraryZVertical,0.3284043316361457,0.3860592979675981,0.1329360671031305,-0.8517257270167916,-0.7449468374252319,0.4567784368991852,-0.4862176179885864,0,0,0,-1,-1,17929.96478025,unknown,2,2025-04-21T15:12:24.903+03:00,2025-04-20T21:57:49.637+03:00,6664,0.9608214,0,0,5475.677,5,6,2025-04-21T15:12:24.903+03:00,766930345.0033971,0,-44.25,100.2639,1,0.45,2025-04-21T15:12:15.606+03:00,97,1.616666666666667,2025-04-21T12:30:07.995+03:00,0.02023345852159405,0
2025-04-21T15:12:25.799+03:00,1745237542.616518,40.95223020707327,29.14028338385629,76.36061,-1,-1,-1,-1,30,18.16335761253691,-9999,17930.8552205,-0.7318267822265625,0.4529876708984375,-0.47406005859375,17930.8451445,-0.5688466103629743,-0.9920263126664802,-0.4737011372976601,0.1102294996380806,-0.002302687615156174,-0.003078437177464366,0.005759000778198242,0.004724025726318359,0.009788304567337036,XArbitraryZVertical,0.3278914002054433,0.3861422096771195,0.1327125636466547,-0.8519205404410093,-0.7449555993080139,0.456182986497879,-0.4867628514766693,0,0,0,-1,-1,17929.96478025,unknown,2,2025-04-21T15:12:24.903+03:00,2025-04-20T21:57:49.637+03:00,6664,0.9608214,0,0,5475.677,5,6,2025-04-21T15:12:24.903+03:00,766930345.0033971,0,-44.25,100.2639,1,0.45,2025-04-21T15:12:15.606+03:00,97,1.616666666666667,2025-04-21T12:30:07.995+03:00,0.02023345852159405,0
2025-04-21T15:12:25.809+03:00,1745237542.616518,40.95223020707327,29.14028338385629,76.36061,-1,-1,-1,-1,30,18.16335761253691,-9999,17930.8652965,-0.731231689453125,0.4351654052734375,-0.467620849609375,17930.8552205,-0.5680435229336521,-0.9916879803896145,-0.4732546498391602,0.05869493260979652,-0.0002651032991707325,0.002465465106070042,0.0127379298210144,0.003473430871963501,0.01027384400367737,XArbitraryZVertical,0.3275376794572901,0.3862071125823062,0.1325379249471747,-0.8520543403087187,-0.7449612021446228,0.4557856321334839,-0.4871262609958649,0,0,0,-1,-1,17929.96478025,unknown,2,2025-04-21T15:12:24.903+03:00,2025-04-20T21:57:49.637+03:00,6664,0.9608214,0,0,5475.677,5,6,2025-04-21T15:12:24.903+03:00,766930345.0033971,0,-44.25,100.2639,1,0.45,2025-04-21T15:12:15.606+03:00,97,1.616666666666667,2025-04-21T12:30:07.995+03:00,0.02023345852159405,0
2025-04-21T15:12:25.819+03:00,1745237542.616518,40.95223020707327,29.14028338385629,76.36061,-1,-1,-1,-1,30,18.16335761253691,-9999,17930.8753725,-0.730010986328125,0.426788330078125,-0.4741668701171875,17930.8652965,-0.5676986070760471,-0.9915232067823464,-0.4730712114780575,0.01551503967493773,-0.001508732791990042,-0.002521936316043139,0.01358211040496826,-0.01363620162010193,0.0184684693813324,XArbitraryZVertical,0.3273877112500717,0.3862251714452916,0.1324639819033204,-0.8521153498081694,-0.7449509501457214,0.4556223452091217,-0.4872947931289673,0,0,0,-1,-1,17929.96478025,unknown,2,2025-04-21T15:12:24.903+03:00,2025-04-20T21:57:49.637+03:00,6664,0.9608214,0,0,5475.677,5,6,2025-04-21T15:12:24.903+03:00,766930345.0033971,0,-44.25,100.2639,1,0.45,2025-04-21T15:12:15.606+03:00,97,1.616666666666667,2025-04-21T12:30:07.995+03:00,0.02023345852159405,0
2025-04-21T15:12:25.829+03:00,1745237542.616518,40.95223020707327,29.14028338385629,76.36061,-1,-1,-1,-1,30,18.16335761253691,-9999,17930.8854485,-0.727569580078125,0.4391937255859375,-0.4726409912109375,17930.8753725,-0.567669252719208,-0.9915544816412223,-0.4730065363486612,-0.0007832397241145372,-0.01069264486432076,-0.005632774904370308,0.0144001841545105,-0.0285474956035614,0.01568421721458435,XArbitraryZVertical,0.3273585933018872,0.3862545070001167,0.1324625723961445,-0.8521134155910416,-0.7449908256530762,0.4555647671222687,-0.4872876107692719,0,0,0,-1,-1,17929.96478025,unknown,2,2025-04-21T15:12:24.903+03:00,2025-04-20T21:57:49.637+03:00,6664,0.9608214,0,0,5475.677,5,6,2025-04-21T15:12:24.903+03:00,766930345.0033971,0,-44.25,100.2639,1,0.45,2025-04-21T15:12:15.606+03:00,97,1.616666666666667,2025-04-21T12:30:07.995+03:00,0.02023345852159405,0
2025-04-21T15:12:25.839+03:00,1745237542.616518,40.95223020707327,29.14028338385629,76.36061,-1,-1,-1,-1,30,18.16335761253691,-9999,17930.8955235,-0.730499267578125,0.45556640625,-0.474945068359375,17930.8854485,-0.5676491643172634,-0.9917036401722893,-0.4729206385242251,0.01297638099640608,-0.01915097609162331,-0.004781162366271019,0.01642823219299316,-0.02326780557632446,0.0137939453125,XArbitraryZVertical,0.3273306525261682,0.3863362218435361,0.1324511583604009,-0.8520889422867799,-0.7450962662696838,0.4554882943630219,-0.4871979355812073,0,0,0,-1,-1,17929.96478025,unknown,2,2025-04-21T15:12:24.903+03:00,2025-04-20T21:57:49.637+03:00,6664,0.9608214,0,0,5475.677,5,6,2025-04-21T15:12:24.903+03:00,766930345.0033971,0,-44.25,100.2639,1,0.45,2025-04-21T15:12:15.606+03:00,97,1.616666666666667,2025-04-21T12:30:07.995+03:00,0.02023345852159405,0
2025-04-21T15:12:25.849+03:00,1745237542.616518,40.95223020707327,29.14028338385629,76.36061,-1,-1,-1,-1,30,18.16335761253691,-9999,17930.9055995,-0.7404937744140625,0.4598846435546875,-0.482025146484375,17930.8955235,-0.5674338186717472,-0.9917888211830258,-0.4727691213178295,0.03144273906946182,-0.01904205232858658,-0.001222114078700542,0.01629859209060669,-0.004578232765197754,0.01460742950439453,XArbitraryZVertical,0.3272348842390367,0.3864339964009137,0.1323834749651817,-0.8520918521231838,-0.7451955080032349,0.4553534090518951,-0.4871721863746643,0,0,0,-1,-1,17929.96478025,unknown,2,2025-04-21T15:12:24.903+03:00,2025-04-20T21:57:49.637+03:00,6664,0.9608214,0,0,5475.677,5,6,2025-04-21T15:12:24.903+03:00,766930345.0033971,0,-44.25,100.2639,1,0.45,2025-04-21T15:12:15.606+03:00,97,1.616666666666667,2025-04-21T12:30:07.995+03:00,0.02023345852159405,0
2025-04-21T15:12:25.859+03:00,1745237542.616518,40.95223020707327,29.14028338385629,76.36061,-1,-1,-1,-1,30,18.16335761253691,-9999,17930.9156755,-0.7438812255859375,0.453155517578125,-0.4854888916015625,17930.9055995,-0.5671233243149505,-0.9918399944982531,-0.4725866461819684,0.03690262138843536,-0.01529005914926529,0.0001606657169759274,0.008702635765075684,0.004190206527709961,0.007641524076461792,XArbitraryZVertical,0.3271062073493128,0.3865381822127373,0.1322885994160526,-0.8521087591915092,-0.7452899813652039,0.4551909267902374,-0.4871795177459717,0,0,0,-1,-1,17929.96478025,unknown,2,2025-04-21T15:12:24.903+03:00,2025-04-20T21:57:49.637+03:00,6664,0.9608214,0,0,5475.677,5,6,2025-04-21T15:12:24.903+03:00,766930345.0033971,0,-44.25,100.2639,1,0.45,2025-04-21T15:12:15.606+03:00,97,1.616666666666667,2025-04-21T12:30:07.995+03:00,0.02023345852159405,0
2025-04-21T15:12:25.869+03:00,1745237542.616518,40.95223020707327,29.14028338385629,76.36061,-1,-1,-1,-1,30,18.16335761253691,-9999,17930.9257515,-0.7418060302734375,0.4476318359375,-0.48614501953125,17930.9156755,-0.5667928332032308,-0.9918830571818645,-0.472378698655601,0.03552736341953278,-0.02143503725528717,-0.001132298959419131,0.002623021602630615,0.001399904489517212,0.001801788806915283,XArbitraryZVertical,0.3269630519378258,0.3866465554664154,0.1321929172816464,-0.8521293818237728,-0.7453901767730713,0.4550057649612427,-0.4871992170810699,0,0,0,-1,-1,17929.96478025,unknown,2,2025-04-21T15:12:24.903+03:00,2025-04-20T21:57:49.637+03:00,6664,0.9608214,0,0,5475.677,5,6,2025-04-21T15:12:24.903+03:00,766930345.0033971,0,-44.25,100.2639,1,0.45,2025-04-21T15:12:15.606+03:00,97,1.616666666666667,2025-04-21T12:30:07.995+03:00,0.02023345852159405,0
2025-04-21T15:12:25.879+03:00,1745237542.616518,40.95223020707327,29.14028338385629,76.36061,-1,-1,-1,-1,30,18.16335761253691,-9999,17930.9358275,-0.7430267333984375,0.4443511962890625,-0.4814453125,17930.9257515,-0.5664840705187238,-0.9920181588454027,-0.4722208685903813,0.02736490778625011,-0.02764326520264149,0.00134557276032865,0.003160953521728516,-0.005753248929977417,0.0006875395774841309,XArbitraryZVertical,0.326849926277438,0.3867818839117207,0.1320788848192693,-0.8521290933400939,-0.7455161213874817,0.4548652172088623,-0.4871377944946289,0,0,0,-1,-1,17929.96478025,unknown,2,2025-04-21T15:12:24.903+03:00,2025-04-20T21:57:49.637+03:00,6664,0.9608214,0,0,5475.677,5,6,2025-04-21T15:12:24.903+03:00,766930345.0033971,0,-44.25,100.2639,1,0.45,2025-04-21T15:12:15.606+03:00,97,1.616666666666667,2025-04-21T12:30:07.995+03:00,0.02023345852159405,0
2025-04-21T15:12:25.889+03:00,1745237542.616518,40.95223020707327,29.14028338385629,76.36061,-1,-1,-1,-1,30,18.16335761253691,-9999,17930.9459035,-0.7430419921875,0.4341888427734375,-0.47930908203125,17930.9358275,-0.5663305903516308,-0.9922194119756829,-0.4721750729386034,0.002298437058925629,-0.02734792046248913,0.0007285182946361601,0.003245890140533447,-0.008642137050628662,0.003402292728424072,XArbitraryZVertical,0.3268154370233844,0.3869006291234862,0.131992096715836,-0.8521018685770939,-0.7456316351890564,0.4548244476318359,-0.4869991540908813,0,0,0,-1,-1,17929.96478025,unknown,2,2025-04-21T15:12:24.903+03:00,2025-04-20T21:57:49.637+03:00,6664,0.9608214,0,0,5475.677,5,6,2025-04-21T15:12:24.903+03:00,766930345.0033971,0,-44.25,100.2639,1,0.45,2025-04-21T15:12:15.606+03:00,97,1.616666666666667,2025-04-21T12:30:07.995+03:00,0.02023345852159405,0
2025-04-21T15:12:25.899+03:00,1745237542.616518,40.95223020707327,29.14028338385629,76.36061,-1,-1,-1,-1,30,18.16335761253691,-9999,17930.9559785,-0.7408599853515625,0.433197021484375,-0.4813385009765625,17930.9459035,-0.5665080328762436,-0.9925931098256976,-0.4722564231338707,-0.03359777852892876,-0.02983797341585159,-0.001633572508580983,0.001672685146331787,-0.01703059673309326,0.007253766059875488,XArbitraryZVertical,0.3269065379923819,0.3870167665958025,0.131986210713523,-0.8520151393922214,-0.7457826137542725,0.4548968970775604,-0.4867002665996552,0,0,0,-1,-1,17929.96478025,unknown,2,2025-04-21T15:12:24.903+03:00,2025-04-20T21:57:49.637+03:00,6664,0.9608214,0,0,5475.677,5,6,2025-04-21T15:12:24.903+03:00,766930345.0033971,0,-44.25,100.2639,1,0.45,2025-04-21T15:12:15.606+03:00,97,1.616666666666667,2025-04-21T12:30:07.995+03:00,0.02023345852159405,0
2025-04-21T15:12:25.909+03:00,1745237542.616518,40.95223020707327,29.14028338385629,76.36061,-1,-1,-1,-1,30,18.16335761253691,-9999,17930.9660545,-0.73944091796875,0.439971923828125,-0.48870849609375,17930.9559785,-0.5669242769413623,-0.9931147328558885,-0.472433768654238,-0.0464446023106575,-0.03441594913601875,-0.0006042607128620148,0.004056036472320557,-0.02306312322616577,0.006301820278167725,XArbitraryZVertical,0.3270915364714613,0.3871402263379748,0.1320337144527064,-0.851880704591867,-0.7459688186645508,0.4550548195838928,-0.4862671494483948,0,0,0,-1,-1,17929.96478025,unknown,2,2025-04-21T15:12:24.903+03:00,2025-04-20T21:57:49.637+03:00,6664,0.9608214,0,0,5475.677,5,6,2025-04-21T15:12:24.903+03:00,766930345.0033971,0,-44.25,100.2639,1,0.45,2025-04-21T15:12:15.606+03:00,97,1.616666666666667,2025-04-21T12:30:07.995+03:00,0.02023345852159405,0
2025-04-21T15:12:25.919+03:00,1745237542.616518,40.95223020707327,29.14028338385629,76.36061,-1,-1,-1,-1,30,18.16335761253691,-9999,17930.9761305,-0.74395751953125,0.453826904296875,-0.4864349365234375,17930.9660545,-0.5673821721545904,-0.993708130161529,-0.4726253164945625,-0.04265359044075012,-0.03875823318958282,-0.006786389742046595,0.005980372428894043,-0.01838144659996033,0.0001199543476104736,XArbitraryZVertical,0.3272950412805599,0.3872848916199791,0.1320835125572001,-0.8517288658312996,-0.7461839914321899,0.4552253782749176,-0.4857767522335052,0,0,0,-1,-1,17929.96478025,unknown,2,2025-04-21T15:12:24.903+03:00,2025-04-20T21:57:49.637+03:00,6664,0.9608214,0,0,5475.677,5,6,2025-04-21T15:12:24.903+03:00,766930345.0033971,0,-44.25,100.2639,1,0.45,2025-04-21T15:12:15.606+03:00,97,1.616666666666667,2025-04-21T12:30:07.995+03:00,0.02023345852159405,0
2025-04-21T15:12:25.930+03:00,1745237542.616518,40.95223020707327,29.14028338385629,76.36061,-1,-1,-1,-1,30,18.16335761253691,-9999,17930.9862065,-0.7540740966796875,0.464508056640625,-0.478179931640625,17930.9761305,-0.5678153161318732,-0.9942380726981407,-0.4728023819596388,-0.04174305498600006,-0.02433322183787823,-0.005347217433154583,0.004827380180358887,-0.006881415843963623,-0.003264397382736206,XArbitraryZVertical,0.3274837808959986,0.3874089784807698,0.1321367195298936,-0.8515916730291718,-0.7463737726211548,0.4553830325603485,-0.4853373169898987,0,0,0,-1,-1,17929.96478025,unknown,2,2025-04-21T15:12:24.903+03:00,2025-04-20T21:57:49.637+03:00,6664,0.9608214,0,0,5475.677,5,6,2025-04-21T15:12:24.903+03:00,766930345.0033971,0,-44.25,100.2639,1,0.45,2025-04-21T15:12:15.606+03:00,97,1.616666666666667,2025-04-21T12:30:07.995+03:00,0.02023345852159405,0
2025-04-21T15:12:25.940+03:00,1745237542.616518,40.95223020707327,29.14028338385629,76.36061,-1,-1,-1,-1,30,18.16335761253691,-9999,17930.9962825,-0.7627716064453125,0.4612884521484375,-0.4767913818359375,17930.9862065,-0.5681700019534716,-0.9945553154231933,-0.4729729321120841,-0.02766898274421692,-0.006260145455598831,-0.001916500041261315,-0.003460943698883057,0.006455540657043457,0.00475725531578064,XArbitraryZVertical,0.3276407207302687,0.3874563980048008,0.1321929038119953,-0.8515010337450811,-0.7464625835418701,0.4555348455905914,-0.4850581884384155,0,0,0,-1,-1,17929.96478025,unknown,2,2025-04-21T15:12:24.903+03:00,2025-04-20T21:57:49.637+03:00,6664,0.9608214,0,0,5475.677,5,6,2025-04-21T15:12:24.903+03:00,766930345.0033971,0,-44.25,100.2639,1,0.45,2025-04-21T15:12:15.606+03:00,97,1.616666666666667,2025-04-21T12:30:07.995+03:00,0.02023345852159405,0
2025-04-21T15:12:25.950+03:00,1745237542.616518,40.95223020707327,29.14028338385629,76.36061,-1,-1,-1,-1,30,18.16335761253691,-9999,17931.0063575,-0.7629241943359375,0.4585723876953125,-0.4825897216796875,17930.9962825,-0.5683965543251539,-0.9946112522685845,-0.4730981703029771,-0.01670128665864468,0.01332314312458038,-0.001151107484474778,-0.01434588432312012,0.007717341184616089,0.008560121059417725,XArbitraryZVertical,0.327737702451235,0.3874213759784201,0.1322487001874977,-0.8514709788140709,-0.7464419007301331,0.4556463360786438,-0.4849853515625,0,0,0,-1,-1,17929.96478025,unknown,2,2025-04-21T15:12:24.903+03:00,2025-04-20T21:57:49.637+03:00,6664,0.9608214,0,0,5475.677,5,6,2025-04-21T15:12:24.903+03:00,766930345.0033971,0,-44.25,100.2639,1,0.45,2025-04-21T15:12:15.606+03:00,97,1.616666666666667,2025-04-21T12:30:07.995+03:00,0.02023345852159405,0
2025-04-21T15:12:25.960+03:00,1745237542.616518,40.95223020707327,29.14028338385629,76.36061,-1,-1,-1,-1,30,18.16335761253691,-9999,17931.0164335,-0.754669189453125,0.457672119140625,-0.4862518310546875,17931.0063575,-0.5684681510336778,-0.9944916109574109,-0.4731482003658665,-0.002948522800579667,0.01439340226352215,0.002357307588681579,-0.01744431257247925,0.00263744592666626,0.004929125308990479,XArbitraryZVertical,0.3277633839433777,0.3873500289604621,0.1322862102142111,-0.8514877410033628,-0.7463647723197937,0.455690860748291,-0.4850622415542603,0,0,0,-1,-1,17929.96478025,unknown,2,2025-04-21T15:12:24.903+03:00,2025-04-20T21:57:49.637+03:00,6664,0.9608214,0,0,5475.677,5,6,2025-04-21T15:12:24.903+03:00,766930345.0033971,0,-44.25,100.2639,1,0.45,2025-04-21T15:12:15.606+03:00,97,1.616666666666667,2025-04-21T12:30:07.995+03:00,0.02023345852159405,0
2025-04-21T15:12:25.969+03:00,1745237542.616518,40.95223020707327,29.14028338385629,76.36061,-1,-1,-1,-1,30,18.16335761253691,-9999,17931.0265095,-0.74798583984375,0.4514923095703125,-0.485382080078125,17931.0164335,-0.5684471405628575,-0.9943367418124855,-0.4731451599782303,-0.0005966853350400925,0.01166153140366077,0.003562388010323048,-0.01165884733200073,0.003204703330993652,-0.0001119375228881836,XArbitraryZVertical,0.3277478501406782,0.3872880617256051,0.1323034181202686,-0.8515192916756521,-0.7462908625602722,0.4556881785392761,-0.4851786196231842,0,0,0,-1,-1,17929.96478025,unknown,2,2025-04-21T15:12:24.903+03:00,2025-04-20T21:57:49.637+03:00,6664,0.9608214,0,0,5475.677,5,6,2025-04-21T15:12:24.903+03:00,766930345.0033971,0,-44.25,100.2639,1,0.45,2025-04-21T15:12:15.606+03:00,97,1.616666666666667,2025-04-21T12:30:07.995+03:00,0.02023345852159405,0
2025-04-21T15:12:25.980+03:00,1745237542.616518,40.95223020707327,29.14028338385629,76.36061,-1,-1,-1,-1,30,18.16335761253691,-9999,17931.0365855,-0.7450408935546875,0.447784423828125,-0.4858551025390625,17931.0265095,-0.5684485805582197,-0.9942187666543547,-0.4731858764496705,-0.007042533718049526,0.01071617566049099,0.009597543627023697,-0.00379711389541626,-0.00249248743057251,0.0003015995025634766,XArbitraryZVertical,0.3277563889152275,0.3872305342676959,0.1323131263621788,-0.8515406453330484,-0.7462180256843567,0.4557244181632996,-0.4852565228939056,0,0,0,-1,-1,17929.96478025,unknown,2,2025-04-21T15:12:24.903+03:00,2025-04-20T21:57:49.637+03:00,6664,0.9608214,0,0,5475.677,5,6,2025-04-21T15:12:24.903+03:00,766930345.0033971,0,-44.25,100.2639,1,0.45,2025-04-21T15:12:15.606+03:00,97,1.616666666666667,2025-04-21T12:30:07.995+03:00,0.02023345852159405,0
2025-04-21T15:12:25.990+03:00,1745237542.616518,40.95223020707327,29.14028338385629,76.36061,-1,-1,-1,-1,30,18.16335761253691,-9999,17931.0466615,-0.7426605224609375,0.441864013671875,-0.481597900390625,17931.0365855,-0.5685281622159697,-0.9941879846089868,-0.473262771175868,-0.01996126212179661,0.006043126340955496,0.006421723868697882,-0.000560760498046875,-0.006696075201034546,-0.0003659725189208984,XArbitraryZVertical,0.3278000830371903,0.3871910468403544,0.1323327268499533,-0.8515387516067782,-0.7461737394332886,0.4557928442955017,-0.485260397195816,0,0,0,-1,-1,17929.96478025,unknown,2,2025-04-21T15:12:24.903+03:00,2025-04-20T21:57:49.637+03:00,6664,0.9608214,0,0,5475.677,5,6,2025-04-21T15:12:24.903+03:00,766930345.0033971,0,-44.25,100.2639,1,0.45,2025-04-21T15:12:15.606+03:00,97,1.616666666666667,2025-04-21T12:30:07.995+03:00,0.02023345852159405,0
2025-04-21T15:12:26.000+03:00,1745237542.616518,40.95223020707327,29.14028338385629,76.36061,-1,-1,-1,-1,30,18.16335761253691,-9999,17931.0567375,-0.744659423828125,0.4434814453125,-0.482940673828125,17931.0466615,-0.5686880211982027,-0.9942167306181011,-0.4734173716518716,-0.02883245050907135,0.003645282704383135,0.0080148596316576,0.003040969371795654,-0.01246419548988342,0.00187838077545166,XArbitraryZVertical,0.3278938878802113,0.3871502569426594,0.1323572194898706,-0.8515174250768029,-0.7461286187171936,0.4559304416179657,-0.4852005541324615,0,0,0,-1,-1,17929.96478025,unknown,2,2025-04-21T15:12:24.903+03:00,2025-04-20T21:57:49.637+03:00,6664,0.9608214,0,0,5475.677,5,6,2025-04-21T15:12:24.903+03:00,766930345.0033971,0,-44.25,100.2639,1,0.45,2025-04-21T15:12:15.606+03:00,97,1.616666666666667,2025-04-21T12:30:07.995+03:00,0.02023345852159405,0
2025-04-21T15:12:26.010+03:00,1745237542.616518,40.95223020707327,29.14028338385629,76.36061,-1,-1,-1,-1,30,18.16335761253691,-9999,17931.0668125,-0.7461395263671875,0.45135498046875,-0.479736328125,17931.0567375,-0.5689409390690269,-0.9942790874975533,-0.4736167602241897,-0.03310336172580719,0.003511592047289014,0.006070753093808889,0.002033650875091553,-0.01461005210876465,0.00304865837097168,XArbitraryZVertical,0.3280256440430136,0.387100730733801,0.1324045282040446,-0.8514817276738241,-0.7460825443267822,0.4561079144477844,-0.4851044118404388,0,0,0,-1,-1,17929.96478025,unknown,2,2025-04-21T15:12:24.903+03:00,2025-04-20T21:57:49.637+03:00,6664,0.9608214,0,0,5475.677,5,6,2025-04-21T15:12:24.903+03:00,766930345.0033971,0,-44.25,100.2639,1,0.45,2025-04-21T15:12:15.606+03:00,97,1.616666666666667,2025-04-21T12:30:07.995+03:00,0.02023345852159405,0
2025-04-21T15:12:26.020+03:00,1745237542.616518,40.95223020707327,29.14028338385629,76.36061,-1,-1,-1,-1,30,18.16335761253691,-9999,17931.0768885,-0.7510986328125,0.4550018310546875,-0.478057861328125,17931.0668125,-0.5692280094169585,-0.9943153542214113,-0.4738680408443635,-0.02917240373790264,0.01991786248981953,0.00505069550126791,0.0007343888282775879,-0.008257150650024414,0.002074122428894043,XArbitraryZVertical,0.3281826974481382,0.3870254470293987,0.1324576092617448,-0.8514471460166664,-0.746004045009613,0.4563315212726593,-0.4850148260593414,0,0,0,-1,-1,17929.96478025,unknown,2,2025-04-21T15:12:24.903+03:00,2025-04-20T21:57:49.637+03:00,6664,0.9608214,0,0,5475.677,5,6,2025-04-21T15:12:24.903+03:00,766930345.0033971,0,-44.25,100.2639,1,0.45,2025-04-21T15:12:15.606+03:00,97,1.616666666666667,2025-04-21T12:30:07.995+03:00,0.02023345852159405,0
2025-04-21T15:12:26.030+03:00,1745237542.616518,40.95223020707327,29.14028338385629,76.36061,-1,-1,-1,-1,30,18.16335761253691,-9999,17931.0869645,-0.7516937255859375,0.4540557861328125,-0.4860687255859375,17931.0768885,-0.5694904638983469,-0.9942245889917938,-0.4740396488715328,-0.02587088383734226,0.02566496469080448,0.001661823131144047,-0.003739297389984131,-0.001924872398376465,0.008187383413314819,XArbitraryZVertical,0.3282951331550608,0.3869139237555432,0.1325410867929294,-0.8514414783929423,-0.7458943128585815,0.4564841985702515,-0.4850398302078247,0,0,0,-1,-1,17929.96478025,unknown,2,2025-04-21T15:12:24.903+03:00,2025-04-20T21:57:49.637+03:00,6664,0.9608214,0,0,5475.677,5,6,2025-04-21T15:12:24.903+03:00,766930345.0033971,0,-44.25,100.2639,1,0.45,2025-04-21T15:12:15.606+03:00,97,1.616666666666667,2025-04-21T12:30:07.995+03:00,0.02023345852159405,0
2025-04-21T15:12:26.040+03:00,1745237542.616518,40.95223020707327,29.14028338385629,76.36061,-1,-1,-1,-1,30,18.16335761253691,-9999,17931.0970405,-0.7455596923828125,0.4546966552734375,-0.48486328125,17931.0869645,-0.5697220454070763,-0.994149860267305,-0.4741638200723857,-0.01997704058885574,0.01686161942780018,0.0008062825654633343,-0.007149457931518555,-0.002462565898895264,0.001895099878311157,XArbitraryZVertical,0.3283839270018594,0.3868225144918352,0.1326207247040452,-0.8514363784034247,-0.7458105683326721,0.4565946757793427,-0.485064685344696,0,0,0,-1,-1,17929.96478025,unknown,2,2025-04-21T15:12:24.903+03:00,2025-04-20T21:57:49.637+03:00,6664,0.9608214,0,0,5475.677,5,6,2025-04-21T15:12:24.903+03:00,766930345.0033971,0,-44.25,100.2639,1,0.45,2025-04-21T15:12:15.606+03:00,97,1.616666666666667,2025-04-21T12:30:07.995+03:00,0.02023345852159405,0
2025-04-21T15:12:26.050+03:00,1745237542.616518,40.95223020707327,29.14028338385629,76.36061,-1,-1,-1,-1,30,18.16335761253691,-9999,17931.1071165,-0.7456512451171875,0.449462890625,-0.4880523681640625,17931.0970405,-0.5699459656866257,-0.9940722067980976,-0.4743067495999344,-0.02297176606953144,0.0170776005834341,0.003669447265565395,-0.00156557559967041,-0.00179627537727356,-0.000844419002532959,XArbitraryZVertical,0.3284784270194361,0.3867278403761291,0.1326928675994054,-0.8514316938730501,-0.7457181811332703,0.4567218422889709,-0.4850870072841644,0,0,0,-1,-1,17929.96478025,unknown,2,2025-04-21T15:12:24.903+03:00,2025-04-20T21:57:49.637+03:00,6664,0.9608214,0,0,5475.677,5,6,2025-04-21T15:12:24.903+03:00,766930345.0033971,0,-44.25,100.2639,1,0.45,2025-04-21T15:12:15.606+03:00,97,1.616666666666667,2025-04-21T12:30:07.995+03:00,0.02023345852159405,0
2025-04-21T15:12:26.060+03:00,1745237542.616518,40.95223020707327,29.14028338385629,76.36061,-1,-1,-1,-1,30,18.16335761253691,-9999,17931.1171925,-0.742767333984375,0.4468994140625,-0.490692138671875,17931.1071165,-0.5701732928151768,-0.9939984386687619,-0.4744262848886485,-0.02344374358654022,0.0169861875474453,0.00191572227049619,0.0002602338790893555,-0.004862815141677856,-0.0002851784229278564,XArbitraryZVertical,0.3285646121125502,0.3866383111593286,0.1327717052931735,-0.8514267916424609,-0.7456365823745728,0.4568281769752502,-0.4851122200489044,0,0,0,-1,-1,17929.96478025,unknown,2,2025-04-21T15:12:24.903+03:00,2025-04-20T21:57:49.637+03:00,6664,0.9608214,0,0,5475.677,5,6,2025-04-21T15:12:24.903+03:00,766930345.0033971,0,-44.25,100.2639,1,0.45,2025-04-21T15:12:15.606+03:00,97,1.616666666666667,2025-04-21T12:30:07.995+03:00,0.02023345852159405,0
2025-04-21T15:12:26.071+03:00,1745237542.616518,40.95223020707327,29.14028338385629,76.36061,-1,-1,-1,-1,30,18.16335761253691,-9999,17931.1272675,-0.740203857421875,0.4500732421875,-0.4847869873046875,17931.1171925,-0.5703526206256608,-0.9939364412296553,-0.474550945186727,-0.02032385021448135,0.0130913145840168,0.005347205325961113,0.0009605884552001953,-0.009810745716094971,-0.006617575883865356,XArbitraryZVertical,0.3286442834602408,0.3865607705652561,0.1328268996143685,-0.8514226861719865,-0.7455587983131409,0.4569390714168549,-0.4851274192333221,0,0,0,-1,-1,17929.96478025,unknown,2,2025-04-21T15:12:24.903+03:00,2025-04-20T21:57:49.637+03:00,6664,0.9608214,0,0,5475.677,5,6,2025-04-21T15:12:24.903+03:00,766930345.0033971,0,-44.25,100.2639,1,0.45,2025-04-21T15:12:15.606+03:00,97,1.616666666666667,2025-04-21T12:30:07.995+03:00,0.02023345852159405,0
2025-04-21T15:12:26.081+03:00,1745237542.616518,40.95223020707327,29.14028338385629,76.36061,-1,-1,-1,-1,30,18.16335761253691,-9999,17931.1373435,-0.7366180419921875,0.4513702392578125,-0.484710693359375,17931.1272675,-0.5705089881235692,-0.9939320503130257,-0.4746688053440139,-0.01983376406133175,0.002257110085338354,0.004098615609109402,0.004087150096893311,-0.008939027786254883,-0.001501530408859253,XArbitraryZVertical,0.3287206858584613,0.3865127004373384,0.1328645500474436,-0.8514090978261407,-0.745511531829834,0.4570438861846924,-0.4851012825965881,0,0,0,-1,-1,17929.96478025,unknown,2,2025-04-21T15:12:24.903+03:00,2025-04-20T21:57:49.637+03:00,6664,0.9608214,0,0,5475.677,5,6,2025-04-21T15:12:24.903+03:00,766930345.0033971,0,-44.25,100.2639,1,0.45,2025-04-21T15:12:15.606+03:00,97,1.616666666666667,2025-04-21T12:30:07.995+03:00,0.02023345852159405,0
2025-04-21T15:12:26.091+03:00,1745237542.616518,40.95223020707327,29.14028338385629,76.36061,-1,-1,-1,-1,30,18.16335761253691,-9999,17931.1474195,-0.7336578369140625,0.4543914794921875,-0.4854888916015625,17931.1373435,-0.57073336262749,-0.9940480242437604,-0.4747692917564861,-0.02839982137084007,-0.005400010850280523,-0.001440227031707764,0.007492363452911377,-0.006159693002700806,0.0001875162124633789,XArbitraryZVertical,0.3288113411029753,0.3865076980429349,0.1329157432339472,-0.8513684197627519,-0.7455292940139771,0.4571332633495331,-0.4849897921085358,0,0,0,-1,-1,17929.96478025,unknown,2,2025-04-21T15:12:24.903+03:00,2025-04-20T21:57:49.637+03:00,6664,0.9608214,0,0,5475.677,5,6,2025-04-21T15:12:24.903+03:00,766930345.0033971,0,-44.25,100.2639,1,0.45,2025-04-21T15:12:15.606+03:00,97,1.616666666666667,2025-04-21T12:30:07.995+03:00,0.02023345852159405,0
2025-04-21T15:12:26.101+03:00,1745237542.616518,40.95223020707327,29.14028338385629,76.36061,-1,-1,-1,-1,30,18.16335761253691,-9999,17931.1574955,-0.73785400390625,0.4540252685546875,-0.488006591796875,17931.1474195,-0.5710364581804637,-0.9942650902131253,-0.4749035978345006,-0.03239336237311363,-0.005589228589087725,-0.002832194790244102,0.01142185926437378,-0.004646450281143188,0.0007246136665344238,XArbitraryZVertical,0.328937266822744,0.3865268739500605,0.1329752965883101,-0.8513017879141246,-0.7455831170082092,0.457252711057663,-0.4847944974899292,0,0,0,-1,-1,17929.96478025,unknown,2,2025-04-21T15:12:24.903+03:00,2025-04-20T21:57:49.637+03:00,6664,0.9608214,0,0,5475.677,5,6,2025-04-21T15:12:24.903+03:00,766930345.0033971,0,-44.25,100.2639,1,0.45,2025-04-21T15:12:15.606+03:00,97,1.616666666666667,2025-04-21T12:30:07.995+03:00,0.02023345852159405,0
2025-04-21T15:12:26.111+03:00,1745237542.616518,40.95223020707327,29.14028338385629,76.36061,-1,-1,-1,-1,30,18.16335761253691,-9999,17931.1675715,-0.743682861328125,0.4526824951171875,-0.4789581298828125,17931.1574955,-0.571403671028155,-0.9945070629424243,-0.4750667632049697,-0.04037538915872574,-0.003551111090928316,-0.002167469821870327,0.009828627109527588,-0.002395898103713989,-0.003265380859375,XArbitraryZVertical,0.3290886218962475,0.3865410374400586,0.1330507466102735,-0.8512250624428492,-0.745637834072113,0.4573978185653687,-0.4845734238624573,0,0,0,-1,-1,17929.96478025,unknown,2,2025-04-21T15:12:24.903+03:00,2025-04-20T21:57:49.637+03:00,6664,0.9608214,0,0,5475.677,5,6,2025-04-21T15:12:24.903+03:00,766930345.0033971,0,-44.25,100.2639,1,0.45,2025-04-21T15:12:15.606+03:00,97,1.616666666666667,2025-04-21T12:30:07.995+03:00,0.02023345852159405,0
2025-04-21T15:12:26.121+03:00,1745237542.616518,40.95223020707327,29.14028338385629,76.36061,-1,-1,-1,-1,30,18.16335761253691,-9999,17931.1776465,-0.7480010986328125,0.4549102783203125,-0.48114013671875,17931.1675715,-0.5718058740510897,-0.9946606395195271,-0.4752719907377451,-0.03936638310551643,0.008593369275331497,-9.116946603171527e-05,0.00390392541885376,-0.005676001310348511,0.002504616975784302,XArbitraryZVertical,0.3292574398054621,0.3865044384422558,0.1331450074327115,-0.8511616056909663,-0.7456334233283997,0.4575802981853485,-0.4844077229499817,0,0,0,-1,-1,17929.96478025,unknown,2,2025-04-21T15:12:24.903+03:00,2025-04-20T21:57:49.637+03:00,6664,0.9608214,0,0,5475.677,5,6,2025-04-21T15:12:24.903+03:00,766930345.0033971,0,-44.25,100.2639,1,0.45,2025-04-21T15:12:15.606+03:00,97,1.616666666666667,2025-04-21T12:30:07.995+03:00,0.02023345852159405,0
2025-04-21T15:12:26.131+03:00,1745237542.616518,40.95223020707327,29.14028338385629,76.36061,-1,-1,-1,-1,30,18.16335761253691,-9999,17931.1877225,-0.744720458984375,0.451995849609375,-0.4822998046875,17931.1776465,-0.5721812363218,-0.994681717063195,-0.4755101608706677,-0.04226230457425117,0.01838288269937038,0.005423171911388636,-0.002051889896392822,-0.002332419157028198,0.005450785160064697,XArbitraryZVertical,0.329425131971638,0.386410063217366,0.1332413766291607,-0.851124630611351,-0.7455523610115051,0.4577920734882355,-0.4843326807022095,0,0,0,-1,-1,17929.96478025,unknown,2,2025-04-21T15:12:24.903+03:00,2025-04-20T21:57:49.637+03:00,6664,0.9608214,0,0,5475.677,5,6,2025-04-21T15:12:24.903+03:00,766930345.0033971,0,-44.25,100.2639,1,0.45,2025-04-21T15:12:15.606+03:00,97,1.616666666666667,2025-04-21T12:30:07.995+03:00,0.02023345852159405,0
2025-04-21T15:12:26.141+03:00,1745237542.616518,40.95223020707327,29.14028338385629,76.36061,-1,-1,-1,-1,30,18.16335761253691,-9999,17931.1977985,-0.7381439208984375,0.4518890380859375,-0.4821319580078125,17931.1877225,-0.5725382506849284,-0.9946488374906568,-0.4757909161335112,-0.03968609869480133,0.01690016873180866,0.00920945405960083,-0.001641571521759033,-0.005191266536712646,0.001407414674758911,XArbitraryZVertical,0.329602521064774,0.386288271732419,0.1333280598028145,-0.8510975428825693,-0.7454285025596619,0.4580416679382324,-0.4842871129512787,0,0,0,-1,-1,17929.96478025,unknown,2,2025-04-21T15:12:24.903+03:00,2025-04-20T21:57:49.637+03:00,6664,0.9608214,0,0,5475.677,5,6,2025-04-21T15:12:24.903+03:00,766930345.0033971,0,-44.25,100.2639,1,0.45,2025-04-21T15:12:15.606+03:00,97,1.616666666666667,2025-04-21T12:30:07.995+03:00,0.02023345852159405,0
2025-04-21T15:12:26.151+03:00,1745237542.616518,40.95223020707327,29.14028338385629,76.36061,-1,-1,-1,-1,30,18.16335761253691,-9999,17931.2078745,-0.735992431640625,0.4564208984375,-0.48443603515625,17931.1977985,-0.5728206537109228,-0.9946087670437525,-0.4760783629331639,-0.0373462438583374,0.01049313507974148,0.01462818775326014,0.004026889801025391,-0.006911635398864746,0.002479374408721924,XArbitraryZVertical,0.329767578877407,0.3861744923683054,0.1333825086714387,-0.8510767014360208,-0.7452986836433411,0.4582971632480621,-0.4842452108860016,0,0,0,-1,-1,17929.96478025,unknown,2,2025-04-21T15:12:24.903+03:00,2025-04-20T21:57:49.637+03:00,6664,0.9608214,0,0,5475.677,5,6,2025-04-21T15:12:24.903+03:00,766930345.0033971,0,-44.25,100.2639,1,0.45,2025-04-21T15:12:15.606+03:00,97,1.616666666666667,2025-04-21T12:30:07.995+03:00,0.02023345852159405,0
2025-04-21T15:12:26.161+03:00,1745237542.616518,40.95223020707327,29.14028338385629,76.36061,-1,-1,-1,-1,30,18.16335761253691,-9999,17931.2179505,-0.73748779296875,0.4572906494140625,-0.4860076904296875,17931.2078745,-0.5730352554866239,-0.9946245141280925,-0.4763834527238945,-0.03292273357510567,0.002162767108529806,0.01681371219456196,0.008800029754638672,-0.003780007362365723,0.000285804271697998,XArbitraryZVertical,0.3299301681666918,0.386092519608946,0.1333944657174242,-0.8510490529360638,-0.7451890707015991,0.4585683047771454,-0.4841572940349579,0,0,0,-1,-1,17929.96478025,unknown,2,2025-04-21T15:12:24.903+03:00,2025-04-20T21:57:49.637+03:00,6664,0.9608214,0,0,5475.677,5,6,2025-04-21T15:12:24.903+03:00,766930345.0033971,0,-44.25,100.2639,1,0.45,2025-04-21T15:12:15.606+03:00,97,1.616666666666667,2025-04-21T12:30:07.995+03:00,0.02023345852159405,0
2025-04-21T15:12:26.171+03:00,1745237542.616518,40.95223020707327,29.14028338385629,76.36061,-1,-1,-1,-1,30,18.16335761253691,-9999,17931.2280265,-0.740875244140625,0.4591522216796875,-0.4871368408203125,17931.2179505,-0.5732445839369317,-0.994719007401608,-0.4766873362893579,-0.03488468378782272,-0.000406916718930006,0.01571569032967091,0.008210062980651855,-0.001593410968780518,-0.002424061298370361,XArbitraryZVertical,0.3300965245351238,0.3860450978498318,0.1333914634993215,-0.851006494618828,-0.7451179027557373,0.4588383436203003,-0.4840109348297119,0,0,0,-1,-1,17929.96478025,unknown,2,2025-04-21T15:12:24.903+03:00,2025-04-20T21:57:49.637+03:00,6664,0.9608214,0,0,5475.677,5,6,2025-04-21T15:12:24.903+03:00,766930345.0033971,0,-44.25,100.2639,1,0.45,2025-04-21T15:12:15.606+03:00,97,1.616666666666667,2025-04-21T12:30:07.995+03:00,0.02023345852159405,0
2025-04-21T15:12:26.181+03:00,1745237542.616518,40.95223020707327,29.14028338385629,76.36061,-1,-1,-1,-1,30,18.16335761253691,-9999,17931.2381015,-0.743438720703125,0.4625244140625,-0.4916839599609375,17931.2280265,-0.5734453585330925,-0.9947980447274162,-0.4769955773872135,-0.03215727582573891,-0.001415921840816736,0.01421303488314152,0.006283342838287354,-0.0005855262279510498,-0.001644492149353027,XArbitraryZVertical,0.3302618754725839,0.3859917078948115,0.1333862622388144,-0.8509673866373249,-0.7450374960899353,0.4591121971607208,-0.4838749766349792,0,0,0,-1,-1,17929.96478025,unknown,2,2025-04-21T15:12:24.903+03:00,2025-04-20T21:57:49.637+03:00,6664,0.9608214,0,0,5475.677,5,6,2025-04-21T15:12:24.903+03:00,766930345.0033971,0,-44.25,100.2639,1,0.45,2025-04-21T15:12:15.606+03:00,97,1.616666666666667,2025-04-21T12:30:07.995+03:00,0.02023345852159405,0
2025-04-21T15:12:26.191+03:00,1745237542.616518,40.95223020707327,29.14028338385629,76.36061,-1,-1,-1,-1,30,18.16335761253691,-9999,17931.2481775,-0.7441253662109375,0.4644012451171875,-0.4918212890625,17931.2381015,-0.5735962524831267,-0.9948898825406968,-0.4772418602950672,-0.01765929162502289,-0.009387828409671783,0.00947154313325882,0.002235174179077148,0.002476304769515991,-0.006489425897598267,XArbitraryZVertical,0.3303940588697151,0.3859628005500745,0.1333732973237625,-0.850931204553776,-0.7449870705604553,0.4593309760093689,-0.4837449789047241,0,0,0,-1,-1,17929.96478025,unknown,2,2025-04-21T15:12:24.903+03:00,2025-04-20T21:57:49.637+03:00,6664,0.9608214,0,0,5475.677,5,6,2025-04-21T15:12:24.903+03:00,766930345.0033971,0,-44.25,100.2639,1,0.45,2025-04-21T15:12:15.606+03:00,97,1.616666666666667,2025-04-21T12:30:07.995+03:00,0.02023345852159405,0
2025-04-21T15:12:26.202+03:00,1745237542.616518,40.95223020707327,29.14028338385629,76.36061,-1,-1,-1,-1,30,18.16335761253691,-9999,17931.2582535,-0.7501068115234375,0.4667510986328125,-0.487396240234375,17931.2481775,-0.5736615945104423,-0.9949880873122228,-0.4773501709778853,-0.002956845099106431,-0.004167566075921059,0.004467695951461792,0.001554310321807861,0.004363775253295898,-0.008603841066360474,XArbitraryZVertical,0.3304558426114731,0.3859748459094094,0.133357605524234,-0.8509042089150983,-0.7449928522109985,0.4594271779060364,-0.4836446940898895,0,0,0,-1,-1,17929.96478025,unknown,2,2025-04-21T15:12:24.903+03:00,2025-04-20T21:57:49.637+03:00,6664,0.9608214,0,0,5475.677,5,6,2025-04-21T15:12:24.903+03:00,766930345.0033971,0,-44.25,100.2639,1,0.45,2025-04-21T15:12:15.606+03:00,97,1.616666666666667,2025-04-21T12:30:07.995+03:00,0.02023345852159405,0
2025-04-21T15:12:26.212+03:00,1745237542.616518,40.95223020707327,29.14028338385629,76.36061,-1,-1,-1,-1,30,18.16335761253691,-9999,17931.2683295,-0.7556915283203125,0.4612274169921875,-0.4835968017578125,17931.2582535,-0.5736419359886761,-0.9949765313453646,-0.4773790426463386,0.001295157708227634,0.005257360637187958,0.002320123137906194,-0.002353370189666748,0.007054179906845093,-0.005031943321228027,XArbitraryZVertical,0.3304626298455713,0.385968127308487,0.133343886706446,-0.8509067984549471,-0.7449761629104614,0.4594528079032898,-0.4836461246013641,0,0,0,-1,-1,17929.96478025,unknown,2,2025-04-21T15:12:24.903+03:00,2025-04-20T21:57:49.637+03:00,6664,0.9608214,0,0,5475.677,5,6,2025-04-21T15:12:24.903+03:00,766930345.0033971,0,-44.25,100.2639,1,0.45,2025-04-21T15:12:15.606+03:00,97,1.616666666666667,2025-04-21T12:30:07.995+03:00,0.02023345852159405,0
2025-04-21T15:12:26.222+03:00,1745237542.616518,40.95223020707327,29.14028338385629,76.36061,-1,-1,-1,-1,30,18.16335761253691,-9999,17931.2784055,-0.7525787353515625,0.459320068359375,-0.48504638671875,17931.2683295,-0.5735679200233962,-0.9948518968169575,-0.4773654689911516,0.01017020922154188,0.01001649629324675,0.004157071933150291,-0.009915828704833984,0.004502773284912109,-0.001288831233978271,XArbitraryZVertical,0.3304347141723384,0.3859297047267822,0.1333363976867575,-0.8509361897021938,-0.7449210286140442,0.4594407677650452,-0.4837423264980316,0,0,0,-1,-1,17929.96478025,unknown,2,2025-04-21T15:12:24.903+03:00,2025-04-20T21:57:49.637+03:00,6664,0.9608214,0,0,5475.677,5,6,2025-04-21T15:12:24.903+03:00,766930345.0033971,0,-44.25,100.2639,1,0.45,2025-04-21T15:12:15.606+03:00,97,1.616666666666667,2025-04-21T12:30:07.995+03:00,0.02023345852159405,0
2025-04-21T15:12:26.232+03:00,1745237542.616518,40.95223020707327,29.14028338385629,76.36061,-1,-1,-1,-1,30,18.16335761253691,-9999,17931.2884815,-0.744049072265625,0.4591064453125,-0.4918670654296875,17931.2784055,-0.5734224659060174,-0.9947393542625121,-0.4773209346757618,0.01303763408213854,-0.002086505759507418,0.004751223139464855,-0.009693682193756104,-5.060434341430664e-05,0.001003384590148926,XArbitraryZVertical,0.3303816296145258,0.3859136381972783,0.1333043081654628,-0.8509690832673071,-0.7448837161064148,0.4594011902809143,-0.4838372766971588,0,0,0,-1,-1,17929.96478025,unknown,2,2025-04-21T15:12:24.903+03:00,2025-04-20T21:57:49.637+03:00,6664,0.9608214,0,0,5475.677,5,6,2025-04-21T15:12:24.903+03:00,766930345.0033971,0,-44.25,100.2639,1,0.45,2025-04-21T15:12:15.606+03:00,97,1.616666666666667,2025-04-21T12:30:07.995+03:00,0.02023345852159405,0
2025-04-21T15:12:26.242+03:00,1745237542.616518,40.95223020707327,29.14028338385629,76.36061,-1,-1,-1,-1,30,18.16335761253691,-9999,17931.2985565,-0.73785400390625,0.4568328857421875,-0.492431640625,17931.2884815,-0.5731927258292557,-0.9947294795076224,-0.4772541731300086,0.02922985143959522,-0.01553287170827389,0.007740321569144726,-0.002943634986877441,0.0002681612968444824,-0.005762696266174316,XArbitraryZVertical,0.3303103515753019,0.3859590534220674,0.13322499585459,-0.8509886039094818,-0.7449046969413757,0.4593419134616852,-0.4838613569736481,0,0,0,-1,-1,17929.96478025,unknown,2,2025-04-21T15:12:24.903+03:00,2025-04-20T21:57:49.637+03:00,6664,0.9608214,0,0,5475.677,5,6,2025-04-21T15:12:24.903+03:00,766930345.0033971,0,-44.25,100.2639,1,0.45,2025-04-21T15:12:15.606+03:00,97,1.616666666666667,2025-04-21T12:30:07.995+03:00,0.02023345852159405,0
2025-04-21T15:12:26.252+03:00,1745237542.616518,40.95223020707327,29.14028338385629,76.36061,-1,-1,-1,-1,30,18.16335761253691,-9999,17931.3086325,-0.7366790771484375,0.45928955078125,-0.4890289306640625,17931.2985565,-0.5728297076351256,-0.9947818555619494,-0.4771445678241524,0.03674875572323799,-0.0308750756084919,0.007909964770078659,0.005317926406860352,-0.001587629318237305,-0.009695827960968018,XArbitraryZVertical,0.3302006276890697,0.3860604366688206,0.1330894724107323,-0.8510064111456693,-0.744972288608551,0.4592445492744446,-0.4838497638702393,0,0,0,-1,-1,17929.96478025,unknown,2,2025-04-21T15:12:24.903+03:00,2025-04-20T21:57:49.637+03:00,6664,0.9608214,0,0,5475.677,5,6,2025-04-21T15:12:24.903+03:00,766930345.0033971,0,-44.25,100.2639,1,0.45,2025-04-21T15:12:15.606+03:00,97,1.616666666666667,2025-04-21T12:30:07.995+03:00,0.02023345852159405,0
2025-04-21T15:12:26.262+03:00,1745237542.616518,40.95223020707327,29.14028338385629,76.36061,-1,-1,-1,-1,30,18.16335761253691,-9999,17931.3187085,-0.7414093017578125,0.4565582275390625,-0.487518310546875,17931.3086325,-0.5723542784285341,-0.9949133572230273,-0.4769754036152796,0.04920469224452972,-0.039553452283144,0.009243043139576912,0.008452653884887695,-0.0008270144462585449,-0.006760776042938232,XArbitraryZVertical,0.3300509747599213,0.3862244111085291,0.132908053345295,-0.8510184456430357,-0.7451010346412659,0.4590942561626434,-0.4837941229343414,0,0,0,-1,-1,17929.96478025,unknown,2,2025-04-21T15:12:24.903+03:00,2025-04-20T21:57:49.637+03:00,6664,0.9608214,0,0,5475.677,5,6,2025-04-21T15:12:24.903+03:00,766930345.0033971,0,-44.25,100.2639,1,0.45,2025-04-21T15:12:15.606+03:00,97,1.616666666666667,2025-04-21T12:30:07.995+03:00,0.02023345852159405,0
2025-04-21T15:12:26.272+03:00,1745237542.616518,40.95223020707327,29.14028338385629,76.36061,-1,-1,-1,-1,30,18.16335761253691,-9999,17931.3287845,-0.7420806884765625,0.4585723876953125,-0.486175537109375,17931.3187085,-0.5718252212445846,-0.9950529137176662,-0.4767710756680883,0.05128568783402443,-0.0409255139529705,0.00673407968133688,0.006096363067626953,-0.0005996823310852051,-0.004173874855041504,XArbitraryZVertical,0.3298776086693399,0.3864067424143658,0.1327113401874143,-0.8510335838485862,-0.7452472448348999,0.45891273021698,-0.4837411940097809,0,0,0,-1,-1,17929.96478025,unknown,2,2025-04-21T15:12:24.903+03:00,2025-04-20T21:57:49.637+03:00,6664,0.9608214,0,0,5475.677,5,6,2025-04-21T15:12:24.903+03:00,766930345.0033971,0,-44.25,100.2639,1,0.45,2025-04-21T15:12:15.606+03:00,97,1.616666666666667,2025-04-21T12:30:07.995+03:00,0.02023345852159405,0
2025-04-21T15:12:26.290+03:00,1745237542.616518,40.95223020707327,29.14028338385629,76.36061,-1,-1,-1,-1,30,18.16335761253691,-9999,17931.3388605,-0.74847412109375,0.4515838623046875,-0.4810028076171875,17931.3287845,-0.5713425608205711,-0.9952694520616829,-0.4765701737394752,0.03090045228600502,-0.05113107711076736,0.001950476318597794,0.003959119319915771,-0.00235903263092041,-0.002911806106567383,XArbitraryZVertical,0.329719575932702,0.3866135141080012,0.132520832686444,-0.8510306295270923,-0.7454293370246887,0.4587342143058777,-0.48362997174263,0,0,0,-1,-1,17929.96478025,unknown,2,2025-04-21T15:12:24.903+03:00,2025-04-20T21:57:49.637+03:00,6664,0.9608214,0,0,5475.677,5,6,2025-04-21T15:12:24.903+03:00,766930345.0033971,0,-44.25,100.2639,1,0.45,2025-04-21T15:12:15.606+03:00,97,1.616666666666667,2025-04-21T12:30:07.995+03:00,0.02023345852159405,0
2025-04-21T15:12:26.293+03:00,1745237542.616518,40.95223020707327,29.14028338385629,76.36061,-1,-1,-1,-1,30,18.16335761253691,-9999,17931.3489355,-0.755279541015625,0.42535400390625,-0.4817047119140625,17931.3388605,-0.5714036332072534,-0.9958702109828408,-0.476642145762207,-0.05011983215808868,-0.0618942454457283,0.002576319267973304,1.049041748046875e-05,-0.001476913690567017,-0.0007073879241943359,XArbitraryZVertical,0.3297994847045003,0.3868465052174022,0.132429654229051,-0.8509080548017487,-0.7456920742988586,0.4587981700897217,-0.4831641614437103,0,0,0,-1,-1,17929.96478025,unknown,2,2025-04-21T15:12:24.903+03:00,2025-04-20T21:57:49.637+03:00,6664,0.9608214,0,0,5475.677,5,6,2025-04-21T15:12:24.903+03:00,766930345.0033971,0,-44.25,100.2639,1,0.45,2025-04-21T15:12:15.606+03:00,97,1.616666666666667,2025-04-21T12:30:07.995+03:00,0.02023345852159405,0
2025-04-21T15:12:26.302+03:00,1745237542.616518,40.95223020707327,29.14028338385629,76.36061,-1,-1,-1,-1,30,18.16335761253691,-9999,17931.3590115,-0.75152587890625,0.4102325439453125,-0.5118560791015625,17931.3489355,-0.5722360444992327,-0.9968387764385699,-0.4771912109566637,-0.1358485221862793,-0.05689063295722008,0.007901875302195549,-0.007134139537811279,-0.02312874794006348,0.003560245037078857,XArbitraryZVertical,0.3302408209132878,0.3870253519485986,0.1324855479638006,-0.8506466670981129,-0.7459478974342346,0.4592859745025635,-0.4823047518730164,0,0,0,-1,-1,17929.96478025,unknown,2,2025-04-21T15:12:24.903+03:00,2025-04-20T21:57:49.637+03:00,6664,0.9608214,0,0,5475.677,5,6,2025-04-21T15:12:24.903+03:00,766930345.0033971,0,-44.25,100.2639,1,0.45,2025-04-21T15:12:15.606+03:00,97,1.616666666666667,2025-04-21T12:30:07.995+03:00,0.02023345852159405,0
2025-04-21T15:12:26.312+03:00,1745237542.616518,40.95223020707327,29.14028338385629,76.36061,-1,-1,-1,-1,30,18.16335761253691,-9999,17931.3690875,-0.740142822265625,0.42999267578125,-0.5510406494140625,17931.3590115,-0.5735495308733312,-0.9980416165663342,-0.4780523930073642,-0.1228690668940544,-0.06518984586000443,0.01501224935054779,-0.008092641830444336,-0.04807868599891663,-0.01688483357429504,XArbitraryZVertical,0.3309134361613091,0.3871691953270971,0.1326280495646899,-0.8502975586293607,-0.7461948394775391,0.4600507915019989,-0.4811926186084747,0,0,0,-1,-1,17929.96478025,unknown,2,2025-04-21T15:12:24.903+03:00,2025-04-20T21:57:49.637+03:00,6664,0.9608214,0,0,5475.677,5,6,2025-04-21T15:12:24.903+03:00,766930345.0033971,0,-44.25,100.2639,1,0.45,2025-04-21T15:12:15.606+03:00,97,1.616666666666667,2025-04-21T12:30:07.995+03:00,0.02023345852159405,0
2025-04-21T15:12:26.322+03:00,1745237542.616518,40.95223020707327,29.14028338385629,76.36061,-1,-1,-1,-1,30,18.16335761253691,-9999,17931.3791635,-0.7345428466796875,0.4823760986328125,-0.59381103515625,17931.3690875,-0.5741353440488375,-0.9991270753751456,-0.4786047782143906,-0.029288649559021,-0.1004315838217735,0.01830145157873631,0.002148866653442383,-0.04234349727630615,-0.05530816316604614,XArbitraryZVertical,0.3313158809307041,0.3874369017216606,0.1325578976318899,-0.8500299058643233,-0.7465029954910278,0.460541158914566,-0.4802448749542236,0,0,0,-1,-1,17929.96478025,unknown,2,2025-04-21T15:12:24.903+03:00,2025-04-20T21:57:49.637+03:00,6664,0.9608214,0,0,5475.677,5,6,2025-04-21T15:12:24.903+03:00,766930345.0033971,0,-44.25,100.2639,1,0.45,2025-04-21T15:12:15.606+03:00,97,1.616666666666667,2025-04-21T12:30:07.995+03:00,0.02023345852159405,0
2025-04-21T15:12:26.333+03:00,1745237542.616518,40.95223020707327,29.14028338385629,76.36061,-1,-1,-1,-1,30,18.16335761253691,-9999,17931.389239625,-0.7463836669921875,0.517425537109375,-0.6151275634765625,17931.3791635,-0.5734126867062802,-1.000037225474118,-0.4786686684749947,0.1278852671384811,-0.1497503966093063,0.06830443441867828,0.01177722215652466,-0.001354068517684937,-0.09935396909713745,XArbitraryZVertical,0.3312611285243565,0.3879322162628941,0.1320838676959691,-0.849899080994548,-0.7469149827957153,0.4605978727340698,-0.4795493185520172,0,0,0,-1,-1,17929.96478025,unknown,2,2025-04-21T15:12:24.903+03:00,2025-04-20T21:57:49.637+03:00,6664,0.9608214,0,0,5475.677,5,6,2025-04-21T15:12:24.903+03:00,766930345.0033971,0,-44.25,100.2639,1,0.45,2025-04-21T15:12:15.606+03:00,97,1.616666666666667,2025-04-21T12:30:07.995+03:00,0.02023345852159405,0
2025-04-21T15:12:26.343+03:00,1745237542.616518,40.95223020707327,29.14028338385629,76.36061,-1,-1,-1,-1,30,18.16335761253691,-9999,17931.399315625,-0.7771148681640625,0.4855194091796875,-0.61968994140625,17931.389239625,-0.5710430368434574,-1.000562332095497,-0.4783911488376805,0.2326878309249878,-0.1667842417955399,0.1050242260098457,0.007040083408355713,0.05194708704948425,-0.1308966875076294,XArbitraryZVertical,0.3307265883811754,0.3885960511017169,0.1310601191070421,-0.8499625445075091,-0.7472742795944214,0.4603515267372131,-0.4792260527610779,0,0,0,-1,-1,17929.96478025,unknown,2,2025-04-21T15:12:24.903+03:00,2025-04-20T21:57:49.637+03:00,6664,0.9608214,0,0,5475.677,5,6,2025-04-21T15:12:24.903+03:00,766930345.0033971,0,-44.25,100.2639,1,0.45,2025-04-21T15:12:15.606+03:00,97,1.616666666666667,2025-04-21T12:30:07.995+03:00,0.02023345852159405,0
2025-04-21T15:12:26.353+03:00,1745237542.616518,40.95223020707327,29.14028338385629,76.36061,-1,-1,-1,-1,30,18.16335761253691,-9999,17931.409390625,-0.815093994140625,0.4541168212890625,-0.6127777099609375,17931.399315625,-0.5682308252487001,-1.000857695474215,-0.4782452143767854,0.1826704740524292,-0.1484430581331253,0.141041100025177,-0.01487189531326294,0.04232630133628845,-0.1407095193862915,XArbitraryZVertical,0.3301416918986649,0.3892116489378817,0.1298529723705208,-0.8500934177590291,-0.7474722862243652,0.4602219760417938,-0.4790415167808533,0,0,0,-1,-1,17929.96478025,unknown,2,2025-04-21T15:12:24.903+03:00,2025-04-20T21:57:49.637+03:00,6664,0.9608214,0,0,5475.677,5,6,2025-04-21T15:12:24.903+03:00,766930345.0033971,0,-44.25,100.2639,1,0.45,2025-04-21T15:12:15.606+03:00,97,1.616666666666667,2025-04-21T12:30:07.995+03:00,0.02023345852159405,0
2025-04-21T15:12:26.363+03:00,1745237542.616518,40.95223020707327,29.14028338385629,76.36061,-1,-1,-1,-1,30,18.16335761253691,-9999,17931.419466625,-0.824310302734375,0.443572998046875,-0.60980224609375,17931.409390625,-0.5663614484086652,-1.001417420511844,-0.4789404651103568,0.01964493654668331,-0.1369796097278595,0.150219202041626,-0.05669790506362915,0.0009071528911590576,-0.1375774145126343,XArbitraryZVertical,0.3300872603732099,0.3896372288153881,0.1287901909483528,-0.8500813088253144,-0.7474706768989563,0.4608391225337982,-0.4784504473209381,0,0,0,-1,-1,17929.96478025,unknown,2,2025-04-21T15:12:24.903+03:00,2025-04-20T21:57:49.637+03:00,6664,0.9608214,0,0,5475.677,5,6,2025-04-21T15:12:24.903+03:00,766930345.0033971,0,-44.25,100.2639,1,0.45,2025-04-21T15:12:15.606+03:00,97,1.616666666666667,2025-04-21T12:30:07.995+03:00,0.02023345852159405,0
2025-04-21T15:12:26.373+03:00,1745237542.616518,40.95223020707327,29.14028338385629,76.36061,-1,-1,-1,-1,30,18.16335761253691,-9999,17931.429542625,-0.8070068359375,0.434112548828125,-0.61444091796875,17931.419466625,-0.565721489051208,-1.002302670477028,-0.4805235714657629,-0.1013347432017326,-0.1213178187608719,0.184849351644516,-0.07666575908660889,-0.0143674910068512,-0.1333988904953003,XArbitraryZVertical,0.3306417339737038,0.3898441090224683,0.1279713646132614,-0.8498946517438306,-0.7472782135009766,0.462243527173996,-0.477395236492157,0,0,0,-1,-1,17929.96478025,unknown,2,2025-04-21T15:12:24.903+03:00,2025-04-20T21:57:49.637+03:00,6664,0.9608214,0,0,5475.677,5,6,2025-04-21T15:12:24.903+03:00,766930345.0033971,0,-44.25,100.2639,1,0.45,2025-04-21T15:12:15.606+03:00,97,1.616666666666667,2025-04-21T12:30:07.995+03:00,0.02023345852159405,0
2025-04-21T15:12:26.383+03:00,1745237542.616518,40.95223020707327,29.14028338385629,76.36061,-1,-1,-1,-1,30,18.16335761253691,-9999,17931.439618625,-0.77197265625,0.4295806884765625,-0.6342315673828125,17931.429542625,-0.5659775549945291,-1.003708688869876,-0.4833059630561196,-0.2666183114051819,-0.1397485584020615,0.2546507716178894,-0.07052171230316162,-0.02852123975753784,-0.1355242729187012,XArbitraryZVertical,0.3318743203132448,0.3899150790980803,0.1271423431591489,-0.8495060000608399,-0.7468609809875488,0.4647090137004852,-0.4756513237953186,0,0,0,-1,-1,17929.96478025,unknown,2,2025-04-21T15:12:24.903+03:00,2025-04-20T21:57:49.637+03:00,6664,0.9608214,0,0,5475.677,5,6,2025-04-21T15:12:24.903+03:00,766930345.0033971,0,-44.25,100.2639,1,0.45,2025-04-21T15:12:15.606+03:00,97,1.616666666666667,2025-04-21T12:30:07.995+03:00,0.02023345852159405,0
2025-04-21T15:12:26.393+03:00,1745237542.616518,40.95223020707327,29.14028338385629,76.36061,-1,-1,-1,-1,30,18.16335761253691,-9999,17931.449694625,-0.750732421875,0.4144287109375,-0.657562255859375,17931.439618625,-0.5682674402145245,-1.006431627294149,-0.4879390020866578,-0.5686652064323425,-0.19879350066185,0.3093060255050659,-0.03794491291046143,-0.03628072142601013,-0.1529528498649597,XArbitraryZVertical,0.3343102027902806,0.3898808444455036,0.1264846714706346,-0.8486643543114697,-0.746326208114624,0.4688064157962799,-0.4724592268466949,0,0,0,-1,-1,17929.96478025,unknown,2,2025-04-21T15:12:24.903+03:00,2025-04-20T21:57:49.637+03:00,6664,0.9608214,0,0,5475.677,5,6,2025-04-21T15:12:24.903+03:00,766930345.0033971,0,-44.25,100.2639,1,0.45,2025-04-21T15:12:15.606+03:00,97,1.616666666666667,2025-04-21T12:30:07.995+03:00,0.02023345852159405,0
2025-04-21T15:12:26.403+03:00,1745237542.616518,40.95223020707327,29.14028338385629,76.36061,-1,-1,-1,-1,30,18.16335761253691,-9999,17931.459770625,-0.7394866943359375,0.401824951171875,-0.7039642333984375,17931.449694625,-0.5731244470501027,-1.011223466924402,-0.4947109623978219,-0.8697559833526611,-0.3041914403438568,0.3791142106056213,-0.01119077205657959,-0.05346682667732239,-0.179730087518692,XArbitraryZVertical,0.3382065342501653,0.3899045382297738,0.1260121643747263,-0.8471786598980114,-0.7458738684654236,0.4747772812843323,-0.4671815931797028,0,0,0,-1,-1,17929.96478025,unknown,2,2025-04-21T15:12:24.903+03:00,2025-04-20T21:57:49.637+03:00,6664,0.9608214,0,0,5475.677,5,6,2025-04-21T15:12:24.903+03:00,766930345.0033971,0,-44.25,100.2639,1,0.45,2025-04-21T15:12:15.606+03:00,97,1.616666666666667,2025-04-21T12:30:07.995+03:00,0.02023345852159405,0
2025-04-21T15:12:26.413+03:00,1745237542.616518,40.95223020707327,29.14028338385629,76.36061,-1,-1,-1,-1,30,18.16335761253691,-9999,17931.469845625,-0.7576904296875,0.4243621826171875,-0.7304840087890625,17931.459770625,-0.5809091810734273,-1.018838590566425,-0.5037046798068306,-1.215415120124817,-0.4582875370979309,0.4108681380748749,0.004303991794586182,-0.07804077863693237,-0.2260875105857849,XArbitraryZVertical,0.3437012335509975,0.3901976298299467,0.1257005456519446,-0.8448755152195317,-0.7457436919212341,0.4826734066009521,-0.4592305421829224,0,0,0,-1,-1,17929.96478025,unknown,2,2025-04-21T15:12:24.903+03:00,2025-04-20T21:57:49.637+03:00,6664,0.9608214,0,0,5475.677,5,6,2025-04-21T15:12:24.903+03:00,766930345.0033971,0,-44.25,100.2639,1,0.45,2025-04-21T15:12:15.606+03:00,97,1.616666666666667,2025-04-21T12:30:07.995+03:00,0.02023345852159405,0
2025-04-21T15:12:26.423+03:00,1745237542.616518,40.95223020707327,29.14028338385629,76.36061,-1,-1,-1,-1,30,18.16335761253691,-9999,17931.479921625,-0.78753662109375,0.4759368896484375,-0.76141357421875,17931.469845625,-0.5914078836388504,-1.028752208698151,-0.5139281679671525,-1.33979058265686,-0.4759634733200073,0.3749442398548126,-0.0001156330108642578,-0.08083504438400269,-0.2741429805755615,XArbitraryZVertical,0.350321209185865,0.3907072269827173,0.1257637367166702,-0.8419064345334437,-0.7459932565689087,0.4916017651557922,-0.4492458403110504,0,0,0,-1,-1,17929.96478025,unknown,2,2025-04-21T15:12:24.903+03:00,2025-04-20T21:57:49.637+03:00,6664,0.9608214,0,0,5475.677,5,6,2025-04-21T15:12:24.903+03:00,766930345.0033971,0,-44.25,100.2639,1,0.45,2025-04-21T15:12:15.606+03:00,97,1.616666666666667,2025-04-21T12:30:07.995+03:00,0.02023345852159405,0
2025-04-21T15:12:26.433+03:00,1745237542.616518,40.95223020707327,29.14028338385629,76.36061,-1,-1,-1,-1,30,18.16335761253691,-9999,17931.489997625,-0.7901611328125,0.553192138671875,-0.783355712890625,17931.479921625,-0.6017496994710905,-1.038869706375834,-0.5235831612797229,-1.155791282653809,-0.5409283638000488,0.358148992061615,-0.03121310472488403,-0.0460374653339386,-0.3079298138618469,XArbitraryZVertical,0.3566770471556528,0.3913537806335704,0.1258007442982157,-0.8389265248354827,-0.7463746070861816,0.499986469745636,-0.4392473995685577,0,0,0,-1,-1,17929.96478025,unknown,2,2025-04-21T15:12:24.903+03:00,2025-04-20T21:57:49.637+03:00,6664,0.9608214,0,0,5475.677,5,6,2025-04-21T15:12:24.903+03:00,766930345.0033971,0,-44.25,100.2639,1,0.45,2025-04-21T15:12:15.606+03:00,97,1.616666666666667,2025-04-21T12:30:07.995+03:00,0.02023345852159405,0
2025-04-21T15:12:26.443+03:00,1745237542.616518,40.95223020707327,29.14028338385629,76.36061,-1,-1,-1,-1,30,18.16335761253691,-9999,17931.500073625,-0.794036865234375,0.6273956298828125,-0.7501373291015625,17931.489997625,-0.6099054685074912,-1.049105612361511,-0.5317146540650767,-0.8480503559112549,-0.6723371148109436,0.3303055465221405,-0.04496943950653076,0.013663649559021,-0.3527737557888031,XArbitraryZVertical,0.362007780627966,0.3926553023926543,0.1252348275467134,-0.8361149725814897,-0.7472819089889526,0.5070120096206665,-0.4295443594455719,0,0,0,-1,-1,17929.96478025,unknown,2,2025-04-21T15:12:24.903+03:00,2025-04-20T21:57:49.637+03:00,6664,0.9608214,0,0,5475.677,5,6,2025-04-21T15:12:24.903+03:00,766930345.0033971,0,-44.25,100.2639,1,0.45,2025-04-21T15:12:15.606+03:00,97,1.616666666666667,2025-04-21T12:30:07.995+03:00,0.02023345852159405,0
