loggingTime(txt),locationTimestamp_since1970(s),locationLatitude(WGS84),locationLongitude(WGS84),locationAltitude(m),locationSpeed(m/s),locationSpeedAccuracy(m/s),locationCourse(°),locationCourseAccuracy(°),locationVerticalAccuracy(m),locationHorizontalAccuracy(m),locationFloor(Z),accelerometerTimestamp_sinceReboot(s),accelerometerAccelerationX(G),accelerometerAccelerationY(G),accelerometerAccelerationZ(G),motionTimestamp_sinceReboot(s),motionYaw(rad),motionRoll(rad),motionPitch(rad),motionRotationRateX(rad/s),motionRotationRateY(rad/s),motionRotationRateZ(rad/s),motionUserAccelerationX(G),motionUserAccelerationY(G),motionUserAccelerationZ(G),motionAttitudeReferenceFrame(txt),motionQuaternionX(R),motionQuaternionY(R),motionQuaternionZ(R),motionQuaternionW(R),motionGravityX(G),motionGravityY(G),motionGravityZ(G),motionMagneticFieldX(µT),motionMagneticFieldY(µT),motionMagneticFieldZ(µT),motionHeading(°),motionMagneticFieldCalibrationAccuracy(Z),activityTimestamp_sinceReboot(s),activity(txt),activityActivityConfidence(Z),activityActivityStartDate(txt),pedometerStartDate(txt),pedometerNumberofSteps(N),pedometerAverageActivePace(s/m),pedometerCurrentPace(s/m),pedometerCurrentCadence(steps/s),pedometerDistance(m),pedometerFloorAscended(N),pedometerFloorDescended(N),pedometerEndDate(txt),altimeterTimestamp_sinceReboot(s),altimeterReset(bool),altimeterRelativeAltitude(m),altimeterPressure(kPa),batteryState(N),batteryLevel(R),heartRateBPMTimestamp(txt),heartRateBPM(N),heartRateBPS(R),heartRateVariabilityTimestamp(txt),heartRateVariability(ms),label
2025-04-21T14:49:30.894+03:00,1745236169.115369,40.9522387725225,29.14028154055504,76.38563,-1,-1,-1,-1,30,22.15875696438606,-9999,17270.701487125,-0.7562713623046875,0.4399871826171875,-0.406036376953125,17270.691411125,2.603910035233123,-1.060246945201229,-0.5197972891456467,0.001378453802317381,0.1298712193965912,-0.01890726760029793,-0.04805845022201538,0.04866001009941101,-0.02305930852890015,XArbitraryZVertical,0.4122160383378732,-0.343541171589975,0.8383347477196614,0.09618838689946341,-0.7572394013404846,0.4967042207717896,-0.4241147935390472,0,0,0,-1,-1,17265.089249375,unknown,2,2025-04-21T14:49:19.766+03:00,2025-04-20T21:57:49.637+03:00,6548,0.9517458,0,0,5385.986,5,6,2025-04-21T14:49:30.084+03:00,766928970.1838291,0,-46.15,100.2854,1,0.5,2025-04-21T14:48:22.231+03:00,94,1.566666666666667,2025-04-21T12:30:07.995+03:00,0.02023345852159405,0
2025-04-21T14:49:30.896+03:00,1745236169.115369,40.9522387725225,29.14028154055504,76.38563,-1,-1,-1,-1,30,22.15875696438606,-9999,17270.711564125,-0.647796630859375,0.49029541015625,-0.392333984375,17270.701487125,2.603799642906352,-1.060207394483484,-0.5197479370198962,-0.01088027656078339,-0.08324499428272247,-0.00280736037530005,-0.0660439133644104,-0.01236280798912048,-0.003760814666748047,XArbitraryZVertical,0.4121890454504283,-0.343543038315204,0.8383396840254076,0.09625455635444467,-0.7572440505027771,0.496661365032196,-0.4241567552089691,0,0,0,-1,-1,17265.089249375,unknown,2,2025-04-21T14:49:19.766+03:00,2025-04-20T21:57:49.637+03:00,6548,0.9517458,0,0,5385.986,5,6,2025-04-21T14:49:30.084+03:00,766928970.1838291,0,-46.15,100.2854,1,0.5,2025-04-21T14:48:22.231+03:00,94,1.566666666666667,2025-04-21T12:30:07.995+03:00,0.02023345852159405,0
2025-04-21T14:49:30.896+03:00,1745236169.115369,40.9522387725225,29.14028154055504,76.38563,-1,-1,-1,-1,30,22.15875696438606,-9999,17270.721640125,-0.7605438232421875,0.4909515380859375,-0.42266845703125,17270.711564125,2.603661608420454,-1.060796948539978,-0.5197815925225179,-0.01332106348127127,0.0005239397287368774,-0.006708358880132437,0.01951855421066284,-0.05456733703613281,0.02126675844192505,XArbitraryZVertical,0.4124065956492268,-0.3436128046227817,0.8382101105908746,0.09620222732548218,-0.7574793696403503,0.4966906011104584,-0.4237020909786224,0,0,0,-1,-1,17265.089249375,unknown,2,2025-04-21T14:49:19.766+03:00,2025-04-20T21:57:49.637+03:00,6548,0.9517458,0,0,5385.986,5,6,2025-04-21T14:49:30.084+03:00,766928970.1838291,0,-46.15,100.2854,1,0.5,2025-04-21T14:48:22.231+03:00,94,1.566666666666667,2025-04-21T12:30:07.995+03:00,0.02023345852159405,0
2025-04-21T14:49:30.904+03:00,1745236169.115369,40.9522387725225,29.14028154055504,76.38563,-1,-1,-1,-1,30,22.15875696438606,-9999,17270.731716125,-0.8040618896484375,0.4853057861328125,-0.43792724609375,17270.721640125,2.603481981799427,-1.060514012974861,-0.5197792240914704,-0.01260986644774675,0.0521816723048687,-0.009564133360981941,0.1072902083396912,-0.001251012086868286,0.03066736459732056,XArbitraryZVertical,0.4122575476976444,-0.3436353099287112,0.8382599342010396,0.09632678995879339,-0.7573605179786682,0.4966885447502136,-0.4239169657230377,0,0,0,-1,-1,17265.089249375,unknown,2,2025-04-21T14:49:19.766+03:00,2025-04-20T21:57:49.637+03:00,6548,0.9517458,0,0,5385.986,5,6,2025-04-21T14:49:30.084+03:00,766928970.1838291,0,-46.15,100.2854,1,0.5,2025-04-21T14:48:22.231+03:00,94,1.566666666666667,2025-04-21T12:30:07.995+03:00,0.02023345852159405,0
2025-04-21T14:49:30.914+03:00,1745236169.115369,40.9522387725225,29.14028154055504,76.38563,-1,-1,-1,-1,30,22.15875696438606,-9999,17270.741793125,-0.7189178466796875,0.49798583984375,-0.4188995361328125,17270.731716125,2.603248942180538,-1.060525449004216,-0.519777415861328,-0.01355875097215176,-0.0206706952303648,-0.01284221839159727,-0.0209541916847229,-0.008283793926239014,-0.004039347171783447,XArbitraryZVertical,0.4122226415455699,-0.3436831962758251,0.8382463369913589,0.09642289137402586,-0.7573661208152771,0.4966869652271271,-0.4239087104797363,0,0,0,-1,-1,17265.089249375,unknown,2,2025-04-21T14:49:19.766+03:00,2025-04-20T21:57:49.637+03:00,6548,0.9517458,0,0,5385.986,5,6,2025-04-21T14:49:30.084+03:00,766928970.1838291,0,-46.15,100.2854,1,0.5,2025-04-21T14:48:22.231+03:00,94,1.566666666666667,2025-04-21T12:30:07.995+03:00,0.02023345852159405,0
2025-04-21T14:49:30.924+03:00,1745236169.115369,40.9522387725225,29.14028154055504,76.38563,-1,-1,-1,-1,30,22.15875696438606,-9999,17270.751869125,-0.7389068603515625,0.498779296875,-0.419830322265625,17270.741793125,2.603058931718023,-1.060860788736401,-0.5195180713168553,-0.007478754036128521,-0.01765093579888344,-0.02178870886564255,-0.03637045621871948,-0.008745342493057251,-0.01144787669181824,XArbitraryZVertical,0.4123755449012568,-0.3436388115619533,0.8381788497428204,0.09651362136313167,-0.7576205730438232,0.4964618384838104,-0.4237175583839417,0,0,0,-1,-1,17265.089249375,unknown,2,2025-04-21T14:49:19.766+03:00,2025-04-20T21:57:49.637+03:00,6548,0.9517458,0,0,5385.986,5,6,2025-04-21T14:49:30.084+03:00,766928970.1838291,0,-46.15,100.2854,1,0.5,2025-04-21T14:48:22.231+03:00,94,1.566666666666667,2025-04-21T12:30:07.995+03:00,0.02023345852159405,0
2025-04-21T14:49:30.934+03:00,1745236169.115369,40.9522387725225,29.14028154055504,76.38563,-1,-1,-1,-1,30,22.15875696438606,-9999,17270.761945125,-0.772186279296875,0.496063232421875,-0.4240875244140625,17270.751869125,2.602862369900133,-1.060938066155227,-0.5194240350389729,-0.00921540055423975,0.01343987137079239,-0.02218685112893581,0.0428350567817688,0.002597272396087646,0.006063938140869141,XArbitraryZVertical,0.4123904675516364,-0.3436469146792208,0.8381573712897956,0.09660767351980969,-0.7576940655708313,0.4963802099227905,-0.4236817955970764,0,0,0,-1,-1,17265.089249375,unknown,2,2025-04-21T14:49:19.766+03:00,2025-04-20T21:57:49.637+03:00,6548,0.9517458,0,0,5385.986,5,6,2025-04-21T14:49:30.084+03:00,766928970.1838291,0,-46.15,100.2854,1,0.5,2025-04-21T14:48:22.231+03:00,94,1.566666666666667,2025-04-21T12:30:07.995+03:00,0.02023345852159405,0
2025-04-21T14:49:30.944+03:00,1745236169.115369,40.9522387725225,29.14028154055504,76.38563,-1,-1,-1,-1,30,22.15875696438606,-9999,17270.772022125,-0.75042724609375,0.4906158447265625,-0.4149017333984375,17270.761945125,2.602619440817839,-1.060964557393128,-0.5194006000036789,-0.01660620607435703,0.003989377990365028,-0.02156460285186768,0.01215577125549316,0.002236157655715942,0.002143323421478271,XArbitraryZVertical,0.4123638898266233,-0.3436892740387924,0.8381411554456297,0.0967111508547419,-0.7577154636383057,0.4963598847389221,-0.4236674010753632,0,0,0,-1,-1,17265.089249375,unknown,2,2025-04-21T14:49:19.766+03:00,2025-04-20T21:57:49.637+03:00,6548,0.9517458,0,0,5385.986,5,6,2025-04-21T14:49:30.084+03:00,766928970.1838291,0,-46.15,100.2854,1,0.5,2025-04-21T14:48:22.231+03:00,94,1.566666666666667,2025-04-21T12:30:07.995+03:00,0.02023345852159405,0
2025-04-21T14:49:30.954+03:00,1745236169.115369,40.9522387725225,29.14028154055504,76.38563,-1,-1,-1,-1,30,22.15875696438606,-9999,17270.782098125,-0.7500152587890625,0.49127197265625,-0.412139892578125,17270.772022125,2.602282141606473,-1.061105842724307,-0.5193909205988658,-0.02364840172231197,0.004824278876185417,-0.01684628054499626,-0.01320135593414307,-0.001020818948745728,0.0008178949356079102,XArbitraryZVertical,0.412366824651629,-0.3437619322109841,0.8380960602722022,0.09683073712124725,-0.7577794790267944,0.4963514804840088,-0.4235626757144928,0,0,0,-1,-1,17265.089249375,unknown,2,2025-04-21T14:49:19.766+03:00,2025-04-20T21:57:49.637+03:00,6548,0.9517458,0,0,5385.986,5,6,2025-04-21T14:49:30.084+03:00,766928970.1838291,0,-46.15,100.2854,1,0.5,2025-04-21T14:48:22.231+03:00,94,1.566666666666667,2025-04-21T12:30:07.995+03:00,0.02023345852159405,0
2025-04-21T14:49:30.964+03:00,1745236169.115369,40.9522387725225,29.14028154055504,76.38563,-1,-1,-1,-1,30,22.15875696438606,-9999,17270.792174125,-0.76019287109375,0.4936981201171875,-0.4202880859375,17270.782098125,2.601934495191382,-1.06119737626415,-0.5192325227643579,-0.02097691968083382,0.02417167834937572,-0.01199183706194162,0.009153425693511963,-0.005964487791061401,0.008996129035949707,XArbitraryZVertical,0.4123729041777034,-0.343777159932579,0.8380670166026712,0.097002781564448,-0.7578869462013245,0.496213972568512,-0.423531711101532,0,0,0,-1,-1,17265.089249375,unknown,2,2025-04-21T14:49:19.766+03:00,2025-04-20T21:57:49.637+03:00,6548,0.9517458,0,0,5385.986,5,6,2025-04-21T14:49:30.084+03:00,766928970.1838291,0,-46.15,100.2854,1,0.5,2025-04-21T14:48:22.231+03:00,94,1.566666666666667,2025-04-21T12:30:07.995+03:00,0.02023345852159405,0
2025-04-21T14:49:30.974+03:00,1745236169.115369,40.9522387725225,29.14028154055504,76.38563,-1,-1,-1,-1,30,22.15875696438606,-9999,17270.802250125,-0.754669189453125,0.493896484375,-0.4267120361328125,17270.792174125,2.601676507828467,-1.061093494302435,-0.5190988054254477,-0.0197976715862751,0.02480870671570301,-0.009946262463927269,0.005566239356994629,-0.00397154688835144,0.01020586490631104,XArbitraryZVertical,0.4123082621661562,-0.3437739045613384,0.8380814493303153,0.09716419662595667,-0.7579008340835571,0.4960978627204895,-0.4236427843570709,0,0,0,-1,-1,17265.089249375,unknown,2,2025-04-21T14:49:19.766+03:00,2025-04-20T21:57:49.637+03:00,6548,0.9517458,0,0,5385.986,5,6,2025-04-21T14:49:30.084+03:00,766928970.1838291,0,-46.15,100.2854,1,0.5,2025-04-21T14:48:22.231+03:00,94,1.566666666666667,2025-04-21T12:30:07.995+03:00,0.02023345852159405,0
2025-04-21T14:49:30.984+03:00,1745236169.115369,40.9522387725225,29.14028154055504,76.38563,-1,-1,-1,-1,30,22.15875696438606,-9999,17270.812327125,-0.7445220947265625,0.4955291748046875,-0.430328369140625,17270.802250125,2.60150004323778,-1.060945204863629,-0.5193020132214947,-0.01614747568964958,0.01170548796653748,-0.004304988775402308,-0.002366542816162109,-0.002332180738449097,0.002822756767272949,XArbitraryZVertical,0.412180464739691,-0.3438811862909245,0.8380950399004394,0.0972097775165639,-0.7577500343322754,0.4962742924690247,-0.4237059950828552,0,0,0,-1,-1,17265.089249375,unknown,2,2025-04-21T14:49:19.766+03:00,2025-04-20T21:57:49.637+03:00,6548,0.9517458,0,0,5385.986,5,6,2025-04-21T14:49:30.084+03:00,766928970.1838291,0,-46.15,100.2854,1,0.5,2025-04-21T14:48:22.231+03:00,94,1.566666666666667,2025-04-21T12:30:07.995+03:00,0.02023345852159405,0
2025-04-21T14:49:30.994+03:00,1745236169.115369,40.9522387725225,29.14028154055504,76.38563,-1,-1,-1,-1,30,22.15875696438606,-9999,17270.822403125,-0.74774169921875,0.4975128173828125,-0.428436279296875,17270.812327125,2.601304197690664,-1.06096981445118,-0.5192544717855373,-0.01482734736055136,0.006436157040297985,-0.009897094219923019,0.004637718200683594,-0.002031505107879639,-0.003806710243225098,XArbitraryZVertical,0.4121653673761786,-0.3439044696312671,0.8380824111148646,0.09730021542078421,-0.7577810287475586,0.4962330162525177,-0.4236988425254822,0,0,0,-1,-1,17265.089249375,unknown,2,2025-04-21T14:49:19.766+03:00,2025-04-20T21:57:49.637+03:00,6548,0.9517458,0,0,5385.986,5,6,2025-04-21T14:49:30.084+03:00,766928970.1838291,0,-46.15,100.2854,1,0.5,2025-04-21T14:48:22.231+03:00,94,1.566666666666667,2025-04-21T12:30:07.995+03:00,0.02023345852159405,0
2025-04-21T14:49:31.004+03:00,1745236169.115369,40.9522387725225,29.14028154055504,76.38563,-1,-1,-1,-1,30,22.15875696438606,-9999,17270.832479125,-0.74920654296875,0.4966278076171875,-0.4260711669921875,17270.822403125,2.601116252279085,-1.061041302287175,-0.5191168107837325,-0.006104696076363325,0.001891472842544317,-0.01094132009893656,0.01344031095504761,-0.0005691349506378174,-0.006650447845458984,XArbitraryZVertical,0.4121869346110061,-0.3438937700825814,0.8380642395896091,0.09740319196469639,-0.7578709721565247,0.496113508939743,-0.4236780107021332,0,0,0,-1,-1,17265.089249375,unknown,2,2025-04-21T14:49:19.766+03:00,2025-04-20T21:57:49.637+03:00,6548,0.9517458,0,0,5385.986,5,6,2025-04-21T14:49:30.084+03:00,766928970.1838291,0,-46.15,100.2854,1,0.5,2025-04-21T14:48:22.231+03:00,94,1.566666666666667,2025-04-21T12:30:07.995+03:00,0.02023345852159405,0
2025-04-21T14:49:31.014+03:00,1745236169.115369,40.9522387725225,29.14028154055504,76.38563,-1,-1,-1,-1,30,22.15875696438606,-9999,17270.842556125,-0.7479248046875,0.496551513671875,-0.421051025390625,17270.832479125,2.600940726617086,-1.061128275407719,-0.5191453261528094,-0.01535092480480671,-0.00672997860237956,-0.01685913093388081,0.009695947170257568,0.001801639795303345,-0.004251331090927124,XArbitraryZVertical,0.4121882854574107,-0.3439451358786355,0.83803644679276,0.09745408574372591,-0.7578953504562378,0.4961382448673248,-0.4236051142215729,0,0,0,-1,-1,17265.089249375,unknown,2,2025-04-21T14:49:19.766+03:00,2025-04-20T21:57:49.637+03:00,6548,0.9517458,0,0,5385.986,5,6,2025-04-21T14:49:30.084+03:00,766928970.1838291,0,-46.15,100.2854,1,0.5,2025-04-21T14:48:22.231+03:00,94,1.566666666666667,2025-04-21T12:30:07.995+03:00,0.02023345852159405,0
2025-04-21T14:49:31.025+03:00,1745236169.115369,40.9522387725225,29.14028154055504,76.38563,-1,-1,-1,-1,30,22.15875696438606,-9999,17270.852632125,-0.75152587890625,0.495697021484375,-0.41961669921875,17270.842556125,2.600724317259376,-1.061294991093109,-0.5190980523330624,-0.01109739113599062,-0.005250925198197365,-0.01602119952440262,0.009161412715911865,0.0008508563041687012,-0.002077430486679077,XArbitraryZVertical,0.4122291446371392,-0.343979697232899,0.8379934884277911,0.0975286264375855,-0.7579864263534546,0.496097207069397,-0.4234901964664459,0,0,0,-1,-1,17265.089249375,unknown,2,2025-04-21T14:49:19.766+03:00,2025-04-20T21:57:49.637+03:00,6548,0.9517458,0,0,5385.986,5,6,2025-04-21T14:49:30.084+03:00,766928970.1838291,0,-46.15,100.2854,1,0.5,2025-04-21T14:48:22.231+03:00,94,1.566666666666667,2025-04-21T12:30:07.995+03:00,0.02023345852159405,0
2025-04-21T14:49:31.035+03:00,1745236169.115369,40.9522387725225,29.14028154055504,76.38563,-1,-1,-1,-1,30,22.15875696438606,-9999,17270.862708125,-0.7540435791015625,0.492462158203125,-0.4189300537109375,17270.852632125,2.600502339529914,-1.061471024145038,-0.5190136236893248,-0.01384204439818859,-0.006077304482460022,-0.01131006795912981,0.01079833507537842,0.001290470361709595,0.003028035163879395,XArbitraryZVertical,0.4122793651115954,-0.3440016014370866,0.8379499792116432,0.09761387104498043,-0.7580976486206055,0.4960238933563232,-0.4233772456645966,0,0,0,-1,-1,17265.089249375,unknown,2,2025-04-21T14:49:19.766+03:00,2025-04-20T21:57:49.637+03:00,6548,0.9517458,0,0,5385.986,5,6,2025-04-21T14:49:30.084+03:00,766928970.1838291,0,-46.15,100.2854,1,0.5,2025-04-21T14:48:22.231+03:00,94,1.566666666666667,2025-04-21T12:30:07.995+03:00,0.02023345852159405,0
2025-04-21T14:49:31.045+03:00,1745236169.115369,40.9522387725225,29.14028154055504,76.38563,-1,-1,-1,-1,30,22.15875696438606,-9999,17270.872785125,-0.7526092529296875,0.490234375,-0.420684814453125,17270.862708125,2.600240305153799,-1.061693202403743,-0.5190410333113118,-0.02321557141840458,-0.00916470680385828,-0.006824106443673372,0.005799353122711182,-0.0004423260688781738,0.003264963626861572,XArbitraryZVertical,0.4123225988257868,-0.3440769997994743,0.8378902704154009,0.09767817871775641,-0.7581798434257507,0.496047705411911,-0.4232021868228912,0,0,0,-1,-1,17265.089249375,unknown,2,2025-04-21T14:49:19.766+03:00,2025-04-20T21:57:49.637+03:00,6548,0.9517458,0,0,5385.986,5,6,2025-04-21T14:49:30.084+03:00,766928970.1838291,0,-46.15,100.2854,1,0.5,2025-04-21T14:48:22.231+03:00,94,1.566666666666667,2025-04-21T12:30:07.995+03:00,0.02023345852159405,0
2025-04-21T14:49:31.056+03:00,1745236169.115369,40.9522387725225,29.14028154055504,76.38563,-1,-1,-1,-1,30,22.15875696438606,-9999,17270.882861125,-0.75762939453125,0.4893035888671875,-0.427215576171875,17270.872785125,2.599988716062502,-1.061924630437267,-0.5191184570393989,-0.01741360872983932,-0.005840282887220383,-0.004154819995164871,0.004856646060943604,-0.00392758846282959,0.00375741720199585,XArbitraryZVertical,0.4123628253931194,-0.3441699154277212,0.8378269651532507,0.09772309908903175,-0.7582440972328186,0.4961149394512177,-0.4230079352855682,0,0,0,-1,-1,17265.089249375,unknown,2,2025-04-21T14:49:19.766+03:00,2025-04-20T21:57:49.637+03:00,6548,0.9517458,0,0,5385.986,5,6,2025-04-21T14:49:30.084+03:00,766928970.1838291,0,-46.15,100.2854,1,0.5,2025-04-21T14:48:22.231+03:00,94,1.566666666666667,2025-04-21T12:30:07.995+03:00,0.02023345852159405,0
2025-04-21T14:49:31.065+03:00,1745236169.115369,40.9522387725225,29.14028154055504,76.38563,-1,-1,-1,-1,30,22.15875696438606,-9999,17270.892937125,-0.7616424560546875,0.496246337890625,-0.42840576171875,17270.882861125,2.599803444124751,-1.062101826498697,-0.5190939238947001,-0.008546414785087109,-0.005971643608063459,-0.00814107246696949,0.005201637744903564,-0.005966216325759888,0.001340150833129883,XArbitraryZVertical,0.4124094296842755,-0.3442073550161094,0.8377824131328436,0.09777675707194766,-0.7583296895027161,0.4960936307907104,-0.4228795170783997,0,0,0,-1,-1,17265.089249375,unknown,2,2025-04-21T14:49:19.766+03:00,2025-04-20T21:57:49.637+03:00,6548,0.9517458,0,0,5385.986,5,6,2025-04-21T14:49:30.084+03:00,766928970.1838291,0,-46.15,100.2854,1,0.5,2025-04-21T14:48:22.231+03:00,94,1.566666666666667,2025-04-21T12:30:07.995+03:00,0.02023345852159405,0
2025-04-21T14:49:31.075+03:00,1745236169.115369,40.9522387725225,29.14028154055504,76.38563,-1,-1,-1,-1,30,22.15875696438606,-9999,17270.903014125,-0.760101318359375,0.500213623046875,-0.4275665283203125,17270.892937125,2.599753682833949,-1.062119000150636,-0.5190115742596193,-0.0004091265145689249,-0.004584668669849634,-0.01154885347932577,-9.596347808837891e-05,-0.006428807973861694,-0.00480225682258606,XArbitraryZVertical,0.412422405125543,-0.3441868237653204,0.8377798056631439,0.09781648523845504,-0.7583726048469543,0.4960221350193024,-0.4228863716125488,0,0,0,-1,-1,17265.089249375,unknown,2,2025-04-21T14:49:19.766+03:00,2025-04-20T21:57:49.637+03:00,6548,0.9517458,0,0,5385.986,5,6,2025-04-21T14:49:30.084+03:00,766928970.1838291,0,-46.15,100.2854,1,0.5,2025-04-21T14:48:22.231+03:00,94,1.566666666666667,2025-04-21T12:30:07.995+03:00,0.02023345852159405,0
2025-04-21T14:49:31.085+03:00,1745236169.115369,40.9522387725225,29.14028154055504,76.38563,-1,-1,-1,-1,30,22.15875696438606,-9999,17270.913090125,-0.7634429931640625,0.50067138671875,-0.4251861572265625,17270.903014125,2.599807857839278,-1.061959997632499,-0.5189436331811047,0.009598965756595135,0.002395409625023603,-0.01299418415874243,-0.003368675708770752,0.00109177827835083,-0.005245089530944824,XArbitraryZVertical,0.4123769343370265,-0.3441417794171973,0.8378180819798176,0.09783923276349803,-0.7583348155021667,0.4959631264209747,-0.4230234026908875,0,0,0,-1,-1,17265.089249375,unknown,2,2025-04-21T14:49:19.766+03:00,2025-04-20T21:57:49.637+03:00,6548,0.9517458,0,0,5385.986,5,6,2025-04-21T14:49:30.084+03:00,766928970.1838291,0,-46.15,100.2854,1,0.5,2025-04-21T14:48:22.231+03:00,94,1.566666666666667,2025-04-21T12:30:07.995+03:00,0.02023345852159405,0
2025-04-21T14:49:31.095+03:00,1745236169.115369,40.9522387725225,29.14028154055504,76.38563,-1,-1,-1,-1,30,22.15875696438606,-9999,17270.923166125,-0.762725830078125,0.5003204345703125,-0.4250030517578125,17270.913090125,2.599917626894272,-1.061775317287537,-0.5188078130741075,0.01651120185852051,0.004810630343854427,-0.01811384409666061,-0.002075731754302979,0.004642963409423828,-0.004278719425201416,XArbitraryZVertical,0.4123420979900365,-0.3440579342499044,0.8378671117529651,0.0978610641336088,-0.7583155035972595,0.4958451688289642,-0.4231962561607361,0,0,0,-1,-1,17265.089249375,unknown,2,2025-04-21T14:49:19.766+03:00,2025-04-20T21:57:49.637+03:00,6548,0.9517458,0,0,5385.986,5,6,2025-04-21T14:49:30.084+03:00,766928970.1838291,0,-46.15,100.2854,1,0.5,2025-04-21T14:48:22.231+03:00,94,1.566666666666667,2025-04-21T12:30:07.995+03:00,0.02023345852159405,0
2025-04-21T14:49:31.105+03:00,1745236169.115369,40.9522387725225,29.14028154055504,76.38563,-1,-1,-1,-1,30,22.15875696438606,-9999,17270.933243125,-0.75897216796875,0.4958343505859375,-0.4291534423828125,17270.923166125,2.600051485407683,-1.061573361708214,-0.5186372824323385,0.01889805868268013,0.007542900741100311,-0.01443502120673656,-0.005078136920928955,0.005706548690795898,-0.001688748598098755,XArbitraryZVertical,0.4123102181014104,-0.3439549310361391,0.8379222352994314,0.09788489510239996,-0.7583037614822388,0.4956970810890198,-0.4233905673027039,0,0,0,-1,-1,17265.089249375,unknown,2,2025-04-21T14:49:19.766+03:00,2025-04-20T21:57:49.637+03:00,6548,0.9517458,0,0,5385.986,5,6,2025-04-21T14:49:30.084+03:00,766928970.1838291,0,-46.15,100.2854,1,0.5,2025-04-21T14:48:22.231+03:00,94,1.566666666666667,2025-04-21T12:30:07.995+03:00,0.02023345852159405,0
2025-04-21T14:49:31.115+03:00,1745236169.115369,40.9522387725225,29.14028154055504,76.38563,-1,-1,-1,-1,30,22.15875696438606,-9999,17270.943319125,-0.7595672607421875,0.49127197265625,-0.428741455078125,17270.933243125,2.600162653282865,-1.061407844370573,-0.5185340243546714,0.01550998538732529,0.00892161950469017,-0.01319372188299894,-0.004813611507415771,0.003919392824172974,-0.001599341630935669,XArbitraryZVertical,0.4122779629354969,-0.3438842336828694,0.837966017275119,0.09789414917100489,-0.7582783699035645,0.4956074059009552,-0.4235410392284393,0,0,0,-1,-1,17265.089249375,unknown,2,2025-04-21T14:49:19.766+03:00,2025-04-20T21:57:49.637+03:00,6548,0.9517458,0,0,5385.986,5,6,2025-04-21T14:49:30.084+03:00,766928970.1838291,0,-46.15,100.2854,1,0.5,2025-04-21T14:48:22.231+03:00,94,1.566666666666667,2025-04-21T12:30:07.995+03:00,0.02023345852159405,0
2025-04-21T14:49:31.126+03:00,1745236169.115369,40.9522387725225,29.14028154055504,76.38563,-1,-1,-1,-1,30,22.15875696438606,-9999,17270.953395125,-0.7562713623046875,0.49395751953125,-0.4267730712890625,17270.943319125,2.600264907288338,-1.061263560964492,-0.5183909667879415,0.01795776374638081,0.01032037753611803,-0.009675519540905952,-0.0002351999282836914,0.0001373589038848877,-0.005086958408355713,XArbitraryZVertical,0.4122599822628611,-0.3438011144340217,0.8380066267018179,0.09791403779639322,-0.7582790851593018,0.4954831600189209,-0.4236850142478943,0,0,0,-1,-1,17265.089249375,unknown,2,2025-04-21T14:49:19.766+03:00,2025-04-20T21:57:49.637+03:00,6548,0.9517458,0,0,5385.986,5,6,2025-04-21T14:49:30.084+03:00,766928970.1838291,0,-46.15,100.2854,1,0.5,2025-04-21T14:48:22.231+03:00,94,1.566666666666667,2025-04-21T12:30:07.995+03:00,0.02023345852159405,0
2025-04-21T14:49:31.135+03:00,1745236169.115369,40.9522387725225,29.14028154055504,76.38563,-1,-1,-1,-1,30,22.15875696438606,-9999,17270.963472125,-0.751129150390625,0.496368408203125,-0.4226531982421875,17270.953395125,2.600387802670021,-1.061147381238972,-0.5182193409433874,0.02016232907772064,0.001494129188358784,-0.009261931292712688,-0.0009121298789978027,-0.003985941410064697,-0.004759013652801514,XArbitraryZVertical,0.4122622423791262,-0.3437041342050896,0.8380437363299255,0.09792812014306303,-0.7583041787147522,0.4953340590000153,-0.4238146245479584,0,0,0,-1,-1,17265.089249375,unknown,2,2025-04-21T14:49:19.766+03:00,2025-04-20T21:57:49.637+03:00,6548,0.9517458,0,0,5385.986,5,6,2025-04-21T14:49:30.084+03:00,766928970.1838291,0,-46.15,100.2854,1,0.5,2025-04-21T14:48:22.231+03:00,94,1.566666666666667,2025-04-21T12:30:07.995+03:00,0.02023345852159405,0
2025-04-21T14:49:31.158+03:00,1745236169.115369,40.9522387725225,29.14028154055504,76.38563,-1,-1,-1,-1,30,22.15875696438606,-9999,17270.973548125,-0.7516021728515625,0.501800537109375,-0.421295166015625,17270.963472125,2.60054779707648,-1.061028388918563,-0.5179800865283725,0.02437365241348743,0.00570012629032135,-0.01322081964462996,0.002177417278289795,-0.00106203556060791,-0.001742303371429443,XArbitraryZVertical,0.4122814577727058,-0.3435733615387638,0.8380859667992955,0.09794500635997477,-0.7583572268486023,0.4951262176036835,-0.4239626824855804,0,0,0,-1,-1,17265.089249375,unknown,2,2025-04-21T14:49:19.766+03:00,2025-04-20T21:57:49.637+03:00,6548,0.9517458,0,0,5385.986,5,6,2025-04-21T14:49:30.084+03:00,766928970.1838291,0,-46.15,100.2854,1,0.5,2025-04-21T14:48:22.231+03:00,94,1.566666666666667,2025-04-21T12:30:07.995+03:00,0.02023345852159405,0
2025-04-21T14:49:31.161+03:00,1745236169.115369,40.9522387725225,29.14028154055504,76.38563,-1,-1,-1,-1,30,22.15875696438606,-9999,17270.983624125,-0.7540283203125,0.4988250732421875,-0.4176483154296875,17270.973548125,2.600792299212877,-1.060802990348702,-0.5176568260780007,0.03398286923766136,0.007327051367610693,-0.01041091792285442,0.007592499256134033,0.002118021249771118,0.001451671123504639,XArbitraryZVertical,0.4122851872541152,-0.343387639953752,0.8381576503958034,0.09796693292836132,-0.7584012150764465,0.4948453307151794,-0.424211710691452,0,0,0,-1,-1,17265.089249375,unknown,2,2025-04-21T14:49:19.766+03:00,2025-04-20T21:57:49.637+03:00,6548,0.9517458,0,0,5385.986,5,6,2025-04-21T14:49:30.084+03:00,766928970.1838291,0,-46.15,100.2854,1,0.5,2025-04-21T14:48:22.231+03:00,94,1.566666666666667,2025-04-21T12:30:07.995+03:00,0.02023345852159405,0
2025-04-21T14:49:31.166+03:00,1745236169.115369,40.9522387725225,29.14028154055504,76.38563,-1,-1,-1,-1,30,22.15875696438606,-9999,17270.993701125,-0.7599639892578125,0.49090576171875,-0.417236328125,17270.983624125,2.601065143352081,-1.06050324974333,-0.5174083582614197,0.02677209489047527,0.02129479870200157,-0.008493575267493725,0.006123006343841553,0.007811844348907471,0.002868175506591797,XArbitraryZVertical,0.4122495592726508,-0.3432211708442225,0.8382430173543365,0.09796991002091819,-0.7583813071250916,0.4946293830871582,-0.4244990646839142,0,0,0,-1,-1,17265.089249375,unknown,2,2025-04-21T14:49:19.766+03:00,2025-04-20T21:57:49.637+03:00,6548,0.9517458,0,0,5385.986,5,6,2025-04-21T14:49:30.084+03:00,766928970.1838291,0,-46.15,100.2854,1,0.5,2025-04-21T14:48:22.231+03:00,94,1.566666666666667,2025-04-21T12:30:07.995+03:00,0.02023345852159405,0
2025-04-21T14:49:31.176+03:00,1745236169.115369,40.9522387725225,29.14028154055504,76.38563,-1,-1,-1,-1,30,22.15875696438606,-9999,17271.003777125,-0.75970458984375,0.482452392578125,-0.4208831787109375,17270.993701125,2.601233856281916,-1.060113314699888,-0.5173369311510321,0.008143016137182713,0.03413629531860352,-0.001439394429326057,0.00322645902633667,0.00337257981300354,0.007453560829162598,XArbitraryZVertical,0.4121274677939206,-0.3431398264079607,0.8383345959035415,0.09798504746733472,-0.7582466006278992,0.4945673048496246,-0.4248120188713074,0,0,0,-1,-1,17265.089249375,unknown,2,2025-04-21T14:49:19.766+03:00,2025-04-20T21:57:49.637+03:00,6548,0.9517458,0,0,5385.986,5,6,2025-04-21T14:49:30.084+03:00,766928970.1838291,0,-46.15,100.2854,1,0.5,2025-04-21T14:48:22.231+03:00,94,1.566666666666667,2025-04-21T12:30:07.995+03:00,0.02023345852159405,0
2025-04-21T14:49:31.198+03:00,1745236169.115369,40.9522387725225,29.14028154055504,76.38563,-1,-1,-1,-1,30,22.15875696438606,-9999,17271.013853125,-0.75146484375,0.48199462890625,-0.4271240234375,17271.003777125,2.601253809048372,-1.05981663519568,-0.5173908084251778,-0.0007115284679457545,0.02490810863673687,0.004478915128856897,-0.002385556697845459,-0.004135727882385254,0.007085621356964111,XArbitraryZVertical,0.4119971462380008,-0.3431419064520862,0.8383945614987267,0.09801338983712005,-0.7580973505973816,0.4946141541004181,-0.4250239729881287,0,0,0,-1,-1,17265.089249375,unknown,2,2025-04-21T14:49:19.766+03:00,2025-04-20T21:57:49.637+03:00,6548,0.9517458,0,0,5385.986,5,6,2025-04-21T14:49:30.084+03:00,766928970.1838291,0,-46.15,100.2854,1,0.5,2025-04-21T14:48:22.231+03:00,94,1.566666666666667,2025-04-21T12:30:07.995+03:00,0.02023345852159405,0
2025-04-21T14:49:31.199+03:00,1745236169.115369,40.9522387725225,29.14028154055504,76.38563,-1,-1,-1,-1,30,22.15875696438606,-9999,17271.023930125,-0.7500152587890625,0.488861083984375,-0.433624267578125,17271.013853125,2.601227571622457,-1.059618396176262,-0.5174702006416606,-0.003715041326358914,0.02301114052534103,0.003381692571565509,-0.001527488231658936,-0.01296335458755493,0.003218919038772583,XArbitraryZVertical,0.4118957968927903,-0.3431681315617128,0.8384307246272191,0.09803725753354099,-0.7579787373542786,0.4946831464767456,-0.425154983997345,0,0,0,-1,-1,17265.089249375,unknown,2,2025-04-21T14:49:19.766+03:00,2025-04-20T21:57:49.637+03:00,6548,0.9517458,0,0,5385.986,5,6,2025-04-21T14:49:30.084+03:00,766928970.1838291,0,-46.15,100.2854,1,0.5,2025-04-21T14:48:22.231+03:00,94,1.566666666666667,2025-04-21T12:30:07.995+03:00,0.02023345852159405,0
2025-04-21T14:49:31.206+03:00,1745236169.115369,40.9522387725225,29.14028154055504,76.38563,-1,-1,-1,-1,30,22.15875696438606,-9999,17271.034006125,-0.7481231689453125,0.4939117431640625,-0.4286041259765625,17271.023930125,2.601261947735429,-1.059404657700237,-0.5174669538463186,0.003897604532539845,0.01105913892388344,-0.00391656719148159,0.007019460201263428,-0.01164823770523071,-0.003210127353668213,XArbitraryZVertical,0.4118126519527055,-0.3431493253114332,0.8384765638783144,0.09806038485842034,-0.7578892111778259,0.4946803152561188,-0.4253177642822266,0,0,0,-1,-1,17265.089249375,unknown,2,2025-04-21T14:49:19.766+03:00,2025-04-20T21:57:49.637+03:00,6548,0.9517458,0,0,5385.986,5,6,2025-04-21T14:49:30.084+03:00,766928970.1838291,0,-46.15,100.2854,1,0.5,2025-04-21T14:48:22.231+03:00,94,1.566666666666667,2025-04-21T12:30:07.995+03:00,0.02023345852159405,0
2025-04-21T14:49:31.216+03:00,1745236169.115369,40.9522387725225,29.14028154055504,76.38563,-1,-1,-1,-1,30,22.15875696438606,-9999,17271.044082125,-0.743133544921875,0.50042724609375,-0.424041748046875,17271.034006125,2.601359600590229,-1.05924754963593,-0.5172953012724,0.01909733004868031,0.006097936071455479,-0.004512316081672907,0.007392942905426025,-0.00559389591217041,-0.00756603479385376,XArbitraryZVertical,0.4117933149612478,-0.3430554720206969,0.8385208335066431,0.09809191152721711,-0.7578964829444885,0.494531124830246,-0.4254784286022186,0,0,0,-1,-1,17265.089249375,unknown,2,2025-04-21T14:49:19.766+03:00,2025-04-20T21:57:49.637+03:00,6548,0.9517458,0,0,5385.986,5,6,2025-04-21T14:49:30.084+03:00,766928970.1838291,0,-46.15,100.2854,1,0.5,2025-04-21T14:48:22.231+03:00,94,1.566666666666667,2025-04-21T12:30:07.995+03:00,0.02023345852159405,0
2025-04-21T14:49:31.226+03:00,1745236169.115369,40.9522387725225,29.14028154055504,76.38563,-1,-1,-1,-1,30,22.15875696438606,-9999,17271.054158125,-0.752838134765625,0.4996337890625,-0.421142578125,17271.044082125,2.601522280049275,-1.059088557065262,-0.5171222573143032,0.02341990731656551,0.01001837477087975,-0.01103000342845917,0.01081782579421997,0.0004311501979827881,-0.002658188343048096,XArbitraryZVertical,0.4117845938855319,-0.3429475901065939,0.8385686543432772,0.09809676700947959,-0.7579033970832825,0.4943807125091553,-0.4256407916545868,0,0,0,-1,-1,17265.089249375,unknown,2,2025-04-21T14:49:19.766+03:00,2025-04-20T21:57:49.637+03:00,6548,0.9517458,0,0,5385.986,5,6,2025-04-21T14:49:30.084+03:00,766928970.1838291,0,-46.15,100.2854,1,0.5,2025-04-21T14:48:22.231+03:00,94,1.566666666666667,2025-04-21T12:30:07.995+03:00,0.02023345852159405,0
2025-04-21T14:49:31.236+03:00,1745236169.115369,40.9522387725225,29.14028154055504,76.38563,-1,-1,-1,-1,30,22.15875696438606,-9999,17271.064235125,-0.759735107421875,0.493011474609375,-0.4178924560546875,17271.054158125,2.601679498189696,-1.058843715045778,-0.5170104197768214,0.02035540714859962,0.01765605434775352,-0.009738903492689133,0.01431703567504883,0.00663188099861145,0.001872658729553223,XArbitraryZVertical,0.411728318721042,-0.3428601682253063,0.8386313036335931,0.09810235271023936,-0.7578473091125488,0.4942834973335266,-0.4258534014225006,0,0,0,-1,-1,17265.089249375,unknown,2,2025-04-21T14:49:19.766+03:00,2025-04-20T21:57:49.637+03:00,6548,0.9517458,0,0,5385.986,5,6,2025-04-21T14:49:30.084+03:00,766928970.1838291,0,-46.15,100.2854,1,0.5,2025-04-21T14:48:22.231+03:00,94,1.566666666666667,2025-04-21T12:30:07.995+03:00,0.02023345852159405,0
2025-04-21T14:49:31.246+03:00,1745236169.115369,40.9522387725225,29.14028154055504,76.38563,-1,-1,-1,-1,30,22.15875696438606,-9999,17271.074311125,-0.75567626953125,0.489959716796875,-0.418487548828125,17271.064235125,2.601780662895582,-1.058628910368129,-0.5169997980061016,0.01257797796279192,0.0178888812661171,-0.005989404860883951,0.003945708274841309,0.004596412181854248,0.004799872636795044,XArbitraryZVertical,0.4116574313914989,-0.3428247189699223,0.8386809148573167,0.09809955932696074,-0.7577603459358215,0.4942742586135864,-0.4260187447071075,0,0,0,-1,-1,17265.089249375,unknown,2,2025-04-21T14:49:19.766+03:00,2025-04-20T21:57:49.637+03:00,6548,0.9517458,0,0,5385.986,5,6,2025-04-21T14:49:30.084+03:00,766928970.1838291,0,-46.15,100.2854,1,0.5,2025-04-21T14:48:22.231+03:00,94,1.566666666666667,2025-04-21T12:30:07.995+03:00,0.02023345852159405,0
2025-04-21T14:49:31.256+03:00,1745236169.115369,40.9522387725225,29.14028154055504,76.38563,-1,-1,-1,-1,30,22.15875696438606,-9999,17271.084387125,-0.7554473876953125,0.4827117919921875,-0.4215240478515625,17271.074311125,2.601776614346707,-1.058497587457722,-0.5169850720301116,0.003259577555581927,0.025237075984478,-0.00807492621243,-0.002161562442779541,-0.001799464225769043,0.007786870002746582,XArbitraryZVertical,0.4116041875101556,-0.3428134453863972,0.8387084497846048,0.09812776195979753,-0.757710874080658,0.4942614734172821,-0.426121860742569,0,0,0,-1,-1,17265.089249375,unknown,2,2025-04-21T14:49:19.766+03:00,2025-04-20T21:57:49.637+03:00,6548,0.9517458,0,0,5385.986,5,6,2025-04-21T14:49:30.084+03:00,766928970.1838291,0,-46.15,100.2854,1,0.5,2025-04-21T14:48:22.231+03:00,94,1.566666666666667,2025-04-21T12:30:07.995+03:00,0.02023345852159405,0
2025-04-21T14:49:31.266+03:00,1745236169.115369,40.9522387725225,29.14028154055504,76.38563,-1,-1,-1,-1,30,22.15875696438606,-9999,17271.094464125,-0.751434326171875,0.4817047119140625,-0.4240875244140625,17271.084387125,2.60169103437791,-1.058372621242549,-0.5168994000106685,-0.004530834499746561,0.02242038398981094,-0.00430994899943471,0.003177881240844727,-0.005234509706497192,0.006925702095031738,XArbitraryZVertical,0.4115519900709269,-0.3427919416533024,0.8387334516106116,0.09820769329288086,-0.7576944828033447,0.4941869974136353,-0.4262372851371765,0,0,0,-1,-1,17265.089249375,unknown,2,2025-04-21T14:49:19.766+03:00,2025-04-20T21:57:49.637+03:00,6548,0.9517458,0,0,5385.986,5,6,2025-04-21T14:49:30.084+03:00,766928970.1838291,0,-46.15,100.2854,1,0.5,2025-04-21T14:48:22.231+03:00,94,1.566666666666667,2025-04-21T12:30:07.995+03:00,0.02023345852159405,0
2025-04-21T14:49:31.277+03:00,1745236169.115369,40.9522387725225,29.14028154055504,76.38563,-1,-1,-1,-1,30,22.15875696438606,-9999,17271.104540125,-0.746734619140625,0.484588623046875,-0.4273834228515625,17271.094464125,2.601588333449024,-1.058280132873671,-0.5167315082432169,-0.004268513061106205,0.01473849546164274,-0.004650034941732883,0.002203643321990967,-0.01113101840019226,0.004625618457794189,XArbitraryZVertical,0.4115247149435473,-0.3427438987208508,0.8387543823231847,0.0983110639878642,-0.757727324962616,0.4940410256385803,-0.4263480603694916,0,0,0,-1,-1,17265.089249375,unknown,2,2025-04-21T14:49:19.766+03:00,2025-04-20T21:57:49.637+03:00,6548,0.9517458,0,0,5385.986,5,6,2025-04-21T14:49:30.084+03:00,766928970.1838291,0,-46.15,100.2854,1,0.5,2025-04-21T14:48:22.231+03:00,94,1.566666666666667,2025-04-21T12:30:07.995+03:00,0.02023345852159405,0
2025-04-21T14:49:31.287+03:00,1745236169.115369,40.9522387725225,29.14028154055504,76.38563,-1,-1,-1,-1,30,22.15875696438606,-9999,17271.114616125,-0.74871826171875,0.4917144775390625,-0.4293060302734375,17271.104540125,2.601599603910596,-1.058083539509179,-0.5166152998512566,0.001593370805494487,0.01116852834820747,-0.001563830650411546,0.007281601428985596,-0.01150301098823547,0.001140594482421875,XArbitraryZVertical,0.4114643463316159,-0.3426871745602532,0.8388001920758414,0.09837079061339112,-0.7576935887336731,0.493939995765686,-0.4265251755714417,0,0,0,-1,-1,17265.089249375,unknown,2,2025-04-21T14:49:19.766+03:00,2025-04-20T21:57:49.637+03:00,6548,0.9517458,0,0,5385.986,5,6,2025-04-21T14:49:30.084+03:00,766928970.1838291,0,-46.15,100.2854,1,0.5,2025-04-21T14:48:22.231+03:00,94,1.566666666666667,2025-04-21T12:30:07.995+03:00,0.02023345852159405,0
2025-04-21T14:49:31.297+03:00,1745236169.115369,40.9522387725225,29.14028154055504,76.38563,-1,-1,-1,-1,30,22.15875696438606,-9999,17271.124693125,-0.7512969970703125,0.4979400634765625,-0.4284820556640625,17271.114616125,2.601702588152545,-1.057830699516343,-0.5165409824121993,0.007699999026954174,0.009672097861766815,-0.001228006090968847,0.01152390241622925,-0.008295059204101562,-0.0005266666412353516,XArbitraryZVertical,0.4113888448918975,-0.3426249358417692,0.8388603008630965,0.09839054344967586,-0.7576176524162292,0.4938753843307495,-0.4267347455024719,0,0,0,-1,-1,17265.089249375,unknown,2,2025-04-21T14:49:19.766+03:00,2025-04-20T21:57:49.637+03:00,6548,0.9517458,0,0,5385.986,5,6,2025-04-21T14:49:30.084+03:00,766928970.1838291,0,-46.15,100.2854,1,0.5,2025-04-21T14:48:22.231+03:00,94,1.566666666666667,2025-04-21T12:30:07.995+03:00,0.02023345852159405,0
2025-04-21T14:49:31.307+03:00,1745236169.115369,40.9522387725225,29.14028154055504,76.38563,-1,-1,-1,-1,30,22.15875696438606,-9999,17271.134769125,-0.7496795654296875,0.4991302490234375,-0.427398681640625,17271.124693125,2.601844982546092,-1.057624286115959,-0.5165303841378924,0.01490478217601776,0.004822348244488239,-0.001710371114313602,0.00819021463394165,-0.001251488924026489,-0.002275049686431885,XArbitraryZVertical,0.4113284625706434,-0.3425814174695059,0.8389102934197269,0.09836907525959712,-0.7575342059135437,0.4938661456108093,-0.4268937408924103,0,0,0,-1,-1,17265.089249375,unknown,2,2025-04-21T14:49:19.766+03:00,2025-04-20T21:57:49.637+03:00,6548,0.9517458,0,0,5385.986,5,6,2025-04-21T14:49:30.084+03:00,766928970.1838291,0,-46.15,100.2854,1,0.5,2025-04-21T14:48:22.231+03:00,94,1.566666666666667,2025-04-21T12:30:07.995+03:00,0.02023345852159405,0
2025-04-21T14:49:31.317+03:00,1745236169.115369,40.9522387725225,29.14028154055504,76.38563,-1,-1,-1,-1,30,22.15875696438606,-9999,17271.144845125,-0.7523345947265625,0.494964599609375,-0.4260711669921875,17271.134769125,2.601975300719865,-1.057470026676596,-0.5166258193782394,0.01396362110972404,0.005161634646356106,-0.005365026649087667,0.006389617919921875,0.003960251808166504,-0.001494705677032471,XArbitraryZVertical,0.4112695605444304,-0.3425837827981139,0.8389444092703355,0.09831552113120302,-0.7574272155761719,0.4939491450786591,-0.4269874095916748,0,0,0,-1,-1,17265.089249375,unknown,2,2025-04-21T14:49:19.766+03:00,2025-04-20T21:57:49.637+03:00,6548,0.9517458,0,0,5385.986,5,6,2025-04-21T14:49:30.084+03:00,766928970.1838291,0,-46.15,100.2854,1,0.5,2025-04-21T14:48:22.231+03:00,94,1.566666666666667,2025-04-21T12:30:07.995+03:00,0.02023345852159405,0
2025-04-21T14:49:31.327+03:00,1745236169.115369,40.9522387725225,29.14028154055504,76.38563,-1,-1,-1,-1,30,22.15875696438606,-9999,17271.154922125,-0.7567138671875,0.4930419921875,-0.4247589111328125,17271.144845125,2.602030580009449,-1.057421700527293,-0.5166106986830858,0.01005023904144764,0.006674443371593952,-0.007304673548787832,0.007550358772277832,0.00446164608001709,-0.0007677972316741943,XArbitraryZVertical,0.4112614073530606,-0.3425642133745854,0.8389576066774197,0.09830452707036433,-0.7574129700660706,0.4939360022544861,-0.4270276427268982,0,0,0,-1,-1,17265.089249375,unknown,2,2025-04-21T14:49:19.766+03:00,2025-04-20T21:57:49.637+03:00,6548,0.9517458,0,0,5385.986,5,6,2025-04-21T14:49:30.084+03:00,766928970.1838291,0,-46.15,100.2854,1,0.5,2025-04-21T14:48:22.231+03:00,94,1.566666666666667,2025-04-21T12:30:07.995+03:00,0.02023345852159405,0
2025-04-21T14:49:31.337+03:00,1745236169.115369,40.9522387725225,29.14028154055504,76.38563,-1,-1,-1,-1,30,22.15875696438606,-9999,17271.164998125,-0.75921630859375,0.4932403564453125,-0.42547607421875,17271.154922125,2.602044282306324,-1.057424441334607,-0.5164937364091484,0.01101616770029068,0.007195624057203531,-0.009767298586666584,0.00401604175567627,0.0008402168750762939,0.0009064376354217529,XArbitraryZVertical,0.4112851904830012,-0.3425164817304234,0.8389625092611533,0.098329199334712,-0.7574644684791565,0.4938342869281769,-0.4270538985729218,0,0,0,-1,-1,17265.089249375,unknown,2,2025-04-21T14:49:19.766+03:00,2025-04-20T21:57:49.637+03:00,6548,0.9517458,0,0,5385.986,5,6,2025-04-21T14:49:30.084+03:00,766928970.1838291,0,-46.15,100.2854,1,0.5,2025-04-21T14:48:22.231+03:00,94,1.566666666666667,2025-04-21T12:30:07.995+03:00,0.02023345852159405,0
2025-04-21T14:49:31.347+03:00,1745236169.115369,40.9522387725225,29.14028154055504,76.38563,-1,-1,-1,-1,30,22.15875696438606,-9999,17271.175074125,-0.761016845703125,0.493927001953125,-0.4219970703125,17271.164998125,2.602074867062661,-1.057351572280324,-0.5163341964723454,0.0129203274846077,0.01434727758169174,-0.01116106379777193,0.0002235770225524902,-0.001126676797866821,0.002007424831390381,XArbitraryZVertical,0.4112874407600016,-0.3424451682187713,0.8389857826604515,0.09837123035801418,-0.7575021386146545,0.4936955571174622,-0.4271478950977325,0,0,0,-1,-1,17265.089249375,unknown,2,2025-04-21T14:49:19.766+03:00,2025-04-20T21:57:49.637+03:00,6548,0.9517458,0,0,5385.986,5,6,2025-04-21T14:49:30.084+03:00,766928970.1838291,0,-46.15,100.2854,1,0.5,2025-04-21T14:48:22.231+03:00,94,1.566666666666667,2025-04-21T12:30:07.995+03:00,0.02023345852159405,0
2025-04-21T14:49:31.357+03:00,1745236169.115369,40.9522387725225,29.14028154055504,76.38563,-1,-1,-1,-1,30,22.15875696438606,-9999,17271.185151125,-0.75946044921875,0.4917449951171875,-0.4204559326171875,17271.175074125,2.602122613395738,-1.057199800560657,-0.5160851794452316,0.01101669948548079,0.01726104132831097,-0.009035595692694187,-0.002145051956176758,0.0001579225063323975,0.001374095678329468,XArbitraryZVertical,0.4112751490404362,-0.3423319553198744,0.8390294628981121,0.09844286821418424,-0.757544219493866,0.4934789836406708,-0.4273231625556946,0,0,0,-1,-1,17265.089249375,unknown,2,2025-04-21T14:49:19.766+03:00,2025-04-20T21:57:49.637+03:00,6548,0.9517458,0,0,5385.986,5,6,2025-04-21T14:49:30.084+03:00,766928970.1838291,0,-46.15,100.2854,1,0.5,2025-04-21T14:48:22.231+03:00,94,1.566666666666667,2025-04-21T12:30:07.995+03:00,0.02023345852159405,0
2025-04-21T14:49:31.367+03:00,1745236169.115369,40.9522387725225,29.14028154055504,76.38563,-1,-1,-1,-1,30,22.15875696438606,-9999,17271.195227125,-0.7530670166015625,0.4905853271484375,-0.4205322265625,17271.185151125,2.602194089793186,-1.056965315586499,-0.5159149759668786,0.002349974820390344,0.01800832524895668,-0.001693526515737176,-0.003438651561737061,0.0003975033760070801,0.005743354558944702,XArbitraryZVertical,0.4112185005848751,-0.3422401424596919,0.8390881999787664,0.09849798878100914,-0.7575170993804932,0.4933309257030487,-0.4275420606136322,0,0,0,-1,-1,17265.089249375,unknown,2,2025-04-21T14:49:19.766+03:00,2025-04-20T21:57:49.637+03:00,6548,0.9517458,0,0,5385.986,5,6,2025-04-21T14:49:30.084+03:00,766928970.1838291,0,-46.15,100.2854,1,0.5,2025-04-21T14:48:22.231+03:00,94,1.566666666666667,2025-04-21T12:30:07.995+03:00,0.02023345852159405,0
2025-04-21T14:49:31.377+03:00,1745236169.115369,40.9522387725225,29.14028154055504,76.38563,-1,-1,-1,-1,30,22.15875696438606,-9999,17271.205303125,-0.751251220703125,0.4917144775390625,-0.4223175048828125,17271.195227125,2.602252762587891,-1.056743373487744,-0.5158653282602188,0.006790529936552048,0.01414700783789158,-0.000363810220733285,-0.001101374626159668,-0.001100420951843262,0.00795292854309082,XArbitraryZVertical,0.4111440146828385,-0.3421980200835072,0.8391387888253976,0.0985244925176197,-0.7574435472488403,0.4932877421379089,-0.4277222156524658,0,0,0,-1,-1,17265.089249375,unknown,2,2025-04-21T14:49:19.766+03:00,2025-04-20T21:57:49.637+03:00,6548,0.9517458,0,0,5385.986,5,6,2025-04-21T14:49:30.084+03:00,766928970.1838291,0,-46.15,100.2854,1,0.5,2025-04-21T14:48:22.231+03:00,94,1.566666666666667,2025-04-21T12:30:07.995+03:00,0.02023345852159405,0
2025-04-21T14:49:31.388+03:00,1745236169.115369,40.9522387725225,29.14028154055504,76.38563,-1,-1,-1,-1,30,22.15875696438606,-9999,17271.215380125,-0.751953125,0.493896484375,-0.423492431640625,17271.205303125,2.602353108844028,-1.056461010975696,-0.5158699430256687,0.00475700618699193,0.01943611167371273,0.000749823811929673,0.005062520503997803,-0.003027051687240601,0.007341712713241577,XArbitraryZVertical,0.4110419117034876,-0.3421652619763517,0.8392015717180329,0.09852947025617076,-0.757320761680603,0.4932917654514313,-0.4279349744319916,0,0,0,-1,-1,17265.089249375,unknown,2,2025-04-21T14:49:19.766+03:00,2025-04-20T21:57:49.637+03:00,6548,0.9517458,0,0,5385.986,5,6,2025-04-21T14:49:30.084+03:00,766928970.1838291,0,-46.15,100.2854,1,0.5,2025-04-21T14:48:22.231+03:00,94,1.566666666666667,2025-04-21T12:30:07.995+03:00,0.02023345852159405,0
2025-04-21T14:49:31.398+03:00,1745236169.115369,40.9522387725225,29.14028154055504,76.38563,-1,-1,-1,-1,30,22.15875696438606,-9999,17271.225456125,-0.74920654296875,0.495819091796875,-0.4229888916015625,17271.215380125,2.602449758547243,-1.05620995795471,-0.5159815085674224,0.00348028726875782,0.0150565430521965,0.006327814888209105,0.005593836307525635,-0.001659214496612549,0.005429565906524658,XArbitraryZVertical,0.4109337429011183,-0.3421760332128956,0.8392534231840378,0.09850250118335203,-0.7571654915809631,0.4933888018131256,-0.428098052740097,0,0,0,-1,-1,17265.089249375,unknown,2,2025-04-21T14:49:19.766+03:00,2025-04-20T21:57:49.637+03:00,6548,0.9517458,0,0,5385.986,5,6,2025-04-21T14:49:30.084+03:00,766928970.1838291,0,-46.15,100.2854,1,0.5,2025-04-21T14:48:22.231+03:00,94,1.566666666666667,2025-04-21T12:30:07.995+03:00,0.02023345852159405,0
2025-04-21T14:49:31.408+03:00,1745236169.115369,40.9522387725225,29.14028154055504,76.38563,-1,-1,-1,-1,30,22.15875696438606,-9999,17271.235532125,-0.7521514892578125,0.487548828125,-0.4254150390625,17271.225456125,2.602563670682696,-1.05597543052005,-0.5160956336123388,0.006045177578926086,0.01593165844678879,0.003650805214419961,0.004635632038116455,0.0005455613136291504,0.004480689764022827,XArbitraryZVertical,0.4108350950275501,-0.3421850617596338,0.839302373790718,0.09846456037777382,-0.7570159435272217,0.493488073348999,-0.4282478094100952,0,0,0,-1,-1,17265.089249375,unknown,2,2025-04-21T14:49:19.766+03:00,2025-04-20T21:57:49.637+03:00,6548,0.9517458,0,0,5385.986,5,6,2025-04-21T14:49:30.084+03:00,766928970.1838291,0,-46.15,100.2854,1,0.5,2025-04-21T14:48:22.231+03:00,94,1.566666666666667,2025-04-21T12:30:07.995+03:00,0.02023345852159405,0
2025-04-21T14:49:31.418+03:00,1745236169.115369,40.9522387725225,29.14028154055504,76.38563,-1,-1,-1,-1,30,22.15875696438606,-9999,17271.245609125,-0.7588653564453125,0.4905853271484375,-0.42205810546875,17271.235532125,2.602665185090997,-1.055739532979504,-0.5161493807476247,0.007219631224870682,0.02089498937129974,0.00434189522638917,0.008326172828674316,0.0009260773658752441,0.005073428153991699,XArbitraryZVertical,0.4107441518693019,-0.3421733153598809,0.8393536183342631,0.09844814484118376,-0.7568918466567993,0.4935348331928253,-0.4284133315086365,0,0,0,-1,-1,17265.089249375,unknown,2,2025-04-21T14:49:19.766+03:00,2025-04-20T21:57:49.637+03:00,6548,0.9517458,0,0,5385.986,5,6,2025-04-21T14:49:30.084+03:00,766928970.1838291,0,-46.15,100.2854,1,0.5,2025-04-21T14:48:22.231+03:00,94,1.566666666666667,2025-04-21T12:30:07.995+03:00,0.02023345852159405,0
2025-04-21T14:49:31.428+03:00,1745236169.115369,40.9522387725225,29.14028154055504,76.38563,-1,-1,-1,-1,30,22.15875696438606,-9999,17271.255685125,-0.7590484619140625,0.494354248046875,-0.419525146484375,17271.245609125,2.602774836958309,-1.055495381180859,-0.5161226138675784,0.01343957707285881,0.02242377959191799,0.002238997025415301,0.003762245178222656,-0.005779772996902466,0.002716571092605591,XArbitraryZVertical,0.4106650800103487,-0.3421284613644646,0.8394102519081958,0.0984509502578093,-0.7567986845970154,0.4935115277767181,-0.4286046028137207,0,0,0,-1,-1,17265.089249375,unknown,2,2025-04-21T14:49:19.766+03:00,2025-04-20T21:57:49.637+03:00,6548,0.9517458,0,0,5385.986,5,6,2025-04-21T14:49:30.084+03:00,766928970.1838291,0,-46.15,100.2854,1,0.5,2025-04-21T14:48:22.231+03:00,94,1.566666666666667,2025-04-21T12:30:07.995+03:00,0.02023345852159405,0
2025-04-21T14:49:31.438+03:00,1745236169.115369,40.9522387725225,29.14028154055504,76.38563,-1,-1,-1,-1,30,22.15875696438606,-9999,17271.265761125,-0.7561492919921875,0.490386962890625,-0.42413330078125,17271.255685125,2.60288119458166,-1.055260009764187,-0.516072065616121,0.01220360398292542,0.02220406755805016,0.002672027098014951,-0.002130568027496338,-0.002043187618255615,0.008354336023330688,XArbitraryZVertical,0.4105932337063714,-0.3420755502474355,0.8394659054475783,0.09845991078604298,-0.7567194700241089,0.4934675693511963,-0.4287950396537781,0,0,0,-1,-1,17265.089249375,unknown,2,2025-04-21T14:49:19.766+03:00,2025-04-20T21:57:49.637+03:00,6548,0.9517458,0,0,5385.986,5,6,2025-04-21T14:49:30.084+03:00,766928970.1838291,0,-46.15,100.2854,1,0.5,2025-04-21T14:48:22.231+03:00,94,1.566666666666667,2025-04-21T12:30:07.995+03:00,0.02023345852159405,0
2025-04-21T14:49:31.448+03:00,1745236169.115369,40.9522387725225,29.14028154055504,76.38563,-1,-1,-1,-1,30,22.15875696438606,-9999,17271.275838125,-0.753143310546875,0.4880218505859375,-0.42620849609375,17271.265761125,2.602947301954733,-1.055076210143306,-0.5160474818883879,0.01098494231700897,0.02465657331049442,0.00156255392357707,-0.00114595890045166,0.0002669990062713623,0.009216517210006714,XArbitraryZVertical,0.4105316576230828,-0.3420434509674765,0.8395078778007014,0.09847005370825253,-0.7566512227058411,0.4934462010860443,-0.4289400577545166,0,0,0,-1,-1,17265.089249375,unknown,2,2025-04-21T14:49:19.766+03:00,2025-04-20T21:57:49.637+03:00,6548,0.9517458,0,0,5385.986,5,6,2025-04-21T14:49:30.084+03:00,766928970.1838291,0,-46.15,100.2854,1,0.5,2025-04-21T14:48:22.231+03:00,94,1.566666666666667,2025-04-21T12:30:07.995+03:00,0.02023345852159405,0
2025-04-21T14:49:31.458+03:00,1745236169.115369,40.9522387725225,29.14028154055504,76.38563,-1,-1,-1,-1,30,22.15875696438606,-9999,17271.285914125,-0.750335693359375,0.48626708984375,-0.4260101318359375,17271.275838125,2.602950539820438,-1.054912215838846,-0.5160448802877619,0.003227153560146689,0.02393352426588535,0.004095220007002354,0.001363515853881836,-0.003743767738342285,0.004382133483886719,XArbitraryZVertical,0.4104638001472737,-0.3420337103928187,0.8395418698691177,0.09849749213170737,-0.7565820217132568,0.4934439361095428,-0.4290648102760315,0,0,0,-1,-1,17265.089249375,unknown,2,2025-04-21T14:49:19.766+03:00,2025-04-20T21:57:49.637+03:00,6548,0.9517458,0,0,5385.986,5,6,2025-04-21T14:49:30.084+03:00,766928970.1838291,0,-46.15,100.2854,1,0.5,2025-04-21T14:48:22.231+03:00,94,1.566666666666667,2025-04-21T12:30:07.995+03:00,0.02023345852159405,0
2025-04-21T14:49:31.468+03:00,1745236169.115369,40.9522387725225,29.14028154055504,76.38563,-1,-1,-1,-1,30,22.15875696438606,-9999,17271.295990125,-0.7437591552734375,0.48870849609375,-0.428192138671875,17271.285914125,2.60298073500285,-1.054738182238327,-0.5160819517478327,0.004768191836774349,0.01614684239029884,0.003375167958438396,0.002707242965698242,-0.005576550960540771,0.003314614295959473,XArbitraryZVertical,0.4103894934152866,-0.3420332376957597,0.8395775297959009,0.09850479559501542,-0.7564914226531982,0.4934761822223663,-0.4291874468326569,0,0,0,-1,-1,17265.089249375,unknown,2,2025-04-21T14:49:19.766+03:00,2025-04-20T21:57:49.637+03:00,6548,0.9517458,0,0,5385.986,5,6,2025-04-21T14:49:30.084+03:00,766928970.1838291,0,-46.15,100.2854,1,0.5,2025-04-21T14:48:22.231+03:00,94,1.566666666666667,2025-04-21T12:30:07.995+03:00,0.02023345852159405,0
2025-04-21T14:49:31.478+03:00,1745236169.115369,40.9522387725225,29.14028154055504,76.38563,-1,-1,-1,-1,30,22.15875696438606,-9999,17271.306067125,-0.7415618896484375,0.49212646484375,-0.4271697998046875,17271.295990125,2.603015395329367,-1.054621477981615,-0.5161223606297408,0.005183645058423281,0.01046711765229702,0.002392727881669998,0.006485044956207275,-0.006481438875198364,0.002019762992858887,XArbitraryZVertical,0.4103394366920887,-0.3420359609333352,0.8396015023710443,0.09849954111561948,-0.7564240097999573,0.4935113191604614,-0.4292658865451813,0,0,0,-1,-1,17265.089249375,unknown,2,2025-04-21T14:49:19.766+03:00,2025-04-20T21:57:49.637+03:00,6548,0.9517458,0,0,5385.986,5,6,2025-04-21T14:49:30.084+03:00,766928970.1838291,0,-46.15,100.2854,1,0.5,2025-04-21T14:48:22.231+03:00,94,1.566666666666667,2025-04-21T12:30:07.995+03:00,0.02023345852159405,0
2025-04-21T14:49:31.488+03:00,1745236169.115369,40.9522387725225,29.14028154055504,76.38563,-1,-1,-1,-1,30,22.15875696438606,-9999,17271.316143125,-0.7454071044921875,0.4922332763671875,-0.4276580810546875,17271.306067125,2.603071059858554,-1.054527209858651,-0.5161540294556078,0.008842362090945244,0.01077717635780573,0.0007767550414428115,0.013572096824646,-0.004159122705459595,0.0008016228675842285,XArbitraryZVertical,0.4103039038981751,-0.3420321110491916,0.8396222613726554,0.0984839335426954,-0.756369948387146,0.4935388565063477,-0.4293294847011566,0,0,0,-1,-1,17265.089249375,unknown,2,2025-04-21T14:49:19.766+03:00,2025-04-20T21:57:49.637+03:00,6548,0.9517458,0,0,5385.986,5,6,2025-04-21T14:49:30.084+03:00,766928970.1838291,0,-46.15,100.2854,1,0.5,2025-04-21T14:48:22.231+03:00,94,1.566666666666667,2025-04-21T12:30:07.995+03:00,0.02023345852159405,0
2025-04-21T14:49:31.499+03:00,1745236169.115369,40.9522387725225,29.14028154055504,76.38563,-1,-1,-1,-1,30,22.15875696438606,-9999,17271.326219125,-0.748138427734375,0.494049072265625,-0.4273529052734375,17271.316143125,2.60314046832544,-1.054417977263783,-0.5162280069147771,0.004482767544686794,0.009069823659956455,0.005176563281565905,0.01472938060760498,-0.001232773065567017,0.001629143953323364,XArbitraryZVertical,0.4102571292691869,-0.3420410229645271,0.8396449702762728,0.09845392130984125,-0.7562912106513977,0.4936031997203827,-0.4293940663337708,0,0,0,-1,-1,17265.089249375,unknown,2,2025-04-21T14:49:19.766+03:00,2025-04-20T21:57:49.637+03:00,6548,0.9517458,0,0,5385.986,5,6,2025-04-21T14:49:30.084+03:00,766928970.1838291,0,-46.15,100.2854,1,0.5,2025-04-21T14:48:22.231+03:00,94,1.566666666666667,2025-04-21T12:30:07.995+03:00,0.02023345852159405,0
2025-04-21T14:49:31.508+03:00,1745236169.115369,40.9522387725225,29.14028154055504,76.38563,-1,-1,-1,-1,30,22.15875696438606,-9999,17271.336296125,-0.7505035400390625,0.4892425537109375,-0.425384521484375,17271.326219125,2.603225089879323,-1.054307052075755,-0.5161847155635465,0.007271363399922848,0.008503369055688381,0.002903289161622524,0.01033633947372437,-0.001485049724578857,0.001555770635604858,XArbitraryZVertical,0.4102325145763991,-0.3420015090745099,0.8396737093635216,0.09844880173553631,-0.7562621831893921,0.493565559387207,-0.4294885098934174,0,0,0,-1,-1,17265.089249375,unknown,2,2025-04-21T14:49:19.766+03:00,2025-04-20T21:57:49.637+03:00,6548,0.9517458,0,0,5385.986,5,6,2025-04-21T14:49:30.084+03:00,766928970.1838291,0,-46.15,100.2854,1,0.5,2025-04-21T14:48:22.231+03:00,94,1.566666666666667,2025-04-21T12:30:07.995+03:00,0.02023345852159405,0
2025-04-21T14:49:31.518+03:00,1745236169.115369,40.9522387725225,29.14028154055504,76.38563,-1,-1,-1,-1,30,22.15875696438606,-9999,17271.346372125,-0.7555389404296875,0.4864501953125,-0.425811767578125,17271.336296125,2.603212419583005,-1.054306008415739,-0.516187118919916,0.002622549422085285,0.0116198007017374,0.002604482462629676,0.00746619701385498,-8.32974910736084e-05,0.002288341522216797,XArbitraryZVertical,0.4102294812514709,-0.3420049849152256,0.8396732359331561,0.09845370185774042,-0.7562607526779175,0.4935676455497742,-0.4294887185096741,0,0,0,-1,-1,17265.089249375,unknown,2,2025-04-21T14:49:19.766+03:00,2025-04-20T21:57:49.637+03:00,6548,0.9517458,0,0,5385.986,5,6,2025-04-21T14:49:30.084+03:00,766928970.1838291,0,-46.15,100.2854,1,0.5,2025-04-21T14:48:22.231+03:00,94,1.566666666666667,2025-04-21T12:30:07.995+03:00,0.02023345852159405,0
2025-04-21T14:49:31.529+03:00,1745236169.115369,40.9522387725225,29.14028154055504,76.38563,-1,-1,-1,-1,30,22.15875696438606,-9999,17271.356448125,-0.7525177001953125,0.487762451171875,-0.4283599853515625,17271.346372125,2.603169364651715,-1.054311326924455,-0.516268564100745,-0.003336073830723763,0.009840741753578186,0.005674274638295174,0.004946351051330566,-0.00538790225982666,0.004385471343994141,XArbitraryZVertical,0.4102102509033306,-0.3420454906456107,0.8396666596873129,0.09844941035420915,-0.7562280893325806,0.4936384856700897,-0.4294648766517639,0,0,0,-1,-1,17265.089249375,unknown,2,2025-04-21T14:49:19.766+03:00,2025-04-20T21:57:49.637+03:00,6548,0.9517458,0,0,5385.986,5,6,2025-04-21T14:49:30.084+03:00,766928970.1838291,0,-46.15,100.2854,1,0.5,2025-04-21T14:48:22.231+03:00,94,1.566666666666667,2025-04-21T12:30:07.995+03:00,0.02023345852159405,0
2025-04-21T14:49:31.539+03:00,1745236169.115369,40.9522387725225,29.14028154055504,76.38563,-1,-1,-1,-1,30,22.15875696438606,-9999,17271.366525125,-0.749908447265625,0.4902496337890625,-0.4311676025390625,17271.356448125,2.603168266833761,-1.054242208523944,-0.5163056160961292,0.0015819858526811,0.009797865524888039,0.005087314173579216,0.001025021076202393,-0.006839185953140259,0.003558933734893799,XArbitraryZVertical,0.4101746330949387,-0.3420566036886069,0.8396792401172589,0.09845192084530478,-0.7561824917793274,0.4936707019805908,-0.4295080900192261,0,0,0,-1,-1,17265.089249375,unknown,2,2025-04-21T14:49:19.766+03:00,2025-04-20T21:57:49.637+03:00,6548,0.9517458,0,0,5385.986,5,6,2025-04-21T14:49:30.084+03:00,766928970.1838291,0,-46.15,100.2854,1,0.5,2025-04-21T14:48:22.231+03:00,94,1.566666666666667,2025-04-21T12:30:07.995+03:00,0.02023345852159405,0
2025-04-21T14:49:31.549+03:00,1745236169.115369,40.9522387725225,29.14028154055504,76.38563,-1,-1,-1,-1,30,22.15875696438606,-9999,17271.376601125,-0.7474212646484375,0.4949798583984375,-0.43438720703125,17271.366525125,2.603232006510413,-1.054145452743582,-0.5162858574210673,0.006251905579119921,0.006635428406298161,0.006001078058034182,0.004318416118621826,-0.005570769309997559,0.001256585121154785,XArbitraryZVertical,0.4101483151192569,-0.34203115000728,0.8397030864790119,0.09844696149148625,-0.7561494708061218,0.4936535060405731,-0.4295861124992371,0,0,0,-1,-1,17265.089249375,unknown,2,2025-04-21T14:49:19.766+03:00,2025-04-20T21:57:49.637+03:00,6548,0.9517458,0,0,5385.986,5,6,2025-04-21T14:49:30.084+03:00,766928970.1838291,0,-46.15,100.2854,1,0.5,2025-04-21T14:48:22.231+03:00,94,1.566666666666667,2025-04-21T12:30:07.995+03:00,0.02023345852159405,0
2025-04-21T14:49:31.559+03:00,1745236169.115369,40.9522387725225,29.14028154055504,76.38563,-1,-1,-1,-1,30,22.15875696438606,-9999,17271.386677125,-0.74224853515625,0.4965972900390625,-0.433990478515625,17271.376601125,2.603339218507557,-1.054050964475347,-0.5162563833120808,0.008963802829384804,-0.001826765947043896,0.004517963621765375,0.006808161735534668,-0.002081394195556641,-0.001991212368011475,XArbitraryZVertical,0.4101320713853151,-0.3419931454433316,0.839728982604425,0.09842589317680094,-0.7561215162277222,0.4936278760433197,-0.4296647310256958,0,0,0,-1,-1,17265.089249375,unknown,2,2025-04-21T14:49:19.766+03:00,2025-04-20T21:57:49.637+03:00,6548,0.9517458,0,0,5385.986,5,6,2025-04-21T14:49:30.084+03:00,766928970.1838291,0,-46.15,100.2854,1,0.5,2025-04-21T14:48:22.231+03:00,94,1.566666666666667,2025-04-21T12:30:07.995+03:00,0.02023345852159405,0
2025-04-21T14:49:31.569+03:00,1745236169.115369,40.9522387725225,29.14028154055504,76.38563,-1,-1,-1,-1,30,22.15875696438606,-9999,17271.396754125,-0.746307373046875,0.495269775390625,-0.430999755859375,17271.386677125,2.603497825043215,-1.053942861374476,-0.5162585286069278,0.01341474335640669,-0.00130878109484911,0.003516615368425846,0.009644687175750732,0.001319438219070435,-0.004259824752807617,XArbitraryZVertical,0.4101134493026376,-0.3419561280943373,0.8397588110349883,0.09837716401838197,-0.7560741305351257,0.4936297535896301,-0.4297459423542023,0,0,0,-1,-1,17265.089249375,unknown,2,2025-04-21T14:49:19.766+03:00,2025-04-20T21:57:49.637+03:00,6548,0.9517458,0,0,5385.986,5,6,2025-04-21T14:49:30.084+03:00,766928970.1838291,0,-46.15,100.2854,1,0.5,2025-04-21T14:48:22.231+03:00,94,1.566666666666667,2025-04-21T12:30:07.995+03:00,0.02023345852159405,0
2025-04-21T14:49:31.579+03:00,1745236169.115369,40.9522387725225,29.14028154055504,76.38563,-1,-1,-1,-1,30,22.15875696438606,-9999,17271.406830125,-0.753692626953125,0.4945220947265625,-0.42755126953125,17271.396754125,2.60369861087077,-1.053790476412388,-0.5162703016615903,0.01825237460434437,0.0005575618706643581,0.001152260694652796,0.01410597562789917,0.002651989459991455,-0.004086494445800781,XArbitraryZVertical,0.4100817590768632,-0.3419120053536206,0.8397994312256541,0.09831579658079792,-0.7560035586357117,0.4936399757862091,-0.4298582673072815,0,0,0,-1,-1,17265.089249375,unknown,2,2025-04-21T14:49:19.766+03:00,2025-04-20T21:57:49.637+03:00,6548,0.9517458,0,0,5385.986,5,6,2025-04-21T14:49:30.084+03:00,766928970.1838291,0,-46.15,100.2854,1,0.5,2025-04-21T14:48:22.231+03:00,94,1.566666666666667,2025-04-21T12:30:07.995+03:00,0.02023345852159405,0
2025-04-21T14:49:31.589+03:00,1745236169.115369,40.9522387725225,29.14028154055504,76.38563,-1,-1,-1,-1,30,22.15875696438606,-9999,17271.416906125,-0.7572784423828125,0.4882049560546875,-0.4240875244140625,17271.406830125,2.603913590034677,-1.053617563981573,-0.5162319370446871,0.0169546827673912,0.01139909122139215,0.00446593202650547,0.008539676666259766,0.001159459352493286,-0.001199781894683838,XArbitraryZVertical,0.4100525258090353,-0.3418446287155994,0.8398470705316532,0.09826521491567171,-0.7559456825256348,0.4936066269874573,-0.4299983382225037,0,0,0,-1,-1,17265.089249375,unknown,2,2025-04-21T14:49:19.766+03:00,2025-04-20T21:57:49.637+03:00,6548,0.9517458,0,0,5385.986,5,6,2025-04-21T14:49:30.084+03:00,766928970.1838291,0,-46.15,100.2854,1,0.5,2025-04-21T14:48:22.231+03:00,94,1.566666666666667,2025-04-21T12:30:07.995+03:00,0.02023345852159405,0
2025-04-21T14:49:31.599+03:00,1745236169.115369,40.9522387725225,29.14028154055504,76.38563,-1,-1,-1,-1,30,22.15875696438606,-9999,17271.426983125,-0.757568359375,0.48504638671875,-0.4246978759765625,17271.416906125,2.604083813477878,-1.053384758605595,-0.5162460689788079,0.01305501628667116,0.01552858855575323,0.006481678690761328,0.001689136028289795,-0.0001650750637054443,0.003062069416046143,XArbitraryZVertical,0.4099814089907329,-0.3418037485086343,0.8399025793021625,0.09822980635947344,-0.7558395266532898,0.493618905544281,-0.4301708936691284,0,0,0,-1,-1,17265.089249375,unknown,2,2025-04-21T14:49:19.766+03:00,2025-04-20T21:57:49.637+03:00,6548,0.9517458,0,0,5385.986,5,6,2025-04-21T14:49:30.084+03:00,766928970.1838291,0,-46.15,100.2854,1,0.5,2025-04-21T14:48:22.231+03:00,94,1.566666666666667,2025-04-21T12:30:07.995+03:00,0.02023345852159405,0
2025-04-21T14:49:31.609+03:00,1745236169.115369,40.9522387725225,29.14028154055504,76.38563,-1,-1,-1,-1,30,22.15875696438606,-9999,17271.437059125,-0.7514190673828125,0.4851531982421875,-0.4299163818359375,17271.426983125,2.604204416915106,-1.053173629276492,-0.5162347659844378,0.006992930080741644,0.01695957221090794,0.006943903863430023,-0.001830160617828369,-0.005633085966110229,0.006581306457519531,XArbitraryZVertical,0.4099152964057881,-0.3417642981297292,0.8399522783557823,0.09821824327282681,-0.7557535767555237,0.4936090707778931,-0.4303332269191742,0,0,0,-1,-1,17265.089249375,unknown,2,2025-04-21T14:49:19.766+03:00,2025-04-20T21:57:49.637+03:00,6548,0.9517458,0,0,5385.986,5,6,2025-04-21T14:49:30.084+03:00,766928970.1838291,0,-46.15,100.2854,1,0.5,2025-04-21T14:48:22.231+03:00,94,1.566666666666667,2025-04-21T12:30:07.995+03:00,0.02023345852159405,0
2025-04-21T14:49:31.619+03:00,1745236169.115369,40.9522387725225,29.14028154055504,76.38563,-1,-1,-1,-1,30,22.15875696438606,-9999,17271.447136125,-0.748504638671875,0.494110107421875,-0.435028076171875,17271.437059125,2.604286757736717,-1.053041842111113,-0.51625077845357,0.004797419998794794,0.009808717295527458,0.0130835548043251,-0.0008866786956787109,-0.009065002202987671,0.005318939685821533,XArbitraryZVertical,0.4098712541257631,-0.341747130640564,0.8399826524875131,0.09820195351002131,-0.7556899785995483,0.4936230182647705,-0.4304289221763611,0,0,0,-1,-1,17265.089249375,unknown,2,2025-04-21T14:49:19.766+03:00,2025-04-20T21:57:49.637+03:00,6548,0.9517458,0,0,5385.986,5,6,2025-04-21T14:49:30.084+03:00,766928970.1838291,0,-46.15,100.2854,1,0.5,2025-04-21T14:48:22.231+03:00,94,1.566666666666667,2025-04-21T12:30:07.995+03:00,0.02023345852159405,0
2025-04-21T14:49:31.629+03:00,1745236169.115369,40.9522387725225,29.14028154055504,76.38563,-1,-1,-1,-1,30,22.15875696438606,-9999,17271.457212125,-0.7487335205078125,0.494537353515625,-0.4350433349609375,17271.447136125,2.604452760825123,-1.05286106125077,-0.5162916902479423,0.01536657474935055,0.01063789241015911,0.01242049504071474,0.004679024219512939,-0.007132291793823242,-0.0003375113010406494,XArbitraryZVertical,0.4098166550528626,-0.3417200254284883,0.8400260380062057,0.09815224770234504,-0.7555944919586182,0.493658572435379,-0.4305554628372192,0,0,0,-1,-1,17265.089249375,unknown,2,2025-04-21T14:49:19.766+03:00,2025-04-20T21:57:49.637+03:00,6548,0.9517458,0,0,5385.986,5,6,2025-04-21T14:49:30.084+03:00,766928970.1838291,0,-46.15,100.2854,1,0.5,2025-04-21T14:48:22.231+03:00,94,1.566666666666667,2025-04-21T12:30:07.995+03:00,0.02023345852159405,0
2025-04-21T14:49:31.648+03:00,1745236169.115369,40.9522387725225,29.14028154055504,76.38563,-1,-1,-1,-1,30,22.15875696438606,-9999,17271.467288125,-0.7471160888671875,0.494659423828125,-0.430816650390625,17271.457212125,2.604694752586525,-1.052636510853449,-0.5163064264384892,0.01896130852401257,0.002246805233880877,0.0102185932919383,0.006910562515258789,0.0005453526973724365,-0.004184544086456299,XArbitraryZVertical,0.4097611325651547,-0.3416651149077604,0.8400833098841904,0.09808509519521164,-0.7554914951324463,0.4936713874340057,-0.4307215213775635,0,0,0,-1,-1,17265.089249375,unknown,2,2025-04-21T14:49:19.766+03:00,2025-04-20T21:57:49.637+03:00,6548,0.9517458,0,0,5385.986,5,6,2025-04-21T14:49:30.084+03:00,766928970.1838291,0,-46.15,100.2854,1,0.5,2025-04-21T14:48:22.231+03:00,94,1.566666666666667,2025-04-21T12:30:07.995+03:00,0.02023345852159405,0
2025-04-21T14:49:31.651+03:00,1745236169.115369,40.9522387725225,29.14028154055504,76.38563,-1,-1,-1,-1,30,22.15875696438606,-9999,17271.477365125,-0.7463531494140625,0.49578857421875,-0.4308929443359375,17271.467288125,2.604972594404694,-1.052430909661048,-0.51633352827444,0.0179840624332428,0.0004391847178339958,0.00830624345690012,0.007344484329223633,0.0003691911697387695,-0.003928989171981812,XArbitraryZVertical,0.4097175429149723,-0.3416085782697034,0.8401379308228949,0.09799638663109569,-0.7553912997245789,0.4936949610710144,-0.4308702349662781,0,0,0,-1,-1,17265.089249375,unknown,2,2025-04-21T14:49:19.766+03:00,2025-04-20T21:57:49.637+03:00,6548,0.9517458,0,0,5385.986,5,6,2025-04-21T14:49:30.084+03:00,766928970.1838291,0,-46.15,100.2854,1,0.5,2025-04-21T14:48:22.231+03:00,94,1.566666666666667,2025-04-21T12:30:07.995+03:00,0.02023345852159405,0
2025-04-21T14:49:31.660+03:00,1745236169.115369,40.9522387725225,29.14028154055504,76.38563,-1,-1,-1,-1,30,22.15875696438606,-9999,17271.487441125,-0.7488861083984375,0.49005126953125,-0.42999267578125,17271.477365125,2.60523728612272,-1.05220230321686,-0.5164133771347231,0.01537522953003645,0.001908716978505254,0.006252147257328033,0.009210586547851562,0.001642554998397827,0.0001304149627685547,XArbitraryZVertical,0.409652925242488,-0.3415739925146759,0.8401943856939599,0.09790323487115327,-0.7552585601806641,0.4937644004821777,-0.4310233891010284,0,0,0,-1,-1,17265.089249375,unknown,2,2025-04-21T14:49:19.766+03:00,2025-04-20T21:57:49.637+03:00,6548,0.9517458,0,0,5385.986,5,6,2025-04-21T14:49:30.084+03:00,766928970.1838291,0,-46.15,100.2854,1,0.5,2025-04-21T14:48:22.231+03:00,94,1.566666666666667,2025-04-21T12:30:07.995+03:00,0.02023345852159405,0
2025-04-21T14:49:31.670+03:00,1745236169.115369,40.9522387725225,29.14028154055504,76.38563,-1,-1,-1,-1,30,22.15875696438606,-9999,17271.497517125,-0.7493896484375,0.486846923828125,-0.427490234375,17271.487441125,2.605437393115735,-1.052040985966208,-0.5164631184155771,0.01073580235242844,0.002908800495788455,0.008671662770211697,0.008280456066131592,0.001522988080978394,-8.040666580200195e-05,XArbitraryZVertical,0.4096107582234744,-0.3415443190327461,0.8402350822840393,0.09783358188334908,-0.7551676630973816,0.4938076734542847,-0.4311330020427704,0,0,0,-1,-1,17265.089249375,unknown,2,2025-04-21T14:49:19.766+03:00,2025-04-20T21:57:49.637+03:00,6548,0.9517458,0,0,5385.986,5,6,2025-04-21T14:49:30.084+03:00,766928970.1838291,0,-46.15,100.2854,1,0.5,2025-04-21T14:48:22.231+03:00,94,1.566666666666667,2025-04-21T12:30:07.995+03:00,0.02023345852159405,0
2025-04-21T14:49:31.680+03:00,1745236169.115369,40.9522387725225,29.14028154055504,76.38563,-1,-1,-1,-1,30,22.15875696438606,-9999,17271.507594125,-0.7541961669921875,0.4832000732421875,-0.4268951416015625,17271.497517125,2.605551779562205,-1.051969283179459,-0.5165352266059248,0.00319932377897203,0.007949898019433022,0.01359318476170301,0.005746781826019287,-0.00432276725769043,0.001680374145507812,XArbitraryZVertical,0.4095876929799996,-0.3415452351323274,0.8402524120710112,0.09777887868046294,-0.7551059126853943,0.4938703775405884,-0.4311695396900177,0,0,0,-1,-1,17265.089249375,unknown,2,2025-04-21T14:49:19.766+03:00,2025-04-20T21:57:49.637+03:00,6548,0.9517458,0,0,5385.986,5,6,2025-04-21T14:49:30.084+03:00,766928970.1838291,0,-46.15,100.2854,1,0.5,2025-04-21T14:48:22.231+03:00,94,1.566666666666667,2025-04-21T12:30:07.995+03:00,0.02023345852159405,0
2025-04-21T14:49:31.690+03:00,1745236169.115369,40.9522387725225,29.14028154055504,76.38563,-1,-1,-1,-1,30,22.15875696438606,-9999,17271.517670125,-0.7570037841796875,0.4842681884765625,-0.4307708740234375,17271.507594125,2.605623050622772,-1.051909762953322,-0.5166000233809852,0.002402172889560461,0.01146919839084148,0.01828337833285332,0.005967915058135986,-0.008178591728210449,0.004227131605148315,XArbitraryZVertical,0.4095637267071022,-0.3415527479151749,0.8402652094121269,0.09774190266448739,-0.7550523281097412,0.4939267039299011,-0.4311985373497009,0,0,0,-1,-1,17265.089249375,unknown,2,2025-04-21T14:49:19.766+03:00,2025-04-20T21:57:49.637+03:00,6548,0.9517458,0,0,5385.986,5,6,2025-04-21T14:49:30.084+03:00,766928970.1838291,0,-46.15,100.2854,1,0.5,2025-04-21T14:48:22.231+03:00,94,1.566666666666667,2025-04-21T12:30:07.995+03:00,0.02023345852159405,0
2025-04-21T14:49:31.700+03:00,1745236169.115369,40.9522387725225,29.14028154055504,76.38563,-1,-1,-1,-1,30,22.15875696438606,-9999,17271.527746125,-0.7507781982421875,0.492279052734375,-0.4350738525390625,17271.517670125,2.605752060818294,-1.051778794539873,-0.5166329250295901,0.008034226484596729,0.01230436563491821,0.0187172070145607,0.0004652142524719238,-0.01106059551239014,0.004287391901016235,XArbitraryZVertical,0.4095250602239847,-0.3415326368674168,0.840296930489244,0.09770139376053656,-0.7549817562103271,0.4939553141593933,-0.4312893748283386,0,0,0,-1,-1,17265.089249375,unknown,2,2025-04-21T14:49:19.766+03:00,2025-04-20T21:57:49.637+03:00,6548,0.9517458,0,0,5385.986,5,6,2025-04-21T14:49:30.084+03:00,766928970.1838291,0,-46.15,100.2854,1,0.5,2025-04-21T14:48:22.231+03:00,94,1.566666666666667,2025-04-21T12:30:07.995+03:00,0.02023345852159405,0
2025-04-21T14:49:31.710+03:00,1745236169.115369,40.9522387725225,29.14028154055504,76.38563,-1,-1,-1,-1,30,22.15875696438606,-9999,17271.537823125,-0.74560546875,0.4948272705078125,-0.4317779541015625,17271.527746125,2.605961451767679,-1.051593362964443,-0.5166823063757948,0.01048806216567755,0.00231351749971509,0.01759042404592037,-0.002138435840606689,-0.008952051401138306,-0.0002996623516082764,XArbitraryZVertical,0.4094743828790233,-0.3414997813741781,0.8403430443143367,0.09763209226529046,-0.7548805475234985,0.493998259305954,-0.4314172565937042,0,0,0,-1,-1,17265.089249375,unknown,2,2025-04-21T14:49:19.766+03:00,2025-04-20T21:57:49.637+03:00,6548,0.9517458,0,0,5385.986,5,6,2025-04-21T14:49:30.084+03:00,766928970.1838291,0,-46.15,100.2854,1,0.5,2025-04-21T14:48:22.231+03:00,94,1.566666666666667,2025-04-21T12:30:07.995+03:00,0.02023345852159405,0
2025-04-21T14:49:31.720+03:00,1745236169.115369,40.9522387725225,29.14028154055504,76.38563,-1,-1,-1,-1,30,22.15875696438606,-9999,17271.547899125,-0.741058349609375,0.494415283203125,-0.435699462890625,17271.537823125,2.6061745922343,-1.051436843973978,-0.5168235698075979,0.007264838553965092,-0.007059477735310793,0.01262043137103319,0.005103468894958496,-0.001277625560760498,-0.002413421869277954,XArbitraryZVertical,0.4094206460188783,-0.3415030735534105,0.8403795089812591,0.09753208901879548,-0.7547524571418762,0.4941210746765137,-0.4315007627010345,0,0,0,-1,-1,17265.089249375,unknown,2,2025-04-21T14:49:19.766+03:00,2025-04-20T21:57:49.637+03:00,6548,0.9517458,0,0,5385.986,5,6,2025-04-21T14:49:30.084+03:00,766928970.1838291,0,-46.15,100.2854,1,0.5,2025-04-21T14:48:22.231+03:00,94,1.566666666666667,2025-04-21T12:30:07.995+03:00,0.02023345852159405,0
2025-04-21T14:49:31.730+03:00,1745236169.115369,40.9522387725225,29.14028154055504,76.38563,-1,-1,-1,-1,30,22.15875696438606,-9999,17271.557975125,-0.7407989501953125,0.5022430419921875,-0.428070068359375,17271.547899125,2.606394509220399,-1.051394169134433,-0.5168865381451697,0.01892608962953091,-0.01843084394931793,0.008463270030915737,0.008765935897827148,0.0001019537448883057,-0.0003214776515960693,XArbitraryZVertical,0.409429411574441,-0.3414802965387866,0.8403962792006038,0.09743038360127493,-0.7547070384025574,0.4941758215427399,-0.4315175414085388,0,0,0,-1,-1,17265.089249375,unknown,2,2025-04-21T14:49:19.766+03:00,2025-04-20T21:57:49.637+03:00,6548,0.9517458,0,0,5385.986,5,6,2025-04-21T14:49:30.084+03:00,766928970.1838291,0,-46.15,100.2854,1,0.5,2025-04-21T14:48:22.231+03:00,94,1.566666666666667,2025-04-21T12:30:07.995+03:00,0.02023345852159405,0
2025-04-21T14:49:31.740+03:00,1745236169.115369,40.9522387725225,29.14028154055504,76.38563,-1,-1,-1,-1,30,22.15875696438606,-9999,17271.568052125,-0.753753662109375,0.491729736328125,-0.426239013671875,17271.557975125,2.606628649038917,-1.051372452514599,-0.5169096604116953,0.01505252066999674,-0.006580042652785778,0.005662956740707159,0.01379728317260742,0.0003870725631713867,-0.004278063774108887,XArbitraryZVertical,0.409456262863576,-0.3414402390569392,0.8404111780943089,0.09732965501128743,-0.7546877861022949,0.4941959083080292,-0.4315282702445984,0,0,0,-1,-1,17265.089249375,unknown,2,2025-04-21T14:49:19.766+03:00,2025-04-20T21:57:49.637+03:00,6548,0.9517458,0,0,5385.986,5,6,2025-04-21T14:49:30.084+03:00,766928970.1838291,0,-46.15,100.2854,1,0.5,2025-04-21T14:48:22.231+03:00,94,1.566666666666667,2025-04-21T12:30:07.995+03:00,0.02023345852159405,0
2025-04-21T14:49:31.750+03:00,1745236169.115369,40.9522387725225,29.14028154055504,76.38563,-1,-1,-1,-1,30,22.15875696438606,-9999,17271.578128125,-0.7584075927734375,0.4774169921875,-0.4278564453125,17271.568052125,2.606745841013126,-1.051296409041108,-0.5170142268076203,-0.003300986718386412,0.0009507779031991959,0.009767387062311172,0.01207166910171509,0.007513582706451416,0.004802167415618896,XArbitraryZVertical,0.4094262714492422,-0.3414529456759466,0.8404280648722382,0.09726593853869284,-0.7546101212501526,0.4942868053913116,-0.4315600395202637,0,0,0,-1,-1,17265.089249375,unknown,2,2025-04-21T14:49:19.766+03:00,2025-04-20T21:57:49.637+03:00,6548,0.9517458,0,0,5385.986,5,6,2025-04-21T14:49:30.084+03:00,766928970.1838291,0,-46.15,100.2854,1,0.5,2025-04-21T14:48:22.231+03:00,94,1.566666666666667,2025-04-21T12:30:07.995+03:00,0.02023345852159405,0
2025-04-21T14:49:31.760+03:00,1745236169.115369,40.9522387725225,29.14028154055504,76.38563,-1,-1,-1,-1,30,22.15875696438606,-9999,17271.588204125,-0.7542266845703125,0.478729248046875,-0.4273834228515625,17271.578128125,2.606723781144267,-1.051275839827496,-0.5171639177719271,-0.01493686996400356,0.002620313782244921,0.01624153181910515,-0.001246094703674316,-0.005006700754165649,0.004643619060516357,XArbitraryZVertical,0.4093880665093547,-0.3415142881619307,0.8404248181256012,0.09723931551318708,-0.7545369863510132,0.4944169223308563,-0.4315387904644012,0,0,0,-1,-1,17265.089249375,unknown,2,2025-04-21T14:49:19.766+03:00,2025-04-20T21:57:49.637+03:00,6548,0.9517458,0,0,5385.986,5,6,2025-04-21T14:49:30.084+03:00,766928970.1838291,0,-46.15,100.2854,1,0.5,2025-04-21T14:48:22.231+03:00,94,1.566666666666667,2025-04-21T12:30:07.995+03:00,0.02023345852159405,0
2025-04-21T14:49:31.770+03:00,1745236169.115369,40.9522387725225,29.14028154055504,76.38563,-1,-1,-1,-1,30,22.15875696438606,-9999,17271.598281125,-0.7533721923828125,0.4866180419921875,-0.43231201171875,17271.588204125,2.606658493482624,-1.0512679404631,-0.5173475884920211,-0.01496829465031624,0.004546843934804201,0.0194941833615303,-0.00344926118850708,-0.01725128293037415,0.004573941230773926,XArbitraryZVertical,0.4093419351749771,-0.3415982188070442,0.840415442152844,0.09721976938801022,-0.7544547915458679,0.4945765733718872,-0.4314996600151062,0,0,0,-1,-1,17265.089249375,unknown,2,2025-04-21T14:49:19.766+03:00,2025-04-20T21:57:49.637+03:00,6548,0.9517458,0,0,5385.986,5,6,2025-04-21T14:49:30.084+03:00,766928970.1838291,0,-46.15,100.2854,1,0.5,2025-04-21T14:48:22.231+03:00,94,1.566666666666667,2025-04-21T12:30:07.995+03:00,0.02023345852159405,0
2025-04-21T14:49:31.781+03:00,1745236169.115369,40.9522387725225,29.14028154055504,76.38563,-1,-1,-1,-1,30,22.15875696438606,-9999,17271.60835675,-0.746185302734375,0.4954376220703125,-0.43402099609375,17271.598281125,2.606634928761463,-1.051300211386597,-0.5174601652471956,-0.006240051239728928,-0.002717194147408009,0.02021563239395618,0.0001479387283325195,-0.01487720012664795,0.003255486488342285,XArbitraryZVertical,0.4093320527305226,-0.3416480971268744,0.8404029207423414,0.09719455949880579,-0.7544203996658325,0.494674414396286,-0.4314476847648621,0,0,0,-1,-1,17265.089249375,unknown,2,2025-04-21T14:49:19.766+03:00,2025-04-20T21:57:49.637+03:00,6548,0.9517458,0,0,5385.986,5,6,2025-04-21T14:49:30.084+03:00,766928970.1838291,0,-46.15,100.2854,1,0.5,2025-04-21T14:48:22.231+03:00,94,1.566666666666667,2025-04-21T12:30:07.995+03:00,0.02023345852159405,0
2025-04-21T14:49:31.791+03:00,1745236169.115369,40.9522387725225,29.14028154055504,76.38563,-1,-1,-1,-1,30,22.15875696438606,-9999,17271.61843275,-0.7414398193359375,0.5047607421875,-0.43206787109375,17271.60835675,2.606773414088301,-1.051282809127328,-0.5175087427096298,0.00669964961707592,-0.006137558724731207,0.02192481607198715,0.001904726028442383,-0.006557554006576538,-0.001809239387512207,XArbitraryZVertical,0.4093400198315186,-0.3416376726680445,0.8404111442809499,0.09712656186421467,-0.7543920278549194,0.4947166442871094,-0.43144890666008,0,0,0,-1,-1,17265.089249375,unknown,2,2025-04-21T14:49:19.766+03:00,2025-04-20T21:57:49.637+03:00,6548,0.9517458,0,0,5385.986,5,6,2025-04-21T14:49:30.084+03:00,766928970.1838291,0,-46.15,100.2854,1,0.5,2025-04-21T14:48:22.231+03:00,94,1.566666666666667,2025-04-21T12:30:07.995+03:00,0.02023345852159405,0
2025-04-21T14:49:31.801+03:00,1745236169.115369,40.9522387725225,29.14028154055504,76.38563,-1,-1,-1,-1,30,22.15875696438606,-9999,17271.62850975,-0.74530029296875,0.5032196044921875,-0.4321746826171875,17271.61843275,2.607051250052392,-1.051167132354178,-0.517616800658237,0.0141802029684186,-0.006865666713565588,0.02112799882888794,0.009331047534942627,0.002473235130310059,-0.002419888973236084,XArbitraryZVertical,0.4093202680841769,-0.3416169350622409,0.8404436200529934,0.09700106577601794,-0.7542956471443176,0.494810551404953,-0.4315095841884613,0,0,0,-1,-1,17265.089249375,unknown,2,2025-04-21T14:49:19.766+03:00,2025-04-20T21:57:49.637+03:00,6548,0.9517458,0,0,5385.986,5,6,2025-04-21T14:49:30.084+03:00,766928970.1838291,0,-46.15,100.2854,1,0.5,2025-04-21T14:48:22.231+03:00,94,1.566666666666667,2025-04-21T12:30:07.995+03:00,0.02023345852159405,0
2025-04-21T14:49:31.811+03:00,1745236169.115369,40.9522387725225,29.14028154055504,76.38563,-1,-1,-1,-1,30,22.15875696438606,-9999,17271.63858575,-0.7535400390625,0.4964752197265625,-0.4349212646484375,17271.62850975,2.607357766580691,-1.051010482789476,-0.5177575432700231,0.0212126113474369,0.0001784614287316799,0.02024625986814499,0.01300245523452759,0.01136890053749084,-0.0003069043159484863,XArbitraryZVertical,0.4092825168145673,-0.3416009893066618,0.8404845831748247,0.09686204975173776,-0.7541676163673401,0.4949328303337097,-0.4315931797027588,0,0,0,-1,-1,17265.089249375,unknown,2,2025-04-21T14:49:19.766+03:00,2025-04-20T21:57:49.637+03:00,6548,0.9517458,0,0,5385.986,5,6,2025-04-21T14:49:30.084+03:00,766928970.1838291,0,-46.15,100.2854,1,0.5,2025-04-21T14:48:22.231+03:00,94,1.566666666666667,2025-04-21T12:30:07.995+03:00,0.02023345852159405,0
2025-04-21T14:49:31.821+03:00,1745236169.115369,40.9522387725225,29.14028154055504,76.38563,-1,-1,-1,-1,30,22.15875696438606,-9999,17271.64866275,-0.7598419189453125,0.4933319091796875,-0.4388427734375,17271.63858575,2.607798680940836,-1.050672595671464,-0.5178522258182157,0.03317207098007202,0.003582247532904148,0.01990510895848274,0.007048130035400391,0.007838129997253418,-6.014108657836914e-05,XArbitraryZVertical,0.4091995072166841,-0.3415310014116122,0.8405709980999815,0.09670954445260854,-0.7539811134338379,0.4950151145458221,-0.4318246841430664,0,0,0,-1,-1,17265.089249375,unknown,2,2025-04-21T14:49:19.766+03:00,2025-04-20T21:57:49.637+03:00,6548,0.9517458,0,0,5385.986,5,6,2025-04-21T14:49:30.084+03:00,766928970.1838291,0,-46.15,100.2854,1,0.5,2025-04-21T14:48:22.231+03:00,94,1.566666666666667,2025-04-21T12:30:07.995+03:00,0.02023345852159405,0
2025-04-21T14:49:31.831+03:00,1745236169.115369,40.9522387725225,29.14028154055504,76.38563,-1,-1,-1,-1,30,22.15875696438606,-9999,17271.65873875,-0.75933837890625,0.49365234375,-0.4432525634765625,17271.64866275,2.608327529731233,-1.050391062158693,-0.5179482920792235,0.05131525546312332,0.001671029720455408,0.01211756002157927,-0.000805199146270752,0.001056045293807983,-0.003777801990509033,XArbitraryZVertical,0.4091549423062396,-0.3414463303281307,0.8406499966127089,0.0965100538974957,-0.7538182139396667,0.4950985908508301,-0.4320132732391357,0,0,0,-1,-1,17265.089249375,unknown,2,2025-04-21T14:49:19.766+03:00,2025-04-20T21:57:49.637+03:00,6548,0.9517458,0,0,5385.986,5,6,2025-04-21T14:49:30.084+03:00,766928970.1838291,0,-46.15,100.2854,1,0.5,2025-04-21T14:48:22.231+03:00,94,1.566666666666667,2025-04-21T12:30:07.995+03:00,0.02023345852159405,0
2025-04-21T14:49:31.841+03:00,1745236169.115369,40.9522387725225,29.14028154055504,76.38563,-1,-1,-1,-1,30,22.15875696438606,-9999,17271.66881475,-0.761138916015625,0.49603271484375,-0.4437713623046875,17271.65873875,2.60902998882254,-1.050056561051191,-0.5176516072916207,0.08640559762716293,0.006091877352446318,0.01123871747404337,-0.006590187549591064,-0.001066535711288452,-0.006336510181427002,XArbitraryZVertical,0.4091852431992379,-0.3411718042793774,0.8407650915854661,0.09634987881828333,-0.7538010478019714,0.4948408007621765,-0.4323384761810303,0,0,0,-1,-1,17265.089249375,unknown,2,2025-04-21T14:49:19.766+03:00,2025-04-20T21:57:49.637+03:00,6548,0.9517458,0,0,5385.986,5,6,2025-04-21T14:49:30.084+03:00,766928970.1838291,0,-46.15,100.2854,1,0.5,2025-04-21T14:48:22.231+03:00,94,1.566666666666667,2025-04-21T12:30:07.995+03:00,0.02023345852159405,0
2025-04-21T14:49:31.851+03:00,1745236169.115369,40.9522387725225,29.14028154055504,76.38563,-1,-1,-1,-1,30,22.15875696438606,-9999,17271.67889175,-0.7589111328125,0.498443603515625,-0.4412994384765625,17271.66881475,2.61006468735342,-1.049545582679754,-0.517021605498286,0.1207636371254921,0.003118257969617844,0.006594330538064241,-0.005579710006713867,-0.0007783770561218262,-0.009809255599975586,XArbitraryZVertical,0.4092550344053834,-0.3406918615207595,0.8409465916664867,0.09616752754204436,-0.7538502216339111,0.4942932426929474,-0.4328787326812744,0,0,0,-1,-1,17265.089249375,unknown,2,2025-04-21T14:49:19.766+03:00,2025-04-20T21:57:49.637+03:00,6548,0.9517458,0,0,5385.986,5,6,2025-04-21T14:49:30.084+03:00,766928970.1838291,0,-46.15,100.2854,1,0.5,2025-04-21T14:48:22.231+03:00,94,1.566666666666667,2025-04-21T12:30:07.995+03:00,0.02023345852159405,0
2025-04-21T14:49:31.861+03:00,1745236169.115369,40.9522387725225,29.14028154055504,76.38563,-1,-1,-1,-1,30,22.15875696438606,-9999,17271.68896775,-0.7578582763671875,0.494659423828125,-0.44476318359375,17271.67889175,2.611551478408647,-1.048831131455876,-0.5162179152921302,0.1631220132112503,0.0007541696541011333,0.01133635547012091,-0.006735265254974365,0.002804338932037354,-0.00991213321685791,XArbitraryZVertical,0.4093454357896568,-0.3400422761660084,0.8411988425229743,0.09587490793884013,-0.7538848519325256,0.4935944378376007,-0.433615118265152,0,0,0,-1,-1,17265.089249375,unknown,2,2025-04-21T14:49:19.766+03:00,2025-04-20T21:57:49.637+03:00,6548,0.9517458,0,0,5385.986,5,6,2025-04-21T14:49:30.084+03:00,766928970.1838291,0,-46.15,100.2854,1,0.5,2025-04-21T14:48:22.231+03:00,94,1.566666666666667,2025-04-21T12:30:07.995+03:00,0.02023345852159405,0
2025-04-21T14:49:31.871+03:00,1745236169.115369,40.9522387725225,29.14028154055504,76.38563,-1,-1,-1,-1,30,22.15875696438606,-9999,17271.69904375,-0.7599029541015625,0.4779815673828125,-0.449676513671875,17271.68896775,2.613380984844373,-1.047886752016621,-0.515366867525103,0.1925020664930344,0.007374588865786791,0.005598874296993017,-0.004645168781280518,0.005619853734970093,-0.006701916456222534,XArbitraryZVertical,0.4094044452874559,-0.339293008105558,0.8415164950692371,0.09548898264838916,-0.7538386583328247,0.4928540885448456,-0.4345365166664124,0,0,0,-1,-1,17265.089249375,unknown,2,2025-04-21T14:49:19.766+03:00,2025-04-20T21:57:49.637+03:00,6548,0.9517458,0,0,5385.986,5,6,2025-04-21T14:49:30.084+03:00,766928970.1838291,0,-46.15,100.2854,1,0.5,2025-04-21T14:48:22.231+03:00,94,1.566666666666667,2025-04-21T12:30:07.995+03:00,0.02023345852159405,0
2025-04-21T14:49:31.881+03:00,1745236169.115369,40.9522387725225,29.14028154055504,76.38563,-1,-1,-1,-1,30,22.15875696438606,-9999,17271.70912075,-0.75665283203125,0.46636962890625,-0.46087646484375,17271.69904375,2.615267672949056,-1.046814857833708,-0.5145324021291662,0.1708303391933441,0.01372329890727997,-0.01095906272530556,-0.004847168922424316,0.00105130672454834,-0.00994575023651123,XArbitraryZVertical,0.4094154035061798,-0.338532231345097,0.8418620526824376,0.09509538418765852,-0.7537282705307007,0.4921278357505798,-0.4355499148368835,0,0,0,-1,-1,17265.089249375,unknown,2,2025-04-21T14:49:19.766+03:00,2025-04-20T21:57:49.637+03:00,6548,0.9517458,0,0,5385.986,5,6,2025-04-21T14:49:30.084+03:00,766928970.1838291,0,-46.15,100.2854,1,0.5,2025-04-21T14:48:22.231+03:00,94,1.566666666666667,2025-04-21T12:30:07.995+03:00,0.02023345852159405,0
2025-04-21T14:49:31.891+03:00,1745236169.115369,40.9522387725225,29.14028154055504,76.38563,-1,-1,-1,-1,30,22.15875696438606,-9999,17271.71919675,-0.753082275390625,0.46539306640625,-0.4586181640625,17271.70912075,2.616015290507645,-1.04619255433926,-0.5141915213580267,-0.01482874620705843,0.03141574189066887,-0.03089402243494987,-0.006544828414916992,-0.01600116491317749,-0.01409247517585754,XArbitraryZVertical,0.4093379667580725,-0.3382173912938299,0.8420397597495332,0.09497519539574685,-0.7536022067070007,0.4918310642242432,-0.4361028373241425,0,0,0,-1,-1,17265.089249375,unknown,2,2025-04-21T14:49:19.766+03:00,2025-04-20T21:57:49.637+03:00,6548,0.9517458,0,0,5385.986,5,6,2025-04-21T14:49:30.084+03:00,766928970.1838291,0,-46.15,100.2854,1,0.5,2025-04-21T14:48:22.231+03:00,94,1.566666666666667,2025-04-21T12:30:07.995+03:00,0.02023345852159405,0
2025-04-21T14:49:31.901+03:00,1745236169.115369,40.9522387725225,29.14028154055504,76.38563,-1,-1,-1,-1,30,22.15875696438606,-9999,17271.72927275,-0.7593231201171875,0.4395599365234375,-0.458740234375,17271.71919675,2.614443015443902,-1.046537828870454,-0.5147794853550071,-0.2566403150558472,0.05300252884626389,-0.03367835655808449,-0.003074169158935547,-0.02543938159942627,-0.02539229393005371,XArbitraryZVertical,0.4091170255083867,-0.3387836142714646,0.8418687641447825,0.0954247265188044,-0.753502368927002,0.4923429191112518,-0.4356978535652161,0,0,0,-1,-1,17265.089249375,unknown,2,2025-04-21T14:49:19.766+03:00,2025-04-20T21:57:49.637+03:00,6548,0.9517458,0,0,5385.986,5,6,2025-04-21T14:49:30.084+03:00,766928970.1838291,0,-46.15,100.2854,1,0.5,2025-04-21T14:48:22.231+03:00,94,1.566666666666667,2025-04-21T12:30:07.995+03:00,0.02023345852159405,0
2025-04-21T14:49:31.912+03:00,1745236169.115369,40.9522387725225,29.14028154055504,76.38563,-1,-1,-1,-1,30,22.15875696438606,-9999,17271.73934975,-0.7694854736328125,0.4560089111328125,-0.4796142578125,17271.72927275,2.611021770235144,-1.047672449806261,-0.5162502634518822,-0.3601114451885223,0.05947787314653397,-0.01072743535041809,1.120567321777344e-05,-0.02983182668685913,-0.02355796098709106,XArbitraryZVertical,0.4087624101167868,-0.3401074779171137,0.8414090119843486,0.09628629369591742,-0.7533681392669678,0.4936225712299347,-0.4344803988933563,0,0,0,-1,-1,17265.089249375,unknown,2,2025-04-21T14:49:19.766+03:00,2025-04-20T21:57:49.637+03:00,6548,0.9517458,0,0,5385.986,5,6,2025-04-21T14:49:30.084+03:00,766928970.1838291,0,-46.15,100.2854,1,0.5,2025-04-21T14:48:22.231+03:00,94,1.566666666666667,2025-04-21T12:30:07.995+03:00,0.02023345852159405,0
2025-04-21T14:49:31.922+03:00,1745236169.115369,40.9522387725225,29.14028154055504,76.38563,-1,-1,-1,-1,30,22.15875696438606,-9999,17271.74942575,-0.7740020751953125,0.5024871826171875,-0.5068817138671875,17271.73934975,2.607681859209597,-1.048671678622421,-0.5178965680080521,-0.3074697852134705,0.06691927462816238,0.01003909576684237,-0.008134007453918457,-0.05746224522590637,-0.02697515487670898,XArbitraryZVertical,0.4083307748251376,-0.3414750735876425,0.8409723604010382,0.09708863602123516,-0.7530964612960815,0.4950536489486694,-0.4333215057849884,0,0,0,-1,-1,17265.089249375,unknown,2,2025-04-21T14:49:19.766+03:00,2025-04-20T21:57:49.637+03:00,6548,0.9517458,0,0,5385.986,5,6,2025-04-21T14:49:30.084+03:00,766928970.1838291,0,-46.15,100.2854,1,0.5,2025-04-21T14:48:22.231+03:00,94,1.566666666666667,2025-04-21T12:30:07.995+03:00,0.02023345852159405,0
2025-04-21T14:49:31.932+03:00,1745236169.115369,40.9522387725225,29.14028154055504,76.38563,-1,-1,-1,-1,30,22.15875696438606,-9999,17271.75950175,-0.7692718505859375,0.524383544921875,-0.513946533203125,17271.74942575,2.605274976885921,-1.049187192546165,-0.5191303440605791,-0.1795363277196884,0.05740326642990112,0.005580165423452854,-0.01849639415740967,-0.03392145037651062,-0.05141082406044006,XArbitraryZVertical,0.4079231562040662,-0.3424681590325799,0.8406968242660727,0.0976881800780425,-0.7527895569801331,0.4961252510547638,-0.4326285123825073,0,0,0,-1,-1,17265.089249375,unknown,2,2025-04-21T14:49:19.766+03:00,2025-04-20T21:57:49.637+03:00,6548,0.9517458,0,0,5385.986,5,6,2025-04-21T14:49:30.084+03:00,766928970.1838291,0,-46.15,100.2854,1,0.5,2025-04-21T14:48:22.231+03:00,94,1.566666666666667,2025-04-21T12:30:07.995+03:00,0.02023345852159405,0
2025-04-21T14:49:31.942+03:00,1745236169.115369,40.9522387725225,29.14028154055504,76.38563,-1,-1,-1,-1,30,22.15875696438606,-9999,17271.76957875,-0.7495574951171875,0.546417236328125,-0.530242919921875,17271.75950175,2.6043651448622,-1.049120867960633,-0.5194973378818738,-0.003767172805964947,0.02840357460081577,-0.01261961087584496,-0.02130752801895142,0.009216994047164917,-0.07610988616943359,XArbitraryZVertical,0.4076759471917027,-0.342792176443771,0.8406500951686523,0.09798554070880348,-0.7526029944419861,0.4964438676834106,-0.4325876832008362,0,0,0,-1,-1,17265.089249375,unknown,2,2025-04-21T14:49:19.766+03:00,2025-04-20T21:57:49.637+03:00,6548,0.9517458,0,0,5385.986,5,6,2025-04-21T14:49:30.084+03:00,766928970.1838291,0,-46.15,100.2854,1,0.5,2025-04-21T14:48:22.231+03:00,94,1.566666666666667,2025-04-21T12:30:07.995+03:00,0.02023345852159405,0
2025-04-21T14:49:31.952+03:00,1745236169.115369,40.9522387725225,29.14028154055504,76.38563,-1,-1,-1,-1,30,22.15875696438606,-9999,17271.77965475,-0.73785400390625,0.568603515625,-0.5303497314453125,17271.76957875,2.604918891602714,-1.048701543754384,-0.5188563944536421,0.1294117271900177,-0.01024468615651131,-0.04377776384353638,-0.0139196515083313,0.03078481554985046,-0.08251741528511047,XArbitraryZVertical,0.40770539357237,-0.3424111764568887,0.8407901491222778,0.09799296155222381,-0.7526971101760864,0.4958873689174652,-0.433061808347702,0,0,0,-1,-1,17265.089249375,unknown,2,2025-04-21T14:49:19.766+03:00,2025-04-20T21:57:49.637+03:00,6548,0.9517458,0,0,5385.986,5,6,2025-04-21T14:49:30.084+03:00,766928970.1838291,0,-46.15,100.2854,1,0.5,2025-04-21T14:48:22.231+03:00,94,1.566666666666667,2025-04-21T12:30:07.995+03:00,0.02023345852159405,0
2025-04-21T14:49:31.962+03:00,1745236169.115369,40.9522387725225,29.14028154055504,76.38563,-1,-1,-1,-1,30,22.15875696438606,-9999,17271.78973075,-0.7438507080078125,0.5574188232421875,-0.5284423828125,17271.77965475,2.606095615927482,-1.048443742940987,-0.5177974398090862,0.1281475275754929,-0.05952781066298485,-0.02819321118295193,0.00545114278793335,0.05538633465766907,-0.09757977724075317,XArbitraryZVertical,0.4079810586711266,-0.341749361081169,0.8409458945324619,0.09782063708932622,-0.7530402541160583,0.494967520236969,-0.4335176646709442,0,0,0,-1,-1,17265.089249375,unknown,2,2025-04-21T14:49:19.766+03:00,2025-04-20T21:57:49.637+03:00,6548,0.9517458,0,0,5385.986,5,6,2025-04-21T14:49:30.084+03:00,766928970.1838291,0,-46.15,100.2854,1,0.5,2025-04-21T14:48:22.231+03:00,94,1.566666666666667,2025-04-21T12:30:07.995+03:00,0.02023345852159405,0
2025-04-21T14:49:31.972+03:00,1745236169.115369,40.9522387725225,29.14028154055504,76.38563,-1,-1,-1,-1,30,22.15875696438606,-9999,17271.79980775,-0.7653656005859375,0.5240325927734375,-0.5451812744140625,17271.78973075,2.606731623676529,-1.048896230561725,-0.5172731582953578,-0.02885241992771626,-0.08808828890323639,0.01395600754767656,0.01568347215652466,0.07519009709358215,-0.09611284732818604,XArbitraryZVertical,0.4083703509827199,-0.3414389832477299,0.8409070214462309,0.0976135861676989,-0.7534611821174622,0.4945119023323059,-0.4333061575889587,0,0,0,-1,-1,17265.089249375,unknown,2,2025-04-21T14:49:19.766+03:00,2025-04-20T21:57:49.637+03:00,6548,0.9517458,0,0,5385.986,5,6,2025-04-21T14:49:30.084+03:00,766928970.1838291,0,-46.15,100.2854,1,0.5,2025-04-21T14:48:22.231+03:00,94,1.566666666666667,2025-04-21T12:30:07.995+03:00,0.02023345852159405,0
2025-04-21T14:49:31.982+03:00,1745236169.115369,40.9522387725225,29.14028154055504,76.38563,-1,-1,-1,-1,30,22.15875696438606,-9999,17271.80988375,-0.7928619384765625,0.470458984375,-0.5634765625,17271.79980775,2.605016868334971,-1.050570351768874,-0.5184953385652638,-0.3942162990570068,-0.09715715050697327,0.071510910987854,0.00797879695892334,0.05833536386489868,-0.09793496131896973,XArbitraryZVertical,0.4085699871398201,-0.3423431731987907,0.840429164021649,0.09772691878842323,-0.7536605596542358,0.4955737888813019,-0.4317434430122375,0,0,0,-1,-1,17265.089249375,unknown,2,2025-04-21T14:49:19.766+03:00,2025-04-20T21:57:49.637+03:00,6548,0.9517458,0,0,5385.986,5,6,2025-04-21T14:49:30.084+03:00,766928970.1838291,0,-46.15,100.2854,1,0.5,2025-04-21T14:48:22.231+03:00,94,1.566666666666667,2025-04-21T12:30:07.995+03:00,0.02023345852159405,0
2025-04-21T14:49:31.992+03:00,1745236169.115369,40.9522387725225,29.14028154055504,76.38563,-1,-1,-1,-1,30,22.15875696438606,-9999,17271.81996075,-0.7985687255859375,0.4069671630859375,-0.6065826416015625,17271.80988375,2.599525083868139,-1.054170885466172,-0.5224658813479197,-0.8353899717330933,-0.09211525321006775,0.1544702351093292,-0.01548868417739868,0.02006998658180237,-0.1187928020954132,XArbitraryZVertical,0.4084488168261088,-0.3451720236323217,0.8392552949680391,0.0983676896091991,-0.7534931898117065,0.4990185499191284,-0.4280516803264618,0,0,0,-1,-1,17265.089249375,unknown,2,2025-04-21T14:49:19.766+03:00,2025-04-20T21:57:49.637+03:00,6548,0.9517458,0,0,5385.986,5,6,2025-04-21T14:49:30.084+03:00,766928970.1838291,0,-46.15,100.2854,1,0.5,2025-04-21T14:48:22.231+03:00,94,1.566666666666667,2025-04-21T12:30:07.995+03:00,0.02023345852159405,0
2025-04-21T14:49:32.002+03:00,1745236169.115369,40.9522387725225,29.14028154055504,76.38563,-1,-1,-1,-1,30,22.15875696438606,-9999,17271.83003675,-0.7761688232421875,0.405975341796875,-0.666015625,17271.81996075,2.590726253723417,-1.059817105082343,-0.5285684666057984,-1.056513071060181,-0.2208218276500702,0.2018827646970749,-0.04206037521362305,-0.04198700189590454,-0.1447080373764038,XArbitraryZVertical,0.4082157453316079,-0.3495900299152383,0.8374093860283551,0.099459978030753,-0.7532278299331665,0.50429767370224,-0.4222934246063232,0,0,0,-1,-1,17265.089249375,unknown,2,2025-04-21T14:49:19.766+03:00,2025-04-20T21:57:49.637+03:00,6548,0.9517458,0,0,5385.986,5,6,2025-04-21T14:49:30.084+03:00,766928970.1838291,0,-46.15,100.2854,1,0.5,2025-04-21T14:48:22.231+03:00,94,1.566666666666667,2025-04-21T12:30:07.995+03:00,0.02023345852159405,0
2025-04-21T14:49:32.012+03:00,1745236169.115369,40.9522387725225,29.14028154055504,76.38563,-1,-1,-1,-1,30,22.15875696438606,-9999,17271.84011275,-0.7686920166015625,0.4518280029296875,-0.679595947265625,17271.83003675,2.580112391005133,-1.068159686995387,-0.536436492024735,-1.285131096839905,-0.3486786484718323,0.2798349261283875,-0.04346787929534912,-0.1085953712463379,-0.1993632912635803,XArbitraryZVertical,0.4084306639218723,-0.3551747598859122,0.8348465672728363,0.1003310762228906,-0.7532240152359009,0.5110762715339661,-0.4140705764293671,0,0,0,-1,-1,17265.089249375,unknown,2,2025-04-21T14:49:19.766+03:00,2025-04-20T21:57:49.637+03:00,6548,0.9517458,0,0,5385.986,5,6,2025-04-21T14:49:30.084+03:00,766928970.1838291,0,-46.15,100.2854,1,0.5,2025-04-21T14:48:22.231+03:00,94,1.566666666666667,2025-04-21T12:30:07.995+03:00,0.02023345852159405,0
2025-04-21T14:49:32.022+03:00,1745236169.115369,40.9522387725225,29.14028154055504,76.38563,-1,-1,-1,-1,30,22.15875696438606,-9999,17271.85018975,-0.7668304443359375,0.4663543701171875,-0.70587158203125,17271.84011275,2.567513205539352,-1.078629732971296,-0.5456637045030247,-1.467242002487183,-0.4126605689525604,0.328176349401474,-0.01966530084609985,-0.1083106398582458,-0.2664788961410522,XArbitraryZVertical,0.4088593019272806,-0.3617679322029712,0.8316918912343327,0.1012247770071521,-0.7533296942710876,0.5189855098724365,-0.40391606092453,0,0,0,-1,-1,17265.089249375,unknown,2,2025-04-21T14:49:19.766+03:00,2025-04-20T21:57:49.637+03:00,6548,0.9517458,0,0,5385.986,5,6,2025-04-21T14:49:30.084+03:00,766928970.1838291,0,-46.15,100.2854,1,0.5,2025-04-21T14:48:22.231+03:00,94,1.566666666666667,2025-04-21T12:30:07.995+03:00,0.02023345852159405,0
2025-04-21T14:49:32.032+03:00,1745236169.115369,40.9522387725225,29.14028154055504,76.38563,-1,-1,-1,-1,30,22.15875696438606,-9999,17271.86026575,-0.738372802734375,0.535369873046875,-0.692108154296875,17271.85018975,2.554003992546947,-1.090587238260575,-0.5557528421088962,-1.451715350151062,-0.556177020072937,0.3688079118728638,-0.01645898818969727,-0.07261180877685547,-0.2894137501716614,XArbitraryZVertical,0.4094845145166858,-0.3689202536088256,0.8281513939998849,0.1019094129186671,-0.7534232139587402,0.5275830030441284,-0.3924405574798584,0,0,0,-1,-1,17265.089249375,unknown,2,2025-04-21T14:49:19.766+03:00,2025-04-20T21:57:49.637+03:00,6548,0.9517458,0,0,5385.986,5,6,2025-04-21T14:49:30.084+03:00,766928970.1838291,0,-46.15,100.2854,1,0.5,2025-04-21T14:48:22.231+03:00,94,1.566666666666667,2025-04-21T12:30:07.995+03:00,0.02023345852159405,0
2025-04-21T14:49:32.042+03:00,1745236169.115369,40.9522387725225,29.14028154055504,76.38563,-1,-1,-1,-1,30,22.15875696438606,-9999,17271.87034175,-0.7367401123046875,0.608795166015625,-0.6704864501953125,17271.86026575,2.542010057319759,-1.103366160823309,-0.5651994764609427,-1.183098077774048,-0.7089817523956299,0.3689700961112976,-0.01044970750808716,-0.06449985504150391,-0.3270472884178162,XArbitraryZVertical,0.4107480721542901,-0.3755355848273671,0.8245459020314463,0.101897464461658,-0.7538935542106628,0.5355842709541321,-0.3805180788040161,0,0,0,-1,-1,17265.089249375,unknown,2,2025-04-21T14:49:19.766+03:00,2025-04-20T21:57:49.637+03:00,6548,0.9517458,0,0,5385.986,5,6,2025-04-21T14:49:30.084+03:00,766928970.1838291,0,-46.15,100.2854,1,0.5,2025-04-21T14:48:22.231+03:00,94,1.566666666666667,2025-04-21T12:30:07.995+03:00,0.02023345852159405,0
2025-04-21T14:49:32.053+03:00,1745236169.115369,40.9522387725225,29.14028154055504,76.38563,-1,-1,-1,-1,30,22.15875696438606,-9999,17271.88041875,-0.7767181396484375,0.634765625,-0.6333465576171875,17271.87034175,2.53304496366783,-1.115753233301239,-0.5730676456190764,-0.8543131351470947,-0.7828497886657715,0.3678078055381775,0.01934295892715454,0.004784822463989258,-0.319555789232254,XArbitraryZVertical,0.412639119138032,-0.3809008079816129,0.8212364759119408,0.1010654481554521,-0.7547404170036316,0.542212188243866,-0.3692870736122131,0,0,0,-1,-1,17265.089249375,unknown,2,2025-04-21T14:49:19.766+03:00,2025-04-20T21:57:49.637+03:00,6548,0.9517458,0,0,5385.986,5,6,2025-04-21T14:49:30.084+03:00,766928970.1838291,0,-46.15,100.2854,1,0.5,2025-04-21T14:48:22.231+03:00,94,1.566666666666667,2025-04-21T12:30:07.995+03:00,0.02023345852159405,0
2025-04-21T14:49:32.063+03:00,1745236169.115369,40.9522387725225,29.14028154055504,76.38563,-1,-1,-1,-1,30,22.15875696438606,-9999,17271.89049475,-0.7931976318359375,0.6251983642578125,-0.5920867919921875,17271.88041875,2.527319511148974,-1.126914194501377,-0.5796908858784625,-0.5836595296859741,-0.8123400807380676,0.4018776118755341,0.01452720165252686,0.06688898801803589,-0.3078391253948212,XArbitraryZVertical,0.4148311825166978,-0.3850582961443209,0.8183884684793458,0.09942501165979191,-0.7555549740791321,0.5477653741836548,-0.3592903912067413,0,0,0,-1,-1,17265.089249375,unknown,2,2025-04-21T14:49:19.766+03:00,2025-04-20T21:57:49.637+03:00,6548,0.9517458,0,0,5385.986,5,6,2025-04-21T14:49:30.084+03:00,766928970.1838291,0,-46.15,100.2854,1,0.5,2025-04-21T14:48:22.231+03:00,94,1.566666666666667,2025-04-21T12:30:07.995+03:00,0.02023345852159405,0
2025-04-21T14:49:32.073+03:00,1745236169.115369,40.9522387725225,29.14028154055504,76.38563,-1,-1,-1,-1,30,22.15875696438606,-9999,17271.90057075,-0.793243408203125,0.6229095458984375,-0.5637359619140625,17271.89049475,2.524087995975815,-1.136985503747356,-0.585334932232013,-0.3843177556991577,-0.8282483220100403,0.3800948858261108,-0.0244438648223877,0.08262252807617188,-0.2773888409137726,XArbitraryZVertical,0.4172156602532865,-0.3882682060259827,0.8159221994709539,0.09720956883478715,-0.7563177943229675,0.5524786114692688,-0.3503578007221222,0,0,0,-1,-1,17265.089249375,unknown,2,2025-04-21T14:49:19.766+03:00,2025-04-20T21:57:49.637+03:00,6548,0.9517458,0,0,5385.986,5,6,2025-04-21T14:49:30.084+03:00,766928970.1838291,0,-46.15,100.2854,1,0.5,2025-04-21T14:48:22.231+03:00,94,1.566666666666667,2025-04-21T12:30:07.995+03:00,0.02023345852159405,0
2025-04-21T14:49:32.083+03:00,1745236169.115369,40.9522387725225,29.14028154055504,76.38563,-1,-1,-1,-1,30,22.15875696438606,-9999,17271.91064775,-0.790435791015625,0.653228759765625,-0.541473388671875,17271.90057075,2.522894828453,-1.145946197947422,-0.5897583504611121,-0.1577325761318207,-0.8140499591827393,0.3310053646564484,-0.03652346134185791,0.06742054224014282,-0.2454872131347656,XArbitraryZVertical,0.419762796420347,-0.390539583082597,0.8138245316842794,0.09469774007144975,-0.7571929693222046,0.5561602115631104,-0.3425560593605042,0,0,0,-1,-1,17265.089249375,unknown,2,2025-04-21T14:49:19.766+03:00,2025-04-20T21:57:49.637+03:00,6548,0.9517458,0,0,5385.986,5,6,2025-04-21T14:49:30.084+03:00,766928970.1838291,0,-46.15,100.2854,1,0.5,2025-04-21T14:48:22.231+03:00,94,1.566666666666667,2025-04-21T12:30:07.995+03:00,0.02023345852159405,0
2025-04-21T14:49:32.093+03:00,1745236169.115369,40.9522387725225,29.14028154055504,76.38563,-1,-1,-1,-1,30,22.15875696438606,-9999,17271.92072375,-0.7735748291015625,0.6656036376953125,-0.5166015625,17271.91064775,2.524010503039257,-1.153408756351857,-0.5927182146511857,0.08285254240036011,-0.795823335647583,0.2823280692100525,-0.03494715690612793,0.06679427623748779,-0.224472314119339,XArbitraryZVertical,0.4224298097311744,-0.391713480437634,0.8121948184392243,0.09194152092026869,-0.7582200765609741,0.5586176514625549,-0.3362272083759308,0,0,0,-1,-1,17265.089249375,unknown,2,2025-04-21T14:49:19.766+03:00,2025-04-20T21:57:49.637+03:00,6548,0.9517458,0,0,5385.986,5,6,2025-04-21T14:49:30.084+03:00,766928970.1838291,0,-46.15,100.2854,1,0.5,2025-04-21T14:48:22.231+03:00,94,1.566666666666667,2025-04-21T12:30:07.995+03:00,0.02023345852159405,0
2025-04-21T14:49:32.103+03:00,1745236169.115369,40.9522387725225,29.14028154055504,76.38563,-1,-1,-1,-1,30,22.15875696438606,-9999,17271.93080075,-0.761627197265625,0.6388397216796875,-0.453857421875,17271.92072375,2.527136456810436,-1.159726892702863,-0.5945170024118364,0.2419638931751251,-0.8119261860847473,0.2536463737487793,-0.02994561195373535,0.09650731086730957,-0.2082788050174713,XArbitraryZVertical,0.4252507401599875,-0.3919794329422235,0.8109296868778626,0.08892027113373187,-0.7594067454338074,0.5601087212562561,-0.3310278654098511,0,0,0,-1,-1,17265.089249375,unknown,2,2025-04-21T14:49:19.766+03:00,2025-04-20T21:57:49.637+03:00,6548,0.9517458,0,0,5385.986,5,6,2025-04-21T14:49:30.084+03:00,766928970.1838291,0,-46.15,100.2854,1,0.5,2025-04-21T14:48:22.231+03:00,94,1.566666666666667,2025-04-21T12:30:07.995+03:00,0.02023345852159405,0
2025-04-21T14:49:32.113+03:00,1745236169.115369,40.9522387725225,29.14028154055504,76.38563,-1,-1,-1,-1,30,22.15875696438606,-9999,17271.94087675,-0.7886810302734375,0.5989227294921875,-0.37786865234375,17271.93080075,2.531475907157123,-1.165595020414942,-0.5956475872860669,0.314915269613266,-0.8237330913543701,0.2350243031978607,-0.0107610821723938,0.103459894657135,-0.1850975751876831,XArbitraryZVertical,0.428255714505846,-0.3917129013657402,0.8098244428956185,0.08568762352856391,-0.7607538104057312,0.5610449314117432,-0.3263160884380341,0,0,0,-1,-1,17265.089249375,unknown,2,2025-04-21T14:49:19.766+03:00,2025-04-20T21:57:49.637+03:00,6548,0.9517458,0,0,5385.986,5,6,2025-04-21T14:49:30.084+03:00,766928970.1838291,0,-46.15,100.2854,1,0.5,2025-04-21T14:48:22.231+03:00,94,1.566666666666667,2025-04-21T12:30:07.995+03:00,0.02023345852159405,0
2025-04-21T14:49:32.123+03:00,1745236169.115369,40.9522387725225,29.14028154055504,76.38563,-1,-1,-1,-1,30,22.15875696438606,-9999,17271.95095275,-0.840301513671875,0.5503387451171875,-0.3372344970703125,17271.94087675,2.53629224613073,-1.17089992148802,-0.59625936010292,0.3685308396816254,-0.755006730556488,0.184041291475296,0.0003170967102050781,0.07327526807785034,-0.1214004158973694,XArbitraryZVertical,0.4312248049977805,-0.3911190364850298,0.8088639357672026,0.08252414826655168,-0.7621579170227051,0.5615512728691101,-0.3221421241760254,0,0,0,-1,-1,17265.089249375,unknown,2,2025-04-21T14:49:19.766+03:00,2025-04-20T21:57:49.637+03:00,6548,0.9517458,0,0,5385.986,5,6,2025-04-21T14:49:30.084+03:00,766928970.1838291,0,-46.15,100.2854,1,0.5,2025-04-21T14:48:22.231+03:00,94,1.566666666666667,2025-04-21T12:30:07.995+03:00,0.02023345852159405,0
2025-04-21T14:49:32.147+03:00,1745236169.115369,40.9522387725225,29.14028154055504,76.38563,-1,-1,-1,-1,30,22.15875696438606,-9999,17271.96102975,-0.8589935302734375,0.5117950439453125,-0.3043670654296875,17271.95095275,2.54160513840596,-1.175005235669457,-0.5963474662084093,0.4357536137104034,-0.649742066860199,0.1807724237442017,-0.03155457973480225,0.03250718116760254,-0.05167514085769653,XArbitraryZVertical,0.4339049166291756,-0.3901676559055551,0.8081879061426579,0.07954901139094876,-0.7634283304214478,0.5616241693496704,-0.3189914524555206,0,0,0,-1,-1,17265.089249375,unknown,2,2025-04-21T14:49:19.766+03:00,2025-04-20T21:57:49.637+03:00,6548,0.9517458,0,0,5385.986,5,6,2025-04-21T14:49:30.084+03:00,766928970.1838291,0,-46.15,100.2854,1,0.5,2025-04-21T14:48:22.231+03:00,94,1.566666666666667,2025-04-21T12:30:07.995+03:00,0.02023345852159405,0
2025-04-21T14:49:32.149+03:00,1745236169.115369,40.9522387725225,29.14028154055504,76.38563,-1,-1,-1,-1,30,22.15875696438606,-9999,17271.97110575,-0.8301239013671875,0.4902801513671875,-0.2791595458984375,17271.96102975,2.547896659539881,-1.177484996769212,-0.5963133267775197,0.5125131011009216,-0.5506964325904846,0.2161519825458527,-0.08093440532684326,-0.01675045490264893,-0.01639145612716675,XArbitraryZVertical,0.4361388036787132,-0.3888837841482037,0.8078953478865937,0.07653400615306645,-0.7642346620559692,0.5615959167480469,-0.317104697227478,0,0,0,-1,-1,17265.089249375,unknown,2,2025-04-21T14:49:19.766+03:00,2025-04-20T21:57:49.637+03:00,6548,0.9517458,0,0,5385.986,5,6,2025-04-21T14:49:30.084+03:00,766928970.1838291,0,-46.15,100.2854,1,0.5,2025-04-21T14:48:22.231+03:00,94,1.566666666666667,2025-04-21T12:30:07.995+03:00,0.02023345852159405,0
2025-04-21T14:49:32.153+03:00,1745236169.115369,40.9522387725225,29.14028154055504,76.38563,-1,-1,-1,-1,30,22.15875696438606,-9999,17271.98118175,-0.7788238525390625,0.522003173828125,-0.24273681640625,17271.97110575,2.554773172313694,-1.178891573768395,-0.596647906070247,0.5013513565063477,-0.5074527263641357,0.2808593809604645,-0.09254950284957886,-0.05355679988861084,0.01561880111694336,XArbitraryZVertical,0.4379769883058351,-0.3875530373669555,0.8078323632811706,0.07338635373540142,-0.7645061612129211,0.5618727207183838,-0.3159576058387756,0,0,0,-1,-1,17265.089249375,unknown,2,2025-04-21T14:49:19.766+03:00,2025-04-20T21:57:49.637+03:00,6548,0.9517458,0,0,5385.986,5,6,2025-04-21T14:49:30.084+03:00,766928970.1838291,0,-46.15,100.2854,1,0.5,2025-04-21T14:48:22.231+03:00,94,1.566666666666667,2025-04-21T12:30:07.995+03:00,0.02023345852159405,0
2025-04-21T14:49:32.164+03:00,1745236169.115369,40.9522387725225,29.14028154055504,76.38563,-1,-1,-1,-1,30,22.15875696438606,-9999,17271.99125875,-0.7402191162109375,0.5913543701171875,-0.1967010498046875,17271.98118175,2.562070442697348,-1.179991225054586,-0.5975796954751355,0.5459055304527283,-0.5274975299835205,0.3475047051906586,-0.05919378995895386,-0.07259213924407959,0.03906875848770142,XArbitraryZVertical,0.4396535548070301,-0.3863239146141023,0.8078147416540274,0.06995627337070666,-0.7643688321113586,0.5626432299613953,-0.3149171769618988,0,0,0,-1,-1,17265.089249375,unknown,2,2025-04-21T14:49:19.766+03:00,2025-04-20T21:57:49.637+03:00,6548,0.9517458,0,0,5385.986,5,6,2025-04-21T14:49:30.084+03:00,766928970.1838291,0,-46.15,100.2854,1,0.5,2025-04-21T14:48:22.231+03:00,94,1.566666666666667,2025-04-21T12:30:07.995+03:00,0.02023345852159405,0
2025-04-21T14:49:32.173+03:00,1745236169.115369,40.9522387725225,29.14028154055504,76.38563,-1,-1,-1,-1,30,22.15875696438606,-9999,17272.00133475,-0.735321044921875,0.62078857421875,-0.1866912841796875,17271.99125875,2.57062514938286,-1.180577104746612,-0.5988002164188454,0.6670364141464233,-0.538358747959137,0.4136469960212708,-0.008284032344818115,-0.03299707174301147,0.07820010185241699,XArbitraryZVertical,0.4413061973859569,-0.3848959863080527,0.8079253560897909,0.06603420801608456,-0.7639175653457642,0.5636518597602844,-0.3142078518867493,0,0,0,-1,-1,17265.089249375,unknown,2,2025-04-21T14:49:19.766+03:00,2025-04-20T21:57:49.637+03:00,6548,0.9517458,0,0,5385.986,5,6,2025-04-21T14:49:30.084+03:00,766928970.1838291,0,-46.15,100.2854,1,0.5,2025-04-21T14:48:22.231+03:00,94,1.566666666666667,2025-04-21T12:30:07.995+03:00,0.02023345852159405,0
2025-04-21T14:49:32.184+03:00,1745236169.115369,40.9522387725225,29.14028154055504,76.38563,-1,-1,-1,-1,30,22.15875696438606,-9999,17272.01141075,-0.73809814453125,0.5802459716796875,-0.223907470703125,17272.00133475,2.580885524149872,-1.180180621457157,-0.6001747423308642,0.7758369445800781,-0.5296408534049988,0.4781705737113953,0.02499288320541382,0.03308302164077759,0.121740996837616,XArbitraryZVertical,0.4428552607777128,-0.3831077058813937,0.8082804198277043,0.0615666490667521,-0.7630757689476013,0.5647866725921631,-0.3142154216766357,0,0,0,-1,-1,17265.089249375,unknown,2,2025-04-21T14:49:19.766+03:00,2025-04-20T21:57:49.637+03:00,6548,0.9517458,0,0,5385.986,5,6,2025-04-21T14:49:30.084+03:00,766928970.1838291,0,-46.15,100.2854,1,0.5,2025-04-21T14:48:22.231+03:00,94,1.566666666666667,2025-04-21T12:30:07.995+03:00,0.02023345852159405,0
2025-04-21T14:49:32.194+03:00,1745236169.115369,40.9522387725225,29.14028154055504,76.38563,-1,-1,-1,-1,30,22.15875696438606,-9999,17272.02148775,-0.730010986328125,0.5058746337890625,-0.271026611328125,17272.01141075,2.591895675964859,-1.179048278432199,-0.6018761508649213,0.7517172694206238,-0.4790335595607758,0.5204069018363953,0.02600568532943726,0.05368298292160034,0.1252740025520325,XArbitraryZVertical,0.4441816397361589,-0.3812436354270105,0.8087800422275633,0.05683998362585065,-0.7618302702903748,0.5661899447441101,-0.3147119283676147,0,0,0,-1,-1,17265.089249375,unknown,2,2025-04-21T14:49:19.766+03:00,2025-04-20T21:57:49.637+03:00,6548,0.9517458,0,0,5385.986,5,6,2025-04-21T14:49:30.084+03:00,766928970.1838291,0,-46.15,100.2854,1,0.5,2025-04-21T14:48:22.231+03:00,94,1.566666666666667,2025-04-21T12:30:07.995+03:00,0.02023345852159405,0
2025-04-21T14:49:32.204+03:00,1745236169.115369,40.9522387725225,29.14028154055504,76.38563,-1,-1,-1,-1,30,22.15875696438606,-9999,17272.03156375,-0.7154083251953125,0.4971466064453125,-0.303955078125,17272.02148775,2.60290319407031,-1.177383468487984,-0.6040469442359667,0.7586808800697327,-0.4294561445713043,0.568256676197052,0.02249729633331299,0.003127872943878174,0.08542048931121826,XArbitraryZVertical,0.4451976803937546,-0.3795327375928735,0.8093465240753666,0.05207695168281549,-0.760168194770813,0.5679779052734375,-0.3155078589916229,0,0,0,-1,-1,17265.089249375,unknown,2,2025-04-21T14:49:19.766+03:00,2025-04-20T21:57:49.637+03:00,6548,0.9517458,0,0,5385.986,5,6,2025-04-21T14:49:30.084+03:00,766928970.1838291,0,-46.15,100.2854,1,0.5,2025-04-21T14:48:22.231+03:00,94,1.566666666666667,2025-04-21T12:30:07.995+03:00,0.02023345852159405,0
2025-04-21T14:49:32.214+03:00,1745236169.115369,40.9522387725225,29.14028154055504,76.38563,-1,-1,-1,-1,30,22.15875696438606,-9999,17272.04164075,-0.7038421630859375,0.5556793212890625,-0.316986083984375,17272.03156375,2.614671979971363,-1.174818524749503,-0.6064155420818491,0.8509937524795532,-0.3974277079105377,0.6038435101509094,0.02961277961730957,-0.06988018751144409,0.04073745012283325,XArbitraryZVertical,0.4459506446708819,-0.3777030629950189,0.8100916648760871,0.04711554338179528,-0.7581131458282471,0.5699257850646973,-0.3169368505477905,0,0,0,-1,-1,17265.089249375,unknown,2,2025-04-21T14:49:19.766+03:00,2025-04-20T21:57:49.637+03:00,6548,0.9517458,0,0,5385.986,5,6,2025-04-21T14:49:30.084+03:00,766928970.1838291,0,-46.15,100.2854,1,0.5,2025-04-21T14:48:22.231+03:00,94,1.566666666666667,2025-04-21T12:30:07.995+03:00,0.02023345852159405,0
2025-04-21T14:49:32.224+03:00,1745236169.115369,40.9522387725225,29.14028154055504,76.38563,-1,-1,-1,-1,30,22.15875696438606,-9999,17272.05171675,-0.693023681640625,0.59173583984375,-0.2888031005859375,17272.04164075,2.628342224937814,-1.171058551259231,-0.6085244598375416,1.049922823905945,-0.4068073630332947,0.6444101333618164,0.04177230596542358,-0.06944501399993896,0.012584388256073,XArbitraryZVertical,0.4466160874572441,-0.3753341939364709,0.8111235185884755,0.04167714931120742,-0.7558073401451111,0.5716574192047119,-0.3193166255950928,0,0,0,-1,-1,17265.089249375,unknown,2,2025-04-21T14:49:19.766+03:00,2025-04-20T21:57:49.637+03:00,6548,0.9517458,0,0,5385.986,5,6,2025-04-21T14:49:30.084+03:00,766928970.1838291,0,-46.15,100.2854,1,0.5,2025-04-21T14:48:22.231+03:00,94,1.566666666666667,2025-04-21T12:30:07.995+03:00,0.02023345852159405,0
2025-04-21T14:49:32.234+03:00,1745236169.115369,40.9522387725225,29.14028154055504,76.38563,-1,-1,-1,-1,30,22.15875696438606,-9999,17272.06179275,-0.685089111328125,0.56610107421875,-0.23126220703125,17272.05171675,2.644106649643795,-1.166252095974113,-0.6100620067747262,1.181646108627319,-0.4306288957595825,0.6394471526145935,0.05068081617355347,-0.009930193424224854,0.007139056921005249,XArbitraryZVertical,0.4473355785928921,-0.3722784525677714,0.8124175704116545,0.03573696203067028,-0.7534547448158264,0.5729182958602905,-0.3225992619991302,0,0,0,-1,-1,17265.089249375,unknown,2,2025-04-21T14:49:19.766+03:00,2025-04-20T21:57:49.637+03:00,6548,0.9517458,0,0,5385.986,5,6,2025-04-21T14:49:30.084+03:00,766928970.1838291,0,-46.15,100.2854,1,0.5,2025-04-21T14:48:22.231+03:00,94,1.566666666666667,2025-04-21T12:30:07.995+03:00,0.02023345852159405,0
2025-04-21T14:49:32.244+03:00,1745236169.115369,40.9522387725225,29.14028154055504,76.38563,-1,-1,-1,-1,30,22.15875696438606,-9999,17272.07186975,-0.6782073974609375,0.5320892333984375,-0.1770172119140625,17272.06179275,2.660721909081882,-1.161132244114538,-0.6111611728397266,1.188707709312439,-0.4386937618255615,0.6336630582809448,0.05983954668045044,0.01741331815719604,0.04331892728805542,XArbitraryZVertical,0.4481385693682597,-0.3688780448443345,0.8137711752601495,0.02961786295319515,-0.7512152791023254,0.5738188028335571,-0.3262016177177429,0,0,0,-1,-1,17265.089249375,unknown,2,2025-04-21T14:49:19.766+03:00,2025-04-20T21:57:49.637+03:00,6548,0.9517458,0,0,5385.986,5,6,2025-04-21T14:49:30.084+03:00,766928970.1838291,0,-46.15,100.2854,1,0.5,2025-04-21T14:48:22.231+03:00,94,1.566666666666667,2025-04-21T12:30:07.995+03:00,0.02023345852159405,0
