loggingTime(txt),locationTimestamp_since1970(s),locationLatitude(WGS84),locationLongitude(WGS84),locationAltitude(m),locationSpeed(m/s),locationSpeedAccuracy(m/s),locationCourse(°),locationCourseAccuracy(°),locationVerticalAccuracy(m),locationHorizontalAccuracy(m),locationFloor(Z),accelerometerTimestamp_sinceReboot(s),accelerometerAccelerationX(G),accelerometerAccelerationY(G),accelerometerAccelerationZ(G),motionTimestamp_sinceReboot(s),motionYaw(rad),motionRoll(rad),motionPitch(rad),motionRotationRateX(rad/s),motionRotationRateY(rad/s),motionRotationRateZ(rad/s),motionUserAccelerationX(G),motionUserAccelerationY(G),motionUserAccelerationZ(G),motionAttitudeReferenceFrame(txt),motionQuaternionX(R),motionQuaternionY(R),motionQuaternionZ(R),motionQuaternionW(R),motionGravityX(G),motionGravityY(G),motionGravityZ(G),motionMagneticFieldX(µT),motionMagneticFieldY(µT),motionMagneticFieldZ(µT),motionHeading(°),motionMagneticFieldCalibrationAccuracy(Z),activityTimestamp_sinceReboot(s),activity(txt),activityActivityConfidence(Z),activityActivityStartDate(txt),pedometerStartDate(txt),pedometerNumberofSteps(N),pedometerAverageActivePace(s/m),pedometerCurrentPace(s/m),pedometerCurrentCadence(steps/s),pedometerDistance(m),pedometerFloorAscended(N),pedometerFloorDescended(N),pedometerEndDate(txt),altimeterTimestamp_sinceReboot(s),altimeterReset(bool),altimeterRelativeAltitude(m),altimeterPressure(kPa),batteryState(N),batteryLevel(R),heartRateBPMTimestamp(txt),heartRateBPM(N),heartRateBPS(R),heartRateVariabilityTimestamp(txt),heartRateVariability(ms),label
2025-04-21T15:23:15.625+03:00,1745238191.97542,40.95220265019029,29.14025662348531,76.02078,-1,-1,-1,-1,30.00645109687068,58.04164234037241,-9999,18398.68634875,-0.7150115966796875,0.6582489013671875,-0.26641845703125,18398.68131075,2.369468813318355,-1.191701934399759,-0.7228110207615734,-0.005736380349844694,0.01098455302417278,0.01164334081113338,0.03408992290496826,0.004367411136627197,0.01499786972999573,XArbitraryZVertical,-0.3761244192169551,0.4687857759228189,-0.7919429153551747,-0.1076874279572621,-0.696702778339386,0.6614953875541687,-0.2775406241416931,0,0,0,-1,-1,18392.868614625,unknown,2,2025-04-21T15:23:09.773+03:00,2025-04-20T21:57:49.637+03:00,6680,0.9704633,0,0,5487.079,5,6,2025-04-21T15:22:28.502+03:00,766930995.0206352,0,-43.8,100.2578,1,0.45,2025-04-21T15:21:14.605+03:00,112,1.866666666666667,2025-04-21T12:30:07.995+03:00,0.02023345852159405,0
2025-04-21T15:23:15.628+03:00,1745238191.97542,40.95220265019029,29.14025662348531,76.02078,-1,-1,-1,-1,30.00645109687068,58.04164234037241,-9999,18398.69642475,-0.698577880859375,0.651275634765625,-0.274871826171875,18398.69138675,2.369240133945716,-1.191989363290728,-0.722942190007595,-0.02337749116122723,-0.01873932033777237,-0.000527737895026803,0.009461283683776855,0.004391133785247803,0.01639816164970398,XArbitraryZVertical,-0.3761534639582643,0.4688863869635168,-0.7918716886918856,-0.1076713997740486,-0.6967018842697144,0.6615937948226929,-0.2773082554340363,0,0,0,-1,-1,18392.868614625,unknown,2,2025-04-21T15:23:09.773+03:00,2025-04-20T21:57:49.637+03:00,6680,0.9704633,0,0,5487.079,5,6,2025-04-21T15:22:28.502+03:00,766930995.0206352,0,-43.8,100.2578,1,0.45,2025-04-21T15:21:14.605+03:00,112,1.866666666666667,2025-04-21T12:30:07.995+03:00,0.02023345852159405,0
2025-04-21T15:23:15.630+03:00,1745238191.97542,40.95220265019029,29.14025662348531,76.02078,-1,-1,-1,-1,30.00645109687068,58.04164234037241,-9999,18398.70650175,-0.6733245849609375,0.6555938720703125,-0.279052734375,18398.70146275,2.36895553387158,-1.192293468239347,-0.7230572602415993,-0.01835104078054428,0.002543597482144833,0.007481186650693417,-0.0239570140838623,-0.01008415222167969,0.003813862800598145,XArbitraryZVertical,-0.3761797078879021,0.4689932517227399,-0.7917950829709905,-0.1076786533745994,-0.6967155933380127,0.6616800427436829,-0.2770683169364929,0,0,0,-1,-1,18392.868614625,unknown,2,2025-04-21T15:23:09.773+03:00,2025-04-20T21:57:49.637+03:00,6680,0.9704633,0,0,5487.079,5,6,2025-04-21T15:22:28.502+03:00,766930995.0206352,0,-43.8,100.2578,1,0.45,2025-04-21T15:21:14.605+03:00,112,1.866666666666667,2025-04-21T12:30:07.995+03:00,0.02023345852159405,0
2025-04-21T15:23:15.632+03:00,1745238191.97542,40.95220265019029,29.14025662348531,76.02078,-1,-1,-1,-1,30.00645109687068,58.04164234037241,-9999,18398.71657775,-0.7056884765625,0.653411865234375,-0.28082275390625,18398.71153975,2.368828119514279,-1.192305390646945,-0.7231991391351732,-0.01609953865408897,0.002311170101165771,0.008266985416412354,0.02707594633102417,-0.00784069299697876,0.0002613067626953125,XArbitraryZVertical,-0.3761208149634293,0.469063406632643,-0.7917807682382698,-0.1076839421282113,-0.6966316699981689,0.6617864370346069,-0.2770253121852875,0,0,0,-1,-1,18392.868614625,unknown,2,2025-04-21T15:23:09.773+03:00,2025-04-20T21:57:49.637+03:00,6680,0.9704633,0,0,5487.079,5,6,2025-04-21T15:22:28.502+03:00,766930995.0206352,0,-43.8,100.2578,1,0.45,2025-04-21T15:21:14.605+03:00,112,1.866666666666667,2025-04-21T12:30:07.995+03:00,0.02023345852159405,0
2025-04-21T15:23:15.639+03:00,1745238191.97542,40.95220265019029,29.14025662348531,76.02078,-1,-1,-1,-1,30.00645109687068,58.04164234037241,-9999,18398.72665375,-0.689971923828125,0.651397705078125,-0.27459716796875,18398.72161575,2.368774798528152,-1.192266224419921,-0.7232483343188399,-0.004996021743863821,0.006390334106981754,0.002447179518640041,-0.0009344816207885742,-0.005954861640930176,-0.004835158586502075,XArbitraryZVertical,-0.3760810838267962,0.4690871218776613,-0.7917834983581423,-0.1076996199085539,-0.6965906023979187,0.6618233323097229,-0.27704057097435,0,0,0,-1,-1,18392.868614625,unknown,2,2025-04-21T15:23:09.773+03:00,2025-04-20T21:57:49.637+03:00,6680,0.9704633,0,0,5487.079,5,6,2025-04-21T15:22:28.502+03:00,766930995.0206352,0,-43.8,100.2578,1,0.45,2025-04-21T15:21:14.605+03:00,112,1.866666666666667,2025-04-21T12:30:07.995+03:00,0.02023345852159405,0
2025-04-21T15:23:15.646+03:00,1745238191.97542,40.95220265019029,29.14025662348531,76.02078,-1,-1,-1,-1,30.00645109687068,58.04164234037241,-9999,18398.73673075,-0.6875,0.6643524169921875,-0.276885986328125,18398.73169175,2.36888958998013,-1.192064788661119,-0.7232169824123311,0.0156352873891592,0.01462462730705738,0.006471515633165836,-0.001672983169555664,-0.01201975345611572,0.0006381571292877197,XArbitraryZVertical,-0.3760357617992569,0.4690446149458161,-0.7918286104087687,-0.1077106194952974,-0.6965539455413818,0.6617997884750366,-0.2771885097026825,0,0,0,-1,-1,18392.868614625,unknown,2,2025-04-21T15:23:09.773+03:00,2025-04-20T21:57:49.637+03:00,6680,0.9704633,0,0,5487.079,5,6,2025-04-21T15:22:28.502+03:00,766930995.0206352,0,-43.8,100.2578,1,0.45,2025-04-21T15:21:14.605+03:00,112,1.866666666666667,2025-04-21T12:30:07.995+03:00,0.02023345852159405,0
2025-04-21T15:23:15.656+03:00,1745238191.97542,40.95220265019029,29.14025662348531,76.02078,-1,-1,-1,-1,30.00645109687068,58.04164234037241,-9999,18398.74680675,-0.6956634521484375,0.67041015625,-0.280670166015625,18398.74176875,2.369188064568807,-1.191651896056074,-0.7231347875981837,0.02627727948129177,0.02394063211977482,0.007825733162462711,0.01153820753097534,-0.002802789211273193,0.002013981342315674,XArbitraryZVertical,-0.3759618005560256,0.4689398728285336,-0.7919253593893421,-0.1077138355345125,-0.6964899897575378,0.6617381572723389,-0.2774962484836578,0,0,0,-1,-1,18392.868614625,unknown,2,2025-04-21T15:23:09.773+03:00,2025-04-20T21:57:49.637+03:00,6680,0.9704633,0,0,5487.079,5,6,2025-04-21T15:22:28.502+03:00,766930995.0206352,0,-43.8,100.2578,1,0.45,2025-04-21T15:21:14.605+03:00,112,1.866666666666667,2025-04-21T12:30:07.995+03:00,0.02023345852159405,0
2025-04-21T15:23:15.666+03:00,1745238191.97542,40.95220265019029,29.14025662348531,76.02078,-1,-1,-1,-1,30.00645109687068,58.04164234037241,-9999,18398.75688275,-0.7001495361328125,0.6732330322265625,-0.2787322998046875,18398.75184475,2.369627932970353,-1.191120201948271,-0.7230399350073287,0.03792767599225044,0.02136628702282906,-0.002089548856019974,0.003148078918457031,0.007873117923736572,-0.00130036473274231,XArbitraryZVertical,-0.3758769388040175,0.4687980870106808,-0.7920524384903322,-0.107692525586069,-0.6964005827903748,0.6616670489311218,-0.277889758348465,0,0,0,-1,-1,18392.868614625,unknown,2,2025-04-21T15:23:09.773+03:00,2025-04-20T21:57:49.637+03:00,6680,0.9704633,0,0,5487.079,5,6,2025-04-21T15:22:28.502+03:00,766930995.0206352,0,-43.8,100.2578,1,0.45,2025-04-21T15:21:14.605+03:00,112,1.866666666666667,2025-04-21T12:30:07.995+03:00,0.02023345852159405,0
2025-04-21T15:23:15.676+03:00,1745238191.97542,40.95220265019029,29.14025662348531,76.02078,-1,-1,-1,-1,30.00645109687068,58.04164234037241,-9999,18398.76695975,-0.6916656494140625,0.6697845458984375,-0.2773590087890625,18398.76192075,2.369977013009111,-1.190776733256125,-0.722925982068338,0.02743162587285042,0.001858366187661886,-0.01611055806279182,-0.003728628158569336,0.01067471504211426,-0.001536786556243896,XArbitraryZVertical,-0.3758497997472255,0.4686773689845939,-0.7921399873658909,-0.1076687469943321,-0.6963751316070557,0.6615816354751587,-0.2781569063663483,0,0,0,-1,-1,18392.868614625,unknown,2,2025-04-21T15:23:09.773+03:00,2025-04-20T21:57:49.637+03:00,6680,0.9704633,0,0,5487.079,5,6,2025-04-21T15:22:28.502+03:00,766930995.0206352,0,-43.8,100.2578,1,0.45,2025-04-21T15:21:14.605+03:00,112,1.866666666666667,2025-04-21T12:30:07.995+03:00,0.02023345852159405,0
2025-04-21T15:23:15.687+03:00,1745238191.97542,40.95220265019029,29.14025662348531,76.02078,-1,-1,-1,-1,30.00645109687068,58.04164234037241,-9999,18398.77703575,-0.6878814697265625,0.6573944091796875,-0.274383544921875,18398.77199775,2.370011617704079,-1.190914095384874,-0.7226793822692593,0.004718391224741936,-0.02516572922468185,-0.02963685244321823,0.0007793307304382324,0.01096636056900024,-4.604458808898926e-05,XArbitraryZVertical,-0.3759708928621749,0.4685989943092349,-0.792125144813701,-0.1076963887077947,-0.6965648531913757,0.6613966822624207,-0.2781217396259308,0,0,0,-1,-1,18392.868614625,unknown,2,2025-04-21T15:23:09.773+03:00,2025-04-20T21:57:49.637+03:00,6680,0.9704633,0,0,5487.079,5,6,2025-04-21T15:22:28.502+03:00,766930995.0206352,0,-43.8,100.2578,1,0.45,2025-04-21T15:21:14.605+03:00,112,1.866666666666667,2025-04-21T12:30:07.995+03:00,0.02023345852159405,0
2025-04-21T15:23:15.696+03:00,1745238191.97542,40.95220265019029,29.14025662348531,76.02078,-1,-1,-1,-1,30.00645109687068,58.04164234037241,-9999,18398.78711175,-0.6922760009765625,0.6534881591796875,-0.27569580078125,18398.78207375,2.369818871966188,-1.191370667095382,-0.7223137889875415,-0.003900130977854133,-0.03534086421132088,-0.03203076869249344,0.008271992206573486,0.002161741256713867,0.002670407295227051,XArbitraryZVertical,-0.3761933660484534,0.4685423307366164,-0.7920424446676068,-0.1077748948577249,-0.696916401386261,0.6611224412918091,-0.2778932750225067,0,0,0,-1,-1,18392.868614625,unknown,2,2025-04-21T15:23:09.773+03:00,2025-04-20T21:57:49.637+03:00,6680,0.9704633,0,0,5487.079,5,6,2025-04-21T15:22:28.502+03:00,766930995.0206352,0,-43.8,100.2578,1,0.45,2025-04-21T15:21:14.605+03:00,112,1.866666666666667,2025-04-21T12:30:07.995+03:00,0.02023345852159405,0
2025-04-21T15:23:15.707+03:00,1745238191.97542,40.95220265019029,29.14025662348531,76.02078,-1,-1,-1,-1,30.00645109687068,58.04164234037241,-9999,18398.79718875,-0.696319580078125,0.6539306640625,-0.27874755859375,18398.79214975,2.369580041853128,-1.191883112355014,-0.7221054143423508,-0.01453233510255814,-0.03924166783690453,-0.0299021378159523,0.007321596145629883,-0.008286774158477783,0.002821981906890869,XArbitraryZVertical,-0.3763898350677128,0.4685479237627582,-0.7919408180595955,-0.107811599319305,-0.6971867680549622,0.6609660983085632,-0.2775870561599731,0,0,0,-1,-1,18392.868614625,unknown,2,2025-04-21T15:23:09.773+03:00,2025-04-20T21:57:49.637+03:00,6680,0.9704633,0,0,5487.079,5,6,2025-04-21T15:22:28.502+03:00,766930995.0206352,0,-43.8,100.2578,1,0.45,2025-04-21T15:21:14.605+03:00,112,1.866666666666667,2025-04-21T12:30:07.995+03:00,0.02023345852159405,0
2025-04-21T15:23:15.717+03:00,1745238191.97542,40.95220265019029,29.14025662348531,76.02078,-1,-1,-1,-1,30.00645109687068,58.04164234037241,-9999,18398.80726475,-0.69488525390625,0.6495208740234375,-0.2800140380859375,18398.80222675,2.36927451710804,-1.192439507108804,-0.721862525463557,-0.01120178587734699,-0.03479525446891785,-0.02697399258613586,0.001979231834411621,-0.005693674087524414,-0.001107841730117798,XArbitraryZVertical,-0.3765963482233919,0.46855739084967,-0.7918283195317426,-0.1078744369287273,-0.6974900364875793,0.6607837677001953,-0.2772583365440369,0,0,0,-1,-1,18392.868614625,unknown,2,2025-04-21T15:23:09.773+03:00,2025-04-20T21:57:49.637+03:00,6680,0.9704633,0,0,5487.079,5,6,2025-04-21T15:22:28.502+03:00,766930995.0206352,0,-43.8,100.2578,1,0.45,2025-04-21T15:21:14.605+03:00,112,1.866666666666667,2025-04-21T12:30:07.995+03:00,0.02023345852159405,0
2025-04-21T15:23:15.727+03:00,1745238191.97542,40.95220265019029,29.14025662348531,76.02078,-1,-1,-1,-1,30.00645109687068,58.04164234037241,-9999,18398.81734075,-0.6953582763671875,0.6578369140625,-0.27886962890625,18398.81230275,2.36910978906546,-1.192817778295264,-0.7216663847553392,0.003184210509061813,-0.01471089012920856,-0.01341524068266153,0.001716256141662598,-0.0105513334274292,-0.002483516931533813,XArbitraryZVertical,-0.3767541109049398,0.468545823137287,-0.7917553475919356,-0.1079095970985941,-0.6977153420448303,0.6606365442276001,-0.2770422995090485,0,0,0,-1,-1,18392.868614625,unknown,2,2025-04-21T15:23:09.773+03:00,2025-04-20T21:57:49.637+03:00,6680,0.9704633,0,0,5487.079,5,6,2025-04-21T15:22:28.502+03:00,766930995.0206352,0,-43.8,100.2578,1,0.45,2025-04-21T15:21:14.605+03:00,112,1.866666666666667,2025-04-21T12:30:07.995+03:00,0.02023345852159405,0
2025-04-21T15:23:15.737+03:00,1745238191.97542,40.95220265019029,29.14025662348531,76.02078,-1,-1,-1,-1,30.00645109687068,58.04164234037241,-9999,18398.82741775,-0.6982574462890625,0.671630859375,-0.2797698974609375,18398.82237875,2.369225612237755,-1.192800730763115,-0.7215698553504524,0.0193791575729847,-0.0008976063691079617,-0.004253966268151999,0.00296097993850708,-0.007900059223175049,-0.002570152282714844,XArbitraryZVertical,-0.376797412807943,0.4684920834714827,-0.7917683536019238,-0.1078966086592807,-0.6977699398994446,0.6605640649795532,-0.2770777642726898,0,0,0,-1,-1,18392.868614625,unknown,2,2025-04-21T15:23:09.773+03:00,2025-04-20T21:57:49.637+03:00,6680,0.9704633,0,0,5487.079,5,6,2025-04-21T15:22:28.502+03:00,766930995.0206352,0,-43.8,100.2578,1,0.45,2025-04-21T15:21:14.605+03:00,112,1.866666666666667,2025-04-21T12:30:07.995+03:00,0.02023345852159405,0
2025-04-21T15:23:15.747+03:00,1745238191.97542,40.95220265019029,29.14025662348531,76.02078,-1,-1,-1,-1,30.00645109687068,58.04164234037241,-9999,18398.83749375,-0.6974334716796875,0.673583984375,-0.277008056640625,18398.83245575,2.369545795042656,-1.192557498237014,-0.721451517761497,0.03164474666118622,0.004351351410150528,-0.006312922574579716,0.0003570318222045898,0.006867766380310059,-0.002096891403198242,XArbitraryZVertical,-0.376804188103836,0.4683806324606096,-0.7918358216209932,-0.1078622426587946,-0.6977753043174744,0.6604752540588379,-0.2772763669490814,0,0,0,-1,-1,18392.868614625,unknown,2,2025-04-21T15:23:09.773+03:00,2025-04-20T21:57:49.637+03:00,6680,0.9704633,0,0,5487.079,5,6,2025-04-21T15:22:28.502+03:00,766930995.0206352,0,-43.8,100.2578,1,0.45,2025-04-21T15:21:14.605+03:00,112,1.866666666666667,2025-04-21T12:30:07.995+03:00,0.02023345852159405,0
2025-04-21T15:23:15.757+03:00,1745238191.97542,40.95220265019029,29.14025662348531,76.02078,-1,-1,-1,-1,30.00645109687068,58.04164234037241,-9999,18398.84756975,-0.697021484375,0.6712188720703125,-0.2730865478515625,18398.84253175,2.369913358391102,-1.192296356900288,-0.7212964371981785,0.02849715761840343,-0.001059925649315119,-0.008610964752733707,0.0007916092872619629,0.0131792426109314,-0.0007935166358947754,XArbitraryZVertical,-0.3768237584252115,0.4682474535156469,-0.791910358697997,-0.1078239222550803,-0.6977978348731995,0.6603587865829468,-0.2774963676929474,0,0,0,-1,-1,18392.868614625,unknown,2,2025-04-21T15:23:09.773+03:00,2025-04-20T21:57:49.637+03:00,6680,0.9704633,0,0,5487.079,5,6,2025-04-21T15:22:28.502+03:00,766930995.0206352,0,-43.8,100.2578,1,0.45,2025-04-21T15:21:14.605+03:00,112,1.866666666666667,2025-04-21T12:30:07.995+03:00,0.02023345852159405,0
2025-04-21T15:23:15.767+03:00,1745238191.97542,40.95220265019029,29.14025662348531,76.02078,-1,-1,-1,-1,30.00645109687068,58.04164234037241,-9999,18398.85764675,-0.6993408203125,0.665191650390625,-0.2683563232421875,18398.85260775,2.370180293471088,-1.192091664960051,-0.7211412304890087,0.02166734635829926,0.007090811617672443,-0.01204890571534634,0.0005401968955993652,0.01250237226486206,0.003507137298583984,XArbitraryZVertical,-0.3768420051196053,0.4681362435593379,-0.7919690555375397,-0.1078125716264044,-0.6978363394737244,0.6602421998977661,-0.2776771187782288,0,0,0,-1,-1,18392.868614625,unknown,2,2025-04-21T15:23:09.773+03:00,2025-04-20T21:57:49.637+03:00,6680,0.9704633,0,0,5487.079,5,6,2025-04-21T15:22:28.502+03:00,766930995.0206352,0,-43.8,100.2578,1,0.45,2025-04-21T15:21:14.605+03:00,112,1.866666666666667,2025-04-21T12:30:07.995+03:00,0.02023345852159405,0
2025-04-21T15:23:15.777+03:00,1745238191.97542,40.95220265019029,29.14025662348531,76.02078,-1,-1,-1,-1,30.00645109687068,58.04164234037241,-9999,18398.86772275,-0.699432373046875,0.661956787109375,-0.2697906494140625,18398.86268475,2.370363041555125,-1.191887406653055,-0.7209790483203503,0.02114163897931576,0.009894321672618389,-0.01127286069095135,-1.215934753417969e-05,0.007726132869720459,0.007488667964935303,XArbitraryZVertical,-0.3768424015799548,0.4680386529221391,-0.7920232861414347,-0.107836344249007,-0.6978790760040283,0.66012042760849,-0.27785924077034,0,0,0,-1,-1,18392.868614625,unknown,2,2025-04-21T15:23:09.773+03:00,2025-04-20T21:57:49.637+03:00,6680,0.9704633,0,0,5487.079,5,6,2025-04-21T15:22:28.502+03:00,766930995.0206352,0,-43.8,100.2578,1,0.45,2025-04-21T15:21:14.605+03:00,112,1.866666666666667,2025-04-21T12:30:07.995+03:00,0.02023345852159405,0
2025-04-21T15:23:15.787+03:00,1745238191.97542,40.95220265019029,29.14025662348531,76.02078,-1,-1,-1,-1,30.00645109687068,58.04164234037241,-9999,18398.87779875,-0.69818115234375,0.6600494384765625,-0.274017333984375,18398.87276075,2.370592862800454,-1.191567507517176,-0.7208163730013434,0.02641982398927212,0.0197073370218277,-0.005404685158282518,-0.002030789852142334,0.00310283899307251,0.0102999210357666,XArbitraryZVertical,-0.3768081014779203,0.467925784863723,-0.7921018786525712,-0.1078686739055641,-0.6978898644447327,0.6599981784820557,-0.278122216463089,0,0,0,-1,-1,18392.868614625,unknown,2,2025-04-21T15:23:09.773+03:00,2025-04-20T21:57:49.637+03:00,6680,0.9704633,0,0,5487.079,5,6,2025-04-21T15:22:28.502+03:00,766930995.0206352,0,-43.8,100.2578,1,0.45,2025-04-21T15:21:14.605+03:00,112,1.866666666666667,2025-04-21T12:30:07.995+03:00,0.02023345852159405,0
2025-04-21T15:23:15.797+03:00,1745238191.97542,40.95220265019029,29.14025662348531,76.02078,-1,-1,-1,-1,30.00645109687068,58.04164234037241,-9999,18398.88787475,-0.69989013671875,0.66033935546875,-0.278289794921875,18398.88283675,2.370968550722739,-1.191092665561556,-0.7206521801432879,0.0353962741792202,0.02252016961574554,-0.005493102129548788,-0.0001244544982910156,0.000418543815612793,0.005162984132766724,XArbitraryZVertical,-0.376746905948371,0.4677765686102061,-0.7922175202768041,-0.1078797737932741,-0.6978582739830017,0.6598748564720154,-0.2784937024116516,0,0,0,-1,-1,18392.868614625,unknown,2,2025-04-21T15:23:09.773+03:00,2025-04-20T21:57:49.637+03:00,6680,0.9704633,0,0,5487.079,5,6,2025-04-21T15:22:28.502+03:00,766930995.0206352,0,-43.8,100.2578,1,0.45,2025-04-21T15:21:14.605+03:00,112,1.866666666666667,2025-04-21T12:30:07.995+03:00,0.02023345852159405,0
2025-04-21T15:23:15.807+03:00,1745238191.97542,40.95220265019029,29.14025662348531,76.02078,-1,-1,-1,-1,30.00645109687068,58.04164234037241,-9999,18398.89795175,-0.6924285888671875,0.65667724609375,-0.280975341796875,18398.89291375,2.371393960927955,-1.190606146802679,-0.7204584354998268,0.03604848310351372,0.01884340867400169,-0.004137685988098383,-0.002018094062805176,0.001510262489318848,0.00254395604133606,XArbitraryZVertical,-0.3766995259696221,0.4676078545062258,-0.7923393690061327,-0.1078830235436184,-0.6978416442871094,0.6597292423248291,-0.2788807153701782,0,0,0,-1,-1,18392.868614625,unknown,2,2025-04-21T15:23:09.773+03:00,2025-04-20T21:57:49.637+03:00,6680,0.9704633,0,0,5487.079,5,6,2025-04-21T15:22:28.502+03:00,766930995.0206352,0,-43.8,100.2578,1,0.45,2025-04-21T15:21:14.605+03:00,112,1.866666666666667,2025-04-21T12:30:07.995+03:00,0.02023345852159405,0
2025-04-21T15:23:15.817+03:00,1745238191.97542,40.95220265019029,29.14025662348531,76.02078,-1,-1,-1,-1,30.00645109687068,58.04164234037241,-9999,18398.90802775,-0.6862030029296875,0.657440185546875,-0.28057861328125,18398.90298975,2.371832696782674,-1.19017007168401,-0.7202829734491175,0.03344817087054253,0.01378633081912994,-0.003137402702122927,0.00188910961151123,-0.001806437969207764,-0.0008929669857025146,XArbitraryZVertical,-0.3766709925207192,0.4674451898115886,-0.7924514489451639,-0.107863162974663,-0.697827160358429,0.6595973968505859,-0.2792279124259949,0,0,0,-1,-1,18392.868614625,unknown,2,2025-04-21T15:23:09.773+03:00,2025-04-20T21:57:49.637+03:00,6680,0.9704633,0,0,5487.079,5,6,2025-04-21T15:22:28.502+03:00,766930995.0206352,0,-43.8,100.2578,1,0.45,2025-04-21T15:21:14.605+03:00,112,1.866666666666667,2025-04-21T12:30:07.995+03:00,0.02023345852159405,0
2025-04-21T15:23:15.828+03:00,1745238191.97542,40.95220265019029,29.14025662348531,76.02078,-1,-1,-1,-1,30.00645109687068,58.04164234037241,-9999,18398.91810375,-0.6908111572265625,0.65533447265625,-0.2778167724609375,18398.91306575,2.372184238633498,-1.189831107325862,-0.7202216781922013,0.02030454203486443,0.007377034984529018,0.00908750481903553,0.01092630624771118,-0.002126574516296387,-0.002411425113677979,XArbitraryZVertical,-0.3766332983350544,0.4673409761284986,-0.7925366171768494,-0.1078215312261304,-0.6977701783180237,0.6595513224601746,-0.2794795334339142,0,0,0,-1,-1,18392.868614625,unknown,2,2025-04-21T15:23:09.773+03:00,2025-04-20T21:57:49.637+03:00,6680,0.9704633,0,0,5487.079,5,6,2025-04-21T15:22:28.502+03:00,766930995.0206352,0,-43.8,100.2578,1,0.45,2025-04-21T15:21:14.605+03:00,112,1.866666666666667,2025-04-21T12:30:07.995+03:00,0.02023345852159405,0
2025-04-21T15:23:15.838+03:00,1745238191.97542,40.95220265019029,29.14025662348531,76.02078,-1,-1,-1,-1,30.00645109687068,58.04164234037241,-9999,18398.92818075,-0.6948089599609375,0.650115966796875,-0.2759246826171875,18398.92314275,2.372459751630649,-1.189563110000204,-0.7203172249984343,0.01270521152764559,0.008434043265879154,0.01384790521115065,0.009114444255828857,-0.003678441047668457,0.0009106993675231934,XArbitraryZVertical,-0.3765688223503948,0.467305439777831,-0.7925984262906259,-0.1077465487745355,-0.6976367831230164,0.6596231460571289,-0.2796430885791779,0,0,0,-1,-1,18392.868614625,unknown,2,2025-04-21T15:23:09.773+03:00,2025-04-20T21:57:49.637+03:00,6680,0.9704633,0,0,5487.079,5,6,2025-04-21T15:22:28.502+03:00,766930995.0206352,0,-43.8,100.2578,1,0.45,2025-04-21T15:21:14.605+03:00,112,1.866666666666667,2025-04-21T12:30:07.995+03:00,0.02023345852159405,0
2025-04-21T15:23:15.848+03:00,1745238191.97542,40.95220265019029,29.14025662348531,76.02078,-1,-1,-1,-1,30.00645109687068,58.04164234037241,-9999,18398.93825675,-0.6996002197265625,0.64654541015625,-0.276641845703125,18398.93321875,2.37261218945373,-1.189375475328949,-0.7204804751141711,0.006269949022680521,0.01408420689404011,0.01829125732183456,0.004475831985473633,-0.006761372089385986,0.003717541694641113,XArbitraryZVertical,-0.3764914361857777,0.4673192332838617,-0.7926358598961549,-0.1076812605245638,-0.6974842548370361,0.6597458124160767,-0.2797338664531708,0,0,0,-1,-1,18392.868614625,unknown,2,2025-04-21T15:23:09.773+03:00,2025-04-20T21:57:49.637+03:00,6680,0.9704633,0,0,5487.079,5,6,2025-04-21T15:22:28.502+03:00,766930995.0206352,0,-43.8,100.2578,1,0.45,2025-04-21T15:21:14.605+03:00,112,1.866666666666667,2025-04-21T12:30:07.995+03:00,0.02023345852159405,0
2025-04-21T15:23:15.858+03:00,1745238191.97542,40.95220265019029,29.14025662348531,76.02078,-1,-1,-1,-1,30.00645109687068,58.04164234037241,-9999,18398.948332,-0.7005157470703125,0.654052734375,-0.2743682861328125,18398.943294,2.372766311444157,-1.189124730183333,-0.7206532241354087,0.009005813859403133,0.01893914863467216,0.01863347366452217,-0.00104069709777832,-0.01410865783691406,0.003712624311447144,XArbitraryZVertical,-0.376387175818563,0.4673323922273359,-0.7926848921040819,-0.1076272388121016,-0.6973082423210144,0.6598756313323975,-0.2798662483692169,0,0,0,-1,-1,18392.868614625,unknown,2,2025-04-21T15:23:09.773+03:00,2025-04-20T21:57:49.637+03:00,6680,0.9704633,0,0,5487.079,5,6,2025-04-21T15:22:28.502+03:00,766930995.0206352,0,-43.8,100.2578,1,0.45,2025-04-21T15:21:14.605+03:00,112,1.866666666666667,2025-04-21T12:30:07.995+03:00,0.02023345852159405,0
2025-04-21T15:23:15.868+03:00,1745238191.97542,40.95220265019029,29.14025662348531,76.02078,-1,-1,-1,-1,30.00645109687068,58.04164234037241,-9999,18398.958409,-0.6993560791015625,0.6530609130859375,-0.2708282470703125,18398.953371,2.372914698066827,-1.188887438811846,-0.7207870492885912,0.009358816780149937,0.01516105514019728,0.01417660713195801,-0.002852320671081543,-0.008716046810150146,0.003845185041427612,XArbitraryZVertical,-0.3762961063508473,0.4673348327054317,-0.7927325369418549,-0.1075839981458297,-0.6971598267555237,0.6599761843681335,-0.279998779296875,0,0,0,-1,-1,18392.868614625,unknown,2,2025-04-21T15:23:09.773+03:00,2025-04-20T21:57:49.637+03:00,6680,0.9704633,0,0,5487.079,5,6,2025-04-21T15:22:28.502+03:00,766930995.0206352,0,-43.8,100.2578,1,0.45,2025-04-21T15:21:14.605+03:00,112,1.866666666666667,2025-04-21T12:30:07.995+03:00,0.02023345852159405,0
2025-04-21T15:23:15.899+03:00,1745238191.97542,40.95220265019029,29.14025662348531,76.02078,-1,-1,-1,-1,30.00645109687068,58.04164234037241,-9999,18398.968485,-0.6919097900390625,0.6513824462890625,-0.275665283203125,18398.963447,2.373117780310433,-1.188638069795881,-0.7208631142712635,0.01666146889328957,0.01327154226601124,0.01400403399020433,-0.004189431667327881,-0.005873978137969971,0.008959382772445679,XArbitraryZVertical,-0.3762266912101638,0.4673077353788654,-0.7927875533157418,-0.1075391429000999,-0.6970434188842773,0.6600333452224731,-0.280153900384903,0,0,0,-1,-1,18392.868614625,unknown,2,2025-04-21T15:23:09.773+03:00,2025-04-20T21:57:49.637+03:00,6680,0.9704633,0,0,5487.079,5,6,2025-04-21T15:22:28.502+03:00,766930995.0206352,0,-43.8,100.2578,1,0.45,2025-04-21T15:21:14.605+03:00,112,1.866666666666667,2025-04-21T12:30:07.995+03:00,0.02023345852159405,0
2025-04-21T15:23:15.901+03:00,1745238191.97542,40.95220265019029,29.14025662348531,76.02078,-1,-1,-1,-1,30.00645109687068,58.04164234037241,-9999,18398.978561,-0.694305419921875,0.658966064453125,-0.27764892578125,18398.973523,2.373450530316686,-1.188218963247812,-0.720952775695343,0.02525082975625992,0.02795634604990482,0.01783852092921734,0.00297778844833374,-0.008947193622589111,0.007154256105422974,XArbitraryZVertical,-0.3761169734082774,0.4672515451807747,-0.7928810943663667,-0.1074787418407728,-0.696871280670166,0.6601006984710693,-0.280424028635025,0,0,0,-1,-1,18392.868614625,unknown,2,2025-04-21T15:23:09.773+03:00,2025-04-20T21:57:49.637+03:00,6680,0.9704633,0,0,5487.079,5,6,2025-04-21T15:22:28.502+03:00,766930995.0206352,0,-43.8,100.2578,1,0.45,2025-04-21T15:21:14.605+03:00,112,1.866666666666667,2025-04-21T12:30:07.995+03:00,0.02023345852159405,0
2025-04-21T15:23:15.911+03:00,1745238191.97542,40.95220265019029,29.14025662348531,76.02078,-1,-1,-1,-1,30.00645109687068,58.04164234037241,-9999,18398.988638,-0.69610595703125,0.6603851318359375,-0.2791748046875,18398.9836,2.373788028240928,-1.187747573202011,-0.7210426154053338,0.01465704198926687,0.0203184001147747,0.01845291070640087,0.004789412021636963,-0.003521561622619629,0.003279685974121094,XArbitraryZVertical,-0.37598766612725,0.4671917325027434,-0.7929844764527604,-0.1074282914145705,-0.6966840028762817,0.6601681709289551,-0.2807303071022034,0,0,0,-1,-1,18392.868614625,unknown,2,2025-04-21T15:23:09.773+03:00,2025-04-20T21:57:49.637+03:00,6680,0.9704633,0,0,5487.079,5,6,2025-04-21T15:22:28.502+03:00,766930995.0206352,0,-43.8,100.2578,1,0.45,2025-04-21T15:21:14.605+03:00,112,1.866666666666667,2025-04-21T12:30:07.995+03:00,0.02023345852159405,0
2025-04-21T15:23:15.916+03:00,1745238191.97542,40.95220265019029,29.14025662348531,76.02078,-1,-1,-1,-1,30.00645109687068,58.04164234037241,-9999,18398.998714,-0.6902618408203125,0.6583404541015625,-0.278045654296875,18398.993676,2.374016559667024,-1.187410576915002,-0.7212223333691683,0.003206780878826976,0.0165494941174984,0.02364247851073742,-0.0004812479019165039,0.001226305961608887,0.001333802938461304,XArbitraryZVertical,-0.3758648892127648,0.4671886545951883,-0.7930533324755281,-0.1073629178723903,-0.6964792609214783,0.6603031158447266,-0.280920684337616,0,0,0,-1,-1,18392.868614625,unknown,2,2025-04-21T15:23:09.773+03:00,2025-04-20T21:57:49.637+03:00,6680,0.9704633,0,0,5487.079,5,6,2025-04-21T15:22:28.502+03:00,766930995.0206352,0,-43.8,100.2578,1,0.45,2025-04-21T15:21:14.605+03:00,112,1.866666666666667,2025-04-21T12:30:07.995+03:00,0.02023345852159405,0
2025-04-21T15:23:15.918+03:00,1745238191.97542,40.95220265019029,29.14025662348531,76.02078,-1,-1,-1,-1,30.00645109687068,58.04164234037241,-9999,18399.00879,-0.693115234375,0.6574859619140625,-0.280242919921875,18399.003752,2.374154245030067,-1.187137080951793,-0.7214552278416009,-0.0004180477117188275,0.01792235486209393,0.0238624569028616,0.004426181316375732,-0.00166475772857666,0.002321153879165649,XArbitraryZVertical,-0.3757335319894855,0.4672232335845753,-0.7931032251917099,-0.1073027531312553,-0.696259617805481,0.6604779958724976,-0.2810535132884979,0,0,0,-1,-1,18392.868614625,unknown,2,2025-04-21T15:23:09.773+03:00,2025-04-20T21:57:49.637+03:00,6680,0.9704633,0,0,5487.079,5,6,2025-04-21T15:22:28.502+03:00,766930995.0206352,0,-43.8,100.2578,1,0.45,2025-04-21T15:21:14.605+03:00,112,1.866666666666667,2025-04-21T12:30:07.995+03:00,0.02023345852159405,0
2025-04-21T15:23:15.929+03:00,1745238191.97542,40.95220265019029,29.14025662348531,76.02078,-1,-1,-1,-1,30.00645109687068,58.04164234037241,-9999,18399.018867,-0.6924285888671875,0.6541900634765625,-0.2783050537109375,18399.013829,2.374126075157083,-1.187064093509455,-0.7216659050094446,-0.01482208725064993,0.005167343653738499,0.01558558456599712,0.005024254322052002,-0.002707898616790771,0.001190721988677979,XArbitraryZVertical,-0.3756481266139031,0.4672925836122493,-0.793107495611678,-0.1072683481642668,-0.6961100697517395,0.6606361865997314,-0.2810522615909576,0,0,0,-1,-1,18392.868614625,unknown,2,2025-04-21T15:23:09.773+03:00,2025-04-20T21:57:49.637+03:00,6680,0.9704633,0,0,5487.079,5,6,2025-04-21T15:22:28.502+03:00,766930995.0206352,0,-43.8,100.2578,1,0.45,2025-04-21T15:21:14.605+03:00,112,1.866666666666667,2025-04-21T12:30:07.995+03:00,0.02023345852159405,0
2025-04-21T15:23:15.942+03:00,1745238191.97542,40.95220265019029,29.14025662348531,76.02078,-1,-1,-1,-1,30.00645109687068,58.04164234037241,-9999,18399.028943,-0.6949310302734375,0.6517486572265625,-0.27923583984375,18399.023905,2.374013278470188,-1.187064279350733,-0.7218167637144629,-0.01024304796010256,0.01567138358950615,0.01577679999172688,0.001834452152252197,-0.004881024360656738,0.001901000738143921,XArbitraryZVertical,-0.3755860804485632,0.4673624553926797,-0.7930958105591442,-0.107268318192213,-0.696017861366272,0.6607494354248047,-0.2810148596763611,0,0,0,-1,-1,18392.868614625,unknown,2,2025-04-21T15:23:09.773+03:00,2025-04-20T21:57:49.637+03:00,6680,0.9704633,0,0,5487.079,5,6,2025-04-21T15:22:28.502+03:00,766930995.0206352,0,-43.8,100.2578,1,0.45,2025-04-21T15:21:14.605+03:00,112,1.866666666666667,2025-04-21T12:30:07.995+03:00,0.02023345852159405,0
2025-04-21T15:23:15.949+03:00,1745238191.97542,40.95220265019029,29.14025662348531,76.02078,-1,-1,-1,-1,30.00645109687068,58.04164234037241,-9999,18399.039019,-0.705841064453125,0.658294677734375,-0.2827606201171875,18399.033981,2.374043510390221,-1.186790867468906,-0.7219688644827564,0.00508970208466053,0.03698932379484177,0.02232438139617443,0.003312230110168457,-0.008977830410003662,0.003396362066268921,XArbitraryZVertical,-0.3754487803162787,0.4673911704125674,-0.7931428783618345,-0.1072747656694806,-0.6958476305007935,0.6608635783195496,-0.2811674177646637,0,0,0,-1,-1,18392.868614625,unknown,2,2025-04-21T15:23:09.773+03:00,2025-04-20T21:57:49.637+03:00,6680,0.9704633,0,0,5487.079,5,6,2025-04-21T15:22:28.502+03:00,766930995.0206352,0,-43.8,100.2578,1,0.45,2025-04-21T15:21:14.605+03:00,112,1.866666666666667,2025-04-21T12:30:07.995+03:00,0.02023345852159405,0
2025-04-21T15:23:15.959+03:00,1745238191.97542,40.95220265019029,29.14025662348531,76.02078,-1,-1,-1,-1,30.00645109687068,58.04164234037241,-9999,18399.049096,-0.7043914794921875,0.670989990234375,-0.285491943359375,18399.044057,2.374268124285057,-1.186286096810133,-0.7221278803739318,0.01549920067191124,0.03884368017315865,0.02394518256187439,-0.006143450736999512,-0.006869316101074219,-0.000411689281463623,XArbitraryZVertical,-0.375263393609346,0.4673732589794167,-0.7932437121468772,-0.1072564878132539,-0.6956082582473755,0.6609829068183899,-0.2814792394638062,0,0,0,-1,-1,18392.868614625,unknown,2,2025-04-21T15:23:09.773+03:00,2025-04-20T21:57:49.637+03:00,6680,0.9704633,0,0,5487.079,5,6,2025-04-21T15:22:28.502+03:00,766930995.0206352,0,-43.8,100.2578,1,0.45,2025-04-21T15:21:14.605+03:00,112,1.866666666666667,2025-04-21T12:30:07.995+03:00,0.02023345852159405,0
2025-04-21T15:23:15.969+03:00,1745238191.97542,40.95220265019029,29.14025662348531,76.02078,-1,-1,-1,-1,30.00645109687068,58.04164234037241,-9999,18399.059172,-0.6970367431640625,0.673583984375,-0.2828521728515625,18399.054134,2.37455378915767,-1.185789837544858,-0.7222748030980444,0.01406661886721849,0.02743916027247906,0.02413116954267025,-0.01070672273635864,0.005318939685821533,-0.003383666276931763,XArbitraryZVertical,-0.3750985397575477,0.4673404799018401,-0.7933465145761991,-0.10721543640573,-0.6953784823417664,0.6610931754112244,-0.2817879319190979,0,0,0,-1,-1,18392.868614625,unknown,2,2025-04-21T15:23:09.773+03:00,2025-04-20T21:57:49.637+03:00,6680,0.9704633,0,0,5487.079,5,6,2025-04-21T15:22:28.502+03:00,766930995.0206352,0,-43.8,100.2578,1,0.45,2025-04-21T15:21:14.605+03:00,112,1.866666666666667,2025-04-21T12:30:07.995+03:00,0.02023345852159405,0
2025-04-21T15:23:15.979+03:00,1745238191.97542,40.95220265019029,29.14025662348531,76.02078,-1,-1,-1,-1,30.00645109687068,58.04164234037241,-9999,18399.069248,-0.695831298828125,0.6685791015625,-0.2833404541015625,18399.06421,2.374747669350729,-1.185470024530549,-0.7224537955470108,0.0008312411373481154,0.01440112199634314,0.02010500244796276,-0.004177451133728027,0.01218849420547485,-0.001191616058349609,XArbitraryZVertical,-0.3749746051706255,0.4673447676943623,-0.7934100660730516,-0.1071600881306073,-0.6951786875724792,0.6612274646759033,-0.2819658219814301,0,0,0,-1,-1,18392.868614625,unknown,2,2025-04-21T15:23:09.773+03:00,2025-04-20T21:57:49.637+03:00,6680,0.9704633,0,0,5487.079,5,6,2025-04-21T15:22:28.502+03:00,766930995.0206352,0,-43.8,100.2578,1,0.45,2025-04-21T15:21:14.605+03:00,112,1.866666666666667,2025-04-21T12:30:07.995+03:00,0.02023345852159405,0
2025-04-21T15:23:15.989+03:00,1745238191.97542,40.95220265019029,29.14025662348531,76.02078,-1,-1,-1,-1,30.00645109687068,58.04164234037241,-9999,18399.079325,-0.6919097900390625,0.6686553955078125,-0.280548095703125,18399.074286,2.37477979353633,-1.185380222474154,-0.7225896199682932,-0.006550175603479147,0.004940841812640429,0.007341836579144001,-0.0009596347808837891,0.008638083934783936,-0.0007052123546600342,XArbitraryZVertical,-0.374914383355534,0.4673777769954043,-0.7934233481435184,-0.1071278336392817,-0.6950699687004089,0.6613293290138245,-0.2819944322109222,0,0,0,-1,-1,18392.868614625,unknown,2,2025-04-21T15:23:09.773+03:00,2025-04-20T21:57:49.637+03:00,6680,0.9704633,0,0,5487.079,5,6,2025-04-21T15:22:28.502+03:00,766930995.0206352,0,-43.8,100.2578,1,0.45,2025-04-21T15:21:14.605+03:00,112,1.866666666666667,2025-04-21T12:30:07.995+03:00,0.02023345852159405,0
2025-04-21T15:23:15.999+03:00,1745238191.97542,40.95220265019029,29.14025662348531,76.02078,-1,-1,-1,-1,30.00645109687068,58.04164234037241,-9999,18399.089401,-0.6910552978515625,0.663848876953125,-0.2822113037109375,18399.084363,2.374646960968584,-1.185490256688086,-0.7226588743106876,-0.01914745941758156,-0.0101584829390049,-0.002453269902616739,0.001653492450714111,0.00788426399230957,0.0001318752765655518,XArbitraryZVertical,-0.3749105944023413,0.4674309293115338,-0.7933929686995073,-0.1071342485061907,-0.6950585842132568,0.6613813042640686,-0.2819007337093353,0,0,0,-1,-1,18392.868614625,unknown,2,2025-04-21T15:23:09.773+03:00,2025-04-20T21:57:49.637+03:00,6680,0.9704633,0,0,5487.079,5,6,2025-04-21T15:22:28.502+03:00,766930995.0206352,0,-43.8,100.2578,1,0.45,2025-04-21T15:21:14.605+03:00,112,1.866666666666667,2025-04-21T12:30:07.995+03:00,0.02023345852159405,0
2025-04-21T15:23:16.009+03:00,1745238191.97542,40.95220265019029,29.14025662348531,76.02078,-1,-1,-1,-1,30.00645109687068,58.04164234037241,-9999,18399.099477,-0.6885986328125,0.657257080078125,-0.279388427734375,18399.094439,2.374265592294371,-1.185905138614379,-0.7226905952634894,-0.03287898376584053,-0.02240955643355846,-0.01508704014122486,0.00410085916519165,0.005525887012481689,0.000140845775604248,XArbitraryZVertical,-0.3749784626438877,0.4675349015335493,-0.7932936494006445,-0.1071792873505149,-0.6951561570167542,0.661405086517334,-0.281604528427124,0,0,0,-1,-1,18392.868614625,unknown,2,2025-04-21T15:23:09.773+03:00,2025-04-20T21:57:49.637+03:00,6680,0.9704633,0,0,5487.079,5,6,2025-04-21T15:22:28.502+03:00,766930995.0206352,0,-43.8,100.2578,1,0.45,2025-04-21T15:21:14.605+03:00,112,1.866666666666667,2025-04-21T12:30:07.995+03:00,0.02023345852159405,0
2025-04-21T15:23:16.019+03:00,1745238191.97542,40.95220265019029,29.14025662348531,76.02078,-1,-1,-1,-1,30.00645109687068,58.04164234037241,-9999,18399.109554,-0.6886138916015625,0.6486968994140625,-0.2739715576171875,18399.104516,2.373871776191704,-1.186256311459107,-0.722539728315656,0.00361351203173399,0.01436390355229378,-0.02792960219085217,0.005772292613983154,-0.0006933808326721191,-0.001118689775466919,XArbitraryZVertical,-0.3750614302313222,0.4675788935707452,-0.7932123807686131,-0.1072981685334962,-0.6953474283218384,0.6612918972969055,-0.2813977897167206,0,0,0,-1,-1,18392.868614625,unknown,2,2025-04-21T15:23:09.773+03:00,2025-04-20T21:57:49.637+03:00,6680,0.9704633,0,0,5487.079,5,6,2025-04-21T15:22:28.502+03:00,766930995.0206352,0,-43.8,100.2578,1,0.45,2025-04-21T15:21:14.605+03:00,112,1.866666666666667,2025-04-21T12:30:07.995+03:00,0.02023345852159405,0
2025-04-21T15:23:16.029+03:00,1745238191.97542,40.95220265019029,29.14025662348531,76.02078,-1,-1,-1,-1,30.00645109687068,58.04164234037241,-9999,18399.11963,-0.6986846923828125,0.6454010009765625,-0.2811126708984375,18399.114592,2.373872923040873,-1.186016789610238,-0.7223157976385857,0.01716094650328159,0.04056428372859955,-0.008068311959505081,0.006971240043640137,-0.008627772331237793,0.006915867328643799,XArbitraryZVertical,-0.3750197126232415,0.4674935742482256,-0.7932658978060179,-0.1074203366410066,-0.6954173445701599,0.6611239314079285,-0.2816199362277985,0,0,0,-1,-1,18392.868614625,unknown,2,2025-04-21T15:23:09.773+03:00,2025-04-20T21:57:49.637+03:00,6680,0.9704633,0,0,5487.079,5,6,2025-04-21T15:22:28.502+03:00,766930995.0206352,0,-43.8,100.2578,1,0.45,2025-04-21T15:21:14.605+03:00,112,1.866666666666667,2025-04-21T12:30:07.995+03:00,0.02023345852159405,0
2025-04-21T15:23:16.039+03:00,1745238191.97542,40.95220265019029,29.14025662348531,76.02078,-1,-1,-1,-1,30.00645109687068,58.04164234037241,-9999,18399.129706,-0.707122802734375,0.656005859375,-0.282623291015625,18399.124668,2.37421441405769,-1.185351281977481,-0.7221538684591614,0.03586166352033615,0.04529192671179771,-0.001186171197332442,0.001664280891418457,-0.01622724533081055,0.004550188779830933,XArbitraryZVertical,-0.3748739217849169,0.4673415258037598,-0.7934150730301794,-0.1074883915531678,-0.6953288316726685,0.6610024571418762,-0.2821228802204132,0,0,0,-1,-1,18392.868614625,unknown,2,2025-04-21T15:23:09.773+03:00,2025-04-20T21:57:49.637+03:00,6680,0.9704633,0,0,5487.079,5,6,2025-04-21T15:22:28.502+03:00,766930995.0206352,0,-43.8,100.2578,1,0.45,2025-04-21T15:21:14.605+03:00,112,1.866666666666667,2025-04-21T12:30:07.995+03:00,0.02023345852159405,0
2025-04-21T15:23:16.050+03:00,1745238191.97542,40.95220265019029,29.14025662348531,76.02078,-1,-1,-1,-1,30.00645109687068,58.04164234037241,-9999,18399.139783,-0.6910400390625,0.6643524169921875,-0.2790679931640625,18399.134744,2.374638370075135,-1.184645396102856,-0.7220192474407948,0.03577138110995293,0.04303755983710289,0.003993676975369453,-0.01206338405609131,-0.00892406702041626,-0.0003118813037872314,XArbitraryZVertical,-0.3747247617933401,0.467180663293091,-0.7935753019956872,-0.1075251380141453,-0.6952119469642639,0.6609014272689819,-0.2826471626758575,0,0,0,-1,-1,18392.868614625,unknown,2,2025-04-21T15:23:09.773+03:00,2025-04-20T21:57:49.637+03:00,6680,0.9704633,0,0,5487.079,5,6,2025-04-21T15:22:28.502+03:00,766930995.0206352,0,-43.8,100.2578,1,0.45,2025-04-21T15:21:14.605+03:00,112,1.866666666666667,2025-04-21T12:30:07.995+03:00,0.02023345852159405,0
2025-04-21T15:23:16.059+03:00,1745238191.97542,40.95220265019029,29.14025662348531,76.02078,-1,-1,-1,-1,30.00645109687068,58.04164234037241,-9999,18399.149859,-0.6888427734375,0.6617431640625,-0.2819976806640625,18399.144821,2.375288502265654,-1.183560171519317,-0.7220479694319524,0.05396449938416481,0.0930144339799881,0.03556971251964569,-0.003126025199890137,0.0006674528121948242,0.002617239952087402,XArbitraryZVertical,-0.3744391254406025,0.4670098410603188,-0.7938124257125558,-0.1075120904814535,-0.6948872804641724,0.6609229445457458,-0.2833943068981171,0,0,0,-1,-1,18392.868614625,unknown,2,2025-04-21T15:23:09.773+03:00,2025-04-20T21:57:49.637+03:00,6680,0.9704633,0,0,5487.079,5,6,2025-04-21T15:22:28.502+03:00,766930995.0206352,0,-43.8,100.2578,1,0.45,2025-04-21T15:21:14.605+03:00,112,1.866666666666667,2025-04-21T12:30:07.995+03:00,0.02023345852159405,0
2025-04-21T15:23:16.070+03:00,1745238191.97542,40.95220265019029,29.14025662348531,76.02078,-1,-1,-1,-1,30.00645109687068,58.04164234037241,-9999,18399.159935,-0.7102508544921875,0.6549072265625,-0.286102294921875,18399.154897,2.376321133513871,-1.181718506898034,-0.722226818608555,0.06675992161035538,0.1241049841046333,0.05264203995466232,0.009730279445648193,0.004073202610015869,0.00398901104927063,XArbitraryZVertical,-0.3739067556045014,0.4667755093146215,-0.7942055744313726,-0.1074790052370318,-0.6942548155784607,0.66105717420578,-0.2846287190914154,0,0,0,-1,-1,18392.868614625,unknown,2,2025-04-21T15:23:09.773+03:00,2025-04-20T21:57:49.637+03:00,6680,0.9704633,0,0,5487.079,5,6,2025-04-21T15:22:28.502+03:00,766930995.0206352,0,-43.8,100.2578,1,0.45,2025-04-21T15:21:14.605+03:00,112,1.866666666666667,2025-04-21T12:30:07.995+03:00,0.02023345852159405,0
2025-04-21T15:23:16.080+03:00,1745238191.97542,40.95220265019029,29.14025662348531,76.02078,-1,-1,-1,-1,30.00645109687068,58.04164234037241,-9999,18399.170012,-0.70062255859375,0.663299560546875,-0.281951904296875,18399.164973,2.377233961670808,-1.18002794746617,-0.7224684157698701,0.04046972841024399,0.07451825588941574,0.03246087208390236,-0.009515285491943359,-0.005339503288269043,0.001149445772171021,XArbitraryZVertical,-0.3733911527859985,0.4665923707881076,-0.7945611351301876,-0.107439472774442,-0.6936250925064087,0.661238431930542,-0.2857412099838257,0,0,0,-1,-1,18392.868614625,unknown,2,2025-04-21T15:23:09.773+03:00,2025-04-20T21:57:49.637+03:00,6680,0.9704633,0,0,5487.079,5,6,2025-04-21T15:22:28.502+03:00,766930995.0206352,0,-43.8,100.2578,1,0.45,2025-04-21T15:21:14.605+03:00,112,1.866666666666667,2025-04-21T12:30:07.995+03:00,0.02023345852159405,0
2025-04-21T15:23:16.090+03:00,1745238191.97542,40.95220265019029,29.14025662348531,76.02078,-1,-1,-1,-1,30.00645109687068,58.04164234037241,-9999,18399.180088,-0.6577606201171875,0.6577301025390625,-0.2750091552734375,18399.17505,2.377482290379158,-1.179512188586193,-0.722581290376147,-0.002029459923505783,0.007307592779397964,0.005108909215778112,-0.0166286826133728,-0.000922858715057373,0.001738071441650391,XArbitraryZVertical,-0.3732175265456097,0.4665548831679623,-0.7946662878180255,-0.1074276614658981,-0.6934085488319397,0.6613231301307678,-0.2860704362392426,0,0,0,-1,-1,18392.868614625,unknown,2,2025-04-21T15:23:09.773+03:00,2025-04-20T21:57:49.637+03:00,6680,0.9704633,0,0,5487.079,5,6,2025-04-21T15:22:28.502+03:00,766930995.0206352,0,-43.8,100.2578,1,0.45,2025-04-21T15:21:14.605+03:00,112,1.866666666666667,2025-04-21T12:30:07.995+03:00,0.02023345852159405,0
2025-04-21T15:23:16.100+03:00,1745238191.97542,40.95220265019029,29.14025662348531,76.02078,-1,-1,-1,-1,30.00645109687068,58.04164234037241,-9999,18399.190164,-0.663421630859375,0.6510772705078125,-0.2831878662109375,18399.185126,2.377502448410999,-1.179394329321004,-0.7226507762209423,0.004341620020568371,0.01744598150253296,0.01140835043042898,0.02006876468658447,0.00148165225982666,0.009401082992553711,XArbitraryZVertical,-0.3731590131098766,0.466567303851512,-0.7946865864454193,-0.1074265011768792,-0.693332314491272,0.6613752245903015,-0.2861346006393433,0,0,0,-1,-1,18392.868614625,unknown,2,2025-04-21T15:23:09.773+03:00,2025-04-20T21:57:49.637+03:00,6680,0.9704633,0,0,5487.079,5,6,2025-04-21T15:22:28.502+03:00,766930995.0206352,0,-43.8,100.2578,1,0.45,2025-04-21T15:21:14.605+03:00,112,1.866666666666667,2025-04-21T12:30:07.995+03:00,0.02023345852159405,0
2025-04-21T15:23:16.110+03:00,1745238191.97542,40.95220265019029,29.14025662348531,76.02078,-1,-1,-1,-1,30.00645109687068,58.04164234037241,-9999,18399.200241,-0.7028656005859375,0.661468505859375,-0.29339599609375,18399.195202,2.377675286943827,-1.17909511278809,-0.7227421400260048,0.01349284127354622,0.01813394203782082,0.01420337148010731,0.04161006212234497,-0.01004618406295776,0.008563220500946045,XArbitraryZVertical,-0.3730588438294903,0.4665486024000735,-0.7947481301817301,-0.1074006329204614,-0.69319087266922,0.6614437699317932,-0.2863189876079559,0,0,0,-1,-1,18392.868614625,unknown,2,2025-04-21T15:23:09.773+03:00,2025-04-20T21:57:49.637+03:00,6680,0.9704633,0,0,5487.079,5,6,2025-04-21T15:22:28.502+03:00,766930995.0206352,0,-43.8,100.2578,1,0.45,2025-04-21T15:21:14.605+03:00,112,1.866666666666667,2025-04-21T12:30:07.995+03:00,0.02023345852159405,0
2025-04-21T15:23:16.120+03:00,1745238191.97542,40.95220265019029,29.14025662348531,76.02078,-1,-1,-1,-1,30.00645109687068,58.04164234037241,-9999,18399.210317,-0.6886444091796875,0.667938232421875,-0.2887115478515625,18399.205279,2.377848869110941,-1.178884205057521,-0.7227426654088557,0.009820075705647469,0.003800542559474707,0.005440505687147379,-3.093481063842773e-05,-0.004782319068908691,-0.005099952220916748,XArbitraryZVertical,-0.3730154241525004,0.4665050672059245,-0.7947967172133567,-0.1073806146220978,-0.6931300759315491,0.6614441275596619,-0.2864650189876556,0,0,0,-1,-1,18392.868614625,unknown,2,2025-04-21T15:23:09.773+03:00,2025-04-20T21:57:49.637+03:00,6680,0.9704633,0,0,5487.079,5,6,2025-04-21T15:22:28.502+03:00,766930995.0206352,0,-43.8,100.2578,1,0.45,2025-04-21T15:21:14.605+03:00,112,1.866666666666667,2025-04-21T12:30:07.995+03:00,0.02023345852159405,0
2025-04-21T15:23:16.130+03:00,1745238191.97542,40.95220265019029,29.14025662348531,76.02078,-1,-1,-1,-1,30.00645109687068,58.04164234037241,-9999,18399.220393,-0.6776123046875,0.6630706787109375,-0.2864227294921875,18399.215355,2.377998663816285,-1.178778459556866,-0.7227039898806423,0.01195080392062664,0.005793585907667875,0.00584394158795476,-0.005393445491790771,0.006004095077514648,-0.003780990839004517,XArbitraryZVertical,-0.3730174977902313,0.4664589096963224,-0.7948259501254991,-0.1073571060988457,-0.6931233406066895,0.661415159702301,-0.2865480780601501,0,0,0,-1,-1,18392.868614625,unknown,2,2025-04-21T15:23:09.773+03:00,2025-04-20T21:57:49.637+03:00,6680,0.9704633,0,0,5487.079,5,6,2025-04-21T15:22:28.502+03:00,766930995.0206352,0,-43.8,100.2578,1,0.45,2025-04-21T15:21:14.605+03:00,112,1.866666666666667,2025-04-21T12:30:07.995+03:00,0.02023345852159405,0
2025-04-21T15:23:16.140+03:00,1745238191.97542,40.95220265019029,29.14025662348531,76.02078,-1,-1,-1,-1,30.00645109687068,58.04164234037241,-9999,18399.23047,-0.6911468505859375,0.6568450927734375,-0.2833099365234375,18399.225431,2.378150420066104,-1.178595111146036,-0.7226898790879274,0.01201471965759993,0.0106743611395359,0.002928046509623528,0.01607745885848999,0.004031002521514893,0.0004695355892181396,XArbitraryZVertical,-0.3729833597757103,0.4664161898759438,-0.794868835949864,-0.1073437127421478,-0.69307941198349,0.661404550075531,-0.2866787016391754,0,0,0,-1,-1,18392.868614625,unknown,2,2025-04-21T15:23:09.773+03:00,2025-04-20T21:57:49.637+03:00,6680,0.9704633,0,0,5487.079,5,6,2025-04-21T15:22:28.502+03:00,766930995.0206352,0,-43.8,100.2578,1,0.45,2025-04-21T15:21:14.605+03:00,112,1.866666666666667,2025-04-21T12:30:07.995+03:00,0.02023345852159405,0
2025-04-21T15:23:16.150+03:00,1745238191.97542,40.95220265019029,29.14025662348531,76.02078,-1,-1,-1,-1,30.00645109687068,58.04164234037241,-9999,18399.240546,-0.690643310546875,0.655181884765625,-0.2834320068359375,18399.235508,2.378253719346977,-1.178430547891258,-0.7227020255388228,0.005544104147702456,0.007437888067215681,0.0009498836589045823,0.006867706775665283,-0.002890288829803467,0.002457380294799805,XArbitraryZVertical,-0.3729391245875701,0.4663920421441559,-0.7949046932754156,-0.1073376060839666,-0.6930249333381653,0.6614136695861816,-0.286789745092392,0,0,0,-1,-1,18392.868614625,unknown,2,2025-04-21T15:23:09.773+03:00,2025-04-20T21:57:49.637+03:00,6680,0.9704633,0,0,5487.079,5,6,2025-04-21T15:22:28.502+03:00,766930995.0206352,0,-43.8,100.2578,1,0.45,2025-04-21T15:21:14.605+03:00,112,1.866666666666667,2025-04-21T12:30:07.995+03:00,0.02023345852159405,0
2025-04-21T15:23:16.160+03:00,1745238191.97542,40.95220265019029,29.14025662348531,76.02078,-1,-1,-1,-1,30.00645109687068,58.04164234037241,-9999,18399.250622,-0.685272216796875,0.651824951171875,-0.283203125,18399.245584,2.37828072336831,-1.178350481598246,-0.722659520075412,0.0006918246508575976,0.008180909790098667,0.0004042019718326628,1.955032348632812e-05,-0.006062686443328857,0.003576487302780151,XArbitraryZVertical,-0.3729236023872491,0.4663689301187057,-0.7949228086445407,-0.1073582081699248,-0.6930280327796936,0.6613817811012268,-0.2868560254573822,0,0,0,-1,-1,18392.868614625,unknown,2,2025-04-21T15:23:09.773+03:00,2025-04-20T21:57:49.637+03:00,6680,0.9704633,0,0,5487.079,5,6,2025-04-21T15:22:28.502+03:00,766930995.0206352,0,-43.8,100.2578,1,0.45,2025-04-21T15:21:14.605+03:00,112,1.866666666666667,2025-04-21T12:30:07.995+03:00,0.02023345852159405,0
2025-04-21T15:23:16.170+03:00,1745238191.97542,40.95220265019029,29.14025662348531,76.02078,-1,-1,-1,-1,30.00645109687068,58.04164234037241,-9999,18399.260699,-0.686981201171875,0.65234375,-0.281982421875,18399.25566,2.378264098039188,-1.178304851094194,-0.7226422886109708,-0.0005826976266689599,0.005250966642051935,0.0003994415747001767,0.00631868839263916,-0.007438421249389648,0.003139406442642212,XArbitraryZVertical,-0.3729057435277326,0.4663639772132384,-0.7949309325373293,-0.1073802809934869,-0.6930252313613892,0.6613688468933105,-0.286891907453537,0,0,0,-1,-1,18392.868614625,unknown,2,2025-04-21T15:23:09.773+03:00,2025-04-20T21:57:49.637+03:00,6680,0.9704633,0,0,5487.079,5,6,2025-04-21T15:22:28.502+03:00,766930995.0206352,0,-43.8,100.2578,1,0.45,2025-04-21T15:21:14.605+03:00,112,1.866666666666667,2025-04-21T12:30:07.995+03:00,0.02023345852159405,0
2025-04-21T15:23:16.180+03:00,1745238191.97542,40.95220265019029,29.14025662348531,76.02078,-1,-1,-1,-1,30.00645109687068,58.04164234037241,-9999,18399.270775,-0.6855010986328125,0.65496826171875,-0.2828826904296875,18399.265737,2.37822635084288,-1.17829687219998,-0.7227028637435293,-0.003225086024031043,0.002095653442665935,0.001074286643415689,0.005608141422271729,-0.01023030281066895,0.004502922296524048,XArbitraryZVertical,-0.3728793967299406,0.4663902442913124,-0.7949281496656293,-0.1073794625654704,-0.6929861307144165,0.6614142656326294,-0.2868821918964386,0,0,0,-1,-1,18392.868614625,unknown,2,2025-04-21T15:23:09.773+03:00,2025-04-20T21:57:49.637+03:00,6680,0.9704633,0,0,5487.079,5,6,2025-04-21T15:22:28.502+03:00,766930995.0206352,0,-43.8,100.2578,1,0.45,2025-04-21T15:21:14.605+03:00,112,1.866666666666667,2025-04-21T12:30:07.995+03:00,0.02023345852159405,0
2025-04-21T15:23:16.190+03:00,1745238191.97542,40.95220265019029,29.14025662348531,76.02078,-1,-1,-1,-1,30.00645109687068,58.04164234037241,-9999,18399.280851,-0.6875762939453125,0.6612548828125,-0.2818145751953125,18399.275813,2.37824345576448,-1.17823911277391,-0.7227823967452304,0.007282282691448927,0.005681999493390322,-0.001334609114564955,0.006366908550262451,-0.008016407489776611,0.004568606615066528,XArbitraryZVertical,-0.3728416730130897,0.4664097440177744,-0.794936657452647,-0.1073625521530357,-0.6929209232330322,0.6614739298820496,-0.2869020700454712,0,0,0,-1,-1,18392.868614625,unknown,2,2025-04-21T15:23:09.773+03:00,2025-04-20T21:57:49.637+03:00,6680,0.9704633,0,0,5487.079,5,6,2025-04-21T15:22:28.502+03:00,766930995.0206352,0,-43.8,100.2578,1,0.45,2025-04-21T15:21:14.605+03:00,112,1.866666666666667,2025-04-21T12:30:07.995+03:00,0.02023345852159405,0
2025-04-21T15:23:16.201+03:00,1745238191.97542,40.95220265019029,29.14025662348531,76.02078,-1,-1,-1,-1,30.00645109687068,58.04164234037241,-9999,18399.290928,-0.695526123046875,0.6663818359375,-0.2820281982421875,18399.285889,2.378349491786819,-1.178068831971246,-0.7227117965193771,0.01159021258354187,0.01311434991657734,-0.003323724027723074,0.006727397441864014,-0.003034889698028564,0.004933357238769531,XArbitraryZVertical,-0.3728153810555038,0.4663579383540499,-0.7949768837088311,-0.1073809933693666,-0.6929152011871338,0.661421000957489,-0.2870379388332367,0,0,0,-1,-1,18392.868614625,unknown,2,2025-04-21T15:23:09.773+03:00,2025-04-20T21:57:49.637+03:00,6680,0.9704633,0,0,5487.079,5,6,2025-04-21T15:22:28.502+03:00,766930995.0206352,0,-43.8,100.2578,1,0.45,2025-04-21T15:21:14.605+03:00,112,1.866666666666667,2025-04-21T12:30:07.995+03:00,0.02023345852159405,0
2025-04-21T15:23:16.211+03:00,1745238191.97542,40.95220265019029,29.14025662348531,76.02078,-1,-1,-1,-1,30.00645109687068,58.04164234037241,-9999,18399.301004,-0.6982421875,0.6659698486328125,-0.283660888671875,18399.295966,2.378501788370228,-1.177830249524654,-0.7226162226501049,0.01427141577005386,0.0140168284997344,-0.004900348838418722,4.917383193969727e-05,0.00324702262878418,0.005260199308395386,XArbitraryZVertical,-0.3727786302639632,0.4662857337480514,-0.7950332721478574,-0.1074042803519592,-0.6929050087928772,0.6613492965698242,-0.2872274219989777,0,0,0,-1,-1,18392.868614625,unknown,2,2025-04-21T15:23:09.773+03:00,2025-04-20T21:57:49.637+03:00,6680,0.9704633,0,0,5487.079,5,6,2025-04-21T15:22:28.502+03:00,766930995.0206352,0,-43.8,100.2578,1,0.45,2025-04-21T15:21:14.605+03:00,112,1.866666666666667,2025-04-21T12:30:07.995+03:00,0.02023345852159405,0
2025-04-21T15:23:16.221+03:00,1745238191.97542,40.95220265019029,29.14025662348531,76.02078,-1,-1,-1,-1,30.00645109687068,58.04164234037241,-9999,18399.31108,-0.69439697265625,0.663330078125,-0.2862548828125,18399.306042,2.378669731498123,-1.177530770401695,-0.7225475972331904,0.0151934027671814,0.01786163449287415,-0.00768228666856885,-0.004954040050506592,0.005938291549682617,0.005042582750320435,XArbitraryZVertical,-0.3727149299951822,0.4662160825398449,-0.7951008090026576,-0.1074275995409348,-0.6928608417510986,0.6612978577613831,-0.2874522805213928,0,0,0,-1,-1,18392.868614625,unknown,2,2025-04-21T15:23:09.773+03:00,2025-04-20T21:57:49.637+03:00,6680,0.9704633,0,0,5487.079,5,6,2025-04-21T15:22:28.502+03:00,766930995.0206352,0,-43.8,100.2578,1,0.45,2025-04-21T15:21:14.605+03:00,112,1.866666666666667,2025-04-21T12:30:07.995+03:00,0.02023345852159405,0
2025-04-21T15:23:16.231+03:00,1745238191.97542,40.95220265019029,29.14025662348531,76.02078,-1,-1,-1,-1,30.00645109687068,58.04164234037241,-9999,18399.321157,-0.693817138671875,0.6601104736328125,-0.287872314453125,18399.316118,2.378787207567476,-1.177281280085299,-0.7224361498192434,0.01117495913058519,0.01506584696471691,-0.009512810967862606,-0.003401339054107666,0.00289386510848999,0.002817511558532715,XArbitraryZVertical,-0.3726693972499198,0.4661446245107663,-0.795158068830094,-0.1074720577390915,-0.6928572058677673,0.6612142324447632,-0.2876534163951874,0,0,0,-1,-1,18392.868614625,unknown,2,2025-04-21T15:23:09.773+03:00,2025-04-20T21:57:49.637+03:00,6680,0.9704633,0,0,5487.079,5,6,2025-04-21T15:22:28.502+03:00,766930995.0206352,0,-43.8,100.2578,1,0.45,2025-04-21T15:21:14.605+03:00,112,1.866666666666667,2025-04-21T12:30:07.995+03:00,0.02023345852159405,0
2025-04-21T15:23:16.241+03:00,1745238191.97542,40.95220265019029,29.14025662348531,76.02078,-1,-1,-1,-1,30.00645109687068,58.04164234037241,-9999,18399.331233,-0.6918487548828125,0.6543121337890625,-0.288726806640625,18399.326195,2.378850104000294,-1.177113837104901,-0.7223322950187248,0.008665994741022587,0.01328339334577322,-0.00347089720889926,-0.000929415225982666,0.001354336738586426,0.001083105802536011,XArbitraryZVertical,-0.3726419747355579,0.466090198626117,-0.7951967798949234,-0.1075167934150618,-0.6928724646568298,0.6611363291740417,-0.2877957820892334,0,0,0,-1,-1,18392.868614625,unknown,2,2025-04-21T15:23:09.773+03:00,2025-04-20T21:57:49.637+03:00,6680,0.9704633,0,0,5487.079,5,6,2025-04-21T15:22:28.502+03:00,766930995.0206352,0,-43.8,100.2578,1,0.45,2025-04-21T15:21:14.605+03:00,112,1.866666666666667,2025-04-21T12:30:07.995+03:00,0.02023345852159405,0
2025-04-21T15:23:16.251+03:00,1745238191.97542,40.95220265019029,29.14025662348531,76.02078,-1,-1,-1,-1,30.00645109687068,58.04164234037241,-9999,18399.341309,-0.6904449462890625,0.653411865234375,-0.2904815673828125,18399.336271,2.378916776900509,-1.176980612420597,-0.7222614277418306,0.008591293357312679,0.008348689414560795,-0.002507565077394247,0.0002809762954711914,-0.004268646240234375,-0.000958174467086792,XArbitraryZVertical,-0.3726212184533697,0.4660476159138249,-0.7952280727687303,-0.1075423943721436,-0.692877471446991,0.6610831618309021,-0.2879060804843903,0,0,0,-1,-1,18392.868614625,unknown,2,2025-04-21T15:23:09.773+03:00,2025-04-20T21:57:49.637+03:00,6680,0.9704633,0,0,5487.079,5,6,2025-04-21T15:22:28.502+03:00,766930995.0206352,0,-43.8,100.2578,1,0.45,2025-04-21T15:21:14.605+03:00,112,1.866666666666667,2025-04-21T12:30:07.995+03:00,0.02023345852159405,0
2025-04-21T15:23:16.261+03:00,1745238191.97542,40.95220265019029,29.14025662348531,76.02078,-1,-1,-1,-1,30.00645109687068,58.04164234037241,-9999,18399.351386,-0.6870574951171875,0.659454345703125,-0.2904815673828125,18399.346347,2.379001228438439,-1.176854215841739,-0.7221859121541372,0.01346487738192081,0.007783566601574421,-0.00168411573395133,0.00160294771194458,-0.007553696632385254,-0.001797467470169067,XArbitraryZVertical,-0.3726084375385572,0.4660005710606941,-0.7952591820553836,-0.1075606203166827,-0.6928871870040894,0.6610264778137207,-0.288012832403183,0,0,0,-1,-1,18392.868614625,unknown,2,2025-04-21T15:23:09.773+03:00,2025-04-20T21:57:49.637+03:00,6680,0.9704633,0,0,5487.079,5,6,2025-04-21T15:22:28.502+03:00,766930995.0206352,0,-43.8,100.2578,1,0.45,2025-04-21T15:21:14.605+03:00,112,1.866666666666667,2025-04-21T12:30:07.995+03:00,0.02023345852159405,0
2025-04-21T15:23:16.271+03:00,1745238191.97542,40.95220265019029,29.14025662348531,76.02078,-1,-1,-1,-1,30.00645109687068,58.04164234037241,-9999,18399.361462,-0.6848907470703125,0.6707305908203125,-0.2913665771484375,18399.356424,2.379219128382255,-1.17665149688188,-0.7220770355134786,0.02541015483438969,0.007668984122574329,-0.007292366586625576,0.004571199417114258,-0.005259454250335693,-0.00312468409538269,XArbitraryZVertical,-0.3726042577918334,0.4659137234388388,-0.7953130114290259,-0.1075534102234578,-0.692895233631134,0.6609447598457336,-0.288180947303772,0,0,0,-1,-1,18392.868614625,unknown,2,2025-04-21T15:23:09.773+03:00,2025-04-20T21:57:49.637+03:00,6680,0.9704633,0,0,5487.079,5,6,2025-04-21T15:22:28.502+03:00,766930995.0206352,0,-43.8,100.2578,1,0.45,2025-04-21T15:21:14.605+03:00,112,1.866666666666667,2025-04-21T12:30:07.995+03:00,0.02023345852159405,0
2025-04-21T15:23:16.281+03:00,1745238191.97542,40.95220265019029,29.14025662348531,76.02078,-1,-1,-1,-1,30.00645109687068,58.04164234037241,-9999,18399.371538,-0.687896728515625,0.670501708984375,-0.28619384765625,18399.3665,2.379524152769172,-1.176382983654657,-0.7219240613993138,0.02956335432827473,0.009262086823582649,-0.005446263588964939,0.007730305194854736,0.006589233875274658,-0.002716749906539917,XArbitraryZVertical,-0.3726046695101725,0.4657927616309679,-0.7953853599424379,-0.1075396020998835,-0.69291090965271,0.6608299612998962,-0.28840571641922,0,0,0,-1,-1,18392.868614625,unknown,2,2025-04-21T15:23:09.773+03:00,2025-04-20T21:57:49.637+03:00,6680,0.9704633,0,0,5487.079,5,6,2025-04-21T15:22:28.502+03:00,766930995.0206352,0,-43.8,100.2578,1,0.45,2025-04-21T15:21:14.605+03:00,112,1.866666666666667,2025-04-21T12:30:07.995+03:00,0.02023345852159405,0
2025-04-21T15:23:16.291+03:00,1745238191.97542,40.95220265019029,29.14025662348531,76.02078,-1,-1,-1,-1,30.00645109687068,58.04164234037241,-9999,18399.381615,-0.6949462890625,0.6615142822265625,-0.277679443359375,18399.376576,2.379840997588778,-1.176060909114461,-0.7217473258527098,0.03092829138040543,0.01818747073411942,-0.01010862644761801,0.006600797176361084,0.01131480932235718,-0.0009075701236724854,XArbitraryZVertical,-0.3725919984838116,0.465659000255259,-0.7954694564158271,-0.1075408350848186,-0.6929258108139038,0.660697340965271,-0.2886737883090973,0,0,0,-1,-1,18392.868614625,unknown,2,2025-04-21T15:23:09.773+03:00,2025-04-20T21:57:49.637+03:00,6680,0.9704633,0,0,5487.079,5,6,2025-04-21T15:22:28.502+03:00,766930995.0206352,0,-43.8,100.2578,1,0.45,2025-04-21T15:21:14.605+03:00,112,1.866666666666667,2025-04-21T12:30:07.995+03:00,0.02023345852159405,0
2025-04-21T15:23:16.301+03:00,1745238191.97542,40.95220265019029,29.14025662348531,76.02078,-1,-1,-1,-1,30.00645109687068,58.04164234037241,-9999,18399.391691,-0.6988067626953125,0.65899658203125,-0.2772369384765625,18399.386653,2.380166239683497,-1.175656672630699,-0.7215390997859052,0.03105931915342808,0.02284054830670357,-0.007991946302354336,0.0006142854690551758,0.005215048789978027,0.00902324914932251,XArbitraryZVertical,-0.3725559516699877,0.4655090065314905,-0.7955706082694657,-0.1075671614370939,-0.69293612241745,0.6605409979820251,-0.2890068590641022,0,0,0,-1,-1,18392.868614625,unknown,2,2025-04-21T15:23:09.773+03:00,2025-04-20T21:57:49.637+03:00,6680,0.9704633,0,0,5487.079,5,6,2025-04-21T15:22:28.502+03:00,766930995.0206352,0,-43.8,100.2578,1,0.45,2025-04-21T15:21:14.605+03:00,112,1.866666666666667,2025-04-21T12:30:07.995+03:00,0.02023345852159405,0
2025-04-21T15:23:16.311+03:00,1745238191.97542,40.95220265019029,29.14025662348531,76.02078,-1,-1,-1,-1,30.00645109687068,58.04164234037241,-9999,18399.401767,-0.69720458984375,0.6562042236328125,-0.2835845947265625,18399.396729,2.380430036969459,-1.175252090300095,-0.7213526091656538,0.02189524658024311,0.02468917891383171,-0.01077861152589321,-0.004927933216094971,-0.002381086349487305,0.01240283250808716,XArbitraryZVertical,-0.3725003005770487,0.4653774796536104,-0.7956676382874622,-0.1076115004199156,-0.6929327845573425,0.6604009866714478,-0.2893346548080444,0,0,0,-1,-1,18392.868614625,unknown,2,2025-04-21T15:23:09.773+03:00,2025-04-20T21:57:49.637+03:00,6680,0.9704633,0,0,5487.079,5,6,2025-04-21T15:22:28.502+03:00,766930995.0206352,0,-43.8,100.2578,1,0.45,2025-04-21T15:21:14.605+03:00,112,1.866666666666667,2025-04-21T12:30:07.995+03:00,0.02023345852159405,0
2025-04-21T15:23:16.322+03:00,1745238191.97542,40.95220265019029,29.14025662348531,76.02078,-1,-1,-1,-1,30.00645109687068,58.04164234037241,-9999,18399.411844,-0.68927001953125,0.64495849609375,-0.2888946533203125,18399.406805,2.380525098457135,-1.174999940498446,-0.7212068786427068,0.005271796137094498,0.0151563948020339,-0.01295414753258228,-0.006575286388397217,-0.001020431518554688,0.008189618587493896,XArbitraryZVertical,-0.3724563986896213,0.4652988161492702,-0.7957255712501319,-0.1076754259466413,-0.6929486393928528,0.6602915525436401,-0.2895464897155762,0,0,0,-1,-1,18392.868614625,unknown,2,2025-04-21T15:23:09.773+03:00,2025-04-20T21:57:49.637+03:00,6680,0.9704633,0,0,5487.079,5,6,2025-04-21T15:22:28.502+03:00,766930995.0206352,0,-43.8,100.2578,1,0.45,2025-04-21T15:21:14.605+03:00,112,1.866666666666667,2025-04-21T12:30:07.995+03:00,0.02023345852159405,0
2025-04-21T15:23:16.332+03:00,1745238191.97542,40.95220265019029,29.14025662348531,76.02078,-1,-1,-1,-1,30.00645109687068,58.04164234037241,-9999,18399.42192,-0.686065673828125,0.6473388671875,-0.29229736328125,18399.416882,2.38047484640304,-1.174931966796691,-0.7210891982187221,-0.004712461493909359,0.00689094141125679,-0.01160715334117413,0.001197695732116699,-0.01176583766937256,0.002041101455688477,XArbitraryZVertical,-0.3724453628567177,0.465266240843336,-0.7957402410884711,-0.1077459987193986,-0.6930006742477417,0.6602031588554382,-0.2896235585212708,0,0,0,-1,-1,18392.868614625,unknown,2,2025-04-21T15:23:09.773+03:00,2025-04-20T21:57:49.637+03:00,6680,0.9704633,0,0,5487.079,5,6,2025-04-21T15:22:28.502+03:00,766930995.0206352,0,-43.8,100.2578,1,0.45,2025-04-21T15:21:14.605+03:00,112,1.866666666666667,2025-04-21T12:30:07.995+03:00,0.02023345852159405,0
2025-04-21T15:23:16.342+03:00,1745238191.97542,40.95220265019029,29.14025662348531,76.02078,-1,-1,-1,-1,30.00645109687068,58.04164234037241,-9999,18399.431996,-0.683807373046875,0.6490325927734375,-0.294769287109375,18399.426958,2.380367075299029,-1.17497580187048,-0.7209997714115036,-0.002808833960443735,-0.002807491924613714,-0.009803661145269871,0.006986856460571289,-0.01488780975341797,-0.001918584108352661,XArbitraryZVertical,-0.3724588156054622,0.4652595828040997,-0.7957297856661656,-0.1078049930130775,-0.693067729473114,0.6601359844207764,-0.2896158993244171,0,0,0,-1,-1,18392.868614625,unknown,2,2025-04-21T15:23:09.773+03:00,2025-04-20T21:57:49.637+03:00,6680,0.9704633,0,0,5487.079,5,6,2025-04-21T15:22:28.502+03:00,766930995.0206352,0,-43.8,100.2578,1,0.45,2025-04-21T15:21:14.605+03:00,112,1.866666666666667,2025-04-21T12:30:07.995+03:00,0.02023345852159405,0
2025-04-21T15:23:16.352+03:00,1745238191.97542,40.95220265019029,29.14025662348531,76.02078,-1,-1,-1,-1,30.00645109687068,58.04164234037241,-9999,18399.442073,-0.6851806640625,0.6563262939453125,-0.29046630859375,18399.437034,2.380334604545938,-1.17503186218817,-0.7209042956410308,0.002503373427316546,-0.006794777233153582,-0.01134283468127251,0.008693873882293701,-0.0106809139251709,-0.005106955766677856,XArbitraryZVertical,-0.3724960614205269,0.4652375975106117,-0.7957213733516502,-0.1078330101385283,-0.6931421160697937,0.6600642800331116,-0.2896013259887695,0,0,0,-1,-1,18392.868614625,unknown,2,2025-04-21T15:23:09.773+03:00,2025-04-20T21:57:49.637+03:00,6680,0.9704633,0,0,5487.079,5,6,2025-04-21T15:22:28.502+03:00,766930995.0206352,0,-43.8,100.2578,1,0.45,2025-04-21T15:21:14.605+03:00,112,1.866666666666667,2025-04-21T12:30:07.995+03:00,0.02023345852159405,0
2025-04-21T15:23:16.362+03:00,1745238191.97542,40.95220265019029,29.14025662348531,76.02078,-1,-1,-1,-1,30.00645109687068,58.04164234037241,-9999,18399.452149,-0.6862640380859375,0.665313720703125,-0.2905426025390625,18399.447111,2.380389449982584,-1.17502697814789,-0.7208061626785789,0.01332140062004328,-0.00224370090290904,-0.0116887791082263,0.008889615535736084,-0.00729602575302124,-0.002042144536972046,XArbitraryZVertical,-0.3725299733935004,0.4651952026497188,-0.7957291664395885,-0.1078413175464225,-0.6932004690170288,0.6599905490875244,-0.2896296977996826,0,0,0,-1,-1,18392.868614625,unknown,2,2025-04-21T15:23:09.773+03:00,2025-04-20T21:57:49.637+03:00,6680,0.9704633,0,0,5487.079,5,6,2025-04-21T15:22:28.502+03:00,766930995.0206352,0,-43.8,100.2578,1,0.45,2025-04-21T15:21:14.605+03:00,112,1.866666666666667,2025-04-21T12:30:07.995+03:00,0.02023345852159405,0
2025-04-21T15:23:16.387+03:00,1745238191.97542,40.95220265019029,29.14025662348531,76.02078,-1,-1,-1,-1,30.00645109687068,58.04164234037241,-9999,18399.462225,-0.68902587890625,0.666534423828125,-0.2876739501953125,18399.457187,2.380520187650149,-1.174920044416492,-0.7206636715138879,0.01680434867739677,0.001788391266018152,-0.01534806285053492,0.00773996114730835,0.003537952899932861,-0.0002227723598480225,XArbitraryZVertical,-0.3725513645133926,0.4651187367002447,-0.7957618433373852,-0.1078562789786581,-0.6932562589645386,0.6598834991455078,-0.2897400856018066,0,0,0,-1,-1,18392.868614625,unknown,2,2025-04-21T15:23:09.773+03:00,2025-04-20T21:57:49.637+03:00,6680,0.9704633,0,0,5487.079,5,6,2025-04-21T15:22:28.502+03:00,766930995.0206352,0,-43.8,100.2578,1,0.45,2025-04-21T15:21:14.605+03:00,112,1.866666666666667,2025-04-21T12:30:07.995+03:00,0.02023345852159405,0
2025-04-21T15:23:16.390+03:00,1745238191.97542,40.95220265019029,29.14025662348531,76.02078,-1,-1,-1,-1,30.00645109687068,58.04164234037241,-9999,18399.472302,-0.690093994140625,0.663330078125,-0.2857513427734375,18399.467263,2.380588995977861,-1.174891914346391,-0.7205185854010715,0.009414875879883766,0.001402499154210091,-0.01270061451941729,0.00543975830078125,0.006942868232727051,0.0006576478481292725,XArbitraryZVertical,-0.3725903192289894,0.4650572032435808,-0.7957765867730596,-0.1078782845244197,-0.6933364272117615,0.6597744822502136,-0.2897965013980865,0,0,0,-1,-1,18392.868614625,unknown,2,2025-04-21T15:23:09.773+03:00,2025-04-20T21:57:49.637+03:00,6680,0.9704633,0,0,5487.079,5,6,2025-04-21T15:22:28.502+03:00,766930995.0206352,0,-43.8,100.2578,1,0.45,2025-04-21T15:21:14.605+03:00,112,1.866666666666667,2025-04-21T12:30:07.995+03:00,0.02023345852159405,0
2025-04-21T15:23:16.392+03:00,1745238191.97542,40.95220265019029,29.14025662348531,76.02078,-1,-1,-1,-1,30.00645109687068,58.04164234037241,-9999,18399.482378,-0.69085693359375,0.6488189697265625,-0.2828826904296875,18399.47734,2.380531999702889,-1.174952933806295,-0.7203568788864997,0.0009883010061457753,0.002185401972383261,-0.01674013026058674,0.003404378890991211,0.006377756595611572,0.003372520208358765,XArbitraryZVertical,-0.3726394069431839,0.4650185055052219,-0.7957685817020117,-0.107934504666624,-0.6934525370597839,0.6596529483795166,-0.289795309305191,0,0,0,-1,-1,18392.868614625,unknown,2,2025-04-21T15:23:09.773+03:00,2025-04-20T21:57:49.637+03:00,6680,0.9704633,0,0,5487.079,5,6,2025-04-21T15:22:28.502+03:00,766930995.0206352,0,-43.8,100.2578,1,0.45,2025-04-21T15:21:14.605+03:00,112,1.866666666666667,2025-04-21T12:30:07.995+03:00,0.02023345852159405,0
2025-04-21T15:23:16.402+03:00,1745238191.97542,40.95220265019029,29.14025662348531,76.02078,-1,-1,-1,-1,30.00645109687068,58.04164234037241,-9999,18399.492454,-0.6963043212890625,0.64923095703125,-0.28759765625,18399.487416,2.380385599076933,-1.175045136790188,-0.7202144216586189,-0.007652857340872288,0.003232823219150305,-0.01250730268657207,0.003762006759643555,-0.005935788154602051,0.005542099475860596,XArbitraryZVertical,-0.3726755420089364,0.4650044236092156,-0.7957492473892265,-0.1080135009154519,-0.6935660839080811,0.6595458388328552,-0.2897676527500153,0,0,0,-1,-1,18392.868614625,unknown,2,2025-04-21T15:23:09.773+03:00,2025-04-20T21:57:49.637+03:00,6680,0.9704633,0,0,5487.079,5,6,2025-04-21T15:22:28.502+03:00,766930995.0206352,0,-43.8,100.2578,1,0.45,2025-04-21T15:21:14.605+03:00,112,1.866666666666667,2025-04-21T12:30:07.995+03:00,0.02023345852159405,0
2025-04-21T15:23:16.412+03:00,1745238191.97542,40.95220265019029,29.14025662348531,76.02078,-1,-1,-1,-1,30.00645109687068,58.04164234037241,-9999,18399.502531,-0.6950836181640625,0.651092529296875,-0.295654296875,18399.497493,2.380222635159442,-1.17514180962636,-0.7201129406649163,-0.006906107533723116,0.0005563464947044849,-0.01256895437836647,-0.001092135906219482,-0.01257336139678955,0.005241453647613525,XArbitraryZVertical,-0.3727000153457076,0.4650069987900849,-0.7957264347375358,-0.1080857821684439,-0.693655788898468,0.6594696044921875,-0.2897263765335083,0,0,0,-1,-1,18392.868614625,unknown,2,2025-04-21T15:23:09.773+03:00,2025-04-20T21:57:49.637+03:00,6680,0.9704633,0,0,5487.079,5,6,2025-04-21T15:22:28.502+03:00,766930995.0206352,0,-43.8,100.2578,1,0.45,2025-04-21T15:21:14.605+03:00,112,1.866666666666667,2025-04-21T12:30:07.995+03:00,0.02023345852159405,0
2025-04-21T15:23:16.422+03:00,1745238191.97542,40.95220265019029,29.14025662348531,76.02078,-1,-1,-1,-1,30.00645109687068,58.04164234037241,-9999,18399.512607,-0.6895751953125,0.6480255126953125,-0.3031768798828125,18399.507569,2.380104186754337,-1.175230160126601,-0.7200075584172858,-0.002900180406868458,-0.007011292036622763,-0.009611247107386589,-0.00294029712677002,-0.007840216159820557,-0.002803921699523926,XArbitraryZVertical,-0.3727324459322007,0.4649995666257573,-0.7957077234867377,-0.1081434412672642,-0.693745493888855,0.6593903303146362,-0.2896918654441833,0,0,0,-1,-1,18392.868614625,unknown,2,2025-04-21T15:23:09.773+03:00,2025-04-20T21:57:49.637+03:00,6680,0.9704633,0,0,5487.079,5,6,2025-04-21T15:22:28.502+03:00,766930995.0206352,0,-43.8,100.2578,1,0.45,2025-04-21T15:21:14.605+03:00,112,1.866666666666667,2025-04-21T12:30:07.995+03:00,0.02023345852159405,0
2025-04-21T15:23:16.432+03:00,1745238191.97542,40.95220265019029,29.14025662348531,76.02078,-1,-1,-1,-1,30.00645109687068,58.04164234037241,-9999,18399.522683,-0.685577392578125,0.656219482421875,-0.3100128173828125,18399.517645,2.380041540287223,-1.175285715203001,-0.719925347901931,-0.006860700435936451,-0.004269700963050127,-0.009796537458896637,0.001657664775848389,-0.01113539934158325,-0.01051202416419983,XArbitraryZVertical,-0.3727593516800803,0.4649875026033026,-0.7956972093093053,-0.1081796737595595,-0.6938115358352661,0.6593285202980042,-0.2896741628646851,0,0,0,-1,-1,18392.868614625,unknown,2,2025-04-21T15:23:09.773+03:00,2025-04-20T21:57:49.637+03:00,6680,0.9704633,0,0,5487.079,5,6,2025-04-21T15:22:28.502+03:00,766930995.0206352,0,-43.8,100.2578,1,0.45,2025-04-21T15:21:14.605+03:00,112,1.866666666666667,2025-04-21T12:30:07.995+03:00,0.02023345852159405,0
2025-04-21T15:23:16.442+03:00,1745238191.97542,40.95220265019029,29.14025662348531,76.02078,-1,-1,-1,-1,30.00645109687068,58.04164234037241,-9999,18399.53276,-0.68402099609375,0.657440185546875,-0.30804443359375,18399.527721,2.379697195356386,-1.175466557150836,-0.719888662133262,-0.04724008217453957,0.01320223324000835,-0.01702462136745453,0.007393479347229004,-0.006957292556762695,-0.01860854029655457,XArbitraryZVertical,-0.3727597944965776,0.465049548972142,-0.7956464724372296,-0.1082856896715345,-0.6938864588737488,0.6593009829521179,-0.2895581126213074,0,0,0,-1,-1,18392.868614625,unknown,2,2025-04-21T15:23:09.773+03:00,2025-04-20T21:57:49.637+03:00,6680,0.9704633,0,0,5487.079,5,6,2025-04-21T15:22:28.502+03:00,766930995.0206352,0,-43.8,100.2578,1,0.45,2025-04-21T15:21:14.605+03:00,112,1.866666666666667,2025-04-21T12:30:07.995+03:00,0.02023345852159405,0
2025-04-21T15:23:16.452+03:00,1745238191.97542,40.95220265019029,29.14025662348531,76.02078,-1,-1,-1,-1,30.00645109687068,58.04164234037241,-9999,18399.542836,-0.688201904296875,0.6418304443359375,-0.305572509765625,18399.537798,2.378653150363118,-1.175934411792948,-0.7200654253031312,-0.1148366332054138,0.02883212640881538,-0.01904592849314213,0.009725391864776611,0.0002644658088684082,-0.02003085613250732,XArbitraryZVertical,-0.3726614279211128,0.4653269394248459,-0.7954957082699184,-0.1085399544608661,-0.6939142346382141,0.6594338417053223,-0.2891885936260223,0,0,0,-1,-1,18392.868614625,unknown,2,2025-04-21T15:23:09.773+03:00,2025-04-20T21:57:49.637+03:00,6680,0.9704633,0,0,5487.079,5,6,2025-04-21T15:22:28.502+03:00,766930995.0206352,0,-43.8,100.2578,1,0.45,2025-04-21T15:21:14.605+03:00,112,1.866666666666667,2025-04-21T12:30:07.995+03:00,0.02023345852159405,0
2025-04-21T15:23:16.463+03:00,1745238191.97542,40.95220265019029,29.14025662348531,76.02078,-1,-1,-1,-1,30.00645109687068,58.04164234037241,-9999,18399.552912,-0.69207763671875,0.630828857421875,-0.3003387451171875,18399.547874,2.376854471010631,-1.176855384691333,-0.7204969852013123,-0.1911340653896332,0.01779598742723465,-0.01285594329237938,0.008065342903137207,-0.01255679130554199,-0.01847526431083679,XArbitraryZVertical,-0.3725071849691237,0.465852257165972,-0.795209415376151,-0.1089133023116553,-0.693917453289032,0.6597582101821899,-0.2884401381015778,0,0,0,-1,-1,18392.868614625,unknown,2,2025-04-21T15:23:09.773+03:00,2025-04-20T21:57:49.637+03:00,6680,0.9704633,0,0,5487.079,5,6,2025-04-21T15:22:28.502+03:00,766930995.0206352,0,-43.8,100.2578,1,0.45,2025-04-21T15:21:14.605+03:00,112,1.866666666666667,2025-04-21T12:30:07.995+03:00,0.02023345852159405,0
2025-04-21T15:23:16.473+03:00,1745238191.97542,40.95220265019029,29.14025662348531,76.02078,-1,-1,-1,-1,30.00645109687068,58.04164234037241,-9999,18399.562989,-0.6898040771484375,0.61639404296875,-0.295867919921875,18399.55795,2.374207350038056,-1.178511490833675,-0.7212164573921048,-0.2113402634859085,0.00180610129609704,-0.01031022798269987,0.002823710441589355,-0.02504497766494751,-0.0150761604309082,XArbitraryZVertical,-0.3723783781367665,0.4666688887574407,-0.7947285409402912,-0.1093665091702508,-0.6939553618431091,0.6602987051010132,-0.287108987569809,0,0,0,-1,-1,18392.868614625,unknown,2,2025-04-21T15:23:09.773+03:00,2025-04-20T21:57:49.637+03:00,6680,0.9704633,0,0,5487.079,5,6,2025-04-21T15:22:28.502+03:00,766930995.0206352,0,-43.8,100.2578,1,0.45,2025-04-21T15:21:14.605+03:00,112,1.866666666666667,2025-04-21T12:30:07.995+03:00,0.02023345852159405,0
2025-04-21T15:23:16.483+03:00,1745238191.97542,40.95220265019029,29.14025662348531,76.02078,-1,-1,-1,-1,30.00645109687068,58.04164234037241,-9999,18399.573065,-0.6923980712890625,0.6220855712890625,-0.3046112060546875,18399.568027,2.372034934751595,-1.180084916797051,-0.7217923728337829,-0.1393595486879349,-0.02665696665644646,-0.006239852402359247,0.003273725509643555,-0.04029369354248047,-0.01118633151054382,XArbitraryZVertical,-0.3723598875494327,0.467345928478731,-0.7942943400800182,-0.1096913579925086,-0.6940543055534363,0.6607311367988586,-0.2858718037605286,0,0,0,-1,-1,18392.868614625,unknown,2,2025-04-21T15:23:09.773+03:00,2025-04-20T21:57:49.637+03:00,6680,0.9704633,0,0,5487.079,5,6,2025-04-21T15:22:28.502+03:00,766930995.0206352,0,-43.8,100.2578,1,0.45,2025-04-21T15:21:14.605+03:00,112,1.866666666666667,2025-04-21T12:30:07.995+03:00,0.02023345852159405,0
2025-04-21T15:23:16.493+03:00,1745238191.97542,40.95220265019029,29.14025662348531,76.02078,-1,-1,-1,-1,30.00645109687068,58.04164234037241,-9999,18399.583141,-0.69525146484375,0.6809234619140625,-0.300140380859375,18399.578103,2.370733255841199,-1.181254485496345,-0.7221741815250531,-0.07090426981449127,-0.03030702844262123,0.00644921138882637,0.003694653511047363,-0.04598188400268555,-0.01584777235984802,XArbitraryZVertical,-0.3724294487683525,0.467775890083166,-0.7939905934297883,-0.109821657571994,-0.6941547989845276,0.6610176563262939,-0.2849640548229218,0,0,0,-1,-1,18392.868614625,unknown,2,2025-04-21T15:23:09.773+03:00,2025-04-20T21:57:49.637+03:00,6680,0.9704633,0,0,5487.079,5,6,2025-04-21T15:22:28.502+03:00,766930995.0206352,0,-43.8,100.2578,1,0.45,2025-04-21T15:21:14.605+03:00,112,1.866666666666667,2025-04-21T12:30:07.995+03:00,0.02023345852159405,0
2025-04-21T15:23:16.503+03:00,1745238191.97542,40.95220265019029,29.14025662348531,76.02078,-1,-1,-1,-1,30.00645109687068,58.04164234037241,-9999,18399.593218,-0.6968231201171875,0.6963958740234375,-0.2943878173828125,18399.588179,2.370095215069506,-1.181994018443813,-0.7223783186904139,-0.0323113314807415,-0.03009796887636185,0.002292283345013857,-0.0013466477394104,-0.005546629428863525,-0.02036440372467041,XArbitraryZVertical,-0.3725252748241976,0.4680012555000567,-0.793810129433791,-0.109841453594988,-0.6942405700683594,0.6611708402633667,-0.2843994796276093,0,0,0,-1,-1,18392.868614625,unknown,2,2025-04-21T15:23:09.773+03:00,2025-04-20T21:57:49.637+03:00,6680,0.9704633,0,0,5487.079,5,6,2025-04-21T15:22:28.502+03:00,766930995.0206352,0,-43.8,100.2578,1,0.45,2025-04-21T15:21:14.605+03:00,112,1.866666666666667,2025-04-21T12:30:07.995+03:00,0.02023345852159405,0
2025-04-21T15:23:16.513+03:00,1745238191.97542,40.95220265019029,29.14025662348531,76.02078,-1,-1,-1,-1,30.00645109687068,58.04164234037241,-9999,18399.603294,-0.6966705322265625,0.673095703125,-0.2950592041015625,18399.598256,2.369941693492419,-1.182271148746822,-0.7223566102007682,-0.01460317522287369,-0.01082493923604488,-0.01064175739884377,-0.0008883476257324219,0.04157352447509766,-0.01150289177894592,XArbitraryZVertical,-0.3726045068351617,0.4680380644073712,-0.7937508670588961,-0.1098439296609669,-0.6943325996398926,0.661154568195343,-0.2842124998569489,0,0,0,-1,-1,18392.868614625,unknown,2,2025-04-21T15:23:09.773+03:00,2025-04-20T21:57:49.637+03:00,6680,0.9704633,0,0,5487.079,5,6,2025-04-21T15:22:28.502+03:00,766930995.0206352,0,-43.8,100.2578,1,0.45,2025-04-21T15:21:14.605+03:00,112,1.866666666666667,2025-04-21T12:30:07.995+03:00,0.02023345852159405,0
2025-04-21T15:23:16.523+03:00,1745238191.97542,40.95220265019029,29.14025662348531,76.02078,-1,-1,-1,-1,30.00645109687068,58.04164234037241,-9999,18399.61337,-0.69329833984375,0.688995361328125,-0.3103485107421875,18399.608332,2.369640999737532,-1.18235897495462,-0.7222410411613401,-0.02655277960002422,0.02129438146948814,-0.02349896728992462,-0.003142595291137695,0.01687991619110107,-0.009063035249710083,XArbitraryZVertical,-0.3725964685406075,0.4680616038588619,-0.7937222695088726,-0.1099768805470021,-0.6944281458854675,0.6610678434371948,-0.2841804027557373,0,0,0,-1,-1,18392.868614625,unknown,2,2025-04-21T15:23:09.773+03:00,2025-04-20T21:57:49.637+03:00,6680,0.9704633,0,0,5487.079,5,6,2025-04-21T15:22:28.502+03:00,766930995.0206352,0,-43.8,100.2578,1,0.45,2025-04-21T15:21:14.605+03:00,112,1.866666666666667,2025-04-21T12:30:07.995+03:00,0.02023345852159405,0
2025-04-21T15:23:16.533+03:00,1745238191.97542,40.95220265019029,29.14025662348531,76.02078,-1,-1,-1,-1,30.00645109687068,58.04164234037241,-9999,18399.623447,-0.6910552978515625,0.6965789794921875,-0.3302154541015625,18399.618408,2.369174884847674,-1.182239044674567,-0.7220951974371816,-0.04665578529238701,0.04925157874822617,-0.03465807810425758,0.0005289316177368164,0.01866781711578369,-0.01933446526527405,XArbitraryZVertical,-0.3724743861409164,0.4680947622493751,-0.7937245022855138,-0.1102332972109207,-0.6944833397865295,0.6609584093093872,-0.2843002378940582,0,0,0,-1,-1,18392.868614625,unknown,2,2025-04-21T15:23:09.773+03:00,2025-04-20T21:57:49.637+03:00,6680,0.9704633,0,0,5487.079,5,6,2025-04-21T15:22:28.502+03:00,766930995.0206352,0,-43.8,100.2578,1,0.45,2025-04-21T15:21:14.605+03:00,112,1.866666666666667,2025-04-21T12:30:07.995+03:00,0.02023345852159405,0
2025-04-21T15:23:16.543+03:00,1745238191.97542,40.95220265019029,29.14025662348531,76.02078,-1,-1,-1,-1,30.00645109687068,58.04164234037241,-9999,18399.633523,-0.6960601806640625,0.6800537109375,-0.3444976806640625,18399.628485,2.368207950690462,-1.182179404708632,-0.722066283558447,-0.09807130694389343,0.07860574126243591,-0.02207677252590656,0.003413498401641846,0.03782409429550171,-0.03874075412750244,XArbitraryZVertical,-0.3722312329789494,0.4682621609526976,-0.793683309712865,-0.1106395824499119,-0.6944841146469116,0.660936713218689,-0.2843489050865173,0,0,0,-1,-1,18392.868614625,unknown,2,2025-04-21T15:23:09.773+03:00,2025-04-20T21:57:49.637+03:00,6680,0.9704633,0,0,5487.079,5,6,2025-04-21T15:22:28.502+03:00,766930995.0206352,0,-43.8,100.2578,1,0.45,2025-04-21T15:21:14.605+03:00,112,1.866666666666667,2025-04-21T12:30:07.995+03:00,0.02023345852159405,0
2025-04-21T15:23:16.553+03:00,1745238191.97542,40.95220265019029,29.14025662348531,76.02078,-1,-1,-1,-1,30.00645109687068,58.04164234037241,-9999,18399.643599,-0.7055511474609375,0.6551055908203125,-0.3430328369140625,18399.638561,2.366372356478842,-1.182528375511889,-0.7223460959478388,-0.1824986338615417,0.07988079637289047,-0.02065814100205898,0.0009459257125854492,0.02433896064758301,-0.05672279000282288,XArbitraryZVertical,-0.3718731994492811,0.4687132079545601,-0.7935061045202866,-0.1112031192855493,-0.6944120526313782,0.6611466407775879,-0.2840365171432495,0,0,0,-1,-1,18392.868614625,unknown,2,2025-04-21T15:23:09.773+03:00,2025-04-20T21:57:49.637+03:00,6680,0.9704633,0,0,5487.079,5,6,2025-04-21T15:22:28.502+03:00,766930995.0206352,0,-43.8,100.2578,1,0.45,2025-04-21T15:21:14.605+03:00,112,1.866666666666667,2025-04-21T12:30:07.995+03:00,0.02023345852159405,0
2025-04-21T15:23:16.563+03:00,1745238191.97542,40.95220265019029,29.14025662348531,76.02078,-1,-1,-1,-1,30.00645109687068,58.04164234037241,-9999,18399.653676,-0.7222442626953125,0.6159515380859375,-0.33929443359375,18399.648637,2.364122386851766,-1.183252633238311,-0.7227594846038982,-0.1803374886512756,0.07597953081130981,-0.01406308729201555,-0.006547808647155762,0.006603419780731201,-0.06257814168930054,XArbitraryZVertical,-0.3715343518113739,0.4693049073635321,-0.7932308522368661,-0.1118032662396182,-0.6943646669387817,0.6614567637443542,-0.2834302484989166,0,0,0,-1,-1,18392.868614625,unknown,2,2025-04-21T15:23:09.773+03:00,2025-04-20T21:57:49.637+03:00,6680,0.9704633,0,0,5487.079,5,6,2025-04-21T15:22:28.502+03:00,766930995.0206352,0,-43.8,100.2578,1,0.45,2025-04-21T15:21:14.605+03:00,112,1.866666666666667,2025-04-21T12:30:07.995+03:00,0.02023345852159405,0
2025-04-21T15:23:16.573+03:00,1745238191.97542,40.95220265019029,29.14025662348531,76.02078,-1,-1,-1,-1,30.00645109687068,58.04164234037241,-9999,18399.663752,-0.7331390380859375,0.642852783203125,-0.3113555908203125,18399.658714,2.362119981697066,-1.183737560094694,-0.7233872705267983,-0.130194753408432,0.08280035853385925,0.02726101689040661,-0.02301537990570068,-0.03514242172241211,-0.05570170283317566,XArbitraryZVertical,-0.3711067798204748,0.4699057802078788,-0.79300539767018,-0.1122967714410955,-0.6941171884536743,0.6619274616241455,-0.2829366326332092,0,0,0,-1,-1,18392.868614625,unknown,2,2025-04-21T15:23:09.773+03:00,2025-04-20T21:57:49.637+03:00,6680,0.9704633,0,0,5487.079,5,6,2025-04-21T15:22:28.502+03:00,766930995.0206352,0,-43.8,100.2578,1,0.45,2025-04-21T15:21:14.605+03:00,112,1.866666666666667,2025-04-21T12:30:07.995+03:00,0.02023345852159405,0
2025-04-21T15:23:16.584+03:00,1745238191.97542,40.95220265019029,29.14025662348531,76.02078,-1,-1,-1,-1,30.00645109687068,58.04164234037241,-9999,18399.673828,-0.7382659912109375,0.6721649169921875,-0.243408203125,18399.66879,2.361322990130398,-1.183316804259185,-0.7241254789391226,-0.04314054176211357,0.1039708852767944,0.07058531790971756,-0.03611451387405396,-0.03810644149780273,-0.04866692423820496,XArbitraryZVertical,-0.3705762916135139,0.4702671986693558,-0.7930115115537497,-0.1124923468246239,-0.6935454607009888,0.6624805927276611,-0.2830439507961273,0,0,0,-1,-1,18392.868614625,unknown,2,2025-04-21T15:23:09.773+03:00,2025-04-20T21:57:49.637+03:00,6680,0.9704633,0,0,5487.079,5,6,2025-04-21T15:22:28.502+03:00,766930995.0206352,0,-43.8,100.2578,1,0.45,2025-04-21T15:21:14.605+03:00,112,1.866666666666667,2025-04-21T12:30:07.995+03:00,0.02023345852159405,0
2025-04-21T15:23:16.594+03:00,1745238191.97542,40.95220265019029,29.14025662348531,76.02078,-1,-1,-1,-1,30.00645109687068,58.04164234037241,-9999,18399.683905,-0.73297119140625,0.658843994140625,-0.2287139892578125,18399.678867,2.36170842366284,-1.181863571655913,-0.7250141154653429,0.0191095806658268,0.1317919343709946,0.1036881804466248,-0.0446857213973999,0.00541764497756958,0.01968324184417725,XArbitraryZVertical,-0.3698782450850726,0.4703997991335979,-0.7932694130307107,-0.1124174484266897,-0.6925885081291199,0.6631460189819336,-0.2838282287120819,0,0,0,-1,-1,18392.868614625,unknown,2,2025-04-21T15:23:09.773+03:00,2025-04-20T21:57:49.637+03:00,6680,0.9704633,0,0,5487.079,5,6,2025-04-21T15:22:28.502+03:00,766930995.0206352,0,-43.8,100.2578,1,0.45,2025-04-21T15:21:14.605+03:00,112,1.866666666666667,2025-04-21T12:30:07.995+03:00,0.02023345852159405,0
2025-04-21T15:23:16.604+03:00,1745238191.97542,40.95220265019029,29.14025662348531,76.02078,-1,-1,-1,-1,30.00645109687068,58.04164234037241,-9999,18399.693981,-0.715179443359375,0.648284912109375,-0.23016357421875,18399.688943,2.362692626867175,-1.17977961346098,-0.725909819804667,0.06151269748806953,0.151128351688385,0.1108225211501122,-0.04566025733947754,0.0008412003517150879,0.0534617006778717,XArbitraryZVertical,-0.3690689909125103,0.4703890675663177,-0.7936760782748762,-0.1122512797799117,-0.6914460062980652,0.6638161540031433,-0.285044401884079,0,0,0,-1,-1,18392.868614625,unknown,2,2025-04-21T15:23:09.773+03:00,2025-04-20T21:57:49.637+03:00,6680,0.9704633,0,0,5487.079,5,6,2025-04-21T15:22:28.502+03:00,766930995.0206352,0,-43.8,100.2578,1,0.45,2025-04-21T15:21:14.605+03:00,112,1.866666666666667,2025-04-21T12:30:07.995+03:00,0.02023345852159405,0
2025-04-21T15:23:16.613+03:00,1745238191.97542,40.95220265019029,29.14025662348531,76.02078,-1,-1,-1,-1,30.00645109687068,58.04164234037241,-9999,18399.704057,-0.6970977783203125,0.676422119140625,-0.2395477294921875,18399.699019,2.364267840222761,-1.177029473644369,-0.7265504227580641,0.1032764539122581,0.1835388243198395,0.09577982127666473,-0.03225231170654297,-0.01465243101119995,0.05799135565757751,XArbitraryZVertical,-0.3681947256440001,0.4701508363734848,-0.7942468776919939,-0.1120827190187645,-0.6902666091918945,0.6642951369285583,-0.2867816686630249,0,0,0,-1,-1,18392.868614625,unknown,2,2025-04-21T15:23:09.773+03:00,2025-04-20T21:57:49.637+03:00,6680,0.9704633,0,0,5487.079,5,6,2025-04-21T15:22:28.502+03:00,766930995.0206352,0,-43.8,100.2578,1,0.45,2025-04-21T15:21:14.605+03:00,112,1.866666666666667,2025-04-21T12:30:07.995+03:00,0.02023345852159405,0
2025-04-21T15:23:16.624+03:00,1745238191.97542,40.95220265019029,29.14025662348531,76.02078,-1,-1,-1,-1,30.00645109687068,58.04164234037241,-9999,18399.714134,-0.6880950927734375,0.723175048828125,-0.2535858154296875,18399.709096,2.366519906811819,-1.173511507016108,-0.726851866906513,0.1742560863494873,0.2099219560623169,0.07761359959840775,-0.01370519399642944,-0.003143608570098877,0.05393171310424805,XArbitraryZVertical,-0.3672541991056946,0.4696370511126182,-0.7950081984079295,-0.1119254537089169,-0.6890688538551331,0.6645204424858093,-0.2891307771205902,0,0,0,-1,-1,18392.868614625,unknown,2,2025-04-21T15:23:09.773+03:00,2025-04-20T21:57:49.637+03:00,6680,0.9704633,0,0,5487.079,5,6,2025-04-21T15:22:28.502+03:00,766930995.0206352,0,-43.8,100.2578,1,0.45,2025-04-21T15:21:14.605+03:00,112,1.866666666666667,2025-04-21T12:30:07.995+03:00,0.02023345852159405,0
2025-04-21T15:23:16.634+03:00,1745238191.97542,40.95220265019029,29.14025662348531,76.02078,-1,-1,-1,-1,30.00645109687068,58.04164234037241,-9999,18399.72421,-0.6804351806640625,0.7515716552734375,-0.2812042236328125,18399.719172,2.369609450882867,-1.169238256700641,-0.7266807126905831,0.2549609839916229,0.2157190442085266,0.06240784749388695,-0.003032088279724121,0.04205870628356934,0.04449740052223206,XArbitraryZVertical,-0.3663201112687038,0.4687760942535436,-0.795971361143709,-0.1117494933705582,-0.6879315972328186,0.6643925309181213,-0.2921170890331268,0,0,0,-1,-1,18392.868614625,unknown,2,2025-04-21T15:23:09.773+03:00,2025-04-20T21:57:49.637+03:00,6680,0.9704633,0,0,5487.079,5,6,2025-04-21T15:22:28.502+03:00,766930995.0206352,0,-43.8,100.2578,1,0.45,2025-04-21T15:21:14.605+03:00,112,1.866666666666667,2025-04-21T12:30:07.995+03:00,0.02023345852159405,0
2025-04-21T15:23:16.644+03:00,1745238191.97542,40.95220265019029,29.14025662348531,76.02078,-1,-1,-1,-1,30.00645109687068,58.04164234037241,-9999,18399.734286,-0.6721343994140625,0.758148193359375,-0.302581787109375,18399.729248,2.37356248891958,-1.164521761885037,-0.7259793478377818,0.3352513015270233,0.1917617917060852,0.0411267951130867,0.003472089767456055,0.08004343509674072,0.02561455965042114,XArbitraryZVertical,-0.3655333129012932,0.4675618416423631,-0.7970836196176601,-0.1114858777072334,-0.6869743466377258,0.6638681888580322,-0.2955426573753357,0,0,0,-1,-1,18392.868614625,unknown,2,2025-04-21T15:23:09.773+03:00,2025-04-20T21:57:49.637+03:00,6680,0.9704633,0,0,5487.079,5,6,2025-04-21T15:22:28.502+03:00,766930995.0206352,0,-43.8,100.2578,1,0.45,2025-04-21T15:21:14.605+03:00,112,1.866666666666667,2025-04-21T12:30:07.995+03:00,0.02023345852159405,0
2025-04-21T15:23:16.654+03:00,1745238191.97542,40.95220265019029,29.14025662348531,76.02078,-1,-1,-1,-1,30.00645109687068,58.04164234037241,-9999,18399.744363,-0.6777801513671875,0.74114990234375,-0.3192596435546875,18399.739325,2.378341019006606,-1.159482925679482,-0.7247035823679253,0.4072601795196533,0.1768714636564255,0.01827058382332325,0.01175254583358765,0.09459364414215088,0.002814650535583496,XArbitraryZVertical,-0.3649402863954641,0.465992707879502,-0.7983228994141779,-0.1111301728481974,-0.6862520575523376,0.6629135608673096,-0.2993387579917908,0,0,0,-1,-1,18392.868614625,unknown,2,2025-04-21T15:23:09.773+03:00,2025-04-20T21:57:49.637+03:00,6680,0.9704633,0,0,5487.079,5,6,2025-04-21T15:22:28.502+03:00,766930995.0206352,0,-43.8,100.2578,1,0.45,2025-04-21T15:21:14.605+03:00,112,1.866666666666667,2025-04-21T12:30:07.995+03:00,0.02023345852159405,0
2025-04-21T15:23:16.664+03:00,1745238191.97542,40.95220265019029,29.14025662348531,76.02078,-1,-1,-1,-1,30.00645109687068,58.04164234037241,-9999,18399.754439,-0.68463134765625,0.710784912109375,-0.311309814453125,18399.749401,2.383830554387632,-1.154149242410975,-0.7229630645996413,0.4482707381248474,0.1591073870658875,0.004061021842062473,0.01100188493728638,0.08868026733398438,-0.009878069162368774,XArbitraryZVertical,-0.3644953604341608,0.4641255664211739,-0.7996743254460416,-0.1106861488789434,-0.6856997013092041,0.661609411239624,-0.3034611940383911,0,0,0,-1,-1,18392.868614625,unknown,2,2025-04-21T15:23:09.773+03:00,2025-04-20T21:57:49.637+03:00,6680,0.9704633,0,0,5487.079,5,6,2025-04-21T15:22:28.502+03:00,766930995.0206352,0,-43.8,100.2578,1,0.45,2025-04-21T15:21:14.605+03:00,112,1.866666666666667,2025-04-21T12:30:07.995+03:00,0.02023345852159405,0
2025-04-21T15:23:16.674+03:00,1745238191.97542,40.95220265019029,29.14025662348531,76.02078,-1,-1,-1,-1,30.00645109687068,58.04164234037241,-9999,18399.764515,-0.683746337890625,0.6727752685546875,-0.2834320068359375,18399.759477,2.389253459413383,-1.149042313287118,-0.7211165838581848,0.4402077496051788,0.156411737203598,-0.005308378022164106,0.002301573753356934,0.06185245513916016,-0.01148071885108948,XArbitraryZVertical,-0.3641397919965871,0.4622476865201379,-0.8009849776735436,-0.1102367725346473,-0.6852543950080872,0.6602237224578857,-0.3074585795402527,0,0,0,-1,-1,18392.868614625,unknown,2,2025-04-21T15:23:09.773+03:00,2025-04-20T21:57:49.637+03:00,6680,0.9704633,0,0,5487.079,5,6,2025-04-21T15:22:28.502+03:00,766930995.0206352,0,-43.8,100.2578,1,0.45,2025-04-21T15:21:14.605+03:00,112,1.866666666666667,2025-04-21T12:30:07.995+03:00,0.02023345852159405,0
2025-04-21T15:23:16.684+03:00,1745238191.97542,40.95220265019029,29.14025662348531,76.02078,-1,-1,-1,-1,30.00645109687068,58.04164234037241,-9999,18399.774592,-0.684112548828125,0.626220703125,-0.2711334228515625,18399.769554,2.394137277357023,-1.144263837200394,-0.7193682768756327,0.3762687146663666,0.159046396613121,-0.007209608796983957,0.001325011253356934,0.02988713979721069,0.01878711581230164,XArbitraryZVertical,-0.3637584341710274,0.4605176545971608,-0.8022015839996819,-0.1098893786067806,-0.6848272085189819,0.6589096188545227,-0.311206579208374,0,0,0,-1,-1,18392.868614625,unknown,2,2025-04-21T15:23:09.773+03:00,2025-04-20T21:57:49.637+03:00,6680,0.9704633,0,0,5487.079,5,6,2025-04-21T15:22:28.502+03:00,766930995.0206352,0,-43.8,100.2578,1,0.45,2025-04-21T15:21:14.605+03:00,112,1.866666666666667,2025-04-21T12:30:07.995+03:00,0.02023345852159405,0
2025-04-21T15:23:16.694+03:00,1745238191.97542,40.95220265019029,29.14025662348531,76.02078,-1,-1,-1,-1,30.00645109687068,58.04164234037241,-9999,18399.784668,-0.674072265625,0.6076507568359375,-0.2493133544921875,18399.77963,2.398289478810558,-1.139939253736211,-0.7178656118814475,0.30699223279953,0.1562053859233856,-0.004299539607018232,-0.0003184676170349121,-0.01651287078857422,0.03836378455162048,XArbitraryZVertical,-0.3633256488062465,0.4590264137156518,-0.803284186576922,-0.1096520338648047,-0.6843738555908203,0.6577785015106201,-0.3145784437656403,0,0,0,-1,-1,18392.868614625,unknown,2,2025-04-21T15:23:09.773+03:00,2025-04-20T21:57:49.637+03:00,6680,0.9704633,0,0,5487.079,5,6,2025-04-21T15:22:28.502+03:00,766930995.0206352,0,-43.8,100.2578,1,0.45,2025-04-21T15:21:14.605+03:00,112,1.866666666666667,2025-04-21T12:30:07.995+03:00,0.02023345852159405,0
2025-04-21T15:23:16.705+03:00,1745238191.97542,40.95220265019029,29.14025662348531,76.02078,-1,-1,-1,-1,30.00645109687068,58.04164234037241,-9999,18399.794744,-0.652252197265625,0.607879638671875,-0.2475738525390625,18399.789706,2.401535899375922,-1.136296153195405,-0.7166979950358522,0.2329840511083603,0.1436709612607956,-0.001255546463653445,0.003392875194549561,-0.04622673988342285,0.05900034308433533,XArbitraryZVertical,-0.3628754850768553,0.4578482212438289,-0.8041777526553437,-0.1095197870624915,-0.6839196681976318,0.6568986177444458,-0.3173927664756775,0,0,0,-1,-1,18392.868614625,unknown,2,2025-04-21T15:23:09.773+03:00,2025-04-20T21:57:49.637+03:00,6680,0.9704633,0,0,5487.079,5,6,2025-04-21T15:22:28.502+03:00,766930995.0206352,0,-43.8,100.2578,1,0.45,2025-04-21T15:21:14.605+03:00,112,1.866666666666667,2025-04-21T12:30:07.995+03:00,0.02023345852159405,0
2025-04-21T15:23:16.714+03:00,1745238191.97542,40.95220265019029,29.14025662348531,76.02078,-1,-1,-1,-1,30.00645109687068,58.04164234037241,-9999,18399.804821,-0.641143798828125,0.611785888671875,-0.2681121826171875,18399.799783,2.403945388116422,-1.133370263642182,-0.7158247167628322,0.1696542203426361,0.1225732639431953,-0.005047022365033627,0.02345788478851318,-0.04930651187896729,0.07554036378860474,XArbitraryZVertical,-0.362450837210058,0.4569592279503366,-0.8048811215216902,-0.1094710949726079,-0.6835073232650757,0.656239926815033,-0.3196353018283844,0,0,0,-1,-1,18392.868614625,unknown,2,2025-04-21T15:23:09.773+03:00,2025-04-20T21:57:49.637+03:00,6680,0.9704633,0,0,5487.079,5,6,2025-04-21T15:22:28.502+03:00,766930995.0206352,0,-43.8,100.2578,1,0.45,2025-04-21T15:21:14.605+03:00,112,1.866666666666667,2025-04-21T12:30:07.995+03:00,0.02023345852159405,0
2025-04-21T15:23:16.724+03:00,1745238191.97542,40.95220265019029,29.14025662348531,76.02078,-1,-1,-1,-1,30.00645109687068,58.04164234037241,-9999,18399.814897,-0.6378936767578125,0.623077392578125,-0.2902679443359375,18399.809859,2.405709333349495,-1.131142682012703,-0.7151151547206773,0.1286617815494537,0.08861130475997925,-0.008159991353750229,0.03959912061691284,-0.0462990403175354,0.06169632077217102,XArbitraryZVertical,-0.3621199664987722,0.4562801097873237,-0.8054147924226314,-0.1094735754108887,-0.6832147836685181,0.6557043790817261,-0.3213551938533783,0,0,0,-1,-1,18392.868614625,unknown,2,2025-04-21T15:23:09.773+03:00,2025-04-20T21:57:49.637+03:00,6680,0.9704633,0,0,5487.079,5,6,2025-04-21T15:22:28.502+03:00,766930995.0206352,0,-43.8,100.2578,1,0.45,2025-04-21T15:21:14.605+03:00,112,1.866666666666667,2025-04-21T12:30:07.995+03:00,0.02023345852159405,0
2025-04-21T15:23:16.735+03:00,1745238191.97542,40.95220265019029,29.14025662348531,76.02078,-1,-1,-1,-1,30.00645109687068,58.04164234037241,-9999,18399.824974,-0.64447021484375,0.6282501220703125,-0.3075714111328125,18399.819935,2.407014605869681,-1.129512047684552,-0.714565694482549,0.09999777376651764,0.06095131486654282,-0.009237173013389111,0.04503029584884644,-0.03674405813217163,0.04036551713943481,XArbitraryZVertical,-0.3618869020144046,0.4557702703849409,-0.8058076057653017,-0.1094774176128228,-0.6830155253410339,0.6552894115447998,-0.3226226568222046,0,0,0,-1,-1,18392.868614625,unknown,2,2025-04-21T15:23:09.773+03:00,2025-04-20T21:57:49.637+03:00,6680,0.9704633,0,0,5487.079,5,6,2025-04-21T15:22:28.502+03:00,766930995.0206352,0,-43.8,100.2578,1,0.45,2025-04-21T15:21:14.605+03:00,112,1.866666666666667,2025-04-21T12:30:07.995+03:00,0.02023345852159405,0
2025-04-21T15:23:16.745+03:00,1745238191.97542,40.95220265019029,29.14025662348531,76.02078,-1,-1,-1,-1,30.00645109687068,58.04164234037241,-9999,18399.83505,-0.6536407470703125,0.6315765380859375,-0.31591796875,18399.830012,2.408183803267647,-1.128291648723683,-0.7140304793491129,0.1100834310054779,0.02734381891787052,-0.01143641117960215,0.04232847690582275,-0.02742850780487061,0.02107006311416626,XArbitraryZVertical,-0.3617841101099416,0.4553121877773317,-0.8061180934330219,-0.1094378567939205,-0.6829382181167603,0.6548850536346436,-0.3236061334609985,0,0,0,-1,-1,18392.868614625,unknown,2,2025-04-21T15:23:09.773+03:00,2025-04-20T21:57:49.637+03:00,6680,0.9704633,0,0,5487.079,5,6,2025-04-21T15:22:28.502+03:00,766930995.0206352,0,-43.8,100.2578,1,0.45,2025-04-21T15:21:14.605+03:00,112,1.866666666666667,2025-04-21T12:30:07.995+03:00,0.02023345852159405,0
2025-04-21T15:23:16.755+03:00,1745238191.97542,40.95220265019029,29.14025662348531,76.02078,-1,-1,-1,-1,30.00645109687068,58.04164234037241,-9999,18399.845126,-0.6473388671875,0.639373779296875,-0.3167877197265625,18399.840088,2.409621093867892,-1.127308206498794,-0.7133747131085355,0.1400798857212067,-0.01975158788263798,-0.0129880029708147,0.03151810169219971,-0.02349954843521118,0.01096993684768677,XArbitraryZVertical,-0.3618648434035649,0.4547778903116066,-0.8064061481758872,-0.1092701693460258,-0.6830073595046997,0.6543893218040466,-0.324461817741394,0,0,0,-1,-1,18392.868614625,unknown,2,2025-04-21T15:23:09.773+03:00,2025-04-20T21:57:49.637+03:00,6680,0.9704633,0,0,5487.079,5,6,2025-04-21T15:22:28.502+03:00,766930995.0206352,0,-43.8,100.2578,1,0.45,2025-04-21T15:21:14.605+03:00,112,1.866666666666667,2025-04-21T12:30:07.995+03:00,0.02023345852159405,0
2025-04-21T15:23:16.765+03:00,1745238191.97542,40.95220265019029,29.14025662348531,76.02078,-1,-1,-1,-1,30.00645109687068,58.04164234037241,-9999,18399.855203,-0.6403656005859375,0.648345947265625,-0.307037353515625,18399.850164,2.411452035828708,-1.126515732874348,-0.7125524039293922,0.1742658168077469,-0.05718284845352173,-0.01801685057580471,0.03212785720825195,-0.01820844411849976,0.006996780633926392,XArbitraryZVertical,-0.3621493267037603,0.4541264187699931,-0.8066891609255383,-0.108947362488056,-0.6832356452941895,0.6537672877311707,-0.3252341151237488,0,0,0,-1,-1,18392.868614625,unknown,2,2025-04-21T15:23:09.773+03:00,2025-04-20T21:57:49.637+03:00,6680,0.9704633,0,0,5487.079,5,6,2025-04-21T15:22:28.502+03:00,766930995.0206352,0,-43.8,100.2578,1,0.45,2025-04-21T15:21:14.605+03:00,112,1.866666666666667,2025-04-21T12:30:07.995+03:00,0.02023345852159405,0
2025-04-21T15:23:16.775+03:00,1745238191.97542,40.95220265019029,29.14025662348531,76.02078,-1,-1,-1,-1,30.00645109687068,58.04164234037241,-9999,18399.865279,-0.6539459228515625,0.6436767578125,-0.305511474609375,18399.860241,2.413667397571029,-1.125716091975357,-0.7115446370398641,0.212011456489563,-0.06636449694633484,-0.01739200577139854,0.04311251640319824,-0.007267892360687256,0.01602044701576233,XArbitraryZVertical,-0.362559295449544,0.4533418545263355,-0.8070033568015295,-0.1085235035448457,-0.683569610118866,0.6530044078826904,-0.3260638415813446,0,0,0,-1,-1,18392.868614625,unknown,2,2025-04-21T15:23:09.773+03:00,2025-04-20T21:57:49.637+03:00,6680,0.9704633,0,0,5487.079,5,6,2025-04-21T15:22:28.502+03:00,766930995.0206352,0,-43.8,100.2578,1,0.45,2025-04-21T15:21:14.605+03:00,112,1.866666666666667,2025-04-21T12:30:07.995+03:00,0.02023345852159405,0
2025-04-21T15:23:16.785+03:00,1745238191.97542,40.95220265019029,29.14025662348531,76.02078,-1,-1,-1,-1,30.00645109687068,58.04164234037241,-9999,18399.875355,-0.6651763916015625,0.64508056640625,-0.3087921142578125,18399.870317,2.416208637839066,-1.1247118602031,-0.7104474401748013,0.2213271856307983,-0.06406379491090775,-0.01514669507741928,0.03722035884857178,-0.006131350994110107,0.02211210131645203,XArbitraryZVertical,-0.3629792549989397,0.4524561104336551,-0.8073765764204675,-0.108039099250992,-0.683887779712677,0.6521730422973633,-0.3270590603351593,0,0,0,-1,-1,18392.868614625,unknown,2,2025-04-21T15:23:09.773+03:00,2025-04-20T21:57:49.637+03:00,6680,0.9704633,0,0,5487.079,5,6,2025-04-21T15:22:28.502+03:00,766930995.0206352,0,-43.8,100.2578,1,0.45,2025-04-21T15:21:14.605+03:00,112,1.866666666666667,2025-04-21T12:30:07.995+03:00,0.02023345852159405,0
2025-04-21T15:23:16.795+03:00,1745238191.97542,40.95220265019029,29.14025662348531,76.02078,-1,-1,-1,-1,30.00645109687068,58.04164234037241,-9999,18399.885431,-0.66546630859375,0.6508636474609375,-0.32000732421875,18399.880393,2.418591673494231,-1.123780527547224,-0.7093454617192348,0.1927856355905533,-0.05489392951130867,-0.02585030347108841,0.02102261781692505,-0.00911027193069458,0.02067902684211731,XArbitraryZVertical,-0.3633920933673004,0.4516005156004042,-0.8077281621246221,-0.1076023059379024,-0.6842305660247803,0.6513372659683228,-0.3280063271522522,0,0,0,-1,-1,18392.868614625,unknown,2,2025-04-21T15:23:09.773+03:00,2025-04-20T21:57:49.637+03:00,6680,0.9704633,0,0,5487.079,5,6,2025-04-21T15:22:28.502+03:00,766930995.0206352,0,-43.8,100.2578,1,0.45,2025-04-21T15:21:14.605+03:00,112,1.866666666666667,2025-04-21T12:30:07.995+03:00,0.02023345852159405,0
2025-04-21T15:23:16.805+03:00,1745238191.97542,40.95220265019029,29.14025662348531,76.02078,-1,-1,-1,-1,30.00645109687068,58.04164234037241,-9999,18399.895508,-0.6745452880859375,0.6409912109375,-0.335052490234375,18399.89047,2.420416690282315,-1.1231136658724,-0.7083515055242851,0.1386060267686844,-0.04702562093734741,-0.03286613523960114,0.01934224367141724,-0.0004059672355651855,0.01421311497688293,XArbitraryZVertical,-0.3637598004392696,0.4508963364711329,-0.8079962774117995,-0.1072993663754935,-0.6845949292182922,0.6505827307701111,-0.3287425935268402,0,0,0,-1,-1,18392.868614625,unknown,2,2025-04-21T15:23:09.773+03:00,2025-04-20T21:57:49.637+03:00,6680,0.9704633,0,0,5487.079,5,6,2025-04-21T15:22:28.502+03:00,766930995.0206352,0,-43.8,100.2578,1,0.45,2025-04-21T15:21:14.605+03:00,112,1.866666666666667,2025-04-21T12:30:07.995+03:00,0.02023345852159405,0
2025-04-21T15:23:16.815+03:00,1745238191.97542,40.95220265019029,29.14025662348531,76.02078,-1,-1,-1,-1,30.00645109687068,58.04164234037241,-9999,18399.905584,-0.6827545166015625,0.6277618408203125,-0.34136962890625,18399.900546,2.421507450515105,-1.122890297403431,-0.7075730061326859,0.07103163748979568,-0.05104206502437592,-0.03546971082687378,0.01504075527191162,-0.004361569881439209,-0.0007802844047546387,XArbitraryZVertical,-0.3640914646191761,0.4504220107328706,-0.808133855267237,-0.1071313751944102,-0.6849779486656189,0.6499913334846497,-0.3291148245334625,0,0,0,-1,-1,18392.868614625,unknown,2,2025-04-21T15:23:09.773+03:00,2025-04-20T21:57:49.637+03:00,6680,0.9704633,0,0,5487.079,5,6,2025-04-21T15:22:28.502+03:00,766930995.0206352,0,-43.8,100.2578,1,0.45,2025-04-21T15:21:14.605+03:00,112,1.866666666666667,2025-04-21T12:30:07.995+03:00,0.02023345852159405,0
2025-04-21T15:23:16.825+03:00,1745238191.97542,40.95220265019029,29.14025662348531,76.02078,-1,-1,-1,-1,30.00645109687068,58.04164234037241,-9999,18399.915661,-0.68438720703125,0.610107421875,-0.343170166015625,18399.910622,2.421746919712404,-1.123324968472715,-0.7071329010039287,-0.002336855279281735,-0.06478610634803772,-0.02893111668527126,0.005401313304901123,-0.01635617017745972,-0.0111318826675415,XArbitraryZVertical,-0.364420553519537,0.4502524378570765,-0.8080891596857356,-0.1070623366967682,-0.6853787302970886,0.6496567726135254,-0.3289408087730408,0,0,0,-1,-1,18392.868614625,unknown,2,2025-04-21T15:23:09.773+03:00,2025-04-20T21:57:49.637+03:00,6680,0.9704633,0,0,5487.079,5,6,2025-04-21T15:22:28.502+03:00,766930995.0206352,0,-43.8,100.2578,1,0.45,2025-04-21T15:21:14.605+03:00,112,1.866666666666667,2025-04-21T12:30:07.995+03:00,0.02023345852159405,0
2025-04-21T15:23:16.835+03:00,1745238191.97542,40.95220265019029,29.14025662348531,76.02078,-1,-1,-1,-1,30.00645109687068,58.04164234037241,-9999,18399.925737,-0.68524169921875,0.6038970947265625,-0.3446807861328125,18399.920699,2.421266827483825,-1.124351414116002,-0.7070546414275773,-0.05228177830576897,-0.07687819004058838,-0.0180775374174118,0.001145720481872559,-0.0324709415435791,-0.01460602879524231,XArbitraryZVertical,-0.3647448387387176,0.4503683671833826,-0.8078801794781265,-0.1070475125375375,-0.6857618689537048,0.6495972871780396,-0.3282590806484222,0,0,0,-1,-1,18392.868614625,unknown,2,2025-04-21T15:23:09.773+03:00,2025-04-20T21:57:49.637+03:00,6680,0.9704633,0,0,5487.079,5,6,2025-04-21T15:22:28.502+03:00,766930995.0206352,0,-43.8,100.2578,1,0.45,2025-04-21T15:21:14.605+03:00,112,1.866666666666667,2025-04-21T12:30:07.995+03:00,0.02023345852159405,0
2025-04-21T15:23:16.846+03:00,1745238191.97542,40.95220265019029,29.14025662348531,76.02078,-1,-1,-1,-1,30.00645109687068,58.04164234037241,-9999,18399.935813,-0.6851654052734375,0.612548828125,-0.3405609130859375,18399.930775,2.420430564498063,-1.125736128724058,-0.7072340419356669,-0.07195934653282166,-0.09104301035404205,-0.005307146813720465,0.001021325588226318,-0.04614192247390747,-0.0170404314994812,XArbitraryZVertical,-0.3650751498803673,0.4506558200987444,-0.8075739132263171,-0.1070219175697334,-0.6861104369163513,0.6497336626052856,-0.3272589445114136,0,0,0,-1,-1,18392.868614625,unknown,2,2025-04-21T15:23:09.773+03:00,2025-04-20T21:57:49.637+03:00,6680,0.9704633,0,0,5487.079,5,6,2025-04-21T15:22:28.502+03:00,766930995.0206352,0,-43.8,100.2578,1,0.45,2025-04-21T15:21:14.605+03:00,112,1.866666666666667,2025-04-21T12:30:07.995+03:00,0.02023345852159405,0
2025-04-21T15:23:16.856+03:00,1745238191.97542,40.95220265019029,29.14025662348531,76.02078,-1,-1,-1,-1,30.00645109687068,58.04164234037241,-9999,18399.945891875,-0.6807708740234375,0.6201934814453125,-0.322845458984375,18399.940851,2.419534088905711,-1.127325293251075,-0.7075746537235568,-0.07552751153707504,-0.1080585494637489,0.00198615319095552,0.0001809597015380859,-0.04138070344924927,-0.01789048314094543,XArbitraryZVertical,-0.3654374591268338,0.4510198071837768,-0.8072191746833947,-0.1069281563212782,-0.6864296793937683,0.6499925851821899,-0.3260731995105743,0,0,0,-1,-1,18392.868614625,unknown,2,2025-04-21T15:23:09.773+03:00,2025-04-20T21:57:49.637+03:00,6680,0.9704633,0,0,5487.079,5,6,2025-04-21T15:22:28.502+03:00,766930995.0206352,0,-43.8,100.2578,1,0.45,2025-04-21T15:21:14.605+03:00,112,1.866666666666667,2025-04-21T12:30:07.995+03:00,0.02023345852159405,0
2025-04-21T15:23:16.866+03:00,1745238191.97542,40.95220265019029,29.14025662348531,76.02078,-1,-1,-1,-1,30.00645109687068,58.04164234037241,-9999,18399.955967875,-0.67718505859375,0.6348724365234375,-0.3092803955078125,18399.950929875,2.418703461108742,-1.128990411906631,-0.7079166355895682,-0.06281251460313797,-0.1090223416686058,0.001957390923053026,0.004092514514923096,-0.03318721055984497,-0.006235271692276001,XArbitraryZVertical,-0.3658444243598143,0.4513762334302828,-0.8068538631111194,-0.1067897946592658,-0.6867707371711731,0.6502524018287659,-0.3248347043991089,0,0,0,-1,-1,18392.868614625,unknown,2,2025-04-21T15:23:09.773+03:00,2025-04-20T21:57:49.637+03:00,6680,0.9704633,0,0,5487.079,5,6,2025-04-21T15:22:28.502+03:00,766930995.0206352,0,-43.8,100.2578,1,0.45,2025-04-21T15:21:14.605+03:00,112,1.866666666666667,2025-04-21T12:30:07.995+03:00,0.02023345852159405,0
2025-04-21T15:23:16.887+03:00,1745238191.97542,40.95220265019029,29.14025662348531,76.02078,-1,-1,-1,-1,30.00645109687068,58.04164234037241,-9999,18399.966043875,-0.682159423828125,0.65313720703125,-0.302581787109375,18399.961005875,2.417975918602139,-1.130517228256402,-0.7082039405517484,-0.05669716745615005,-0.09904008358716965,-0.003949267324060202,0.01015591621398926,-0.02142727375030518,0.0105651319026947,XArbitraryZVertical,-0.3662308343409386,0.4516878757258193,-0.8065217102048579,-0.1066560913279293,-0.6870967745780945,0.6504706740379333,-0.3237060904502869,0,0,0,-1,-1,18392.868614625,unknown,2,2025-04-21T15:23:09.773+03:00,2025-04-20T21:57:49.637+03:00,6680,0.9704633,0,0,5487.079,5,6,2025-04-21T15:22:28.502+03:00,766930995.0206352,0,-43.8,100.2578,1,0.45,2025-04-21T15:21:14.605+03:00,112,1.866666666666667,2025-04-21T12:30:07.995+03:00,0.02023345852159405,0
2025-04-21T15:23:16.890+03:00,1745238191.97542,40.95220265019029,29.14025662348531,76.02078,-1,-1,-1,-1,30.00645109687068,58.04164234037241,-9999,18399.976120875,-0.6881866455078125,0.668304443359375,-0.30419921875,18399.971081875,2.417278284088857,-1.131911175258224,-0.7083324933783576,-0.04738462716341019,-0.08190610259771347,-0.01666319742798805,0.007204353809356689,-0.004221439361572266,0.01807066798210144,XArbitraryZVertical,-0.3666060472285476,0.4519333721404941,-0.8062230022167273,-0.1065856235164821,-0.6874716281890869,0.6505683064460754,-0.3227124810218811,0,0,0,-1,-1,18392.868614625,unknown,2,2025-04-21T15:23:09.773+03:00,2025-04-20T21:57:49.637+03:00,6680,0.9704633,0,0,5487.079,5,6,2025-04-21T15:22:28.502+03:00,766930995.0206352,0,-43.8,100.2578,1,0.45,2025-04-21T15:21:14.605+03:00,112,1.866666666666667,2025-04-21T12:30:07.995+03:00,0.02023345852159405,0
2025-04-21T15:23:16.896+03:00,1745238191.97542,40.95220265019029,29.14025662348531,76.02078,-1,-1,-1,-1,30.00645109687068,58.04164234037241,-9999,18399.986196875,-0.6973876953125,0.6728363037109375,-0.3244476318359375,18399.981158875,2.416708003545622,-1.132991656050826,-0.7083503713765592,-0.03149886801838875,-0.06352736055850983,-0.01616225764155388,0.001591205596923828,0.01393818855285645,0.02037456631660461,XArbitraryZVertical,-0.3669085889596662,0.4521015528653284,-0.8059936222196236,-0.106566144185374,-0.6878094077110291,0.6505818963050842,-0.3219645321369171,0,0,0,-1,-1,18392.868614625,unknown,2,2025-04-21T15:23:09.773+03:00,2025-04-20T21:57:49.637+03:00,6680,0.9704633,0,0,5487.079,5,6,2025-04-21T15:22:28.502+03:00,766930995.0206352,0,-43.8,100.2578,1,0.45,2025-04-21T15:21:14.605+03:00,112,1.866666666666667,2025-04-21T12:30:07.995+03:00,0.02023345852159405,0
2025-04-21T15:23:16.906+03:00,1745238191.97542,40.95220265019029,29.14025662348531,76.02078,-1,-1,-1,-1,30.00645109687068,58.04164234037241,-9999,18399.996272875,-0.7035980224609375,0.674285888671875,-0.33837890625,18399.991234875,2.416324658412783,-1.13376279092314,-0.7082695701142747,-0.01840570196509361,-0.04743894189596176,-0.01962942816317081,-0.005666196346282959,0.02106434106826782,0.005187362432479858,XArbitraryZVertical,-0.3671510177629327,0.4521857685539762,-0.8058355457857558,-0.1065695363919776,-0.6881051659584045,0.6505205035209656,-0.3214563131332397,0,0,0,-1,-1,18392.868614625,unknown,2,2025-04-21T15:23:09.773+03:00,2025-04-20T21:57:49.637+03:00,6680,0.9704633,0,0,5487.079,5,6,2025-04-21T15:22:28.502+03:00,766930995.0206352,0,-43.8,100.2578,1,0.45,2025-04-21T15:21:14.605+03:00,112,1.866666666666667,2025-04-21T12:30:07.995+03:00,0.02023345852159405,0
2025-04-21T15:23:16.916+03:00,1745238191.97542,40.95220265019029,29.14025662348531,76.02078,-1,-1,-1,-1,30.00645109687068,58.04164234037241,-9999,18400.006349875,-0.702850341796875,0.6669921875,-0.3441925048828125,18400.001310875,2.416067467634201,-1.134315656486206,-0.7080649769680487,-0.01388791669160128,-0.03830483183264732,-0.02260218188166618,-0.0134398341178894,0.02370703220367432,-0.01347792148590088,XArbitraryZVertical,-0.3673621018207102,0.4521935549337118,-0.8057300837343204,-0.1066070744200791,-0.6884034872055054,0.6503651142120361,-0.3211321532726288,0,0,0,-1,-1,18392.868614625,unknown,2,2025-04-21T15:23:09.773+03:00,2025-04-20T21:57:49.637+03:00,6680,0.9704633,0,0,5487.079,5,6,2025-04-21T15:22:28.502+03:00,766930995.0206352,0,-43.8,100.2578,1,0.45,2025-04-21T15:21:14.605+03:00,112,1.866666666666667,2025-04-21T12:30:07.995+03:00,0.02023345852159405,0
2025-04-21T15:23:16.926+03:00,1745238191.97542,40.95220265019029,29.14025662348531,76.02078,-1,-1,-1,-1,30.00645109687068,58.04164234037241,-9999,18400.016425875,-0.6960601806640625,0.64727783203125,-0.3476715087890625,18400.011387875,2.415762573072918,-1.134784519997286,-0.7078262290060637,-0.02844022773206234,-0.02978138811886311,-0.0225201565772295,-0.01571202278137207,0.02088242769241333,-0.02160865068435669,XArbitraryZVertical,-0.3675363301486571,0.4521941810197279,-0.8056389905478621,-0.106692581658727,-0.6886947154998779,0.6501837372779846,-0.3208749294281006,0,0,0,-1,-1,18392.868614625,unknown,2,2025-04-21T15:23:09.773+03:00,2025-04-20T21:57:49.637+03:00,6680,0.9704633,0,0,5487.079,5,6,2025-04-21T15:22:28.502+03:00,766930995.0206352,0,-43.8,100.2578,1,0.45,2025-04-21T15:21:14.605+03:00,112,1.866666666666667,2025-04-21T12:30:07.995+03:00,0.02023345852159405,0
2025-04-21T15:23:16.936+03:00,1745238191.97542,40.95220265019029,29.14025662348531,76.02078,-1,-1,-1,-1,30.00645109687068,58.04164234037241,-9999,18400.026501875,-0.6893463134765625,0.630889892578125,-0.34881591796875,18400.021463875,2.415276709992251,-1.135310196001814,-0.7076865792065287,-0.04677436128258705,-0.02363307774066925,-0.01484086364507675,-0.01005953550338745,0.005470335483551025,-0.02611333131790161,XArbitraryZVertical,-0.3676699794783123,0.452264529940309,-0.8055230072414085,-0.1068095774219987,-0.6889456510543823,0.6500776410102844,-0.3205511569976807,0,0,0,-1,-1,18392.868614625,unknown,2,2025-04-21T15:23:09.773+03:00,2025-04-20T21:57:49.637+03:00,6680,0.9704633,0,0,5487.079,5,6,2025-04-21T15:22:28.502+03:00,766930995.0206352,0,-43.8,100.2578,1,0.45,2025-04-21T15:21:14.605+03:00,112,1.866666666666667,2025-04-21T12:30:07.995+03:00,0.02023345852159405,0
2025-04-21T15:23:16.946+03:00,1745238191.97542,40.95220265019029,29.14025662348531,76.02078,-1,-1,-1,-1,30.00645109687068,58.04164234037241,-9999,18400.036578875,-0.685577392578125,0.6338348388671875,-0.345062255859375,18400.031539875,2.414589988746285,-1.135970166441163,-0.7076988093694054,-0.05788906291127205,-0.02581953443586826,-0.01348238531500101,-0.002302289009094238,-0.01474165916442871,-0.02907392382621765,XArbitraryZVertical,-0.3677777091808094,0.452430167629838,-0.805364297811289,-0.1069332033007183,-0.6891496777534485,0.6500869393348694,-0.3200930058956146,0,0,0,-1,-1,18392.868614625,unknown,2,2025-04-21T15:23:09.773+03:00,2025-04-20T21:57:49.637+03:00,6680,0.9704633,0,0,5487.079,5,6,2025-04-21T15:22:28.502+03:00,766930995.0206352,0,-43.8,100.2578,1,0.45,2025-04-21T15:21:14.605+03:00,112,1.866666666666667,2025-04-21T12:30:07.995+03:00,0.02023345852159405,0
