loggingTime(txt),locationTimestamp_since1970(s),locationLatitude(WGS84),locationLongitude(WGS84),locationAltitude(m),locationSpeed(m/s),locationSpeedAccuracy(m/s),locationCourse(°),locationCourseAccuracy(°),locationVerticalAccuracy(m),locationHorizontalAccuracy(m),locationFloor(Z),accelerometerTimestamp_sinceReboot(s),accelerometerAccelerationX(G),accelerometerAccelerationY(G),accelerometerAccelerationZ(G),motionTimestamp_sinceReboot(s),motionYaw(rad),motionRoll(rad),motionPitch(rad),motionRotationRateX(rad/s),motionRotationRateY(rad/s),motionRotationRateZ(rad/s),motionUserAccelerationX(G),motionUserAccelerationY(G),motionUserAccelerationZ(G),motionAttitudeReferenceFrame(txt),motionQuaternionX(R),motionQuaternionY(R),motionQuaternionZ(R),motionQuaternionW(R),motionGravityX(G),motionGravityY(G),motionGravityZ(G),motionMagneticFieldX(µT),motionMagneticFieldY(µT),motionMagneticFieldZ(µT),motionHeading(°),motionMagneticFieldCalibrationAccuracy(Z),activityTimestamp_sinceReboot(s),activity(txt),activityActivityConfidence(Z),activityActivityStartDate(txt),pedometerStartDate(txt),pedometerNumberofSteps(N),pedometerAverageActivePace(s/m),pedometerCurrentPace(s/m),pedometerCurrentCadence(steps/s),pedometerDistance(m),pedometerFloorAscended(N),pedometerFloorDescended(N),pedometerEndDate(txt),altimeterTimestamp_sinceReboot(s),altimeterReset(bool),altimeterRelativeAltitude(m),altimeterPressure(kPa),batteryState(N),batteryLevel(R),heartRateBPMTimestamp(txt),heartRateBPM(N),heartRateBPS(R),heartRateVariabilityTimestamp(txt),heartRateVariability(ms),label
2025-04-21T15:44:54.338+03:00,1745239493.52687,40.95230025794708,29.14030550074007,76.50296,-1,-1,-1,-1,30,27.58914568789791,-9999,19080.556131,-0.57574462890625,0.7518768310546875,-0.3381195068359375,19080.546055,2.529598270636657,-1.041645122567552,-0.8432513463393736,0.09605369716882706,-0.01616368442773819,-0.02530314773321152,-0.007748126983642578,-0.04183810949325562,0.008837968111038208,XArbitraryZVertical,0.3259900369397414,-0.4752626361840138,0.8160261648598081,0.04424086058387112,-0.5740848779678345,0.7468093037605286,-0.3357118368148804,0,0,0,-1,-1,19076.073705875,unknown,2,2025-04-21T15:44:49.834+03:00,2025-04-20T21:57:49.637+03:00,6727,0.976288,0,0,5522.566,5,6,2025-04-21T15:44:52.413+03:00,766931799.8428298,0,-43.25,100.2547,1,0.4,2025-04-21T15:39:34.104+03:00,89,1.483333333333333,2025-04-21T12:30:07.995+03:00,0.02023345852159405,0
2025-04-21T15:44:54.340+03:00,1745239493.52687,40.95230025794708,29.14030550074007,76.50296,-1,-1,-1,-1,30,27.58914568789791,-9999,19080.566207,-0.57122802734375,0.747528076171875,-0.3390655517578125,19080.556131,2.530818675167887,-1.040885323315288,-0.8425007881727054,0.1128425300121307,-0.01511280052363873,-0.02477078139781952,-0.02969092130661011,-0.01246923208236694,-0.002649754285812378,XArbitraryZVertical,0.3261321166616005,-0.4747865764936803,0.8162526423769721,0.04412570993498773,-0.5743129849433899,0.7463099956512451,-0.336431086063385,0,0,0,-1,-1,19076.073705875,unknown,2,2025-04-21T15:44:49.834+03:00,2025-04-20T21:57:49.637+03:00,6727,0.976288,0,0,5522.566,5,6,2025-04-21T15:44:52.413+03:00,766931799.8428298,0,-43.25,100.2547,1,0.4,2025-04-21T15:39:34.104+03:00,89,1.483333333333333,2025-04-21T12:30:07.995+03:00,0.02023345852159405,0
2025-04-21T15:44:54.342+03:00,1745239493.52687,40.95230025794708,29.14030550074007,76.50296,-1,-1,-1,-1,30,27.58914568789791,-9999,19080.576283,-0.5772857666015625,0.7458343505859375,-0.3509368896484375,19080.566207,2.53229535074034,-1.039850115871473,-0.8416892311334676,0.1318967044353485,-0.006102195009589195,-0.0192263126373291,0.002403914928436279,0.006259679794311523,-0.0004976987838745117,XArbitraryZVertical,0.3262350527169078,-0.4742411771399434,0.8165359520037141,0.04398728136530271,-0.5744864344596863,0.7457695603370667,-0.3373319804668427,0,0,0,-1,-1,19076.073705875,unknown,2,2025-04-21T15:44:49.834+03:00,2025-04-20T21:57:49.637+03:00,6727,0.976288,0,0,5522.566,5,6,2025-04-21T15:44:52.413+03:00,766931799.8428298,0,-43.25,100.2547,1,0.4,2025-04-21T15:39:34.104+03:00,89,1.483333333333333,2025-04-21T12:30:07.995+03:00,0.02023345852159405,0
2025-04-21T15:44:54.352+03:00,1745239493.52687,40.95230025794708,29.14030550074007,76.50296,-1,-1,-1,-1,30,27.58914568789791,-9999,19080.586358,-0.5704498291015625,0.7454681396484375,-0.3563232421875,19080.576283,2.534010717558816,-1.038552284813597,-0.8408660774318335,0.1443411260843277,0.006256204098463058,-0.016116539016366,0.001746773719787598,0.00160515308380127,-0.001058369874954224,XArbitraryZVertical,0.3262888270089275,-0.4736467112852183,0.816868743224357,0.04381619914477627,-0.5745770931243896,0.7452208995819092,-0.3383888006210327,0,0,0,-1,-1,19076.073705875,unknown,2,2025-04-21T15:44:49.834+03:00,2025-04-20T21:57:49.637+03:00,6727,0.976288,0,0,5522.566,5,6,2025-04-21T15:44:52.413+03:00,766931799.8428298,0,-43.25,100.2547,1,0.4,2025-04-21T15:39:34.104+03:00,89,1.483333333333333,2025-04-21T12:30:07.995+03:00,0.02023345852159405,0
2025-04-21T15:44:54.361+03:00,1745239493.52687,40.95230025794708,29.14030550074007,76.50296,-1,-1,-1,-1,30,27.58914568789791,-9999,19080.596434,-0.56903076171875,0.7385101318359375,-0.3538665771484375,19080.586358,2.535749319451185,-1.037192362036242,-0.8400361101271862,0.1379684656858444,0.002704878803342581,-0.02017879299819469,-0.002270936965942383,0.001563727855682373,-0.01293277740478516,XArbitraryZVertical,0.3263231706042726,-0.4730444234014093,0.8172127827535454,0.04365101859326779,-0.5746486783027649,0.7446672320365906,-0.3394843339920044,0,0,0,-1,-1,19076.073705875,unknown,2,2025-04-21T15:44:49.834+03:00,2025-04-20T21:57:49.637+03:00,6727,0.976288,0,0,5522.566,5,6,2025-04-21T15:44:52.413+03:00,766931799.8428298,0,-43.25,100.2547,1,0.4,2025-04-21T15:39:34.104+03:00,89,1.483333333333333,2025-04-21T12:30:07.995+03:00,0.02023345852159405,0
2025-04-21T15:44:54.371+03:00,1745239493.52687,40.95230025794708,29.14030550074007,76.50296,-1,-1,-1,-1,30,27.58914568789791,-9999,19080.60651,-0.57147216796875,0.732421875,-0.346038818359375,19080.596434,2.537357129001549,-1.035925518263125,-0.8392822336974539,0.1245682239532471,0.01110182516276836,-0.008253423497080803,0.004952967166900635,0.001288831233978271,-0.01541325449943542,XArbitraryZVertical,0.3263472507624998,-0.4724917365443966,0.8175310679834225,0.04349584996195609,-0.5747008919715881,0.7441638708114624,-0.3404980599880219,0,0,0,-1,-1,19076.073705875,unknown,2,2025-04-21T15:44:49.834+03:00,2025-04-20T21:57:49.637+03:00,6727,0.976288,0,0,5522.566,5,6,2025-04-21T15:44:52.413+03:00,766931799.8428298,0,-43.25,100.2547,1,0.4,2025-04-21T15:39:34.104+03:00,89,1.483333333333333,2025-04-21T12:30:07.995+03:00,0.02023345852159405,0
2025-04-21T15:44:54.381+03:00,1745239493.52687,40.95230025794708,29.14030550074007,76.50296,-1,-1,-1,-1,30,27.58914568789791,-9999,19080.616586,-0.5698394775390625,0.7266998291015625,-0.3314971923828125,19080.60651,2.53886125195741,-1.034677128155388,-0.838717239650787,0.1107869669795036,0.01541994139552116,-0.001704411115497351,0.005224525928497314,-0.006771683692932129,-0.0124366283416748,XArbitraryZVertical,0.3263129988122344,-0.4720220662213264,0.8178249844343047,0.04332736561282488,-0.5746368169784546,0.7437863349914551,-0.3414299786090851,0,0,0,-1,-1,19076.073705875,unknown,2,2025-04-21T15:44:49.834+03:00,2025-04-20T21:57:49.637+03:00,6727,0.976288,0,0,5522.566,5,6,2025-04-21T15:44:52.413+03:00,766931799.8428298,0,-43.25,100.2547,1,0.4,2025-04-21T15:39:34.104+03:00,89,1.483333333333333,2025-04-21T12:30:07.995+03:00,0.02023345852159405,0
2025-04-21T15:44:54.392+03:00,1745239493.52687,40.95230025794708,29.14030550074007,76.50296,-1,-1,-1,-1,30,27.58914568789791,-9999,19080.626661,-0.5695037841796875,0.720245361328125,-0.3252105712890625,19080.616586,2.540103027190384,-1.033643398540356,-0.8381850934220165,0.0867530032992363,0.006166521925479174,-0.0004085169057361782,0.003471672534942627,-0.01052051782608032,-0.002103626728057861,XArbitraryZVertical,0.326296973154348,-0.4716112252818803,0.818074742561877,0.0432059659834514,-0.5746234655380249,0.743430495262146,-0.3422262668609619,0,0,0,-1,-1,19076.073705875,unknown,2,2025-04-21T15:44:49.834+03:00,2025-04-20T21:57:49.637+03:00,6727,0.976288,0,0,5522.566,5,6,2025-04-21T15:44:52.413+03:00,766931799.8428298,0,-43.25,100.2547,1,0.4,2025-04-21T15:39:34.104+03:00,89,1.483333333333333,2025-04-21T12:30:07.995+03:00,0.02023345852159405,0
2025-04-21T15:44:54.402+03:00,1745239493.52687,40.95230025794708,29.14030550074007,76.50296,-1,-1,-1,-1,30,27.58914568789791,-9999,19080.636737,-0.567047119140625,0.7294464111328125,-0.3315582275390625,19080.626661,2.541052708646416,-1.032942730158054,-0.8377187424852653,0.07095886021852493,-0.004856833722442389,-0.00213624257594347,0.00459754467010498,-0.0177464485168457,0.01292654871940613,XArbitraryZVertical,0.3263338143182691,-0.4712781267215421,0.8182571247953591,0.04310745557558969,-0.5746811628341675,0.7431185245513916,-0.342806339263916,0,0,0,-1,-1,19076.073705875,unknown,2,2025-04-21T15:44:49.834+03:00,2025-04-20T21:57:49.637+03:00,6727,0.976288,0,0,5522.566,5,6,2025-04-21T15:44:52.413+03:00,766931799.8428298,0,-43.25,100.2547,1,0.4,2025-04-21T15:39:34.104+03:00,89,1.483333333333333,2025-04-21T12:30:07.995+03:00,0.02023345852159405,0
2025-04-21T15:44:54.412+03:00,1745239493.52687,40.95230025794708,29.14030550074007,76.50296,-1,-1,-1,-1,30,27.58914568789791,-9999,19080.646813,-0.569000244140625,0.7398681640625,-0.3406524658203125,19080.636737,2.541886918513038,-1.032449757140671,-0.8373328625035009,0.06694334745407104,-0.01807117275893688,0.003077161498367786,0.005452871322631836,-0.02156215906143188,0.01840749382972717,XArbitraryZVertical,0.3264108795365196,-0.4709963877177569,0.8183951009717927,0.04298572126234484,-0.5747583508491516,0.7428602576255798,-0.3432366847991943,0,0,0,-1,-1,19076.073705875,unknown,2,2025-04-21T15:44:49.834+03:00,2025-04-20T21:57:49.637+03:00,6727,0.976288,0,0,5522.566,5,6,2025-04-21T15:44:52.413+03:00,766931799.8428298,0,-43.25,100.2547,1,0.4,2025-04-21T15:39:34.104+03:00,89,1.483333333333333,2025-04-21T12:30:07.995+03:00,0.02023345852159405,0
2025-04-21T15:44:54.422+03:00,1745239493.52687,40.95230025794708,29.14030550074007,76.50296,-1,-1,-1,-1,30,27.58914568789791,-9999,19080.656889,-0.5698394775390625,0.7463836669921875,-0.3465118408203125,19080.646813,2.542723187862663,-1.032021661116766,-0.8370652077220297,0.06401672959327698,-0.02069205604493618,0.005868653766810894,0.007750153541564941,-0.01154100894927979,0.01085147261619568,XArbitraryZVertical,0.3264895974456962,-0.4707570188325008,0.8185103621804508,0.04281598090048223,-0.5747820734977722,0.7426810264587402,-0.3435847461223602,0,0,0,-1,-1,19076.073705875,unknown,2,2025-04-21T15:44:49.834+03:00,2025-04-20T21:57:49.637+03:00,6727,0.976288,0,0,5522.566,5,6,2025-04-21T15:44:52.413+03:00,766931799.8428298,0,-43.25,100.2547,1,0.4,2025-04-21T15:39:34.104+03:00,89,1.483333333333333,2025-04-21T12:30:07.995+03:00,0.02023345852159405,0
2025-04-21T15:44:54.432+03:00,1745239493.52687,40.95230025794708,29.14030550074007,76.50296,-1,-1,-1,-1,30,27.58914568789791,-9999,19080.666964,-0.572906494140625,0.747100830078125,-0.345947265625,19080.656889,2.543585403040618,-1.031576943766735,-0.8367694815040849,0.0664236918091774,-0.01788295432925224,-0.0008275985601358116,0.005939304828643799,-0.001302778720855713,0.002232342958450317,XArbitraryZVertical,0.326573515793796,-0.4705031953443172,0.8186315173272571,0.04264660328718898,-0.5748174786567688,0.7424829602241516,-0.3439529538154602,0,0,0,-1,-1,19076.073705875,unknown,2,2025-04-21T15:44:49.834+03:00,2025-04-20T21:57:49.637+03:00,6727,0.976288,0,0,5522.566,5,6,2025-04-21T15:44:52.413+03:00,766931799.8428298,0,-43.25,100.2547,1,0.4,2025-04-21T15:39:34.104+03:00,89,1.483333333333333,2025-04-21T12:30:07.995+03:00,0.02023345852159405,0
2025-04-21T15:44:54.442+03:00,1745239493.52687,40.95230025794708,29.14030550074007,76.50296,-1,-1,-1,-1,30,27.58914568789791,-9999,19080.67704,-0.579559326171875,0.7451019287109375,-0.346160888671875,19080.666964,2.544443332238441,-1.031073240788011,-0.8363881256961724,0.06690160185098648,-0.01202439982444048,-0.007134030573070049,0.00492560863494873,0.004705369472503662,-0.002474784851074219,XArbitraryZVertical,0.3266501385331493,-0.4702187331258428,0.8187713117172141,0.04251604138106019,-0.574887216091156,0.7422274947166443,-0.3443880677223206,0,0,0,-1,-1,19076.073705875,unknown,2,2025-04-21T15:44:49.834+03:00,2025-04-20T21:57:49.637+03:00,6727,0.976288,0,0,5522.566,5,6,2025-04-21T15:44:52.413+03:00,766931799.8428298,0,-43.25,100.2547,1,0.4,2025-04-21T15:39:34.104+03:00,89,1.483333333333333,2025-04-21T12:30:07.995+03:00,0.02023345852159405,0
2025-04-21T15:44:54.452+03:00,1745239493.52687,40.95230025794708,29.14030550074007,76.50296,-1,-1,-1,-1,30,27.58914568789791,-9999,19080.687116,-0.5785369873046875,0.742034912109375,-0.348388671875,19080.67704,2.545240202848245,-1.030591429850011,-0.8359469866856503,0.06994639337062836,-0.02310927584767342,-0.01654644124209881,0.0008441805839538574,0.005168914794921875,-0.001175045967102051,XArbitraryZVertical,0.3267339274483564,-0.4699236784787606,0.8189121784785431,0.04242086392665412,-0.5750018954277039,0.7419317960739136,-0.3448333442211151,0,0,0,-1,-1,19076.073705875,unknown,2,2025-04-21T15:44:49.834+03:00,2025-04-20T21:57:49.637+03:00,6727,0.976288,0,0,5522.566,5,6,2025-04-21T15:44:52.413+03:00,766931799.8428298,0,-43.25,100.2547,1,0.4,2025-04-21T15:39:34.104+03:00,89,1.483333333333333,2025-04-21T12:30:07.995+03:00,0.02023345852159405,0
2025-04-21T15:44:54.463+03:00,1745239493.52687,40.95230025794708,29.14030550074007,76.50296,-1,-1,-1,-1,30,27.58914568789791,-9999,19080.697192,-0.573944091796875,0.74530029296875,-0.349945068359375,19080.687116,2.546039195240814,-1.030165850589205,-0.835367778856554,0.07302181422710419,-0.008348971605300903,-0.02420822158455849,-0.004824161529541016,0.003192305564880371,-0.001243263483047485,XArbitraryZVertical,0.3268702661965061,-0.469580915601609,0.819058172885648,0.04234840213999733,-0.5752235054969788,0.7415432929992676,-0.3452991843223572,0,0,0,-1,-1,19076.073705875,unknown,2,2025-04-21T15:44:49.834+03:00,2025-04-20T21:57:49.637+03:00,6727,0.976288,0,0,5522.566,5,6,2025-04-21T15:44:52.413+03:00,766931799.8428298,0,-43.25,100.2547,1,0.4,2025-04-21T15:39:34.104+03:00,89,1.483333333333333,2025-04-21T12:30:07.995+03:00,0.02023345852159405,0
2025-04-21T15:44:54.472+03:00,1745239493.52687,40.95230025794708,29.14030550074007,76.50296,-1,-1,-1,-1,30,27.58914568789791,-9999,19080.70726766667,-0.569732666015625,0.740447998046875,-0.3514556884765625,19080.697192,2.546988170406521,-1.029563953030909,-0.8349167229722162,0.07622799277305603,-0.01626521721482277,0.001972515601664782,-0.003006041049957275,0.001572310924530029,-0.003303617238998413,XArbitraryZVertical,0.3269422094634282,-0.4692547570632276,0.8192228096020466,0.04222120106740561,-0.5753020048141479,0.7412406206130981,-0.3458175361156464,0,0,0,-1,-1,19076.073705875,unknown,2,2025-04-21T15:44:49.834+03:00,2025-04-20T21:57:49.637+03:00,6727,0.976288,0,0,5522.566,5,6,2025-04-21T15:44:52.413+03:00,766931799.8428298,0,-43.25,100.2547,1,0.4,2025-04-21T15:39:34.104+03:00,89,1.483333333333333,2025-04-21T12:30:07.995+03:00,0.02023345852159405,0
2025-04-21T15:44:54.482+03:00,1745239493.52687,40.95230025794708,29.14030550074007,76.50296,-1,-1,-1,-1,30,27.58914568789791,-9999,19080.71734266667,-0.56689453125,0.73187255859375,-0.351348876953125,19080.70726766667,2.547929889485524,-1.029040653751022,-0.8345482483918644,0.06603720784187317,-0.01557406038045883,0.003528634086251259,0.001105666160583496,0.0033760666847229,-0.003304332494735718,XArbitraryZVertical,0.3270268178402077,-0.4689603477921305,0.8193660361265885,0.04205638581113973,-0.5753548741340637,0.7409932017326355,-0.3462592959403992,0,0,0,-1,-1,19076.073705875,unknown,2,2025-04-21T15:44:49.834+03:00,2025-04-20T21:57:49.637+03:00,6727,0.976288,0,0,5522.566,5,6,2025-04-21T15:44:52.413+03:00,766931799.8428298,0,-43.25,100.2547,1,0.4,2025-04-21T15:39:34.104+03:00,89,1.483333333333333,2025-04-21T12:30:07.995+03:00,0.02023345852159405,0
2025-04-21T15:44:54.492+03:00,1745239493.52687,40.95230025794708,29.14030550074007,76.50296,-1,-1,-1,-1,30,27.58914568789791,-9999,19080.72741866667,-0.5663909912109375,0.716461181640625,-0.3484344482421875,19080.71734266667,2.54864814330219,-1.028704680676474,-0.8343389037201212,0.04293082281947136,-0.02005988918244839,0.01120839174836874,0.007286727428436279,-0.001137256622314453,-0.004343241453170776,XArbitraryZVertical,0.3271018480273068,-0.4687622689830148,0.8194576280008661,0.0418967326844079,-0.5753714442253113,0.7408526539802551,-0.3465326428413391,0,0,0,-1,-1,19076.073705875,unknown,2,2025-04-21T15:44:49.834+03:00,2025-04-20T21:57:49.637+03:00,6727,0.976288,0,0,5522.566,5,6,2025-04-21T15:44:52.413+03:00,766931799.8428298,0,-43.25,100.2547,1,0.4,2025-04-21T15:39:34.104+03:00,89,1.483333333333333,2025-04-21T12:30:07.995+03:00,0.02023345852159405,0
2025-04-21T15:44:54.503+03:00,1745239493.52687,40.95230025794708,29.14030550074007,76.50296,-1,-1,-1,-1,30,27.58914568789791,-9999,19080.73749466667,-0.561065673828125,0.7210540771484375,-0.342193603515625,19080.72741866667,2.549124719560704,-1.028580864098151,-0.8342691106127226,0.02403429336845875,-0.02532369457185268,0.009317247197031975,0.007227122783660889,-0.01093226671218872,-0.004672527313232422,XArbitraryZVertical,0.3271775144105127,-0.4686571845453573,0.8194951543241662,0.04174924195441451,-0.5753729343414307,0.7408057451248169,-0.3466306328773499,0,0,0,-1,-1,19076.073705875,unknown,2,2025-04-21T15:44:49.834+03:00,2025-04-20T21:57:49.637+03:00,6727,0.976288,0,0,5522.566,5,6,2025-04-21T15:44:52.413+03:00,766931799.8428298,0,-43.25,100.2547,1,0.4,2025-04-21T15:39:34.104+03:00,89,1.483333333333333,2025-04-21T12:30:07.995+03:00,0.02023345852159405,0
2025-04-21T15:44:54.512+03:00,1745239493.52687,40.95230025794708,29.14030550074007,76.50296,-1,-1,-1,-1,30,27.58914568789791,-9999,19080.74757066667,-0.563934326171875,0.7278900146484375,-0.33807373046875,19080.73749466667,2.549398880396228,-1.028627180515835,-0.8342556630690251,0.009344298392534256,-0.02578894793987274,0.01075295731425285,0.01018136739730835,-0.02450352907180786,-0.001886487007141113,XArbitraryZVertical,0.3272635928226744,-0.4686085688035618,0.8194946408176096,0.04162958860206743,-0.5753974914550781,0.7407967448234558,-0.3466090857982635,0,0,0,-1,-1,19076.073705875,unknown,2,2025-04-21T15:44:49.834+03:00,2025-04-20T21:57:49.637+03:00,6727,0.976288,0,0,5522.566,5,6,2025-04-21T15:44:52.413+03:00,766931799.8428298,0,-43.25,100.2547,1,0.4,2025-04-21T15:39:34.104+03:00,89,1.483333333333333,2025-04-21T12:30:07.995+03:00,0.02023345852159405,0
2025-04-21T15:44:54.523+03:00,1745239493.52687,40.95230025794708,29.14030550074007,76.50296,-1,-1,-1,-1,30,27.58914568789791,-9999,19080.75764566667,-0.56744384765625,0.7300872802734375,-0.3411865234375,19080.74757066667,2.549620639617453,-1.028733983547911,-0.8343095622265876,0.007537409663200378,-0.03075487911701202,0.01026763021945953,0.01354110240936279,-0.0184515118598938,0.004897952079772949,XArbitraryZVertical,0.3273479263826181,-0.4685934488192495,0.8194761938249375,0.04149930538695062,-0.5754002928733826,0.7408329248428345,-0.3465270400047302,0,0,0,-1,-1,19076.073705875,unknown,2,2025-04-21T15:44:49.834+03:00,2025-04-20T21:57:49.637+03:00,6727,0.976288,0,0,5522.566,5,6,2025-04-21T15:44:52.413+03:00,766931799.8428298,0,-43.25,100.2547,1,0.4,2025-04-21T15:39:34.104+03:00,89,1.483333333333333,2025-04-21T12:30:07.995+03:00,0.02023345852159405,0
2025-04-21T15:44:54.533+03:00,1745239493.52687,40.95230025794708,29.14030550074007,76.50296,-1,-1,-1,-1,30,27.58914568789791,-9999,19080.76772166667,-0.574127197265625,0.7327117919921875,-0.3426055908203125,19080.75764566667,2.549769853972061,-1.028918364943272,-0.8343949104492777,0.003560511162504554,-0.02826854959130287,0.01273132022470236,0.01156723499298096,-0.01237475872039795,0.008833348751068115,XArbitraryZVertical,0.3274403559402005,-0.4686028454727472,0.8194403788487927,0.04137231790913903,-0.5754100680351257,0.7408902645111084,-0.3463883697986603,0,0,0,-1,-1,19076.073705875,unknown,2,2025-04-21T15:44:49.834+03:00,2025-04-20T21:57:49.637+03:00,6727,0.976288,0,0,5522.566,5,6,2025-04-21T15:44:52.413+03:00,766931799.8428298,0,-43.25,100.2547,1,0.4,2025-04-21T15:39:34.104+03:00,89,1.483333333333333,2025-04-21T12:30:07.995+03:00,0.02023345852159405,0
2025-04-21T15:44:54.543+03:00,1745239493.52687,40.95230025794708,29.14030550074007,76.50296,-1,-1,-1,-1,30,27.58914568789791,-9999,19080.77779766667,-0.57977294921875,0.736968994140625,-0.344268798828125,19080.76772166667,2.549934030798473,-1.029074439072293,-0.8344818353746164,0.006293313577771187,-0.02562682703137398,0.01382314972579479,0.007492005825042725,-0.01023590564727783,0.004407346248626709,XArbitraryZVertical,0.3275244079612774,-0.468609748894888,0.8194092158726339,0.04124526513782595,-0.5754088759422302,0.7409486174583435,-0.3462653160095215,0,0,0,-1,-1,19076.073705875,unknown,2,2025-04-21T15:44:49.834+03:00,2025-04-20T21:57:49.637+03:00,6727,0.976288,0,0,5522.566,5,6,2025-04-21T15:44:52.413+03:00,766931799.8428298,0,-43.25,100.2547,1,0.4,2025-04-21T15:39:34.104+03:00,89,1.483333333333333,2025-04-21T12:30:07.995+03:00,0.02023345852159405,0
2025-04-21T15:44:54.553+03:00,1745239493.52687,40.95230025794708,29.14030550074007,76.50296,-1,-1,-1,-1,30,27.58914568789791,-9999,19080.78787366667,-0.5834503173828125,0.7369842529296875,-0.3493499755859375,19080.77779766667,2.550114252753968,-1.029163630909739,-0.8345641845958678,0.003059171140193939,-0.01886692456901073,0.01532730180770159,-6.723403930664062e-05,-0.007163166999816895,0.003332793712615967,XArbitraryZVertical,0.3275857580653884,-0.4686110186543938,0.8193898508840614,0.04112860978784549,-0.5753875374794006,0.7410039305686951,-0.3461825549602509,0,0,0,-1,-1,19076.073705875,unknown,2,2025-04-21T15:44:49.834+03:00,2025-04-20T21:57:49.637+03:00,6727,0.976288,0,0,5522.566,5,6,2025-04-21T15:44:52.413+03:00,766931799.8428298,0,-43.25,100.2547,1,0.4,2025-04-21T15:39:34.104+03:00,89,1.483333333333333,2025-04-21T12:30:07.995+03:00,0.02023345852159405,0
2025-04-21T15:44:54.563+03:00,1745239493.52687,40.95230025794708,29.14030550074007,76.50296,-1,-1,-1,-1,30,27.58914568789791,-9999,19080.79794866667,-0.5814666748046875,0.736724853515625,-0.3513946533203125,19080.78787366667,2.55028585633924,-1.029181922006785,-0.834671534210592,0.002585128648206592,-0.01120607648044825,0.01499321032315493,-0.005469739437103271,-0.004030883312225342,0.001450121402740479,XArbitraryZVertical,0.3276108010869939,-0.46862103014156,0.819379233032944,0.04102530746371573,-0.575325608253479,0.7410759925842285,-0.3461309969425201,0,0,0,-1,-1,19076.073705875,unknown,2,2025-04-21T15:44:49.834+03:00,2025-04-20T21:57:49.637+03:00,6727,0.976288,0,0,5522.566,5,6,2025-04-21T15:44:52.413+03:00,766931799.8428298,0,-43.25,100.2547,1,0.4,2025-04-21T15:39:34.104+03:00,89,1.483333333333333,2025-04-21T12:30:07.995+03:00,0.02023345852159405,0
2025-04-21T15:44:54.573+03:00,1745239493.52687,40.95230025794708,29.14030550074007,76.50296,-1,-1,-1,-1,30,27.58914568789791,-9999,19080.80802466667,-0.5771484375,0.736175537109375,-0.351165771484375,19080.79794866667,2.550490509539514,-1.02913631386408,-0.8347617608762554,0.006929542869329453,-0.01192246656864882,0.01225414872169495,-0.00770944356918335,-0.004839122295379639,-0.00345611572265625,XArbitraryZVertical,0.3276209716127982,-0.4686182892330441,0.8193816456787723,0.04092817992244908,-0.5752525925636292,0.7411366105079651,-0.3461228013038635,0,0,0,-1,-1,19076.073705875,unknown,2,2025-04-21T15:44:49.834+03:00,2025-04-20T21:57:49.637+03:00,6727,0.976288,0,0,5522.566,5,6,2025-04-21T15:44:52.413+03:00,766931799.8428298,0,-43.25,100.2547,1,0.4,2025-04-21T15:39:34.104+03:00,89,1.483333333333333,2025-04-21T12:30:07.995+03:00,0.02023345852159405,0
2025-04-21T15:44:54.583+03:00,1745239493.52687,40.95230025794708,29.14030550074007,76.50296,-1,-1,-1,-1,30,27.58914568789791,-9999,19080.81810066667,-0.573089599609375,0.7376556396484375,-0.347412109375,19080.80802466667,2.550666127730175,-1.029104609024195,-0.8347967872840329,0.008672981522977352,-0.009798729792237282,0.008549891412258148,-0.005652308464050293,-0.004084467887878418,-0.004855155944824219,XArbitraryZVertical,0.3276417657909954,-0.4686011919644466,0.8193867309927901,0.04085421313569949,-0.5752192735671997,0.7411600947380066,-0.3461275994777679,0,0,0,-1,-1,19076.073705875,unknown,2,2025-04-21T15:44:49.834+03:00,2025-04-20T21:57:49.637+03:00,6727,0.976288,0,0,5522.566,5,6,2025-04-21T15:44:52.413+03:00,766931799.8428298,0,-43.25,100.2547,1,0.4,2025-04-21T15:39:34.104+03:00,89,1.483333333333333,2025-04-21T12:30:07.995+03:00,0.02023345852159405,0
2025-04-21T15:44:54.593+03:00,1745239493.52687,40.95230025794708,29.14030550074007,76.50296,-1,-1,-1,-1,30,27.58914568789791,-9999,19080.82817666667,-0.5706634521484375,0.7450103759765625,-0.3455352783203125,19080.81810066667,2.550913808341989,-1.029037085522995,-0.8348162962589536,0.01505205128341913,-0.01468935795128345,0.01852076500654221,-0.001247763633728027,-0.004692673683166504,-0.005205243825912476,XArbitraryZVertical,0.3276680228901176,-0.4685660988267782,0.8194008014539997,0.0407633192603845,-0.5751835107803345,0.7411732077598572,-0.3461589515209198,0,0,0,-1,-1,19076.073705875,unknown,2,2025-04-21T15:44:49.834+03:00,2025-04-20T21:57:49.637+03:00,6727,0.976288,0,0,5522.566,5,6,2025-04-21T15:44:52.413+03:00,766931799.8428298,0,-43.25,100.2547,1,0.4,2025-04-21T15:39:34.104+03:00,89,1.483333333333333,2025-04-21T12:30:07.995+03:00,0.02023345852159405,0
2025-04-21T15:44:54.603+03:00,1745239493.52687,40.95230025794708,29.14030550074007,76.50296,-1,-1,-1,-1,30,27.58914568789791,-9999,19080.83825266667,-0.575469970703125,0.7373504638671875,-0.345550537109375,19080.82817666667,2.551160056344762,-1.028985320415147,-0.8348661728459477,0.005799164529889822,-0.0135726947337389,0.007582364603877068,0.002227425575256348,-0.003291785717010498,-0.000677943229675293,XArbitraryZVertical,0.3276939551799294,-0.4685422366270605,0.819409172310006,0.04066130745171873,-0.5751339197158813,0.7412067055702209,-0.3461696803569794,0,0,0,-1,-1,19076.073705875,unknown,2,2025-04-21T15:44:49.834+03:00,2025-04-20T21:57:49.637+03:00,6727,0.976288,0,0,5522.566,5,6,2025-04-21T15:44:52.413+03:00,766931799.8428298,0,-43.25,100.2547,1,0.4,2025-04-21T15:39:34.104+03:00,89,1.483333333333333,2025-04-21T12:30:07.995+03:00,0.02023345852159405,0
2025-04-21T15:44:54.613+03:00,1745239493.52687,40.95230025794708,29.14030550074007,76.50296,-1,-1,-1,-1,30,27.58914568789791,-9999,19080.84832766667,-0.583404541015625,0.7241058349609375,-0.342987060546875,19080.83825266667,2.551205368039176,-1.029062435839074,-0.8349046314097507,-0.002839064924046397,-0.008667951449751854,0.001359622227028012,0.004854321479797363,0.004586458206176758,-0.0003706812858581543,XArbitraryZVertical,0.3277279969055159,-0.4685498968776004,0.8193935821373258,0.04061456144957957,-0.5751363039016724,0.7412325143814087,-0.3461107015609741,0,0,0,-1,-1,19076.073705875,unknown,2,2025-04-21T15:44:49.834+03:00,2025-04-20T21:57:49.637+03:00,6727,0.976288,0,0,5522.566,5,6,2025-04-21T15:44:52.413+03:00,766931799.8428298,0,-43.25,100.2547,1,0.4,2025-04-21T15:39:34.104+03:00,89,1.483333333333333,2025-04-21T12:30:07.995+03:00,0.02023345852159405,0
2025-04-21T15:44:54.624+03:00,1745239493.52687,40.95230025794708,29.14030550074007,76.50296,-1,-1,-1,-1,30,27.58914568789791,-9999,19080.85840366667,-0.5812835693359375,0.7343597412109375,-0.342071533203125,19080.84832766667,2.55122826554513,-1.029104770065467,-0.834945257404104,0.001107273856177926,-0.007049481850117445,0.006526987068355083,-0.00170290470123291,-0.006259262561798096,0.001649349927902222,XArbitraryZVertical,0.3277421264156328,-0.468561290252561,0.8193829059546578,0.04058442979672679,-0.5751251578330994,0.741259753704071,-0.3460708260536194,0,0,0,-1,-1,19076.073705875,unknown,2,2025-04-21T15:44:49.834+03:00,2025-04-20T21:57:49.637+03:00,6727,0.976288,0,0,5522.566,5,6,2025-04-21T15:44:52.413+03:00,766931799.8428298,0,-43.25,100.2547,1,0.4,2025-04-21T15:39:34.104+03:00,89,1.483333333333333,2025-04-21T12:30:07.995+03:00,0.02023345852159405,0
2025-04-21T15:44:54.635+03:00,1745239493.52687,40.95230025794708,29.14030550074007,76.50296,-1,-1,-1,-1,30,27.58914568789791,-9999,19080.86847966667,-0.5774078369140625,0.7320556640625,-0.3427581787109375,19080.85840366667,2.551288796332124,-1.029118435308315,-0.8349890656355221,-5.25328068761155e-05,-0.003561805468052626,0.009561925195157528,-0.008378803730010986,-0.01628321409225464,0.002738654613494873,XArbitraryZVertical,0.3277526625262597,-0.4685670540026478,0.8193773447177264,0.04054472673870033,-0.5751020312309265,0.7412891983985901,-0.3460462093353271,0,0,0,-1,-1,19076.073705875,unknown,2,2025-04-21T15:44:49.834+03:00,2025-04-20T21:57:49.637+03:00,6727,0.976288,0,0,5522.566,5,6,2025-04-21T15:44:52.413+03:00,766931799.8428298,0,-43.25,100.2547,1,0.4,2025-04-21T15:39:34.104+03:00,89,1.483333333333333,2025-04-21T12:30:07.995+03:00,0.02023345852159405,0
2025-04-21T15:44:54.646+03:00,1745239493.52687,40.95230025794708,29.14030550074007,76.50296,-1,-1,-1,-1,30,27.58914568789791,-9999,19080.87855566667,-0.577850341796875,0.7296295166015625,-0.342803955078125,19080.86847966667,2.551323237256657,-1.029142920173323,-0.8350956352978364,-0.004592423792928457,-0.005298452917486429,0.01488172262907028,-0.005584716796875,-0.007077395915985107,0.003873944282531738,XArbitraryZVertical,0.327748292037859,-0.4685993847713897,0.8193629255012834,0.04049636507443777,-0.575042724609375,0.7413607239723206,-0.3459913432598114,0,0,0,-1,-1,19076.073705875,unknown,2,2025-04-21T15:44:49.834+03:00,2025-04-20T21:57:49.637+03:00,6727,0.976288,0,0,5522.566,5,6,2025-04-21T15:44:52.413+03:00,766931799.8428298,0,-43.25,100.2547,1,0.4,2025-04-21T15:39:34.104+03:00,89,1.483333333333333,2025-04-21T12:30:07.995+03:00,0.02023345852159405,0
2025-04-21T15:44:54.660+03:00,1745239493.52687,40.95230025794708,29.14030550074007,76.50296,-1,-1,-1,-1,30,27.58914568789791,-9999,19080.88863166667,-0.574249267578125,0.7333221435546875,-0.3448028564453125,19080.87855566667,2.551378814267193,-1.029129864716309,-0.8352345283866935,-0.0004232448409311473,-0.0005574938841164112,0.01794302649796009,-0.002381563186645508,-0.01016134023666382,0.00370633602142334,XArbitraryZVertical,0.3277266120037485,-0.4686388489111827,0.8193518624884027,0.0404396909658199,-0.5749500393867493,0.7414538860321045,-0.345945805311203,0,0,0,-1,-1,19076.073705875,unknown,2,2025-04-21T15:44:49.834+03:00,2025-04-20T21:57:49.637+03:00,6727,0.976288,0,0,5522.566,5,6,2025-04-21T15:44:52.413+03:00,766931799.8428298,0,-43.25,100.2547,1,0.4,2025-04-21T15:39:34.104+03:00,89,1.483333333333333,2025-04-21T12:30:07.995+03:00,0.02023345852159405,0
2025-04-21T15:44:54.664+03:00,1745239493.52687,40.95230025794708,29.14030550074007,76.50296,-1,-1,-1,-1,30,27.58914568789791,-9999,19080.89870666667,-0.5753631591796875,0.74041748046875,-0.3462066650390625,19080.88863166667,2.551495177048094,-1.029073037000697,-0.8353837489543103,0.0008147255866788328,-0.006140944082289934,0.01859942823648453,-0.002618193626403809,-0.01248931884765625,0.002873212099075317,XArbitraryZVertical,0.3276991398980817,-0.4686711111687275,0.8193479527838534,0.04036539440735236,-0.5748354196548462,0.7415540218353271,-0.3459213376045227,0,0,0,-1,-1,19076.073705875,unknown,2,2025-04-21T15:44:49.834+03:00,2025-04-20T21:57:49.637+03:00,6727,0.976288,0,0,5522.566,5,6,2025-04-21T15:44:52.413+03:00,766931799.8428298,0,-43.25,100.2547,1,0.4,2025-04-21T15:39:34.104+03:00,89,1.483333333333333,2025-04-21T12:30:07.995+03:00,0.02023345852159405,0
2025-04-21T15:44:54.674+03:00,1745239493.52687,40.95230025794708,29.14030550074007,76.50296,-1,-1,-1,-1,30,27.58914568789791,-9999,19080.90878266667,-0.575714111328125,0.7437744140625,-0.3479156494140625,19080.89870666667,2.551647821882158,-1.028999498708815,-0.8354929566363997,0.006229198072105646,-0.00404104171320796,0.01091780792921782,0.0005066990852355957,-0.00761866569519043,0.001012206077575684,XArbitraryZVertical,0.3276816582060231,-0.4686830101787628,0.8193519112925287,0.04029117370810258,-0.5747407674789429,0.7416272759437561,-0.3459219336509705,0,0,0,-1,-1,19076.073705875,unknown,2,2025-04-21T15:44:49.834+03:00,2025-04-20T21:57:49.637+03:00,6727,0.976288,0,0,5522.566,5,6,2025-04-21T15:44:52.413+03:00,766931799.8428298,0,-43.25,100.2547,1,0.4,2025-04-21T15:39:34.104+03:00,89,1.483333333333333,2025-04-21T12:30:07.995+03:00,0.02023345852159405,0
2025-04-21T15:44:54.684+03:00,1745239493.52687,40.95230025794708,29.14030550074007,76.50296,-1,-1,-1,-1,30,27.58914568789791,-9999,19080.91885866667,-0.5797119140625,0.7452392578125,-0.3481292724609375,19080.90878266667,2.55183995961568,-1.028856649896264,-0.8355078138639549,0.01209075003862381,0.005010710097849369,0.005052560940384865,-0.001108527183532715,-0.0008384585380554199,-0.0002846717834472656,XArbitraryZVertical,0.3276650260645232,-0.468653880012122,0.8193776372066507,0.04024196386850828,-0.5746818780899048,0.7416372299194336,-0.3459983468055725,0,0,0,-1,-1,19076.073705875,unknown,2,2025-04-21T15:44:49.834+03:00,2025-04-20T21:57:49.637+03:00,6727,0.976288,0,0,5522.566,5,6,2025-04-21T15:44:52.413+03:00,766931799.8428298,0,-43.25,100.2547,1,0.4,2025-04-21T15:39:34.104+03:00,89,1.483333333333333,2025-04-21T12:30:07.995+03:00,0.02023345852159405,0
2025-04-21T15:44:54.694+03:00,1745239493.52687,40.95230025794708,29.14030550074007,76.50296,-1,-1,-1,-1,30,27.58914568789791,-9999,19080.92893466667,-0.579345703125,0.743743896484375,-0.3471527099609375,19080.91885866667,2.552003916571038,-1.028670699570059,-0.8354336357102931,0.01054718159139156,0.008168419823050499,-0.007986275479197502,-0.001385211944580078,0.001789987087249756,-0.002041608095169067,XArbitraryZVertical,0.3276429631674329,-0.4685971958324698,0.8194189888182408,0.04023799543326829,-0.5746645331382751,0.7415874600410461,-0.3461335003376007,0,0,0,-1,-1,19076.073705875,unknown,2,2025-04-21T15:44:49.834+03:00,2025-04-20T21:57:49.637+03:00,6727,0.976288,0,0,5522.566,5,6,2025-04-21T15:44:52.413+03:00,766931799.8428298,0,-43.25,100.2547,1,0.4,2025-04-21T15:39:34.104+03:00,89,1.483333333333333,2025-04-21T12:30:07.995+03:00,0.02023345852159405,0
2025-04-21T15:44:54.713+03:00,1745239493.52687,40.95230025794708,29.14030550074007,76.50296,-1,-1,-1,-1,30,27.58914568789791,-9999,19080.93900966667,-0.57757568359375,0.740509033203125,-0.343170166015625,19080.92893466667,2.552058984305909,-1.028553521884842,-0.8352623331628836,0.01090138219296932,0.009472303092479706,-0.01085130404680967,-0.005665719509124756,0.003980159759521484,-0.001817107200622559,XArbitraryZVertical,0.3276439691312408,-0.4685255548324428,0.8194571427672316,0.04028865026960125,-0.5747328996658325,0.7414725422859192,-0.3462664783000946,0,0,0,-1,-1,19076.073705875,unknown,2,2025-04-21T15:44:49.834+03:00,2025-04-20T21:57:49.637+03:00,6727,0.976288,0,0,5522.566,5,6,2025-04-21T15:44:52.413+03:00,766931799.8428298,0,-43.25,100.2547,1,0.4,2025-04-21T15:39:34.104+03:00,89,1.483333333333333,2025-04-21T12:30:07.995+03:00,0.02023345852159405,0
2025-04-21T15:44:54.714+03:00,1745239493.52687,40.95230025794708,29.14030550074007,76.50296,-1,-1,-1,-1,30,27.58914568789791,-9999,19080.94908566667,-0.578338623046875,0.734954833984375,-0.3455810546875,19080.93900966667,2.55204041616572,-1.028485632562658,-0.835097586011459,0.0009723181719891727,0.009705596603453159,-0.01021454203873873,-0.004684329032897949,0.002229154109954834,-0.0002197027206420898,XArbitraryZVertical,0.3276465798973835,-0.4684692743876921,0.8194849450889686,0.04035602851780159,-0.5748140215873718,0.7413620352745056,-0.3463685214519501,0,0,0,-1,-1,19076.073705875,unknown,2,2025-04-21T15:44:49.834+03:00,2025-04-20T21:57:49.637+03:00,6727,0.976288,0,0,5522.566,5,6,2025-04-21T15:44:52.413+03:00,766931799.8428298,0,-43.25,100.2547,1,0.4,2025-04-21T15:39:34.104+03:00,89,1.483333333333333,2025-04-21T12:30:07.995+03:00,0.02023345852159405,0
2025-04-21T15:44:54.724+03:00,1745239493.52687,40.95230025794708,29.14030550074007,76.50296,-1,-1,-1,-1,30,27.58914568789791,-9999,19080.95916166667,-0.577301025390625,0.7293548583984375,-0.3480377197265625,19080.94908566667,2.551977986160953,-1.028423421441211,-0.8350260163375313,-0.005584650672972202,0.01156448293477297,-0.003059294307604432,-0.002768278121948242,-0.001430690288543701,0.0035666823387146,XArbitraryZVertical,0.3276215342366837,-0.468453062229643,0.8195013710380228,0.04041535384455323,-0.5748379826545715,0.7413139939308167,-0.3464317321777344,0,0,0,-1,-1,19076.073705875,unknown,2,2025-04-21T15:44:49.834+03:00,2025-04-20T21:57:49.637+03:00,6727,0.976288,0,0,5522.566,5,6,2025-04-21T15:44:52.413+03:00,766931799.8428298,0,-43.25,100.2547,1,0.4,2025-04-21T15:39:34.104+03:00,89,1.483333333333333,2025-04-21T12:30:07.995+03:00,0.02023345852159405,0
2025-04-21T15:44:54.734+03:00,1745239493.52687,40.95230025794708,29.14030550074007,76.50296,-1,-1,-1,-1,30,27.58914568789791,-9999,19080.96923766667,-0.5760040283203125,0.7317352294921875,-0.348114013671875,19080.95916166667,2.551865170184807,-1.02839174453888,-0.8350618691892014,-0.01360049936920404,0.01497173123061657,0.005062548443675041,-0.003504037857055664,-0.006993770599365234,0.0006871521472930908,XArbitraryZVertical,0.3275746382917901,-0.4684835243614635,0.8195003948063798,0.04045922321625094,-0.5748040676116943,0.7413380146026611,-0.346436083316803,0,0,0,-1,-1,19076.073705875,unknown,2,2025-04-21T15:44:49.834+03:00,2025-04-20T21:57:49.637+03:00,6727,0.976288,0,0,5522.566,5,6,2025-04-21T15:44:52.413+03:00,766931799.8428298,0,-43.25,100.2547,1,0.4,2025-04-21T15:39:34.104+03:00,89,1.483333333333333,2025-04-21T12:30:07.995+03:00,0.02023345852159405,0
2025-04-21T15:44:54.744+03:00,1745239493.52687,40.95230025794708,29.14030550074007,76.50296,-1,-1,-1,-1,30,27.58914568789791,-9999,19080.97931366667,-0.5721435546875,0.7353973388671875,-0.3452606201171875,19080.96923766667,2.551757965135068,-1.028308436719455,-0.8351488406237917,-0.009616410359740257,0.01907912455499172,0.006923831533640623,-0.003328680992126465,-0.01153814792633057,-0.001587033271789551,XArbitraryZVertical,0.3274969875781911,-0.4685299840648871,0.8195029583559489,0.04049963056838664,-0.5747200846672058,0.741396427154541,-0.3464507460594177,0,0,0,-1,-1,19076.073705875,unknown,2,2025-04-21T15:44:49.834+03:00,2025-04-20T21:57:49.637+03:00,6727,0.976288,0,0,5522.566,5,6,2025-04-21T15:44:52.413+03:00,766931799.8428298,0,-43.25,100.2547,1,0.4,2025-04-21T15:39:34.104+03:00,89,1.483333333333333,2025-04-21T12:30:07.995+03:00,0.02023345852159405,0
2025-04-21T15:44:54.755+03:00,1745239493.52687,40.95230025794708,29.14030550074007,76.50296,-1,-1,-1,-1,30,27.58914568789791,-9999,19080.98938866667,-0.5692901611328125,0.736907958984375,-0.341766357421875,19080.97931366667,2.551694039965705,-1.028163316266608,-0.835277403793322,-0.01171684544533491,0.01789375208318233,0.00863517913967371,-0.001507401466369629,-0.009442448616027832,-0.001140832901000977,XArbitraryZVertical,0.327395399434241,-0.4685827349955561,0.8195121229282032,0.0405256052092452,-0.5745881795883179,0.741482675075531,-0.3464849591255188,0,0,0,-1,-1,19076.073705875,unknown,2,2025-04-21T15:44:49.834+03:00,2025-04-20T21:57:49.637+03:00,6727,0.976288,0,0,5522.566,5,6,2025-04-21T15:44:52.413+03:00,766931799.8428298,0,-43.25,100.2547,1,0.4,2025-04-21T15:39:34.104+03:00,89,1.483333333333333,2025-04-21T12:30:07.995+03:00,0.02023345852159405,0
2025-04-21T15:44:54.764+03:00,1745239493.52687,40.95230025794708,29.14030550074007,76.50296,-1,-1,-1,-1,30,27.58914568789791,-9999,19080.99946466667,-0.5694732666015625,0.73663330078125,-0.34063720703125,19080.98938866667,2.551577909788087,-1.028073998785152,-0.8354158237917583,-0.01556071918457747,0.01721211522817612,0.006403382867574692,0.001913726329803467,-0.005903720855712891,0.002138078212738037,XArbitraryZVertical,0.3273023845851952,-0.4686486261739662,0.8195100055961351,0.04055720105845199,-0.5744693279266357,0.7415755391120911,-0.3464832305908203,0,0,0,-1,-1,19076.073705875,unknown,2,2025-04-21T15:44:49.834+03:00,2025-04-20T21:57:49.637+03:00,6727,0.976288,0,0,5522.566,5,6,2025-04-21T15:44:52.413+03:00,766931799.8428298,0,-43.25,100.2547,1,0.4,2025-04-21T15:39:34.104+03:00,89,1.483333333333333,2025-04-21T12:30:07.995+03:00,0.02023345852159405,0
2025-04-21T15:44:54.775+03:00,1745239493.52687,40.95230025794708,29.14030550074007,76.50296,-1,-1,-1,-1,30,27.58914568789791,-9999,19081.00954066667,-0.5717926025390625,0.738006591796875,-0.3415069580078125,19080.99946466667,2.551375666168487,-1.02805200963008,-0.8355228102963743,-0.01764597371220589,0.01785873249173164,0.0008064836729317904,0.005500316619873047,-0.004876852035522461,0.004520654678344727,XArbitraryZVertical,0.3272233666276818,-0.4687189020953954,0.8194984627793001,0.04061679756293391,-0.5743938088417053,0.7416473031044006,-0.346454918384552,0,0,0,-1,-1,19076.073705875,unknown,2,2025-04-21T15:44:49.834+03:00,2025-04-20T21:57:49.637+03:00,6727,0.976288,0,0,5522.566,5,6,2025-04-21T15:44:52.413+03:00,766931799.8428298,0,-43.25,100.2547,1,0.4,2025-04-21T15:39:34.104+03:00,89,1.483333333333333,2025-04-21T12:30:07.995+03:00,0.02023345852159405,0
2025-04-21T15:44:54.785+03:00,1745239493.52687,40.95230025794708,29.14030550074007,76.50296,-1,-1,-1,-1,30,27.58914568789791,-9999,19081.01961666667,-0.5738372802734375,0.7374725341796875,-0.342864990234375,19081.00954066667,2.551160821685051,-1.028040759975801,-0.8355887593859359,-0.0131964311003685,0.01725758984684944,-0.004564213566482067,0.005256175994873047,-0.004783749580383301,0.005920886993408203,XArbitraryZVertical,0.3271544733532777,-0.4687770158618948,0.8194891050263413,0.04068990515998555,-0.5743480324745178,0.741691529750824,-0.3464361131191254,0,0,0,-1,-1,19076.073705875,unknown,2,2025-04-21T15:44:49.834+03:00,2025-04-20T21:57:49.637+03:00,6727,0.976288,0,0,5522.566,5,6,2025-04-21T15:44:52.413+03:00,766931799.8428298,0,-43.25,100.2547,1,0.4,2025-04-21T15:39:34.104+03:00,89,1.483333333333333,2025-04-21T12:30:07.995+03:00,0.02023345852159405,0
2025-04-21T15:44:54.795+03:00,1745239493.52687,40.95230025794708,29.14030550074007,76.50296,-1,-1,-1,-1,30,27.58914568789791,-9999,19081.02969266667,-0.5731964111328125,0.737884521484375,-0.3455963134765625,19081.01961666667,2.550928402806794,-1.028033099712821,-0.8356355908788047,-0.01652857847511768,0.02092449553310871,-0.002126355655491352,0.002492427825927734,-0.003563940525054932,0.004167854785919189,XArbitraryZVertical,0.3270869810638647,-0.4688313469478956,0.819480730366593,0.04077440313497701,-0.57431560754776,0.7417229413986206,-0.346422553062439,0,0,0,-1,-1,19076.073705875,unknown,2,2025-04-21T15:44:49.834+03:00,2025-04-20T21:57:49.637+03:00,6727,0.976288,0,0,5522.566,5,6,2025-04-21T15:44:52.413+03:00,766931799.8428298,0,-43.25,100.2547,1,0.4,2025-04-21T15:39:34.104+03:00,89,1.483333333333333,2025-04-21T12:30:07.995+03:00,0.02023345852159405,0
2025-04-21T15:44:54.805+03:00,1745239493.52687,40.95230025794708,29.14030550074007,76.50296,-1,-1,-1,-1,30,27.58914568789791,-9999,19081.03976766667,-0.5692291259765625,0.73626708984375,-0.3490447998046875,19081.02969266667,2.55070560883942,-1.027981538721325,-0.8357113146434918,-0.01482968125492334,0.02540959231555462,0.002687740605324507,-4.553794860839844e-05,-0.004576027393341064,0.003374934196472168,XArbitraryZVertical,0.3269976648549502,-0.4688933606436556,0.8194766817494952,0.04085749036794416,-0.5742495059967041,0.7417737245559692,-0.3464230895042419,0,0,0,-1,-1,19076.073705875,unknown,2,2025-04-21T15:44:49.834+03:00,2025-04-20T21:57:49.637+03:00,6727,0.976288,0,0,5522.566,5,6,2025-04-21T15:44:52.413+03:00,766931799.8428298,0,-43.25,100.2547,1,0.4,2025-04-21T15:39:34.104+03:00,89,1.483333333333333,2025-04-21T12:30:07.995+03:00,0.02023345852159405,0
2025-04-21T15:44:54.815+03:00,1745239493.52687,40.95230025794708,29.14030550074007,76.50296,-1,-1,-1,-1,30,27.58914568789791,-9999,19081.04984366667,-0.57037353515625,0.7357635498046875,-0.3487091064453125,19081.03976766667,2.550524472525166,-1.027833197552017,-0.8358102571512268,-0.01682598516345024,0.0313124880194664,0.005047301296144724,0.001396656036376953,-0.00391000509262085,0.001179128885269165,XArbitraryZVertical,0.3268735152206128,-0.4689547307056159,0.8194869533885737,0.04094010525717591,-0.5741353034973145,0.741840124130249,-0.3464703261852264,0,0,0,-1,-1,19076.073705875,unknown,2,2025-04-21T15:44:49.834+03:00,2025-04-20T21:57:49.637+03:00,6727,0.976288,0,0,5522.566,5,6,2025-04-21T15:44:52.413+03:00,766931799.8428298,0,-43.25,100.2547,1,0.4,2025-04-21T15:39:34.104+03:00,89,1.483333333333333,2025-04-21T12:30:07.995+03:00,0.02023345852159405,0
2025-04-21T15:44:54.825+03:00,1745239493.52687,40.95230025794708,29.14030550074007,76.50296,-1,-1,-1,-1,30,27.58914568789791,-9999,19081.05991966667,-0.571563720703125,0.7346343994140625,-0.3453521728515625,19081.04984366667,2.550288879967751,-1.027648092737026,-0.8359666741514762,-0.02530708909034729,0.04013527184724808,0.008803024888038635,0.004941046237945557,-0.005708575248718262,-0.002711296081542969,XArbitraryZVertical,0.3267093466420684,-0.4690444298642417,0.8194961981996896,0.0410384321856602,-0.5739718079566956,0.7419449687004089,-0.3465166389942169,0,0,0,-1,-1,19076.073705875,unknown,2,2025-04-21T15:44:49.834+03:00,2025-04-20T21:57:49.637+03:00,6727,0.976288,0,0,5522.566,5,6,2025-04-21T15:44:52.413+03:00,766931799.8428298,0,-43.25,100.2547,1,0.4,2025-04-21T15:39:34.104+03:00,89,1.483333333333333,2025-04-21T12:30:07.995+03:00,0.02023345852159405,0
2025-04-21T15:44:54.835+03:00,1745239493.52687,40.95230025794708,29.14030550074007,76.50296,-1,-1,-1,-1,30,27.58914568789791,-9999,19081.06999566667,-0.5723114013671875,0.7359466552734375,-0.343505859375,19081.05991966667,2.549976704062312,-1.027503806838958,-0.8361640054615087,-0.0332971066236496,0.0326366126537323,0.005458892788738012,0.002492129802703857,-0.006573259830474854,-0.001544535160064697,XArbitraryZVertical,0.3265352827331747,-0.4691618279295611,0.8194929040632113,0.04114764202726991,-0.5737965106964111,0.7420772910118103,-0.34652379155159,0,0,0,-1,-1,19076.073705875,unknown,2,2025-04-21T15:44:49.834+03:00,2025-04-20T21:57:49.637+03:00,6727,0.976288,0,0,5522.566,5,6,2025-04-21T15:44:52.413+03:00,766931799.8428298,0,-43.25,100.2547,1,0.4,2025-04-21T15:39:34.104+03:00,89,1.483333333333333,2025-04-21T12:30:07.995+03:00,0.02023345852159405,0
2025-04-21T15:44:54.845+03:00,1745239493.52687,40.95230025794708,29.14030550074007,76.50296,-1,-1,-1,-1,30,27.58914568789791,-9999,19081.08007166667,-0.57177734375,0.7353515625,-0.345428466796875,19081.06999566667,2.549495159985988,-1.027585693845444,-0.8363993505279155,-0.04066966846585274,0.02234788984060287,0.003125897375866771,0.001791238784790039,-0.007402420043945312,0.001583606004714966,XArbitraryZVertical,0.3264060796609745,-0.4693248521519671,0.8194452246540918,0.04126304781741,-0.5736753344535828,0.742235004901886,-0.3463865220546722,0,0,0,-1,-1,19076.073705875,unknown,2,2025-04-21T15:44:49.834+03:00,2025-04-20T21:57:49.637+03:00,6727,0.976288,0,0,5522.566,5,6,2025-04-21T15:44:52.413+03:00,766931799.8428298,0,-43.25,100.2547,1,0.4,2025-04-21T15:39:34.104+03:00,89,1.483333333333333,2025-04-21T12:30:07.995+03:00,0.02023345852159405,0
2025-04-21T15:44:54.855+03:00,1745239493.52687,40.95230025794708,29.14030550074007,76.50296,-1,-1,-1,-1,30,27.58914568789791,-9999,19081.09014666667,-0.572296142578125,0.735992431640625,-0.344573974609375,19081.08007166667,2.548992234946459,-1.027814397875502,-0.8366203283376318,-0.03854047134518623,0.006757743656635284,0.001037446432746947,0.001104295253753662,-0.005750000476837158,0.00228312611579895,XArbitraryZVertical,0.3263350033073576,-0.4694893085027215,0.8193745732013682,0.04135648479855029,-0.5736140608787537,0.7423830628395081,-0.3461705148220062,0,0,0,-1,-1,19076.073705875,unknown,2,2025-04-21T15:44:49.834+03:00,2025-04-20T21:57:49.637+03:00,6727,0.976288,0,0,5522.566,5,6,2025-04-21T15:44:52.413+03:00,766931799.8428298,0,-43.25,100.2547,1,0.4,2025-04-21T15:39:34.104+03:00,89,1.483333333333333,2025-04-21T12:30:07.995+03:00,0.02023345852159405,0
2025-04-21T15:44:54.865+03:00,1745239493.52687,40.95230025794708,29.14030550074007,76.50296,-1,-1,-1,-1,30,27.58914568789791,-9999,19081.10022266667,-0.572113037109375,0.7392730712890625,-0.34417724609375,19081.09014666667,2.548468701293609,-1.028134992881635,-0.8367898822058322,-0.03679776191711426,0.004663100466132164,-0.00956210121512413,0.001916229724884033,-0.007252097129821777,0.0004320442676544189,XArbitraryZVertical,0.326307514994827,-0.4696409321255154,0.8192938909504919,0.04145053267030396,-0.5736172199249268,0.74249666929245,-0.3459216058254242,0,0,0,-1,-1,19076.073705875,unknown,2,2025-04-21T15:44:49.834+03:00,2025-04-20T21:57:49.637+03:00,6727,0.976288,0,0,5522.566,5,6,2025-04-21T15:44:52.413+03:00,766931799.8428298,0,-43.25,100.2547,1,0.4,2025-04-21T15:39:34.104+03:00,89,1.483333333333333,2025-04-21T12:30:07.995+03:00,0.02023345852159405,0
2025-04-21T15:44:54.875+03:00,1745239493.52687,40.95230025794708,29.14030550074007,76.50296,-1,-1,-1,-1,30,27.58914568789791,-9999,19081.11029866667,-0.5720672607421875,0.7401885986328125,-0.34429931640625,19081.10022266667,2.54790822576993,-1.028528361424956,-0.8368650449834232,-0.03365123644471169,0.001339741982519627,-0.01529402285814285,0.001134753227233887,-0.006920933723449707,0.001016855239868164,XArbitraryZVertical,0.3263210548939885,-0.4697669334374355,0.8192103942983,0.04156782227244238,-0.5737055540084839,0.7425469756126404,-0.3456671833992004,0,0,0,-1,-1,19076.073705875,unknown,2,2025-04-21T15:44:49.834+03:00,2025-04-20T21:57:49.637+03:00,6727,0.976288,0,0,5522.566,5,6,2025-04-21T15:44:52.413+03:00,766931799.8428298,0,-43.25,100.2547,1,0.4,2025-04-21T15:39:34.104+03:00,89,1.483333333333333,2025-04-21T12:30:07.995+03:00,0.02023345852159405,0
2025-04-21T15:44:54.886+03:00,1745239493.52687,40.95230025794708,29.14030550074007,76.50296,-1,-1,-1,-1,30,27.58914568789791,-9999,19081.12037466667,-0.571319580078125,0.7371978759765625,-0.34722900390625,19081.11029866667,2.547331574113977,-1.02894726081936,-0.836852217995619,-0.03105292469263077,0.0008325432427227497,-0.02377812191843987,0.001516580581665039,-0.003646969795227051,0.001300215721130371,XArbitraryZVertical,0.3263598722762976,-0.4698652413215685,0.8191313995587134,0.04170907785581333,-0.5738585591316223,0.7425383925437927,-0.34543177485466,0,0,0,-1,-1,19076.073705875,unknown,2,2025-04-21T15:44:49.834+03:00,2025-04-20T21:57:49.637+03:00,6727,0.976288,0,0,5522.566,5,6,2025-04-21T15:44:52.413+03:00,766931799.8428298,0,-43.25,100.2547,1,0.4,2025-04-21T15:39:34.104+03:00,89,1.483333333333333,2025-04-21T12:30:07.995+03:00,0.02023345852159405,0
2025-04-21T15:44:54.896+03:00,1745239493.52687,40.95230025794708,29.14030550074007,76.50296,-1,-1,-1,-1,30,27.58914568789791,-9999,19081.13045066667,-0.5706787109375,0.7337188720703125,-0.34619140625,19081.12037466667,2.546726954108497,-1.029381327758197,-0.8368164836469346,-0.0336146205663681,-0.0005807965062558651,-0.02271631732583046,0.00162816047668457,-0.002951562404632568,-0.0001406371593475342,XArbitraryZVertical,0.3264031453569993,-0.4699604348664814,0.8190516578026584,0.04186429512167574,-0.5740311741828918,0.7425144910812378,-0.3451963663101196,0,0,0,-1,-1,19076.073705875,unknown,2,2025-04-21T15:44:49.834+03:00,2025-04-20T21:57:49.637+03:00,6727,0.976288,0,0,5522.566,5,6,2025-04-21T15:44:52.413+03:00,766931799.8428298,0,-43.25,100.2547,1,0.4,2025-04-21T15:39:34.104+03:00,89,1.483333333333333,2025-04-21T12:30:07.995+03:00,0.02023345852159405,0
2025-04-21T15:44:54.906+03:00,1745239493.52687,40.95230025794708,29.14030550074007,76.50296,-1,-1,-1,-1,30,27.58914568789791,-9999,19081.14052566667,-0.571533203125,0.7358245849609375,-0.340850830078125,19081.13045066667,2.546094614783311,-1.0298234574246,-0.8368021988431312,-0.04013064503669739,0.006510602310299873,-0.02193657867610455,0.002964675426483154,-0.005322456359863281,-0.00186920166015625,XArbitraryZVertical,0.3264386758681478,-0.470067906433963,0.8189676004808085,0.04202300453126654,-0.5741927027702332,0.742504894733429,-0.3449479043483734,0,0,0,-1,-1,19076.073705875,unknown,2,2025-04-21T15:44:49.834+03:00,2025-04-20T21:57:49.637+03:00,6727,0.976288,0,0,5522.566,5,6,2025-04-21T15:44:52.413+03:00,766931799.8428298,0,-43.25,100.2547,1,0.4,2025-04-21T15:39:34.104+03:00,89,1.483333333333333,2025-04-21T12:30:07.995+03:00,0.02023345852159405,0
2025-04-21T15:44:54.916+03:00,1745239493.52687,40.95230025794708,29.14030550074007,76.50296,-1,-1,-1,-1,30,27.58914568789791,-9999,19081.15060166667,-0.5737762451171875,0.7341156005859375,-0.3383026123046875,19081.14052566667,2.545437466687423,-1.030208787121052,-0.8368635059778959,-0.04173786193132401,0.01597814075648785,-0.01225838530808687,0.003653645515441895,-0.008415281772613525,-0.0009542107582092285,XArbitraryZVertical,0.3264289453425856,-0.4702047757459373,0.8188845941681163,0.0421851781585148,-0.5742866396903992,0.7425459623336792,-0.3447032272815704,0,0,0,-1,-1,19076.073705875,unknown,2,2025-04-21T15:44:49.834+03:00,2025-04-20T21:57:49.637+03:00,6727,0.976288,0,0,5522.566,5,6,2025-04-21T15:44:52.413+03:00,766931799.8428298,0,-43.25,100.2547,1,0.4,2025-04-21T15:39:34.104+03:00,89,1.483333333333333,2025-04-21T12:30:07.995+03:00,0.02023345852159405,0
2025-04-21T15:44:54.926+03:00,1745239493.52687,40.95230025794708,29.14030550074007,76.50296,-1,-1,-1,-1,30,27.58914568789791,-9999,19081.16067766667,-0.57843017578125,0.735260009765625,-0.3408203125,19081.15060166667,2.544836091161117,-1.030467051377598,-0.8369988377842863,-0.03973270207643509,0.01995563693344593,-0.004620405845344067,0.003000319004058838,-0.006659567356109619,0.004766166210174561,XArbitraryZVertical,0.3263645352072603,-0.4703558256628647,0.8188157836550423,0.04233447528216649,-0.5742893815040588,0.7426366209983826,-0.3445031642913818,0,0,0,-1,-1,19076.073705875,unknown,2,2025-04-21T15:44:49.834+03:00,2025-04-20T21:57:49.637+03:00,6727,0.976288,0,0,5522.566,5,6,2025-04-21T15:44:52.413+03:00,766931799.8428298,0,-43.25,100.2547,1,0.4,2025-04-21T15:39:34.104+03:00,89,1.483333333333333,2025-04-21T12:30:07.995+03:00,0.02023345852159405,0
2025-04-21T15:44:54.936+03:00,1745239493.52687,40.95230025794708,29.14030550074007,76.50296,-1,-1,-1,-1,30,27.58914568789791,-9999,19081.17075366667,-0.57635498046875,0.743865966796875,-0.3473358154296875,19081.16067766667,2.544375880971809,-1.030600799970247,-0.8371057941872297,-0.027768449857831,0.02075378783047199,-0.009250311180949211,-0.000210881233215332,-0.009462535381317139,0.006342172622680664,XArbitraryZVertical,0.3262883267680958,-0.4704712415903337,0.8187731653167345,0.04246279119789025,-0.5742672681808472,0.7427082061767578,-0.3443854749202728,0,0,0,-1,-1,19076.073705875,unknown,2,2025-04-21T15:44:49.834+03:00,2025-04-20T21:57:49.637+03:00,6727,0.976288,0,0,5522.566,5,6,2025-04-21T15:44:52.413+03:00,766931799.8428298,0,-43.25,100.2547,1,0.4,2025-04-21T15:39:34.104+03:00,89,1.483333333333333,2025-04-21T12:30:07.995+03:00,0.02023345852159405,0
2025-04-21T15:44:54.946+03:00,1745239493.52687,40.95230025794708,29.14030550074007,76.50296,-1,-1,-1,-1,30,27.58914568789791,-9999,19081.18082966667,-0.5771331787109375,0.74835205078125,-0.3522491455078125,19081.17075366667,2.544003107782685,-1.030660303974595,-0.8371171651963345,-0.01873221062123775,0.0214276984333992,-0.01327894255518913,-0.00425642728805542,-0.007028758525848389,0.003160417079925537,XArbitraryZVertical,0.3262225549013633,-0.4705372990633463,0.8187544018292043,0.0425984131705997,-0.5742806196212769,0.7427158355712891,-0.3443470001220703,0,0,0,-1,-1,19076.073705875,unknown,2,2025-04-21T15:44:49.834+03:00,2025-04-20T21:57:49.637+03:00,6727,0.976288,0,0,5522.566,5,6,2025-04-21T15:44:52.413+03:00,766931799.8428298,0,-43.25,100.2547,1,0.4,2025-04-21T15:39:34.104+03:00,89,1.483333333333333,2025-04-21T12:30:07.995+03:00,0.02023345852159405,0
2025-04-21T15:44:54.956+03:00,1745239493.52687,40.95230025794708,29.14030550074007,76.50296,-1,-1,-1,-1,30,27.58914568789791,-9999,19081.19090466667,-0.577484130859375,0.7488861083984375,-0.34991455078125,19081.18082966667,2.543712433582169,-1.03068592395613,-0.8370365167523611,-0.008028966374695301,0.01804495230317116,-0.01896345801651478,-0.0009155869483947754,0.001829564571380615,-0.004056215286254883,XArbitraryZVertical,0.3261818156511167,-0.4705569958745405,0.8187522988828302,0.04273292496196358,-0.5743407607078552,0.7426618337631226,-0.3443630635738373,0,0,0,-1,-1,19076.073705875,unknown,2,2025-04-21T15:44:49.834+03:00,2025-04-20T21:57:49.637+03:00,6727,0.976288,0,0,5522.566,5,6,2025-04-21T15:44:52.413+03:00,766931799.8428298,0,-43.25,100.2547,1,0.4,2025-04-21T15:39:34.104+03:00,89,1.483333333333333,2025-04-21T12:30:07.995+03:00,0.02023345852159405,0
2025-04-21T15:44:54.966+03:00,1745239493.52687,40.95230025794708,29.14030550074007,76.50296,-1,-1,-1,-1,30,27.58914568789791,-9999,19081.20098066667,-0.5787200927734375,0.74627685546875,-0.3446502685546875,19081.19090466667,2.543449096843871,-1.030687595752698,-0.8368972517687024,-0.01150931790471077,0.01753482408821583,-0.02440542913973331,-0.003237247467041016,0.006714105606079102,-0.007910192012786865,XArbitraryZVertical,0.3261501748205481,-0.4705511809476211,0.8187606887009197,0.04287756114421751,-0.5744300484657288,0.7425685524940491,-0.3444153070449829,0,0,0,-1,-1,19076.073705875,unknown,2,2025-04-21T15:44:49.834+03:00,2025-04-20T21:57:49.637+03:00,6727,0.976288,0,0,5522.566,5,6,2025-04-21T15:44:52.413+03:00,766931799.8428298,0,-43.25,100.2547,1,0.4,2025-04-21T15:39:34.104+03:00,89,1.483333333333333,2025-04-21T12:30:07.995+03:00,0.02023345852159405,0
2025-04-21T15:44:54.976+03:00,1745239493.52687,40.95230025794708,29.14030550074007,76.50296,-1,-1,-1,-1,30,27.58914568789791,-9999,19081.21105666667,-0.5770416259765625,0.7436370849609375,-0.34368896484375,19081.20098066667,2.543099966209965,-1.030766145785287,-0.8367567470610443,-0.01864898763597012,0.01719100959599018,-0.02359982207417488,-0.003303766250610352,0.005541682243347168,-0.005567103624343872,XArbitraryZVertical,0.3261300991391242,-0.4705605742245626,0.8187547772409227,0.04303954107030482,-0.5745465755462646,0.7424744367599487,-0.3444238007068634,0,0,0,-1,-1,19076.073705875,unknown,2,2025-04-21T15:44:49.834+03:00,2025-04-20T21:57:49.637+03:00,6727,0.976288,0,0,5522.566,5,6,2025-04-21T15:44:52.413+03:00,766931799.8428298,0,-43.25,100.2547,1,0.4,2025-04-21T15:39:34.104+03:00,89,1.483333333333333,2025-04-21T12:30:07.995+03:00,0.02023345852159405,0
2025-04-21T15:44:54.986+03:00,1745239493.52687,40.95230025794708,29.14030550074007,76.50296,-1,-1,-1,-1,30,27.58914568789791,-9999,19081.22113266667,-0.575897216796875,0.74090576171875,-0.3428497314453125,19081.21105666667,2.542727811791823,-1.030878478805716,-0.8366685110229515,-0.01742812618613243,0.01514230668544769,-0.0172477513551712,-0.004246532917022705,0.004258096218109131,0.0005666017532348633,XArbitraryZVertical,0.3261073089060201,-0.4705927681572681,0.8187374747447149,0.04318903898740558,-0.5746414661407471,0.7424153685569763,-0.3443929255008698,0,0,0,-1,-1,19076.073705875,unknown,2,2025-04-21T15:44:49.834+03:00,2025-04-20T21:57:49.637+03:00,6727,0.976288,0,0,5522.566,5,6,2025-04-21T15:44:52.413+03:00,766931799.8428298,0,-43.25,100.2547,1,0.4,2025-04-21T15:39:34.104+03:00,89,1.483333333333333,2025-04-21T12:30:07.995+03:00,0.02023345852159405,0
2025-04-21T15:44:54.996+03:00,1745239493.52687,40.95230025794708,29.14030550074007,76.50296,-1,-1,-1,-1,30,27.58914568789791,-9999,19081.23120866667,-0.572479248046875,0.7390594482421875,-0.34002685546875,19081.22113266667,2.542378804935636,-1.031018982373337,-0.8366236010289915,-0.02320292592048645,0.01468983478844166,-0.01234540343284607,-0.0016823410987854,0.001007556915283203,0.001067578792572021,XArbitraryZVertical,0.3260922539724146,-0.4706369795590741,0.8187116433998054,0.04331088924740691,-0.5747184753417969,0.7423852682113647,-0.3443293571472168,0,0,0,-1,-1,19076.073705875,unknown,2,2025-04-21T15:44:49.834+03:00,2025-04-20T21:57:49.637+03:00,6727,0.976288,0,0,5522.566,5,6,2025-04-21T15:44:52.413+03:00,766931799.8428298,0,-43.25,100.2547,1,0.4,2025-04-21T15:39:34.104+03:00,89,1.483333333333333,2025-04-21T12:30:07.995+03:00,0.02023345852159405,0
2025-04-21T15:44:55.007+03:00,1745239493.52687,40.95230025794708,29.14030550074007,76.50296,-1,-1,-1,-1,30,27.58914568789791,-9999,19081.24128366667,-0.5742340087890625,0.7362823486328125,-0.3419647216796875,19081.23120866667,2.541939468533872,-1.031205468271092,-0.8366967074397458,-0.02957500517368317,0.01297962013632059,-0.007121846545487642,-0.001039087772369385,-0.002138972282409668,0.001939594745635986,XArbitraryZVertical,0.3260496183177347,-0.4707382530932446,0.8186642383126976,0.0434273020343199,-0.5747361183166504,0.7424342632293701,-0.3441942930221558,0,0,0,-1,-1,19076.073705875,unknown,2,2025-04-21T15:44:49.834+03:00,2025-04-20T21:57:49.637+03:00,6727,0.976288,0,0,5522.566,5,6,2025-04-21T15:44:52.413+03:00,766931799.8428298,0,-43.25,100.2547,1,0.4,2025-04-21T15:39:34.104+03:00,89,1.483333333333333,2025-04-21T12:30:07.995+03:00,0.02023345852159405,0
2025-04-21T15:44:55.016+03:00,1745239493.52687,40.95230025794708,29.14030550074007,76.50296,-1,-1,-1,-1,30,27.58914568789791,-9999,19081.25135966667,-0.5720977783203125,0.7363739013671875,-0.3410491943359375,19081.24128366667,2.541521508944703,-1.031376715831846,-0.8368094592223047,-0.02806419506669044,0.01298840902745724,-0.0009771350305527449,0.002137184143066406,-0.003618299961090088,0.00387340784072876,XArbitraryZVertical,0.3259972654571397,-0.4708495818493135,0.8186157732012977,0.04352800753840478,-0.5747233033180237,0.7425097823143005,-0.3440529108047485,0,0,0,-1,-1,19076.073705875,unknown,2,2025-04-21T15:44:49.834+03:00,2025-04-20T21:57:49.637+03:00,6727,0.976288,0,0,5522.566,5,6,2025-04-21T15:44:52.413+03:00,766931799.8428298,0,-43.25,100.2547,1,0.4,2025-04-21T15:39:34.104+03:00,89,1.483333333333333,2025-04-21T12:30:07.995+03:00,0.02023345852159405,0
2025-04-21T15:44:55.026+03:00,1745239493.52687,40.95230025794708,29.14030550074007,76.50296,-1,-1,-1,-1,30,27.58914568789791,-9999,19081.26143566667,-0.5723419189453125,0.737579345703125,-0.342041015625,19081.25135966667,2.541194242274529,-1.031474435321152,-0.8369288376269651,-0.02102998644113541,0.01935229822993279,-0.0003025563783012331,0.0008129477500915527,-0.007100939750671387,0.002123743295669556,XArbitraryZVertical,0.3259347515306057,-0.4709468385486335,0.8185805194836224,0.04360702661256871,-0.5746808648109436,0.7425897121429443,-0.3439512252807617,0,0,0,-1,-1,19076.073705875,unknown,2,2025-04-21T15:44:49.834+03:00,2025-04-20T21:57:49.637+03:00,6727,0.976288,0,0,5522.566,5,6,2025-04-21T15:44:52.413+03:00,766931799.8428298,0,-43.25,100.2547,1,0.4,2025-04-21T15:39:34.104+03:00,89,1.483333333333333,2025-04-21T12:30:07.995+03:00,0.02023345852159405,0
2025-04-21T15:44:55.036+03:00,1745239493.52687,40.95230025794708,29.14030550074007,76.50296,-1,-1,-1,-1,30,27.58914568789791,-9999,19081.27151166667,-0.572845458984375,0.7419281005859375,-0.342315673828125,19081.26143566667,2.540915676826451,-1.031462098365158,-0.8370030977021922,-0.01569780521094799,0.02197231724858284,-0.00802838709205389,0.003340184688568115,-0.006250441074371338,0.002331435680389404,XArbitraryZVertical,0.3258482611484226,-0.4710179515884339,0.8185688670497674,0.04370409062440964,-0.5746293067932129,0.7426394820213318,-0.3439300060272217,0,0,0,-1,-1,19076.073705875,unknown,2,2025-04-21T15:44:49.834+03:00,2025-04-20T21:57:49.637+03:00,6727,0.976288,0,0,5522.566,5,6,2025-04-21T15:44:52.413+03:00,766931799.8428298,0,-43.25,100.2547,1,0.4,2025-04-21T15:39:34.104+03:00,89,1.483333333333333,2025-04-21T12:30:07.995+03:00,0.02023345852159405,0
2025-04-21T15:44:55.047+03:00,1745239493.52687,40.95230025794708,29.14030550074007,76.50296,-1,-1,-1,-1,30,27.58914568789791,-9999,19081.28158766667,-0.56927490234375,0.73944091796875,-0.344940185546875,19081.27151166667,2.540652040212644,-1.031432521124435,-0.8369990892007489,-0.0174629483371973,0.02065085619688034,-0.0132583025842905,0.002066075801849365,-0.00430983304977417,0.001831144094467163,XArbitraryZVertical,0.3257749152600959,-0.4710588489156732,0.8185683351337224,0.04382004326899777,-0.5746216773986816,0.7426367998123169,-0.3439485430717468,0,0,0,-1,-1,19076.073705875,unknown,2,2025-04-21T15:44:49.834+03:00,2025-04-20T21:57:49.637+03:00,6727,0.976288,0,0,5522.566,5,6,2025-04-21T15:44:52.413+03:00,766931799.8428298,0,-43.25,100.2547,1,0.4,2025-04-21T15:39:34.104+03:00,89,1.483333333333333,2025-04-21T12:30:07.995+03:00,0.02023345852159405,0
2025-04-21T15:44:55.057+03:00,1745239493.52687,40.95230025794708,29.14030550074007,76.50296,-1,-1,-1,-1,30,27.58914568789791,-9999,19081.29166266667,-0.568267822265625,0.738189697265625,-0.343505859375,19081.28158766667,2.540299158514173,-1.031495764433117,-0.836997157528457,-0.02000680007040501,0.01811818964779377,-0.01264763996005058,0.002928256988525391,-0.001439929008483887,0.001414000988006592,XArbitraryZVertical,0.3257181232783157,-0.471117039744493,0.818550420895415,0.04394999891713327,-0.5746446251869202,0.7426354885101318,-0.3439128696918488,0,0,0,-1,-1,19076.073705875,unknown,2,2025-04-21T15:44:49.834+03:00,2025-04-20T21:57:49.637+03:00,6727,0.976288,0,0,5522.566,5,6,2025-04-21T15:44:52.413+03:00,766931799.8428298,0,-43.25,100.2547,1,0.4,2025-04-21T15:39:34.104+03:00,89,1.483333333333333,2025-04-21T12:30:07.995+03:00,0.02023345852159405,0
2025-04-21T15:44:55.067+03:00,1745239493.52687,40.95230025794708,29.14030550074007,76.50296,-1,-1,-1,-1,30,27.58914568789791,-9999,19081.30173866667,-0.5661468505859375,0.7386322021484375,-0.3436431884765625,19081.29166266667,2.539918489092286,-1.031635954309772,-0.8370271801056122,-0.02764900773763657,0.01209172233939171,-0.009451047517359257,0.005642890930175781,-0.002589225769042969,-0.0009667873382568359,XArbitraryZVertical,0.3256794032920501,-0.471192619543148,0.8185161713858412,0.04406476415063365,-0.5746737122535706,0.7426555752754211,-0.3438208699226379,0,0,0,-1,-1,19076.073705875,unknown,2,2025-04-21T15:44:49.834+03:00,2025-04-20T21:57:49.637+03:00,6727,0.976288,0,0,5522.566,5,6,2025-04-21T15:44:52.413+03:00,766931799.8428298,0,-43.25,100.2547,1,0.4,2025-04-21T15:39:34.104+03:00,89,1.483333333333333,2025-04-21T12:30:07.995+03:00,0.02023345852159405,0
2025-04-21T15:44:55.077+03:00,1745239493.52687,40.95230025794708,29.14030550074007,76.50296,-1,-1,-1,-1,30,27.58914568789791,-9999,19081.31181466667,-0.566680908203125,0.739959716796875,-0.345703125,19081.30173866667,2.539510629382695,-1.031835450917082,-0.8371181757786704,-0.02952334098517895,0.008608307689428329,-0.004576397128403187,0.007270932197570801,-0.003947138786315918,0.0007302165031433105,XArbitraryZVertical,0.3256454996420945,-0.4712952618756344,0.8184654419080218,0.04416036701303193,-0.5746843218803406,0.7427164912223816,-0.3436715602874756,0,0,0,-1,-1,19076.073705875,unknown,2,2025-04-21T15:44:49.834+03:00,2025-04-20T21:57:49.637+03:00,6727,0.976288,0,0,5522.566,5,6,2025-04-21T15:44:52.413+03:00,766931799.8428298,0,-43.25,100.2547,1,0.4,2025-04-21T15:39:34.104+03:00,89,1.483333333333333,2025-04-21T12:30:07.995+03:00,0.02023345852159405,0
2025-04-21T15:44:55.087+03:00,1745239493.52687,40.95230025794708,29.14030550074007,76.50296,-1,-1,-1,-1,30,27.58914568789791,-9999,19081.32189066667,-0.568511962890625,0.739471435546875,-0.3448333740234375,19081.31181466667,2.539103456287124,-1.032068656499517,-0.8372551136016895,-0.02971215918660164,0.003648968879133463,0.001243408652953804,0.008957445621490479,-0.003245413303375244,-0.0005699694156646729,XArbitraryZVertical,0.3256157626245824,-0.4714146071129678,0.818404410568456,0.04423523554561375,-0.574677050113678,0.7428082227706909,-0.3434852957725525,0,0,0,-1,-1,19076.073705875,unknown,2,2025-04-21T15:44:49.834+03:00,2025-04-20T21:57:49.637+03:00,6727,0.976288,0,0,5522.566,5,6,2025-04-21T15:44:52.413+03:00,766931799.8428298,0,-43.25,100.2547,1,0.4,2025-04-21T15:39:34.104+03:00,89,1.483333333333333,2025-04-21T12:30:07.995+03:00,0.02023345852159405,0
2025-04-21T15:44:55.097+03:00,1745239493.52687,40.95230025794708,29.14030550074007,76.50296,-1,-1,-1,-1,30,27.58914568789791,-9999,19081.33196666667,-0.5692138671875,0.7423095703125,-0.34552001953125,19081.32189066667,2.538768146385886,-1.032313015667425,-0.83742187857392,-0.02381045930087566,-0.001793600153177977,0.004432743415236473,0.007790684700012207,-0.002853453159332275,-0.002330243587493896,XArbitraryZVertical,0.3256010152693559,-0.4715329051932229,0.8183403235908094,0.04427033721408984,-0.5746546983718872,0.7429198622703552,-0.3432813882827759,0,0,0,-1,-1,19076.073705875,unknown,2,2025-04-21T15:44:49.834+03:00,2025-04-20T21:57:49.637+03:00,6727,0.976288,0,0,5522.566,5,6,2025-04-21T15:44:52.413+03:00,766932295.0833594,0,-42.04,100.2389,1,0.4,2025-04-21T15:39:34.104+03:00,89,1.483333333333333,2025-04-21T12:30:07.995+03:00,0.02023345852159405,0
2025-04-21T15:44:55.107+03:00,1745239493.52687,40.95230025794708,29.14030550074007,76.50296,-1,-1,-1,-1,30,27.58914568789791,-9999,19081.34204166667,-0.5734710693359375,0.7455596923828125,-0.345672607421875,19081.33196666667,2.538518606367593,-1.032518865090212,-0.8375410350687251,-0.01592410728335381,-0.0003600870259106159,0.0009130766848102212,0.006213665008544922,-0.003436744213104248,-0.0009680986404418945,XArbitraryZVertical,0.32560093236082,-0.4716197415950651,0.8182891345735656,0.04429197651142791,-0.5746493339538574,0.7429996132850647,-0.3431177139282227,0,0,0,-1,-1,19076.073705875,unknown,2,2025-04-21T15:44:49.834+03:00,2025-04-20T21:57:49.637+03:00,6727,0.976288,0,0,5522.566,5,6,2025-04-21T15:44:52.413+03:00,766932295.0833594,0,-42.04,100.2389,1,0.4,2025-04-21T15:39:34.104+03:00,89,1.483333333333333,2025-04-21T12:30:07.995+03:00,0.02023345852159405,0
2025-04-21T15:44:55.117+03:00,1745239493.52687,40.95230025794708,29.14030550074007,76.50296,-1,-1,-1,-1,30,27.58914568789791,-9999,19081.35211766667,-0.5759735107421875,0.7449188232421875,-0.3468780517578125,19081.34204166667,2.538346154223867,-1.03263341607207,-0.8375933277873613,-0.009930930100381374,0.00303331296890974,-0.003526679007336497,0.005120933055877686,0.0003429055213928223,-0.002976417541503906,XArbitraryZVertical,0.3255959621619087,-0.4716686329088673,0.8182613103814261,0.04432147483387267,-0.5746552348136902,0.7430346012115479,-0.3430319428443909,0,0,0,-1,-1,19076.073705875,unknown,2,2025-04-21T15:44:49.834+03:00,2025-04-20T21:57:49.637+03:00,6727,0.976288,0,0,5522.566,5,6,2025-04-21T15:44:52.413+03:00,766932295.0833594,0,-42.04,100.2389,1,0.4,2025-04-21T15:39:34.104+03:00,89,1.483333333333333,2025-04-21T12:30:07.995+03:00,0.02023345852159405,0
2025-04-21T15:44:55.127+03:00,1745239493.52687,40.95230025794708,29.14030550074007,76.50296,-1,-1,-1,-1,30,27.58914568789791,-9999,19081.36219366667,-0.5737457275390625,0.7446746826171875,-0.3492584228515625,19081.35211766667,2.538197660617663,-1.032716055219033,-0.837576727996817,-0.006795257329940796,0.003257085103541613,-0.009880016557872295,0.0008873343467712402,0.00227665901184082,-0.002407252788543701,XArbitraryZVertical,0.3255983170215789,-0.4716888404951288,0.8182462211584595,0.04436713870042118,-0.5746941566467285,0.7430235147476196,-0.3429907560348511,0,0,0,-1,-1,19076.073705875,unknown,2,2025-04-21T15:44:49.834+03:00,2025-04-20T21:57:49.637+03:00,6727,0.976288,0,0,5522.566,5,6,2025-04-21T15:44:52.413+03:00,766932295.0833594,0,-42.04,100.2389,1,0.4,2025-04-21T15:39:34.104+03:00,89,1.483333333333333,2025-04-21T12:30:07.995+03:00,0.02023345852159405,0
2025-04-21T15:44:55.138+03:00,1745239493.52687,40.95230025794708,29.14030550074007,76.50296,-1,-1,-1,-1,30,27.58914568789791,-9999,19081.37226966667,-0.570037841796875,0.7423858642578125,-0.3458709716796875,19081.36219366667,2.538028276754938,-1.032809982731488,-0.8375390522994131,-0.007834688760340214,0.004621955100446939,-0.007759074214845896,-0.001146793365478516,0.002195119857788086,-0.003789633512496948,XArbitraryZVertical,0.3256048139156831,-0.4717053301233773,0.818231094249483,0.04442449862215006,-0.5747504830360413,0.7429983019828796,-0.3429511785507202,0,0,0,-1,-1,19076.073705875,unknown,2,2025-04-21T15:44:49.834+03:00,2025-04-20T21:57:49.637+03:00,6727,0.976288,0,0,5522.566,5,6,2025-04-21T15:44:52.413+03:00,766932295.0833594,0,-42.04,100.2389,1,0.4,2025-04-21T15:39:34.104+03:00,89,1.483333333333333,2025-04-21T12:30:07.995+03:00,0.02023345852159405,0
2025-04-21T15:44:55.148+03:00,1745239493.52687,40.95230025794708,29.14030550074007,76.50296,-1,-1,-1,-1,30,27.58914568789791,-9999,19081.38234566667,-0.5706787109375,0.7391815185546875,-0.3443603515625,19081.37226966667,2.537866433166308,-1.032889191942524,-0.8375105799131971,-0.009893778711557388,0.001845676219090819,-0.008187677711248398,0.001935005187988281,0.002214133739471436,-0.005991101264953613,XArbitraryZVertical,0.3256051601227832,-0.4717234929681539,0.8182174517554671,0.04447959258633812,-0.5747957825660706,0.7429792284965515,-0.3429164588451385,0,0,0,-1,-1,19076.073705875,unknown,2,2025-04-21T15:44:49.834+03:00,2025-04-20T21:57:49.637+03:00,6727,0.976288,0,0,5522.566,5,6,2025-04-21T15:44:52.413+03:00,766932295.0833594,0,-42.04,100.2389,1,0.4,2025-04-21T15:39:34.104+03:00,89,1.483333333333333,2025-04-21T12:30:07.995+03:00,0.02023345852159405,0
2025-04-21T15:44:55.158+03:00,1745239493.52687,40.95230025794708,29.14030550074007,76.50296,-1,-1,-1,-1,30,27.58914568789791,-9999,19081.39242066667,-0.5714569091796875,0.73699951171875,-0.34271240234375,19081.38234566667,2.537716373571762,-1.032965353369666,-0.8375189222608058,-0.00839734822511673,0.001717312028631568,-0.005337828304618597,0.004656553268432617,-0.001087367534637451,-0.003291487693786621,XArbitraryZVertical,0.3255991680540452,-0.4717525360847967,0.8182008008252323,0.04452069581476276,-0.5748165249824524,0.7429848313331604,-0.3428694605827332,0,0,0,-1,-1,19076.073705875,unknown,2,2025-04-21T15:44:49.834+03:00,2025-04-20T21:57:49.637+03:00,6727,0.976288,0,0,5522.566,5,6,2025-04-21T15:44:52.413+03:00,766932295.0833594,0,-42.04,100.2389,1,0.4,2025-04-21T15:39:34.104+03:00,89,1.483333333333333,2025-04-21T12:30:07.995+03:00,0.02023345852159405,0
2025-04-21T15:44:55.168+03:00,1745239493.52687,40.95230025794708,29.14030550074007,76.50296,-1,-1,-1,-1,30,27.58914568789791,-9999,19081.40249666667,-0.568603515625,0.7420806884765625,-0.3447113037109375,19081.39242066667,2.537597594403063,-1.033070971031078,-0.8375142419724947,-0.004548947792500257,-0.00670213857665658,-0.004779030568897724,0.003810703754425049,-0.003983497619628906,-0.00135156512260437,XArbitraryZVertical,0.3256153883879658,-0.4717725940978726,0.8181813738189545,0.04454554259687279,-0.574855625629425,0.7429816722869873,-0.3428104817867279,0,0,0,-1,-1,19076.073705875,unknown,2,2025-04-21T15:44:49.834+03:00,2025-04-20T21:57:49.637+03:00,6727,0.976288,0,0,5522.566,5,6,2025-04-21T15:44:52.413+03:00,766932295.0833594,0,-42.04,100.2389,1,0.4,2025-04-21T15:39:34.104+03:00,89,1.483333333333333,2025-04-21T12:30:07.995+03:00,0.02023345852159405,0
2025-04-21T15:44:55.178+03:00,1745239493.52687,40.95230025794708,29.14030550074007,76.50296,-1,-1,-1,-1,30,27.58914568789791,-9999,19081.41257266667,-0.5707855224609375,0.742095947265625,-0.34521484375,19081.40249666667,2.537512364434877,-1.033194207386953,-0.8375175755677102,-0.006874686107039452,-0.0056169000454247,-0.002262076828628778,0.003942489624023438,-0.00580143928527832,-0.0007522106170654297,XArbitraryZVertical,0.3256449282647097,-0.4717903730923866,0.8181591942508419,0.04455061210748702,-0.5748958587646484,0.742983877658844,-0.3427384495735168,0,0,0,-1,-1,19076.073705875,unknown,2,2025-04-21T15:44:49.834+03:00,2025-04-20T21:57:49.637+03:00,6727,0.976288,0,0,5522.566,5,6,2025-04-21T15:44:52.413+03:00,766932295.0833594,0,-42.04,100.2389,1,0.4,2025-04-21T15:39:34.104+03:00,89,1.483333333333333,2025-04-21T12:30:07.995+03:00,0.02023345852159405,0
2025-04-21T15:44:55.188+03:00,1745239493.52687,40.95230025794708,29.14030550074007,76.50296,-1,-1,-1,-1,30,27.58914568789791,-9999,19081.42264866667,-0.5732421875,0.741119384765625,-0.34576416015625,19081.41257266667,2.53742927232721,-1.033308667341793,-0.8375447466933398,-0.003698599990457296,-0.008304296061396599,-0.0003818852710537612,0.00565803050994873,-0.0007842779159545898,-0.001942306756973267,XArbitraryZVertical,0.3256663841879078,-0.4718159504547838,0.818135833191643,0.04455016856496595,-0.5749176144599915,0.7430020570755005,-0.3426622450351715,0,0,0,-1,-1,19076.073705875,unknown,2,2025-04-21T15:44:49.834+03:00,2025-04-20T21:57:49.637+03:00,6727,0.976288,0,0,5522.566,5,6,2025-04-21T15:44:52.413+03:00,766932295.0833594,0,-42.04,100.2389,1,0.4,2025-04-21T15:39:34.104+03:00,89,1.483333333333333,2025-04-21T12:30:07.995+03:00,0.02023345852159405,0
2025-04-21T15:44:55.198+03:00,1745239493.52687,40.95230025794708,29.14030550074007,76.50296,-1,-1,-1,-1,30,27.58914568789791,-9999,19081.43272466667,-0.5736236572265625,0.743560791015625,-0.3462066650390625,19081.42264866667,2.537429590354511,-1.033399916110043,-0.8375626064113278,0.0006910883821547031,-0.01212406903505325,-0.001745690009556711,0.003678977489471436,-0.002261042594909668,-0.002688169479370117,XArbitraryZVertical,0.3256999358418237,-0.471824165534542,0.8181192251335472,0.04452380576608461,-0.5749375820159912,0.7430140376091003,-0.3426030278205872,0,0,0,-1,-1,19076.073705875,unknown,2,2025-04-21T15:44:49.834+03:00,2025-04-20T21:57:49.637+03:00,6727,0.976288,0,0,5522.566,5,6,2025-04-21T15:44:52.413+03:00,766932295.0833594,0,-42.04,100.2389,1,0.4,2025-04-21T15:39:34.104+03:00,89,1.483333333333333,2025-04-21T12:30:07.995+03:00,0.02023345852159405,0
2025-04-21T15:44:55.220+03:00,1745239493.52687,40.95230025794708,29.14030550074007,76.50296,-1,-1,-1,-1,30,27.58914568789791,-9999,19081.44280066667,-0.5714569091796875,0.741851806640625,-0.343780517578125,19081.43272466667,2.537440816158379,-1.03349769907922,-0.8375616917890376,7.762919995002449e-05,-0.009375287219882011,0.000918469624593854,0.002049922943115234,-0.001482248306274414,-0.003934234380722046,XArbitraryZVertical,0.3257427730592479,-0.4718241932707319,0.8181036550896222,0.04449640733659155,-0.5749716758728027,0.7430134415626526,-0.3425471484661102,0,0,0,-1,-1,19076.073705875,unknown,2,2025-04-21T15:44:49.834+03:00,2025-04-20T21:57:49.637+03:00,6727,0.976288,0,0,5522.566,5,6,2025-04-21T15:44:52.413+03:00,766932295.0833594,0,-42.04,100.2389,1,0.4,2025-04-21T15:39:34.104+03:00,89,1.483333333333333,2025-04-21T12:30:07.995+03:00,0.02023345852159405,0
2025-04-21T15:44:55.223+03:00,1745239493.52687,40.95230025794708,29.14030550074007,76.50296,-1,-1,-1,-1,30,27.58914568789791,-9999,19081.45287566667,-0.5739898681640625,0.73651123046875,-0.3452911376953125,19081.44280066667,2.537445310086216,-1.033571852648718,-0.8375720501786371,-0.001505353720858693,-0.007006138097494841,0.001741386367939413,0.002114474773406982,0.0007386207580566406,-0.002653300762176514,XArbitraryZVertical,0.3257719400313367,-0.4718287275424145,0.8180906425152814,0.04447432341766101,-0.574990451335907,0.7430203557014465,-0.3425005972385406,0,0,0,-1,-1,19076.073705875,unknown,2,2025-04-21T15:44:49.834+03:00,2025-04-20T21:57:49.637+03:00,6727,0.976288,0,0,5522.566,5,6,2025-04-21T15:44:52.413+03:00,766932295.0833594,0,-42.04,100.2389,1,0.4,2025-04-21T15:39:34.104+03:00,89,1.483333333333333,2025-04-21T12:30:07.995+03:00,0.02023345852159405,0
2025-04-21T15:44:55.228+03:00,1745239493.52687,40.95230025794708,29.14030550074007,76.50296,-1,-1,-1,-1,30,27.58914568789791,-9999,19081.46295166667,-0.57525634765625,0.7353363037109375,-0.3475341796875,19081.45287566667,2.537447926459465,-1.033630823526255,-0.8375980415532464,-0.003503856249153614,-0.004143573343753815,0.002705683931708336,0.002713143825531006,-0.001918494701385498,-0.00127798318862915,XArbitraryZVertical,0.3257911115180843,-0.4718386898170036,0.8180784612281893,0.04445238395922186,-0.5749940872192383,0.7430377602577209,-0.3424568176269531,0,0,0,-1,-1,19076.073705875,unknown,2,2025-04-21T15:44:49.834+03:00,2025-04-20T21:57:49.637+03:00,6727,0.976288,0,0,5522.566,5,6,2025-04-21T15:44:52.413+03:00,766932295.0833594,0,-42.04,100.2389,1,0.4,2025-04-21T15:39:34.104+03:00,89,1.483333333333333,2025-04-21T12:30:07.995+03:00,0.02023345852159405,0
2025-04-21T15:44:55.238+03:00,1745239493.52687,40.95230025794708,29.14030550074007,76.50296,-1,-1,-1,-1,30,27.58914568789791,-9999,19081.47302766667,-0.5762939453125,0.736053466796875,-0.347900390625,19081.46295166667,2.537407715100174,-1.033688453465798,-0.8376800996376638,-0.008243750780820847,-0.001645528245717287,0.006433044094592333,0.0006510019302368164,-0.006886839866638184,-0.00260886549949646,XArbitraryZVertical,0.3257876860317502,-0.471875186575363,0.8180597192018669,0.04443307129136237,-0.5749613046646118,0.7430926561355591,-0.3423923850059509,0,0,0,-1,-1,19076.073705875,unknown,2,2025-04-21T15:44:49.834+03:00,2025-04-20T21:57:49.637+03:00,6727,0.976288,0,0,5522.566,5,6,2025-04-21T15:44:52.413+03:00,766932295.0833594,0,-42.04,100.2389,1,0.4,2025-04-21T15:39:34.104+03:00,89,1.483333333333333,2025-04-21T12:30:07.995+03:00,0.02023345852159405,0
2025-04-21T15:44:55.248+03:00,1745239493.52687,40.95230025794708,29.14030550074007,76.50296,-1,-1,-1,-1,30,27.58914568789791,-9999,19081.48310366667,-0.574188232421875,0.7335052490234375,-0.3471832275390625,19081.47302766667,2.537366565857594,-1.033734589023299,-0.837838733831858,-0.01396688353270292,-0.002858065068721771,0.01527580339461565,-0.0002889037132263184,-0.007984757423400879,-0.005579590797424316,XArbitraryZVertical,0.3257628241327445,-0.4719383048432052,0.8180352993607595,0.04439666790010518,-0.5748759508132935,0.7431988120079041,-0.3423056304454803,0,0,0,-1,-1,19076.073705875,unknown,2,2025-04-21T15:44:49.834+03:00,2025-04-20T21:57:49.637+03:00,6727,0.976288,0,0,5522.566,5,6,2025-04-21T15:44:52.413+03:00,766932295.0833594,0,-42.04,100.2389,1,0.4,2025-04-21T15:39:34.104+03:00,89,1.483333333333333,2025-04-21T12:30:07.995+03:00,0.02023345852159405,0
2025-04-21T15:44:55.258+03:00,1745239493.52687,40.95230025794708,29.14030550074007,76.50296,-1,-1,-1,-1,30,27.58914568789791,-9999,19081.49317966667,-0.5734100341796875,0.7353515625,-0.3432159423828125,19081.48310366667,2.537318208830739,-1.033797315725944,-0.8380685863170398,-0.01940053142607212,-0.005008568055927753,0.02240481972694397,-0.001924872398376465,-0.007757008075714111,-0.00551992654800415,XArbitraryZVertical,0.3257278588032549,-0.4720278352485162,0.8180006262547695,0.04433999711751545,-0.5747506022453308,0.7433525919914246,-0.3421821594238281,0,0,0,-1,-1,19076.073705875,unknown,2,2025-04-21T15:44:49.834+03:00,2025-04-20T21:57:49.637+03:00,6727,0.976288,0,0,5522.566,5,6,2025-04-21T15:44:52.413+03:00,766932295.0833594,0,-42.04,100.2389,1,0.4,2025-04-21T15:39:34.104+03:00,89,1.483333333333333,2025-04-21T12:30:07.995+03:00,0.02023345852159405,0
2025-04-21T15:44:55.268+03:00,1745239493.52687,40.95230025794708,29.14030550074007,76.50296,-1,-1,-1,-1,30,27.58914568789791,-9999,19081.50325466667,-0.5744171142578125,0.736297607421875,-0.3416595458984375,19081.49317966667,2.537247578089471,-1.03387345394601,-0.8384076744260538,-0.02021193131804466,-0.00220659002661705,0.03152111917734146,0.0003106594085693359,-0.009280860424041748,-0.00480768084526062,XArbitraryZVertical,0.3256697512110577,-0.4721594186007186,0.8179520788114907,0.04425986382095446,-0.5745599269866943,0.7435793876647949,-0.3420093953609467,0,0,0,-1,-1,19076.073705875,unknown,2,2025-04-21T15:44:49.834+03:00,2025-04-20T21:57:49.637+03:00,6727,0.976288,0,0,5522.566,5,6,2025-04-21T15:44:52.413+03:00,766932295.0833594,0,-42.04,100.2389,1,0.4,2025-04-21T15:39:34.104+03:00,89,1.483333333333333,2025-04-21T12:30:07.995+03:00,0.02023345852159405,0
2025-04-21T15:44:55.278+03:00,1745239493.52687,40.95230025794708,29.14030550074007,76.50296,-1,-1,-1,-1,30,27.58914568789791,-9999,19081.51333066667,-0.5768585205078125,0.7376251220703125,-0.34100341796875,19081.50325466667,2.537218104809522,-1.033943812972786,-0.8387906112670759,-0.02262155897915363,-0.008353964425623417,0.03112217783927917,0.0007919073104858398,-0.008285641670227051,-0.0003855526447296143,XArbitraryZVertical,0.3256095363037577,-0.4722994482247569,0.8179010111940295,0.0441526365046115,-0.5743392705917358,0.7438353300094604,-0.3418233096599579,0,0,0,-1,-1,19076.073705875,unknown,2,2025-04-21T15:44:49.834+03:00,2025-04-20T21:57:49.637+03:00,6727,0.976288,0,0,5522.566,5,6,2025-04-21T15:44:52.413+03:00,766932295.0833594,0,-42.04,100.2389,1,0.4,2025-04-21T15:39:34.104+03:00,89,1.483333333333333,2025-04-21T12:30:07.995+03:00,0.02023345852159405,0
2025-04-21T15:44:55.289+03:00,1745239493.52687,40.95230025794708,29.14030550074007,76.50296,-1,-1,-1,-1,30,27.58914568789791,-9999,19081.52340666667,-0.576202392578125,0.7381591796875,-0.344879150390625,19081.51333066667,2.537159900889975,-1.034060549866671,-0.8391872993756108,-0.02692948840558529,-0.008273802697658539,0.0317019484937191,-0.0009171962738037109,-0.008520185947418213,0.0002203881740570068,XArbitraryZVertical,0.3255585538875475,-0.4724499507055446,0.8178402953616685,0.04404244252125571,-0.5741255283355713,0.7441004514694214,-0.3416053354740143,0,0,0,-1,-1,19076.073705875,unknown,2,2025-04-21T15:44:49.834+03:00,2025-04-20T21:57:49.637+03:00,6727,0.976288,0,0,5522.566,5,6,2025-04-21T15:44:52.413+03:00,766932295.0833594,0,-42.04,100.2389,1,0.4,2025-04-21T15:39:34.104+03:00,89,1.483333333333333,2025-04-21T12:30:07.995+03:00,0.02023345852159405,0
2025-04-21T15:44:55.299+03:00,1745239493.52687,40.95230025794708,29.14030550074007,76.50296,-1,-1,-1,-1,30,27.58914568789791,-9999,19081.53348266667,-0.5758819580078125,0.736572265625,-0.3453826904296875,19081.52340666667,2.536997635941018,-1.034242250903154,-0.8396085007048085,-0.03792594745755196,-0.004970950540155172,0.02934691496193409,-0.002802908420562744,-0.005993783473968506,-0.0004865825176239014,XArbitraryZVertical,0.3255041646576999,-0.4726273215506603,0.8177644193193044,0.04395314368623211,-0.573918342590332,0.7443817257881165,-0.3413408994674683,0,0,0,-1,-1,19076.073705875,unknown,2,2025-04-21T15:44:49.834+03:00,2025-04-20T21:57:49.637+03:00,6727,0.976288,0,0,5522.566,5,6,2025-04-21T15:44:52.413+03:00,766932295.0833594,0,-42.04,100.2389,1,0.4,2025-04-21T15:39:34.104+03:00,89,1.483333333333333,2025-04-21T12:30:07.995+03:00,0.02023345852159405,0
2025-04-21T15:44:55.309+03:00,1745239493.52687,40.95230025794708,29.14030550074007,76.50296,-1,-1,-1,-1,30,27.58914568789791,-9999,19081.54355866667,-0.5753936767578125,0.730682373046875,-0.346588134765625,19081.53348266667,2.536675399044974,-1.034542113494259,-0.8400650192671123,-0.04757684096693993,-0.008388452231884003,0.02750846929848194,-0.001833200454711914,-0.006664872169494629,-0.003533214330673218,XArbitraryZVertical,0.3254528040217465,-0.4728456044674728,0.8176618403424353,0.04389130712621358,-0.5737283229827881,0.7446865439414978,-0.3409950137138367,0,0,0,-1,-1,19076.073705875,unknown,2,2025-04-21T15:44:49.834+03:00,2025-04-20T21:57:49.637+03:00,6727,0.976288,0,0,5522.566,5,6,2025-04-21T15:44:52.413+03:00,766932295.0833594,0,-42.04,100.2389,1,0.4,2025-04-21T15:39:34.104+03:00,89,1.483333333333333,2025-04-21T12:30:07.995+03:00,0.02023345852159405,0
2025-04-21T15:44:55.319+03:00,1745239493.52687,40.95230025794708,29.14030550074007,76.50296,-1,-1,-1,-1,30,27.58914568789791,-9999,19081.55363466667,-0.5743865966796875,0.7255859375,-0.3492889404296875,19081.54355866667,2.536186758860957,-1.03499748600417,-0.8406211392431515,-0.06367112696170807,-0.009922965429723263,0.03473815321922302,-0.00235450267791748,-0.008363306522369385,-0.004570513963699341,XArbitraryZVertical,0.3254040199098843,-0.4731289950129155,0.8175205114029661,0.04383435748755626,-0.5735275149345398,0.7450575828552246,-0.3405223488807678,0,0,0,-1,-1,19076.073705875,unknown,2,2025-04-21T15:44:49.834+03:00,2025-04-20T21:57:49.637+03:00,6727,0.976288,0,0,5522.566,5,6,2025-04-21T15:44:52.413+03:00,766932295.0833594,0,-42.04,100.2389,1,0.4,2025-04-21T15:39:34.104+03:00,89,1.483333333333333,2025-04-21T12:30:07.995+03:00,0.02023345852159405,0
2025-04-21T15:44:55.329+03:00,1745239493.52687,40.95230025794708,29.14030550074007,76.50296,-1,-1,-1,-1,30,27.58914568789791,-9999,19081.56370966667,-0.576324462890625,0.7256317138671875,-0.345703125,19081.55363466667,2.535521078852071,-1.035564016793116,-0.8413011314974663,-0.08795256167650223,-0.005538138095289469,0.03639593720436096,-0.001498997211456299,-0.01542383432388306,-0.007244467735290527,XArbitraryZVertical,0.3253320778943675,-0.4734866634235222,0.8173443720698439,0.04378967649047259,-0.5732843279838562,0.7455109357833862,-0.3399388492107391,0,0,0,-1,-1,19076.073705875,unknown,2,2025-04-21T15:44:49.834+03:00,2025-04-20T21:57:49.637+03:00,6727,0.976288,0,0,5522.566,5,6,2025-04-21T15:44:52.413+03:00,766932295.0833594,0,-42.04,100.2389,1,0.4,2025-04-21T15:39:34.104+03:00,89,1.483333333333333,2025-04-21T12:30:07.995+03:00,0.02023345852159405,0
2025-04-21T15:44:55.339+03:00,1745239493.52687,40.95230025794708,29.14030550074007,76.50296,-1,-1,-1,-1,30,27.58914568789791,-9999,19081.57378566667,-0.5758056640625,0.718475341796875,-0.338592529296875,19081.56370966667,2.53449288407298,-1.036435915685861,-0.842137647372516,-0.1139420792460442,-0.01041651703417301,0.04201307892799377,-0.001831293106079102,-0.02074182033538818,-0.009694874286651611,XArbitraryZVertical,0.3252649953432995,-0.4739642554912697,0.8170948217429562,0.04377855042836978,-0.5730436444282532,0.7460682392120361,-0.3391211330890656,0,0,0,-1,-1,19076.073705875,unknown,2,2025-04-21T15:44:49.834+03:00,2025-04-20T21:57:49.637+03:00,6727,0.976288,0,0,5522.566,5,6,2025-04-21T15:44:52.413+03:00,766932295.0833594,0,-42.04,100.2389,1,0.4,2025-04-21T15:39:34.104+03:00,89,1.483333333333333,2025-04-21T12:30:07.995+03:00,0.02023345852159405,0
2025-04-21T15:44:55.349+03:00,1745239493.52687,40.95230025794708,29.14030550074007,76.50296,-1,-1,-1,-1,30,27.58914568789791,-9999,19081.58386166667,-0.5750732421875,0.7242279052734375,-0.34051513671875,19081.57378566667,2.533302293869498,-1.037407221198213,-0.8431059931754704,-0.1210727617144585,-0.01071379240602255,0.04319242388010025,-0.003741919994354248,-0.02088272571563721,-0.006606042385101318,XArbitraryZVertical,0.3251709731593079,-0.4745159466972061,0.8168122591522932,0.04377424099432833,-0.572750449180603,0.7467126846313477,-0.3381969034671783,0,0,0,-1,-1,19076.073705875,unknown,2,2025-04-21T15:44:49.834+03:00,2025-04-20T21:57:49.637+03:00,6727,0.976288,0,0,5522.566,5,6,2025-04-21T15:44:52.413+03:00,766932295.0833594,0,-42.04,100.2389,1,0.4,2025-04-21T15:39:34.104+03:00,89,1.483333333333333,2025-04-21T12:30:07.995+03:00,0.02023345852159405,0
2025-04-21T15:44:55.359+03:00,1745239493.52687,40.95230025794708,29.14030550074007,76.50296,-1,-1,-1,-1,30,27.58914568789791,-9999,19081.59393766667,-0.57891845703125,0.7386627197265625,-0.3447723388671875,19081.58386166667,2.532125097865611,-1.038352567908949,-0.8440795564990767,-0.1154231354594231,-0.003372788429260254,0.04690993204712868,-0.002813100814819336,-0.02958661317825317,-0.0005587935447692871,XArbitraryZVertical,0.3250676223876266,-0.4750662848298576,0.8165337835476635,0.04376854498423924,-0.5724433064460754,0.7473598718643188,-0.3372861444950104,0,0,0,-1,-1,19076.073705875,unknown,2,2025-04-21T15:44:49.834+03:00,2025-04-20T21:57:49.637+03:00,6727,0.976288,0,0,5522.566,5,6,2025-04-21T15:44:52.413+03:00,766932295.0833594,0,-42.04,100.2389,1,0.4,2025-04-21T15:39:34.104+03:00,89,1.483333333333333,2025-04-21T12:30:07.995+03:00,0.02023345852159405,0
2025-04-21T15:44:55.369+03:00,1745239493.52687,40.95230025794708,29.14030550074007,76.50296,-1,-1,-1,-1,30,27.58914568789791,-9999,19081.60401366667,-0.57513427734375,0.7510223388671875,-0.3436737060546875,19081.59393766667,2.531065413358372,-1.039164488486001,-0.8449675811307846,-0.09984230995178223,-0.0007703471928834915,0.03382968157529831,-0.003142356872558594,-0.02184498310089111,-0.004885077476501465,XArbitraryZVertical,0.3249555154242005,-0.4755645159042653,0.8162882558345889,0.04376885871160408,-0.5721445679664612,0.7479496002197266,-0.3364846110343933,0,0,0,-1,-1,19076.073705875,unknown,2,2025-04-21T15:44:49.834+03:00,2025-04-20T21:57:49.637+03:00,6727,0.976288,0,0,5522.566,5,6,2025-04-21T15:44:52.413+03:00,766932295.0833594,0,-42.04,100.2389,1,0.4,2025-04-21T15:39:34.104+03:00,89,1.483333333333333,2025-04-21T12:30:07.995+03:00,0.02023345852159405,0
2025-04-21T15:44:55.379+03:00,1745239493.52687,40.95230025794708,29.14030550074007,76.50296,-1,-1,-1,-1,30,27.58914568789791,-9999,19081.61408966667,-0.5696258544921875,0.7632598876953125,-0.347747802734375,19081.60401366667,2.530200378135857,-1.03976992376932,-0.8456481903938572,-0.07232839614152908,0.008922494016587734,0.02657043561339378,-0.006521165370941162,-0.008105993270874023,-0.008434385061264038,XArbitraryZVertical,0.3248497239707781,-0.475954355603173,0.8161016963520179,0.04379430338435161,-0.5719090104103088,0.7484011650085449,-0.3358802199363708,0,0,0,-1,-1,19076.073705875,unknown,2,2025-04-21T15:44:49.834+03:00,2025-04-20T21:57:49.637+03:00,6727,0.976288,0,0,5522.566,5,6,2025-04-21T15:44:52.413+03:00,766932295.0833594,0,-42.04,100.2389,1,0.4,2025-04-21T15:39:34.104+03:00,89,1.483333333333333,2025-04-21T12:30:07.995+03:00,0.02023345852159405,0
2025-04-21T15:44:55.390+03:00,1745239493.52687,40.95230025794708,29.14030550074007,76.50296,-1,-1,-1,-1,30,27.58914568789791,-9999,19081.62416466667,-0.576446533203125,0.763702392578125,-0.356719970703125,19081.61408966667,2.529554251888685,-1.040119608565163,-0.8461296290132942,-0.05443701148033142,0.01810347661375999,0.01550952903926373,-0.002259016036987305,0.003674983978271484,-0.007565587759017944,XArbitraryZVertical,0.3247344356003153,-0.476233820784732,0.8159817973651122,0.04384483146458829,-0.5717155337333679,0.7487204074859619,-0.3354977965354919,0,0,0,-1,-1,19076.073705875,unknown,2,2025-04-21T15:44:49.834+03:00,2025-04-20T21:57:49.637+03:00,6727,0.976288,0,0,5522.566,5,6,2025-04-21T15:44:52.413+03:00,766932295.0833594,0,-42.04,100.2389,1,0.4,2025-04-21T15:39:34.104+03:00,89,1.483333333333333,2025-04-21T12:30:07.995+03:00,0.02023345852159405,0
2025-04-21T15:44:55.400+03:00,1745239493.52687,40.95230025794708,29.14030550074007,76.50296,-1,-1,-1,-1,30,27.58914568789791,-9999,19081.63424066667,-0.5808258056640625,0.759124755859375,-0.366668701171875,19081.62416466667,2.529148206026993,-1.040162417657494,-0.8463864154614131,-0.02266203798353672,0.02937610447406769,0.004436105489730835,0.001861989498138428,0.01484209299087524,-0.01276853680610657,XArbitraryZVertical,0.3245995894269993,-0.4763896466430617,0.8159398743963125,0.04393107305615365,-0.5715641379356384,0.7488905787467957,-0.3353760242462158,0,0,0,-1,-1,19076.073705875,unknown,2,2025-04-21T15:44:49.834+03:00,2025-04-20T21:57:49.637+03:00,6727,0.976288,0,0,5522.566,5,6,2025-04-21T15:44:52.413+03:00,766932295.0833594,0,-42.04,100.2389,1,0.4,2025-04-21T15:39:34.104+03:00,89,1.483333333333333,2025-04-21T12:30:07.995+03:00,0.02023345852159405,0
2025-04-21T15:44:55.409+03:00,1745239493.52687,40.95230025794708,29.14030550074007,76.50296,-1,-1,-1,-1,30,27.58914568789791,-9999,19081.64431666667,-0.583465576171875,0.75543212890625,-0.376129150390625,19081.63424066667,2.529046768500463,-1.039875000582488,-0.8464400762967665,-0.006177669856697321,0.03879590332508087,0.003790256101638079,-0.005776405334472656,0.01398253440856934,-0.02159681916236877,XArbitraryZVertical,0.3244465489047649,-0.4764183775302242,0.8159788209000436,0.04402643832615545,-0.5714330077171326,0.7489261627197266,-0.335519939661026,0,0,0,-1,-1,19076.073705875,unknown,2,2025-04-21T15:44:49.834+03:00,2025-04-20T21:57:49.637+03:00,6727,0.976288,0,0,5522.566,5,6,2025-04-21T15:44:52.413+03:00,766932295.0833594,0,-42.04,100.2389,1,0.4,2025-04-21T15:39:34.104+03:00,89,1.483333333333333,2025-04-21T12:30:07.995+03:00,0.02023345852159405,0
2025-04-21T15:44:55.420+03:00,1745239493.52687,40.95230025794708,29.14030550074007,76.50296,-1,-1,-1,-1,30,27.58914568789791,-9999,19081.65439266667,-0.5938873291015625,0.7454833984375,-0.3721160888671875,19081.64431666667,2.529051864717895,-1.039403632569263,-0.8464089517120231,0.006022537127137184,0.05466940999031067,0.003189979586750269,-0.009485125541687012,0.009501814842224121,-0.03259196877479553,XArbitraryZVertical,0.324262182889841,-0.4763963763252048,0.8160585366117817,0.04414502546996128,-0.571294903755188,0.7489055395126343,-0.3358010649681091,0,0,0,-1,-1,19076.073705875,unknown,2,2025-04-21T15:44:49.834+03:00,2025-04-20T21:57:49.637+03:00,6727,0.976288,0,0,5522.566,5,6,2025-04-21T15:44:52.413+03:00,766932295.0833594,0,-42.04,100.2389,1,0.4,2025-04-21T15:39:34.104+03:00,89,1.483333333333333,2025-04-21T12:30:07.995+03:00,0.02023345852159405,0
2025-04-21T15:44:55.430+03:00,1745239493.52687,40.95230025794708,29.14030550074007,76.50296,-1,-1,-1,-1,30,27.58914568789791,-9999,19081.66446866667,-0.6035919189453125,0.7338714599609375,-0.376861572265625,19081.65439266667,2.529392257591019,-1.038465662200434,-0.8463391954743776,0.02734240517020226,0.07309521734714508,0.01094120927155018,-0.01318848133087158,0.006069064140319824,-0.0406966507434845,XArbitraryZVertical,0.3239755616705499,-0.4762963012645615,0.8162252405392639,0.04424842860159446,-0.5710247755050659,0.7488592863082886,-0.3363633453845978,0,0,0,-1,-1,19076.073705875,unknown,2,2025-04-21T15:44:49.834+03:00,2025-04-20T21:57:49.637+03:00,6727,0.976288,0,0,5522.566,5,6,2025-04-21T15:44:52.413+03:00,766932295.0833594,0,-42.04,100.2389,1,0.4,2025-04-21T15:39:34.104+03:00,89,1.483333333333333,2025-04-21T12:30:07.995+03:00,0.02023345852159405,0
2025-04-21T15:44:55.440+03:00,1745239493.52687,40.95230025794708,29.14030550074007,76.50296,-1,-1,-1,-1,30,27.58914568789791,-9999,19081.67454466667,-0.5886688232421875,0.7234039306640625,-0.4034423828125,19081.66446866667,2.52980277369874,-1.037521190269046,-0.8463625913512272,0.00607200525701046,0.05341152846813202,0.02620724774897099,-0.02531653642654419,-0.004307091236114502,-0.03467321395874023,XArbitraryZVertical,0.3236827552316778,-0.4762170370309302,0.8163848924693804,0.0442995133901381,-0.5706917643547058,0.7488747835159302,-0.336893618106842,0,0,0,-1,-1,19076.073705875,unknown,2,2025-04-21T15:44:49.834+03:00,2025-04-20T21:57:49.637+03:00,6727,0.976288,0,0,5522.566,5,6,2025-04-21T15:44:52.413+03:00,766932295.0833594,0,-42.04,100.2389,1,0.4,2025-04-21T15:39:34.104+03:00,89,1.483333333333333,2025-04-21T12:30:07.995+03:00,0.02023345852159405,0
2025-04-21T15:44:55.450+03:00,1745239493.52687,40.95230025794708,29.14030550074007,76.50296,-1,-1,-1,-1,30,27.58914568789791,-9999,19081.68461966667,-0.5890655517578125,0.7342376708984375,-0.412200927734375,19081.67454466667,2.529910083695909,-1.036817328630969,-0.8466466477792461,-0.02459416165947914,0.0729033425450325,0.03808048740029335,-0.03303056955337524,-0.01699227094650269,-0.04271119832992554,XArbitraryZVertical,0.3233595201952799,-0.4762826196066081,0.8164721913779974,0.04434692226268958,-0.5702714323997498,0.7490630149841309,-0.3371869623661041,0,0,0,-1,-1,19076.073705875,unknown,2,2025-04-21T15:44:49.834+03:00,2025-04-20T21:57:49.637+03:00,6727,0.976288,0,0,5522.566,5,6,2025-04-21T15:44:52.413+03:00,766932295.0833594,0,-42.04,100.2389,1,0.4,2025-04-21T15:39:34.104+03:00,89,1.483333333333333,2025-04-21T12:30:07.995+03:00,0.02023345852159405,0
2025-04-21T15:44:55.460+03:00,1745239493.52687,40.95230025794708,29.14030550074007,76.50296,-1,-1,-1,-1,30,27.58914568789791,-9999,19081.69469566667,-0.60650634765625,0.738677978515625,-0.4387359619140625,19081.68461966667,2.529843553402497,-1.035951363338441,-0.8473073793630556,-0.06159745529294014,0.1024156957864761,0.07195615768432617,-0.01763546466827393,-0.02602052688598633,-0.06808930635452271,XArbitraryZVertical,0.3228472281968833,-0.4765034038363801,0.8165430780769602,0.04440259986695125,-0.5695533156394958,0.749500572681427,-0.3374283611774445,0,0,0,-1,-1,19076.073705875,unknown,2,2025-04-21T15:44:49.834+03:00,2025-04-20T21:57:49.637+03:00,6727,0.976288,0,0,5522.566,5,6,2025-04-21T15:44:52.413+03:00,766932295.0833594,0,-42.04,100.2389,1,0.4,2025-04-21T15:39:34.104+03:00,89,1.483333333333333,2025-04-21T12:30:07.995+03:00,0.02023345852159405,0
2025-04-21T15:44:55.470+03:00,1745239493.52687,40.95230025794708,29.14030550074007,76.50296,-1,-1,-1,-1,30,27.58914568789791,-9999,19081.704773,-0.601318359375,0.7309722900390625,-0.465850830078125,19081.69469566667,2.529148251411292,-1.035432016170684,-0.8484408438137441,-0.1281107664108276,0.1104471832513809,0.07632876932621002,-0.02250915765762329,-0.01383095979690552,-0.07712310552597046,XArbitraryZVertical,0.322224212113745,-0.4769972026829883,0.8164952207711588,0.04450534125330032,-0.5686469078063965,0.7502504587173462,-0.3372904658317566,0,0,0,-1,-1,19076.073705875,unknown,2,2025-04-21T15:44:49.834+03:00,2025-04-20T21:57:49.637+03:00,6727,0.976288,0,0,5522.566,5,6,2025-04-21T15:44:52.413+03:00,766932295.0833594,0,-42.04,100.2389,1,0.4,2025-04-21T15:39:34.104+03:00,89,1.483333333333333,2025-04-21T12:30:07.995+03:00,0.02023345852159405,0
2025-04-21T15:44:55.480+03:00,1745239493.52687,40.95230025794708,29.14030550074007,76.50296,-1,-1,-1,-1,30,27.58914568789791,-9999,19081.714849,-0.5924224853515625,0.7360687255859375,-0.491912841796875,19081.704773,2.528036937707498,-1.035231898362887,-0.8499258496903785,-0.1378193199634552,0.06082983314990997,0.09420523792505264,-0.03948086500167847,-0.01389646530151367,-0.1064631640911102,XArbitraryZVertical,0.3215556208384178,-0.4776864668673378,0.8163502005977902,0.04460724540415147,-0.567620575428009,0.7512314915657043,-0.3368352353572845,0,0,0,-1,-1,19076.073705875,unknown,2,2025-04-21T15:44:49.834+03:00,2025-04-20T21:57:49.637+03:00,6727,0.976288,0,0,5522.566,5,6,2025-04-21T15:44:52.413+03:00,766932295.0833594,0,-42.04,100.2389,1,0.4,2025-04-21T15:39:34.104+03:00,89,1.483333333333333,2025-04-21T12:30:07.995+03:00,0.02023345852159405,0
2025-04-21T15:44:55.490+03:00,1745239493.52687,40.95230025794708,29.14030550074007,76.50296,-1,-1,-1,-1,30,27.58914568789791,-9999,19081.724925,-0.598114013671875,0.759246826171875,-0.5108642578125,19081.714849,2.527035396161614,-1.036062919239966,-0.8511597125164095,-0.1074985712766647,-0.05598054081201553,0.05984080955386162,-0.03307163715362549,-0.02153098583221436,-0.1321115791797638,XArbitraryZVertical,0.3213877363283199,-0.4782933523193635,0.8160675530708206,0.04448533290122159,-0.567102313041687,0.7520452737808228,-0.3358907699584961,0,0,0,-1,-1,19076.073705875,unknown,2,2025-04-21T15:44:49.834+03:00,2025-04-20T21:57:49.637+03:00,6727,0.976288,0,0,5522.566,5,6,2025-04-21T15:44:52.413+03:00,766932295.0833594,0,-42.04,100.2389,1,0.4,2025-04-21T15:39:34.104+03:00,89,1.483333333333333,2025-04-21T12:30:07.995+03:00,0.02023345852159405,0
2025-04-21T15:44:55.500+03:00,1745239493.52687,40.95230025794708,29.14030550074007,76.50296,-1,-1,-1,-1,30,27.58914568789791,-9999,19081.735001,-0.603759765625,0.772735595703125,-0.514373779296875,19081.724925,2.526235838652858,-1.037192792211047,-0.852047680975612,-0.08649501204490662,-0.04083940386772156,0.04496252536773682,-0.02435648441314697,-0.01425760984420776,-0.1611684560775757,XArbitraryZVertical,0.3214644385697556,-0.4787541875016545,0.8157771102469752,0.04430218044353128,-0.5669063925743103,0.7526302933692932,-0.3349100947380066,0,0,0,-1,-1,19076.073705875,unknown,2,2025-04-21T15:44:49.834+03:00,2025-04-20T21:57:49.637+03:00,6727,0.976288,0,0,5522.566,5,6,2025-04-21T15:44:52.413+03:00,766932295.0833594,0,-42.04,100.2389,1,0.4,2025-04-21T15:39:34.104+03:00,89,1.483333333333333,2025-04-21T12:30:07.995+03:00,0.02023345852159405,0
2025-04-21T15:44:55.510+03:00,1745239493.52687,40.95230025794708,29.14030550074007,76.50296,-1,-1,-1,-1,30,27.58914568789791,-9999,19081.745076,-0.5956878662109375,0.774322509765625,-0.51922607421875,19081.735001,2.525005809166033,-1.038937125940513,-0.8526274451239706,-0.1045965850353241,-0.1085218414664268,-0.02015672065317631,-0.03356403112411499,0.00878298282623291,-0.1772260665893555,XArbitraryZVertical,0.3217550929932715,-0.4791909794101751,0.8154098860136418,0.04422967187459424,-0.56711345911026,0.7530118823051453,-0.3336993455886841,0,0,0,-1,-1,19076.073705875,unknown,2,2025-04-21T15:44:49.834+03:00,2025-04-20T21:57:49.637+03:00,6727,0.976288,0,0,5522.566,5,6,2025-04-21T15:44:52.413+03:00,766932295.0833594,0,-42.04,100.2389,1,0.4,2025-04-21T15:39:34.104+03:00,89,1.483333333333333,2025-04-21T12:30:07.995+03:00,0.02023345852159405,0
2025-04-21T15:44:55.521+03:00,1745239493.52687,40.95230025794708,29.14030550074007,76.50296,-1,-1,-1,-1,30,27.58914568789791,-9999,19081.755152,-0.5975494384765625,0.7692108154296875,-0.52703857421875,19081.745076,2.523333209903735,-1.041065302994437,-0.8531161370117799,-0.1425026804208755,-0.06738932430744171,-0.00485739391297102,-0.03431719541549683,0.01975303888320923,-0.1831362843513489,XArbitraryZVertical,0.3221150815892475,-0.4796759726547357,0.8149803331879842,0.04426929616581623,-0.5675047636032104,0.7533333301544189,-0.3323056697845459,0,0,0,-1,-1,19076.073705875,unknown,2,2025-04-21T15:44:49.834+03:00,2025-04-20T21:57:49.637+03:00,6727,0.976288,0,0,5522.566,5,6,2025-04-21T15:44:52.413+03:00,766932295.0833594,0,-42.04,100.2389,1,0.4,2025-04-21T15:39:34.104+03:00,89,1.483333333333333,2025-04-21T12:30:07.995+03:00,0.02023345852159405,0
2025-04-21T15:44:55.530+03:00,1745239493.52687,40.95230025794708,29.14030550074007,76.50296,-1,-1,-1,-1,30,27.58914568789791,-9999,19081.765228,-0.6064910888671875,0.7649993896484375,-0.547393798828125,19081.755152,2.521208218157827,-1.043211830363774,-0.8541802687540677,-0.1976405829191208,-0.04590460285544395,0.05947429314255714,-0.02833187580108643,0.02033537626266479,-0.1894128918647766,XArbitraryZVertical,0.3222469572225638,-0.4804324905519763,0.8144791069846278,0.04433201189986897,-0.5675238966941833,0.7540327310562134,-0.3306830525398254,0,0,0,-1,-1,19076.073705875,unknown,2,2025-04-21T15:44:49.834+03:00,2025-04-20T21:57:49.637+03:00,6727,0.976288,0,0,5522.566,5,6,2025-04-21T15:44:52.413+03:00,766932295.0833594,0,-42.04,100.2389,1,0.4,2025-04-21T15:39:34.104+03:00,89,1.483333333333333,2025-04-21T12:30:07.995+03:00,0.02023345852159405,0
2025-04-21T15:44:55.540+03:00,1745239493.52687,40.95230025794708,29.14030550074007,76.50296,-1,-1,-1,-1,30,27.58914568789791,-9999,19081.775304,-0.6258544921875,0.7725830078125,-0.5880279541015625,19081.765228,2.519502761734397,-1.044951372660594,-0.855953482714167,-0.1676757633686066,-0.06314084678888321,0.134124293923378,-0.0312495231628418,0.01268684864044189,-0.1990374028682709,XArbitraryZVertical,0.3221568651306614,-0.4813555659434519,0.8139805565889491,0.0441273801690492,-0.5669407844543457,0.7551962733268738,-0.329023540019989,0,0,0,-1,-1,19076.073705875,unknown,2,2025-04-21T15:44:49.834+03:00,2025-04-20T21:57:49.637+03:00,6727,0.976288,0,0,5522.566,5,6,2025-04-21T15:44:52.413+03:00,766932295.0833594,0,-42.04,100.2389,1,0.4,2025-04-21T15:39:34.104+03:00,89,1.483333333333333,2025-04-21T12:30:07.995+03:00,0.02023345852159405,0
2025-04-21T15:44:55.551+03:00,1745239493.52687,40.95230025794708,29.14030550074007,76.50296,-1,-1,-1,-1,30,27.58914568789791,-9999,19081.78538,-0.6144561767578125,0.7748260498046875,-0.610809326171875,19081.775304,2.518771375414791,-1.04661611320631,-0.8580512499542456,-0.1308017522096634,-0.1577258110046387,0.1756346523761749,-0.04347354173660278,0.009039878845214844,-0.2248688936233521,XArbitraryZVertical,0.3221976266992642,-0.482230039485007,0.8134829758237822,0.04345495688110437,-0.566115140914917,0.7565696835517883,-0.3272857666015625,0,0,0,-1,-1,19076.073705875,unknown,2,2025-04-21T15:44:49.834+03:00,2025-04-20T21:57:49.637+03:00,6727,0.976288,0,0,5522.566,5,6,2025-04-21T15:44:52.413+03:00,766932295.0833594,0,-42.04,100.2389,1,0.4,2025-04-21T15:39:34.104+03:00,89,1.483333333333333,2025-04-21T12:30:07.995+03:00,0.02023345852159405,0
2025-04-21T15:44:55.561+03:00,1745239493.52687,40.95230025794708,29.14030550074007,76.50296,-1,-1,-1,-1,30,27.58914568789791,-9999,19081.795456,-0.6011810302734375,0.79296875,-0.6431732177734375,19081.78538,2.519281850623195,-1.048375836493901,-0.8600391249472348,0.009371328167617321,-0.2708649039268494,0.200064092874527,-0.06176590919494629,0.01494359970092773,-0.2668999135494232,XArbitraryZVertical,0.3225996674276521,-0.4828669867588956,0.8130073348676672,0.04228261504676139,-0.5653855204582214,0.7578681111335754,-0.3255378603935242,0,0,0,-1,-1,19076.073705875,unknown,2,2025-04-21T15:44:49.834+03:00,2025-04-20T21:57:49.637+03:00,6727,0.976288,0,0,5522.566,5,6,2025-04-21T15:44:52.413+03:00,766932295.0833594,0,-42.04,100.2389,1,0.4,2025-04-21T15:39:34.104+03:00,89,1.483333333333333,2025-04-21T12:30:07.995+03:00,0.02023345852159405,0
2025-04-21T15:44:55.571+03:00,1745239493.52687,40.95230025794708,29.14030550074007,76.50296,-1,-1,-1,-1,30,27.58914568789791,-9999,19081.805531,-0.6172637939453125,0.7885284423828125,-0.6676483154296875,19081.795456,2.522000905288048,-1.049475092020081,-0.8616553481044196,0.1274521052837372,-0.3566696047782898,0.2547728419303894,-0.04596120119094849,0.01808637380599976,-0.2894180417060852,XArbitraryZVertical,0.323347950060613,-0.4830043452005803,0.8127206580145092,0.04047293834507989,-0.5646803379058838,0.7589215636253357,-0.3243058025836945,0,0,0,-1,-1,19076.073705875,unknown,2,2025-04-21T15:44:49.834+03:00,2025-04-20T21:57:49.637+03:00,6727,0.976288,0,0,5522.566,5,6,2025-04-21T15:44:52.413+03:00,766932295.0833594,0,-42.04,100.2389,1,0.4,2025-04-21T15:39:34.104+03:00,89,1.483333333333333,2025-04-21T12:30:07.995+03:00,0.02023345852159405,0
2025-04-21T15:44:55.581+03:00,1745239493.52687,40.95230025794708,29.14030550074007,76.50296,-1,-1,-1,-1,30,27.58914568789791,-9999,19081.815607,-0.6234283447265625,0.7774505615234375,-0.671142578125,19081.805531,2.526630960092772,-1.050020870692406,-0.863054002773733,0.2291169464588165,-0.4524208903312683,0.2681480348110199,-0.03849643468856812,0.03473913669586182,-0.3240682184696198,XArbitraryZVertical,0.3243810882039044,-0.4827446448051158,0.812578811555288,0.03807954432996873,-0.5639358162879944,0.7598315477371216,-0.3234690427780151,0,0,0,-1,-1,19076.073705875,unknown,2,2025-04-21T15:44:49.834+03:00,2025-04-20T21:57:49.637+03:00,6727,0.976288,0,0,5522.566,5,6,2025-04-21T15:44:52.413+03:00,766932295.0833594,0,-42.04,100.2389,1,0.4,2025-04-21T15:39:34.104+03:00,89,1.483333333333333,2025-04-21T12:30:07.995+03:00,0.02023345852159405,0
2025-04-21T15:44:55.591+03:00,1745239493.52687,40.95230025794708,29.14030550074007,76.50296,-1,-1,-1,-1,30,27.58914568789791,-9999,19081.825683,-0.59527587890625,0.7575225830078125,-0.6527099609375,19081.815607,2.531333069585904,-1.05143291688512,-0.8645510777806423,0.1528604477643967,-0.5269226431846619,0.3118030726909637,-0.05562996864318848,0.02583217620849609,-0.3467005491256714,XArbitraryZVertical,0.3257621902211323,-0.4825196921126257,0.8122800794927825,0.03542195877281339,-0.563403844833374,0.7608039975166321,-0.3221074938774109,0,0,0,-1,-1,19076.073705875,unknown,2,2025-04-21T15:44:49.834+03:00,2025-04-20T21:57:49.637+03:00,6727,0.976288,0,0,5522.566,5,6,2025-04-21T15:44:52.413+03:00,766932295.0833594,0,-42.04,100.2389,1,0.4,2025-04-21T15:39:34.104+03:00,89,1.483333333333333,2025-04-21T12:30:07.995+03:00,0.02023345852159405,0
2025-04-21T15:44:55.601+03:00,1745239493.52687,40.95230025794708,29.14030550074007,76.50296,-1,-1,-1,-1,30,27.58914568789791,-9999,19081.835759,-0.5676727294921875,0.730712890625,-0.63958740234375,19081.825683,2.535847070791038,-1.053646034775702,-0.8667811877818948,0.1346968859434128,-0.6044735908508301,0.3380879163742065,-0.05946177244186401,0.0147126317024231,-0.350313812494278,XArbitraryZVertical,0.3272637273826688,-0.4825851066990763,0.8117616376375472,0.0324489787854708,-0.562639057636261,0.7622494101524353,-0.3200201392173767,0,0,0,-1,-1,19076.073705875,unknown,2,2025-04-21T15:44:49.834+03:00,2025-04-20T21:57:49.637+03:00,6727,0.976288,0,0,5522.566,5,6,2025-04-21T15:44:52.413+03:00,766932295.0833594,0,-42.04,100.2389,1,0.4,2025-04-21T15:39:34.104+03:00,89,1.483333333333333,2025-04-21T12:30:07.995+03:00,0.02023345852159405,0
2025-04-21T15:44:55.611+03:00,1745239493.52687,40.95230025794708,29.14030550074007,76.50296,-1,-1,-1,-1,30,27.58914568789791,-9999,19081.845835,-0.583038330078125,0.746551513671875,-0.61663818359375,19081.835759,2.539821887918274,-1.057213573070864,-0.8693069217821553,0.04676563665270805,-0.6734855175018311,0.3544667661190033,-0.02710437774658203,-0.01160842180252075,-0.3325790166854858,XArbitraryZVertical,0.3291207320407593,-0.4828535482966751,0.810971048880925,0.02928812576610758,-0.562098503112793,0.7638818621635437,-0.3170639872550964,0,0,0,-1,-1,19076.073705875,unknown,2,2025-04-21T15:44:49.834+03:00,2025-04-20T21:57:49.637+03:00,6727,0.976288,0,0,5522.566,5,6,2025-04-21T15:44:52.413+03:00,766932295.0833594,0,-42.04,100.2389,1,0.4,2025-04-21T15:39:34.104+03:00,89,1.483333333333333,2025-04-21T12:30:07.995+03:00,0.02023345852159405,0
2025-04-21T15:44:55.621+03:00,1745239493.52687,40.95230025794708,29.14030550074007,76.50296,-1,-1,-1,-1,30,27.58914568789791,-9999,19081.855911,-0.55975341796875,0.7589111328125,-0.564666748046875,19081.845835,2.542212510103124,-1.061966898209422,-0.8727458349385481,-0.09391131997108459,-0.6472938060760498,0.3782261610031128,-0.007484793663024902,-0.03457522392272949,-0.3259616196155548,XArbitraryZVertical,0.3308763758366111,-0.4837016788564825,0.8098550515611467,0.0262331443321067,-0.5613018274307251,0.7660966515541077,-0.3131070137023926,0,0,0,-1,-1,19076.073705875,unknown,2,2025-04-21T15:44:49.834+03:00,2025-04-20T21:57:49.637+03:00,6727,0.976288,0,0,5522.566,5,6,2025-04-21T15:44:52.413+03:00,766932295.0833594,0,-42.04,100.2389,1,0.4,2025-04-21T15:39:34.104+03:00,89,1.483333333333333,2025-04-21T12:30:07.995+03:00,0.02023345852159405,0
2025-04-21T15:44:55.631+03:00,1745239493.52687,40.95230025794708,29.14030550074007,76.50296,-1,-1,-1,-1,30,27.58914568789791,-9999,19081.865986,-0.5146636962890625,0.814453125,-0.5367889404296875,19081.855911,2.543106382094653,-1.067938121510123,-0.8766011482667136,-0.1673923283815384,-0.6795933246612549,0.3517008721828461,-0.02260631322860718,-0.02101045846939087,-0.3013866245746613,XArbitraryZVertical,0.3326688300692416,-0.4849426883507665,0.8084650149757842,0.02337091012821723,-0.5605693459510803,0.7685688734054565,-0.3083240687847137,0,0,0,-1,-1,19076.073705875,unknown,2,2025-04-21T15:44:49.834+03:00,2025-04-20T21:57:49.637+03:00,6727,0.976288,0,0,5522.566,5,6,2025-04-21T15:44:52.413+03:00,766932295.0833594,0,-42.04,100.2389,1,0.4,2025-04-21T15:39:34.104+03:00,89,1.483333333333333,2025-04-21T12:30:07.995+03:00,0.02023345852159405,0
2025-04-21T15:44:55.641+03:00,1745239493.52687,40.95230025794708,29.14030550074007,76.50296,-1,-1,-1,-1,30,27.58914568789791,-9999,19081.876062,-0.5047760009765625,0.879608154296875,-0.544403076171875,19081.865986,2.543571574765236,-1.074788803366379,-0.8800995630219209,-0.09670217335224152,-0.7638610601425171,0.2551913857460022,0.006940245628356934,-0.008198738098144531,-0.2561921179294586,XArbitraryZVertical,0.334784461262585,-0.486129412122323,0.8069540049097008,0.02055925805066569,-0.5603002309799194,0.7708023190498352,-0.3031951189041138,0,0,0,-1,-1,19076.073705875,unknown,2,2025-04-21T15:44:49.834+03:00,2025-04-20T21:57:49.637+03:00,6727,0.976288,0,0,5522.566,5,6,2025-04-21T15:44:52.413+03:00,766932295.0833594,0,-42.04,100.2389,1,0.4,2025-04-21T15:39:34.104+03:00,89,1.483333333333333,2025-04-21T12:30:07.995+03:00,0.02023345852159405,0
2025-04-21T15:44:55.651+03:00,1745239493.52687,40.95230025794708,29.14030550074007,76.50296,-1,-1,-1,-1,30,27.58914568789791,-9999,19081.886138,-0.5241241455078125,0.9188385009765625,-0.5369873046875,19081.876062,2.544521834642017,-1.082018470355188,-0.8820836563850952,0.01896570064127445,-0.8096665143966675,0.1708318144083023,0.05090278387069702,0.05123823881149292,-0.2370437383651733,XArbitraryZVertical,0.337495774846725,-0.4867111240046075,0.8055367343664709,0.01787069773966139,-0.5611262321472168,0.7720648050308228,-0.2984177768230438,0,0,0,-1,-1,19076.073705875,unknown,2,2025-04-21T15:44:49.834+03:00,2025-04-20T21:57:49.637+03:00,6727,0.976288,0,0,5522.566,5,6,2025-04-21T15:44:52.413+03:00,766932295.0833594,0,-42.04,100.2389,1,0.4,2025-04-21T15:39:34.104+03:00,89,1.483333333333333,2025-04-21T12:30:07.995+03:00,0.02023345852159405,0
2025-04-21T15:44:55.661+03:00,1745239493.52687,40.95230025794708,29.14030550074007,76.50296,-1,-1,-1,-1,30,27.58914568789791,-9999,19081.896214,-0.5290679931640625,0.920135498046875,-0.5040130615234375,19081.886138,2.54684527934779,-1.088555509668968,-0.8827841672226696,0.1547040939331055,-0.8427083492279053,0.08778006583452225,0.05506300926208496,0.1132321953773499,-0.2516044974327087,XArbitraryZVertical,0.3405387188870061,-0.4866078376346404,0.8043733533773954,0.01515089325766912,-0.5625856518745422,0.7725098133087158,-0.2944923937320709,0,0,0,-1,-1,19076.073705875,unknown,2,2025-04-21T15:44:49.834+03:00,2025-04-20T21:57:49.637+03:00,6727,0.976288,0,0,5522.566,5,6,2025-04-21T15:44:52.413+03:00,766932295.0833594,0,-42.04,100.2389,1,0.4,2025-04-21T15:39:34.104+03:00,89,1.483333333333333,2025-04-21T12:30:07.995+03:00,0.02023345852159405,0
2025-04-21T15:44:55.671+03:00,1745239493.52687,40.95230025794708,29.14030550074007,76.50296,-1,-1,-1,-1,30,27.58914568789791,-9999,19081.90629,-0.549285888671875,0.91094970703125,-0.435455322265625,19081.896214,2.549758649931122,-1.094849167881796,-0.8821659064283002,0.1997314840555191,-0.8413541316986084,-0.01910031214356422,0.04039257764816284,0.1496967077255249,-0.2422826290130615,XArbitraryZVertical,0.343912070220272,-0.4859445797060479,0.8033822516416897,0.01262157137354107,-0.5648524761199951,0.7721170783042908,-0.2911646962165833,0,0,0,-1,-1,19076.073705875,unknown,2,2025-04-21T15:44:49.834+03:00,2025-04-20T21:57:49.637+03:00,6727,0.976288,0,0,5522.566,5,6,2025-04-21T15:44:52.413+03:00,766932295.0833594,0,-42.04,100.2389,1,0.4,2025-04-21T15:39:34.104+03:00,89,1.483333333333333,2025-04-21T12:30:07.995+03:00,0.02023345852159405,0
2025-04-21T15:44:55.682+03:00,1745239493.52687,40.95230025794708,29.14030550074007,76.50296,-1,-1,-1,-1,30,27.58914568789791,-9999,19081.916366,-0.56451416015625,0.892547607421875,-0.35205078125,19081.90629,2.551660238810091,-1.101982568128076,-0.8799483087268719,0.2112642973661423,-0.8677202463150024,-0.2603451609611511,0.03717583417892456,0.1467133164405823,-0.2103596329689026,XArbitraryZVertical,0.3477224864194662,-0.4849109303209189,0.802393264568658,0.01074504293918025,-0.5684411525726318,0.7707059383392334,-0.2879009246826172,0,0,0,-1,-1,19076.073705875,unknown,2,2025-04-21T15:44:49.834+03:00,2025-04-20T21:57:49.637+03:00,6727,0.976288,0,0,5522.566,5,6,2025-04-21T15:44:52.413+03:00,766932295.0833594,0,-42.04,100.2389,1,0.4,2025-04-21T15:39:34.104+03:00,89,1.483333333333333,2025-04-21T12:30:07.995+03:00,0.02023345852159405,0
2025-04-21T15:44:55.692+03:00,1745239493.52687,40.95230025794708,29.14030550074007,76.50296,-1,-1,-1,-1,30,27.58914568789791,-9999,19081.926441,-0.5660552978515625,0.8662261962890625,-0.2896575927734375,19081.916366,2.551651774470566,-1.110740746140781,-0.876921879966815,0.04251303523778915,-0.8645415306091309,-0.2615727484226227,0.02255195379257202,0.142328143119812,-0.1403249502182007,XArbitraryZVertical,0.3518938003787472,-0.483939968448063,0.8011759839867083,0.009474673645856701,-0.5730280876159668,0.7687740325927734,-0.2839457094669342,0,0,0,-1,-1,19076.073705875,unknown,2,2025-04-21T15:44:49.834+03:00,2025-04-20T21:57:49.637+03:00,6727,0.976288,0,0,5522.566,5,6,2025-04-21T15:44:52.413+03:00,766932295.0833594,0,-42.04,100.2389,1,0.4,2025-04-21T15:39:34.104+03:00,89,1.483333333333333,2025-04-21T12:30:07.995+03:00,0.02023345852159405,0
