loggingTime(txt),locationTimestamp_since1970(s),locationLatitude(WGS84),locationLongitude(WGS84),locationAltitude(m),locationSpeed(m/s),locationSpeedAccuracy(m/s),locationCourse(°),locationCourseAccuracy(°),locationVerticalAccuracy(m),locationHorizontalAccuracy(m),locationFloor(Z),accelerometerTimestamp_sinceReboot(s),accelerometerAccelerationX(G),accelerometerAccelerationY(G),accelerometerAccelerationZ(G),motionTimestamp_sinceReboot(s),motionYaw(rad),motionRoll(rad),motionPitch(rad),motionRotationRateX(rad/s),motionRotationRateY(rad/s),motionRotationRateZ(rad/s),motionUserAccelerationX(G),motionUserAccelerationY(G),motionUserAccelerationZ(G),motionAttitudeReferenceFrame(txt),motionQuaternionX(R),motionQuaternionY(R),motionQuaternionZ(R),motionQuaternionW(R),motionGravityX(G),motionGravityY(G),motionGravityZ(G),motionMagneticFieldX(µT),motionMagneticFieldY(µT),motionMagneticFieldZ(µT),motionHeading(°),motionMagneticFieldCalibrationAccuracy(Z),activityTimestamp_sinceReboot(s),activity(txt),activityActivityConfidence(Z),activityActivityStartDate(txt),pedometerStartDate(txt),pedometerNumberofSteps(N),pedometerAverageActivePace(s/m),pedometerCurrentPace(s/m),pedometerCurrentCadence(steps/s),pedometerDistance(m),pedometerFloorAscended(N),pedometerFloorDescended(N),pedometerEndDate(txt),altimeterTimestamp_sinceReboot(s),altimeterReset(bool),altimeterRelativeAltitude(m),altimeterPressure(kPa),batteryState(N),batteryLevel(R),heartRateBPMTimestamp(txt),heartRateBPM(N),heartRateBPS(R),heartRateVariabilityTimestamp(txt),heartRateVariability(ms),label
2025-04-22T16:19:53.208+03:00,1745327988.44907,40.95227823160536,29.14031067983604,76.15584,-1,-1,-1,-1,30,24.04358133289925,-9999,37013.935227625,-0.768951416015625,0.59783935546875,-0.1697540283203125,37013.927688625,-2.952074900904994,-1.347461677501501,-0.6456000538446431,-0.01319954171776772,0.009166304022073746,-0.0105509115383029,-0.07302707433700562,0.008154869079589844,0.006893157958984375,XArbitraryZVertical,0.6124838627744013,-0.1908143369644211,0.7190843235173422,-0.2671536804481746,-0.7789015769958496,0.6016778349876404,-0.1769068092107773,0,0,0,-1,-1,37008.26910400001,unknown,2,2025-04-22T16:19:47.510+03:00,2025-04-21T17:08:51.449+03:00,8558,1.051444,0,0,7113.948,7,22,2025-04-22T16:18:58.504+03:00,767020792.7706833,0,-12.38,100.351,1,0.5,2025-04-22T16:19:47.554+03:00,104,1.733333333333333,2025-04-22T14:20:19.516+03:00,0.02197104130929222,0
2025-04-22T16:19:53.212+03:00,1745327988.44907,40.95227823160536,29.14031067983604,76.15584,-1,-1,-1,-1,30,24.04358133289925,-9999,37013.945302625,-0.7415008544921875,0.5840301513671875,-0.17364501953125,37013.937763625,-2.952444065299821,-1.347743858999364,-0.6456154456766025,-0.03713257238268852,-0.01407137513160706,-0.01338211819529533,-0.0316806435585022,0.01181995868682861,0.006091535091400146,XArbitraryZVertical,0.6125491119104749,-0.1908955351563157,0.7190448553433756,-0.2670522378001842,-0.7789424061775208,0.6016901135444641,-0.1766849607229233,0,0,0,-1,-1,37008.26910400001,unknown,2,2025-04-22T16:19:47.510+03:00,2025-04-21T17:08:51.449+03:00,8558,1.051444,0,0,7113.948,7,22,2025-04-22T16:18:58.504+03:00,767020792.7706833,0,-12.38,100.351,1,0.5,2025-04-22T16:19:47.554+03:00,104,1.733333333333333,2025-04-22T14:20:19.516+03:00,0.02197104130929222,0
2025-04-22T16:19:53.214+03:00,1745327988.44907,40.95227823160536,29.14031067983604,76.15584,-1,-1,-1,-1,30,24.04358133289925,-9999,37013.955378625,-0.7799224853515625,0.6042022705078125,-0.17388916015625,37013.947838625,-2.952852259618907,-1.348018933291004,-0.6456329667627014,-0.02418095245957375,0.004995926283299923,-0.007214969489723444,0.0424848198890686,-0.01890993118286133,0.004776284098625183,XArbitraryZVertical,0.6126079147613711,-0.1909904572672856,0.7190125117016425,-0.2669366955408017,-0.7789807915687561,0.6017041206359863,-0.1764683723449707,0,0,0,-1,-1,37008.26910400001,unknown,2,2025-04-22T16:19:47.510+03:00,2025-04-21T17:08:51.449+03:00,8558,1.051444,0,0,7113.948,7,22,2025-04-22T16:18:58.504+03:00,767020792.7706833,0,-12.38,100.351,1,0.5,2025-04-22T16:19:47.554+03:00,104,1.733333333333333,2025-04-22T14:20:19.516+03:00,0.02197104130929222,0
2025-04-22T16:19:53.215+03:00,1745327988.44907,40.95227823160536,29.14031067983604,76.15584,-1,-1,-1,-1,30,24.04358133289925,-9999,37013.965453625,-0.785980224609375,0.60687255859375,-0.1674346923828125,37013.957914625,-2.953093508314768,-1.348057301112723,-0.6455958375501727,-0.01325134001672268,0.01210363674908876,-0.008828578516840935,0.01196527481079102,-0.00472027063369751,0.001012936234474182,XArbitraryZVertical,0.6126010383592431,-0.1910452031379907,0.7190384727681348,-0.2668431350536962,-0.779009222984314,0.6016744375228882,-0.1764433979988098,0,0,0,-1,-1,37008.26910400001,unknown,2,2025-04-22T16:19:47.510+03:00,2025-04-21T17:08:51.449+03:00,8558,1.051444,0,0,7113.948,7,22,2025-04-22T16:18:58.504+03:00,767020792.7706833,0,-12.38,100.351,1,0.5,2025-04-22T16:19:47.554+03:00,104,1.733333333333333,2025-04-22T14:20:19.516+03:00,0.02197104130929222,0
2025-04-22T16:19:53.222+03:00,1745327988.44907,40.95227823160536,29.14031067983604,76.15584,-1,-1,-1,-1,30,24.04358133289925,-9999,37013.975528625,-0.7735595703125,0.597747802734375,-0.1684722900390625,37013.967989625,-2.953305630615076,-1.348108402779048,-0.6455436602288311,-0.01429683063179255,0.001199390273541212,-0.006588693708181381,-0.00876230001449585,0.007803201675415039,0.006335854530334473,XArbitraryZVertical,0.6126024704947515,-0.1910836291391733,0.7190590036545341,-0.2667569885710592,-0.7790488600730896,0.6016327738761902,-0.1764105260372162,0,0,0,-1,-1,37008.26910400001,unknown,2,2025-04-22T16:19:47.510+03:00,2025-04-21T17:08:51.449+03:00,8558,1.051444,0,0,7113.948,7,22,2025-04-22T16:18:58.504+03:00,767020792.7706833,0,-12.38,100.351,1,0.5,2025-04-22T16:19:47.554+03:00,104,1.733333333333333,2025-04-22T14:20:19.516+03:00,0.02197104130929222,0
2025-04-22T16:19:53.232+03:00,1745327988.44907,40.95227823160536,29.14031067983604,76.15584,-1,-1,-1,-1,30,24.04358133289925,-9999,37013.985604625,-0.770660400390625,0.59686279296875,-0.17022705078125,37013.978064625,-2.953504173444687,-1.348236996554712,-0.6455019698948296,-0.01516874879598618,0.001464641187340021,-0.00762146757915616,0.0006538033485412598,-0.000983119010925293,0.009003058075904846,XArbitraryZVertical,0.6126323903420756,-0.1911115303939078,0.7190523978034621,-0.2666860939578601,-0.7790960073471069,0.6015995144844055,-0.1763158738613129,0,0,0,-1,-1,37008.26910400001,unknown,2,2025-04-22T16:19:47.510+03:00,2025-04-21T17:08:51.449+03:00,8558,1.051444,0,0,7113.948,7,22,2025-04-22T16:18:58.504+03:00,767020792.7706833,0,-12.38,100.351,1,0.5,2025-04-22T16:19:47.554+03:00,104,1.733333333333333,2025-04-22T14:20:19.516+03:00,0.02197104130929222,0
2025-04-22T16:19:53.242+03:00,1745327988.44907,40.95227823160536,29.14031067983604,76.15584,-1,-1,-1,-1,30,24.04358133289925,-9999,37013.995679625,-0.7783355712890625,0.5989837646484375,-0.1707305908203125,37013.988140625,-2.953727228213817,-1.348333944963346,-0.6454704043691698,-0.0177494864910841,0.007677663117647171,-0.00846295990049839,0.009432613849639893,-0.004742085933685303,0.006353020668029785,XArbitraryZVertical,0.6126479417310305,-0.1911549940558357,0.7190572245120013,-0.2666062274913332,-0.7791316509246826,0.6015743017196655,-0.1762445420026779,0,0,0,-1,-1,37008.26910400001,unknown,2,2025-04-22T16:19:47.510+03:00,2025-04-21T17:08:51.449+03:00,8558,1.051444,0,0,7113.948,7,22,2025-04-22T16:18:58.504+03:00,767020792.7706833,0,-12.38,100.351,1,0.5,2025-04-22T16:19:47.554+03:00,104,1.733333333333333,2025-04-22T14:20:19.516+03:00,0.02197104130929222,0
2025-04-22T16:19:53.251+03:00,1745327988.44907,40.95227823160536,29.14031067983604,76.15584,-1,-1,-1,-1,30,24.04358133289925,-9999,37014.005755625,-0.7806854248046875,0.599090576171875,-0.172760009765625,37013.998215625,-2.953982898021726,-1.348389681731704,-0.6454270819585586,-0.02106192521750927,0.01182367280125618,-0.00602243933826685,0.003242254257202148,-0.002815365791320801,0.006284773349761963,XArbitraryZVertical,0.6126463087320664,-0.1912095065520627,0.7190807450877865,-0.2665073723902757,-0.7791668176651001,0.601539671421051,-0.1762068569660187,0,0,0,-1,-1,37008.26910400001,unknown,2,2025-04-22T16:19:47.510+03:00,2025-04-21T17:08:51.449+03:00,8558,1.051444,0,0,7113.948,7,22,2025-04-22T16:18:58.504+03:00,767020792.7706833,0,-12.38,100.351,1,0.5,2025-04-22T16:19:47.554+03:00,104,1.733333333333333,2025-04-22T14:20:19.516+03:00,0.02197104130929222,0
2025-04-22T16:19:53.261+03:00,1745327988.44907,40.95227823160536,29.14031067983604,76.15584,-1,-1,-1,-1,30,24.04358133289925,-9999,37014.015830625,-0.7789459228515625,0.600738525390625,-0.1743316650390625,37014.008291625,-2.954297812522443,-1.348471837882974,-0.6453910697803583,-0.02445106394588947,0.01327402982860804,-0.006685566157102585,-0.000948786735534668,-0.002313613891601562,0.004562318325042725,XArbitraryZVertical,0.6126480310472111,-0.1912814049291009,0.7191030290141606,-0.2663917979047177,-0.7792025208473206,0.6015108823776245,-0.1761476248502731,0,0,0,-1,-1,37008.26910400001,unknown,2,2025-04-22T16:19:47.510+03:00,2025-04-21T17:08:51.449+03:00,8558,1.051444,0,0,7113.948,7,22,2025-04-22T16:18:58.504+03:00,767020792.7706833,0,-12.38,100.351,1,0.5,2025-04-22T16:19:47.554+03:00,104,1.733333333333333,2025-04-22T14:20:19.516+03:00,0.02197104130929222,0
2025-04-22T16:19:53.273+03:00,1745327988.44907,40.95227823160536,29.14031067983604,76.15584,-1,-1,-1,-1,30,24.04358133289925,-9999,37014.025905625,-0.7788238525390625,0.6021881103515625,-0.1767425537109375,37014.018366625,-2.954602447930645,-1.348539736914792,-0.6453886297143451,-0.02227126620709896,0.01219704747200012,-0.004545183852314949,-0.0003402829170227051,-0.001289308071136475,0.00278550386428833,XArbitraryZVertical,0.6126434591354842,-0.1913647577485998,0.7191231614636727,-0.2662880693369196,-0.7792158722877502,0.6015089750289917,-0.17609503865242,0,0,0,-1,-1,37008.26910400001,unknown,2,2025-04-22T16:19:47.510+03:00,2025-04-21T17:08:51.449+03:00,8558,1.051444,0,0,7113.948,7,22,2025-04-22T16:18:58.504+03:00,767020792.7706833,0,-12.38,100.351,1,0.5,2025-04-22T16:19:47.554+03:00,104,1.733333333333333,2025-04-22T14:20:19.516+03:00,0.02197104130929222,0
2025-04-22T16:19:53.281+03:00,1745327988.44907,40.95227823160536,29.14031067983604,76.15584,-1,-1,-1,-1,30,24.04358133289925,-9999,37014.03598162501,-0.7819671630859375,0.6042327880859375,-0.17486572265625,37014.028441625,-2.954841545763401,-1.348550940594072,-0.6454096277457242,-0.01295466441661119,0.01263653486967087,-0.003598796203732491,0.000366508960723877,0.0002960562705993652,0.0004699379205703735,XArbitraryZVertical,0.6126232702070188,-0.191444457758852,0.7191482748743054,-0.2662091323504125,-0.7792053818702698,0.6015257239341736,-0.1760834902524948,0,0,0,-1,-1,37008.26910400001,unknown,2,2025-04-22T16:19:47.510+03:00,2025-04-21T17:08:51.449+03:00,8558,1.051444,0,0,7113.948,7,22,2025-04-22T16:18:58.504+03:00,767020792.7706833,0,-12.38,100.351,1,0.5,2025-04-22T16:19:47.554+03:00,104,1.733333333333333,2025-04-22T14:20:19.516+03:00,0.02197104130929222,0
2025-04-22T16:19:53.292+03:00,1745327988.44907,40.95227823160536,29.14031067983604,76.15584,-1,-1,-1,-1,30,24.04358133289925,-9999,37014.046056625,-0.7854156494140625,0.6059112548828125,-0.1681060791015625,37014.03851762501,-2.955009871074211,-1.348472325913282,-0.6453988973409258,-0.01201856322586536,0.02116397581994534,-0.003343132790178061,-0.0009685158729553223,0.001235425472259521,-0.0008864402770996094,XArbitraryZVertical,0.61257956584577,-0.1915024096313531,0.7191964792125176,-0.2661380252386761,-0.7791979908943176,0.6015171408653259,-0.1761462092399597,0,0,0,-1,-1,37008.26910400001,unknown,2,2025-04-22T16:19:47.510+03:00,2025-04-21T17:08:51.449+03:00,8558,1.051444,0,0,7113.948,7,22,2025-04-22T16:18:58.504+03:00,767020792.7706833,0,-12.38,100.351,1,0.5,2025-04-22T16:19:47.554+03:00,104,1.733333333333333,2025-04-22T14:20:19.516+03:00,0.02197104130929222,0
2025-04-22T16:19:53.301+03:00,1745327988.44907,40.95227823160536,29.14031067983604,76.15584,-1,-1,-1,-1,30,24.04358133289925,-9999,37014.056131625,-0.78680419921875,0.5975189208984375,-0.1680755615234375,37014.048592625,-2.955186153431125,-1.348341106419438,-0.6454011636915581,-0.0134640596807003,0.0266158003360033,-0.003234309609979391,-0.005265474319458008,0.004529476165771484,0.006707504391670227,XArbitraryZVertical,0.6125153540570913,-0.1915747224391391,0.7192597255333054,-0.266062714364201,-0.7791734933853149,0.601518988609314,-0.1762481331825256,0,0,0,-1,-1,37008.26910400001,unknown,2,2025-04-22T16:19:47.510+03:00,2025-04-21T17:08:51.449+03:00,8558,1.051444,0,0,7113.948,7,22,2025-04-22T16:18:58.504+03:00,767020792.7706833,0,-12.38,100.351,1,0.5,2025-04-22T16:19:47.554+03:00,104,1.733333333333333,2025-04-22T14:20:19.516+03:00,0.02197104130929222,0
2025-04-22T16:19:53.311+03:00,1745327988.44907,40.95227823160536,29.14031067983604,76.15584,-1,-1,-1,-1,30,24.04358133289925,-9999,37014.066207625,-0.78399658203125,0.5917205810546875,-0.1686859130859375,37014.058667625,-2.95540540166668,-1.348198624361167,-0.6454171576058656,-0.01776826195418835,0.03015407733619213,0.0003676159540191293,-0.007054686546325684,0.0005342364311218262,0.008678078651428223,XArbitraryZVertical,0.6124420719274057,-0.1916668513482361,0.7193302056188725,-0.2659747268284515,-0.7791391015052795,0.6015317440032959,-0.1763570606708527,0,0,0,-1,-1,37008.26910400001,unknown,2,2025-04-22T16:19:47.510+03:00,2025-04-21T17:08:51.449+03:00,8558,1.051444,0,0,7113.948,7,22,2025-04-22T16:18:58.504+03:00,767020792.7706833,0,-12.38,100.351,1,0.5,2025-04-22T16:19:47.554+03:00,104,1.733333333333333,2025-04-22T14:20:19.516+03:00,0.02197104130929222,0
2025-04-22T16:19:53.322+03:00,1745327988.44907,40.95227823160536,29.14031067983604,76.15584,-1,-1,-1,-1,30,24.04358133289925,-9999,37014.076282625,-0.7828216552734375,0.5939788818359375,-0.169921875,37014.068743625,-2.95568465420201,-1.348066291621577,-0.6454627709634192,-0.02398667484521866,0.02786648832261562,-0.0003439474676270038,-0.005380630493164062,-0.008382797241210938,0.008317336440086365,XArbitraryZVertical,0.612364775149975,-0.1917871939504465,0.7194010202048715,-0.2658745093839961,-0.7790890336036682,0.6015681624412537,-0.1764541119337082,0,0,0,-1,-1,37008.26910400001,unknown,2,2025-04-22T16:19:47.510+03:00,2025-04-21T17:08:51.449+03:00,8558,1.051444,0,0,7113.948,7,22,2025-04-22T16:18:58.504+03:00,767020792.7706833,0,-12.38,100.351,1,0.5,2025-04-22T16:19:47.554+03:00,104,1.733333333333333,2025-04-22T14:20:19.516+03:00,0.02197104130929222,0
2025-04-22T16:19:53.332+03:00,1745327988.44907,40.95227823160536,29.14031067983604,76.15584,-1,-1,-1,-1,30,24.04358133289925,-9999,37014.08635862501,-0.7811431884765625,0.596221923828125,-0.171142578125,37014.078818625,-2.956010882884581,-1.348003857734784,-0.6455170670274896,-0.023047911003232,0.02759964019060135,-0.0003511380054987967,-0.003882229328155518,-0.008273601531982422,0.00722956657409668,XArbitraryZVertical,0.6123075392588396,-0.1919159031949808,0.7194552848636956,-0.265766550136723,-0.7790461182594299,0.6016115546226501,-0.1764955222606659,0,0,0,-1,-1,37008.26910400001,unknown,2,2025-04-22T16:19:47.510+03:00,2025-04-21T17:08:51.449+03:00,8558,1.051444,0,0,7113.948,7,22,2025-04-22T16:18:58.504+03:00,767020792.7706833,0,-12.38,100.351,1,0.5,2025-04-22T16:19:47.554+03:00,104,1.733333333333333,2025-04-22T14:20:19.516+03:00,0.02197104130929222,0
2025-04-22T16:19:53.342+03:00,1745327988.44907,40.95227823160536,29.14031067983604,76.15584,-1,-1,-1,-1,30,24.04358133289925,-9999,37014.096433625,-0.7796630859375,0.6018524169921875,-0.178070068359375,37014.08889462501,-2.956406343705559,-1.348005404695078,-0.6455624539834702,-0.03309255465865135,0.02220913581550121,-0.002596981823444366,-0.002962648868560791,-0.006127893924713135,0.006428852677345276,XArbitraryZVertical,0.6122672319466897,-0.1920539468116938,0.7195003188236238,-0.265637315982612,-0.7790195345878601,0.6016477942466736,-0.1764882355928421,0,0,0,-1,-1,37008.26910400001,unknown,2,2025-04-22T16:19:47.510+03:00,2025-04-21T17:08:51.449+03:00,8558,1.051444,0,0,7113.948,7,22,2025-04-22T16:18:58.504+03:00,767020792.7706833,0,-12.38,100.351,1,0.5,2025-04-22T16:19:47.554+03:00,104,1.733333333333333,2025-04-22T14:20:19.516+03:00,0.02197104130929222,0
2025-04-22T16:19:53.352+03:00,1745327988.44907,40.95227823160536,29.14031067983604,76.15584,-1,-1,-1,-1,30,24.04358133289925,-9999,37014.106508625,-0.7798614501953125,0.600311279296875,-0.1777191162109375,37014.098969625,-2.956869814906686,-1.348057265199627,-0.645645444628427,-0.03873686119914055,0.02446616441011429,0.004456134047359228,-0.0008049607276916504,-0.001372456550598145,0.001570954918861389,XArbitraryZVertical,0.6122360189671564,-0.1922203087242038,0.7195335282017778,-0.2654990591641724,-0.7789800763130188,0.6017140746116638,-0.1764368265867233,0,0,0,-1,-1,37008.26910400001,unknown,2,2025-04-22T16:19:47.510+03:00,2025-04-21T17:08:51.449+03:00,8558,1.051444,0,0,7113.948,7,22,2025-04-22T16:18:58.504+03:00,767020792.7706833,0,-12.38,100.351,1,0.5,2025-04-22T16:19:47.554+03:00,104,1.733333333333333,2025-04-22T14:20:19.516+03:00,0.02197104130929222,0
2025-04-22T16:19:53.362+03:00,1745327988.44907,40.95227823160536,29.14031067983604,76.15584,-1,-1,-1,-1,30,24.04358133289925,-9999,37014.116584625,-0.7763519287109375,0.6024169921875,-0.1696624755859375,37014.109044625,-2.957369936202225,-1.348128764802057,-0.6457666184091974,-0.04133190959692001,0.02251133695244789,0.003121857065707445,-0.0008329153060913086,-0.0003399848937988281,-0.00230032205581665,XArbitraryZVertical,0.6122058351387156,-0.1924097095945731,0.7195598215252933,-0.2653603209433973,-0.7789216637611389,0.6018108725547791,-0.1763650327920914,0,0,0,-1,-1,37008.26910400001,unknown,2,2025-04-22T16:19:47.510+03:00,2025-04-21T17:08:51.449+03:00,8558,1.051444,0,0,7113.948,7,22,2025-04-22T16:18:58.504+03:00,767020792.7706833,0,-12.38,100.351,1,0.5,2025-04-22T16:19:47.554+03:00,104,1.733333333333333,2025-04-22T14:20:19.516+03:00,0.02197104130929222,0
2025-04-22T16:19:53.372+03:00,1745327988.44907,40.95227823160536,29.14031067983604,76.15584,-1,-1,-1,-1,30,24.04358133289925,-9999,37014.126659625,-0.7762451171875,0.6051483154296875,-0.164459228515625,37014.119120625,-2.957864534833628,-1.348179179345629,-0.6458856781660515,-0.03924985229969025,0.02695535309612751,0.006678774952888489,0.001623749732971191,-0.0006792545318603516,0.003137767314910889,XArbitraryZVertical,0.6121686820532507,-0.1925994250586567,0.7195920057301118,-0.2652209629458976,-0.7788605690002441,0.6019059419631958,-0.1763099282979965,0,0,0,-1,-1,37008.26910400001,unknown,2,2025-04-22T16:19:47.510+03:00,2025-04-21T17:08:51.449+03:00,8558,1.051444,0,0,7113.948,7,22,2025-04-22T16:18:58.504+03:00,767020792.7706833,0,-12.38,100.351,1,0.5,2025-04-22T16:19:47.554+03:00,104,1.733333333333333,2025-04-22T14:20:19.516+03:00,0.02197104130929222,0
2025-04-22T16:19:53.383+03:00,1745327988.44907,40.95227823160536,29.14031067983604,76.15584,-1,-1,-1,-1,30,24.04358133289925,-9999,37014.136734625,-0.7771453857421875,0.605255126953125,-0.16607666015625,37014.129195625,-2.958286063380084,-1.348169797159174,-0.646037911015672,-0.03140164911746979,0.02915792167186737,0.007896971888840199,0.00295180082321167,0.001869559288024902,0.01131878793239594,XArbitraryZVertical,0.612114833953983,-0.1927872079078408,0.7196279791329119,-0.2651115063143518,-0.7787697315216064,0.6020275354385376,-0.1762970387935638,0,0,0,-1,-1,37008.26910400001,unknown,2,2025-04-22T16:19:47.510+03:00,2025-04-21T17:08:51.449+03:00,8558,1.051444,0,0,7113.948,7,22,2025-04-22T16:18:58.504+03:00,767020792.7706833,0,-12.38,100.351,1,0.5,2025-04-22T16:19:47.554+03:00,104,1.733333333333333,2025-04-22T14:20:19.516+03:00,0.02197104130929222,0
2025-04-22T16:19:53.392+03:00,1745327988.44907,40.95227823160536,29.14031067983604,76.15584,-1,-1,-1,-1,30,24.04358133289925,-9999,37014.146810625,-0.77703857421875,0.605194091796875,-0.165863037109375,37014.139270625,-2.958667782630691,-1.348145028949204,-0.6461354276221353,-0.02331203036010265,0.02831263467669487,0.00375202763825655,0.001822113990783691,0.002753019332885742,0.01170657575130463,XArbitraryZVertical,0.6120627913018847,-0.1929441658352316,0.719671493431614,-0.2649993949926031,-0.7787081003189087,0.6021053791046143,-0.1763033717870712,0,0,0,-1,-1,37008.26910400001,unknown,2,2025-04-22T16:19:47.510+03:00,2025-04-21T17:08:51.449+03:00,8558,1.051444,0,0,7113.948,7,22,2025-04-22T16:18:58.504+03:00,767020792.7706833,0,-12.38,100.351,1,0.5,2025-04-22T16:19:47.554+03:00,104,1.733333333333333,2025-04-22T14:20:19.516+03:00,0.02197104130929222,0
2025-04-22T16:19:53.402+03:00,1745327988.44907,40.95227823160536,29.14031067983604,76.15584,-1,-1,-1,-1,30,24.04358133289925,-9999,37014.156885625,-0.7811737060546875,0.6050262451171875,-0.16680908203125,37014.149346625,-2.958923962820431,-1.348004626851583,-0.6461708145380897,-0.01503565814346075,0.03483052179217339,0.002242847345769405,0.003027796745300293,0.003319740295410156,0.01051425933837891,XArbitraryZVertical,0.6119852566187033,-0.1930545429904899,0.7197429936019056,-0.2649036973962629,-0.7786625027656555,0.6021336317062378,-0.176407977938652,0,0,0,-1,-1,37008.26910400001,unknown,2,2025-04-22T16:19:47.510+03:00,2025-04-21T17:08:51.449+03:00,8558,1.051444,0,0,7113.948,7,22,2025-04-22T16:18:58.504+03:00,767020792.7706833,0,-12.38,100.351,1,0.5,2025-04-22T16:19:47.554+03:00,104,1.733333333333333,2025-04-22T14:20:19.516+03:00,0.02197104130929222,0
2025-04-22T16:19:53.412+03:00,1745327988.44907,40.95227823160536,29.14031067983604,76.15584,-1,-1,-1,-1,30,24.04358133289925,-9999,37014.166961625,-0.78271484375,0.6091461181640625,-0.1748199462890625,37014.159421625,-2.959104650261192,-1.347794044944783,-0.6461549045600956,-0.009564726613461971,0.03547420725226402,-0.003188669681549072,-0.001257240772247314,0.002752602100372314,0.01113803684711456,XArbitraryZVertical,0.6118930644188668,-0.1931317132241131,0.719833650970103,-0.2648138438572376,-0.7786345481872559,0.6021209359169006,-0.1765740364789963,0,0,0,-1,-1,37008.26910400001,unknown,2,2025-04-22T16:19:47.510+03:00,2025-04-21T17:08:51.449+03:00,8558,1.051444,0,0,7113.948,7,22,2025-04-22T16:18:58.504+03:00,767020792.7706833,0,-12.38,100.351,1,0.5,2025-04-22T16:19:47.554+03:00,104,1.733333333333333,2025-04-22T14:20:19.516+03:00,0.02197104130929222,0
2025-04-22T16:19:53.422+03:00,1745327988.44907,40.95227823160536,29.14031067983604,76.15584,-1,-1,-1,-1,30,24.04358133289925,-9999,37014.17703662501,-0.7784271240234375,0.604949951171875,-0.17578125,37014.169497625,-2.95924112710578,-1.347579805605164,-0.6461044058693997,-0.009413059800863266,0.02728698402643204,-0.00532898586243391,-0.004332482814788818,0.005829453468322754,0.0052386075258255,XArbitraryZVertical,0.6118060474990467,-0.1931827395435458,0.7199248577102256,-0.2647297218875033,-0.7786263227462769,0.6020805835723877,-0.1767475754022598,0,0,0,-1,-1,37008.26910400001,unknown,2,2025-04-22T16:19:47.510+03:00,2025-04-21T17:08:51.449+03:00,8558,1.051444,0,0,7113.948,7,22,2025-04-22T16:18:58.504+03:00,767020792.7706833,0,-12.38,100.351,1,0.5,2025-04-22T16:19:47.554+03:00,104,1.733333333333333,2025-04-22T14:20:19.516+03:00,0.02197104130929222,0
2025-04-22T16:19:53.432+03:00,1745327988.44907,40.95227823160536,29.14031067983604,76.15584,-1,-1,-1,-1,30,24.04358133289925,-9999,37014.187111625,-0.7738800048828125,0.59710693359375,-0.17706298828125,37014.17957262501,-2.959437286770331,-1.347443052977421,-0.6460744126125787,-0.02098183147609234,0.02438307367265224,-0.00387383415363729,-0.001912891864776611,0.005777060985565186,8.477270603179932e-05,XArbitraryZVertical,0.6117398155442402,-0.1932495029453768,0.7199971581709943,-0.2646373998490192,-0.7786197662353516,0.6020566821098328,-0.176858052611351,0,0,0,-1,-1,37008.26910400001,unknown,2,2025-04-22T16:19:47.510+03:00,2025-04-21T17:08:51.449+03:00,8558,1.051444,0,0,7113.948,7,22,2025-04-22T16:18:58.504+03:00,767020792.7706833,0,-12.38,100.351,1,0.5,2025-04-22T16:19:47.554+03:00,104,1.733333333333333,2025-04-22T14:20:19.516+03:00,0.02197104130929222,0
2025-04-22T16:19:53.442+03:00,1745327988.44907,40.95227823160536,29.14031067983604,76.15584,-1,-1,-1,-1,30,24.04358133289925,-9999,37014.197187625,-0.7763671875,0.59661865234375,-0.1743927001953125,37014.189647625,-2.959793402997976,-1.34741401462504,-0.6461030304781645,-0.03591284528374672,0.02555433101952076,-0.0009197228937409818,0.00409233570098877,-0.002561807632446289,0.001095414161682129,XArbitraryZVertical,0.6116930800396888,-0.1933730801839296,0.7200488708482187,-0.264514491403671,-0.7785978317260742,0.6020795106887817,-0.1768768578767776,0,0,0,-1,-1,37008.26910400001,unknown,2,2025-04-22T16:19:47.510+03:00,2025-04-21T17:08:51.449+03:00,8558,1.051444,0,0,7113.948,7,22,2025-04-22T16:18:58.504+03:00,767020792.7706833,0,-12.38,100.351,1,0.5,2025-04-22T16:19:47.554+03:00,104,1.733333333333333,2025-04-22T14:20:19.516+03:00,0.02197104130929222,0
2025-04-22T16:19:53.452+03:00,1745327988.44907,40.95227823160536,29.14031067983604,76.15584,-1,-1,-1,-1,30,24.04358133289925,-9999,37014.207262625,-0.780609130859375,0.5957489013671875,-0.1646270751953125,37014.199723625,-2.960279826779831,-1.347429358267612,-0.6461917250348248,-0.03771287575364113,0.03134111315011978,0.0006760432152077556,0.003447949886322021,-0.006233632564544678,0.000491797924041748,XArbitraryZVertical,0.6116457767087159,-0.1935533327019687,0.7200952407156993,-0.2643659643218587,-0.7785485982894897,0.6021503210067749,-0.1768531054258347,0,0,0,-1,-1,37008.26910400001,unknown,2,2025-04-22T16:19:47.510+03:00,2025-04-21T17:08:51.449+03:00,8558,1.051444,0,0,7113.948,7,22,2025-04-22T16:18:58.504+03:00,767020792.7706833,0,-12.38,100.351,1,0.5,2025-04-22T16:19:47.554+03:00,104,1.733333333333333,2025-04-22T14:20:19.516+03:00,0.02197104130929222,0
2025-04-22T16:19:53.463+03:00,1745327988.44907,40.95227823160536,29.14031067983604,76.15584,-1,-1,-1,-1,30,24.04358133289925,-9999,37014.217337625,-0.7865753173828125,0.5927276611328125,-0.1613922119140625,37014.209798625,-2.960808328930417,-1.347447125573543,-0.6463330200896821,-0.04021032154560089,0.03682835772633553,0.003930592443794012,-6.514787673950195e-05,-0.006056606769561768,0.008744612336158752,XArbitraryZVertical,0.6115918024124497,-0.1937660245013209,0.7201382907480819,-0.2642174498091791,-0.7784686088562012,0.6022630929946899,-0.1768203973770142,0,0,0,-1,-1,37008.26910400001,unknown,2,2025-04-22T16:19:47.510+03:00,2025-04-21T17:08:51.449+03:00,8558,1.051444,0,0,7113.948,7,22,2025-04-22T16:18:58.504+03:00,767020792.7706833,0,-12.38,100.351,1,0.5,2025-04-22T16:19:47.554+03:00,104,1.733333333333333,2025-04-22T14:20:19.516+03:00,0.02197104130929222,0
2025-04-22T16:19:53.473+03:00,1745327988.44907,40.95227823160536,29.14031067983604,76.15584,-1,-1,-1,-1,30,24.04358133289925,-9999,37014.22741362501,-0.7898712158203125,0.5937347412109375,-0.1645660400390625,37014.219873625,-2.961314914517877,-1.347361941819476,-0.6465181073228371,-0.03969952836632729,0.04994469508528709,0.008822819218039513,-0.006277143955230713,-0.008401572704315186,0.01554591953754425,XArbitraryZVertical,0.6114999361328591,-0.1940021253383615,0.7202034587904479,-0.2640792271866994,-0.7783448696136475,0.6024108529090881,-0.1768620014190674,0,0,0,-1,-1,37008.26910400001,unknown,2,2025-04-22T16:19:47.510+03:00,2025-04-21T17:08:51.449+03:00,8558,1.051444,0,0,7113.948,7,22,2025-04-22T16:18:58.504+03:00,767020792.7706833,0,-12.38,100.351,1,0.5,2025-04-22T16:19:47.554+03:00,104,1.733333333333333,2025-04-22T14:20:19.516+03:00,0.02197104130929222,0
2025-04-22T16:19:53.483+03:00,1745327988.44907,40.95227823160536,29.14031067983604,76.15584,-1,-1,-1,-1,30,24.04358133289925,-9999,37014.237488625,-0.7841033935546875,0.5946502685546875,-0.1710052490234375,37014.22994962501,-2.961820696124965,-1.347188181915417,-0.6467125465704078,-0.03961403667926788,0.04942111298441887,0.007620269432663918,-0.01141166687011719,-0.009930014610290527,0.01408350467681885,XArbitraryZVertical,0.6113755472916501,-0.194253165924879,0.7202942173135475,-0.2639353086798101,-0.7782000303268433,0.6025660634040833,-0.1769713014364243,0,0,0,-1,-1,37008.26910400001,unknown,2,2025-04-22T16:19:47.510+03:00,2025-04-21T17:08:51.449+03:00,8558,1.051444,0,0,7113.948,7,22,2025-04-22T16:18:58.504+03:00,767020792.7706833,0,-12.38,100.351,1,0.5,2025-04-22T16:19:47.554+03:00,104,1.733333333333333,2025-04-22T14:20:19.516+03:00,0.02197104130929222,0
2025-04-22T16:19:53.493+03:00,1745327988.44907,40.95227823160536,29.14031067983604,76.15584,-1,-1,-1,-1,30,24.04358133289925,-9999,37014.247563625,-0.772369384765625,0.5962371826171875,-0.172149658203125,37014.240024625,-2.962368361811912,-1.34710344825053,-0.6468870854592433,-0.04397975653409958,0.04341994598507881,0.007940380834043026,-0.009133636951446533,-0.007414281368255615,0.008465111255645752,XArbitraryZVertical,0.6112803666536304,-0.1944977062426199,0.7203661895475635,-0.2637792830077597,-0.7780824899673462,0.6027053594589233,-0.1770139038562775,0,0,0,-1,-1,37008.26910400001,unknown,2,2025-04-22T16:19:47.510+03:00,2025-04-21T17:08:51.449+03:00,8558,1.051444,0,0,7113.948,7,22,2025-04-22T16:18:58.504+03:00,767020792.7706833,0,-12.38,100.351,1,0.5,2025-04-22T16:19:47.554+03:00,104,1.733333333333333,2025-04-22T14:20:19.516+03:00,0.02197104130929222,0
2025-04-22T16:19:53.503+03:00,1745327988.44907,40.95227823160536,29.14031067983604,76.15584,-1,-1,-1,-1,30,24.04358133289925,-9999,37014.257639625,-0.7704620361328125,0.6018218994140625,-0.170318603515625,37014.250099625,-2.962874894234687,-1.347005855730865,-0.6470546170687216,-0.03867127746343613,0.0414380207657814,0.004618087783455849,0.001965880393981934,-0.008158266544342041,0.004475057125091553,XArbitraryZVertical,0.611184928864337,-0.1947286898921584,0.7204376676757165,-0.2636348107135317,-0.7779667377471924,0.6028389930725098,-0.177067443728447,0,0,0,-1,-1,37008.26910400001,unknown,2,2025-04-22T16:19:47.510+03:00,2025-04-21T17:08:51.449+03:00,8558,1.051444,0,0,7113.948,7,22,2025-04-22T16:18:58.504+03:00,767020792.7706833,0,-12.38,100.351,1,0.5,2025-04-22T16:19:47.554+03:00,104,1.733333333333333,2025-04-22T14:20:19.516+03:00,0.02197104130929222,0
2025-04-22T16:19:53.513+03:00,1745327988.44907,40.95227823160536,29.14031067983604,76.15584,-1,-1,-1,-1,30,24.04358133289925,-9999,37014.267714625,-0.7707977294921875,0.6033477783203125,-0.1710205078125,37014.260175625,-2.963298447414663,-1.346879459832438,-0.6472017439918957,-0.03501449152827263,0.03512207046151161,0.009571567177772522,0.007884085178375244,-0.002492547035217285,0.006659433245658875,XArbitraryZVertical,0.6110884679572836,-0.1949303763819855,0.72050999060541,-0.263511621125236,-0.7778578400611877,0.6029564142227173,-0.1771460622549057,0,0,0,-1,-1,37008.26910400001,unknown,2,2025-04-22T16:19:47.510+03:00,2025-04-21T17:08:51.449+03:00,8558,1.051444,0,0,7113.948,7,22,2025-04-22T16:18:58.504+03:00,767020792.7706833,0,-12.38,100.351,1,0.5,2025-04-22T16:19:47.554+03:00,104,1.733333333333333,2025-04-22T14:20:19.516+03:00,0.02197104130929222,0
2025-04-22T16:19:53.523+03:00,1745327988.44907,40.95227823160536,29.14031067983604,76.15584,-1,-1,-1,-1,30,24.04358133289925,-9999,37014.277790625,-0.7738494873046875,0.607421875,-0.168975830078125,37014.270250625,-2.963675038125034,-1.34670722205071,-0.6473957720128377,-0.03310806676745415,0.04566805437207222,0.01363748125731945,0.007068157196044922,-0.0004195570945739746,0.006431683897972107,XArbitraryZVertical,0.6109769179105418,-0.1951414424461397,0.7205831251289028,-0.263414133879992,-0.7777132987976074,0.6031111478805542,-0.1772540509700775,0,0,0,-1,-1,37008.26910400001,unknown,2,2025-04-22T16:19:47.510+03:00,2025-04-21T17:08:51.449+03:00,8558,1.051444,0,0,7113.948,7,22,2025-04-22T16:18:58.504+03:00,767020792.7706833,0,-12.38,100.351,1,0.5,2025-04-22T16:19:47.554+03:00,104,1.733333333333333,2025-04-22T14:20:19.516+03:00,0.02197104130929222,0
2025-04-22T16:19:53.533+03:00,1745327988.44907,40.95227823160536,29.14031067983604,76.15584,-1,-1,-1,-1,30,24.04358133289925,-9999,37014.287865625,-0.77496337890625,0.613494873046875,-0.173095703125,37014.280326625,-2.963972567211478,-1.346405846706921,-0.6475593465650807,-0.02421257831156254,0.04834746196866035,0.009979629889130592,0.004904270172119141,0.002013444900512695,0.008002147078514099,XArbitraryZVertical,0.6108285042330638,-0.1953338289220848,0.7206898068231637,-0.2633238621245306,-0.7775636315345764,0.6032416224479675,-0.1774664670228958,0,0,0,-1,-1,37008.26910400001,unknown,2,2025-04-22T16:19:47.510+03:00,2025-04-21T17:08:51.449+03:00,8558,1.051444,0,0,7113.948,7,22,2025-04-22T16:18:58.504+03:00,767020792.7706833,0,-12.38,100.351,1,0.5,2025-04-22T16:19:47.554+03:00,104,1.733333333333333,2025-04-22T14:20:19.516+03:00,0.02197104130929222,0
2025-04-22T16:19:53.543+03:00,1745327988.44907,40.95227823160536,29.14031067983604,76.15584,-1,-1,-1,-1,30,24.04358133289925,-9999,37014.297940625,-0.7688140869140625,0.6118927001953125,-0.1763763427734375,37014.290401625,-2.964347405303914,-1.346180352464986,-0.6477192849465511,-0.0393935926258564,0.04695922136306763,0.009765811264514923,0.001825392246246338,0.008782863616943359,0.006126582622528076,XArbitraryZVertical,0.6107000637176753,-0.1955384263482925,0.7207840228807876,-0.2632120618434494,-0.7774295806884766,0.6033691763877869,-0.1776203066110611,0,0,0,-1,-1,37008.26910400001,unknown,2,2025-04-22T16:19:47.510+03:00,2025-04-21T17:08:51.449+03:00,8558,1.051444,0,0,7113.948,7,22,2025-04-22T16:18:58.504+03:00,767020792.7706833,0,-12.38,100.351,1,0.5,2025-04-22T16:19:47.554+03:00,104,1.733333333333333,2025-04-22T14:20:19.516+03:00,0.02197104130929222,0
2025-04-22T16:19:53.553+03:00,1745327988.44907,40.95227823160536,29.14031067983604,76.15584,-1,-1,-1,-1,30,24.04358133289925,-9999,37014.308016625,-0.7657928466796875,0.6035614013671875,-0.17462158203125,37014.300476625,-2.964894565110754,-1.346185401450508,-0.6478578344985138,-0.04459261521697044,0.03167880326509476,0.007437143474817276,0.005879878997802734,0.009969353675842285,0.002090990543365479,XArbitraryZVertical,0.6106392054420556,-0.1957571925993292,0.7208336756108331,-0.2630546147619773,-0.7773489356040955,0.6034796833992004,-0.1775977611541748,0,0,0,-1,-1,37008.26910400001,unknown,2,2025-04-22T16:19:47.510+03:00,2025-04-21T17:08:51.449+03:00,8558,1.051444,0,0,7113.948,7,22,2025-04-22T16:18:58.504+03:00,767020792.7706833,0,-12.38,100.351,1,0.5,2025-04-22T16:19:47.554+03:00,104,1.733333333333333,2025-04-22T14:20:19.516+03:00,0.02197104130929222,0
2025-04-22T16:19:53.563+03:00,1745327988.44907,40.95227823160536,29.14031067983604,76.15584,-1,-1,-1,-1,30,24.04358133289925,-9999,37014.31809162501,-0.771759033203125,0.6041107177734375,-0.1730804443359375,37014.310552625,-2.965498306586859,-1.346334212141682,-0.6479360121400051,-0.04665037617087364,0.02330509200692177,0.0002977745607495308,0.01121604442596436,0.002949059009552002,0.001339122653007507,XArbitraryZVertical,0.6106285431204641,-0.1959515035018319,0.7208558897754892,-0.2628737416093839,-0.7773293256759644,0.6035420298576355,-0.1774715781211853,0,0,0,-1,-1,37008.26910400001,unknown,2,2025-04-22T16:19:47.510+03:00,2025-04-21T17:08:51.449+03:00,8558,1.051444,0,0,7113.948,7,22,2025-04-22T16:18:58.504+03:00,767020792.7706833,0,-12.38,100.351,1,0.5,2025-04-22T16:19:47.554+03:00,104,1.733333333333333,2025-04-22T14:20:19.516+03:00,0.02197104130929222,0
2025-04-22T16:19:53.579+03:00,1745327988.44907,40.95227823160536,29.14031067983604,76.15584,-1,-1,-1,-1,30,24.04358133289925,-9999,37014.328166625,-0.774261474609375,0.6069488525390625,-0.1675567626953125,37014.32062762501,-2.966084906417129,-1.346506540503482,-0.6479585370908424,-0.0398302897810936,0.01813403144478798,-0.00376860611140728,0.008273124694824219,-0.001753449440002441,0.003338396549224854,XArbitraryZVertical,0.6106316744032352,-0.1961164838438939,0.7208768542676598,-0.2626856055789111,-0.7773465514183044,0.6035599708557129,-0.1773345619440079,0,0,0,-1,-1,37008.26910400001,unknown,2,2025-04-22T16:19:47.510+03:00,2025-04-21T17:08:51.449+03:00,8558,1.051444,0,0,7113.948,7,22,2025-04-22T16:18:58.504+03:00,767020792.7706833,0,-12.38,100.351,1,0.5,2025-04-22T16:19:47.554+03:00,104,1.733333333333333,2025-04-22T14:20:19.516+03:00,0.02197104130929222,0
2025-04-22T16:19:53.584+03:00,1745327988.44907,40.95227823160536,29.14031067983604,76.15584,-1,-1,-1,-1,30,24.04358133289925,-9999,37014.338242625,-0.771240234375,0.6004638671875,-0.169281005859375,37014.330702625,-2.966627492413181,-1.346718375348019,-0.6479986705952671,-0.04441338777542114,0.008977219462394714,-0.002042111940681934,0.00346529483795166,0.003524601459503174,0.007791757583618164,XArbitraryZVertical,0.610652134020334,-0.1962694935627214,0.720877420542252,-0.262522194339031,-0.7773604989051819,0.6035919785499573,-0.1771645098924637,0,0,0,-1,-1,37008.26910400001,unknown,2,2025-04-22T16:19:47.510+03:00,2025-04-21T17:08:51.449+03:00,8558,1.051444,0,0,7113.948,7,22,2025-04-22T16:18:58.504+03:00,767020792.7706833,0,-12.38,100.351,1,0.5,2025-04-22T16:19:47.554+03:00,104,1.733333333333333,2025-04-22T14:20:19.516+03:00,0.02197104130929222,0
2025-04-22T16:19:53.594+03:00,1745327988.44907,40.95227823160536,29.14031067983604,76.15584,-1,-1,-1,-1,30,24.04358133289925,-9999,37014.348317625,-0.772186279296875,0.60150146484375,-0.1764068603515625,37014.340778625,-2.96714251875232,-1.346957676438783,-0.6481052994610702,-0.0378233976662159,0.008118616417050362,0.001684715622104704,0.005382895469665527,-0.0006954669952392578,0.009590327739715576,XArbitraryZVertical,0.6106807171207657,-0.1964356156498071,0.7208560527202997,-0.2623902850979906,-0.7773401737213135,0.603676974773407,-0.1769642233848572,0,0,0,-1,-1,37008.26910400001,unknown,2,2025-04-22T16:19:47.510+03:00,2025-04-21T17:08:51.449+03:00,8558,1.051444,0,0,7113.948,7,22,2025-04-22T16:18:58.504+03:00,767020792.7706833,0,-12.38,100.351,1,0.5,2025-04-22T16:19:47.554+03:00,104,1.733333333333333,2025-04-22T14:20:19.516+03:00,0.02197104130929222,0
2025-04-22T16:19:53.604+03:00,1745327988.44907,40.95227823160536,29.14031067983604,76.15584,-1,-1,-1,-1,30,24.04358133289925,-9999,37014.358393625,-0.7729644775390625,0.605438232421875,-0.1767120361328125,37014.350853625,-2.967639660634477,-1.347179652752433,-0.6482392122889257,-0.04212060570716858,0.01022790558636189,0.002538558328524232,0.005312681198120117,-0.003274261951446533,0.002197697758674622,XArbitraryZVertical,0.6107029488277395,-0.1966088935810951,0.7208333101306552,-0.26227092503135,-0.7773004770278931,0.6037837266921997,-0.1767736971378326,0,0,0,-1,-1,37008.26910400001,unknown,2,2025-04-22T16:19:47.510+03:00,2025-04-21T17:08:51.449+03:00,8558,1.051444,0,0,7113.948,7,22,2025-04-22T16:18:58.504+03:00,767020792.7706833,0,-12.38,100.351,1,0.5,2025-04-22T16:19:47.554+03:00,104,1.733333333333333,2025-04-22T14:20:19.516+03:00,0.02197104130929222,0
2025-04-22T16:19:53.614+03:00,1745327988.44907,40.95227823160536,29.14031067983604,76.15584,-1,-1,-1,-1,30,24.04358133289925,-9999,37014.36846862501,-0.77374267578125,0.601715087890625,-0.1752471923828125,37014.360929625,-2.968228838748564,-1.347447928908532,-0.6484203525329179,-0.04893830046057701,0.0121373925358057,0.007885120809078217,0.004582047462463379,0.0009454488754272461,-0.001086831092834473,XArbitraryZVertical,0.6107295723572971,-0.196822030939522,0.7208015907725747,-0.2621363594775167,-0.7772412896156311,0.6039281487464905,-0.1765409559011459,0,0,0,-1,-1,37008.26910400001,unknown,2,2025-04-22T16:19:47.510+03:00,2025-04-21T17:08:51.449+03:00,8558,1.051444,0,0,7113.948,7,22,2025-04-22T16:18:58.504+03:00,767020792.7706833,0,-12.38,100.351,1,0.5,2025-04-22T16:19:47.554+03:00,104,1.733333333333333,2025-04-22T14:20:19.516+03:00,0.02197104130929222,0
2025-04-22T16:19:53.624+03:00,1745327988.44907,40.95227823160536,29.14031067983604,76.15584,-1,-1,-1,-1,30,24.04358133289925,-9999,37014.378543625,-0.778594970703125,0.601959228515625,-0.1749267578125,37014.37100462501,-2.968836731064876,-1.347699749644723,-0.648635551359757,-0.04916659742593765,0.01503724232316017,0.007349925115704536,0.004331886768341064,-0.0004315376281738281,0.0008249431848526001,XArbitraryZVertical,0.6107460483031266,-0.1970559223180036,0.7207721241916546,-0.2620031654192901,-0.7771589159965515,0.6040996313095093,-0.1763164550065994,0,0,0,-1,-1,37008.26910400001,unknown,2,2025-04-22T16:19:47.510+03:00,2025-04-21T17:08:51.449+03:00,8558,1.051444,0,0,7113.948,7,22,2025-04-22T16:18:58.504+03:00,767020792.7706833,0,-12.38,100.351,1,0.5,2025-04-22T16:19:47.554+03:00,104,1.733333333333333,2025-04-22T14:20:19.516+03:00,0.02197104130929222,0
2025-04-22T16:19:53.634+03:00,1745327988.44907,40.95227823160536,29.14031067983604,76.15584,-1,-1,-1,-1,30,24.04358133289925,-9999,37014.388619625,-0.78564453125,0.6079864501953125,-0.1715545654296875,37014.381079625,-2.969370725326391,-1.347827091064022,-0.6488522842164159,-0.03792646154761314,0.02397534437477589,0.005248690489679575,0.001418948173522949,-0.003778040409088135,0.000834345817565918,XArbitraryZVertical,0.6107247375179572,-0.1972841287605842,0.7207707708275449,-0.2618848088478223,-0.7770536541938782,0.6042723059654236,-0.1761885285377502,0,0,0,-1,-1,37008.26910400001,unknown,2,2025-04-22T16:19:47.510+03:00,2025-04-21T17:08:51.449+03:00,8558,1.051444,0,0,7113.948,7,22,2025-04-22T16:18:58.504+03:00,767020792.7706833,0,-12.38,100.351,1,0.5,2025-04-22T16:19:47.554+03:00,104,1.733333333333333,2025-04-22T14:20:19.516+03:00,0.02197104130929222,0
2025-04-22T16:19:53.644+03:00,1745327988.44907,40.95227823160536,29.14031067983604,76.15584,-1,-1,-1,-1,30,24.04358133289925,-9999,37014.398694625,-0.785980224609375,0.617034912109375,-0.1661834716796875,37014.391155625,-2.969697396158729,-1.347751002492657,-0.6489760031240884,-0.01819529943168163,0.02796748653054237,0.001006974373012781,-0.006342530250549316,0.001479208469390869,0.002662241458892822,XArbitraryZVertical,0.6106567546781313,-0.1974405399630045,0.7208182795905967,-0.2617946973821674,-0.7769673466682434,0.6043708920478821,-0.1762311160564423,0,0,0,-1,-1,37008.26910400001,unknown,2,2025-04-22T16:19:47.510+03:00,2025-04-21T17:08:51.449+03:00,8558,1.051444,0,0,7113.948,7,22,2025-04-22T16:18:58.504+03:00,767020792.7706833,0,-12.38,100.351,1,0.5,2025-04-22T16:19:47.554+03:00,104,1.733333333333333,2025-04-22T14:20:19.516+03:00,0.02197104130929222,0
2025-04-22T16:19:53.654+03:00,1745327988.44907,40.95227823160536,29.14031067983604,76.15584,-1,-1,-1,-1,30,24.04358133289925,-9999,37014.408769625,-0.7835693359375,0.6190338134765625,-0.1666259765625,37014.401230625,-2.969826695874504,-1.347547185755888,-0.6489801695194225,-0.006572199054062366,0.03040001913905144,-0.005628291517496109,-0.01100426912307739,0.008647501468658447,0.008435264229774475,XArbitraryZVertical,0.6105702462063759,-0.1975082647835123,0.7208968044632266,-0.2617291529937728,-0.7769289612770081,0.6043742299079895,-0.1763889193534851,0,0,0,-1,-1,37008.26910400001,unknown,2,2025-04-22T16:19:47.510+03:00,2025-04-21T17:08:51.449+03:00,8558,1.051444,0,0,7113.948,7,22,2025-04-22T16:18:58.504+03:00,767020792.7706833,0,-12.38,100.351,1,0.5,2025-04-22T16:19:47.554+03:00,104,1.733333333333333,2025-04-22T14:20:19.516+03:00,0.02197104130929222,0
2025-04-22T16:19:53.664+03:00,1745327988.44907,40.95227823160536,29.14031067983604,76.15584,-1,-1,-1,-1,30,24.04358133289925,-9999,37014.418845625,-0.783172607421875,0.6094970703125,-0.1698455810546875,37014.411305625,-2.969982038946883,-1.34733589969479,-0.648978382449512,-0.01269500609487295,0.034803356975317,-0.004147141240537167,-0.007576704025268555,0.01492035388946533,0.01126992702484131,XArbitraryZVertical,0.6104788537310739,-0.1975826461623036,0.7209819842941275,-0.2616517659401111,-0.7768928408622742,0.6043727993965149,-0.176553338766098,0,0,0,-1,-1,37008.26910400001,unknown,2,2025-04-22T16:19:47.510+03:00,2025-04-21T17:08:51.449+03:00,8558,1.051444,0,0,7113.948,7,22,2025-04-22T16:18:58.504+03:00,767020792.7706833,0,-12.38,100.351,1,0.5,2025-04-22T16:19:47.554+03:00,104,1.733333333333333,2025-04-22T14:20:19.516+03:00,0.02197104130929222,0
2025-04-22T16:19:53.674+03:00,1745327988.44907,40.95227823160536,29.14031067983604,76.15584,-1,-1,-1,-1,30,24.04358133289925,-9999,37014.428920625,-0.7764129638671875,0.6051025390625,-0.1766357421875,37014.421381625,-2.970157118688984,-1.347138717257744,-0.6489851642981357,-0.01216903142631054,0.03288401663303375,-0.003169761039316654,-0.007264614105224609,0.009467542171478271,0.008370399475097656,XArbitraryZVertical,0.610390013252866,-0.1976644406170968,0.7210640199342901,-0.2615710945003541,-0.7768539190292358,0.6043782234191895,-0.1767055988311768,0,0,0,-1,-1,37008.26910400001,unknown,2,2025-04-22T16:19:47.510+03:00,2025-04-21T17:08:51.449+03:00,8558,1.051444,0,0,7113.948,7,22,2025-04-22T16:18:58.504+03:00,767020792.7706833,0,-12.38,100.351,1,0.5,2025-04-22T16:19:47.554+03:00,104,1.733333333333333,2025-04-22T14:20:19.516+03:00,0.02197104130929222,0
2025-04-22T16:19:53.685+03:00,1745327988.44907,40.95227823160536,29.14031067983604,76.15584,-1,-1,-1,-1,30,24.04358133289925,-9999,37014.438995625,-0.77349853515625,0.604644775390625,-0.1807098388671875,37014.431456625,-2.970358025152113,-1.34693264903783,-0.6489705312653208,-0.01680619455873966,0.03472765535116196,-0.006017645355314016,-0.002058684825897217,0.001392006874084473,0.003603890538215637,XArbitraryZVertical,0.6102968438023629,-0.1977471778053578,0.7211553153522694,-0.2614741402569402,-0.7768260836601257,0.6043665409088135,-0.1768676340579987,0,0,0,-1,-1,37008.26910400001,unknown,2,2025-04-22T16:19:47.510+03:00,2025-04-21T17:08:51.449+03:00,8558,1.051444,0,0,7113.948,7,22,2025-04-22T16:18:58.504+03:00,767020792.7706833,0,-12.38,100.351,1,0.5,2025-04-22T16:19:47.554+03:00,104,1.733333333333333,2025-04-22T14:20:19.516+03:00,0.02197104130929222,0
2025-04-22T16:19:53.695+03:00,1745327988.44907,40.95227823160536,29.14031067983604,76.15584,-1,-1,-1,-1,30,24.04358133289925,-9999,37014.449071625,-0.7754058837890625,0.599517822265625,-0.1803436279296875,37014.441531625,-2.970605956620079,-1.346727348503831,-0.648989286113356,-0.02108323015272617,0.03328661993145943,-0.0008756142342463136,0.004104256629943848,0.0008735060691833496,-0.003349766135215759,XArbitraryZVertical,0.6101970292289347,-0.1978567466657296,0.7212475408642417,-0.2613697581107931,-0.7767786979675293,0.6043815016746521,-0.1770245879888535,0,0,0,-1,-1,37008.26910400001,unknown,2,2025-04-22T16:19:47.510+03:00,2025-04-21T17:08:51.449+03:00,8558,1.051444,0,0,7113.948,7,22,2025-04-22T16:18:58.504+03:00,767020792.7706833,0,-12.38,100.351,1,0.5,2025-04-22T16:19:47.554+03:00,104,1.733333333333333,2025-04-22T14:20:19.516+03:00,0.02197104130929222,0
2025-04-22T16:19:53.705+03:00,1745327988.44907,40.95227823160536,29.14031067983604,76.15584,-1,-1,-1,-1,30,24.04358133289925,-9999,37014.45914662501,-0.773529052734375,0.6042022705078125,-0.1828765869140625,37014.451607625,-2.970906933263507,-1.346576403231434,-0.649055943084775,-0.02522764168679714,0.03387011960148811,0.001436941674910486,0.001795172691345215,-0.002460241317749023,-0.002753183245658875,XArbitraryZVertical,0.6101083129249145,-0.1979934629071782,0.7213229313795975,-0.261265197406998,-0.7767126560211182,0.604434609413147,-0.1771328747272491,0,0,0,-1,-1,37008.26910400001,unknown,2,2025-04-22T16:19:47.510+03:00,2025-04-21T17:08:51.449+03:00,8558,1.051444,0,0,7113.948,7,22,2025-04-22T16:18:58.504+03:00,767020792.7706833,0,-12.38,100.351,1,0.5,2025-04-22T16:19:47.554+03:00,104,1.733333333333333,2025-04-22T14:20:19.516+03:00,0.02197104130929222,0
2025-04-22T16:19:53.715+03:00,1745327988.44907,40.95227823160536,29.14031067983604,76.15584,-1,-1,-1,-1,30,24.04358133289925,-9999,37014.469222625,-0.7723846435546875,0.60748291015625,-0.1746978759765625,37014.46168262501,-2.971176177111164,-1.346388785068861,-0.6491043864441327,-0.01753590069711208,0.03555696457624435,-0.0002858572115655988,0.002084434032440186,-0.003032803535461426,-0.005330026149749756,XArbitraryZVertical,0.6100107020892628,-0.1981183762618895,0.7214081902744459,-0.2611632386308501,-0.7766509652137756,0.6044731736183167,-0.1772721111774445,0,0,0,-1,-1,37008.26910400001,unknown,2,2025-04-22T16:19:47.510+03:00,2025-04-21T17:08:51.449+03:00,8558,1.051444,0,0,7113.948,7,22,2025-04-22T16:18:58.504+03:00,767020792.7706833,0,-12.38,100.351,1,0.5,2025-04-22T16:19:47.554+03:00,104,1.733333333333333,2025-04-22T14:20:19.516+03:00,0.02197104130929222,0
2025-04-22T16:19:53.725+03:00,1745327988.44907,40.95227823160536,29.14031067983604,76.15584,-1,-1,-1,-1,30,24.04358133289925,-9999,37014.479297625,-0.7717437744140625,0.60601806640625,-0.16314697265625,37014.471758625,-2.971440158754914,-1.346219076995796,-0.649120026418783,-0.02026823535561562,0.0348971001803875,-0.001573861809447408,0.004379749298095703,0.003851711750030518,-0.001751840114593506,XArbitraryZVertical,0.6099222672456671,-0.1982269433349965,0.7214921232771889,-0.2610556290756859,-0.7766116857528687,0.6044856309890747,-0.1774018108844757,0,0,0,-1,-1,37008.26910400001,unknown,2,2025-04-22T16:19:47.510+03:00,2025-04-21T17:08:51.449+03:00,8558,1.051444,0,0,7113.948,7,22,2025-04-22T16:18:58.504+03:00,767020792.7706833,0,-12.38,100.351,1,0.5,2025-04-22T16:19:47.554+03:00,104,1.733333333333333,2025-04-22T14:20:19.516+03:00,0.02197104130929222,0
2025-04-22T16:19:53.735+03:00,1745327988.44907,40.95227823160536,29.14031067983604,76.15584,-1,-1,-1,-1,30,24.04358133289925,-9999,37014.489372625,-0.7728118896484375,0.612579345703125,-0.164947509765625,37014.481833625,-2.971718899733318,-1.346070637075963,-0.6491906540343607,-0.02239982970058918,0.0357770100235939,0.00345791457220912,0.004128515720367432,0.001659214496612549,0.01034735143184662,XArbitraryZVertical,0.6098363108325761,-0.1983579932914729,0.7215631600998527,-0.2609604034641228,-0.7765436768531799,0.6045418977737427,-0.1775075644254684,0,0,0,-1,-1,37008.26910400001,unknown,2,2025-04-22T16:19:47.510+03:00,2025-04-21T17:08:51.449+03:00,8558,1.051444,0,0,7113.948,7,22,2025-04-22T16:18:58.504+03:00,767020792.7706833,0,-12.38,100.351,1,0.5,2025-04-22T16:19:47.554+03:00,104,1.733333333333333,2025-04-22T14:20:19.516+03:00,0.02197104130929222,0
2025-04-22T16:19:53.745+03:00,1745327988.44907,40.95227823160536,29.14031067983604,76.15584,-1,-1,-1,-1,30,24.04358133289925,-9999,37014.499448625,-0.7734832763671875,0.6140899658203125,-0.1738739013671875,37014.491908625,-2.972020276096835,-1.345946747270574,-0.6493216114333227,-0.02162977866828442,0.03531534969806671,0.005507816560566425,0.003983616828918457,0.004713475704193115,0.01550702750682831,XArbitraryZVertical,0.6097528471907229,-0.1985154942931603,0.7216207547635975,-0.2608765274251948,-0.7764445543289185,0.6046462059020996,-0.1775861233472824,0,0,0,-1,-1,37008.26910400001,unknown,2,2025-04-22T16:19:47.510+03:00,2025-04-21T17:08:51.449+03:00,8558,1.051444,0,0,7113.948,7,22,2025-04-22T16:18:58.504+03:00,767020792.7706833,0,-12.38,100.351,1,0.5,2025-04-22T16:19:47.554+03:00,104,1.733333333333333,2025-04-22T14:20:19.516+03:00,0.02197104130929222,0
2025-04-22T16:19:53.755+03:00,1745327988.44907,40.95227823160536,29.14031067983604,76.15584,-1,-1,-1,-1,30,24.04358133289925,-9999,37014.509523875,-0.7734375,0.609893798828125,-0.1783905029296875,37014.501984625,-2.972235595481227,-1.345761508581303,-0.6494653387117473,-0.01061441190540791,0.03592601045966148,0.01029351633042097,0.002477407455444336,0.009786903858184814,0.007071271538734436,XArbitraryZVertical,0.6096549113092987,-0.1986595929581555,0.7216836803487149,-0.2608212496957489,-0.7763267159461975,0.6047607064247131,-0.1777105033397675,0,0,0,-1,-1,37008.26910400001,unknown,2,2025-04-22T16:19:47.510+03:00,2025-04-21T17:08:51.449+03:00,8558,1.051444,0,0,7113.948,7,22,2025-04-22T16:18:58.504+03:00,767020792.7706833,0,-12.38,100.351,1,0.5,2025-04-22T16:19:47.554+03:00,104,1.733333333333333,2025-04-22T14:20:19.516+03:00,0.02197104130929222,0
2025-04-22T16:19:53.765+03:00,1745327988.44907,40.95227823160536,29.14031067983604,76.15584,-1,-1,-1,-1,30,24.04358133289925,-9999,37014.51959887501,-0.7730712890625,0.6118927001953125,-0.1826629638671875,37014.512059875,-2.972312689675074,-1.345497785345085,-0.6495681464138745,-0.005754142068326473,0.0313086211681366,0.007729291915893555,0.002461552619934082,0.006699085235595703,0.001219704747200012,XArbitraryZVertical,0.6095451132646131,-0.19875629856936,0.7217588678132578,-0.2607963780690785,-0.7762193083763123,0.6048425436019897,-0.1779013723134995,0,0,0,-1,-1,37008.26910400001,unknown,2,2025-04-22T16:19:47.510+03:00,2025-04-21T17:08:51.449+03:00,8558,1.051444,0,0,7113.948,7,22,2025-04-22T16:18:58.504+03:00,767020792.7706833,0,-12.38,100.351,1,0.5,2025-04-22T16:19:47.554+03:00,104,1.733333333333333,2025-04-22T14:20:19.516+03:00,0.02197104130929222,0
2025-04-22T16:19:53.775+03:00,1745327988.44907,40.95227823160536,29.14031067983604,76.15584,-1,-1,-1,-1,30,24.04358133289925,-9999,37014.529674875,-0.7765350341796875,0.6110382080078125,-0.181396484375,37014.52213487501,-2.972350885712474,-1.345203766070396,-0.6496527318841554,-0.003081660252064466,0.0289826188236475,0.0044970135204494,0.002603411674499512,0.006112992763519287,-0.002958118915557861,XArbitraryZVertical,0.6094294754551389,-0.1988382250052092,0.7218408220992554,-0.2607773597487513,-0.7761171460151672,0.6049098968505859,-0.1781181544065475,0,0,0,-1,-1,37008.26910400001,unknown,2,2025-04-22T16:19:47.510+03:00,2025-04-21T17:08:51.449+03:00,8558,1.051444,0,0,7113.948,7,22,2025-04-22T16:18:58.504+03:00,767020792.7706833,0,-12.38,100.351,1,0.5,2025-04-22T16:19:47.554+03:00,104,1.733333333333333,2025-04-22T14:20:19.516+03:00,0.02197104130929222,0
2025-04-22T16:19:53.785+03:00,1745327988.44907,40.95227823160536,29.14031067983604,76.15584,-1,-1,-1,-1,30,24.04358133289925,-9999,37014.539749875,-0.7808837890625,0.6069183349609375,-0.181304931640625,37014.532210875,-2.972394160871879,-1.344920532861078,-0.6496842360369753,-0.005240884609520435,0.03358729183673859,0.000640789745375514,0.001191556453704834,0.007033824920654297,-0.003154560923576355,XArbitraryZVertical,0.6093208166994495,-0.1989002515781397,0.7219279447128951,-0.2607425289244857,-0.776047945022583,0.6049349904060364,-0.1783336699008942,0,0,0,-1,-1,37008.26910400001,unknown,2,2025-04-22T16:19:47.510+03:00,2025-04-21T17:08:51.449+03:00,8558,1.051444,0,0,7113.948,7,22,2025-04-22T16:18:58.504+03:00,767020792.7706833,0,-12.38,100.351,1,0.5,2025-04-22T16:19:47.554+03:00,104,1.733333333333333,2025-04-22T14:20:19.516+03:00,0.02197104130929222,0
2025-04-22T16:19:53.795+03:00,1745327988.44907,40.95227823160536,29.14031067983604,76.15584,-1,-1,-1,-1,30,24.04358133289925,-9999,37014.549825875,-0.783782958984375,0.6097412109375,-0.1751251220703125,37014.542285875,-2.972377269580354,-1.344514469494598,-0.6496673469368934,0.00747278006747365,0.04111311957240105,-0.0009493837133049965,-0.002960324287414551,0.002042412757873535,-0.0026082843542099,XArbitraryZVertical,0.609177053746594,-0.198941661033122,0.7220519573560452,-0.2607034515595367,-0.7759854197502136,0.6049215793609619,-0.1786510646343231,0,0,0,-1,-1,37008.26910400001,unknown,2,2025-04-22T16:19:47.510+03:00,2025-04-21T17:08:51.449+03:00,8558,1.051444,0,0,7113.948,7,22,2025-04-22T16:18:58.504+03:00,767020792.7706833,0,-12.38,100.351,1,0.5,2025-04-22T16:19:47.554+03:00,104,1.733333333333333,2025-04-22T14:20:19.516+03:00,0.02197104130929222,0
2025-04-22T16:19:53.805+03:00,1745327988.44907,40.95227823160536,29.14031067983604,76.15584,-1,-1,-1,-1,30,24.04358133289925,-9999,37014.559900875,-0.776397705078125,0.608642578125,-0.1701202392578125,37014.552361875,-2.97232038517061,-1.344068709068512,-0.6496457342530001,0.004216333385556936,0.0413518026471138,-0.003732353914529085,-0.007711708545684814,0.003814399242401123,0.001601055264472961,XArbitraryZVertical,0.6090232262002926,-0.1989742684138589,0.7221835654091365,-0.2606735143329621,-0.7759184837341309,0.6049043536186218,-0.1789999008178711,0,0,0,-1,-1,37008.26910400001,unknown,2,2025-04-22T16:19:47.510+03:00,2025-04-21T17:08:51.449+03:00,8558,1.051444,0,0,7113.948,7,22,2025-04-22T16:18:58.504+03:00,767020792.7706833,0,-12.38,100.351,1,0.5,2025-04-22T16:19:47.554+03:00,104,1.733333333333333,2025-04-22T14:20:19.516+03:00,0.02197104130929222,0
2025-04-22T16:19:53.815+03:00,1745327988.44907,40.95227823160536,29.14031067983604,76.15584,-1,-1,-1,-1,30,24.04358133289925,-9999,37014.56997587501,-0.7660675048828125,0.603729248046875,-0.1693115234375,37014.562436875,-2.972339756902931,-1.343755328399124,-0.649629450965502,-0.002895904704928398,0.032930888235569,-0.003521964186802506,-0.00450819730758667,0.005078613758087158,0.006607174873352051,XArbitraryZVertical,0.6089092291310185,-0.1990148493529318,0.7222839898169129,-0.2606307164352645,-0.7758719921112061,0.6048913598060608,-0.1792452782392502,0,0,0,-1,-1,37008.26910400001,unknown,2,2025-04-22T16:19:47.510+03:00,2025-04-21T17:08:51.449+03:00,8558,1.051444,0,0,7113.948,7,22,2025-04-22T16:18:58.504+03:00,767020792.7706833,0,-12.38,100.351,1,0.5,2025-04-22T16:19:47.554+03:00,104,1.733333333333333,2025-04-22T14:20:19.516+03:00,0.02197104130929222,0
2025-04-22T16:19:53.826+03:00,1745327988.44907,40.95227823160536,29.14031067983604,76.15584,-1,-1,-1,-1,30,24.04358133289925,-9999,37014.580051875,-0.7624359130859375,0.60107421875,-0.1715850830078125,37014.57251187501,-2.972496508608732,-1.343593449430416,-0.649648182004736,-0.01314727682620287,0.03019335865974426,-0.003118794644251466,0.006560206413269043,0.0009743571281433105,0.01046854257583618,XArbitraryZVertical,0.6088338962661358,-0.1990907403709343,0.7223509127209694,-0.2605632977938183,-0.775831937789917,0.6049063205718994,-0.179368332028389,0,0,0,-1,-1,37008.26910400001,unknown,2,2025-04-22T16:19:47.510+03:00,2025-04-21T17:08:51.449+03:00,8558,1.051444,0,0,7113.948,7,22,2025-04-22T16:18:58.504+03:00,767020792.7706833,0,-12.38,100.351,1,0.5,2025-04-22T16:19:47.554+03:00,104,1.733333333333333,2025-04-22T14:20:19.516+03:00,0.02197104130929222,0
2025-04-22T16:19:53.836+03:00,1745327988.44907,40.95227823160536,29.14031067983604,76.15584,-1,-1,-1,-1,30,24.04358133289925,-9999,37014.590126875,-0.769439697265625,0.5982818603515625,-0.17181396484375,37014.582587875,-2.972700016809086,-1.343457114868454,-0.6496789795610737,-0.01091528125107288,0.03098192065954208,-0.004701245110481977,0.01330780982971191,-0.00304800271987915,0.008235573768615723,XArbitraryZVertical,0.6087623020695686,-0.1991820806831978,0.7224143820384179,-0.2604849338145446,-0.7757894396781921,0.6049308180809021,-0.1794699132442474,0,0,0,-1,-1,37008.26910400001,unknown,2,2025-04-22T16:19:47.510+03:00,2025-04-21T17:08:51.449+03:00,8558,1.051444,0,0,7113.948,7,22,2025-04-22T16:18:58.504+03:00,767020792.7706833,0,-12.38,100.351,1,0.5,2025-04-22T16:19:47.554+03:00,104,1.733333333333333,2025-04-22T14:20:19.516+03:00,0.02197104130929222,0
2025-04-22T16:19:53.846+03:00,1745327988.44907,40.95227823160536,29.14031067983604,76.15584,-1,-1,-1,-1,30,24.04358133289925,-9999,37014.600201875,-0.7733612060546875,0.603271484375,-0.1774139404296875,37014.592662875,-2.972823734334542,-1.343231847546462,-0.649710186283639,-0.00927064660936594,0.02947283908724785,-0.001108441036194563,0.009479999542236328,-0.005865156650543213,0.00773465633392334,XArbitraryZVertical,0.6086664978037344,-0.1992608721595679,0.7224943439223144,-0.2604266533996644,-0.7757304906845093,0.6049556732177734,-0.1796403974294662,0,0,0,-1,-1,37008.26910400001,unknown,2,2025-04-22T16:19:47.510+03:00,2025-04-21T17:08:51.449+03:00,8558,1.051444,0,0,7113.948,7,22,2025-04-22T16:18:58.504+03:00,767020792.7706833,0,-12.38,100.351,1,0.5,2025-04-22T16:19:47.554+03:00,104,1.733333333333333,2025-04-22T14:20:19.516+03:00,0.02197104130929222,0
2025-04-22T16:19:53.856+03:00,1745327988.44907,40.95227823160536,29.14031067983604,76.15584,-1,-1,-1,-1,30,24.04358133289925,-9999,37014.610277875,-0.768798828125,0.608642578125,-0.1837310791015625,37014.602737875,-2.972910545672949,-1.343007979789595,-0.6497496784398776,-0.004012501332908869,0.02490045875310898,-0.002223772928118706,0.001710832118988037,-0.004721760749816895,0.004454389214515686,XArbitraryZVertical,0.6085743074871132,-0.1993313788556432,0.7225677602675502,-0.2603841880920222,-0.7756668925285339,0.6049870848655701,-0.1798086315393448,0,0,0,-1,-1,37008.26910400001,unknown,2,2025-04-22T16:19:47.510+03:00,2025-04-21T17:08:51.449+03:00,8558,1.051444,0,0,7113.948,7,22,2025-04-22T16:18:58.504+03:00,767020792.7706833,0,-12.38,100.351,1,0.5,2025-04-22T16:19:47.554+03:00,104,1.733333333333333,2025-04-22T14:20:19.516+03:00,0.02197104130929222,0
2025-04-22T16:19:53.866+03:00,1745327988.44907,40.95227823160536,29.14031067983604,76.15584,-1,-1,-1,-1,30,24.04358133289925,-9999,37014.620352875,-0.7710418701171875,0.6061248779296875,-0.1819000244140625,37014.612813875,-2.972960146999876,-1.342810954194665,-0.6497600878647148,-0.002945039886981249,0.02099286951124668,-0.001437974045984447,0.005712807178497314,0.002289175987243652,-0.002321615815162659,XArbitraryZVertical,0.6084974583483912,-0.1993760341467039,0.7226328005205377,-0.2603495462356214,-0.7756255269050598,0.6049953699111938,-0.1799600869417191,0,0,0,-1,-1,37008.26910400001,unknown,2,2025-04-22T16:19:47.510+03:00,2025-04-21T17:08:51.449+03:00,8558,1.051444,0,0,7113.948,7,22,2025-04-22T16:18:58.504+03:00,767020792.7706833,0,-12.38,100.351,1,0.5,2025-04-22T16:19:47.554+03:00,104,1.733333333333333,2025-04-22T14:20:19.516+03:00,0.02197104130929222,0
2025-04-22T16:19:53.876+03:00,1745327988.44907,40.95227823160536,29.14031067983604,76.15584,-1,-1,-1,-1,30,24.04358133289925,-9999,37014.630428875,-0.7751922607421875,0.6096038818359375,-0.1803741455078125,37014.622888875,-2.972975773717507,-1.342606493387832,-0.6497339504709769,0.002057708101347089,0.02201392501592636,-0.002977813594043255,0.006011843681335449,0.002782881259918213,-0.002601981163024902,XArbitraryZVertical,0.608423794703664,-0.1993975262450557,0.7227008932776232,-0.2603161223219375,-0.7756040692329407,0.6049745678901672,-0.1801222264766693,0,0,0,-1,-1,37008.26910400001,unknown,2,2025-04-22T16:19:47.510+03:00,2025-04-21T17:08:51.449+03:00,8558,1.051444,0,0,7113.948,7,22,2025-04-22T16:18:58.504+03:00,767020792.7706833,0,-12.38,100.351,1,0.5,2025-04-22T16:19:47.554+03:00,104,1.733333333333333,2025-04-22T14:20:19.516+03:00,0.02197104130929222,0
2025-04-22T16:19:53.886+03:00,1745327988.44907,40.95227823160536,29.14031067983604,76.15584,-1,-1,-1,-1,30,24.04358133289925,-9999,37014.640503875,-0.7731475830078125,0.608551025390625,-0.18011474609375,37014.632964875,-2.972969325140014,-1.342435882065459,-0.6496873153675042,0.002878760686144233,0.01241695787757635,-0.003221093444153666,0.001476645469665527,0.002728462219238281,-0.0008458495140075684,XArbitraryZVertical,0.6083659469078962,-0.1994001477033063,0.7227588314543693,-0.2602882517529139,-0.7756006717681885,0.6049374341964722,-0.1802609115839005,0,0,0,-1,-1,37008.26910400001,unknown,2,2025-04-22T16:19:47.510+03:00,2025-04-21T17:08:51.449+03:00,8558,1.051444,0,0,7113.948,7,22,2025-04-22T16:18:58.504+03:00,767020792.7706833,0,-12.38,100.351,1,0.5,2025-04-22T16:19:47.554+03:00,104,1.733333333333333,2025-04-22T14:20:19.516+03:00,0.02197104130929222,0
2025-04-22T16:19:53.896+03:00,1745327988.44907,40.95227823160536,29.14031067983604,76.15584,-1,-1,-1,-1,30,24.04358133289925,-9999,37014.650578875,-0.7688751220703125,0.6031341552734375,-0.173736572265625,37014.643039875,-2.972978535464323,-1.342353226082369,-0.6496742756544336,0.001689925557002425,0.01139829866588116,-0.002728142309933901,0.00130164623260498,0.005638003349304199,-0.0004289597272872925,XArbitraryZVertical,0.6083360417987336,-0.1994087784073604,0.7227870961846942,-0.2602729940415684,-0.7755934596061707,0.6049270629882812,-0.1803268045186996,0,0,0,-1,-1,37008.26910400001,unknown,2,2025-04-22T16:19:47.510+03:00,2025-04-21T17:08:51.449+03:00,8558,1.051444,0,0,7113.948,7,22,2025-04-22T16:18:58.504+03:00,767020792.7706833,0,-12.38,100.351,1,0.5,2025-04-22T16:19:47.554+03:00,104,1.733333333333333,2025-04-22T14:20:19.516+03:00,0.02197104130929222,0
2025-04-22T16:19:53.906+03:00,1745327988.44907,40.95227823160536,29.14031067983604,76.15584,-1,-1,-1,-1,30,24.04358133289925,-9999,37014.660654875,-0.7705841064453125,0.60443115234375,-0.17254638671875,37014.653114875,-2.973072084836329,-1.342301622140761,-0.6496900666375941,-0.007791593670845032,0.01533218659460545,0.00063869240693748,0.005616486072540283,-0.0005238652229309082,0.004186525940895081,XArbitraryZVertical,0.6083069954874513,-0.1994499180984554,0.7228126089569817,-0.260238510143331,-0.7755748629570007,0.6049396395683289,-0.180364653468132,0,0,0,-1,-1,37008.26910400001,unknown,2,2025-04-22T16:19:47.510+03:00,2025-04-21T17:08:51.449+03:00,8558,1.051444,0,0,7113.948,7,22,2025-04-22T16:18:58.504+03:00,767020792.7706833,0,-12.38,100.351,1,0.5,2025-04-22T16:19:47.554+03:00,104,1.733333333333333,2025-04-22T14:20:19.516+03:00,0.02197104130929222,0
2025-04-22T16:19:53.916+03:00,1745327988.44907,40.95227823160536,29.14031067983604,76.15584,-1,-1,-1,-1,30,24.04358133289925,-9999,37014.670729875,-0.7713165283203125,0.60040283203125,-0.1759796142578125,37014.663190875,-2.973263280840374,-1.342299429114407,-0.6497520630240649,-0.01999046839773655,0.01246076636016369,7.117277709767222e-05,0.006037354469299316,-0.002068579196929932,0.008009612560272217,XArbitraryZVertical,0.608282932823028,-0.1995317920288037,0.7228289334753529,-0.2601867376131884,-0.7755379676818848,0.6049889922142029,-0.1803578734397888,0,0,0,-1,-1,37008.26910400001,unknown,2,2025-04-22T16:19:47.510+03:00,2025-04-21T17:08:51.449+03:00,8558,1.051444,0,0,7113.948,7,22,2025-04-22T16:18:58.504+03:00,767020792.7706833,0,-12.38,100.351,1,0.5,2025-04-22T16:19:47.554+03:00,104,1.733333333333333,2025-04-22T14:20:19.516+03:00,0.02197104130929222,0
2025-04-22T16:19:53.926+03:00,1745327988.44907,40.95227823160536,29.14031067983604,76.15584,-1,-1,-1,-1,30,24.04358133289925,-9999,37014.680804875,-0.77203369140625,0.5977630615234375,-0.177154541015625,37014.673265875,-2.973517900298646,-1.34233798342255,-0.6498452144649537,-0.02329511940479279,0.01750912144780159,0.007398759946227074,0.003990471363067627,-0.002600550651550293,0.005372956395149231,XArbitraryZVertical,0.6082651512044455,-0.1996394405658198,0.7228363798907198,-0.260124942715779,-0.7754899859428406,0.6050631999969482,-0.1803151965141296,0,0,0,-1,-1,37008.26910400001,unknown,2,2025-04-22T16:19:47.510+03:00,2025-04-21T17:08:51.449+03:00,8558,1.051444,0,0,7113.948,7,22,2025-04-22T16:18:58.504+03:00,767020792.7706833,0,-12.38,100.351,1,0.5,2025-04-22T16:19:47.554+03:00,104,1.733333333333333,2025-04-22T14:20:19.516+03:00,0.02197104130929222,0
2025-04-22T16:19:53.936+03:00,1745327988.44907,40.95227823160536,29.14031067983604,76.15584,-1,-1,-1,-1,30,24.04358133289925,-9999,37014.690880875,-0.775482177734375,0.6076202392578125,-0.1782684326171875,37014.683340875,-2.973729181479433,-1.342283301875935,-0.6499422133867413,-0.009148674085736275,0.02066869661211967,0.008294913917779922,0.004808425903320312,-0.008354008197784424,0.003067553043365479,XArbitraryZVertical,0.6082177131243661,-0.1997474760617642,0.7228660431758195,-0.2600705796643688,-0.775422990322113,0.6051403880119324,-0.1803443133831024,0,0,0,-1,-1,37008.26910400001,unknown,2,2025-04-22T16:19:47.510+03:00,2025-04-21T17:08:51.449+03:00,8558,1.051444,0,0,7113.948,7,22,2025-04-22T16:18:58.504+03:00,767020792.7706833,0,-12.38,100.351,1,0.5,2025-04-22T16:19:47.554+03:00,104,1.733333333333333,2025-04-22T14:20:19.516+03:00,0.02197104130929222,0
2025-04-22T16:19:53.946+03:00,1745327988.44907,40.95227823160536,29.14031067983604,76.15584,-1,-1,-1,-1,30,24.04358133289925,-9999,37014.700955875,-0.7750701904296875,0.6147613525390625,-0.178955078125,37014.693416875,-2.973780317936173,-1.342100775677602,-0.6500393578005653,-0.005369515623897314,0.02015483751893044,0.004287189804017544,0.001422405242919922,-0.002419412136077881,0.003424644470214844,XArbitraryZVertical,0.6081400412647989,-0.1998234874424143,0.7229137145093314,-0.2600613648218431,-0.7753328084945679,0.6052177548408508,-0.1804725229740143,0,0,0,-1,-1,37008.26910400001,unknown,2,2025-04-22T16:19:47.510+03:00,2025-04-21T17:08:51.449+03:00,8558,1.051444,0,0,7113.948,7,22,2025-04-22T16:18:58.504+03:00,767020792.7706833,0,-12.38,100.351,1,0.5,2025-04-22T16:19:47.554+03:00,104,1.733333333333333,2025-04-22T14:20:19.516+03:00,0.02197104130929222,0
2025-04-22T16:19:53.957+03:00,1745327988.44907,40.95227823160536,29.14031067983604,76.15584,-1,-1,-1,-1,30,24.04358133289925,-9999,37014.71103087501,-0.7760772705078125,0.6143951416015625,-0.1803131103515625,37014.703491875,-2.973726751517664,-1.341845923499378,-0.6500975248204682,0.01076577883213758,0.02385849878191948,0.002612594282254577,-0.0003210902214050293,0.008566379547119141,0.00105072557926178,XArbitraryZVertical,0.6080493279403676,-0.1998623355289666,0.7229755362071928,-0.2600717309115427,-0.7752524614334106,0.6052640676498413,-0.1806621253490448,0,0,0,-1,-1,37008.26910400001,unknown,2,2025-04-22T16:19:47.510+03:00,2025-04-21T17:08:51.449+03:00,8558,1.051444,0,0,7113.948,7,22,2025-04-22T16:18:58.504+03:00,767020792.7706833,0,-12.38,100.351,1,0.5,2025-04-22T16:19:47.554+03:00,104,1.733333333333333,2025-04-22T14:20:19.516+03:00,0.02197104130929222,0
2025-04-22T16:19:53.967+03:00,1745327988.44907,40.95227823160536,29.14031067983604,76.15584,-1,-1,-1,-1,30,24.04358133289925,-9999,37014.721106875,-0.7764434814453125,0.6119537353515625,-0.184326171875,37014.71356687501,-2.973531795069194,-1.341503027445441,-0.6500914963758908,0.01730263978242874,0.02170652896165848,0.0007179547101259232,1.9073486328125e-06,0.009563028812408447,0.001393616199493408,XArbitraryZVertical,0.6079452595871301,-0.1998453827803323,0.7230553082385672,-0.2601062409035232,-0.7751940488815308,0.6052592396736145,-0.1809287667274475,0,0,0,-1,-1,37008.26910400001,unknown,2,2025-04-22T16:19:47.510+03:00,2025-04-21T17:08:51.449+03:00,8558,1.051444,0,0,7113.948,7,22,2025-04-22T16:18:58.504+03:00,767020792.7706833,0,-12.38,100.351,1,0.5,2025-04-22T16:19:47.554+03:00,104,1.733333333333333,2025-04-22T14:20:19.516+03:00,0.02197104130929222,0
2025-04-22T16:19:53.977+03:00,1745327988.44907,40.95227823160536,29.14031067983604,76.15584,-1,-1,-1,-1,30,24.04358133289925,-9999,37014.731181875,-0.768829345703125,0.604827880859375,-0.1858673095703125,37014.723642875,-2.973356263382832,-1.341189589060657,-0.6500736079876266,0.01151825487613678,0.01776079088449478,0.0001528319553472102,-0.001768529415130615,0.007349491119384766,-0.001611053943634033,XArbitraryZVertical,0.6078506853145966,-0.1998260276405452,0.7231304430339888,-0.2601333206232677,-0.7751478552818298,0.6052449941635132,-0.1811742037534714,0,0,0,-1,-1,37008.26910400001,unknown,2,2025-04-22T16:19:47.510+03:00,2025-04-21T17:08:51.449+03:00,8558,1.051444,0,0,7113.948,7,22,2025-04-22T16:18:58.504+03:00,767020792.7706833,0,-12.38,100.351,1,0.5,2025-04-22T16:19:47.554+03:00,104,1.733333333333333,2025-04-22T14:20:19.516+03:00,0.02197104130929222,0
2025-04-22T16:19:53.987+03:00,1745327988.44907,40.95227823160536,29.14031067983604,76.15584,-1,-1,-1,-1,30,24.04358133289925,-9999,37014.741257875,-0.7622833251953125,0.6020660400390625,-0.1857757568359375,37014.733717875,-2.973302641882746,-1.341031082327422,-0.6500644716371486,0.002056842669844627,0.009317237883806229,-0.002172773238271475,0.002526402473449707,0.002031505107879639,-0.004126667976379395,XArbitraryZVertical,0.6077993449379018,-0.1998268864505857,0.723173055279167,-0.2601342794582716,-0.7751245498657227,0.6052377223968506,-0.1812983453273773,0,0,0,-1,-1,37008.26910400001,unknown,2,2025-04-22T16:19:47.510+03:00,2025-04-21T17:08:51.449+03:00,8558,1.051444,0,0,7113.948,7,22,2025-04-22T16:18:58.504+03:00,767020792.7706833,0,-12.38,100.351,1,0.5,2025-04-22T16:19:47.554+03:00,104,1.733333333333333,2025-04-22T14:20:19.516+03:00,0.02197104130929222,0
2025-04-22T16:19:53.997+03:00,1745327988.44907,40.95227823160536,29.14031067983604,76.15584,-1,-1,-1,-1,30,24.04358133289925,-9999,37014.751332875,-0.766082763671875,0.60357666015625,-0.1817169189453125,37014.743793875,-2.973346771792917,-1.340987611570776,-0.6500777858815153,-0.005731305573135614,0.01160835567861795,0.0008959871483966708,0.01134544610977173,-0.003151834011077881,-0.005254462361335754,XArbitraryZVertical,0.6077783149309722,-0.199850986159837,0.7231900285733175,-0.2601177431267501,-0.7751088738441467,0.6052483320236206,-0.1813302040100098,0,0,0,-1,-1,37008.26910400001,unknown,2,2025-04-22T16:19:47.510+03:00,2025-04-21T17:08:51.449+03:00,8558,1.051444,0,0,7113.948,7,22,2025-04-22T16:18:58.504+03:00,767020792.7706833,0,-12.38,100.351,1,0.5,2025-04-22T16:19:47.554+03:00,104,1.733333333333333,2025-04-22T14:20:19.516+03:00,0.02197104130929222,0
2025-04-22T16:19:54.007+03:00,1745327988.44907,40.95227823160536,29.14031067983604,76.15584,-1,-1,-1,-1,30,24.04358133289925,-9999,37014.761407875,-0.775146484375,0.5972900390625,-0.1763458251953125,37014.753868875,-2.973460187360529,-1.340927328022899,-0.6501567902034744,-0.01170670706778765,0.02043427154421806,0.01107442285865545,0.01203566789627075,-0.002009332180023193,-0.002960309386253357,XArbitraryZVertical,0.6077398445508841,-0.1999231909403835,0.7232111591643482,-0.260093075963737,-0.7750511765480042,0.6053112149238586,-0.1813659965991974,0,0,0,-1,-1,37008.26910400001,unknown,2,2025-04-22T16:19:47.510+03:00,2025-04-21T17:08:51.449+03:00,8558,1.051444,0,0,7113.948,7,22,2025-04-22T16:18:58.504+03:00,767020792.7706833,0,-12.38,100.351,1,0.5,2025-04-22T16:19:47.554+03:00,104,1.733333333333333,2025-04-22T14:20:19.516+03:00,0.02197104130929222,0
2025-04-22T16:19:54.017+03:00,1745327988.44907,40.95227823160536,29.14031067983604,76.15584,-1,-1,-1,-1,30,24.04358133289925,-9999,37014.771483875,-0.776336669921875,0.5920867919921875,-0.1761322021484375,37014.763943875,-2.973678416856218,-1.340874169658406,-0.6503094228075478,-0.03194566443562508,0.01818576455116272,0.01414158567786217,0.002414584159851074,-0.004419624805450439,0.002842903137207031,XArbitraryZVertical,0.6076884514363309,-0.2000541345615494,0.7232330193102471,-0.2600519978363425,-0.7749517560005188,0.6054326891899109,-0.1813861727714539,0,0,0,-1,-1,37008.26910400001,unknown,2,2025-04-22T16:19:47.510+03:00,2025-04-21T17:08:51.449+03:00,8558,1.051444,0,0,7113.948,7,22,2025-04-22T16:18:58.504+03:00,767020792.7706833,0,-12.38,100.351,1,0.5,2025-04-22T16:19:47.554+03:00,104,1.733333333333333,2025-04-22T14:20:19.516+03:00,0.02197104130929222,0
2025-04-22T16:19:54.027+03:00,1745327988.44907,40.95227823160536,29.14031067983604,76.15584,-1,-1,-1,-1,30,24.04358133289925,-9999,37014.781558875,-0.780181884765625,0.5978851318359375,-0.1803436279296875,37014.774019875,-2.974020408364417,-1.340861912682753,-0.6505438752010783,-0.02419074065983295,0.02735642530024052,0.01913637667894363,-0.0008538961410522461,-0.01296794414520264,0.006039664149284363,XArbitraryZVertical,0.6076338887018046,-0.2002483077645674,0.7232462643483317,-0.2599934033082114,-0.7748113870620728,0.6056193113327026,-0.1813633441925049,0,0,0,-1,-1,37008.26910400001,unknown,2,2025-04-22T16:19:47.510+03:00,2025-04-21T17:08:51.449+03:00,8558,1.051444,0,0,7113.948,7,22,2025-04-22T16:18:58.504+03:00,767020792.7706833,0,-12.38,100.351,1,0.5,2025-04-22T16:19:47.554+03:00,104,1.733333333333333,2025-04-22T14:20:19.516+03:00,0.02197104130929222,0
2025-04-22T16:19:54.037+03:00,1745327988.44907,40.95227823160536,29.14031067983604,76.15584,-1,-1,-1,-1,30,24.04358133289925,-9999,37014.791633875,-0.7815093994140625,0.6096343994140625,-0.1783447265625,37014.784094875,-2.974231030315793,-1.340712295930644,-0.6507754283475908,-0.01816640421748161,0.02723605185747147,0.01338235102593899,-0.00356590747833252,-0.01093977689743042,0.001759544014930725,XArbitraryZVertical,0.6075429820900278,-0.2004193500597044,0.723284279362974,-0.2599677789292366,-0.7746474146842957,0.6058035492897034,-0.1814472228288651,0,0,0,-1,-1,37008.26910400001,unknown,2,2025-04-22T16:19:47.510+03:00,2025-04-21T17:08:51.449+03:00,8558,1.051444,0,0,7113.948,7,22,2025-04-22T16:18:58.504+03:00,767020792.7706833,0,-12.38,100.351,1,0.5,2025-04-22T16:19:47.554+03:00,104,1.733333333333333,2025-04-22T14:20:19.516+03:00,0.02197104130929222,0
2025-04-22T16:19:54.047+03:00,1745327988.44907,40.95227823160536,29.14031067983604,76.15584,-1,-1,-1,-1,30,24.04358133289925,-9999,37014.801709875,-0.779754638671875,0.6162109375,-0.17437744140625,37014.794169875,-2.974267592696252,-1.340455776846835,-0.650924053719228,0.005152900237590075,0.02936458215117455,0.008403105661273003,-0.007285952568054199,-0.0004226565361022949,0.001327291131019592,XArbitraryZVertical,0.6074364501156472,-0.2005200190181043,0.7233447276262139,-0.2599708778661073,-0.7745131850242615,0.605921745300293,-0.1816253662109375,0,0,0,-1,-1,37008.26910400001,unknown,2,2025-04-22T16:19:47.510+03:00,2025-04-21T17:08:51.449+03:00,8558,1.051444,0,0,7113.948,7,22,2025-04-22T16:18:58.504+03:00,767020792.7706833,0,-12.38,100.351,1,0.5,2025-04-22T16:19:47.554+03:00,104,1.733333333333333,2025-04-22T14:20:19.516+03:00,0.02197104130929222,0
2025-04-22T16:19:54.057+03:00,1745327988.44907,40.95227823160536,29.14031067983604,76.15584,-1,-1,-1,-1,30,24.04358133289925,-9999,37014.811784875,-0.7774200439453125,0.610870361328125,-0.1783599853515625,37014.804245875,-2.974118874516408,-1.340063856158,-0.6509784763825009,0.01499008480459452,0.02946338430047035,0.004442984703928232,-0.005603969097137451,0.009040296077728271,0.006399348378181458,XArbitraryZVertical,0.6073059083865617,-0.2005463883659278,0.7234362997216173,-0.260000756204219,-0.7744098305702209,0.6059650778770447,-0.1819213628768921,0,0,0,-1,-1,37008.26910400001,unknown,2,2025-04-22T16:19:47.510+03:00,2025-04-21T17:08:51.449+03:00,8558,1.051444,0,0,7113.948,7,22,2025-04-22T16:18:58.504+03:00,767020792.7706833,0,-12.38,100.351,1,0.5,2025-04-22T16:19:47.554+03:00,104,1.733333333333333,2025-04-22T14:20:19.516+03:00,0.02197104130929222,0
2025-04-22T16:19:54.067+03:00,1745327988.44907,40.95227823160536,29.14031067983604,76.15584,-1,-1,-1,-1,30,24.04358133289925,-9999,37014.821860875,-0.7697906494140625,0.60687255859375,-0.18450927734375,37014.814320875,-2.973971104664417,-1.339676193556516,-0.651016354067925,0.005502573680132627,0.02716454491019249,0.006832506041973829,-0.004567801952362061,0.006904423236846924,0.00590081512928009,XArbitraryZVertical,0.6071779207204149,-0.2005662499156863,0.7235291497971308,-0.2600260390717082,-0.7743169665336609,0.6059951782226562,-0.1822163015604019,0,0,0,-1,-1,37008.26910400001,unknown,2,2025-04-22T16:19:47.510+03:00,2025-04-21T17:08:51.449+03:00,8558,1.051444,0,0,7113.948,7,22,2025-04-22T16:18:58.504+03:00,767020792.7706833,0,-12.38,100.351,1,0.5,2025-04-22T16:19:47.554+03:00,104,1.733333333333333,2025-04-22T14:20:19.516+03:00,0.02197104130929222,0
2025-04-22T16:19:54.085+03:00,1745327988.44907,40.95227823160536,29.14031067983604,76.15584,-1,-1,-1,-1,30,24.04358133289925,-9999,37014.831935875,-0.7650146484375,0.6097869873046875,-0.18707275390625,37014.824396875,-2.973853878282265,-1.339294617671221,-0.6510677137486699,0.002950732596218586,0.02727986127138138,0.006249273661524057,0.002458274364471436,0.0007753968238830566,-0.0001127123832702637,XArbitraryZVertical,0.6070481351416861,-0.2005996979428525,0.72362218080101,-0.2600446736985255,-0.7742172479629517,0.6060360670089722,-0.1825046390295029,0,0,0,-1,-1,37008.26910400001,unknown,2,2025-04-22T16:19:47.510+03:00,2025-04-21T17:08:51.449+03:00,8558,1.051444,0,0,7113.948,7,22,2025-04-22T16:18:58.504+03:00,767020792.7706833,0,-12.38,100.351,1,0.5,2025-04-22T16:19:47.554+03:00,104,1.733333333333333,2025-04-22T14:20:19.516+03:00,0.02197104130929222,0
2025-04-22T16:19:54.088+03:00,1745327988.44907,40.95227823160536,29.14031067983604,76.15584,-1,-1,-1,-1,30,24.04358133289925,-9999,37014.842010875,-0.7631988525390625,0.609344482421875,-0.19195556640625,37014.834471875,-2.97382647717914,-1.339022754940934,-0.6511519518933738,-0.00605075154453516,0.01991169340908527,0.008076868019998074,0.007607996463775635,0.003134548664093018,-0.003972828388214111,XArbitraryZVertical,0.606946802585113,-0.2006586058788155,0.7236885731455502,-0.2600511054123866,-0.7741179466247559,0.6061030626296997,-0.1827034056186676,0,0,0,-1,-1,37008.26910400001,unknown,2,2025-04-22T16:19:47.510+03:00,2025-04-21T17:08:51.449+03:00,8558,1.051444,0,0,7113.948,7,22,2025-04-22T16:18:58.504+03:00,767020792.7706833,0,-12.38,100.351,1,0.5,2025-04-22T16:19:47.554+03:00,104,1.733333333333333,2025-04-22T14:20:19.516+03:00,0.02197104130929222,0
2025-04-22T16:19:54.098+03:00,1745327988.44907,40.95227823160536,29.14031067983604,76.15584,-1,-1,-1,-1,30,24.04358133289925,-9999,37014.85208687501,-0.762420654296875,0.60931396484375,-0.192291259765625,37014.844546875,-2.973912876611092,-1.338920906554695,-0.6512346599800295,-0.0116082364693284,0.0144607350230217,0.007990315556526184,0.01033294200897217,0.004152119159698486,-0.007567644119262695,XArbitraryZVertical,0.6068956741193124,-0.2007293735563815,0.7237183133795494,-0.2600329868314504,-0.7740505337715149,0.6061688661575317,-0.1827707141637802,0,0,0,-1,-1,37008.26910400001,unknown,2,2025-04-22T16:19:47.510+03:00,2025-04-21T17:08:51.449+03:00,8558,1.051444,0,0,7113.948,7,22,2025-04-22T16:18:58.504+03:00,767020792.7706833,0,-12.38,100.351,1,0.5,2025-04-22T16:19:47.554+03:00,104,1.733333333333333,2025-04-22T14:20:19.516+03:00,0.02197104130929222,0
2025-04-22T16:19:54.108+03:00,1745327988.44907,40.95227823160536,29.14031067983604,76.15584,-1,-1,-1,-1,30,24.04358133289925,-9999,37014.862161875,-0.768035888671875,0.609954833984375,-0.1869354248046875,37014.85462287501,-2.974032748383026,-1.338868991889875,-0.6512816282020969,-0.009293283335864544,0.01359800342470407,0.005422162357717752,0.01192843914031982,0.002314209938049316,-0.0091819167137146,XArbitraryZVertical,0.6068616675952596,-0.2007902697291073,0.7237426564654977,-0.2599976587016855,-0.774013340473175,0.6062061786651611,-0.1828043609857559,0,0,0,-1,-1,37008.26910400001,unknown,2,2025-04-22T16:19:47.510+03:00,2025-04-21T17:08:51.449+03:00,8558,1.051444,0,0,7113.948,7,22,2025-04-22T16:18:58.504+03:00,767020792.7706833,0,-12.38,100.351,1,0.5,2025-04-22T16:19:47.554+03:00,104,1.733333333333333,2025-04-22T14:20:19.516+03:00,0.02197104130929222,0
2025-04-22T16:19:54.118+03:00,1745327988.44907,40.95227823160536,29.14031067983604,76.15584,-1,-1,-1,-1,30,24.04358133289925,-9999,37014.872236875,-0.7696075439453125,0.6048583984375,-0.1787261962890625,37014.864697875,-2.974111132734271,-1.338798230665103,-0.651267981534535,-0.0003314802597742528,0.009159046225249767,0.001120624714531004,0.007605195045471191,0.003728806972503662,-0.007980868220329285,XArbitraryZVertical,0.6068291280623302,-0.2008181028227623,0.723776212156737,-0.2599583575857518,-0.7740082740783691,0.606195330619812,-0.1828610002994537,0,0,0,-1,-1,37008.26910400001,unknown,2,2025-04-22T16:19:47.510+03:00,2025-04-21T17:08:51.449+03:00,8558,1.051444,0,0,7113.948,7,22,2025-04-22T16:18:58.504+03:00,767020792.7706833,0,-12.38,100.351,1,0.5,2025-04-22T16:19:47.554+03:00,104,1.733333333333333,2025-04-22T14:20:19.516+03:00,0.02197104130929222,0
2025-04-22T16:19:54.128+03:00,1745327988.44907,40.95227823160536,29.14031067983604,76.15584,-1,-1,-1,-1,30,24.04358133289925,-9999,37014.882312875,-0.7699737548828125,0.6052398681640625,-0.1771697998046875,37014.874772875,-2.974106727384025,-1.338714052526138,-0.6512351953687118,0.003312389831990004,0.009002585895359516,-0.002104929182678461,0.003840208053588867,0.0009473562240600586,0.001701891422271729,XArbitraryZVertical,0.6068013321546246,-0.2008153000276248,0.7238060638883438,-0.2599422433328557,-0.7740122079849243,0.6061692833900452,-0.1829307228326797,0,0,0,-1,-1,37008.26910400001,unknown,2,2025-04-22T16:19:47.510+03:00,2025-04-21T17:08:51.449+03:00,8558,1.051444,0,0,7113.948,7,22,2025-04-22T16:18:58.504+03:00,767020792.7706833,0,-12.38,100.351,1,0.5,2025-04-22T16:19:47.554+03:00,104,1.733333333333333,2025-04-22T14:20:19.516+03:00,0.02197104130929222,0
2025-04-22T16:19:54.138+03:00,1745327988.44907,40.95227823160536,29.14031067983604,76.15584,-1,-1,-1,-1,30,24.04358133289925,-9999,37014.892387875,-0.7713775634765625,0.6101531982421875,-0.1771240234375,37014.884848875,-2.974052202809985,-1.338586384478545,-0.651210879625417,0.01345956604927778,0.01456086896359921,-0.00561897037550807,0.004029572010040283,-0.00196307897567749,0.006198599934577942,XArbitraryZVertical,0.6067622521626015,-0.2008061486706042,0.7238413333328779,-0.2599422933501567,-0.7740031480789185,0.6061499118804932,-0.1830329149961472,0,0,0,-1,-1,37008.26910400001,unknown,2,2025-04-22T16:19:47.510+03:00,2025-04-21T17:08:51.449+03:00,8558,1.051444,0,0,7113.948,7,22,2025-04-22T16:18:58.504+03:00,767020792.7706833,0,-12.38,100.351,1,0.5,2025-04-22T16:19:47.554+03:00,104,1.733333333333333,2025-04-22T14:20:19.516+03:00,0.02197104130929222,0
2025-04-22T16:19:54.148+03:00,1745327988.44907,40.95227823160536,29.14031067983604,76.15584,-1,-1,-1,-1,30,24.04358133289925,-9999,37014.902462875,-0.7685546875,0.611602783203125,-0.1795501708984375,37014.894923875,-2.973909670307611,-1.338369125647021,-0.6511419485680843,0.01677260547876358,0.0159258060157299,-0.004427439067512751,0.002474069595336914,0.002409994602203369,0.006437435746192932,XArbitraryZVertical,0.6067025981156132,-0.2007650517705145,0.7238990437728693,-0.259952603365341,-0.7740040421485901,0.6060950756072998,-0.183210700750351,0,0,0,-1,-1,37008.26910400001,unknown,2,2025-04-22T16:19:47.510+03:00,2025-04-21T17:08:51.449+03:00,8558,1.051444,0,0,7113.948,7,22,2025-04-22T16:18:58.504+03:00,767020792.7706833,0,-12.38,100.351,1,0.5,2025-04-22T16:19:47.554+03:00,104,1.733333333333333,2025-04-22T14:20:19.516+03:00,0.02197104130929222,0
2025-04-22T16:19:54.158+03:00,1745327988.44907,40.95227823160536,29.14031067983604,76.15584,-1,-1,-1,-1,30,24.04358133289925,-9999,37014.912538875,-0.76513671875,0.60650634765625,-0.18133544921875,37014.904998875,-2.973763230765779,-1.338154899574671,-0.6510479953579384,0.009467554278671741,0.01080774329602718,-0.008318583481013775,0.004443347454071045,0.006162106990814209,0.004449620842933655,XArbitraryZVertical,0.6066461133459362,-0.2007129027452286,0.7239590817042292,-0.2599575773407063,-0.774020254611969,0.6060203909873962,-0.1833896487951279,0,0,0,-1,-1,37008.26910400001,unknown,2,2025-04-22T16:19:47.510+03:00,2025-04-21T17:08:51.449+03:00,8558,1.051444,0,0,7113.948,7,22,2025-04-22T16:18:58.504+03:00,767020792.7706833,0,-12.38,100.351,1,0.5,2025-04-22T16:19:47.554+03:00,104,1.733333333333333,2025-04-22T14:20:19.516+03:00,0.02197104130929222,0
2025-04-22T16:19:54.168+03:00,1745327988.44907,40.95227823160536,29.14031067983604,76.15584,-1,-1,-1,-1,30,24.04358133289925,-9999,37014.922613875,-0.7641143798828125,0.5983123779296875,-0.1825714111328125,37014.915074875,-2.97366464854062,-1.337986954709867,-0.6509734544241026,0.005916894879192114,0.005807258188724518,-0.008172442205250263,0.008042335510253906,0.002788245677947998,0.003186225891113281,XArbitraryZVertical,0.6066002517942,-0.2006766036271193,0.724008399274584,-0.2599553627839995,-0.7740334272384644,0.6059610843658447,-0.1835300773382187,0,0,0,-1,-1,37008.26910400001,unknown,2,2025-04-22T16:19:47.510+03:00,2025-04-21T17:08:51.449+03:00,8558,1.051444,0,0,7113.948,7,22,2025-04-22T16:18:58.504+03:00,767020792.7706833,0,-12.38,100.351,1,0.5,2025-04-22T16:19:47.554+03:00,104,1.733333333333333,2025-04-22T14:20:19.516+03:00,0.02197104130929222,0
2025-04-22T16:19:54.178+03:00,1745327988.44907,40.95227823160536,29.14031067983604,76.15584,-1,-1,-1,-1,30,24.04358133289925,-9999,37014.932689875,-0.7693328857421875,0.59417724609375,-0.1786956787109375,37014.925149875,-2.973611433245641,-1.337863082552408,-0.6509268730311549,0.001889130100607872,0.00767067214474082,-0.01060151215642691,0.009389817714691162,-0.004788756370544434,0.001366004347801208,XArbitraryZVertical,0.6065638935816853,-0.2006589202539028,0.7240460758252921,-0.2599490424969624,-0.7740381956100464,0.6059240102767944,-0.1836324781179428,0,0,0,-1,-1,37008.26910400001,unknown,2,2025-04-22T16:19:47.510+03:00,2025-04-21T17:08:51.449+03:00,8558,1.051444,0,0,7113.948,7,22,2025-04-22T16:18:58.504+03:00,767020792.7706833,0,-12.38,100.351,1,0.5,2025-04-22T16:19:47.554+03:00,104,1.733333333333333,2025-04-22T14:20:19.516+03:00,0.02197104130929222,0
2025-04-22T16:19:54.188+03:00,1745327988.44907,40.95227823160536,29.14031067983604,76.15584,-1,-1,-1,-1,30,24.04358133289925,-9999,37014.942764875,-0.775238037109375,0.595672607421875,-0.17938232421875,37014.935225875,-2.973587716400576,-1.337725011977824,-0.6508851221286523,0.0008222011383622885,0.009005381725728512,-0.006070043426007032,0.007191777229309082,-0.01081335544586182,0.003325045108795166,XArbitraryZVertical,0.6065191145768212,-0.2006538700681064,0.7240910499063181,-0.2599320033760706,-0.7740374207496643,0.6058908104896545,-0.1837451756000519,0,0,0,-1,-1,37008.26910400001,unknown,2,2025-04-22T16:19:47.510+03:00,2025-04-21T17:08:51.449+03:00,8558,1.051444,0,0,7113.948,7,22,2025-04-22T16:18:58.504+03:00,767020792.7706833,0,-12.38,100.351,1,0.5,2025-04-22T16:19:47.554+03:00,104,1.733333333333333,2025-04-22T14:20:19.516+03:00,0.02197104130929222,0
2025-04-22T16:19:54.198+03:00,1745327988.44907,40.95227823160536,29.14031067983604,76.15584,-1,-1,-1,-1,30,24.04358133289925,-9999,37014.952839875,-0.7738800048828125,0.5979461669921875,-0.1833648681640625,37014.945300875,-2.97360611235079,-1.337611003411006,-0.6508684403506382,-0.006000550929456949,0.009078086353838444,-0.004075868055224419,0.000207364559173584,-0.01156306266784668,0.00559765100479126,XArbitraryZVertical,0.6064771215142121,-0.2006679514257735,0.7241304794881472,-0.2599092016654562,-0.7740262150764465,0.6058775186538696,-0.1838357448577881,0,0,0,-1,-1,37008.26910400001,unknown,2,2025-04-22T16:19:47.510+03:00,2025-04-21T17:08:51.449+03:00,8558,1.051444,0,0,7113.948,7,22,2025-04-22T16:18:58.504+03:00,767020792.7706833,0,-12.38,100.351,1,0.5,2025-04-22T16:19:47.554+03:00,104,1.733333333333333,2025-04-22T14:20:19.516+03:00,0.02197104130929222,0
2025-04-22T16:19:54.208+03:00,1745327988.44907,40.95227823160536,29.14031067983604,76.15584,-1,-1,-1,-1,30,24.04358133289925,-9999,37014.962915875,-0.77239990234375,0.600830078125,-0.185455322265625,37014.955375875,-2.973683601715602,-1.337565269403296,-0.6508435015167306,-0.007238388527184725,0.01154284179210663,-0.005038867238909006,-0.0006254911422729492,-0.008766055107116699,0.001303017139434814,XArbitraryZVertical,0.6064544673375123,-0.2006879395003926,0.7241582171213452,-0.2598695073560343,-0.7740325927734375,0.6058576703071594,-0.1838746666908264,0,0,0,-1,-1,37008.26910400001,unknown,2,2025-04-22T16:19:47.510+03:00,2025-04-21T17:08:51.449+03:00,8558,1.051444,0,0,7113.948,7,22,2025-04-22T16:18:58.504+03:00,767020792.7706833,0,-12.38,100.351,1,0.5,2025-04-22T16:19:47.554+03:00,104,1.733333333333333,2025-04-22T14:20:19.516+03:00,0.02197104130929222,0
2025-04-22T16:19:54.219+03:00,1745327988.44907,40.95227823160536,29.14031067983604,76.15584,-1,-1,-1,-1,30,24.04358133289925,-9999,37014.972990875,-0.772918701171875,0.6001129150390625,-0.186126708984375,37014.965451875,-2.973835055940037,-1.337538700374765,-0.6508437060762267,-0.009883440099656582,0.01428030524402857,-0.002766125602647662,0.001444637775421143,-0.005882382392883301,-0.001102551817893982,XArbitraryZVertical,0.6064296388837243,-0.200737399906618,0.7241858581725957,-0.2598120691619592,-0.7740275263786316,0.6058578491210938,-0.1838951855897903,0,0,0,-1,-1,37008.26910400001,unknown,2,2025-04-22T16:19:47.510+03:00,2025-04-21T17:08:51.449+03:00,8558,1.051444,0,0,7113.948,7,22,2025-04-22T16:18:58.504+03:00,767020792.7706833,0,-12.38,100.351,1,0.5,2025-04-22T16:19:47.554+03:00,104,1.733333333333333,2025-04-22T14:20:19.516+03:00,0.02197104130929222,0
2025-04-22T16:19:54.229+03:00,1745327988.44907,40.95227823160536,29.14031067983604,76.15584,-1,-1,-1,-1,30,24.04358133289925,-9999,37014.983065875,-0.77313232421875,0.602935791015625,-0.186370849609375,37014.975526875,-2.974006617040974,-1.337549910048081,-0.650872188050427,-0.01277743093669415,0.0102576669305563,-0.001246359548531473,0.001109540462493896,-0.005615055561065674,-0.002808928489685059,XArbitraryZVertical,0.6064145427969889,-0.2007987400772107,0.7242005630536607,-0.259759097742055,-0.7740129232406616,0.6058804988861084,-0.1838825345039368,0,0,0,-1,-1,37008.26910400001,unknown,2,2025-04-22T16:19:47.510+03:00,2025-04-21T17:08:51.449+03:00,8558,1.051444,0,0,7113.948,7,22,2025-04-22T16:18:58.504+03:00,767020792.7706833,0,-12.38,100.351,1,0.5,2025-04-22T16:19:47.554+03:00,104,1.733333333333333,2025-04-22T14:20:19.516+03:00,0.02197104130929222,0
2025-04-22T16:19:54.239+03:00,1745327988.44907,40.95227823160536,29.14031067983604,76.15584,-1,-1,-1,-1,30,24.04358133289925,-9999,37014.99314187501,-0.77581787109375,0.606842041015625,-0.1856842041015625,37014.985601875,-2.974175256077509,-1.337571878036736,-0.6509393393017626,-0.01296039018779993,0.01047524716705084,0.001752626150846481,0.001547038555145264,-0.004798650741577148,-0.002469077706336975,XArbitraryZVertical,0.6064010107031029,-0.2008724380792685,0.7242058506284964,-0.2597191760042414,-0.7739774584770203,0.6059339046478271,-0.1838561594486237,0,0,0,-1,-1,37008.26910400001,unknown,2,2025-04-22T16:19:47.510+03:00,2025-04-21T17:08:51.449+03:00,8558,1.051444,0,0,7113.948,7,22,2025-04-22T16:18:58.504+03:00,767020792.7706833,0,-12.38,100.351,1,0.5,2025-04-22T16:19:47.554+03:00,104,1.733333333333333,2025-04-22T14:20:19.516+03:00,0.02197104130929222,0
2025-04-22T16:19:54.249+03:00,1745327988.44907,40.95227823160536,29.14031067983604,76.15584,-1,-1,-1,-1,30,24.04358133289925,-9999,37015.003216875,-0.782379150390625,0.604583740234375,-0.185791015625,37014.99567787501,-2.974269159441825,-1.337492916190523,-0.6510159861887951,-0.001961867557838559,0.0155754005536437,0.00524439662694931,-0.001015186309814453,-0.0002058744430541992,-0.002723917365074158,XArbitraryZVertical,0.6063578100695614,-0.2009402080525199,0.7242303348210417,-0.259698902077562,-0.773917555809021,0.6059948801994324,-0.1839064806699753,0,0,0,-1,-1,37008.26910400001,unknown,2,2025-04-22T16:19:47.510+03:00,2025-04-21T17:08:51.449+03:00,8558,1.051444,0,0,7113.948,7,22,2025-04-22T16:18:58.504+03:00,767020792.7706833,0,-12.38,100.351,1,0.5,2025-04-22T16:19:47.554+03:00,104,1.733333333333333,2025-04-22T14:20:19.516+03:00,0.02197104130929222,0
2025-04-22T16:19:54.259+03:00,1745327988.44907,40.95227823160536,29.14031067983604,76.15584,-1,-1,-1,-1,30,24.04358133289925,-9999,37015.013292875,-0.78662109375,0.605255126953125,-0.1884765625,37015.005752875,-2.974235873759852,-1.337265777696204,-0.6510922429740674,0.003264586208388209,0.02555746026337147,0.008998388424515724,-0.006259381771087646,3.874301910400391e-05,-0.0008651614189147949,XArbitraryZVertical,0.6062737318933976,-0.2009884827710602,0.7242835291370747,-0.2597096407992997,-0.7738308906555176,0.6060555577278137,-0.1840715855360031,0,0,0,-1,-1,37008.26910400001,unknown,2,2025-04-22T16:19:47.510+03:00,2025-04-21T17:08:51.449+03:00,8558,1.051444,0,0,7113.948,7,22,2025-04-22T16:18:58.504+03:00,767020792.7706833,0,-12.38,100.351,1,0.5,2025-04-22T16:19:47.554+03:00,104,1.733333333333333,2025-04-22T14:20:19.516+03:00,0.02197104130929222,0
2025-04-22T16:19:54.269+03:00,1745327988.44907,40.95227823160536,29.14031067983604,76.15584,-1,-1,-1,-1,30,24.04358133289925,-9999,37015.023367875,-0.7795257568359375,0.6116790771484375,-0.18768310546875,37015.015828875,-2.974162496761428,-1.336951511027839,-0.6511270850291362,0.007912135683000088,0.03082446195185184,0.003935885615646839,-0.01308214664459229,-0.002491414546966553,-0.003434479236602783,XArbitraryZVertical,0.606164929737262,-0.2010202434179964,0.7243640758220592,-0.2597144557121335,-0.7737524509429932,0.6060832738876343,-0.1843098849058151,0,0,0,-1,-1,37008.26910400001,unknown,2,2025-04-22T16:19:47.510+03:00,2025-04-21T17:08:51.449+03:00,8558,1.051444,0,0,7113.948,7,22,2025-04-22T16:18:58.504+03:00,767020792.7706833,0,-12.38,100.351,1,0.5,2025-04-22T16:19:47.554+03:00,104,1.733333333333333,2025-04-22T14:20:19.516+03:00,0.02197104130929222,0
2025-04-22T16:19:54.280+03:00,1745327988.44907,40.95227823160536,29.14031067983604,76.15584,-1,-1,-1,-1,30,24.04358133289925,-9999,37015.033442875,-0.7733306884765625,0.6108856201171875,-0.1938323974609375,37015.025903875,-2.974027778638622,-1.336548585386953,-0.6511168073188621,0.01413061656057835,0.03694706782698631,0.004922586493194103,-0.008694827556610107,0.003482937812805176,-0.002770304679870605,XArbitraryZVertical,0.6060332184970484,-0.2010278415620046,0.7244702775056487,-0.2597198457264906,-0.7736842632293701,0.6060751080513,-0.1846230924129486,0,0,0,-1,-1,37008.26910400001,unknown,2,2025-04-22T16:19:47.510+03:00,2025-04-21T17:08:51.449+03:00,8558,1.051444,0,0,7113.948,7,22,2025-04-22T16:18:58.504+03:00,767020792.7706833,0,-12.38,100.351,1,0.5,2025-04-22T16:19:47.554+03:00,104,1.733333333333333,2025-04-22T14:20:19.516+03:00,0.02197104130929222,0
2025-04-22T16:19:54.289+03:00,1745327988.44907,40.95227823160536,29.14031067983604,76.15584,-1,-1,-1,-1,30,24.04358133289925,-9999,37015.04351887501,-0.7702178955078125,0.6119842529296875,-0.204345703125,37015.035978875,-2.973870022710624,-1.336087952273659,-0.651103204800772,0.01343180239200592,0.0384267196059227,0.005311408080160618,-0.002073407173156738,0.005553603172302246,-0.005662128329277039,XArbitraryZVertical,0.6058831375161099,-0.2010347294163679,0.7245912179928744,-0.2597268865650313,-0.7736069560050964,0.6060642600059509,-0.1849813163280487,0,0,0,-1,-1,37008.26910400001,unknown,2,2025-04-22T16:19:47.510+03:00,2025-04-21T17:08:51.449+03:00,8558,1.051444,0,0,7113.948,7,22,2025-04-22T16:18:58.504+03:00,767020792.7706833,0,-12.38,100.351,1,0.5,2025-04-22T16:19:47.554+03:00,104,1.733333333333333,2025-04-22T14:20:19.516+03:00,0.02197104130929222,0
2025-04-22T16:19:54.299+03:00,1745327988.44907,40.95227823160536,29.14031067983604,76.15584,-1,-1,-1,-1,30,24.04358133289925,-9999,37015.053593875,-0.769287109375,0.6156005859375,-0.2083740234375,37015.04605487501,-2.973614397633958,-1.335509304936184,-0.651072652329429,0.03280816599726677,0.04616133868694305,0.0006095974240452051,0.002170979976654053,0.005028665065765381,-0.01518945395946503,XArbitraryZVertical,0.6057012246311557,-0.2010208636544011,0.7247379462822375,-0.259752721299785,-0.773517906665802,0.6060400009155273,-0.1854332834482193,0,0,0,-1,-1,37008.26910400001,unknown,2,2025-04-22T16:19:47.510+03:00,2025-04-21T17:08:51.449+03:00,8558,1.051444,0,0,7113.948,7,22,2025-04-22T16:18:58.504+03:00,767020792.7706833,0,-12.38,100.351,1,0.5,2025-04-22T16:19:47.554+03:00,104,1.733333333333333,2025-04-22T14:20:19.516+03:00,0.02197104130929222,0
2025-04-22T16:19:54.309+03:00,1745327988.44907,40.95227823160536,29.14031067983604,76.15584,-1,-1,-1,-1,30,24.04358133289925,-9999,37015.063668875,-0.76416015625,0.6242523193359375,-0.22076416015625,37015.056129875,-2.9730700901417,-1.334668033699985,-0.6509353622011308,0.05239624530076981,0.05485815927386284,-0.004624180030077696,0.003804564476013184,0.007853984832763672,-0.0205923467874527,XArbitraryZVertical,0.6054602670336037,-0.2009132790534978,0.7249426213766206,-0.2598267684440378,-0.7734426259994507,0.6059307456016541,-0.1861034333705902,0,0,0,-1,-1,37008.26910400001,unknown,2,2025-04-22T16:19:47.510+03:00,2025-04-21T17:08:51.449+03:00,8558,1.051444,0,0,7113.948,7,22,2025-04-22T16:18:58.504+03:00,767020792.7706833,0,-12.38,100.351,1,0.5,2025-04-22T16:19:47.554+03:00,104,1.733333333333333,2025-04-22T14:20:19.516+03:00,0.02197104130929222,0
2025-04-22T16:19:54.319+03:00,1745327988.44907,40.95227823160536,29.14031067983604,76.15584,-1,-1,-1,-1,30,24.04358133289925,-9999,37015.073744875,-0.7667694091796875,0.6195068359375,-0.2314605712890625,37015.066204875,-2.972392293310233,-1.333659485938177,-0.6507020328795462,0.05667088553309441,0.06633531302213669,-0.01312525663524866,0.007019221782684326,0.01449406147003174,-0.02878189086914062,XArbitraryZVertical,0.605178375271286,-0.2007507128889386,0.7251946446244293,-0.2599055605996145,-0.7733917832374573,0.6057451367378235,-0.1869165748357773,0,0,0,-1,-1,37008.26910400001,unknown,2,2025-04-22T16:19:47.510+03:00,2025-04-21T17:08:51.449+03:00,8558,1.051444,0,0,7113.948,7,22,2025-04-22T16:18:58.504+03:00,767020792.7706833,0,-12.38,100.351,1,0.5,2025-04-22T16:19:47.554+03:00,104,1.733333333333333,2025-04-22T14:20:19.516+03:00,0.02197104130929222,0
2025-04-22T16:19:54.329+03:00,1745327988.44907,40.95227823160536,29.14031067983604,76.15584,-1,-1,-1,-1,30,24.04358133289925,-9999,37015.083819875,-0.779449462890625,0.6063232421875,-0.238739013671875,37015.076280875,-2.97179825641033,-1.332557839255552,-0.6504026455684679,0.06046761944890022,0.07665307074785233,-0.02019548416137695,0.008743762969970703,0.01831811666488647,-0.04050621390342712,XArbitraryZVertical,0.60485847039771,-0.2006005833512144,0.725495667023157,-0.2599262502098555,-0.7733616828918457,0.6055068969726562,-0.1878112703561783,0,0,0,-1,-1,37008.26910400001,unknown,2,2025-04-22T16:19:47.510+03:00,2025-04-21T17:08:51.449+03:00,8558,1.051444,0,0,7113.948,7,22,2025-04-22T16:18:58.504+03:00,767020792.7706833,0,-12.38,100.351,1,0.5,2025-04-22T16:19:47.554+03:00,104,1.733333333333333,2025-04-22T14:20:19.516+03:00,0.02197104130929222,0
2025-04-22T16:19:54.339+03:00,1745327988.44907,40.95227823160536,29.14031067983604,76.15584,-1,-1,-1,-1,30,24.04358133289925,-9999,37015.093895875,-0.7843475341796875,0.6082763671875,-0.2570953369140625,37015.086355875,-2.971084532990569,-1.331205723748173,-0.650063756648522,0.05572346597909927,0.1125101372599602,-0.0103716142475605,-0.001595973968505859,0.005404293537139893,-0.04603436589241028,XArbitraryZVertical,0.6044620112180354,-0.2004318892390894,0.7258625571061575,-0.2599544280791563,-0.7733063697814941,0.6052371859550476,-0.1889054626226425,0,0,0,-1,-1,37008.26910400001,unknown,2,2025-04-22T16:19:47.510+03:00,2025-04-21T17:08:51.449+03:00,8558,1.051444,0,0,7113.948,7,22,2025-04-22T16:18:58.504+03:00,767020792.7706833,0,-12.38,100.351,1,0.5,2025-04-22T16:19:47.554+03:00,104,1.733333333333333,2025-04-22T14:20:19.516+03:00,0.02197104130929222,0
2025-04-22T16:19:54.350+03:00,1745327988.44907,40.95227823160536,29.14031067983604,76.15584,-1,-1,-1,-1,30,24.04358133289925,-9999,37015.103970875,-0.7799224853515625,0.61395263671875,-0.2574615478515625,37015.096431875,-2.970813801809833,-1.32970877114921,-0.6499748526226196,0.007238621357828379,0.1576037108898163,0.004037884529680014,-0.0122949481010437,0.0006075501441955566,-0.06032124161720276,XArbitraryZVertical,0.6039516028380993,-0.2005108748362768,0.7262929312369417,-0.2598777141996249,-0.7730749249458313,0.6051663756370544,-0.190075695514679,0,0,0,-1,-1,37008.26910400001,unknown,2,2025-04-22T16:19:47.510+03:00,2025-04-21T17:08:51.449+03:00,8558,1.051444,0,0,7113.948,7,22,2025-04-22T16:18:58.504+03:00,767020792.7706833,0,-12.38,100.351,1,0.5,2025-04-22T16:19:47.554+03:00,104,1.733333333333333,2025-04-22T14:20:19.516+03:00,0.02197104130929222,0
2025-04-22T16:19:54.360+03:00,1745327988.44907,40.95227823160536,29.14031067983604,76.15584,-1,-1,-1,-1,30,24.04358133289925,-9999,37015.114045875,-0.7858123779296875,0.59466552734375,-0.262664794921875,37015.106506875,-2.97064268457023,-1.327554928418751,-0.6500736190399277,0.007214653305709362,0.2513046264648438,0.03068387880921364,-0.007820248603820801,0.009775698184967041,-0.06810089945793152,XArbitraryZVertical,0.6031797343357923,-0.200776572303371,0.7269058895013325,-0.2597514865147045,-0.7726057767868042,0.6052449941635132,-0.191725954413414,0,0,0,-1,-1,37008.26910400001,unknown,2,2025-04-22T16:19:47.510+03:00,2025-04-21T17:08:51.449+03:00,8558,1.051444,0,0,7113.948,7,22,2025-04-22T16:18:58.504+03:00,767020792.7706833,0,-12.38,100.351,1,0.5,2025-04-22T16:19:47.554+03:00,104,1.733333333333333,2025-04-22T14:20:19.516+03:00,0.02197104130929222,0
2025-04-22T16:19:54.370+03:00,1745327988.44907,40.95227823160536,29.14031067983604,76.15584,-1,-1,-1,-1,30,24.04358133289925,-9999,37015.124121875,-0.7947540283203125,0.57427978515625,-0.25592041015625,37015.116581875,-2.971047175365711,-1.325044802950044,-0.6506879273030985,-0.1018239483237267,0.2771623432636261,0.06892687082290649,-0.01084667444229126,-0.002309918403625488,-0.06426906585693359,XArbitraryZVertical,0.6021856688495409,-0.2014580139889071,0.7276224271521771,-0.2595239211308599,-0.7717612385749817,0.6057339310646057,-0.1935741752386093,0,0,0,-1,-1,37008.26910400001,unknown,2,2025-04-22T16:19:47.510+03:00,2025-04-21T17:08:51.449+03:00,8558,1.051444,0,0,7113.948,7,22,2025-04-22T16:18:58.504+03:00,767020792.7706833,0,-12.38,100.351,1,0.5,2025-04-22T16:19:47.554+03:00,104,1.733333333333333,2025-04-22T14:20:19.516+03:00,0.02197104130929222,0
2025-04-22T16:19:54.380+03:00,1745327988.44907,40.95227823160536,29.14031067983604,76.15584,-1,-1,-1,-1,30,24.04358133289925,-9999,37015.13419687501,-0.8156280517578125,0.5398406982421875,-0.2561798095703125,37015.126657875,-2.972397304579938,-1.322937438187392,-0.6519051758561608,-0.1667789816856384,0.3015033602714539,0.1106996163725853,-0.01984530687332153,-0.02319073677062988,-0.06735596060752869,XArbitraryZVertical,0.601201613170528,-0.2026008229908552,0.7282482538108264,-0.2591598127618834,-0.7706360816955566,0.6067019701004028,-0.1950190514326096,0,0,0,-1,-1,37008.26910400001,unknown,2,2025-04-22T16:19:47.510+03:00,2025-04-21T17:08:51.449+03:00,8558,1.051444,0,0,7113.948,7,22,2025-04-22T16:18:58.504+03:00,767020792.7706833,0,-12.38,100.351,1,0.5,2025-04-22T16:19:47.554+03:00,104,1.733333333333333,2025-04-22T14:20:19.516+03:00,0.02197104130929222,0
2025-04-22T16:19:54.390+03:00,1745327988.44907,40.95227823160536,29.14031067983604,76.15584,-1,-1,-1,-1,30,24.04358133289925,-9999,37015.144271875,-0.832122802734375,0.555877685546875,-0.2969207763671875,37015.13673287501,-2.974661765742271,-1.32131116291094,-0.6535297872090685,-0.2478418201208115,0.2735599279403687,0.09749263525009155,-0.03726345300674438,-0.05670791864395142,-0.05276626348495483,XArbitraryZVertical,0.6002706305690909,-0.2041101209091098,0.7287854323024481,-0.2586230734649875,-0.7693617939949036,0.6079926490783691,-0.1960284560918808,0,0,0,-1,-1,37008.26910400001,unknown,2,2025-04-22T16:19:47.510+03:00,2025-04-21T17:08:51.449+03:00,8558,1.051444,0,0,7113.948,7,22,2025-04-22T16:18:58.504+03:00,767020792.7706833,0,-12.38,100.351,1,0.5,2025-04-22T16:19:47.554+03:00,104,1.733333333333333,2025-04-22T14:20:19.516+03:00,0.02197104130929222,0
2025-04-22T16:19:54.400+03:00,1745327988.44907,40.95227823160536,29.14031067983604,76.15584,-1,-1,-1,-1,30,24.04358133289925,-9999,37015.154347875,-0.82073974609375,0.601531982421875,-0.336822509765625,37015.146807875,-2.977687874991792,-1.320147163865872,-0.6553971599185312,-0.2898371815681458,0.3212502300739288,0.147188812494278,-0.06030654907226562,-0.06803137063980103,-0.08605784177780151,XArbitraryZVertical,0.5994103973915366,-0.2058791061007141,0.7292443896242999,-0.2579216154277725,-0.7680320143699646,0.6094741821289062,-0.1966419368982315,0,0,0,-1,-1,37008.26910400001,unknown,2,2025-04-22T16:19:47.510+03:00,2025-04-21T17:08:51.449+03:00,8558,1.051444,0,0,7113.948,7,22,2025-04-22T16:18:58.504+03:00,767020792.7706833,0,-12.38,100.351,1,0.5,2025-04-22T16:19:47.554+03:00,104,1.733333333333333,2025-04-22T14:20:19.516+03:00,0.02197104130929222,0
2025-04-22T16:19:54.410+03:00,1745327988.44907,40.95227823160536,29.14031067983604,76.15584,-1,-1,-1,-1,30,24.04358133289925,-9999,37015.164422875,-0.8310394287109375,0.6475067138671875,-0.39373779296875,37015.156883875,-2.980219784136537,-1.318351765535619,-0.6574159630189571,-0.1990038305521011,0.3267748355865479,0.1265271455049515,-0.06180810928344727,-0.02618885040283203,-0.1206009685993195,XArbitraryZVertical,0.5983563541117307,-0.2076373318031503,0.729804360024404,-0.2573752045206892,-0.7664847373962402,0.6110734343528748,-0.1977128237485886,0,0,0,-1,-1,37008.26910400001,unknown,2,2025-04-22T16:19:47.510+03:00,2025-04-21T17:08:51.449+03:00,8558,1.051444,0,0,7113.948,7,22,2025-04-22T16:18:58.504+03:00,767020792.7706833,0,-12.38,100.351,1,0.5,2025-04-22T16:19:47.554+03:00,104,1.733333333333333,2025-04-22T14:20:19.516+03:00,0.02197104130929222,0
2025-04-22T16:19:54.420+03:00,1745327988.44907,40.95227823160536,29.14031067983604,76.15584,-1,-1,-1,-1,30,24.04358133289925,-9999,37015.174497875,-0.8536834716796875,0.6770477294921875,-0.410858154296875,37015.166958875,-2.981985244482705,-1.316321415568213,-0.658991976037971,-0.1490384042263031,0.282006561756134,0.1118083894252777,-0.0555909276008606,0.01884424686431885,-0.1767066717147827,XArbitraryZVertical,0.5973231647786931,-0.2090264490112314,0.7304009364376506,-0.2569580416565774,-0.7651487588882446,0.6123201847076416,-0.199025958776474,0,0,0,-1,-1,37008.26910400001,unknown,2,2025-04-22T16:19:47.510+03:00,2025-04-21T17:08:51.449+03:00,8558,1.051444,0,0,7113.948,7,22,2025-04-22T16:18:58.504+03:00,767020792.7706833,0,-12.38,100.351,1,0.5,2025-04-22T16:19:47.554+03:00,104,1.733333333333333,2025-04-22T14:20:19.516+03:00,0.02197104130929222,0
2025-04-22T16:19:54.430+03:00,1745327988.44907,40.95227823160536,29.14031067983604,76.15584,-1,-1,-1,-1,30,24.04358133289925,-9999,37015.18457387501,-0.8316650390625,0.71466064453125,-0.4205169677734375,37015.177033875,-2.98278100064314,-1.314036900505621,-0.660391181697392,-0.03718476742506027,0.2728131115436554,0.1330126523971558,-0.08667749166488647,0.05313903093338013,-0.2078460454940796,XArbitraryZVertical,0.5963087568157239,-0.2100905685803131,0.7309738333087169,-0.2568169723670529,-0.7638625502586365,0.6134258508682251,-0.2005556374788284,0,0,0,-1,-1,37008.26910400001,unknown,2,2025-04-22T16:19:47.510+03:00,2025-04-21T17:08:51.449+03:00,8558,1.051444,0,0,7113.948,7,22,2025-04-22T16:18:58.504+03:00,767020792.7706833,0,-12.38,100.351,1,0.5,2025-04-22T16:19:47.554+03:00,104,1.733333333333333,2025-04-22T14:20:19.516+03:00,0.02197104130929222,0
2025-04-22T16:19:54.440+03:00,1745327988.44907,40.95227823160536,29.14031067983604,76.15584,-1,-1,-1,-1,30,24.04358133289925,-9999,37015.194648875,-0.8200836181640625,0.73663330078125,-0.4412841796875,37015.18710987501,-2.982862150518027,-1.311475876349242,-0.6613962983038908,-0.03481268882751465,0.2476198822259903,0.04620770737528801,-0.07938235998153687,0.08559435606002808,-0.211557075381279,XArbitraryZVertical,0.5952944673010848,-0.2108268840385637,0.7315954022691445,-0.2567967430120511,-0.7627500891685486,0.6142193078994751,-0.2023530453443527,0,0,0,-1,-1,37008.26910400001,unknown,2,2025-04-22T16:19:47.510+03:00,2025-04-21T17:08:51.449+03:00,8558,1.051444,0,0,7113.948,7,22,2025-04-22T16:18:58.504+03:00,767020792.7706833,0,-12.38,100.351,1,0.5,2025-04-22T16:19:47.554+03:00,104,1.733333333333333,2025-04-22T14:20:19.516+03:00,0.02197104130929222,0
2025-04-22T16:19:54.450+03:00,1745327988.44907,40.95227823160536,29.14031067983604,76.15584,-1,-1,-1,-1,30,24.04358133289925,-9999,37015.204724875,-0.847137451171875,0.7192535400390625,-0.4536895751953125,37015.197184875,-2.983176956975103,-1.309433676334018,-0.6615938970804542,-0.01141262706369162,0.1899535953998566,-0.00802453700453043,-0.05609554052352905,0.1194807887077332,-0.2311798185110092,XArbitraryZVertical,0.5945002858147028,-0.2112580130404918,0.7322133174605302,-0.2565207999713011,-0.7622178792953491,0.6143752336502075,-0.2038789242506027,0,0,0,-1,-1,37008.26910400001,unknown,2,2025-04-22T16:19:47.510+03:00,2025-04-21T17:08:51.449+03:00,8558,1.051444,0,0,7113.948,7,22,2025-04-22T16:18:58.504+03:00,767020792.7706833,0,-12.38,100.351,1,0.5,2025-04-22T16:19:47.554+03:00,104,1.733333333333333,2025-04-22T14:20:19.516+03:00,0.02197104130929222,0
2025-04-22T16:19:54.460+03:00,1745327988.44907,40.95227823160536,29.14031067983604,76.15584,-1,-1,-1,-1,30,24.04358133289925,-9999,37015.214799875,-0.8602752685546875,0.72320556640625,-0.4591522216796875,37015.207260875,-2.982736628315129,-1.307309493214959,-0.6614353859441833,0.1060615405440331,0.1806357204914093,-0.009366771206259727,-0.07476204633712769,0.1130599975585938,-0.244062215089798,XArbitraryZVertical,0.5937796896493536,-0.2113390327116621,0.7328120843983414,-0.256413763280096,-0.7618774175643921,0.6142501831054688,-0.2055229842662811,0,0,0,-1,-1,37008.26910400001,unknown,2,2025-04-22T16:19:47.510+03:00,2025-04-21T17:08:51.449+03:00,8558,1.051444,0,0,7113.948,7,22,2025-04-22T16:18:58.504+03:00,767020792.7706833,0,-12.38,100.351,1,0.5,2025-04-22T16:19:47.554+03:00,104,1.733333333333333,2025-04-22T14:20:19.516+03:00,0.02197104130929222,0
2025-04-22T16:19:54.471+03:00,1745327988.44907,40.95227823160536,29.14031067983604,76.15584,-1,-1,-1,-1,30,24.04358133289925,-9999,37015.224874875,-0.8690185546875,0.774078369140625,-0.5005035400390625,37015.217335875,-2.980268844432384,-1.304147351694259,-0.6605368591008137,0.3179519772529602,0.1427783668041229,-0.05566276237368584,-0.09496426582336426,0.1020504832267761,-0.2477800846099854,XArbitraryZVertical,0.5929421173407509,-0.210669007044894,0.7335696086472199,-0.2567367936165199,-0.761755645275116,0.6135408878326416,-0.2080764323472977,0,0,0,-1,-1,37008.26910400001,unknown,2,2025-04-22T16:19:47.510+03:00,2025-04-21T17:08:51.449+03:00,8558,1.051444,0,0,7113.948,7,22,2025-04-22T16:18:58.504+03:00,767020792.7706833,0,-12.38,100.351,1,0.5,2025-04-22T16:19:47.554+03:00,104,1.733333333333333,2025-04-22T14:20:19.516+03:00,0.02197104130929222,0
2025-04-22T16:19:54.480+03:00,1745327988.44907,40.95227823160536,29.14031067983604,76.15584,-1,-1,-1,-1,30,24.04358133289925,-9999,37015.234950875,-0.8636627197265625,0.7904205322265625,-0.5391082763671875,37015.227410875,-2.975531007210998,-1.300215150657716,-0.6587769728388282,0.4668924510478973,0.05730793252587318,-0.08345950394868851,-0.1045146584510803,0.141374409198761,-0.2699344754219055,XArbitraryZVertical,0.5921142479291192,-0.2090968597964561,0.7343924772865297,-0.2575785763125534,-0.7619707584381104,0.6121501922607422,-0.211358442902565,0,0,0,-1,-1,37008.26910400001,unknown,2,2025-04-22T16:19:47.510+03:00,2025-04-21T17:08:51.449+03:00,8558,1.051444,0,0,7113.948,7,22,2025-04-22T16:18:58.504+03:00,767020792.7706833,0,-12.38,100.351,1,0.5,2025-04-22T16:19:47.554+03:00,104,1.733333333333333,2025-04-22T14:20:19.516+03:00,0.02197104130929222,0
2025-04-22T16:19:54.491+03:00,1745327988.44907,40.95227823160536,29.14031067983604,76.15584,-1,-1,-1,-1,30,24.04358133289925,-9999,37015.245025875,-0.8678741455078125,0.735809326171875,-0.54437255859375,37015.237486875,-2.970268039533695,-1.296921172421929,-0.6566640238313428,0.4240390360355377,-0.0452018640935421,-0.0948219820857048,-0.1047191619873047,0.1836349368095398,-0.3144243657588959,XArbitraryZVertical,0.5915903524773763,-0.2071535199365065,0.7350098194453352,-0.2585896694779243,-0.7625139355659485,0.6104780435562134,-0.2142165452241898,0,0,0,-1,-1,37008.26910400001,unknown,2,2025-04-22T16:19:47.510+03:00,2025-04-21T17:08:51.449+03:00,8558,1.051444,0,0,7113.948,7,22,2025-04-22T16:18:58.504+03:00,767020792.7706833,0,-12.38,100.351,1,0.5,2025-04-22T16:19:47.554+03:00,104,1.733333333333333,2025-04-22T14:20:19.516+03:00,0.02197104130929222,0
2025-04-22T16:19:54.501+03:00,1745327988.44907,40.95227823160536,29.14031067983604,76.15584,-1,-1,-1,-1,30,24.04358133289925,-9999,37015.255100875,-0.883209228515625,0.6607208251953125,-0.539215087890625,37015.247561875,-2.966277626467566,-1.295509819410049,-0.6546812462322608,0.2815149128437042,-0.1577720791101456,-0.1141040697693825,-0.0994185209274292,0.1532547473907471,-0.3295603394508362,XArbitraryZVertical,0.5916103670993292,-0.2053937524229792,0.7352133032758802,-0.259368330962952,-0.7633743286132812,0.6089064478874207,-0.2156211584806442,0,0,0,-1,-1,37008.26910400001,unknown,2,2025-04-22T16:19:47.510+03:00,2025-04-21T17:08:51.449+03:00,8558,1.051444,0,0,7113.948,7,22,2025-04-22T16:18:58.504+03:00,767020792.7706833,0,-12.38,100.351,1,0.5,2025-04-22T16:19:47.554+03:00,104,1.733333333333333,2025-04-22T14:20:19.516+03:00,0.02197104130929222,0
2025-04-22T16:19:54.511+03:00,1745327988.44907,40.95227823160536,29.14031067983604,76.15584,-1,-1,-1,-1,30,24.04358133289925,-9999,37015.265176875,-0.895050048828125,0.604278564453125,-0.5120697021484375,37015.257636875,-2.964341502189373,-1.296519980804073,-0.6528602554766502,0.1123424023389816,-0.2769312262535095,-0.1605674475431442,-0.1124783158302307,0.08072561025619507,-0.3268424868583679,XArbitraryZVertical,0.5922950645054998,-0.2039892804832883,0.7349410079910947,-0.2596853947832669,-0.7646577954292297,0.6074609160423279,-0.2151498645544052,0,0,0,-1,-1,37008.26910400001,unknown,2,2025-04-22T16:19:47.510+03:00,2025-04-21T17:08:51.449+03:00,8558,1.051444,0,0,7113.948,7,22,2025-04-22T16:18:58.504+03:00,767020792.7706833,0,-12.38,100.351,1,0.5,2025-04-22T16:19:47.554+03:00,104,1.733333333333333,2025-04-22T14:20:19.516+03:00,0.02197104130929222,0
2025-04-22T16:19:54.521+03:00,1745327988.44907,40.95227823160536,29.14031067983604,76.15584,-1,-1,-1,-1,30,24.04358133289925,-9999,37015.27525187501,-0.9160614013671875,0.550994873046875,-0.4701995849609375,37015.267712875,-2.964769065137303,-1.300207176740312,-0.65064982945437,-0.06334900110960007,-0.4092338681221008,-0.2943324148654938,-0.1238258481025696,0.01766365766525269,-0.3125966191291809,XArbitraryZVertical,0.5937451904546887,-0.2027879458557736,0.7342400121330455,-0.2592977205714906,-0.7667380571365356,0.605703592300415,-0.2126874029636383,0,0,0,-1,-1,37008.26910400001,unknown,2,2025-04-22T16:19:47.510+03:00,2025-04-21T17:08:51.449+03:00,8558,1.051444,0,0,7113.948,7,22,2025-04-22T16:18:58.504+03:00,767020792.7706833,0,-12.38,100.351,1,0.5,2025-04-22T16:19:47.554+03:00,104,1.733333333333333,2025-04-22T14:20:19.516+03:00,0.02197104130929222,0
2025-04-22T16:19:54.531+03:00,1745327988.44907,40.95227823160536,29.14031067983604,76.15584,-1,-1,-1,-1,30,24.04358133289925,-9999,37015.285327875,-0.9143524169921875,0.495086669921875,-0.4165191650390625,37015.27778787501,-2.968282040802485,-1.307018990571376,-0.6485685839114966,-0.369917243719101,-0.5290207862854004,-0.2050687670707703,-0.1373538374900818,-0.03106355667114258,-0.2789219617843628,XArbitraryZVertical,0.5960203154450116,-0.2021530703318781,0.732983567762756,-0.2581258503642131,-0.7693843245506287,0.6040462851524353,-0.2077878415584564,0,0,0,-1,-1,37008.26910400001,unknown,2,2025-04-22T16:19:47.510+03:00,2025-04-21T17:08:51.449+03:00,8558,1.051444,0,0,7113.948,7,22,2025-04-22T16:18:58.504+03:00,767020792.7706833,0,-12.38,100.351,1,0.5,2025-04-22T16:19:47.554+03:00,104,1.733333333333333,2025-04-22T14:20:19.516+03:00,0.02197104130929222,0
2025-04-22T16:19:54.541+03:00,1745327988.44907,40.95227823160536,29.14031067983604,76.15584,-1,-1,-1,-1,30,24.04358133289925,-9999,37015.295402875,-0.7995147705078125,0.5113067626953125,-0.3598175048828125,37015.287863875,-2.974270437341652,-1.316640936980676,-0.6484489180793874,-0.4994904100894928,-0.670635998249054,-0.07968633621931076,-0.1553093194961548,-0.09062999486923218,-0.2396701276302338,XArbitraryZVertical,0.598943390445193,-0.2026574519671821,0.7308981305549042,-0.2568748452573223,-0.771418035030365,0.6039508581161499,-0.2003935426473618,0,0,0,-1,-1,37008.26910400001,unknown,2,2025-04-22T16:19:47.510+03:00,2025-04-21T17:08:51.449+03:00,8558,1.051444,0,0,7113.948,7,22,2025-04-22T16:18:58.504+03:00,767020792.7706833,0,-12.38,100.351,1,0.5,2025-04-22T16:19:47.554+03:00,104,1.733333333333333,2025-04-22T14:20:19.516+03:00,0.02197104130929222,0
