loggingTime(txt),locationTimestamp_since1970(s),locationLatitude(WGS84),locationLongitude(WGS84),locationAltitude(m),locationSpeed(m/s),locationSpeedAccuracy(m/s),locationCourse(°),locationCourseAccuracy(°),locationVerticalAccuracy(m),locationHorizontalAccuracy(m),locationFloor(Z),accelerometerTimestamp_sinceReboot(s),accelerometerAccelerationX(G),accelerometerAccelerationY(G),accelerometerAccelerationZ(G),motionTimestamp_sinceReboot(s),motionYaw(rad),motionRoll(rad),motionPitch(rad),motionRotationRateX(rad/s),motionRotationRateY(rad/s),motionRotationRateZ(rad/s),motionUserAccelerationX(G),motionUserAccelerationY(G),motionUserAccelerationZ(G),motionAttitudeReferenceFrame(txt),motionQuaternionX(R),motionQuaternionY(R),motionQuaternionZ(R),motionQuaternionW(R),motionGravityX(G),motionGravityY(G),motionGravityZ(G),motionMagneticFieldX(µT),motionMagneticFieldY(µT),motionMagneticFieldZ(µT),motionHeading(°),motionMagneticFieldCalibrationAccuracy(Z),activityTimestamp_sinceReboot(s),activity(txt),activityActivityConfidence(Z),activityActivityStartDate(txt),pedometerStartDate(txt),pedometerNumberofSteps(N),pedometerAverageActivePace(s/m),pedometerCurrentPace(s/m),pedometerCurrentCadence(steps/s),pedometerDistance(m),pedometerFloorAscended(N),pedometerFloorDescended(N),pedometerEndDate(txt),altimeterTimestamp_sinceReboot(s),altimeterReset(bool),altimeterRelativeAltitude(m),altimeterPressure(kPa),batteryState(N),batteryLevel(R),heartRateBPMTimestamp(txt),heartRateBPM(N),heartRateBPS(R),heartRateVariabilityTimestamp(txt),heartRateVariability(ms),label
2025-04-22T16:39:20.639+03:00,1745329159.184034,40.9522769728346,29.14030140780613,76.45547,-1,-1,-1,-1,30,23.87926777261467,-9999,37992.73652279167,-0.7389373779296875,0.5926361083984375,-0.179901123046875,37992.72644579167,-2.95797853370668,-1.338147677291836,-0.6443390726066125,-0.0005951986531727016,-0.007216235622763634,-0.01652532257139683,-0.04415518045425415,-0.0179675817489624,-0.00800873339176178,XArbitraryZVertical,-0.6086392956799633,0.1933751342796277,-0.7229018431764009,0.2637750146973724,-0.7779578566551208,0.6006701588630676,-0.1843285262584686,0,0,0,-1,-1,37982.98888104167,unknown,2,2025-04-22T16:39:10.860+03:00,2025-04-21T17:08:51.449+03:00,8620,1.064866,0,0,7158.132,7,22,2025-04-22T16:39:18.598+03:00,767021958.7000424,0,-13.00999,100.3599,1,0.45,2025-04-22T16:39:17.666+03:00,99,1.65,2025-04-22T14:20:19.516+03:00,0.02197104130929222,0
2025-04-22T16:39:20.640+03:00,1745329159.184034,40.9522769728346,29.14030140780613,76.45547,-1,-1,-1,-1,30,23.87926777261467,-9999,37992.74659879167,-0.758636474609375,0.5931854248046875,-0.177459716796875,37992.73652279167,-2.958130384812558,-1.338249688015597,-0.6441577890029884,-0.01301365159451962,0.005847235210239887,-0.02174398489296436,0.01457852125167847,-0.01007121801376343,0.002938568592071533,XArbitraryZVertical,-0.6086730443209913,0.1933391264987261,-0.7229179615228422,0.2636789679895304,-0.7780824303627014,0.6005252003669739,-0.1842742115259171,0,0,0,-1,-1,37982.98888104167,unknown,2,2025-04-22T16:39:10.860+03:00,2025-04-21T17:08:51.449+03:00,8620,1.064866,0,0,7158.132,7,22,2025-04-22T16:39:18.598+03:00,767021958.7000424,0,-13.00999,100.3599,1,0.45,2025-04-22T16:39:17.666+03:00,99,1.65,2025-04-22T14:20:19.516+03:00,0.02197104130929222,0
2025-04-22T16:39:20.641+03:00,1745329159.184034,40.9522769728346,29.14030140780613,76.45547,-1,-1,-1,-1,30,23.87926777261467,-9999,37992.75667479167,-0.7865142822265625,0.605316162109375,-0.17913818359375,37992.74659879167,-2.958311719225036,-1.338228732602577,-0.6440227458583702,-0.01181736029684544,0.01033332943916321,-0.01560193672776222,0.04019677639007568,-0.00848311185836792,0.007230758666992188,XArbitraryZVertical,-0.608656538535247,0.1933458297632815,-0.7229685975128384,0.2635733627505961,-0.7781575322151184,0.6004172563552856,-0.1843092143535614,0,0,0,-1,-1,37982.98888104167,unknown,2,2025-04-22T16:39:10.860+03:00,2025-04-21T17:08:51.449+03:00,8620,1.064866,0,0,7158.132,7,22,2025-04-22T16:39:18.598+03:00,767021958.7000424,0,-13.00999,100.3599,1,0.45,2025-04-22T16:39:17.666+03:00,99,1.65,2025-04-22T14:20:19.516+03:00,0.02197104130929222,0
2025-04-22T16:39:20.642+03:00,1745329159.184034,40.9522769728346,29.14030140780613,76.45547,-1,-1,-1,-1,30,23.87926777261467,-9999,37992.76675179167,-0.7662506103515625,0.6068572998046875,-0.175323486328125,37992.75667479167,-2.958515912229816,-1.338215662201318,-0.6439656505834727,-0.01746019907295704,0.01250127702951431,-0.00934357475489378,-0.008524119853973389,-0.001113295555114746,0.005020990967750549,XArbitraryZVertical,-0.6086357158752976,0.193388037828943,-0.7230079901636208,0.2634822170376837,-0.7781883478164673,0.6003715395927429,-0.1843272596597672,0,0,0,-1,-1,37982.98888104167,unknown,2,2025-04-22T16:39:10.860+03:00,2025-04-21T17:08:51.449+03:00,8620,1.064866,0,0,7158.132,7,22,2025-04-22T16:39:18.598+03:00,767021958.7000424,0,-13.00999,100.3599,1,0.45,2025-04-22T16:39:17.666+03:00,99,1.65,2025-04-22T14:20:19.516+03:00,0.02197104130929222,0
2025-04-22T16:39:20.653+03:00,1745329159.184034,40.9522769728346,29.14030140780613,76.45547,-1,-1,-1,-1,30,23.87926777261467,-9999,37992.77682779167,-0.7704315185546875,0.594451904296875,-0.1748046875,37992.76675179167,-2.958816227247143,-1.338341733093192,-0.6438603336478578,-0.01760693825781345,0.01101310178637505,-0.01077182777225971,0.005507171154022217,0.008614540100097656,0.007119536399841309,XArbitraryZVertical,-0.6086589575699357,0.1934228550519829,-0.7230251065359414,0.2633561672071521,-0.7782732248306274,0.6002873182296753,-0.1842437386512756,0,0,0,-1,-1,37982.98888104167,unknown,2,2025-04-22T16:39:10.860+03:00,2025-04-21T17:08:51.449+03:00,8620,1.064866,0,0,7158.132,7,22,2025-04-22T16:39:18.598+03:00,767021958.7000424,0,-13.00999,100.3599,1,0.45,2025-04-22T16:39:17.666+03:00,99,1.65,2025-04-22T14:20:19.516+03:00,0.02197104130929222,0
2025-04-22T16:39:20.663+03:00,1745329159.184034,40.9522769728346,29.14030140780613,76.45547,-1,-1,-1,-1,30,23.87926777261467,-9999,37992.78690479167,-0.779998779296875,0.6004486083984375,-0.182952880859375,37992.77682779167,-2.959053447822264,-1.338363888915237,-0.6437402213328198,-0.01458038948476315,0.0162881575524807,-0.0122803095728159,0.01247841119766235,-0.002321541309356689,0.01088781654834747,XArbitraryZVertical,-0.6086516932632849,0.1934465683842094,-0.7230675677455326,0.2632387267163732,-0.7783473134040833,0.6001912951469421,-0.1842430830001831,0,0,0,-1,-1,37982.98888104167,unknown,2,2025-04-22T16:39:10.860+03:00,2025-04-21T17:08:51.449+03:00,8620,1.064866,0,0,7158.132,7,22,2025-04-22T16:39:18.598+03:00,767021958.7000424,0,-13.00999,100.3599,1,0.45,2025-04-22T16:39:17.666+03:00,99,1.65,2025-04-22T14:20:19.516+03:00,0.02197104130929222,0
2025-04-22T16:39:20.674+03:00,1745329159.184034,40.9522769728346,29.14030140780613,76.45547,-1,-1,-1,-1,30,23.87926777261467,-9999,37992.79698079167,-0.7720184326171875,0.609832763671875,-0.1834259033203125,37992.78690479167,-2.959186551468499,-1.338197813865938,-0.6438070631159919,-0.008951799012720585,0.01718830689787865,-0.009877339005470276,7.963180541992188e-05,-0.003504097461700439,0.003927767276763916,XArbitraryZVertical,-0.6085745006049915,0.1935342825754278,-0.7231256445970901,0.2631933554359332,-0.7782777547836304,0.6002447605133057,-0.1843631118535995,0,0,0,-1,-1,37982.98888104167,unknown,2,2025-04-22T16:39:10.860+03:00,2025-04-21T17:08:51.449+03:00,8620,1.064866,0,0,7158.132,7,22,2025-04-22T16:39:18.598+03:00,767021958.7000424,0,-13.00999,100.3599,1,0.45,2025-04-22T16:39:17.666+03:00,99,1.65,2025-04-22T14:20:19.516+03:00,0.02197104130929222,0
2025-04-22T16:39:20.683+03:00,1745329159.184034,40.9522769728346,29.14030140780613,76.45547,-1,-1,-1,-1,30,23.87926777261467,-9999,37992.80705679167,-0.7704620361328125,0.60498046875,-0.1823883056640625,37992.79698079167,-2.959299565837171,-1.338053771817627,-0.6437507776570364,-0.01041101105511189,0.01847374811768532,-0.009237281978130341,0.001901865005493164,0.007740914821624756,0.000538170337677002,XArbitraryZVertical,-0.6085150645067602,0.1935662520400037,-0.7231929174669084,0.2631226817500721,-0.7782842516899109,0.6001996994018555,-0.1844830513000488,0,0,0,-1,-1,37982.98888104167,unknown,2,2025-04-22T16:39:10.860+03:00,2025-04-21T17:08:51.449+03:00,8620,1.064866,0,0,7158.132,7,22,2025-04-22T16:39:18.598+03:00,767021958.7000424,0,-13.00999,100.3599,1,0.45,2025-04-22T16:39:17.666+03:00,99,1.65,2025-04-22T14:20:19.516+03:00,0.02197104130929222,0
2025-04-22T16:39:20.693+03:00,1745329159.184034,40.9522769728346,29.14030140780613,76.45547,-1,-1,-1,-1,30,23.87926777261467,-9999,37992.81713379167,-0.77886962890625,0.59722900390625,-0.184356689453125,37992.80705679167,-2.959492573323959,-1.337964012300816,-0.6436347162460923,-0.01769875176250935,0.024260263890028,-0.005606593564152718,0.009689271450042725,0.007757425308227539,0.00193631649017334,XArbitraryZVertical,-0.6084713359751934,0.193592742552536,-0.7232630334573313,0.2630115119769166,-0.7783353924751282,0.6001068949699402,-0.1845689713954926,0,0,0,-1,-1,37982.98888104167,unknown,2,2025-04-22T16:39:10.860+03:00,2025-04-21T17:08:51.449+03:00,8620,1.064866,0,0,7158.132,7,22,2025-04-22T16:39:18.598+03:00,767021958.7000424,0,-13.00999,100.3599,1,0.45,2025-04-22T16:39:17.666+03:00,99,1.65,2025-04-22T14:20:19.516+03:00,0.02197104130929222,0
2025-04-22T16:39:20.703+03:00,1745329159.184034,40.9522769728346,29.14030140780613,76.45547,-1,-1,-1,-1,30,23.87926777261467,-9999,37992.82720979167,-0.776763916015625,0.60076904296875,-0.185455322265625,37992.81713379167,-2.959717691353837,-1.337847723949522,-0.6436304659611849,-0.01640492118895054,0.02632960677146912,-0.004277642816305161,0.0015220046043396,-0.0009825229644775391,0.001554384827613831,XArbitraryZVertical,-0.6084077686524559,0.1936749224220929,-0.7233285008742618,0.2629176636235367,-0.7783162593841553,0.600103497505188,-0.184660017490387,0,0,0,-1,-1,37982.98888104167,unknown,2,2025-04-22T16:39:10.860+03:00,2025-04-21T17:08:51.449+03:00,8620,1.064866,0,0,7158.132,7,22,2025-04-22T16:39:18.598+03:00,767021958.7000424,0,-13.00999,100.3599,1,0.45,2025-04-22T16:39:17.666+03:00,99,1.65,2025-04-22T14:20:19.516+03:00,0.02197104130929222,0
2025-04-22T16:39:20.713+03:00,1745329159.184034,40.9522769728346,29.14030140780613,76.45547,-1,-1,-1,-1,30,23.87926777261467,-9999,37992.83728679167,-0.7761993408203125,0.6018829345703125,-0.1885833740234375,37992.82720979167,-2.959935764550544,-1.337726223010689,-0.6436826864633726,-0.02071178518235683,0.02550029940903187,0.000199929578229785,0.0005535483360290527,-0.001512587070465088,-0.0006165951490402222,XArbitraryZVertical,-0.6083393612933083,0.1937770394132178,-0.7233863166421817,0.2628417253672009,-0.7782633304595947,0.6001452803611755,-0.1847473680973053,0,0,0,-1,-1,37982.98888104167,unknown,2,2025-04-22T16:39:10.860+03:00,2025-04-21T17:08:51.449+03:00,8620,1.064866,0,0,7158.132,7,22,2025-04-22T16:39:18.598+03:00,767021958.7000424,0,-13.00999,100.3599,1,0.45,2025-04-22T16:39:17.666+03:00,99,1.65,2025-04-22T14:20:19.516+03:00,0.02197104130929222,0
2025-04-22T16:39:20.723+03:00,1745329159.184034,40.9522769728346,29.14030140780613,76.45547,-1,-1,-1,-1,30,23.87926777261467,-9999,37992.84736279167,-0.7801055908203125,0.598419189453125,-0.1927490234375,37992.83728679167,-2.960182335467348,-1.337625298488716,-0.643747169489556,-0.01896488480269909,0.02913351729512215,0.005120052956044674,0.003167510032653809,0.001731753349304199,-0.002255961298942566,XArbitraryZVertical,-0.6082748403194563,0.1938897725342527,-0.7234396764735522,0.2627609269487204,-0.778207004070282,0.6001968383789062,-0.1848169565200806,0,0,0,-1,-1,37982.98888104167,unknown,2,2025-04-22T16:39:10.860+03:00,2025-04-21T17:08:51.449+03:00,8620,1.064866,0,0,7158.132,7,22,2025-04-22T16:39:18.598+03:00,767021958.7000424,0,-13.00999,100.3599,1,0.45,2025-04-22T16:39:17.666+03:00,99,1.65,2025-04-22T14:20:19.516+03:00,0.02197104130929222,0
2025-04-22T16:39:20.733+03:00,1745329159.184034,40.9522769728346,29.14030140780613,76.45547,-1,-1,-1,-1,30,23.87926777261467,-9999,37992.85743879167,-0.77545166015625,0.5979156494140625,-0.19122314453125,37992.84736279167,-2.960380168533672,-1.337425327172612,-0.6438855864499206,-0.01627216301858425,0.03604521974921227,0.009160335175693035,-0.0009480714797973633,-0.0005151033401489258,-0.007277026772499084,XArbitraryZVertical,-0.6081744456400212,0.1940287119394701,-0.72350587340567,0.2627089272383399,-0.7780894041061401,0.6003075242042542,-0.1849534064531326,0,0,0,-1,-1,37982.98888104167,unknown,2,2025-04-22T16:39:10.860+03:00,2025-04-21T17:08:51.449+03:00,8620,1.064866,0,0,7158.132,7,22,2025-04-22T16:39:18.598+03:00,767021958.7000424,0,-13.00999,100.3599,1,0.45,2025-04-22T16:39:17.666+03:00,99,1.65,2025-04-22T14:20:19.516+03:00,0.02197104130929222,0
2025-04-22T16:39:20.743+03:00,1745329159.184034,40.9522769728346,29.14030140780613,76.45547,-1,-1,-1,-1,30,23.87926777261467,-9999,37992.86751579167,-0.7695770263671875,0.5954132080078125,-0.1831817626953125,37992.85743879167,-2.960640106893996,-1.337219254332557,-0.6440628343874721,-0.02333246916532516,0.04034808650612831,0.01042360533028841,0.0006498098373413086,-0.00207597017288208,-0.007324442267417908,XArbitraryZVertical,-0.6080633292960399,0.1942021020186773,-0.7235758667327574,0.2626448281150538,-0.7779475450515747,0.60044926404953,-0.1850890666246414,0,0,0,-1,-1,37982.98888104167,unknown,2,2025-04-22T16:39:10.860+03:00,2025-04-21T17:08:51.449+03:00,8620,1.064866,0,0,7158.132,7,22,2025-04-22T16:39:18.598+03:00,767021958.7000424,0,-13.00999,100.3599,1,0.45,2025-04-22T16:39:17.666+03:00,99,1.65,2025-04-22T14:20:19.516+03:00,0.02197104130929222,0
2025-04-22T16:39:20.753+03:00,1745329159.184034,40.9522769728346,29.14030140780613,76.45547,-1,-1,-1,-1,30,23.87926777261467,-9999,37992.87759179167,-0.7665863037109375,0.59356689453125,-0.175933837890625,37992.86751579167,-2.960940825982011,-1.337010144301323,-0.6442083617185467,-0.02522011660039425,0.03905246034264565,0.01081269327551126,0.006064951419830322,-0.003596127033233643,-0.001810908317565918,XArbitraryZVertical,-0.607949121772034,0.1943761964601851,-0.7236571605686394,0.262556674541694,-0.7778239250183105,0.6005656719207764,-0.1852315217256546,0,0,0,-1,-1,37982.98888104167,unknown,2,2025-04-22T16:39:10.860+03:00,2025-04-21T17:08:51.449+03:00,8620,1.064866,0,0,7158.132,7,22,2025-04-22T16:39:18.598+03:00,767021958.7000424,0,-13.00999,100.3599,1,0.45,2025-04-22T16:39:17.666+03:00,99,1.65,2025-04-22T14:20:19.516+03:00,0.02197104130929222,0
2025-04-22T16:39:20.763+03:00,1745329159.184034,40.9522769728346,29.14030140780613,76.45547,-1,-1,-1,-1,30,23.87926777261467,-9999,37992.88766879167,-0.76953125,0.5990447998046875,-0.1779632568359375,37992.87759179167,-2.961255426877089,-1.336809842045384,-0.6444096795569266,-0.02941819280385971,0.03868427872657776,0.0101624159142375,0.01053363084793091,-0.007175028324127197,0.007777318358421326,XArbitraryZVertical,-0.6078331287944869,0.1945745090745845,-0.7237291519925136,0.2624800334507157,-0.7776692509651184,0.6007266044616699,-0.1853592991828918,0,0,0,-1,-1,37982.98888104167,unknown,2,2025-04-22T16:39:10.860+03:00,2025-04-21T17:08:51.449+03:00,8620,1.064866,0,0,7158.132,7,22,2025-04-22T16:39:18.598+03:00,767021958.7000424,0,-13.00999,100.3599,1,0.45,2025-04-22T16:39:17.666+03:00,99,1.65,2025-04-22T14:20:19.516+03:00,0.02197104130929222,0
2025-04-22T16:39:20.773+03:00,1745329159.184034,40.9522769728346,29.14030140780613,76.45547,-1,-1,-1,-1,30,23.87926777261467,-9999,37992.89774479167,-0.768280029296875,0.6078338623046875,-0.1843719482421875,37992.88766879167,-2.961523962382976,-1.336614300016222,-0.6445995683360097,-0.02060366235673428,0.03511510789394379,0.01014111004769802,0.009440362453460693,-0.004244565963745117,0.008772611618041992,XArbitraryZVertical,-0.6077240367671033,0.1947538538948007,-0.7237952085687808,0.2624172927003992,-0.7775219082832336,0.6008784174919128,-0.1854848563671112,0,0,0,-1,-1,37982.98888104167,unknown,2,2025-04-22T16:39:10.860+03:00,2025-04-21T17:08:51.449+03:00,8620,1.064866,0,0,7158.132,7,22,2025-04-22T16:39:18.598+03:00,767021958.7000424,0,-13.00999,100.3599,1,0.45,2025-04-22T16:39:17.666+03:00,99,1.65,2025-04-22T14:20:19.516+03:00,0.02197104130929222,0
2025-04-22T16:39:20.784+03:00,1745329159.184034,40.9522769728346,29.14030140780613,76.45547,-1,-1,-1,-1,30,23.87926777261467,-9999,37992.90782079167,-0.7640838623046875,0.6096038818359375,-0.1856231689453125,37992.89774479167,-2.961716664986244,-1.336406226584396,-0.6447003683758198,-0.01236024498939514,0.03000570274889469,0.002854901365935802,0.00832056999206543,0.003929853439331055,0.00345766544342041,XArbitraryZVertical,-0.6076234770007606,0.1948779560148305,-0.7238686098333872,0.2623556510090118,-0.7774244546890259,0.6009590029716492,-0.185632586479187,0,0,0,-1,-1,37982.98888104167,unknown,2,2025-04-22T16:39:10.860+03:00,2025-04-21T17:08:51.449+03:00,8620,1.064866,0,0,7158.132,7,22,2025-04-22T16:39:18.598+03:00,767021958.7000424,0,-13.00999,100.3599,1,0.45,2025-04-22T16:39:17.666+03:00,99,1.65,2025-04-22T14:20:19.516+03:00,0.02197104130929222,0
2025-04-22T16:39:20.793+03:00,1745329159.184034,40.9522769728346,29.14030140780613,76.45547,-1,-1,-1,-1,30,23.87926777261467,-9999,37992.91789779167,-0.7677001953125,0.60736083984375,-0.1820068359375,37992.90782079167,-2.961885535676903,-1.336216714465288,-0.6447129556056695,-0.01360367517918348,0.02704693004488945,-0.004526049364358187,0.01232153177261353,0.009260356426239014,-0.0003182888031005859,XArbitraryZVertical,-0.6075376165818391,0.1949588938606185,-0.7239464178082634,0.262279603996685,-0.7773818969726562,0.6009690165519714,-0.1857781410217285,0,0,0,-1,-1,37982.98888104167,unknown,2,2025-04-22T16:39:10.860+03:00,2025-04-21T17:08:51.449+03:00,8620,1.064866,0,0,7158.132,7,22,2025-04-22T16:39:18.598+03:00,767021958.7000424,0,-13.00999,100.3599,1,0.45,2025-04-22T16:39:17.666+03:00,99,1.65,2025-04-22T14:20:19.516+03:00,0.02197104130929222,0
2025-04-22T16:39:20.803+03:00,1745329159.184034,40.9522769728346,29.14030140780613,76.45547,-1,-1,-1,-1,30,23.87926777261467,-9999,37992.92797379167,-0.7684783935546875,0.6013946533203125,-0.18231201171875,37992.91789779167,-2.962188168719575,-1.336146282264739,-0.6446866964541739,-0.02999369986355305,0.02154470607638359,-0.01145219895988703,0.01063007116317749,0.007618069648742676,0.002608790993690491,XArbitraryZVertical,-0.6074843089258201,0.1950500951217508,-0.7240113647349357,0.2621558058534731,-0.7773840427398682,0.6009480357170105,-0.1858365535736084,0,0,0,-1,-1,37982.98888104167,unknown,2,2025-04-22T16:39:10.860+03:00,2025-04-21T17:08:51.449+03:00,8620,1.064866,0,0,7158.132,7,22,2025-04-22T16:39:18.598+03:00,767021958.7000424,0,-13.00999,100.3599,1,0.45,2025-04-22T16:39:17.666+03:00,99,1.65,2025-04-22T14:20:19.516+03:00,0.02197104130929222,0
2025-04-22T16:39:20.814+03:00,1745329159.184034,40.9522769728346,29.14030140780613,76.45547,-1,-1,-1,-1,30,23.87926777261467,-9999,37992.93805079167,-0.7708282470703125,0.5954437255859375,-0.18353271484375,37992.92797379167,-2.962610552206242,-1.336176430393919,-0.6446488922584136,-0.03936722874641418,0.02041951939463615,-0.01001409254968166,0.009269237518310547,0.003009676933288574,0.003704607486724854,XArbitraryZVertical,-0.6074564497014889,0.1951600819124315,-0.7240632800579508,0.2619951878139566,-0.7774118185043335,0.6009178161621094,-0.1858184039592743,0,0,0,-1,-1,37982.98888104167,unknown,2,2025-04-22T16:39:10.860+03:00,2025-04-21T17:08:51.449+03:00,8620,1.064866,0,0,7158.132,7,22,2025-04-22T16:39:18.598+03:00,767021958.7000424,0,-13.00999,100.3599,1,0.45,2025-04-22T16:39:17.666+03:00,99,1.65,2025-04-22T14:20:19.516+03:00,0.02197104130929222,0
2025-04-22T16:39:20.824+03:00,1745329159.184034,40.9522769728346,29.14030140780613,76.45547,-1,-1,-1,-1,30,23.87926777261467,-9999,37992.94812679167,-0.7686614990234375,0.59344482421875,-0.18487548828125,37992.93805079167,-2.963149668464272,-1.336275408654477,-0.6446468283049802,-0.0438167043030262,0.01940179243683815,-0.008248882368206978,0.007305145263671875,-0.003870308399200439,0.002376720309257507,XArbitraryZVertical,-0.6074397853481511,0.1953100732052536,-0.7241041814784119,0.2618090779475833,-0.7774314880371094,0.6009162068367004,-0.1857417672872543,0,0,0,-1,-1,37982.98888104167,unknown,2,2025-04-22T16:39:10.860+03:00,2025-04-21T17:08:51.449+03:00,8620,1.064866,0,0,7158.132,7,22,2025-04-22T16:39:18.598+03:00,767021958.7000424,0,-13.00999,100.3599,1,0.45,2025-04-22T16:39:17.666+03:00,99,1.65,2025-04-22T14:20:19.516+03:00,0.02197104130929222,0
2025-04-22T16:39:20.834+03:00,1745329159.184034,40.9522769728346,29.14030140780613,76.45547,-1,-1,-1,-1,30,23.87926777261467,-9999,37992.95820279167,-0.7686309814453125,0.59075927734375,-0.1840362548828125,37992.94812679167,-2.963701205853442,-1.336416101245069,-0.6446727065290022,-0.04305797070264816,0.01555166114121675,-0.007351663429290056,0.007133126258850098,-0.0057830810546875,0.001210853457450867,XArbitraryZVertical,-0.6074351633024343,0.1954689865572549,-0.7241298215031031,0.2616304098725461,-0.7774425745010376,0.6009368896484375,-0.1856288015842438,0,0,0,-1,-1,37982.98888104167,unknown,2,2025-04-22T16:39:10.860+03:00,2025-04-21T17:08:51.449+03:00,8620,1.064866,0,0,7158.132,7,22,2025-04-22T16:39:18.598+03:00,767021958.7000424,0,-13.00999,100.3599,1,0.45,2025-04-22T16:39:17.666+03:00,99,1.65,2025-04-22T14:20:19.516+03:00,0.02197104130929222,0
2025-04-22T16:39:20.844+03:00,1745329159.184034,40.9522769728346,29.14030140780613,76.45547,-1,-1,-1,-1,30,23.87926777261467,-9999,37992.96827979167,-0.7723388671875,0.5919036865234375,-0.18426513671875,37992.95820279167,-2.964271843701736,-1.336626462986491,-0.6447358018183074,-0.04356903210282326,0.01404963806271553,-0.003711255267262459,0.009714007377624512,-0.008442819118499756,0.0003823637962341309,XArbitraryZVertical,-0.6074514558276626,0.1956387470401828,-0.7241309933764336,0.2614621574344477,-0.77744460105896,0.6009873151779175,-0.1854564249515533,0,0,0,-1,-1,37982.98888104167,unknown,2,2025-04-22T16:39:10.860+03:00,2025-04-21T17:08:51.449+03:00,8620,1.064866,0,0,7158.132,7,22,2025-04-22T16:39:18.598+03:00,767021958.7000424,0,-13.00999,100.3599,1,0.45,2025-04-22T16:39:17.666+03:00,99,1.65,2025-04-22T14:20:19.516+03:00,0.02197104130929222,0
2025-04-22T16:39:20.854+03:00,1745329159.184034,40.9522769728346,29.14030140780613,76.45547,-1,-1,-1,-1,30,23.87926777261467,-9999,37992.97835579167,-0.7748870849609375,0.597686767578125,-0.186431884765625,37992.96827979167,-2.96480912881293,-1.336816667538128,-0.6448236854162177,-0.0437551848590374,0.0133937019854784,-0.0007231885683722794,0.006798684597015381,-0.01046615839004517,0.001290321350097656,XArbitraryZVertical,-0.6074620400949893,0.1958104219443713,-0.7241302794015435,0.2613109990156895,-0.7774285078048706,0.6010575294494629,-0.1852962970733643,0,0,0,-1,-1,37982.98888104167,unknown,2,2025-04-22T16:39:10.860+03:00,2025-04-21T17:08:51.449+03:00,8620,1.064866,0,0,7158.132,7,22,2025-04-22T16:39:18.598+03:00,767021958.7000424,0,-13.00999,100.3599,1,0.45,2025-04-22T16:39:17.666+03:00,99,1.65,2025-04-22T14:20:19.516+03:00,0.02197104130929222,0
2025-04-22T16:39:20.864+03:00,1745329159.184034,40.9522769728346,29.14030140780613,76.45547,-1,-1,-1,-1,30,23.87926777261467,-9999,37992.98843279167,-0.774566650390625,0.5988616943359375,-0.1874542236328125,37992.97835579167,-2.965350179727595,-1.336998032381184,-0.6449130200656692,-0.04393807798624039,0.01311546750366688,-0.006399150472134352,0.002583801746368408,-0.004907190799713135,-0.0004042237997055054,XArbitraryZVertical,-0.6074689111750612,0.1959849703182989,-0.7241323862589041,0.2611580578880952,-0.7774097323417664,0.6011289358139038,-0.1851428300142288,0,0,0,-1,-1,37982.98888104167,unknown,2,2025-04-22T16:39:10.860+03:00,2025-04-21T17:08:51.449+03:00,8620,1.064866,0,0,7158.132,7,22,2025-04-22T16:39:18.598+03:00,767021958.7000424,0,-13.00999,100.3599,1,0.45,2025-04-22T16:39:17.666+03:00,99,1.65,2025-04-22T14:20:19.516+03:00,0.02197104130929222,0
2025-04-22T16:39:20.874+03:00,1745329159.184034,40.9522769728346,29.14030140780613,76.45547,-1,-1,-1,-1,30,23.87926777261467,-9999,37992.99850879167,-0.7741851806640625,0.600982666015625,-0.1896514892578125,37992.98843279167,-2.965954359085173,-1.33721698941947,-0.6449914941773806,-0.05080024525523186,0.01051462441682816,-0.01208286918699741,0.002441108226776123,-0.002787768840789795,-0.001668766140937805,XArbitraryZVertical,-0.6074838314036145,0.1961696517587207,-0.7241331421433286,0.260982871030799,-0.7774044871330261,0.6011916399002075,-0.1849617213010788,0,0,0,-1,-1,37982.98888104167,unknown,2,2025-04-22T16:39:10.860+03:00,2025-04-21T17:08:51.449+03:00,8620,1.064866,0,0,7158.132,7,22,2025-04-22T16:39:18.598+03:00,767021958.7000424,0,-13.00999,100.3599,1,0.45,2025-04-22T16:39:17.666+03:00,99,1.65,2025-04-22T14:20:19.516+03:00,0.02197104130929222,0
2025-04-22T16:39:20.884+03:00,1745329159.184034,40.9522769728346,29.14030140780613,76.45547,-1,-1,-1,-1,30,23.87926777261467,-9999,37993.00858479167,-0.777008056640625,0.6042938232421875,-0.19091796875,37992.99850879167,-2.966638322715591,-1.337487480851629,-0.644999696341548,-0.05198175832629204,0.01379470713436604,-0.01936774700880051,0.00285261869430542,-0.0004139542579650879,-0.003467023372650146,XArbitraryZVertical,-0.6075141197985575,0.1963452400102389,-0.7241389169561072,0.2607640930754584,-0.7774496674537659,0.6011981964111328,-0.1847502887248993,0,0,0,-1,-1,37982.98888104167,unknown,2,2025-04-22T16:39:10.860+03:00,2025-04-21T17:08:51.449+03:00,8620,1.064866,0,0,7158.132,7,22,2025-04-22T16:39:18.598+03:00,767021958.7000424,0,-13.00999,100.3599,1,0.45,2025-04-22T16:39:17.666+03:00,99,1.65,2025-04-22T14:20:19.516+03:00,0.02197104130929222,0
2025-04-22T16:39:20.894+03:00,1745329159.184034,40.9522769728346,29.14030140780613,76.45547,-1,-1,-1,-1,30,23.87926777261467,-9999,37993.01866179167,-0.7761688232421875,0.6051177978515625,-0.187713623046875,37993.00858479167,-2.967342009221824,-1.337753598381476,-0.6449300763304107,-0.05440310388803482,0.01586318388581276,-0.02295449189841747,0.001721739768981934,0.0008318424224853516,-0.006807625293731689,XArbitraryZVertical,-0.6075459221670544,0.1964979166488976,-0.7241601720245422,0.260515805687021,-0.7775394916534424,0.6011425852775574,-0.1845530420541763,0,0,0,-1,-1,37982.98888104167,unknown,2,2025-04-22T16:39:10.860+03:00,2025-04-21T17:08:51.449+03:00,8620,1.064866,0,0,7158.132,7,22,2025-04-22T16:39:18.598+03:00,767021958.7000424,0,-13.00999,100.3599,1,0.45,2025-04-22T16:39:17.666+03:00,99,1.65,2025-04-22T14:20:19.516+03:00,0.02197104130929222,0
2025-04-22T16:39:20.904+03:00,1745329159.184034,40.9522769728346,29.14030140780613,76.45547,-1,-1,-1,-1,30,23.87926777261467,-9999,37993.02873779167,-0.7716217041015625,0.594390869140625,-0.18621826171875,37993.01866179167,-2.968112717584105,-1.338041577116165,-0.6448195409621688,-0.06093816459178925,0.01846808940172195,-0.02724041603505611,0.0001457929611206055,0.00504004955291748,-0.005078360438346863,XArbitraryZVertical,-0.6075816941131627,0.1966526430683588,-0.724189536439332,0.260233853462026,-0.7776572704315186,0.6010542511940002,-0.1843444406986237,0,0,0,-1,-1,37982.98888104167,unknown,2,2025-04-22T16:39:10.860+03:00,2025-04-21T17:08:51.449+03:00,8620,1.064866,0,0,7158.132,7,22,2025-04-22T16:39:18.598+03:00,767021958.7000424,0,-13.00999,100.3599,1,0.45,2025-04-22T16:39:17.666+03:00,99,1.65,2025-04-22T14:20:19.516+03:00,0.02197104130929222,0
2025-04-22T16:39:20.919+03:00,1745329159.184034,40.9522769728346,29.14030140780613,76.45547,-1,-1,-1,-1,30,23.87926777261467,-9999,37993.03881479167,-0.7744140625,0.593780517578125,-0.1864471435546875,37993.02873779167,-2.968998147509882,-1.338381695716227,-0.6447067255367359,-0.06887012720108032,0.01911736652255058,-0.02677622810006142,0.004928290843963623,-0.003368854522705078,-0.002641692757606506,XArbitraryZVertical,-0.6076251603511464,0.1968346328043327,-0.7242182741532998,0.2599148303855646,-0.7777860164642334,0.6009640693664551,-0.1840955764055252,0,0,0,-1,-1,37982.98888104167,unknown,2,2025-04-22T16:39:10.860+03:00,2025-04-21T17:08:51.449+03:00,8620,1.064866,0,0,7158.132,7,22,2025-04-22T16:39:18.598+03:00,767021958.7000424,0,-13.00999,100.3599,1,0.45,2025-04-22T16:39:17.666+03:00,99,1.65,2025-04-22T14:20:19.516+03:00,0.02197104130929222,0
2025-04-22T16:39:20.924+03:00,1745329159.184034,40.9522769728346,29.14030140780613,76.45547,-1,-1,-1,-1,30,23.87926777261467,-9999,37993.04889079167,-0.7773284912109375,0.5895843505859375,-0.1823883056640625,37993.03881479167,-2.969944726798404,-1.338727953124305,-0.6446482562429041,-0.07738451659679413,0.01890378259122372,-0.01853560842573643,0.005606114864349365,-0.007869303226470947,-0.00322335958480835,XArbitraryZVertical,-0.6076611891056991,0.1970550933491702,-0.7242447243789376,0.2595896406501714,-0.7778838872909546,0.6009173393249512,-0.1838343441486359,0,0,0,-1,-1,37982.98888104167,unknown,2,2025-04-22T16:39:10.860+03:00,2025-04-21T17:08:51.449+03:00,8620,1.064866,0,0,7158.132,7,22,2025-04-22T16:39:18.598+03:00,767021958.7000424,0,-13.00999,100.3599,1,0.45,2025-04-22T16:39:17.666+03:00,99,1.65,2025-04-22T14:20:19.516+03:00,0.02197104130929222,0
2025-04-22T16:39:20.935+03:00,1745329159.184034,40.9522769728346,29.14030140780613,76.45547,-1,-1,-1,-1,30,23.87926777261467,-9999,37993.05896679167,-0.7763824462890625,0.5891571044921875,-0.1815032958984375,37993.04889079167,-2.970970471198798,-1.339117690620925,-0.6446731308880441,-0.08391192555427551,0.02461439929902554,-0.01338851638138294,0.0009938478469848633,-0.009125173091888428,-0.000234067440032959,XArbitraryZVertical,-0.6076995538714149,0.1973256410990138,-0.7242555334428075,0.2592636677539134,-0.7779408097267151,0.6009371876716614,-0.1835276931524277,0,0,0,-1,-1,37982.98888104167,unknown,2,2025-04-22T16:39:10.860+03:00,2025-04-21T17:08:51.449+03:00,8620,1.064866,0,0,7158.132,7,22,2025-04-22T16:39:18.598+03:00,767021958.7000424,0,-13.00999,100.3599,1,0.45,2025-04-22T16:39:17.666+03:00,99,1.65,2025-04-22T14:20:19.516+03:00,0.02197104130929222,0
2025-04-22T16:39:20.945+03:00,1745329159.184034,40.9522769728346,29.14030140780613,76.45547,-1,-1,-1,-1,30,23.87926777261467,-9999,37993.06904379167,-0.7784881591796875,0.60003662109375,-0.1819305419921875,37993.05896679167,-2.972005316251919,-1.339442529332207,-0.6447388557388503,-0.0747075080871582,0.0333692729473114,-0.01009751483798027,0.001716971397399902,-0.01369428634643555,0.002082839608192444,XArbitraryZVertical,-0.6077106528818557,0.1976229029993366,-0.72428106904679,0.2589395802928544,-0.7779618501663208,0.6009897589683533,-0.183265894651413,0,0,0,-1,-1,37982.98888104167,unknown,2,2025-04-22T16:39:10.860+03:00,2025-04-21T17:08:51.449+03:00,8620,1.064866,0,0,7158.132,7,22,2025-04-22T16:39:18.598+03:00,767021958.7000424,0,-13.00999,100.3599,1,0.45,2025-04-22T16:39:17.666+03:00,99,1.65,2025-04-22T14:20:19.516+03:00,0.02197104130929222,0
2025-04-22T16:39:20.955+03:00,1745329159.184034,40.9522769728346,29.14030140780613,76.45547,-1,-1,-1,-1,30,23.87926777261467,-9999,37993.07911979167,-0.7780914306640625,0.6085205078125,-0.1793212890625,37993.06904379167,-2.972876709557131,-1.339574760557094,-0.6447691444239166,-0.06398109346628189,0.04135635867714882,-0.01547949761152267,-1.609325408935547e-05,-0.005494117736816406,0.0008313804864883423,XArbitraryZVertical,-0.6076703628159236,0.1978820313562437,-0.7243491678254038,0.2586456371845798,-0.7779684066772461,0.6010139584541321,-0.1831588596105576,0,0,0,-1,-1,37982.98888104167,unknown,2,2025-04-22T16:39:10.860+03:00,2025-04-21T17:08:51.449+03:00,8620,1.064866,0,0,7158.132,7,22,2025-04-22T16:39:18.598+03:00,767021958.7000424,0,-13.00999,100.3599,1,0.45,2025-04-22T16:39:17.666+03:00,99,1.65,2025-04-22T14:20:19.516+03:00,0.02197104130929222,0
2025-04-22T16:39:20.965+03:00,1745329159.184034,40.9522769728346,29.14030140780613,76.45547,-1,-1,-1,-1,30,23.87926777261467,-9999,37993.08919679167,-0.7771453857421875,0.61053466796875,-0.182037353515625,37993.07911979167,-2.973625275564631,-1.33955810702313,-0.6447530036352187,-0.05407180637121201,0.04554970934987068,-0.01882020197808743,-0.0003910660743713379,0.005490005016326904,0.003593206405639648,XArbitraryZVertical,-0.607591290821901,0.1981054805231846,-0.7244535221589837,0.258368268221104,-0.7779749631881714,0.6010010242462158,-0.1831740885972977,0,0,0,-1,-1,37982.98888104167,unknown,2,2025-04-22T16:39:10.860+03:00,2025-04-21T17:08:51.449+03:00,8620,1.064866,0,0,7158.132,7,22,2025-04-22T16:39:18.598+03:00,767021958.7000424,0,-13.00999,100.3599,1,0.45,2025-04-22T16:39:17.666+03:00,99,1.65,2025-04-22T14:20:19.516+03:00,0.02197104130929222,0
2025-04-22T16:39:20.975+03:00,1745329159.184034,40.9522769728346,29.14030140780613,76.45547,-1,-1,-1,-1,30,23.87926777261467,-9999,37993.09927279167,-0.7786407470703125,0.6063690185546875,-0.189697265625,37993.08919679167,-2.974305531270425,-1.339437371527697,-0.6447245070209778,-0.05371680855751038,0.05405664443969727,-0.01440787501633167,0.001312375068664551,0.009479999542236328,0.003248527646064758,XArbitraryZVertical,-0.6074820542990931,0.1983169348562144,-0.7245821040889637,0.2581018346457436,-0.7779693007469177,0.6009782552719116,-0.1832718998193741,0,0,0,-1,-1,37982.98888104167,unknown,2,2025-04-22T16:39:10.860+03:00,2025-04-21T17:08:51.449+03:00,8620,1.064866,0,0,7158.132,7,22,2025-04-22T16:39:18.598+03:00,767021958.7000424,0,-13.00999,100.3599,1,0.45,2025-04-22T16:39:17.666+03:00,99,1.65,2025-04-22T14:20:19.516+03:00,0.02197104130929222,0
2025-04-22T16:39:20.985+03:00,1745329159.184034,40.9522769728346,29.14030140780613,76.45547,-1,-1,-1,-1,30,23.87926777261467,-9999,37993.10934879167,-0.7750091552734375,0.60101318359375,-0.1961822509765625,37993.09927279167,-2.975022698969032,-1.339299751871907,-0.6446891142742984,-0.05933135002851486,0.05722547322511673,-0.01902449876070023,-0.0005689859390258789,0.007463634014129639,-0.003597497940063477,XArbitraryZVertical,-0.6073634042581096,0.1985390867350267,-0.7247217059866676,0.2578183071874843,-0.7779648900032043,0.6009500026702881,-0.1833838522434235,0,0,0,-1,-1,37982.98888104167,unknown,2,2025-04-22T16:39:10.860+03:00,2025-04-21T17:08:51.449+03:00,8620,1.064866,0,0,7158.132,7,22,2025-04-22T16:39:18.598+03:00,767021958.7000424,0,-13.00999,100.3599,1,0.45,2025-04-22T16:39:17.666+03:00,99,1.65,2025-04-22T14:20:19.516+03:00,0.02197104130929222,0
2025-04-22T16:39:20.995+03:00,1745329159.184034,40.9522769728346,29.14030140780613,76.45547,-1,-1,-1,-1,30,23.87926777261467,-9999,37993.11942579167,-0.7694244384765625,0.60107421875,-0.1973114013671875,37993.10934879167,-2.975739117730504,-1.339146595705917,-0.6446241237610043,-0.05100151523947716,0.05620415136218071,-0.01955659873783588,0.001409411430358887,0.001869857311248779,-0.01074784994125366,XArbitraryZVertical,-0.6072410983737601,0.1987517376487443,-0.7248702265622122,0.2575250588901406,-0.7779749035835266,0.6008980274200439,-0.1835119873285294,0,0,0,-1,-1,37982.98888104167,unknown,2,2025-04-22T16:39:10.860+03:00,2025-04-21T17:08:51.449+03:00,8620,1.064866,0,0,7158.132,7,22,2025-04-22T16:39:18.598+03:00,767021958.7000424,0,-13.00999,100.3599,1,0.45,2025-04-22T16:39:17.666+03:00,99,1.65,2025-04-22T14:20:19.516+03:00,0.02197104130929222,0
2025-04-22T16:39:21.005+03:00,1745329159.184034,40.9522769728346,29.14030140780613,76.45547,-1,-1,-1,-1,30,23.87926777261467,-9999,37993.12950179167,-0.775421142578125,0.599456787109375,-0.1919097900390625,37993.11942579167,-2.976383636770679,-1.338906317796115,-0.6445124782667491,-0.04679219052195549,0.06152401119470596,-0.02452395856380463,0.00693899393081665,0.0006773471832275391,-0.01451277732849121,XArbitraryZVertical,-0.60709742701168,0.1989360425421245,-0.7250426411898038,0.2572359453841122,-0.7779960632324219,0.6008087992668152,-0.1837143301963806,0,0,0,-1,-1,37982.98888104167,unknown,2,2025-04-22T16:39:10.860+03:00,2025-04-21T17:08:51.449+03:00,8620,1.064866,0,0,7158.132,7,22,2025-04-22T16:39:18.598+03:00,767021958.7000424,0,-13.00999,100.3599,1,0.45,2025-04-22T16:39:17.666+03:00,99,1.65,2025-04-22T14:20:19.516+03:00,0.02197104130929222,0
2025-04-22T16:39:21.015+03:00,1745329159.184034,40.9522769728346,29.14030140780613,76.45547,-1,-1,-1,-1,30,23.87926777261467,-9999,37993.13957879167,-0.7831878662109375,0.5937042236328125,-0.1887359619140625,37993.12950179167,-2.977026959586975,-1.338605789951434,-0.6443314733027217,-0.04569203779101372,0.07237718999385834,-0.0284462608397007,0.006180822849273682,0.0005320906639099121,-0.01004259288311005,XArbitraryZVertical,-0.6069366319896405,0.1991013780558051,-0.7252432592408328,0.2569215660753806,-0.7780465483665466,0.6006640791893005,-0.1839731335639954,0,0,0,-1,-1,37982.98888104167,unknown,2,2025-04-22T16:39:10.860+03:00,2025-04-21T17:08:51.449+03:00,8620,1.064866,0,0,7158.132,7,22,2025-04-22T16:39:18.598+03:00,767021958.7000424,0,-13.00999,100.3599,1,0.45,2025-04-22T16:39:17.666+03:00,99,1.65,2025-04-22T14:20:19.516+03:00,0.02197104130929222,0
2025-04-22T16:39:21.026+03:00,1745329159.184034,40.9522769728346,29.14030140780613,76.45547,-1,-1,-1,-1,30,23.87926777261467,-9999,37993.14965479167,-0.7769317626953125,0.59649658203125,-0.190521240234375,37993.13957879167,-2.97763686413122,-1.338218359739125,-0.6441044206355283,-0.04199949651956558,0.08095929771661758,-0.02985077910125256,-0.003324985504150391,-0.004199624061584473,-0.005376219749450684,XArbitraryZVertical,-0.6067506611488944,0.1992501559181407,-0.7254728064762626,0.2565974959547843,-0.7781080007553101,0.6004825234413147,-0.1843060255050659,0,0,0,-1,-1,37982.98888104167,unknown,2,2025-04-22T16:39:10.860+03:00,2025-04-21T17:08:51.449+03:00,8620,1.064866,0,0,7158.132,7,22,2025-04-22T16:39:18.598+03:00,767021958.7000424,0,-13.00999,100.3599,1,0.45,2025-04-22T16:39:17.666+03:00,99,1.65,2025-04-22T14:20:19.516+03:00,0.02197104130929222,0
2025-04-22T16:39:21.035+03:00,1745329159.184034,40.9522769728346,29.14030140780613,76.45547,-1,-1,-1,-1,30,23.87926777261467,-9999,37993.15973079167,-0.7725677490234375,0.59918212890625,-0.192138671875,37993.14965479167,-2.978289829890304,-1.337779751801582,-0.6438910297958728,-0.04759746044874191,0.08610212802886963,-0.03192245215177536,-0.002442121505737305,-0.005753219127655029,-0.005768299102783203,XArbitraryZVertical,-0.6065408439980265,0.1994236189008786,-0.7257210149391605,0.2562565011372011,-0.7781516909599304,0.6003118753433228,-0.184676855802536,0,0,0,-1,-1,37982.98888104167,unknown,2,2025-04-22T16:39:10.860+03:00,2025-04-21T17:08:51.449+03:00,8620,1.064866,0,0,7158.132,7,22,2025-04-22T16:39:18.598+03:00,767021958.7000424,0,-13.00999,100.3599,1,0.45,2025-04-22T16:39:17.666+03:00,99,1.65,2025-04-22T14:20:19.516+03:00,0.02197104130929222,0
2025-04-22T16:39:21.052+03:00,1745329159.184034,40.9522769728346,29.14030140780613,76.45547,-1,-1,-1,-1,30,23.87926777261467,-9999,37993.16980779167,-0.773101806640625,0.595672607421875,-0.19140625,37993.15973079167,-2.979147611943071,-1.33742941046203,-0.643697077420165,-0.07153461873531342,0.092387855052948,-0.04315480217337608,0.004106640815734863,-0.001371443271636963,-0.00705564022064209,XArbitraryZVertical,-0.6063412052341575,0.1996550845636981,-0.725965700798918,0.2558553450881379,-0.7782002091407776,0.6001567840576172,-0.1849763840436935,0,0,0,-1,-1,37982.98888104167,unknown,2,2025-04-22T16:39:10.860+03:00,2025-04-21T17:08:51.449+03:00,8620,1.064866,0,0,7158.132,7,22,2025-04-22T16:39:18.598+03:00,767021958.7000424,0,-13.00999,100.3599,1,0.45,2025-04-22T16:39:17.666+03:00,99,1.65,2025-04-22T14:20:19.516+03:00,0.02197104130929222,0
2025-04-22T16:39:21.057+03:00,1745329159.184034,40.9522769728346,29.14030140780613,76.45547,-1,-1,-1,-1,30,23.87926777261467,-9999,37993.17988379167,-0.77667236328125,0.58917236328125,-0.191558837890625,37993.16980779167,-2.980314545804763,-1.337205397427543,-0.6435282562694843,-0.09944214671850204,0.09535595029592514,-0.03730090707540512,0.006269454956054688,-0.002319753170013428,-0.007025778293609619,XArbitraryZVertical,-0.606154714370948,0.1999734795391593,-0.7262075917353132,0.2553615376125593,-0.7782572507858276,0.6000217199325562,-0.1851741373538971,0,0,0,-1,-1,37982.98888104167,unknown,2,2025-04-22T16:39:10.860+03:00,2025-04-21T17:08:51.449+03:00,8620,1.064866,0,0,7158.132,7,22,2025-04-22T16:39:18.598+03:00,767021958.7000424,0,-13.00999,100.3599,1,0.45,2025-04-22T16:39:17.666+03:00,99,1.65,2025-04-22T14:20:19.516+03:00,0.02197104130929222,0
2025-04-22T16:39:21.068+03:00,1745329159.184034,40.9522769728346,29.14030140780613,76.45547,-1,-1,-1,-1,30,23.87926777261467,-9999,37993.18996079167,-0.7689056396484375,0.5809173583984375,-0.19952392578125,37993.17988379167,-2.981743847455264,-1.336545677767871,-0.643595962832055,-0.1204493641853333,0.2476837635040283,-0.003674070816487074,0.003284692764282227,-0.007775604724884033,-0.005240067839622498,XArbitraryZVertical,-0.6057674129840639,0.2005163314722721,-0.7265797386297986,0.2547955423904406,-0.7780953049659729,0.600075900554657,-0.1856780797243118,0,0,0,-1,-1,37982.98888104167,unknown,2,2025-04-22T16:39:10.860+03:00,2025-04-21T17:08:51.449+03:00,8620,1.064866,0,0,7158.132,7,22,2025-04-22T16:39:18.598+03:00,767021958.7000424,0,-13.00999,100.3599,1,0.45,2025-04-22T16:39:17.666+03:00,99,1.65,2025-04-22T14:20:19.516+03:00,0.02197104130929222,0
2025-04-22T16:39:21.082+03:00,1745329159.184034,40.9522769728346,29.14030140780613,76.45547,-1,-1,-1,-1,30,23.87926777261467,-9999,37993.20003679167,-0.7496185302734375,0.580841064453125,-0.1956024169921875,37993.18996079167,-2.983417521622002,-1.335622444305215,-0.6438735165251724,-0.1492546498775482,0.1398353278636932,-0.004022945184260607,0.001791238784790039,-0.01599323749542236,-0.009122952818870544,XArbitraryZVertical,-0.6052449034904881,0.2012457002135115,-0.7270313712289733,0.2541731520890666,-0.7777615785598755,0.6002978682518005,-0.1863575428724289,0,0,0,-1,-1,37982.98888104167,unknown,2,2025-04-22T16:39:10.860+03:00,2025-04-21T17:08:51.449+03:00,8620,1.064866,0,0,7158.132,7,22,2025-04-22T16:39:18.598+03:00,767021958.7000424,0,-13.00999,100.3599,1,0.45,2025-04-22T16:39:17.666+03:00,99,1.65,2025-04-22T14:20:19.516+03:00,0.02197104130929222,0
2025-04-22T16:39:21.086+03:00,1745329159.184034,40.9522769728346,29.14030140780613,76.45547,-1,-1,-1,-1,30,23.87926777261467,-9999,37993.21011279167,-0.798004150390625,0.5797882080078125,-0.2089691162109375,37993.20003679167,-2.985196214523848,-1.335239739730488,-0.6441838874660473,-0.139202207326889,0.1532779633998871,-0.006434670183807611,0.02618163824081421,-0.02199387550354004,-0.01301921904087067,XArbitraryZVertical,-0.6049052186463691,0.2019500114106066,-0.7273274719159011,0.2535756768811886,-0.7775091528892517,0.6005460619926453,-0.1866117417812347,0,0,0,-1,-1,37982.98888104167,unknown,2,2025-04-22T16:39:10.860+03:00,2025-04-21T17:08:51.449+03:00,8620,1.064866,0,0,7158.132,7,22,2025-04-22T16:39:18.598+03:00,767021958.7000424,0,-13.00999,100.3599,1,0.45,2025-04-22T16:39:17.666+03:00,99,1.65,2025-04-22T14:20:19.516+03:00,0.02197104130929222,0
2025-04-22T16:39:21.096+03:00,1745329159.184034,40.9522769728346,29.14030140780613,76.45547,-1,-1,-1,-1,30,23.87926777261467,-9999,37993.22018979167,-0.7873687744140625,0.5934600830078125,-0.2260284423828125,37993.21011279167,-2.986986498146851,-1.334688171405954,-0.644495611188141,-0.1541619896888733,0.1686340123414993,-0.004659673199057579,-0.0006079673767089844,-0.01888620853424072,-0.01179492473602295,XArbitraryZVertical,-0.6045020511506722,0.2026792931013424,-0.7276751612632776,0.2529569005660324,-0.7772240042686462,0.6007953286170959,-0.1869967430830002,0,0,0,-1,-1,37982.98888104167,unknown,2,2025-04-22T16:39:10.860+03:00,2025-04-21T17:08:51.449+03:00,8620,1.064866,0,0,7158.132,7,22,2025-04-22T16:39:18.598+03:00,767021958.7000424,0,-13.00999,100.3599,1,0.45,2025-04-22T16:39:17.666+03:00,99,1.65,2025-04-22T14:20:19.516+03:00,0.02197104130929222,0
2025-04-22T16:39:21.106+03:00,1745329159.184034,40.9522769728346,29.14030140780613,76.45547,-1,-1,-1,-1,30,23.87926777261467,-9999,37993.23026579167,-0.7637176513671875,0.6166229248046875,-0.2288970947265625,37993.22018979167,-2.988838806054783,-1.333997562497599,-0.6447847361548801,-0.1408860683441162,0.194210022687912,-0.005283618811517954,-0.02472519874572754,-0.01766777038574219,-0.03644548356533051,XArbitraryZVertical,-0.6040426766441176,0.2034357606120686,-0.7280752993831591,0.2522945103524601,-0.7769256830215454,0.6010264158248901,-0.1874926686286926,0,0,0,-1,-1,37982.98888104167,unknown,2,2025-04-22T16:39:10.860+03:00,2025-04-21T17:08:51.449+03:00,8620,1.064866,0,0,7158.132,7,22,2025-04-22T16:39:18.598+03:00,767021958.7000424,0,-13.00999,100.3599,1,0.45,2025-04-22T16:39:17.666+03:00,99,1.65,2025-04-22T14:20:19.516+03:00,0.02197104130929222,0
2025-04-22T16:39:21.116+03:00,1745329159.184034,40.9522769728346,29.14030140780613,76.45547,-1,-1,-1,-1,30,23.87926777261467,-9999,37993.24034279167,-0.777557373046875,0.6132049560546875,-0.2407684326171875,37993.23026579167,-2.990597407819728,-1.332981083805257,-0.6449474200231418,-0.1423119306564331,0.2156082540750504,-0.02049479633569717,0.01064854860305786,0.01131594181060791,-0.03694543242454529,XArbitraryZVertical,-0.6034820246049674,0.2041563672038876,-0.7285798086557963,0.2515965635662389,-0.7766395807266235,0.6011564135551453,-0.1882592439651489,0,0,0,-1,-1,37982.98888104167,unknown,2,2025-04-22T16:39:10.860+03:00,2025-04-21T17:08:51.449+03:00,8620,1.064866,0,0,7158.132,7,22,2025-04-22T16:39:18.598+03:00,767021958.7000424,0,-13.00999,100.3599,1,0.45,2025-04-22T16:39:17.666+03:00,99,1.65,2025-04-22T14:20:19.516+03:00,0.02197104130929222,0
2025-04-22T16:39:21.126+03:00,1745329159.184034,40.9522769728346,29.14030140780613,76.45547,-1,-1,-1,-1,30,23.87926777261467,-9999,37993.25041879167,-0.7923583984375,0.6104278564453125,-0.2501220703125,37993.24034279167,-2.992766478271657,-1.331971630080135,-0.6451430334524312,-0.2015882283449173,0.2478493452072144,-0.01817394979298115,0.005155980587005615,0.01366215944290161,-0.04835057258605957,XArbitraryZVertical,-0.6028786140033273,0.2050114510968424,-0.7291282420139426,0.2507581505443146,-0.7763350605964661,0.6013127565383911,-0.1890153586864471,0,0,0,-1,-1,37982.98888104167,unknown,2,2025-04-22T16:39:10.860+03:00,2025-04-21T17:08:51.449+03:00,8620,1.064866,0,0,7158.132,7,22,2025-04-22T16:39:18.598+03:00,767021958.7000424,0,-13.00999,100.3599,1,0.45,2025-04-22T16:39:17.666+03:00,99,1.65,2025-04-22T14:20:19.516+03:00,0.02197104130929222,0
2025-04-22T16:39:21.136+03:00,1745329159.184034,40.9522769728346,29.14030140780613,76.45547,-1,-1,-1,-1,30,23.87926777261467,-9999,37993.26049479167,-0.7951812744140625,0.608245849609375,-0.2764434814453125,37993.25041879167,-2.995719745094737,-1.330871957531645,-0.6455023688870819,-0.2795709073543549,0.295916736125946,-0.02353675849735737,-0.0113908052444458,0.00991135835647583,-0.05467414855957031,XArbitraryZVertical,-0.6021487201040122,0.2061749567296591,-0.7297765905356605,0.2496696260437231,-0.7759168148040771,0.6015998125076294,-0.1898176074028015,0,0,0,-1,-1,37982.98888104167,unknown,2,2025-04-22T16:39:10.860+03:00,2025-04-21T17:08:51.449+03:00,8620,1.064866,0,0,7158.132,7,22,2025-04-22T16:39:18.598+03:00,767021958.7000424,0,-13.00999,100.3599,1,0.45,2025-04-22T16:39:17.666+03:00,99,1.65,2025-04-22T14:20:19.516+03:00,0.02197104130929222,0
2025-04-22T16:39:21.146+03:00,1745329159.184034,40.9522769728346,29.14030140780613,76.45547,-1,-1,-1,-1,30,23.87926777261467,-9999,37993.27057179167,-0.801300048828125,0.6090850830078125,-0.285675048828125,37993.26049479167,-2.99979601641792,-1.330366384603288,-0.6461298984257721,-0.3726722896099091,0.2986401617527008,-0.005804866086691618,-0.02012401819229126,0.00661778450012207,-0.07709215581417084,XArbitraryZVertical,-0.6014979268822216,0.2077024058786613,-0.7303447727900396,0.2483069433123962,-0.7754538059234619,0.6021009683609009,-0.1901199072599411,0,0,0,-1,-1,37982.98888104167,unknown,2,2025-04-22T16:39:10.860+03:00,2025-04-21T17:08:51.449+03:00,8620,1.064866,0,0,7158.132,7,22,2025-04-22T16:39:18.598+03:00,767021958.7000424,0,-13.00999,100.3599,1,0.45,2025-04-22T16:39:17.666+03:00,99,1.65,2025-04-22T14:20:19.516+03:00,0.02197104130929222,0
2025-04-22T16:39:21.156+03:00,1745329159.184034,40.9522769728346,29.14030140780613,76.45547,-1,-1,-1,-1,30,23.87926777261467,-9999,37993.28064779167,-0.8203887939453125,0.603363037109375,-0.3004913330078125,37993.27057179167,-3.004642413778591,-1.330407203951114,-0.6469938273531258,-0.406561017036438,0.2726669013500214,-0.008228342980146408,-0.02152204513549805,0.007728815078735352,-0.0946122407913208,XArbitraryZVertical,-0.6009453192118742,0.2094816052044129,-0.7308071113459463,0.2467855280706337,-0.7749561667442322,0.6027905344963074,-0.1899643540382385,0,0,0,-1,-1,37982.98888104167,unknown,2,2025-04-22T16:39:10.860+03:00,2025-04-21T17:08:51.449+03:00,8620,1.064866,0,0,7158.132,7,22,2025-04-22T16:39:18.598+03:00,767021958.7000424,0,-13.00999,100.3599,1,0.45,2025-04-22T16:39:17.666+03:00,99,1.65,2025-04-22T14:20:19.516+03:00,0.02197104130929222,0
2025-04-22T16:39:21.166+03:00,1745329159.184034,40.9522769728346,29.14030140780613,76.45547,-1,-1,-1,-1,30,23.87926777261467,-9999,37993.29072479167,-0.8126220703125,0.645904541015625,-0.331085205078125,37993.28064779167,-3.008994736078977,-1.330302626926873,-0.6479270589862117,-0.2629807591438293,0.2767856419086456,0.04805060848593712,-0.03972774744033813,-0.000690758228302002,-0.1010587513446808,XArbitraryZVertical,-0.6003814483351348,0.2111550683483208,-0.7312391175427558,0.2454482737793319,-0.7743895053863525,0.6035348773002625,-0.1899113059043884,0,0,0,-1,-1,37982.98888104167,unknown,2,2025-04-22T16:39:10.860+03:00,2025-04-21T17:08:51.449+03:00,8620,1.064866,0,0,7158.132,7,22,2025-04-22T16:39:18.598+03:00,767021958.7000424,0,-13.00999,100.3599,1,0.45,2025-04-22T16:39:17.666+03:00,99,1.65,2025-04-22T14:20:19.516+03:00,0.02197104130929222,0
2025-04-22T16:39:21.177+03:00,1745329159.184034,40.9522769728346,29.14030140780613,76.45547,-1,-1,-1,-1,30,23.87926777261467,-9999,37993.30080079167,-0.8010101318359375,0.7028350830078125,-0.3456268310546875,37993.29072479167,-3.011446932930893,-1.329197885080155,-0.6485445486011122,-0.1499775052070618,0.2287917733192444,-0.04335254058241844,-0.04751735925674438,0.0186992883682251,-0.1287043690681458,XArbitraryZVertical,-0.599672383880528,0.2122599097363189,-0.7317820345963023,0.2446095022364636,-0.7738173604011536,0.6040270924568176,-0.1906775236129761,0,0,0,-1,-1,37982.98888104167,unknown,2,2025-04-22T16:39:10.860+03:00,2025-04-21T17:08:51.449+03:00,8620,1.064866,0,0,7158.132,7,22,2025-04-22T16:39:18.598+03:00,767021958.7000424,0,-13.00999,100.3599,1,0.45,2025-04-22T16:39:17.666+03:00,99,1.65,2025-04-22T14:20:19.516+03:00,0.02197104130929222,0
2025-04-22T16:39:21.187+03:00,1745329159.184034,40.9522769728346,29.14030140780613,76.45547,-1,-1,-1,-1,30,23.87926777261467,-9999,37993.31087679167,-0.845611572265625,0.696075439453125,-0.3514556884765625,37993.30080079167,-3.013013035539837,-1.328020818512859,-0.6479735721370353,-0.0596906766295433,0.1929723173379898,-0.1185866743326187,-0.02287167310714722,0.08449262380599976,-0.1521706283092499,XArbitraryZVertical,-0.5991173212141954,0.2126567231233928,-0.7324082292084736,0.2437493288143563,-0.7739270329475403,0.6035719513893127,-0.1916711032390594,0,0,0,-1,-1,37982.98888104167,unknown,2,2025-04-22T16:39:10.860+03:00,2025-04-21T17:08:51.449+03:00,8620,1.064866,0,0,7158.132,7,22,2025-04-22T16:39:18.598+03:00,767021958.7000424,0,-13.00999,100.3599,1,0.45,2025-04-22T16:39:17.666+03:00,99,1.65,2025-04-22T14:20:19.516+03:00,0.02197104130929222,0
2025-04-22T16:39:21.197+03:00,1745329159.184034,40.9522769728346,29.14030140780613,76.45547,-1,-1,-1,-1,30,23.87926777261467,-9999,37993.32095379167,-0.83740234375,0.709136962890625,-0.38385009765625,37993.31087679167,-3.01361069030957,-1.326634687092813,-0.6466537666141537,0.03299851343035698,0.1520198285579681,-0.1594470292329788,-0.0561792254447937,0.09961390495300293,-0.1549187004566193,XArbitraryZVertical,-0.5986433931176243,0.2125042595464485,-0.7330855882911672,0.2430090462892799,-0.7744327783584595,0.602519154548645,-0.192936047911644,0,0,0,-1,-1,37982.98888104167,unknown,2,2025-04-22T16:39:10.860+03:00,2025-04-21T17:08:51.449+03:00,8620,1.064866,0,0,7158.132,7,22,2025-04-22T16:39:18.598+03:00,767021958.7000424,0,-13.00999,100.3599,1,0.45,2025-04-22T16:39:17.666+03:00,99,1.65,2025-04-22T14:20:19.516+03:00,0.02197104130929222,0
2025-04-22T16:39:21.206+03:00,1745329159.184034,40.9522769728346,29.14030140780613,76.45547,-1,-1,-1,-1,30,23.87926777261467,-9999,37993.33102979167,-0.814849853515625,0.7241973876953125,-0.419342041015625,37993.32095379167,-3.012943454191227,-1.324938005578396,-0.6446803854639236,0.1660377979278564,0.1050941273570061,-0.2004280090332031,-0.07120990753173828,0.09977096319198608,-0.1741137802600861,XArbitraryZVertical,-0.5982369208352371,0.2117621805724068,-0.7337953525344362,0.2425149517782657,-0.7752559781074524,0.6009430289268494,-0.1945387274026871,0,0,0,-1,-1,37982.98888104167,unknown,2,2025-04-22T16:39:10.860+03:00,2025-04-21T17:08:51.449+03:00,8620,1.064866,0,0,7158.132,7,22,2025-04-22T16:39:18.598+03:00,767021958.7000424,0,-13.00999,100.3599,1,0.45,2025-04-22T16:39:17.666+03:00,99,1.65,2025-04-22T14:20:19.516+03:00,0.02197104130929222,0
2025-04-22T16:39:21.217+03:00,1745329159.184034,40.9522769728346,29.14030140780613,76.45547,-1,-1,-1,-1,30,23.87926777261467,-9999,37993.34110679167,-0.805389404296875,0.718292236328125,-0.432464599609375,37993.33102979167,-3.011036489670285,-1.323028640975707,-0.6419018401842084,0.2487419992685318,0.04875095933675766,-0.2591733336448669,-0.04466789960861206,0.1235548257827759,-0.2128745764493942,XArbitraryZVertical,-0.5979393442474568,0.2103683766668651,-0.7345334593810784,0.242227408375215,-0.7764989137649536,0.5987198352813721,-0.1964273750782013,0,0,0,-1,-1,37982.98888104167,unknown,2,2025-04-22T16:39:10.860+03:00,2025-04-21T17:08:51.449+03:00,8620,1.064866,0,0,7158.132,7,22,2025-04-22T16:39:18.598+03:00,767021958.7000424,0,-13.00999,100.3599,1,0.45,2025-04-22T16:39:17.666+03:00,99,1.65,2025-04-22T14:20:19.516+03:00,0.02197104130929222,0
2025-04-22T16:39:21.227+03:00,1745329159.184034,40.9522769728346,29.14030140780613,76.45547,-1,-1,-1,-1,30,23.87926777261467,-9999,37993.35118279167,-0.8025970458984375,0.6941375732421875,-0.4453277587890625,37993.34110679167,-3.008942983968649,-1.321679572295103,-0.6386176033646275,0.2218637764453888,-0.03047807887196541,-0.2904119491577148,-0.03013843297958374,0.1253493428230286,-0.2313782423734665,XArbitraryZVertical,-0.5978987053445555,0.2086573583981076,-0.735153340979947,0.2419270569860099,-0.7781347632408142,0.5960860848426819,-0.1979584842920303,0,0,0,-1,-1,37982.98888104167,unknown,2,2025-04-22T16:39:10.860+03:00,2025-04-21T17:08:51.449+03:00,8620,1.064866,0,0,7158.132,7,22,2025-04-22T16:39:18.598+03:00,767021958.7000424,0,-13.00999,100.3599,1,0.45,2025-04-22T16:39:17.666+03:00,99,1.65,2025-04-22T14:20:19.516+03:00,0.02197104130929222,0
2025-04-22T16:39:21.237+03:00,1745329159.184034,40.9522769728346,29.14030140780613,76.45547,-1,-1,-1,-1,30,23.87926777261467,-9999,37993.36125879167,-0.810211181640625,0.6628875732421875,-0.44482421875,37993.35118279167,-3.007759894957968,-1.321761262110081,-0.6352412300697144,0.1230506375432014,-0.1250488013029099,-0.3102093636989594,-0.02217942476272583,0.1132169961929321,-0.2418416738510132,XArbitraryZVertical,-0.5982911346634994,0.207009138727021,-0.7354679359547264,0.2414163606085654,-0.7800971269607544,0.5933716893196106,-0.1983898729085922,0,0,0,-1,-1,37982.98888104167,unknown,2,2025-04-22T16:39:10.860+03:00,2025-04-21T17:08:51.449+03:00,8620,1.064866,0,0,7158.132,7,22,2025-04-22T16:39:18.598+03:00,767021958.7000424,0,-13.00999,100.3599,1,0.45,2025-04-22T16:39:17.666+03:00,99,1.65,2025-04-22T14:20:19.516+03:00,0.02197104130929222,0
2025-04-22T16:39:21.247+03:00,1745329159.184034,40.9522769728346,29.14030140780613,76.45547,-1,-1,-1,-1,30,23.87926777261467,-9999,37993.37133579167,-0.8149871826171875,0.6519012451171875,-0.427886962890625,37993.36125879167,-3.007872352667685,-1.323452800904553,-0.6320446612389554,0.02250406332314014,-0.19971664249897,-0.307218611240387,-0.02434343099594116,0.08257460594177246,-0.250709056854248,XArbitraryZVertical,-0.5991265793903713,0.2056226228563361,-0.7354294312767401,0.2406451495946925,-0.7822664380073547,0.5907956957817078,-0.1975333541631699,0,0,0,-1,-1,37982.98888104167,unknown,2,2025-04-22T16:39:10.860+03:00,2025-04-21T17:08:51.449+03:00,8620,1.064866,0,0,7158.132,7,22,2025-04-22T16:39:18.598+03:00,767021958.7000424,0,-13.00999,100.3599,1,0.45,2025-04-22T16:39:17.666+03:00,99,1.65,2025-04-22T14:20:19.516+03:00,0.02197104130929222,0
2025-04-22T16:39:21.257+03:00,1745329159.184034,40.9522769728346,29.14030140780613,76.45547,-1,-1,-1,-1,30,23.87926777261467,-9999,37993.38141179167,-0.8160247802734375,0.6490325927734375,-0.4164276123046875,37993.37133579167,-3.008841985632396,-1.326477528773054,-0.6290469739013467,-0.02469887025654316,-0.2885362505912781,-0.3060446977615356,-0.02972513437271118,0.0653119683265686,-0.2383663505315781,XArbitraryZVertical,-0.6003495836810182,0.2044100481913475,-0.7350627714111166,0.2397486347757654,-0.7845752239227295,0.5883744359016418,-0.1955938190221786,0,0,0,-1,-1,37982.98888104167,unknown,2,2025-04-22T16:39:10.860+03:00,2025-04-21T17:08:51.449+03:00,8620,1.064866,0,0,7158.132,7,22,2025-04-22T16:39:18.598+03:00,767021958.7000424,0,-13.00999,100.3599,1,0.45,2025-04-22T16:39:17.666+03:00,99,1.65,2025-04-22T14:20:19.516+03:00,0.02197104130929222,0
2025-04-22T16:39:21.267+03:00,1745329159.184034,40.9522769728346,29.14030140780613,76.45547,-1,-1,-1,-1,30,23.87926777261467,-9999,37993.39148879167,-0.8133697509765625,0.6593780517578125,-0.40728759765625,37993.38141179167,-3.010055344602632,-1.330637566166411,-0.6260517002928482,-0.0168547946959734,-0.394411027431488,-0.3169437050819397,-0.02846121788024902,0.06352525949478149,-0.2277095019817352,XArbitraryZVertical,-0.6019644725812501,0.2031389910127505,-0.7343788627868791,0.2388744602358484,-0.787090539932251,0.5859498381614685,-0.1927466541528702,0,0,0,-1,-1,37982.98888104167,unknown,2,2025-04-22T16:39:10.860+03:00,2025-04-21T17:08:51.449+03:00,8620,1.064866,0,0,7158.132,7,22,2025-04-22T16:39:18.598+03:00,767021958.7000424,0,-13.00999,100.3599,1,0.45,2025-04-22T16:39:17.666+03:00,99,1.65,2025-04-22T14:20:19.516+03:00,0.02197104130929222,0
2025-04-22T16:39:21.277+03:00,1745329159.184034,40.9522769728346,29.14030140780613,76.45547,-1,-1,-1,-1,30,23.87926777261467,-9999,37993.40156479167,-0.8090362548828125,0.68231201171875,-0.39935302734375,37993.39148879167,-3.010930699844755,-1.335526387458441,-0.6229201729773514,0.03642147406935692,-0.4760898947715759,-0.3257971107959747,-0.02477127313613892,0.06934624910354614,-0.2206806838512421,XArbitraryZVertical,-0.6038899289804971,0.2016317758774467,-0.7334468338857072,0.2381534751739799,-0.789803683757782,0.5834093689918518,-0.1893231570720673,0,0,0,-1,-1,37982.98888104167,unknown,2,2025-04-22T16:39:10.860+03:00,2025-04-21T17:08:51.449+03:00,8620,1.064866,0,0,7158.132,7,22,2025-04-22T16:39:18.598+03:00,767021958.7000424,0,-13.00999,100.3599,1,0.45,2025-04-22T16:39:17.666+03:00,99,1.65,2025-04-22T14:20:19.516+03:00,0.02197104130929222,0
2025-04-22T16:39:21.287+03:00,1745329159.184034,40.9522769728346,29.14030140780613,76.45547,-1,-1,-1,-1,30,23.87926777261467,-9999,37993.41164079167,-0.80499267578125,0.68603515625,-0.3885955810546875,37993.40156479167,-3.011040453267437,-1.34075004535067,-0.6195417398870362,0.0969063863158226,-0.548316478729248,-0.3337811529636383,-0.01733136177062988,0.09469187259674072,-0.2176313549280167,XArbitraryZVertical,-0.606030326573284,0.1997637459466096,-0.7323493035033551,0.2376683463333464,-0.7926967144012451,0.5806621313095093,-0.1856433749198914,0,0,0,-1,-1,37982.98888104167,unknown,2,2025-04-22T16:39:10.860+03:00,2025-04-21T17:08:51.449+03:00,8620,1.064866,0,0,7158.132,7,22,2025-04-22T16:39:18.598+03:00,767021958.7000424,0,-13.00999,100.3599,1,0.45,2025-04-22T16:39:17.666+03:00,99,1.65,2025-04-22T14:20:19.516+03:00,0.02197104130929222,0
2025-04-22T16:39:21.297+03:00,1745329159.184034,40.9522769728346,29.14030140780613,76.45547,-1,-1,-1,-1,30,23.87926777261467,-9999,37993.42171779167,-0.8082122802734375,0.665985107421875,-0.36785888671875,37993.41164079167,-3.010523488718696,-1.346308900040517,-0.6159009873445256,0.1463418453931808,-0.6109622716903687,-0.3479957580566406,-0.009663045406341553,0.1100651025772095,-0.2111343145370483,XArbitraryZVertical,-0.6083703973868027,0.1975696131928078,-0.7311028650257215,0.2373609656959373,-0.7957720756530762,0.5776941776275635,-0.1817034184932709,0,0,0,-1,-1,37982.98888104167,unknown,2,2025-04-22T16:39:10.860+03:00,2025-04-21T17:08:51.449+03:00,8620,1.064866,0,0,7158.132,7,22,2025-04-22T16:39:21.178+03:00,767021961.278446,0,-13.04,100.3592,1,0.45,2025-04-22T16:39:17.666+03:00,99,1.65,2025-04-22T14:20:19.516+03:00,0.02197104130929222,0
2025-04-22T16:39:21.308+03:00,1745329159.184034,40.9522769728346,29.14030140780613,76.45547,-1,-1,-1,-1,30,23.87926777261467,-9999,37993.43179379167,-0.8107757568359375,0.6416473388671875,-0.3387603759765625,37993.42171779167,-3.009333482354933,-1.352055124562074,-0.6120549917735545,0.2103104442358017,-0.6618589758872986,-0.3505682349205017,-0.006850540637969971,0.1008642911911011,-0.1990547627210617,XArbitraryZVertical,-0.6108537768785631,0.195072734784291,-0.7297383562123438,0.2372470438642384,-0.7989659905433655,0.5745506286621094,-0.1776085793972015,0,0,0,-1,-1,37982.98888104167,unknown,2,2025-04-22T16:39:10.860+03:00,2025-04-21T17:08:51.449+03:00,8620,1.064866,0,0,7158.132,7,22,2025-04-22T16:39:21.178+03:00,767021961.278446,0,-13.04,100.3592,1,0.45,2025-04-22T16:39:17.666+03:00,99,1.65,2025-04-22T14:20:19.516+03:00,0.02197104130929222,0
2025-04-22T16:39:21.318+03:00,1745329159.184034,40.9522769728346,29.14030140780613,76.45547,-1,-1,-1,-1,30,23.87926777261467,-9999,37993.44187079167,-0.8115386962890625,0.6300506591796875,-0.3146820068359375,37993.43179379167,-3.007385584341814,-1.3578443948574,-0.6080623807285144,0.2664637267589569,-0.7038687467575073,-0.3559885621070862,-0.008971095085144043,0.07812047004699707,-0.1759933680295944,XArbitraryZVertical,-0.6134288490486931,0.1922842864483006,-0.728280702754502,0.2373578857978201,-0.8022164106369019,0.5712782144546509,-0.1734635978937149,0,0,0,-1,-1,37982.98888104167,unknown,2,2025-04-22T16:39:10.860+03:00,2025-04-21T17:08:51.449+03:00,8620,1.064866,0,0,7158.132,7,22,2025-04-22T16:39:21.178+03:00,767021961.278446,0,-13.04,100.3592,1,0.45,2025-04-22T16:39:17.666+03:00,99,1.65,2025-04-22T14:20:19.516+03:00,0.02197104130929222,0
2025-04-22T16:39:21.331+03:00,1745329159.184034,40.9522769728346,29.14030140780613,76.45547,-1,-1,-1,-1,30,23.87926777261467,-9999,37993.45194679167,-0.817169189453125,0.6145782470703125,-0.2916412353515625,37993.44187079167,-3.004861370211949,-1.363595457250062,-0.6039334614959655,0.306629866361618,-0.720656156539917,-0.3577346503734589,-0.005837857723236084,0.06562978029251099,-0.1536519527435303,XArbitraryZVertical,-0.6160446027738827,0.1892710882676044,-0.7267750554489594,0.2376203850535988,-0.8055023550987244,0.5678845047950745,-0.1693309992551804,0,0,0,-1,-1,37982.98888104167,unknown,2,2025-04-22T16:39:10.860+03:00,2025-04-21T17:08:51.449+03:00,8620,1.064866,0,0,7158.132,7,22,2025-04-22T16:39:21.178+03:00,767021961.278446,0,-13.04,100.3592,1,0.45,2025-04-22T16:39:17.666+03:00,99,1.65,2025-04-22T14:20:19.516+03:00,0.02197104130929222,0
2025-04-22T16:39:21.338+03:00,1745329159.184034,40.9522769728346,29.14030140780613,76.45547,-1,-1,-1,-1,30,23.87926777261467,-9999,37993.46202279167,-0.82904052734375,0.5887451171875,-0.250274658203125,37993.45194679167,-3.001922836113434,-1.369274886947093,-0.5996742807481583,0.3324342966079712,-0.7389305233955383,-0.3765019476413727,-0.004968047142028809,0.0575135350227356,-0.1366439461708069,XArbitraryZVertical,-0.6186706118985864,0.1860876079486251,-0.7252495779823422,0.2379729146822366,-0.8088135719299316,0.5643736124038696,-0.1652361452579498,0,0,0,-1,-1,37982.98888104167,unknown,2,2025-04-22T16:39:10.860+03:00,2025-04-21T17:08:51.449+03:00,8620,1.064866,0,0,7158.132,7,22,2025-04-22T16:39:21.178+03:00,767021961.278446,0,-13.04,100.3592,1,0.45,2025-04-22T16:39:17.666+03:00,99,1.65,2025-04-22T14:20:19.516+03:00,0.02197104130929222,0
2025-04-22T16:39:21.348+03:00,1745329159.184034,40.9522769728346,29.14030140780613,76.45547,-1,-1,-1,-1,30,23.87926777261467,-9999,37993.47209979167,-0.8357086181640625,0.5687408447265625,-0.1975860595703125,37993.46202279167,-2.99870506048841,-1.37498100635477,-0.5952098001242461,0.3650501668453217,-0.7476154565811157,-0.3897395133972168,-0.01192045211791992,0.03743147850036621,-0.1068680882453918,XArbitraryZVertical,-0.6213329076102201,0.1827346460529666,-0.7236999226536566,0.2383524079946023,-0.8122066855430603,0.560682475566864,-0.1611069291830063,0,0,0,-1,-1,37982.98888104167,unknown,2,2025-04-22T16:39:10.860+03:00,2025-04-21T17:08:51.449+03:00,8620,1.064866,0,0,7158.132,7,22,2025-04-22T16:39:21.178+03:00,767021961.278446,0,-13.04,100.3592,1,0.45,2025-04-22T16:39:17.666+03:00,99,1.65,2025-04-22T14:20:19.516+03:00,0.02197104130929222,0
2025-04-22T16:39:21.358+03:00,1745329159.184034,40.9522769728346,29.14030140780613,76.45547,-1,-1,-1,-1,30,23.87926777261467,-9999,37993.48217579167,-0.8320770263671875,0.5476531982421875,-0.1449432373046875,37993.47209979167,-2.994956682245075,-1.380270360307992,-0.5905710515658007,0.4164281189441681,-0.7141126394271851,-0.3989000022411346,-0.01898694038391113,0.01913803815841675,-0.06053519248962402,XArbitraryZVertical,-0.6238897746265192,0.1791976534669518,-0.7222298041119148,0.2388175619684861,-0.8155924677848816,0.556835412979126,-0.1572995036840439,0,0,0,-1,-1,37982.98888104167,unknown,2,2025-04-22T16:39:10.860+03:00,2025-04-21T17:08:51.449+03:00,8620,1.064866,0,0,7158.132,7,22,2025-04-22T16:39:21.178+03:00,767021961.278446,0,-13.04,100.3592,1,0.45,2025-04-22T16:39:17.666+03:00,99,1.65,2025-04-22T14:20:19.516+03:00,0.02197104130929222,0
2025-04-22T16:39:21.369+03:00,1745329159.184034,40.9522769728346,29.14030140780613,76.45547,-1,-1,-1,-1,30,23.87926777261467,-9999,37993.49225279167,-0.8216094970703125,0.5307159423828125,-0.0983734130859375,37993.48217579167,-2.990680104976929,-1.384908247100455,-0.5857684427170623,0.4533056318759918,-0.6824395060539246,-0.4067419469356537,-0.01650184392929077,0.002183258533477783,-0.0106654167175293,XArbitraryZVertical,-0.62625323630677,0.1755079737941575,-0.7209126845306286,0.239350483750534,-0.8189319372177124,0.5528398752212524,-0.1540076732635498,0,0,0,-1,-1,37982.98888104167,unknown,2,2025-04-22T16:39:10.860+03:00,2025-04-21T17:08:51.449+03:00,8620,1.064866,0,0,7158.132,7,22,2025-04-22T16:39:21.178+03:00,767021961.278446,0,-13.04,100.3592,1,0.45,2025-04-22T16:39:17.666+03:00,99,1.65,2025-04-22T14:20:19.516+03:00,0.02197104130929222,0
2025-04-22T16:39:21.380+03:00,1745329159.184034,40.9522769728346,29.14030140780613,76.45547,-1,-1,-1,-1,30,23.87926777261467,-9999,37993.50232879167,-0.8128509521484375,0.5238189697265625,-0.0672607421875,37993.49225279167,-2.986036885048262,-1.389064630280574,-0.5808607020301605,0.4806064963340759,-0.6472796201705933,-0.4092463850975037,-0.003703951835632324,-0.01268720626831055,0.03666526079177856,XArbitraryZVertical,-0.6284646050744184,0.1717168705993358,-0.7197086119143846,0.2399271615426197,-0.8222237229347229,0.5487436652183533,-0.1510911136865616,0,0,0,-1,-1,37982.98888104167,unknown,2,2025-04-22T16:39:10.860+03:00,2025-04-21T17:08:51.449+03:00,8620,1.064866,0,0,7158.132,7,22,2025-04-22T16:39:21.178+03:00,767021961.278446,0,-13.04,100.3592,1,0.45,2025-04-22T16:39:17.666+03:00,99,1.65,2025-04-22T14:20:19.516+03:00,0.02197104130929222,0
2025-04-22T16:39:21.388+03:00,1745329159.184034,40.9522769728346,29.14030140780613,76.45547,-1,-1,-1,-1,30,23.87926777261467,-9999,37993.51240479167,-0.820404052734375,0.5282135009765625,-0.0529327392578125,37993.50232879167,-2.981155724000268,-1.392753658685734,-0.5759502674095996,0.4855978190898895,-0.6098734140396118,-0.4009847342967987,0.01023203134536743,-0.01928722858428955,0.07242125272750854,XArbitraryZVertical,-0.6305102075321847,0.1679009335558428,-0.7186160767147095,0.2405348701691233,-0.8254174590110779,0.5446320176124573,-0.1485323160886765,0,0,0,-1,-1,37982.98888104167,unknown,2,2025-04-22T16:39:10.860+03:00,2025-04-21T17:08:51.449+03:00,8620,1.064866,0,0,7158.132,7,22,2025-04-22T16:39:21.178+03:00,767021961.278446,0,-13.04,100.3592,1,0.45,2025-04-22T16:39:17.666+03:00,99,1.65,2025-04-22T14:20:19.516+03:00,0.02197104130929222,0
2025-04-22T16:39:21.398+03:00,1745329159.184034,40.9522769728346,29.14030140780613,76.45547,-1,-1,-1,-1,30,23.87926777261467,-9999,37993.522481,-0.8355255126953125,0.528106689453125,-0.02850341796875,37993.512404,-2.976311239637977,-1.396074561554566,-0.5713039808191284,0.474724143743515,-0.580349862575531,-0.366287499666214,0.01256299018859863,-0.01437753438949585,0.08874863386154175,XArbitraryZVertical,-0.6323864830441571,0.1642345658627944,-0.7176027691745415,0.2411650644216954,-0.8283892869949341,0.5407294034957886,-0.1462286859750748,0,0,0,-1,-1,37982.98888104167,unknown,2,2025-04-22T16:39:10.860+03:00,2025-04-21T17:08:51.449+03:00,8620,1.064866,0,0,7158.132,7,22,2025-04-22T16:39:21.178+03:00,767021961.278446,0,-13.04,100.3592,1,0.45,2025-04-22T16:39:17.666+03:00,99,1.65,2025-04-22T14:20:19.516+03:00,0.02197104130929222,0
2025-04-22T16:39:21.408+03:00,1745329159.184034,40.9522769728346,29.14030140780613,76.45547,-1,-1,-1,-1,30,23.87926777261467,-9999,37993.53255700001,-0.8336639404296875,0.525848388671875,0.0064239501953125,37993.522481,-2.971610080569421,-1.399226382031702,-0.5670478183565844,0.4469923377037048,-0.5486385226249695,-0.3330038189888,-0.0001620650291442871,-0.007939040660858154,0.103618398308754,XArbitraryZVertical,-0.634150669888264,0.1607750253385213,-0.7166028983760085,0.2418357122915193,-0.8311061263084412,0.5371442437171936,-0.1440086364746094,0,0,0,-1,-1,37982.98888104167,unknown,2,2025-04-22T16:39:10.860+03:00,2025-04-21T17:08:51.449+03:00,8620,1.064866,0,0,7158.132,7,22,2025-04-22T16:39:21.178+03:00,767021961.278446,0,-13.04,100.3592,1,0.45,2025-04-22T16:39:17.666+03:00,99,1.65,2025-04-22T14:20:19.516+03:00,0.02197104130929222,0
2025-04-22T16:39:21.419+03:00,1745329159.184034,40.9522769728346,29.14030140780613,76.45547,-1,-1,-1,-1,30,23.87926777261467,-9999,37993.542634,-0.8272247314453125,0.518402099609375,0.0241241455078125,37993.53255700001,-2.966932963384325,-1.402181825493357,-0.5631103974432046,0.4666808247566223,-0.5380735397338867,-0.299046665430069,-0.0022391676902771,-0.007009327411651611,0.1357712894678116,XArbitraryZVertical,-0.635809016791928,0.1574614787472096,-0.7156211428635373,0.2425676495635142,-0.8336066007614136,0.5338189005851746,-0.1419055610895157,0,0,0,-1,-1,37982.98888104167,unknown,2,2025-04-22T16:39:10.860+03:00,2025-04-21T17:08:51.449+03:00,8620,1.064866,0,0,7158.132,7,22,2025-04-22T16:39:21.178+03:00,767021961.278446,0,-13.04,100.3592,1,0.45,2025-04-22T16:39:17.666+03:00,99,1.65,2025-04-22T14:20:19.516+03:00,0.02197104130929222,0
2025-04-22T16:39:21.430+03:00,1745329159.184034,40.9522769728346,29.14030140780613,76.45547,-1,-1,-1,-1,30,23.87926777261467,-9999,37993.55271,-0.825103759765625,0.521240234375,0.0115966796875,37993.542634,-2.961838016815649,-1.404880619974552,-0.5595560419312678,0.4869013726711273,-0.5301690697669983,-0.2572233378887177,0.00560683012008667,-0.009142577648162842,0.1615282893180847,XArbitraryZVertical,-0.6373720972753639,0.1541846663067093,-0.7146150278071389,0.243534853478086,-0.8358526825904846,0.5308099985122681,-0.1399677991867065,0,0,0,-1,-1,37982.98888104167,unknown,2,2025-04-22T16:39:10.860+03:00,2025-04-21T17:08:51.449+03:00,8620,1.064866,0,0,7158.132,7,22,2025-04-22T16:39:21.178+03:00,767021961.278446,0,-13.04,100.3592,1,0.45,2025-04-22T16:39:17.666+03:00,99,1.65,2025-04-22T14:20:19.516+03:00,0.02197104130929222,0
2025-04-22T16:39:21.438+03:00,1745329159.184034,40.9522769728346,29.14030140780613,76.45547,-1,-1,-1,-1,30,23.87926777261467,-9999,37993.562786,-0.8333892822265625,0.5130157470703125,0.0188446044921875,37993.55271,-2.956588342448089,-1.407237455455984,-0.5562440198238576,0.4944644868373871,-0.4882250726222992,-0.253158837556839,0.0137830376625061,-0.009308278560638428,0.156181275844574,XArbitraryZVertical,-0.6387971495056518,0.1509858791223562,-0.7136625212101554,0.2445958463499985,-0.8379101157188416,0.5280001759529114,-0.1382829248905182,0,0,0,-1,-1,37982.98888104167,unknown,2,2025-04-22T16:39:10.860+03:00,2025-04-21T17:08:51.449+03:00,8620,1.064866,0,0,7158.132,7,22,2025-04-22T16:39:21.178+03:00,767021961.278446,0,-13.04,100.3592,1,0.45,2025-04-22T16:39:17.666+03:00,99,1.65,2025-04-22T14:20:19.516+03:00,0.02197104130929222,0
2025-04-22T16:39:21.449+03:00,1745329159.184034,40.9522769728346,29.14030140780613,76.45547,-1,-1,-1,-1,30,23.87926777261467,-9999,37993.572863,-0.8325042724609375,0.503753662109375,0.0392913818359375,37993.562786,-2.951053382336658,-1.409001091892981,-0.5527843519565396,0.5488626956939697,-0.4405899941921234,-0.271754115819931,0.009872555732727051,-0.005436182022094727,0.1490305662155151,XArbitraryZVertical,-0.6400256977215852,0.1477088418255017,-0.7128806311221354,0.2456630916874915,-0.8399506211280823,0.525058925151825,-0.1370984017848969,0,0,0,-1,-1,37982.98888104167,unknown,2,2025-04-22T16:39:10.860+03:00,2025-04-21T17:08:51.449+03:00,8620,1.064866,0,0,7158.132,7,22,2025-04-22T16:39:21.178+03:00,767021961.278446,0,-13.04,100.3592,1,0.45,2025-04-22T16:39:17.666+03:00,99,1.65,2025-04-22T14:20:19.516+03:00,0.02197104130929222,0
2025-04-22T16:39:21.458+03:00,1745329159.184034,40.9522769728346,29.14030140780613,76.45547,-1,-1,-1,-1,30,23.87926777261467,-9999,37993.582939,-0.815948486328125,0.5269775390625,0.0645294189453125,37993.572863,-2.944502923342182,-1.409686013422202,-0.5490574616299626,0.6677906513214111,-0.3742503821849823,-0.277402400970459,0.00726848840713501,-0.01774847507476807,0.1693523079156876,XArbitraryZVertical,-0.6409422776714848,0.1441353119023946,-0.7123512452826862,0.2469282593655212,-0.841969907283783,0.521883487701416,-0.1368360221385956,0,0,0,-1,-1,37982.98888104167,unknown,2,2025-04-22T16:39:10.860+03:00,2025-04-21T17:08:51.449+03:00,8620,1.064866,0,0,7158.132,7,22,2025-04-22T16:39:21.178+03:00,767021961.278446,0,-13.04,100.3592,1,0.45,2025-04-22T16:39:17.666+03:00,99,1.65,2025-04-22T14:20:19.516+03:00,0.02197104130929222,0
2025-04-22T16:39:21.469+03:00,1745329159.184034,40.9522769728346,29.14030140780613,76.45547,-1,-1,-1,-1,30,23.87926777261467,-9999,37993.593016,-0.8079071044921875,0.540771484375,0.1170806884765625,37993.582939,-2.936453593056303,-1.408857356975789,-0.5449954717842124,0.8062885999679565,-0.2918990254402161,-0.3022463917732239,0.02155387401580811,-0.00181281566619873,0.1896013766527176,XArbitraryZVertical,-0.6414232384897767,0.1401394667109797,-0.7121628394506658,0.2485176386693995,-0.843941330909729,0.5184141993522644,-0.1378743201494217,0,0,0,-1,-1,37982.98888104167,unknown,2,2025-04-22T16:39:10.860+03:00,2025-04-21T17:08:51.449+03:00,8620,1.064866,0,0,7158.132,7,22,2025-04-22T16:39:21.178+03:00,767021961.278446,0,-13.04,100.3592,1,0.45,2025-04-22T16:39:17.666+03:00,99,1.65,2025-04-22T14:20:19.516+03:00,0.02197104130929222,0
2025-04-22T16:39:21.480+03:00,1745329159.184034,40.9522769728346,29.14030140780613,76.45547,-1,-1,-1,-1,30,23.87926777261467,-9999,37993.603092,-0.80810546875,0.5300445556640625,0.1610107421875,37993.593016,-2.927124181728804,-1.406500769056427,-0.5404823147443125,0.9003874063491821,-0.1970012933015823,-0.3224254250526428,0.03664875030517578,0.02535206079483032,0.2359774708747864,XArbitraryZVertical,-0.641443204409143,0.1357519847010131,-0.7123612014525407,0.2503267018260694,-0.845913827419281,0.5145496129989624,-0.1402440220117569,0,0,0,-1,-1,37982.98888104167,unknown,2,2025-04-22T16:39:10.860+03:00,2025-04-21T17:08:51.449+03:00,8620,1.064866,0,0,7158.132,7,22,2025-04-22T16:39:21.178+03:00,767021961.278446,0,-13.04,100.3592,1,0.45,2025-04-22T16:39:17.666+03:00,99,1.65,2025-04-22T14:20:19.516+03:00,0.02197104130929222,0
2025-04-22T16:39:21.489+03:00,1745329159.184034,40.9522769728346,29.14030140780613,76.45547,-1,-1,-1,-1,30,23.87926777261467,-9999,37993.613168,-0.80426025390625,0.5134124755859375,0.1956024169921875,37993.603092,-2.917162170339799,-1.402955354773319,-0.5356764922928771,0.9172694683074951,-0.117593802511692,-0.341129869222641,0.03933745622634888,0.02441281080245972,0.2908397316932678,XArbitraryZVertical,-0.6410612862605588,0.1312005730720148,-0.7128947768873297,0.25220559111471,-0.8478394746780396,0.5104228854179382,-0.1436536759138107,0,0,0,-1,-1,37982.98888104167,unknown,2,2025-04-22T16:39:10.860+03:00,2025-04-21T17:08:51.449+03:00,8620,1.064866,0,0,7158.132,7,22,2025-04-22T16:39:21.178+03:00,767021961.278446,0,-13.04,100.3592,1,0.45,2025-04-22T16:39:17.666+03:00,99,1.65,2025-04-22T14:20:19.516+03:00,0.02197104130929222,0
2025-04-22T16:39:21.499+03:00,1745329159.184034,40.9522769728346,29.14030140780613,76.45547,-1,-1,-1,-1,30,23.87926777261467,-9999,37993.623245,-0.796478271484375,0.4870452880859375,0.221160888671875,37993.613168,-2.907772065148781,-1.399031881289814,-0.5307351210009222,0.8196419477462769,-0.04996762797236443,-0.3530808091163635,0.04356139898300171,0.01603394746780396,0.3292471170425415,XArbitraryZVertical,-0.6404763127004726,0.126830290202512,-0.713633899049786,0.2538319346648172,-0.8497440814971924,0.506167471408844,-0.1474083364009857,0,0,0,-1,-1,37982.98888104167,unknown,2,2025-04-22T16:39:10.860+03:00,2025-04-21T17:08:51.449+03:00,8620,1.064866,0,0,7158.132,7,22,2025-04-22T16:39:21.178+03:00,767021961.278446,0,-13.04,100.3592,1,0.45,2025-04-22T16:39:17.666+03:00,99,1.65,2025-04-22T14:20:19.516+03:00,0.02197104130929222,0
2025-04-22T16:39:21.509+03:00,1745329159.184034,40.9522769728346,29.14030140780613,76.45547,-1,-1,-1,-1,30,23.87926777261467,-9999,37993.633321,-0.79278564453125,0.4786834716796875,0.2264404296875,37993.623245,-2.899947163149123,-1.395232850091004,-0.5259133948577753,0.6604343056678772,0.02220177464187145,-0.3619844913482666,0.05228543281555176,-0.006138384342193604,0.3656747341156006,XArbitraryZVertical,-0.6397992585452275,0.1229914415120061,-0.7145107766573525,0.2549594679680258,-0.851571261882782,0.5020031929016113,-0.1510600298643112,0,0,0,-1,-1,37982.98888104167,unknown,2,2025-04-22T16:39:10.860+03:00,2025-04-21T17:08:51.449+03:00,8620,1.064866,0,0,7158.132,7,22,2025-04-22T16:39:21.178+03:00,767021961.278446,0,-13.04,100.3592,1,0.45,2025-04-22T16:39:17.666+03:00,99,1.65,2025-04-22T14:20:19.516+03:00,0.02197104130929222,0
2025-04-22T16:39:21.519+03:00,1745329159.184034,40.9522769728346,29.14030140780613,76.45547,-1,-1,-1,-1,30,23.87926777261467,-9999,37993.643398,-0.797332763671875,0.470703125,0.2354583740234375,37993.633321,-2.894218371458601,-1.391780527689284,-0.5212341737145251,0.4697871804237366,0.09510980546474457,-0.3776201903820038,0.06027132272720337,-0.01864179968833923,0.380077600479126,XArbitraryZVertical,-0.6390871059301175,0.1198326768777453,-0.7155214019524799,0.2554151897483372,-0.8533468246459961,0.4979507923126221,-0.1544156074523926,0,0,0,-1,-1,37982.98888104167,unknown,2,2025-04-22T16:39:10.860+03:00,2025-04-21T17:08:51.449+03:00,8620,1.064866,0,0,7158.132,7,22,2025-04-22T16:39:21.178+03:00,767021961.278446,0,-13.04,100.3592,1,0.45,2025-04-22T16:39:17.666+03:00,99,1.65,2025-04-22T14:20:19.516+03:00,0.02197104130929222,0
2025-04-22T16:39:21.531+03:00,1745329159.184034,40.9522769728346,29.14030140780613,76.45547,-1,-1,-1,-1,30,23.87926777261467,-9999,37993.653474,-0.7965087890625,0.4471435546875,0.2454376220703125,37993.643398,-2.89069928657777,-1.388727536631504,-0.516771008136431,0.2846214771270752,0.164006233215332,-0.3810262382030487,0.05982160568237305,-0.01868793368339539,0.3889271020889282,XArbitraryZVertical,-0.6383608400130774,0.1174093968893826,-0.7166550462828959,0.2551780101221743,-0.8550484180450439,0.4940753579139709,-0.1574209481477737,0,0,0,-1,-1,37982.98888104167,unknown,2,2025-04-22T16:39:10.860+03:00,2025-04-21T17:08:51.449+03:00,8620,1.064866,0,0,7158.132,7,22,2025-04-22T16:39:21.178+03:00,767021961.278446,0,-13.04,100.3592,1,0.45,2025-04-22T16:39:17.666+03:00,99,1.65,2025-04-22T14:20:19.516+03:00,0.02197104130929222,0
2025-04-22T16:39:21.539+03:00,1745329159.184034,40.9522769728346,29.14030140780613,76.45547,-1,-1,-1,-1,30,23.87926777261467,-9999,37993.66355,-0.789642333984375,0.4188232421875,0.234283447265625,37993.653474,-2.88920008752353,-1.386083438238604,-0.5126748126598152,0.1163363456726074,0.2145296037197113,-0.3672957718372345,0.05850076675415039,-0.03312781453132629,0.4029865860939026,XArbitraryZVertical,-0.6376395253636752,0.1157152708823482,-0.717864271052398,0.2543554749432473,-0.8566116690635681,0.4905099272727966,-0.160051628947258,0,0,0,-1,-1,37982.98888104167,unknown,2,2025-04-22T16:39:10.860+03:00,2025-04-21T17:08:51.449+03:00,8620,1.064866,0,0,7158.132,7,22,2025-04-22T16:39:21.178+03:00,767021961.278446,0,-13.04,100.3592,1,0.45,2025-04-22T16:39:17.666+03:00,99,1.65,2025-04-22T14:20:19.516+03:00,0.02197104130929222,0
2025-04-22T16:39:21.549+03:00,1745329159.184034,40.9522769728346,29.14030140780613,76.45547,-1,-1,-1,-1,30,23.87926777261467,-9999,37993.673627,-0.7774658203125,0.3984222412109375,0.211883544921875,37993.66355,-2.889535097462242,-1.383817106132667,-0.5091272064597425,-0.03569785878062248,0.2710627317428589,-0.3384059071540833,0.06495189666748047,-0.05905544757843018,0.4047617316246033,XArbitraryZVertical,-0.6369237968306107,0.1147630781473314,-0.7191089295239016,0.2530609064422831,-0.8579511046409607,0.4874153435230255,-0.1623150259256363,0,0,0,-1,-1,37982.98888104167,unknown,2,2025-04-22T16:39:10.860+03:00,2025-04-21T17:08:51.449+03:00,8620,1.064866,0,0,7158.132,7,22,2025-04-22T16:39:21.178+03:00,767021961.278446,0,-13.04,100.3592,1,0.45,2025-04-22T16:39:17.666+03:00,99,1.65,2025-04-22T14:20:19.516+03:00,0.02197104130929222,0
2025-04-22T16:39:21.559+03:00,1745329159.184034,40.9522769728346,29.14030140780613,76.45547,-1,-1,-1,-1,30,23.87926777261467,-9999,37993.683703,-0.7610626220703125,0.388824462890625,0.2205047607421875,37993.673627,-2.891027398656756,-1.381442490656713,-0.5059031777229996,-0.08266696333885193,0.3492038547992706,-0.339203268289566,0.07628059387207031,-0.07985836267471313,0.3828625082969666,XArbitraryZVertical,-0.6360890239543296,0.1143125057967649,-0.7204869102134493,0.2514399248617268,-0.859102189540863,0.4845976829528809,-0.1646468043327332,0,0,0,-1,-1,37982.98888104167,unknown,2,2025-04-22T16:39:10.860+03:00,2025-04-21T17:08:51.449+03:00,8620,1.064866,0,0,7158.132,7,22,2025-04-22T16:39:21.178+03:00,767021961.278446,0,-13.04,100.3592,1,0.45,2025-04-22T16:39:17.666+03:00,99,1.65,2025-04-22T14:20:19.516+03:00,0.02197104130929222,0
2025-04-22T16:39:21.569+03:00,1745329159.184034,40.9522769728346,29.14030140780613,76.45547,-1,-1,-1,-1,30,23.87926777261467,-9999,37993.69378,-0.7522430419921875,0.3974456787109375,0.2496337890625,37993.683703,-2.892335866927605,-1.378069189998219,-0.5026471311208058,-0.005374773871153593,0.4498623609542847,-0.3359813690185547,0.09382009506225586,-0.09173238277435303,0.3807050585746765,XArbitraryZVertical,-0.6349026802791287,0.1139122505762361,-0.7221584714653719,0.2498190262865297,-0.8600857853889465,0.4817469418048859,-0.1678451746702194,0,0,0,-1,-1,37982.98888104167,unknown,2,2025-04-22T16:39:10.860+03:00,2025-04-21T17:08:51.449+03:00,8620,1.064866,0,0,7158.132,7,22,2025-04-22T16:39:21.178+03:00,767021961.278446,0,-13.04,100.3592,1,0.45,2025-04-22T16:39:17.666+03:00,99,1.65,2025-04-22T14:20:19.516+03:00,0.02197104130929222,0
2025-04-22T16:39:21.579+03:00,1745329159.184034,40.9522769728346,29.14030140780613,76.45547,-1,-1,-1,-1,30,23.87926777261467,-9999,37993.703856,-0.7412109375,0.383331298828125,0.29736328125,37993.69378,-2.892556808335557,-1.372966316327846,-0.4993795240932792,0.08896717429161072,0.5868393778800964,-0.3056684732437134,0.105645477771759,-0.08663859963417053,0.4111570715904236,XArbitraryZVertical,-0.6331480823627991,0.1133725362425816,-0.7242390428420613,0.2484910734279991,-0.8607569932937622,0.4788809418678284,-0.1725403517484665,0,0,0,-1,-1,37982.98888104167,unknown,2,2025-04-22T16:39:10.860+03:00,2025-04-21T17:08:51.449+03:00,8620,1.064866,0,0,7158.132,7,22,2025-04-22T16:39:21.178+03:00,767021961.278446,0,-13.04,100.3592,1,0.45,2025-04-22T16:39:17.666+03:00,99,1.65,2025-04-22T14:20:19.516+03:00,0.02197104130929222,0
2025-04-22T16:39:21.590+03:00,1745329159.184034,40.9522769728346,29.14030140780613,76.45547,-1,-1,-1,-1,30,23.87926777261467,-9999,37993.713932,-0.726806640625,0.3248291015625,0.363433837890625,37993.703856,-2.892066598696909,-1.366021133148307,-0.4963682212467955,0.1018366292119026,0.7441847920417786,-0.2591656744480133,0.115508496761322,-0.08104789257049561,0.4550363421440125,XArbitraryZVertical,-0.6307487088935586,0.1129279479307384,-0.7267726454393795,0.2473959175978416,-0.860945999622345,0.4762352108955383,-0.1788066923618317,0,0,0,-1,-1,37982.98888104167,unknown,2,2025-04-22T16:39:10.860+03:00,2025-04-21T17:08:51.449+03:00,8620,1.064866,0,0,7158.132,7,22,2025-04-22T16:39:21.178+03:00,767021961.278446,0,-13.04,100.3592,1,0.45,2025-04-22T16:39:17.666+03:00,99,1.65,2025-04-22T14:20:19.516+03:00,0.02197104130929222,0
2025-04-22T16:39:21.600+03:00,1745329159.184034,40.9522769728346,29.14030140780613,76.45547,-1,-1,-1,-1,30,23.87926777261467,-9999,37993.72400900001,-0.7058563232421875,0.2593536376953125,0.432830810546875,37993.713932,-2.891865838691861,-1.357712930267796,-0.4938895391674268,0.03230602666735649,0.888131856918335,-0.2080630511045456,0.1276870369911194,-0.1249178349971771,0.5246726870536804,XArbitraryZVertical,-0.6278083573472973,0.1129400266598549,-0.7296903392345345,0.2462787341449163,-0.8605819344520569,0.4740541875362396,-0.1862024366855621,0,0,0,-1,-1,37982.98888104167,unknown,2,2025-04-22T16:39:10.860+03:00,2025-04-21T17:08:51.449+03:00,8620,1.064866,0,0,7158.132,7,22,2025-04-22T16:39:21.178+03:00,767021961.278446,0,-13.04,100.3592,1,0.45,2025-04-22T16:39:17.666+03:00,99,1.65,2025-04-22T14:20:19.516+03:00,0.02197104130929222,0
2025-04-22T16:39:21.610+03:00,1745329159.184034,40.9522769728346,29.14030140780613,76.45547,-1,-1,-1,-1,30,23.87926777261467,-9999,37993.734085,-0.68511962890625,0.21795654296875,0.4888458251953125,37993.72400900001,-2.89239091168025,-1.348046914566196,-0.4924492066927816,-0.06031818315386772,1.082163095474243,-0.08960605412721634,0.1446242928504944,-0.1888805329799652,0.6023620367050171,XArbitraryZVertical,-0.6242855076516762,0.1137378002993454,-0.7329709315904727,0.2451222104040665,-0.8594069480895996,0.4727855026721954,-0.1946626305580139,0,0,0,-1,-1,37982.98888104167,unknown,2,2025-04-22T16:39:10.860+03:00,2025-04-21T17:08:51.449+03:00,8620,1.064866,0,0,7158.132,7,22,2025-04-22T16:39:21.178+03:00,767021961.278446,0,-13.04,100.3592,1,0.45,2025-04-22T16:39:17.666+03:00,99,1.65,2025-04-22T14:20:19.516+03:00,0.02197104130929222,0
2025-04-22T16:39:21.620+03:00,1745329159.184034,40.9522769728346,29.14030140780613,76.45547,-1,-1,-1,-1,30,23.87926777261467,-9999,37993.744162,-0.6776580810546875,0.23126220703125,0.5380401611328125,37993.734085,-2.893589486224971,-1.336732220470903,-0.4923691747793448,-0.1467257738113403,1.279238104820251,0.02666702307760715,0.1665124893188477,-0.2470376193523407,0.6728731393814087,XArbitraryZVertical,-0.620062004760829,0.1154633701851165,-0.7366478295432131,0.2440105035965857,-0.8571861386299133,0.4727149605751038,-0.2043826431035995,0,0,0,-1,-1,37982.98888104167,unknown,2,2025-04-22T16:39:10.860+03:00,2025-04-21T17:08:51.449+03:00,8620,1.064866,0,0,7158.132,7,22,2025-04-22T16:39:21.178+03:00,767021961.278446,0,-13.04,100.3592,1,0.45,2025-04-22T16:39:17.666+03:00,99,1.65,2025-04-22T14:20:19.516+03:00,0.02197104130929222,0
2025-04-22T16:39:21.630+03:00,1745329159.184034,40.9522769728346,29.14030140780613,76.45547,-1,-1,-1,-1,30,23.87926777261467,-9999,37993.754238,-0.645904541015625,0.239349365234375,0.55743408203125,37993.744162,-2.895845139939259,-1.323969527996147,-0.4938345418366772,-0.3235436081886292,1.464846849441528,0.1655481159687042,0.171966016292572,-0.2497779130935669,0.7378716468811035,XArbitraryZVertical,-0.615175833792531,0.1182817366286763,-0.7406700974087065,0.2428494870709541,-0.8538353443145752,0.4740057587623596,-0.215136244893074,0,0,0,-1,-1,37982.98888104167,unknown,2,2025-04-22T16:39:10.860+03:00,2025-04-21T17:08:51.449+03:00,8620,1.064866,0,0,7158.132,7,22,2025-04-22T16:39:21.178+03:00,767021961.278446,0,-13.04,100.3592,1,0.45,2025-04-22T16:39:17.666+03:00,99,1.65,2025-04-22T14:20:19.516+03:00,0.02197104130929222,0
2025-04-22T16:39:21.640+03:00,1745329159.184034,40.9522769728346,29.14030140780613,76.45547,-1,-1,-1,-1,30,23.87926777261467,-9999,37993.764314,-0.6041107177734375,0.249725341796875,0.549041748046875,37993.754238,-2.900288153021235,-1.310308230678079,-0.4972902962537367,-0.6178639531135559,1.670687317848206,0.3040282428264618,0.188233494758606,-0.2388408482074738,0.7805408239364624,XArbitraryZVertical,-0.6097378647360043,0.1226425255936842,-0.744934324426496,0.2413533387001625,-0.8492289781570435,0.4770458042621613,-0.2263570874929428,0,0,0,-1,-1,37982.98888104167,unknown,2,2025-04-22T16:39:10.860+03:00,2025-04-21T17:08:51.449+03:00,8620,1.064866,0,0,7158.132,7,22,2025-04-22T16:39:21.178+03:00,767021961.278446,0,-13.04,100.3592,1,0.45,2025-04-22T16:39:17.666+03:00,99,1.65,2025-04-22T14:20:19.516+03:00,0.02197104130929222,0
2025-04-22T16:39:21.650+03:00,1745329159.184034,40.9522769728346,29.14030140780613,76.45547,-1,-1,-1,-1,30,23.87926777261467,-9999,37993.774391,-0.56536865234375,0.2758026123046875,0.5174560546875,37993.764314,-2.907585566734126,-1.295952931867816,-0.5029878652404896,-0.8846273422241211,1.87201714515686,0.4505792558193207,0.2245948314666748,-0.2388661801815033,0.7932788133621216,XArbitraryZVertical,-0.6037518039761344,0.1288113851792338,-0.7494112760723899,0.2393202655104894,-0.8432624936103821,0.4820455014705658,-0.2377827763557434,0,0,0,-1,-1,37982.98888104167,unknown,2,2025-04-22T16:39:10.860+03:00,2025-04-21T17:08:51.449+03:00,8620,1.064866,0,0,7158.132,7,22,2025-04-22T16:39:21.178+03:00,767021961.278446,0,-13.04,100.3592,1,0.45,2025-04-22T16:39:17.666+03:00,99,1.65,2025-04-22T14:20:19.516+03:00,0.02197104130929222,0
2025-04-22T16:39:21.660+03:00,1745329159.184034,40.9522769728346,29.14030140780613,76.45547,-1,-1,-1,-1,30,23.87926777261467,-9999,37993.784467,-0.5424346923828125,0.277587890625,0.458160400390625,37993.774391,-2.916394388133953,-1.280241564775169,-0.5106289217319853,-1.004183769226074,2.104671955108643,0.5719373822212219,0.2560505270957947,-0.2226586043834686,0.7828368544578552,XArbitraryZVertical,-0.5970295376820566,0.1363311055611619,-0.7541616118703263,0.2370859796565382,-0.8358691334724426,0.4887260496616364,-0.2499391287565231,0,0,0,-1,-1,37982.98888104167,unknown,2,2025-04-22T16:39:10.860+03:00,2025-04-21T17:08:51.449+03:00,8620,1.064866,0,0,7158.132,7,22,2025-04-22T16:39:21.178+03:00,767021961.278446,0,-13.04,100.3592,1,0.45,2025-04-22T16:39:17.666+03:00,99,1.65,2025-04-22T14:20:19.516+03:00,0.02197104130929222,0
2025-04-22T16:39:21.670+03:00,1745329159.184034,40.9522769728346,29.14030140780613,76.45547,-1,-1,-1,-1,30,23.87926777261467,-9999,37993.794544,-0.5469512939453125,0.2329864501953125,0.456329345703125,37993.784467,-2.926384833060835,-1.262391748951289,-0.5200996821228794,-1.200360417366028,2.420006036758423,0.7261505722999573,0.2803797721862793,-0.2149842977523804,0.7426801919937134,XArbitraryZVertical,-0.5892651337064049,0.1451402880159481,-0.7593697974699626,0.2346450887590138,-0.8268274068832397,0.4969666302204132,-0.2634018063545227,0,0,0,-1,-1,37982.98888104167,unknown,2,2025-04-22T16:39:10.860+03:00,2025-04-21T17:08:51.449+03:00,8620,1.064866,0,0,7158.132,7,22,2025-04-22T16:39:21.178+03:00,767021961.278446,0,-13.04,100.3592,1,0.45,2025-04-22T16:39:17.666+03:00,99,1.65,2025-04-22T14:20:19.516+03:00,0.02197104130929222,0
2025-04-22T16:39:21.680+03:00,1745329159.184034,40.9522769728346,29.14030140780613,76.45547,-1,-1,-1,-1,30,23.87926777261467,-9999,37993.80462,-0.53094482421875,0.1721038818359375,0.456207275390625,37993.794544,-2.93758699638026,-1.242003344537379,-0.5319631592416711,-1.345698952674866,2.740456819534302,0.9044082164764404,0.2703752517700195,-0.2523587346076965,0.7269494533538818,XArbitraryZVertical,-0.5802397389554429,0.155504898570301,-0.7650440677149748,0.2320506294615916,-0.8156479001045227,0.5072261691093445,-0.2782801389694214,0,0,0,-1,-1,37982.98888104167,unknown,2,2025-04-22T16:39:10.860+03:00,2025-04-21T17:08:51.449+03:00,8620,1.064866,0,0,7158.132,7,22,2025-04-22T16:39:21.178+03:00,767021961.278446,0,-13.04,100.3592,1,0.45,2025-04-22T16:39:17.666+03:00,99,1.65,2025-04-22T14:20:19.516+03:00,0.02197104130929222,0
2025-04-22T16:39:21.690+03:00,1745329159.184034,40.9522769728346,29.14030140780613,76.45547,-1,-1,-1,-1,30,23.87926777261467,-9999,37993.814696,-0.505401611328125,0.1589813232421875,0.4122467041015625,37993.80462,-2.948343800943211,-1.218465013482271,-0.5455774709399149,-1.262092232704163,3.02772068977356,1.026298642158508,0.2627045512199402,-0.3259340524673462,0.7571020126342773,XArbitraryZVertical,-0.5698238569815204,0.1667509583992598,-0.771205810446817,0.2296439469509693,-0.8023162484169006,0.5189118385314941,-0.2949897944927216,0,0,0,-1,-1,37982.98888104167,unknown,2,2025-04-22T16:39:10.860+03:00,2025-04-21T17:08:51.449+03:00,8620,1.064866,0,0,7158.132,7,22,2025-04-22T16:39:21.178+03:00,767021961.278446,0,-13.04,100.3592,1,0.45,2025-04-22T16:39:17.666+03:00,99,1.65,2025-04-22T14:20:19.516+03:00,0.02197104130929222,0
2025-04-22T16:39:21.700+03:00,1745329159.184034,40.9522769728346,29.14030140780613,76.45547,-1,-1,-1,-1,30,23.87926777261467,-9999,37993.824773,-0.4755706787109375,0.2436370849609375,0.3174591064453125,37993.814696,-2.956829051535292,-1.190927170343992,-0.5601290532443638,-1.09911584854126,3.320149183273315,1.154518127441406,0.2717786431312561,-0.3783263564109802,0.7477294206619263,XArbitraryZVertical,-0.5578512348333917,0.1781406358872298,-0.7779366129987599,0.227776934790564,-0.7867931723594666,0.5312955379486084,-0.3141358196735382,0,0,0,-1,-1,37982.98888104167,unknown,2,2025-04-22T16:39:10.860+03:00,2025-04-21T17:08:51.449+03:00,8620,1.064866,0,0,7158.132,7,22,2025-04-22T16:39:21.178+03:00,767021961.278446,0,-13.04,100.3592,1,0.45,2025-04-22T16:39:17.666+03:00,99,1.65,2025-04-22T14:20:19.516+03:00,0.02197104130929222,0
2025-04-22T16:39:21.710+03:00,1745329159.184034,40.9522769728346,29.14030140780613,76.45547,-1,-1,-1,-1,30,23.87926777261467,-9999,37993.834849,-0.459747314453125,0.3019561767578125,0.176849365234375,37993.824773,-2.962557850313531,-1.158948972083288,-0.5753291365657204,-0.9509630799293518,3.643499374389648,1.257003664970398,0.2815070152282715,-0.3397958278656006,0.6955394148826599,XArbitraryZVertical,-0.5442039497837791,0.1895055531211191,-0.7852663435841136,0.2264650087667718,-0.7688573598861694,0.5441109538078308,-0.3358594179153442,0,0,0,-1,-1,37982.98888104167,unknown,2,2025-04-22T16:39:10.860+03:00,2025-04-21T17:08:51.449+03:00,8620,1.064866,0,0,7158.132,7,22,2025-04-22T16:39:21.178+03:00,767021961.278446,0,-13.04,100.3592,1,0.45,2025-04-22T16:39:17.666+03:00,99,1.65,2025-04-22T14:20:19.516+03:00,0.02197104130929222,0
2025-04-22T16:39:21.721+03:00,1745329159.184034,40.9522769728346,29.14030140780613,76.45547,-1,-1,-1,-1,30,23.87926777261467,-9999,37993.84492600001,-0.281280517578125,0.5832061767578125,-1.133743286132812,37993.834849,-2.965990309062839,-1.128313008214028,-0.5923203292409307,-0.9309438467025757,2.13935375213623,2.081328868865967,0.2872818112373352,-0.2669668793678284,0.5872217416763306,XArbitraryZVertical,-0.5310805857958965,0.2008286541175353,-0.791452886456661,0.2263260509753493,-0.7497450113296509,0.5582875609397888,-0.355242520570755,0,0,0,-1,-1,37982.98888104167,unknown,2,2025-04-22T16:39:10.860+03:00,2025-04-21T17:08:51.449+03:00,8620,1.064866,0,0,7158.132,7,22,2025-04-22T16:39:21.178+03:00,767021961.278446,0,-13.04,100.3592,1,0.45,2025-04-22T16:39:17.666+03:00,99,1.65,2025-04-22T14:20:19.516+03:00,0.02197104130929222,0
2025-04-22T16:39:21.731+03:00,1745329159.184034,40.9522769728346,29.14030140780613,76.45547,-1,-1,-1,-1,30,23.87926777261467,-9999,37993.855002,-0.8282470703125,1.892974853515625,-5.136398315429688,37993.84492600001,-2.98830094956986,-1.146724005543617,-0.5996573173458929,-2.136157035827637,-1.511206269264221,-0.4085331559181213,0.3344204425811768,-0.1942577958106995,0.1805355548858643,XArbitraryZVertical,-0.5357362951346812,0.2077117312060991,-0.7879790048446933,0.2212045811529918,-0.7524043321609497,0.5643596053123474,-0.3396849036216736,0,0,0,-1,-1,37982.98888104167,unknown,2,2025-04-22T16:39:10.860+03:00,2025-04-21T17:08:51.449+03:00,8620,1.064866,0,0,7158.132,7,22,2025-04-22T16:39:21.178+03:00,767021961.278446,0,-13.04,100.3592,1,0.45,2025-04-22T16:39:17.666+03:00,99,1.65,2025-04-22T14:20:19.516+03:00,0.02197104130929222,0
2025-04-22T16:39:21.741+03:00,1745329159.184034,40.9522769728346,29.14030140780613,76.45547,-1,-1,-1,-1,30,23.87926777261467,-9999,37993.865078,-1.886672973632812,2.545242309570312,-2.985488891601562,37993.855002,-2.98881892101614,-1.160184530650178,-0.607049858898152,1.250157952308655,-1.640669465065002,-0.01188006997108459,0.4858049154281616,0.7731046676635742,-3.790449142456055,XArbitraryZVertical,-0.5405990761820046,0.2093476920720403,-0.78334968636126,0.2242530612867232,-0.7530624866485596,0.5704469084739685,-0.3278523683547974,0,0,0,-1,-1,37982.98888104167,unknown,2,2025-04-22T16:39:10.860+03:00,2025-04-21T17:08:51.449+03:00,8620,1.064866,0,0,7158.132,7,22,2025-04-22T16:39:21.178+03:00,767021961.278446,0,-13.04,100.3592,1,0.45,2025-04-22T16:39:17.666+03:00,99,1.65,2025-04-22T14:20:19.516+03:00,0.02197104130929222,0
2025-04-22T16:39:21.751+03:00,1745329159.184034,40.9522769728346,29.14030140780613,76.45547,-1,-1,-1,-1,30,23.87926777261467,-9999,37993.875155,1.095932006835938,1.5052490234375,-3.233078002929688,37993.865078,-2.980837911033126,-1.176008090194463,-0.5959147626899854,0.5667964816093445,-2.001684188842773,-0.5427372455596924,-1.254964113235474,1.985288381576538,-3.680277347564697,XArbitraryZVertical,-0.5481603635626527,0.200899619673128,-0.779745143845442,0.2261793172482433,-0.7639721035957336,0.5612660646438599,-0.3183191120624542,0,0,0,-1,-1,37982.98888104167,unknown,2,2025-04-22T16:39:10.860+03:00,2025-04-21T17:08:51.449+03:00,8620,1.064866,0,0,7158.132,7,22,2025-04-22T16:39:21.178+03:00,767021961.278446,0,-13.04,100.3592,1,0.45,2025-04-22T16:39:17.666+03:00,99,1.65,2025-04-22T14:20:19.516+03:00,0.02197104130929222,0
2025-04-22T16:39:21.761+03:00,1745329159.184034,40.9522769728346,29.14030140780613,76.45547,-1,-1,-1,-1,30,23.87926777261467,-9999,37993.885231,0.087799072265625,0.4050750732421875,-1.780990600585938,37993.875155,-2.973051699521802,-1.19061925431996,-0.5958499330602472,0.6603198051452637,-1.79792308807373,0.8686025738716125,0.7734885811805725,1.396978378295898,-2.604728937149048,XArbitraryZVertical,-0.5546168103434295,0.1970582216533323,-0.7748369097383895,0.2306425364053006,-0.768575131893158,0.561212420463562,-0.3071365058422089,0,0,0,-1,-1,37982.98888104167,unknown,2,2025-04-22T16:39:10.860+03:00,2025-04-21T17:08:51.449+03:00,8620,1.064866,0,0,7158.132,7,22,2025-04-22T16:39:21.178+03:00,767021961.278446,0,-13.04,100.3592,1,0.45,2025-04-22T16:39:17.666+03:00,99,1.65,2025-04-22T14:20:19.516+03:00,0.02197104130929222,0
2025-04-22T16:39:21.771+03:00,1745329159.184034,40.9522769728346,29.14030140780613,76.45547,-1,-1,-1,-1,30,23.87926777261467,-9999,37993.895308,-1.983139038085938,-0.3349456787109375,-0.03509521484375,37993.885231,-2.947475179560205,-1.205742747307571,-0.6076773980271477,1.276670336723328,-3.230913877487183,2.241381645202637,1.814271688461304,0.2261568903923035,-2.386813163757324,XArbitraryZVertical,-0.5623735502679053,0.1928522235272704,-0.7658423476797801,0.245009212448212,-0.7668778300285339,0.5709621906280518,-0.2930880188941956,0,0,0,-1,-1,37982.98888104167,unknown,2,2025-04-22T16:39:10.860+03:00,2025-04-21T17:08:51.449+03:00,8620,1.064866,0,0,7158.132,7,22,2025-04-22T16:39:21.178+03:00,767021961.278446,0,-13.04,100.3592,1,0.45,2025-04-22T16:39:17.666+03:00,99,1.65,2025-04-22T14:20:19.516+03:00,0.02197104130929222,0
2025-04-22T16:39:21.781+03:00,1745329159.184034,40.9522769728346,29.14030140780613,76.45547,-1,-1,-1,-1,30,23.87926777261467,-9999,37993.90538400001,-1.418014526367188,-0.1177825927734375,0.2789459228515625,37993.895308,-2.937713265018732,-1.225338640994103,-0.6221544612917084,-0.2781427800655365,-2.025667667388916,1.216667056083679,-0.7584100961685181,-0.7202842831611633,-0.1756594181060791,XArbitraryZVertical,-0.5700940535945047,0.1934018860877496,-0.7568948140300196,0.2543593546366731,-0.7646152973175049,0.5827872753143311,-0.2751769721508026,0,0,0,-1,-1,37982.98888104167,unknown,2,2025-04-22T16:39:10.860+03:00,2025-04-21T17:08:51.449+03:00,8620,1.064866,0,0,7158.132,7,22,2025-04-22T16:39:21.178+03:00,767021961.278446,0,-13.04,100.3592,1,0.45,2025-04-22T16:39:17.666+03:00,99,1.65,2025-04-22T14:20:19.516+03:00,0.02197104130929222,0
2025-04-22T16:39:21.791+03:00,1745329159.184034,40.9522769728346,29.14030140780613,76.45547,-1,-1,-1,-1,30,23.87926777261467,-9999,37993.91546,-0.5817108154296875,0.6037445068359375,0.39892578125,37993.90538400001,-2.937036609992941,-1.24342935536951,-0.6338022906611299,-0.3357675969600677,-1.74312961101532,1.019729971885681,-1.067089796066284,-0.9116252064704895,0.4731194078922272,XArbitraryZVertical,-0.5763992060920249,0.1954841671658958,-0.7498365351942724,0.2594126630393531,-0.7629882097244263,0.5922128558158875,-0.2590997815132141,0,0,0,-1,-1,37982.98888104167,unknown,2,2025-04-22T16:39:10.860+03:00,2025-04-21T17:08:51.449+03:00,8620,1.064866,0,0,7158.132,7,22,2025-04-22T16:39:21.178+03:00,767021961.278446,0,-13.04,100.3592,1,0.45,2025-04-22T16:39:17.666+03:00,99,1.65,2025-04-22T14:20:19.516+03:00,0.02197104130929222,0
2025-04-22T16:39:21.801+03:00,1745329159.184034,40.9522769728346,29.14030140780613,76.45547,-1,-1,-1,-1,30,23.87926777261467,-9999,37993.925537,-0.693359375,0.792083740234375,0.2657318115234375,37993.91546,-2.93684060470398,-1.25999232303874,-0.6430770466642113,-0.2434994578361511,-1.484756708145142,0.7037816047668457,-0.007679641246795654,-0.2455653548240662,0.6161511540412903,XArbitraryZVertical,-0.5821187629976188,0.1968988909000068,-0.7435770085458639,0.263555943649172,-0.7619125247001648,0.5996606945991516,-0.2447371482849121,0,0,0,-1,-1,37982.98888104167,unknown,2,2025-04-22T16:39:10.860+03:00,2025-04-21T17:08:51.449+03:00,8620,1.064866,0,0,7158.132,7,22,2025-04-22T16:39:21.178+03:00,767021961.278446,0,-13.04,100.3592,1,0.45,2025-04-22T16:39:17.666+03:00,99,1.65,2025-04-22T14:20:19.516+03:00,0.02197104130929222,0
2025-04-22T16:39:21.811+03:00,1745329159.184034,40.9522769728346,29.14030140780613,76.45547,-1,-1,-1,-1,30,23.87926777261467,-9999,37993.935613,-0.8446197509765625,0.720703125,0.00885009765625,37993.925537,-2.939497944078942,-1.271992380484034,-0.6489204345984518,-0.5493662357330322,-0.5112480521202087,0.2503769397735596,0.1668891906738281,0.1985906958580017,0.5824108719825745,XArbitraryZVertical,-0.5859865313176791,0.1983663050900399,-0.7395136499411468,0.2653110877928468,-0.7614325284957886,0.604326605796814,-0.234541192650795,0,0,0,-1,-1,37982.98888104167,unknown,2,2025-04-22T16:39:10.860+03:00,2025-04-21T17:08:51.449+03:00,8620,1.064866,0,0,7158.132,7,22,2025-04-22T16:39:21.178+03:00,767021961.278446,0,-13.04,100.3592,1,0.45,2025-04-22T16:39:17.666+03:00,99,1.65,2025-04-22T14:20:19.516+03:00,0.02197104130929222,0
2025-04-22T16:39:21.821+03:00,1745329159.184034,40.9522769728346,29.14030140780613,76.45547,-1,-1,-1,-1,30,23.87926777261467,-9999,37993.94569,-0.71722412109375,0.9581298828125,-0.146697998046875,37993.935613,-2.948432901018294,-1.278185499064745,-0.6510461114756867,-0.8918380737304688,0.286599338054657,-0.2763020694255829,-0.06656241416931152,0.1082449555397034,0.3268161714076996,XArbitraryZVertical,-0.5872617599572814,0.200994099935328,-0.7385471095584625,0.2631974911581292,-0.7616386413574219,0.6060188412666321,-0.229449987411499,0,0,0,-1,-1,37982.98888104167,unknown,2,2025-04-22T16:39:10.860+03:00,2025-04-21T17:08:51.449+03:00,8620,1.064866,0,0,7158.132,7,22,2025-04-22T16:39:21.178+03:00,767021961.278446,0,-13.04,100.3592,1,0.45,2025-04-22T16:39:17.666+03:00,99,1.65,2025-04-22T14:20:19.516+03:00,0.02197104130929222,0
2025-04-22T16:39:21.832+03:00,1745329159.184034,40.9522769728346,29.14030140780613,76.45547,-1,-1,-1,-1,30,23.87926777261467,-9999,37993.955766,-0.72772216796875,1.091064453125,-0.2794342041015625,37993.94569,-2.961479972388594,-1.281413812079852,-0.6485360842749585,-0.9080998301506042,0.5903526544570923,-0.7795097827911377,-0.01065921783447266,0.249251127243042,0.1296296417713165,XArbitraryZVertical,-0.5872849247783904,0.2034323218457308,-0.7396855959041375,0.2580250478779461,-0.7638311386108398,0.604020357131958,-0.2274234145879745,0,0,0,-1,-1,37982.98888104167,unknown,2,2025-04-22T16:39:10.860+03:00,2025-04-21T17:08:51.449+03:00,8620,1.064866,0,0,7158.132,7,22,2025-04-22T16:39:21.178+03:00,767021961.278446,0,-13.04,100.3592,1,0.45,2025-04-22T16:39:17.666+03:00,99,1.65,2025-04-22T14:20:19.516+03:00,0.02197104130929222,0
2025-04-22T16:39:21.841+03:00,1745329159.184034,40.9522769728346,29.14030140780613,76.45547,-1,-1,-1,-1,30,23.87926777261467,-9999,37993.96584200001,-0.894866943359375,1.03472900390625,-0.383758544921875,37993.955766,-2.974516022668955,-1.283395016362652,-0.6417599969513407,-0.6660405993461609,0.5498203635215759,-1.074697256088257,0.07844460010528564,0.4740866422653198,-0.0004135668277740479,XArbitraryZVertical,-0.5871064228068431,0.204386215536692,-0.7417887621139647,0.2515586567294551,-0.7681876420974731,0.5986062288284302,-0.2270646393299103,0,0,0,-1,-1,37982.98888104167,unknown,2,2025-04-22T16:39:10.860+03:00,2025-04-21T17:08:51.449+03:00,8620,1.064866,0,0,7158.132,7,22,2025-04-22T16:39:21.178+03:00,767021961.278446,0,-13.04,100.3592,1,0.45,2025-04-22T16:39:17.666+03:00,99,1.65,2025-04-22T14:20:19.516+03:00,0.02197104130929222,0
2025-04-22T16:39:21.852+03:00,1745329159.184034,40.9522769728346,29.14030140780613,76.45547,-1,-1,-1,-1,30,23.87926777261467,-9999,37993.975919,-0.97265625,0.925384521484375,-0.369049072265625,37993.96584200001,-2.984593343703467,-1.284467159528384,-0.6324655004908052,-0.3556156158447266,0.425292581319809,-1.123095154762268,-0.06052440404891968,0.4741419553756714,-0.127742737531662,XArbitraryZVertical,-0.5870593769004546,0.2036173716832257,-0.7441018307109342,0.2453849225450693,-0.7737346291542053,0.5911351442337036,-0.2278025150299072,0,0,0,-1,-1,37982.98888104167,unknown,2,2025-04-22T16:39:10.860+03:00,2025-04-21T17:08:51.449+03:00,8620,1.064866,0,0,7158.132,7,22,2025-04-22T16:39:21.178+03:00,767021961.278446,0,-13.04,100.3592,1,0.45,2025-04-22T16:39:17.666+03:00,99,1.65,2025-04-22T14:20:19.516+03:00,0.02197104130929222,0
2025-04-22T16:39:21.863+03:00,1745329159.184034,40.9522769728346,29.14030140780613,76.45547,-1,-1,-1,-1,30,23.87926777261467,-9999,37993.985995,-0.929443359375,0.754852294921875,-0.2807464599609375,37993.975919,-2.990930531089786,-1.28463642446167,-0.6228325698968774,-0.08084715902805328,0.2812610864639282,-0.9814183712005615,-0.1799522042274475,0.388875424861908,-0.1596784442663193,XArbitraryZVertical,-0.5870864005806976,0.2017310880877936,-0.7462195322660593,0.2403963347185158,-0.7791998386383057,0.58333820104599,-0.2292682528495789,0,0,0,-1,-1,37982.98888104167,unknown,2,2025-04-22T16:39:10.860+03:00,2025-04-21T17:08:51.449+03:00,8620,1.064866,0,0,7158.132,7,22,2025-04-22T16:39:21.178+03:00,767021961.278446,0,-13.04,100.3592,1,0.45,2025-04-22T16:39:17.666+03:00,99,1.65,2025-04-22T14:20:19.516+03:00,0.02197104130929222,0
2025-04-22T16:39:21.872+03:00,1745329159.184034,40.9522769728346,29.14030140780613,76.45547,-1,-1,-1,-1,30,23.87926777261467,-9999,37993.996072,-0.8545074462890625,0.5594329833984375,-0.218597412109375,37993.985995,-2.993317257472754,-1.283946720302216,-0.6145743961188941,0.1669964641332626,0.1366067081689835,-0.6839267611503601,-0.172648012638092,0.2490116357803345,-0.08323156833648682,XArbitraryZVertical,-0.5871050805845665,0.1993169645451458,-0.7478867129111997,0.237161828792787,-0.7836354374885559,0.5766108632087708,-0.2311607450246811,0,0,0,-1,-1,37982.98888104167,unknown,2,2025-04-22T16:39:10.860+03:00,2025-04-21T17:08:51.449+03:00,8620,1.064866,0,0,7158.132,7,22,2025-04-22T16:39:21.178+03:00,767021961.278446,0,-13.04,100.3592,1,0.45,2025-04-22T16:39:17.666+03:00,99,1.65,2025-04-22T14:20:19.516+03:00,0.02197104130929222,0
2025-04-22T16:39:21.882+03:00,1745329159.184034,40.9522769728346,29.14030140780613,76.45547,-1,-1,-1,-1,30,23.87926777261467,-9999,37994.006148,-0.8146820068359375,0.4190521240234375,-0.174530029296875,37993.996072,-2.992214953977834,-1.282260128750953,-0.6090403346944634,0.3002783358097076,0.08698669821023941,-0.3262570798397064,-0.09290456771850586,0.05821406841278076,-0.004193037748336792,XArbitraryZVertical,-0.5869232879387136,0.1970477353811958,-0.7490344482366971,0.2358822105524383,-0.7862914204597473,0.5720806121826172,-0.2333864867687225,0,0,0,-1,-1,37982.98888104167,unknown,2,2025-04-22T16:39:10.860+03:00,2025-04-21T17:08:51.449+03:00,8620,1.064866,0,0,7158.132,7,22,2025-04-22T16:39:21.178+03:00,767021961.278446,0,-13.04,100.3592,1,0.45,2025-04-22T16:39:17.666+03:00,99,1.65,2025-04-22T14:20:19.516+03:00,0.02197104130929222,0
2025-04-22T16:39:21.892+03:00,1745329159.184034,40.9522769728346,29.14030140780613,76.45547,-1,-1,-1,-1,30,23.87926777261467,-9999,37994.016224,-0.78076171875,0.3582611083984375,-0.138397216796875,37994.006148,-2.989128225274016,-1.279537408073849,-0.6066188592124476,0.3058329522609711,0.1092310845851898,0.004531394690275192,-0.03975856304168701,-0.1074463725090027,0.04491391777992249,XArbitraryZVertical,-0.5863520336520672,0.1955235929760867,-0.7498107603279545,0.2361051397308089,-0.7869778871536255,0.5700928568840027,-0.235923632979393,0,0,0,-1,-1,37982.98888104167,unknown,2,2025-04-22T16:39:10.860+03:00,2025-04-21T17:08:51.449+03:00,8620,1.064866,0,0,7158.132,7,22,2025-04-22T16:39:21.178+03:00,767021961.278446,0,-13.04,100.3592,1,0.45,2025-04-22T16:39:17.666+03:00,99,1.65,2025-04-22T14:20:19.516+03:00,0.02197104130929222,0
2025-04-22T16:39:21.902+03:00,1745329159.184034,40.9522769728346,29.14030140780613,76.45547,-1,-1,-1,-1,30,23.87926777261467,-9999,37994.02630100001,-0.7471923828125,0.3782958984375,-0.1507415771484375,37994.016224,-2.98536249086664,-1.276066860934584,-0.607209007638133,0.2409000545740128,0.1538688540458679,0.2726691067218781,-0.008982658386230469,-0.1995754837989807,0.08993488550186157,XArbitraryZVertical,-0.5853831981330256,0.1950606915776902,-0.7502981508511033,0.2373404711621042,-0.7858322858810425,0.5705776214599609,-0.2385556697845459,0,0,0,-1,-1,37982.98888104167,unknown,2,2025-04-22T16:39:10.860+03:00,2025-04-21T17:08:51.449+03:00,8620,1.064866,0,0,7158.132,7,22,2025-04-22T16:39:21.178+03:00,767021961.278446,0,-13.04,100.3592,1,0.45,2025-04-22T16:39:17.666+03:00,99,1.65,2025-04-22T14:20:19.516+03:00,0.02197104130929222,0
2025-04-22T16:39:21.912+03:00,1745329159.184034,40.9522769728346,29.14030140780613,76.45547,-1,-1,-1,-1,30,23.87926777261467,-9999,37994.036377,-0.7189178466796875,0.4417572021484375,-0.210418701171875,37994.02630100001,-2.981756259251076,-1.272341031950446,-0.6101907089565128,0.1527401655912399,0.170987457036972,0.4510047733783722,0.02482467889785767,-0.2116194367408752,0.1025373935699463,XArbitraryZVertical,-0.5841627535190457,0.1956108172947335,-0.7505331905919674,0.2391447765027784,-0.7833084464073181,0.5730237364768982,-0.2409805655479431,0,0,0,-1,-1,37982.98888104167,unknown,2,2025-04-22T16:39:10.860+03:00,2025-04-21T17:08:51.449+03:00,8620,1.064866,0,0,7158.132,7,22,2025-04-22T16:39:21.178+03:00,767021961.278446,0,-13.04,100.3592,1,0.45,2025-04-22T16:39:17.666+03:00,99,1.65,2025-04-22T14:20:19.516+03:00,0.02197104130929222,0
2025-04-22T16:39:21.922+03:00,1745329159.184034,40.9522769728346,29.14030140780613,76.45547,-1,-1,-1,-1,30,23.87926777261467,-9999,37994.046454,-0.69525146484375,0.4953460693359375,-0.2766571044921875,37994.036377,-2.978643850531714,-1.26882630430058,-0.6144403809829347,0.07999751716852188,0.1677581071853638,0.48732790350914,0.04999154806137085,-0.1591124534606934,0.05880144238471985,XArbitraryZVertical,-0.5829017358197573,0.1967808046696771,-0.7505742311982658,0.2411248160526814,-0.7801245450973511,0.5765013694763184,-0.2430057674646378,0,0,0,-1,-1,37982.98888104167,unknown,2,2025-04-22T16:39:10.860+03:00,2025-04-21T17:08:51.449+03:00,8620,1.064866,0,0,7158.132,7,22,2025-04-22T16:39:21.178+03:00,767021961.278446,0,-13.04,100.3592,1,0.45,2025-04-22T16:39:17.666+03:00,99,1.65,2025-04-22T14:20:19.516+03:00,0.02197104130929222,0
2025-04-22T16:39:21.932+03:00,1745329159.184034,40.9522769728346,29.14030140780613,76.45547,-1,-1,-1,-1,30,23.87926777261467,-9999,37994.05653,-0.691314697265625,0.539154052734375,-0.3225250244140625,37994.046454,-2.976424674315768,-1.265951266535233,-0.6188668395675094,0.002861318178474903,0.145776242017746,0.4543196856975555,0.0762820839881897,-0.103367030620575,-0.008893072605133057,XArbitraryZVertical,-0.5817848543429699,0.1982088140738245,-0.750501065143208,0.2428738721496291,-0.7769808173179626,0.5801125168800354,-0.2444792985916138,0,0,0,-1,-1,37982.98888104167,unknown,2,2025-04-22T16:39:10.860+03:00,2025-04-21T17:08:51.449+03:00,8620,1.064866,0,0,7158.132,7,22,2025-04-22T16:39:21.178+03:00,767021961.278446,0,-13.04,100.3592,1,0.45,2025-04-22T16:39:17.666+03:00,99,1.65,2025-04-22T14:20:19.516+03:00,0.02197104130929222,0
2025-04-22T16:39:21.942+03:00,1745329159.184034,40.9522769728346,29.14030140780613,76.45547,-1,-1,-1,-1,30,23.87926777261467,-9999,37994.066606,-0.69830322265625,0.582489013671875,-0.34552001953125,37994.05653,-2.975136745998359,-1.263949160475808,-0.6230081028596182,-0.04804500564932823,0.1046919226646423,0.3875276148319244,0.08278685808181763,-0.060638427734375,-0.06160882115364075,XArbitraryZVertical,-0.5809208017063154,0.1996940439289094,-0.7503211280733483,0.2442772204957609,-0.7741928696632385,0.5834807753562927,-0.2453066259622574,0,0,0,-1,-1,37982.98888104167,unknown,2,2025-04-22T16:39:10.860+03:00,2025-04-21T17:08:51.449+03:00,8620,1.064866,0,0,7158.132,7,22,2025-04-22T16:39:21.178+03:00,767021961.278446,0,-13.04,100.3592,1,0.45,2025-04-22T16:39:17.666+03:00,99,1.65,2025-04-22T14:20:19.516+03:00,0.02197104130929222,0
2025-04-22T16:39:21.952+03:00,1745329159.184034,40.9522769728346,29.14030140780613,76.45547,-1,-1,-1,-1,30,23.87926777261467,-9999,37994.076683,-0.71649169921875,0.620574951171875,-0.3344268798828125,37994.066606,-2.9747244292482,-1.26284580771821,-0.6264626562284383,-0.09417662024497986,0.06718655675649643,0.2858929634094238,0.07892704010009766,-0.01943415403366089,-0.09515020251274109,XArbitraryZVertical,-0.5803462916103942,0.2010573669004144,-0.7500832552620426,0.2452529485452136,-0.7719962596893311,0.5862827897071838,-0.2455482333898544,0,0,0,-1,-1,37982.98888104167,unknown,2,2025-04-22T16:39:10.860+03:00,2025-04-21T17:08:51.449+03:00,8620,1.064866,0,0,7158.132,7,22,2025-04-22T16:39:21.178+03:00,767021961.278446,0,-13.04,100.3592,1,0.45,2025-04-22T16:39:17.666+03:00,99,1.65,2025-04-22T14:20:19.516+03:00,0.02197104130929222,0
2025-04-22T16:39:21.962+03:00,1745329159.184034,40.9522769728346,29.14030140780613,76.45547,-1,-1,-1,-1,30,23.87926777261467,-9999,37994.08675900001,-0.721832275390625,0.6374664306640625,-0.3144378662109375,37994.076683,-2.975231391399769,-1.262610919094594,-0.6291250946615901,-0.1444664150476456,0.03580520302057266,0.1949209719896317,0.05903810262680054,0.01892310380935669,-0.09677068889141083,XArbitraryZVertical,-0.58005037190157,0.2022719956657487,-0.7498207971914096,0.2457563176408831,-0.7704484462738037,0.588437557220459,-0.2452552169561386,0,0,0,-1,-1,37982.98888104167,unknown,2,2025-04-22T16:39:10.860+03:00,2025-04-21T17:08:51.449+03:00,8620,1.064866,0,0,7158.132,7,22,2025-04-22T16:39:21.178+03:00,767021961.278446,0,-13.04,100.3592,1,0.45,2025-04-22T16:39:17.666+03:00,99,1.65,2025-04-22T14:20:19.516+03:00,0.02197104130929222,0
2025-04-22T16:39:21.972+03:00,1745329159.184034,40.9522769728346,29.14030140780613,76.45547,-1,-1,-1,-1,30,23.87926777261467,-9999,37994.096836,-0.734344482421875,0.628662109375,-0.28961181640625,37994.08675900001,-2.97662704407981,-1.263285460049576,-0.6311656934520058,-0.1882362067699432,-0.008329437114298344,0.1299587935209274,0.04893261194229126,0.04466408491134644,-0.07688722014427185,XArbitraryZVertical,-0.5800404192823176,0.2033896004615687,-0.7494951909506623,0.2458511557777525,-0.7694678902626038,0.5900862812995911,-0.2443715631961823,0,0,0,-1,-1,37982.98888104167,unknown,2,2025-04-22T16:39:10.860+03:00,2025-04-21T17:08:51.449+03:00,8620,1.064866,0,0,7158.132,7,22,2025-04-22T16:39:21.178+03:00,767021961.278446,0,-13.04,100.3592,1,0.45,2025-04-22T16:39:17.666+03:00,99,1.65,2025-04-22T14:20:19.516+03:00,0.02197104130929222,0
2025-04-22T16:39:21.982+03:00,1745329159.184034,40.9522769728346,29.14030140780613,76.45547,-1,-1,-1,-1,30,23.87926777261467,-9999,37994.106912,-0.7582550048828125,0.606231689453125,-0.247100830078125,37994.096836,-2.978461972922901,-1.264780415048962,-0.6328286422472797,-0.1942746490240097,-0.07065992057323456,0.09909488260746002,0.04167699813842773,0.04260510206222534,-0.05720031261444092,XArbitraryZVertical,-0.5803135321632585,0.2043861754399295,-0.7490409462509414,0.245764379418975,-0.7688955068588257,0.5914280414581299,-0.2429249882698059,0,0,0,-1,-1,37982.98888104167,unknown,2,2025-04-22T16:39:10.860+03:00,2025-04-21T17:08:51.449+03:00,8620,1.064866,0,0,7158.132,7,22,2025-04-22T16:39:21.178+03:00,767021961.278446,0,-13.04,100.3592,1,0.45,2025-04-22T16:39:17.666+03:00,99,1.65,2025-04-22T14:20:19.516+03:00,0.02197104130929222,0
2025-04-22T16:39:21.992+03:00,1745329159.184034,40.9522769728346,29.14030140780613,76.45547,-1,-1,-1,-1,30,23.87926777261467,-9999,37994.116988,-0.76568603515625,0.577484130859375,-0.1990203857421875,37994.106912,-2.98049295497923,-1.266967472019018,-0.6342177321338371,-0.2003757506608963,-0.1233088225126266,0.0692293643951416,0.01876246929168701,0.02337336540222168,-0.0238654613494873,XArbitraryZVertical,-0.5808398532476338,0.2052478447352377,-0.7484500853330927,0.2456029969347198,-0.7686402797698975,0.5925475358963013,-0.240996778011322,0,0,0,-1,-1,37982.98888104167,unknown,2,2025-04-22T16:39:10.860+03:00,2025-04-21T17:08:51.449+03:00,8620,1.064866,0,0,7158.132,7,22,2025-04-22T16:39:21.178+03:00,767021961.278446,0,-13.04,100.3592,1,0.45,2025-04-22T16:39:17.666+03:00,99,1.65,2025-04-22T14:20:19.516+03:00,0.02197104130929222,0
2025-04-22T16:39:22.003+03:00,1745329159.184034,40.9522769728346,29.14030140780613,76.45547,-1,-1,-1,-1,30,23.87926777261467,-9999,37994.127065,-0.7682037353515625,0.55303955078125,-0.16290283203125,37994.116988,-2.982530956087347,-1.269699447460355,-0.6354314457028993,-0.1807298809289932,-0.1789126843214035,0.06603650003671646,0.004112601280212402,-0.00532907247543335,0.0220685601234436,XArbitraryZVertical,-0.5815774896449599,0.2059766457000994,-0.7477268962207183,0.2454498781134782,-0.7686083912849426,0.5935248136520386,-0.2386824935674667,0,0,0,-1,-1,37982.98888104167,unknown,2,2025-04-22T16:39:10.860+03:00,2025-04-21T17:08:51.449+03:00,8620,1.064866,0,0,7158.132,7,22,2025-04-22T16:39:21.178+03:00,767021961.278446,0,-13.04,100.3592,1,0.45,2025-04-22T16:39:17.666+03:00,99,1.65,2025-04-22T14:20:19.516+03:00,0.02197104130929222,0
