loggingTime(txt),locationTimestamp_since1970(s),locationLatitude(WGS84),locationLongitude(WGS84),locationAltitude(m),locationSpeed(m/s),locationSpeedAccuracy(m/s),locationCourse(°),locationCourseAccuracy(°),locationVerticalAccuracy(m),locationHorizontalAccuracy(m),locationFloor(Z),accelerometerTimestamp_sinceReboot(s),accelerometerAccelerationX(G),accelerometerAccelerationY(G),accelerometerAccelerationZ(G),motionTimestamp_sinceReboot(s),motionYaw(rad),motionRoll(rad),motionPitch(rad),motionRotationRateX(rad/s),motionRotationRateY(rad/s),motionRotationRateZ(rad/s),motionUserAccelerationX(G),motionUserAccelerationY(G),motionUserAccelerationZ(G),motionAttitudeReferenceFrame(txt),motionQuaternionX(R),motionQuaternionY(R),motionQuaternionZ(R),motionQuaternionW(R),motionGravityX(G),motionGravityY(G),motionGravityZ(G),motionMagneticFieldX(µT),motionMagneticFieldY(µT),motionMagneticFieldZ(µT),motionHeading(°),motionMagneticFieldCalibrationAccuracy(Z),activityTimestamp_sinceReboot(s),activity(txt),activityActivityConfidence(Z),activityActivityStartDate(txt),pedometerStartDate(txt),pedometerNumberofSteps(N),pedometerAverageActivePace(s/m),pedometerCurrentPace(s/m),pedometerCurrentCadence(steps/s),pedometerDistance(m),pedometerFloorAscended(N),pedometerFloorDescended(N),pedometerEndDate(txt),altimeterTimestamp_sinceReboot(s),altimeterReset(bool),altimeterRelativeAltitude(m),altimeterPressure(kPa),batteryState(N),batteryLevel(R),heartRateBPMTimestamp(txt),heartRateBPM(N),heartRateBPS(R),heartRateVariabilityTimestamp(txt),heartRateVariability(ms),label
2025-04-18T12:17:42.726+03:00,1744967856.981899,40.9536263982903,29.14098580579653,93.69963,-1,-1,-1,-1,30,25.94878961532435,-9999,66050.46674429167,-0.712158203125,0.65673828125,-0.1803436279296875,66050.45666829168,1.029435653669148,-1.332570969379875,-0.7228123726904131,0.05466819554567337,0.03173112869262695,0.1712029874324799,-0.01044350862503052,-0.007596254348754883,0.006531059741973877,XArbitraryZVertical,0.04266397828444435,-0.6400733876261729,0.5522269579260509,0.5324765975670688,-0.7287685871124268,0.6614964008331299,-0.1769716888666153,0,0,0,-1,-1,66048.42023575,unknown,2,2025-04-18T12:17:40.647+03:00,2025-04-17T15:44:39.500+03:00,7589,1.149553,0,0,6253.948,4,10,2025-04-18T12:16:59.379+03:00,766660660.7359301,0,108.98,100.548,1,0.45,2025-04-18T12:17:36.920+03:00,112,1.866666666666667,2025-04-18T08:51:18.885+03:00,0.03057091307199995,1
2025-04-18T12:17:42.730+03:00,1744967856.981899,40.9536263982903,29.14098580579653,93.69963,-1,-1,-1,-1,30,25.94878961532435,-9999,66050.47681929167,-0.7011871337890625,0.628692626953125,-0.1850738525390625,66050.46674429167,1.03058974187719,-1.331302472500856,-0.724220656215618,0.028115414083004,0.07127320766448975,0.06717805564403534,0.009070932865142822,-0.006698548793792725,-0.001890495419502258,XArbitraryZVertical,0.04215626703375839,-0.6398323361574767,0.5528185997177473,0.5321928677617754,-0.7276379466056824,0.6625518798828125,-0.1776748597621918,0,0,0,-1,-1,66048.42023575,unknown,2,2025-04-18T12:17:40.647+03:00,2025-04-17T15:44:39.500+03:00,7589,1.149553,0,0,6253.948,4,10,2025-04-18T12:16:59.379+03:00,766660660.7359301,0,108.98,100.548,1,0.45,2025-04-18T12:17:36.920+03:00,112,1.866666666666667,2025-04-18T08:51:18.885+03:00,0.03057091307199995,1
2025-04-18T12:17:42.733+03:00,1744967856.981899,40.9536263982903,29.14098580579653,93.69963,-1,-1,-1,-1,30,25.94878961532435,-9999,66050.48689429167,-0.637908935546875,0.5475006103515625,-0.165557861328125,66050.47681929167,1.029755176506512,-1.332253706459137,-0.7225991543488174,-0.08300571143627167,-0.09809178113937378,-0.1593687534332275,0.02947801351547241,-0.02321392297744751,-0.008600533008575439,XArbitraryZVertical,0.0427583450455369,-0.6399637667581458,0.5522797605266262,0.5325459862981792,-0.7288494110107422,0.6613364815711975,-0.1772361993789673,0,0,0,-1,-1,66048.42023575,unknown,2,2025-04-18T12:17:40.647+03:00,2025-04-17T15:44:39.500+03:00,7589,1.149553,0,0,6253.948,4,10,2025-04-18T12:16:59.379+03:00,766660660.7359301,0,108.98,100.548,1,0.45,2025-04-18T12:17:36.920+03:00,112,1.866666666666667,2025-04-18T08:51:18.885+03:00,0.03057091307199995,1
2025-04-18T12:17:42.734+03:00,1744967856.981899,40.9536263982903,29.14098580579653,93.69963,-1,-1,-1,-1,30,25.94878961532435,-9999,66050.49696929166,-0.6807098388671875,0.710968017578125,-0.1760406494140625,66050.48689429167,1.027737794546385,-1.334773308136881,-0.7217480608549894,-0.1283548176288605,-0.09613435715436935,-0.1350168138742447,0.07796990871429443,-0.1156080961227417,0.006600797176361084,XArbitraryZVertical,0.04312588176791614,-0.6406049964152114,0.5515322751086776,0.5325200822932242,-0.7298406958580017,0.660697877407074,-0.1755307912826538,0,0,0,-1,-1,66048.42023575,unknown,2,2025-04-18T12:17:40.647+03:00,2025-04-17T15:44:39.500+03:00,7589,1.149553,0,0,6253.948,4,10,2025-04-18T12:16:59.379+03:00,766660660.7359301,0,108.98,100.548,1,0.45,2025-04-18T12:17:36.920+03:00,112,1.866666666666667,2025-04-18T08:51:18.885+03:00,0.03057091307199995,1
2025-04-18T12:17:42.739+03:00,1744967856.981899,40.9536263982903,29.14098580579653,93.69963,-1,-1,-1,-1,30,25.94878961532435,-9999,66050.50704529167,-0.7712554931640625,0.661346435546875,-0.200469970703125,66050.49696929166,1.025289727587237,-1.337420160864731,-0.7201908818784037,-0.1605050265789032,-0.1247473657131195,-0.2025087773799896,0.07284033298492432,0.03450268507003784,0.002296850085258484,XArbitraryZVertical,0.04365234778608239,-0.6412303754953224,0.5505355710006722,0.5327559472033043,-0.7313029170036316,0.6595281362533569,-0.1738361567258835,0,0,0,-1,-1,66048.42023575,unknown,2,2025-04-18T12:17:40.647+03:00,2025-04-17T15:44:39.500+03:00,7589,1.149553,0,0,6253.948,4,10,2025-04-18T12:16:59.379+03:00,766660660.7359301,0,108.98,100.548,1,0.45,2025-04-18T12:17:36.920+03:00,112,1.866666666666667,2025-04-18T08:51:18.885+03:00,0.03057091307199995,1
2025-04-18T12:17:42.749+03:00,1744967856.981899,40.9536263982903,29.14098580579653,93.69963,-1,-1,-1,-1,30,25.94878961532435,-9999,66050.51712029167,-0.7006988525390625,0.634918212890625,-0.1861572265625,66050.50704529167,1.022738806277239,-1.34075616419195,-0.7184684955655145,-0.1225997284054756,-0.1798790544271469,-0.2371437102556229,-0.04553514719009399,0.01791501045227051,-0.029441237449646,XArbitraryZVertical,0.04439460281317892,-0.6420295751043865,0.5494629150935751,0.5328393037663401,-0.7329835295677185,0.6582325100898743,-0.1716542840003967,0,0,0,-1,-1,66048.42023575,unknown,2,2025-04-18T12:17:40.647+03:00,2025-04-17T15:44:39.500+03:00,7589,1.149553,0,0,6253.948,4,10,2025-04-18T12:16:59.379+03:00,766660660.7359301,0,108.98,100.548,1,0.45,2025-04-18T12:17:36.920+03:00,112,1.866666666666667,2025-04-18T08:51:18.885+03:00,0.03057091307199995,1
2025-04-18T12:17:42.759+03:00,1744967856.981899,40.9536263982903,29.14098580579653,93.69963,-1,-1,-1,-1,30,25.94878961532435,-9999,66050.52719529167,-0.7791290283203125,0.66534423828125,-0.1823272705078125,66050.51712029167,1.020754462901726,-1.343641993100033,-0.7167115118503404,-0.1004229933023453,-0.1242759227752686,-0.1296997964382172,0.03484869003295898,-0.02525597810745239,-0.01843386888504028,XArbitraryZVertical,0.04520512403916769,-0.6426952926651469,0.5485414835302569,0.5329180348605715,-0.734601616859436,0.6569088101387024,-0.1697985082864761,0,0,0,-1,-1,66048.42023575,unknown,2,2025-04-18T12:17:40.647+03:00,2025-04-17T15:44:39.500+03:00,7589,1.149553,0,0,6253.948,4,10,2025-04-18T12:16:59.379+03:00,766660660.7359301,0,108.98,100.548,1,0.45,2025-04-18T12:17:36.920+03:00,112,1.866666666666667,2025-04-18T08:51:18.885+03:00,0.03057091307199995,1
2025-04-18T12:17:42.769+03:00,1744967856.981899,40.9536263982903,29.14098580579653,93.69963,-1,-1,-1,-1,30,25.94878961532435,-9999,66050.53727029166,-0.8089141845703125,0.676544189453125,-0.17572021484375,66050.52719529167,1.019485984829886,-1.345467102873246,-0.7156435753261957,-0.06123430654406548,-0.06021890789270401,-0.1026314124464989,-0.03273218870162964,0.005182266235351562,-0.01433862745761871,XArbitraryZVertical,0.04569603251054245,-0.6431211314669431,0.5479616732651337,0.5329589865657848,-0.7355937361717224,0.656103253364563,-0.1686141639947891,0,0,0,-1,-1,66048.42023575,unknown,2,2025-04-18T12:17:40.647+03:00,2025-04-17T15:44:39.500+03:00,7589,1.149553,0,0,6253.948,4,10,2025-04-18T12:16:59.379+03:00,766660660.7359301,0,108.98,100.548,1,0.45,2025-04-18T12:17:36.920+03:00,112,1.866666666666667,2025-04-18T08:51:18.885+03:00,0.03057091307199995,1
2025-04-18T12:17:42.779+03:00,1744967856.981899,40.9536263982903,29.14098580579653,93.69963,-1,-1,-1,-1,30,25.94878961532435,-9999,66050.54734629167,-0.7683258056640625,0.6555633544921875,-0.165740966796875,66050.53727029166,1.018713024178739,-1.346566974481085,-0.714999239759499,-0.03417738899588585,-0.04633345082402229,-0.04650237038731575,-0.0754854679107666,0.0224531888961792,-0.008645161986351013,XArbitraryZVertical,0.04598901968746048,-0.6433782256928391,0.5476093054270248,0.5329855287819323,-0.7361906170845032,0.655616819858551,-0.1678989380598068,0,0,0,-1,-1,66048.42023575,unknown,2,2025-04-18T12:17:40.647+03:00,2025-04-17T15:44:39.500+03:00,7589,1.149553,0,0,6253.948,4,10,2025-04-18T12:16:59.379+03:00,766660660.7359301,0,108.98,100.548,1,0.45,2025-04-18T12:17:36.920+03:00,112,1.866666666666667,2025-04-18T08:51:18.885+03:00,0.03057091307199995,1
2025-04-18T12:17:42.789+03:00,1744967856.981899,40.9536263982903,29.14098580579653,93.69963,-1,-1,-1,-1,30,25.94878961532435,-9999,66050.55742129167,-0.7710113525390625,0.6451873779296875,-0.1685638427734375,66050.54734629167,1.018437616199785,-1.347081228177908,-0.7148597334640536,-0.00897163525223732,-0.01914949715137482,-0.002420128555968404,-0.03516411781311035,0.00162351131439209,0.001647129654884338,XArbitraryZVertical,0.04609321290844766,-0.6435099874902083,0.5474977933384219,0.5329320441074851,-0.7363660335540771,0.6555114984512329,-0.1675406247377396,0,0,0,-1,-1,66048.42023575,unknown,2,2025-04-18T12:17:40.647+03:00,2025-04-17T15:44:39.500+03:00,7589,1.149553,0,0,6253.948,4,10,2025-04-18T12:16:59.379+03:00,766660660.7359301,0,108.98,100.548,1,0.45,2025-04-18T12:17:36.920+03:00,112,1.866666666666667,2025-04-18T08:51:18.885+03:00,0.03057091307199995,1
2025-04-18T12:17:42.799+03:00,1744967856.981899,40.9536263982903,29.14098580579653,93.69963,-1,-1,-1,-1,30,25.94878961532435,-9999,66050.56749629167,-0.7596893310546875,0.65460205078125,-0.174560546875,66050.55742129167,1.018352619212983,-1.347239435065263,-0.7148977585969324,-0.005059584509581327,-0.004412230104207993,0.003072974272072315,-0.03313255310058594,-0.01015442609786987,-0.0002296566963195801,XArbitraryZVertical,0.04609499879873469,-0.6435572655731341,0.5474786673210258,0.5328944354443956,-0.7363682389259338,0.6555402278900146,-0.1674185991287231,0,0,0,-1,-1,66048.42023575,unknown,2,2025-04-18T12:17:40.647+03:00,2025-04-17T15:44:39.500+03:00,7589,1.149553,0,0,6253.948,4,10,2025-04-18T12:16:59.379+03:00,766660660.7359301,0,108.98,100.548,1,0.45,2025-04-18T12:17:36.920+03:00,112,1.866666666666667,2025-04-18T08:51:18.885+03:00,0.03057091307199995,1
2025-04-18T12:17:42.809+03:00,1744967856.981899,40.9536263982903,29.14098580579653,93.69963,-1,-1,-1,-1,30,25.94878961532435,-9999,66050.57757129167,-0.745330810546875,0.6590576171875,-0.1786956787109375,66050.56749629167,1.018398904682538,-1.347219943749193,-0.7148471761703739,0.009073811583220959,-0.00256239902228117,-0.01166602410376072,-0.0263439416885376,-0.002639472484588623,-0.006433591246604919,XArbitraryZVertical,0.04612345716584308,-0.6435468056448876,0.5474819336206359,0.5329011448795704,-0.7363972067832947,0.6555020213127136,-0.167440265417099,0,0,0,-1,-1,66048.42023575,unknown,2,2025-04-18T12:17:40.647+03:00,2025-04-17T15:44:39.500+03:00,7589,1.149553,0,0,6253.948,4,10,2025-04-18T12:16:59.379+03:00,766660660.7359301,0,108.98,100.548,1,0.45,2025-04-18T12:17:36.920+03:00,112,1.866666666666667,2025-04-18T08:51:18.885+03:00,0.03057091307199995,1
2025-04-18T12:17:42.819+03:00,1744967856.981899,40.9536263982903,29.14098580579653,93.69963,-1,-1,-1,-1,30,25.94878961532435,-9999,66050.58764729167,-0.73779296875,0.65081787109375,-0.1830596923828125,66050.57757129167,1.018297120867392,-1.347344536766701,-0.7147924845403573,-0.01777970604598522,-0.0164460577070713,-0.01899520866572857,-0.009732365608215332,0.004756510257720947,-0.01036261022090912,XArbitraryZVertical,0.04614521151750272,-0.6435778047944875,0.5474416344724412,0.5329031990045204,-0.7364529371261597,0.6554607152938843,-0.1673564612865448,0,0,0,-1,-1,66048.42023575,unknown,2,2025-04-18T12:17:40.647+03:00,2025-04-17T15:44:39.500+03:00,7589,1.149553,0,0,6253.948,4,10,2025-04-18T12:16:59.379+03:00,766660660.7359301,0,108.98,100.548,1,0.45,2025-04-18T12:17:36.920+03:00,112,1.866666666666667,2025-04-18T08:51:18.885+03:00,0.03057091307199995,1
2025-04-18T12:17:42.829+03:00,1744967856.981899,40.9536263982903,29.14098580579653,93.69963,-1,-1,-1,-1,30,25.94878961532435,-9999,66050.59772229167,-0.7272186279296875,0.6451873779296875,-0.176300048828125,66050.58764729167,1.017851377988309,-1.347904682554488,-0.7145613566018685,-0.04049567133188248,-0.03772018477320671,-0.03737661615014076,-0.002944886684417725,-0.003766357898712158,-0.01708930730819702,XArbitraryZVertical,0.04624119833245387,-0.6437181409845759,0.5472663204047022,0.5329055214457451,-0.7366943955421448,0.6552861332893372,-0.1669774204492569,0,0,0,-1,-1,66048.42023575,unknown,2,2025-04-18T12:17:40.647+03:00,2025-04-17T15:44:39.500+03:00,7589,1.149553,0,0,6253.948,4,10,2025-04-18T12:16:59.379+03:00,766660660.7359301,0,108.98,100.548,1,0.45,2025-04-18T12:17:36.920+03:00,112,1.866666666666667,2025-04-18T08:51:18.885+03:00,0.03057091307199995,1
2025-04-18T12:17:42.839+03:00,1744967856.981899,40.9536263982903,29.14098580579653,93.69963,-1,-1,-1,-1,30,25.94878961532435,-9999,66050.60779729167,-0.7380218505859375,0.6555328369140625,-0.17877197265625,66050.59772229167,1.017151016947901,-1.348784403624075,-0.7142648027817715,-0.05015728622674942,-0.04879886656999588,-0.0405673161149025,0.009888291358947754,-0.01036298274993896,-0.009927928447723389,XArbitraryZVertical,0.04636691298171364,-0.6439441549019439,0.5470033184814,0.5328916570789174,-0.7370306253433228,0.6550620794296265,-0.166372075676918,0,0,0,-1,-1,66048.42023575,unknown,2,2025-04-18T12:17:40.647+03:00,2025-04-17T15:44:39.500+03:00,7589,1.149553,0,0,6253.948,4,10,2025-04-18T12:16:59.379+03:00,766660660.7359301,0,108.98,100.548,1,0.45,2025-04-18T12:17:36.920+03:00,112,1.866666666666667,2025-04-18T08:51:18.885+03:00,0.03057091307199995,1
2025-04-18T12:17:42.850+03:00,1744967856.981899,40.9536263982903,29.14098580579653,93.69963,-1,-1,-1,-1,30,25.94878961532435,-9999,66050.61787229167,-0.747894287109375,0.6575469970703125,-0.1709442138671875,66050.60779729167,1.016360536733675,-1.349764705166801,-0.7140044442330289,-0.05513926222920418,-0.04489786922931671,-0.03049497306346893,0.00104677677154541,-0.0011025071144104,-0.01357334852218628,XArbitraryZVertical,0.04647745181895229,-0.6442021589665639,0.5467207069949698,0.5328601630283811,-0.7373597025871277,0.6548653841018677,-0.1656868457794189,0,0,0,-1,-1,66048.42023575,unknown,2,2025-04-18T12:17:40.647+03:00,2025-04-17T15:44:39.500+03:00,7589,1.149553,0,0,6253.948,4,10,2025-04-18T12:16:59.379+03:00,766660660.7359301,0,108.98,100.548,1,0.45,2025-04-18T12:17:36.920+03:00,112,1.866666666666667,2025-04-18T08:51:18.885+03:00,0.03057091307199995,1
2025-04-18T12:17:42.859+03:00,1744967856.981899,40.9536263982903,29.14098580579653,93.69963,-1,-1,-1,-1,30,25.94878961532435,-9999,66050.62794729166,-0.7427825927734375,0.6544189453125,-0.1663665771484375,66050.61787229167,1.015521732469509,-1.350728041811391,-0.7138527240690264,-0.06452511250972748,-0.03794468939304352,-0.02400661446154118,-0.009942710399627686,0.003833949565887451,-0.007716059684753418,XArbitraryZVertical,0.0465270196377096,-0.6444657996027795,0.546446082243167,0.5328187571547666,-0.7376159429550171,0.6547507047653198,-0.1649981439113617,0,0,0,-1,-1,66048.42023575,unknown,2,2025-04-18T12:17:40.647+03:00,2025-04-17T15:44:39.500+03:00,7589,1.149553,0,0,6253.948,4,10,2025-04-18T12:16:59.379+03:00,766660660.7359301,0,108.98,100.548,1,0.45,2025-04-18T12:17:36.920+03:00,112,1.866666666666667,2025-04-18T08:51:18.885+03:00,0.03057091307199995,1
2025-04-18T12:17:42.869+03:00,1744967856.981899,40.9536263982903,29.14098580579653,93.69963,-1,-1,-1,-1,30,25.94878961532435,-9999,66050.63802329167,-0.7399444580078125,0.667724609375,-0.1682281494140625,66050.62794729166,1.01462213836376,-1.351658654917344,-0.713810476930355,-0.06432803720235825,-0.02903748117387295,-0.008282777853310108,-0.006725966930389404,-0.0008033514022827148,-0.001804709434509277,XArbitraryZVertical,0.04650702387535959,-0.6447311638466395,0.5461767686477652,0.5327756009972066,-0.7377961874008179,0.6547187566757202,-0.1643176525831223,0,0,0,-1,-1,66048.42023575,unknown,2,2025-04-18T12:17:40.647+03:00,2025-04-17T15:44:39.500+03:00,7589,1.149553,0,0,6253.948,4,10,2025-04-18T12:16:59.379+03:00,766660660.7359301,0,108.98,100.548,1,0.45,2025-04-18T12:17:36.920+03:00,112,1.866666666666667,2025-04-18T08:51:18.885+03:00,0.03057091307199995,1
2025-04-18T12:17:42.880+03:00,1744967856.981899,40.9536263982903,29.14098580579653,93.69963,-1,-1,-1,-1,30,25.94878961532435,-9999,66050.64809829167,-0.7471923828125,0.6692962646484375,-0.165191650390625,66050.63802329167,1.013768285766447,-1.352469472068786,-0.71391201584471,-0.06988725066184998,-0.0187399722635746,0.003849718486890197,-0.001454651355743408,0.01082342863082886,-0.004462063312530518,XArbitraryZVertical,0.04641528405872834,-0.644975300909965,0.5459497936505577,0.5327207033104907,-0.7378641963005066,0.6547955274581909,-0.1637049615383148,0,0,0,-1,-1,66048.42023575,unknown,2,2025-04-18T12:17:40.647+03:00,2025-04-17T15:44:39.500+03:00,7589,1.149553,0,0,6253.948,4,10,2025-04-18T12:16:59.379+03:00,766660660.7359301,0,108.98,100.548,1,0.45,2025-04-18T12:17:36.920+03:00,112,1.866666666666667,2025-04-18T08:51:18.885+03:00,0.03057091307199995,1
2025-04-18T12:17:42.890+03:00,1744967856.981899,40.9536263982903,29.14098580579653,93.69963,-1,-1,-1,-1,30,25.94878961532435,-9999,66050.65817329167,-0.7469940185546875,0.6612548828125,-0.165771484375,66050.64809829167,1.012958686763799,-1.353098349580131,-0.7141664784496505,-0.06343121826648712,-0.001073625404387712,0.02361569926142693,-0.008945584297180176,0.01588016748428345,-0.002825915813446045,XArbitraryZVertical,0.0462309807213934,-0.6451823241835545,0.5457680015127584,0.5326723774871156,-0.7378044128417969,0.6549878120422363,-0.1632049232721329,0,0,0,-1,-1,66048.42023575,unknown,2,2025-04-18T12:17:40.647+03:00,2025-04-17T15:44:39.500+03:00,7589,1.149553,0,0,6253.948,4,10,2025-04-18T12:16:59.379+03:00,766660660.7359301,0,108.98,100.548,1,0.45,2025-04-18T12:17:36.920+03:00,112,1.866666666666667,2025-04-18T08:51:18.885+03:00,0.03057091307199995,1
2025-04-18T12:17:42.900+03:00,1744967856.981899,40.9536263982903,29.14098580579653,93.69963,-1,-1,-1,-1,30,25.94878961532435,-9999,66050.66824829167,-0.7498779296875,0.650421142578125,-0.1646575927734375,66050.65817329167,1.012185790041579,-1.353476134470268,-0.7147217349428352,-0.07678604125976562,0.02331200800836086,0.05894086882472038,-0.009696900844573975,0.006107032299041748,-0.003122031688690186,XArbitraryZVertical,0.04587784672934488,-0.6453459101105204,0.5456591879521359,0.5326162706956091,-0.7375108003616333,0.6554072499275208,-0.1628477573394775,0,0,0,-1,-1,66048.42023575,unknown,2,2025-04-18T12:17:40.647+03:00,2025-04-17T15:44:39.500+03:00,7589,1.149553,0,0,6253.948,4,10,2025-04-18T12:16:59.379+03:00,766660660.7359301,0,108.98,100.548,1,0.45,2025-04-18T12:17:36.920+03:00,112,1.866666666666667,2025-04-18T08:51:18.885+03:00,0.03057091307199995,1
2025-04-18T12:17:42.910+03:00,1744967856.981899,40.9536263982903,29.14098580579653,93.69963,-1,-1,-1,-1,30,25.94878961532435,-9999,66050.67832429167,-0.736846923828125,0.618682861328125,-0.1671905517578125,66050.66824829167,1.011588667950713,-1.353140474415812,-0.7154555088085848,-0.01424808893352747,0.154017299413681,0.07191019505262375,-0.01258653402328491,-0.002915680408477783,-0.001727208495140076,XArbitraryZVertical,0.04532028812876557,-0.6453296699533052,0.5456475634831268,0.5326954638741322,-0.7369861602783203,0.655961275100708,-0.1629913747310638,0,0,0,-1,-1,66048.42023575,unknown,2,2025-04-18T12:17:40.647+03:00,2025-04-17T15:44:39.500+03:00,7589,1.149553,0,0,6253.948,4,10,2025-04-18T12:16:59.379+03:00,766660660.7359301,0,108.98,100.548,1,0.45,2025-04-18T12:17:36.920+03:00,112,1.866666666666667,2025-04-18T08:51:18.885+03:00,0.03057091307199995,1
2025-04-18T12:17:42.920+03:00,1744967856.981899,40.9536263982903,29.14098580579653,93.69963,-1,-1,-1,-1,30,25.94878961532435,-9999,66050.68839929167,-0.7534332275390625,0.5871124267578125,-0.158111572265625,66050.67832429167,1.012613060549392,-1.350607581167197,-0.7161628266668169,-0.0914452001452446,0.1304101645946503,0.07062491774559021,-0.002331137657165527,-0.03114408254623413,-0.0008779019117355347,XArbitraryZVertical,0.04469576267267161,-0.6446892334743843,0.5461119266049685,0.533047654348483,-0.736117959022522,0.6564950346946716,-0.1647561639547348,0,0,0,-1,-1,66048.42023575,unknown,2,2025-04-18T12:17:40.647+03:00,2025-04-17T15:44:39.500+03:00,7589,1.149553,0,0,6253.948,4,10,2025-04-18T12:16:59.379+03:00,766660660.7359301,0,108.98,100.548,1,0.45,2025-04-18T12:17:36.920+03:00,112,1.866666666666667,2025-04-18T08:51:18.885+03:00,0.03057091307199995,1
2025-04-18T12:17:42.930+03:00,1744967856.981899,40.9536263982903,29.14098580579653,93.69963,-1,-1,-1,-1,30,25.94878961532435,-9999,66050.69847429167,-0.6779937744140625,0.7108612060546875,-0.1517791748046875,66050.68839929167,1.012192125132312,-1.350207504628385,-0.7166975869361292,-0.02856530994176865,0.01893130876123905,0.002478090347722173,-0.01722025871276855,-0.07704895734786987,0.0007435530424118042,XArbitraryZVertical,0.04425140414737729,-0.6446354645868392,0.5461100012023244,0.5331519051922727,-0.735709547996521,0.6568983197212219,-0.1649738550186157,0,0,0,-1,-1,66048.42023575,unknown,2,2025-04-18T12:17:40.647+03:00,2025-04-17T15:44:39.500+03:00,7589,1.149553,0,0,6253.948,4,10,2025-04-18T12:16:59.379+03:00,766660660.7359301,0,108.98,100.548,1,0.45,2025-04-18T12:17:36.920+03:00,112,1.866666666666667,2025-04-18T08:51:18.885+03:00,0.03057091307199995,1
2025-04-18T12:17:42.940+03:00,1744967856.981899,40.9536263982903,29.14098580579653,93.69963,-1,-1,-1,-1,30,25.94878961532435,-9999,66050.70854929167,-0.7092742919921875,0.6617889404296875,-0.1810302734375,66050.69847429167,1.011855192014246,-1.35023613379575,-0.7168226200891152,-0.02988790161907673,0.02912022918462753,0.01323150284588337,0.04735571146011353,0.04384356737136841,0.01870991289615631,XArbitraryZVertical,0.04410406589855247,-0.644660715371012,0.5460432820436537,0.5332017537327185,-0.735633909702301,0.6569925546646118,-0.1649347841739655,0,0,0,-1,-1,66048.42023575,unknown,2,2025-04-18T12:17:40.647+03:00,2025-04-17T15:44:39.500+03:00,7589,1.149553,0,0,6253.948,4,10,2025-04-18T12:16:59.379+03:00,766660660.7359301,0,108.98,100.548,1,0.45,2025-04-18T12:17:36.920+03:00,112,1.866666666666667,2025-04-18T08:51:18.885+03:00,0.03057091307199995,1
2025-04-18T12:17:42.950+03:00,1744967856.981899,40.9536263982903,29.14098580579653,93.69963,-1,-1,-1,-1,30,25.94878961532435,-9999,66050.71862529167,-0.7509765625,0.65753173828125,-0.177886962890625,66050.70854929167,1.011532439300638,-1.35008742434799,-0.7169846275543795,-0.02191013656556606,0.0348564125597477,0.002457151422277093,0.03801101446151733,0.01476025581359863,-0.01507852971553802,XArbitraryZVertical,0.04389902426197932,-0.6446413231876944,0.5459912178692758,0.5332954393446683,-0.7355055212974548,0.6571146845817566,-0.1650208830833435,0,0,0,-1,-1,66048.42023575,unknown,2,2025-04-18T12:17:40.647+03:00,2025-04-17T15:44:39.500+03:00,7589,1.149553,0,0,6253.948,4,10,2025-04-18T12:16:59.379+03:00,766660660.7359301,0,108.98,100.548,1,0.45,2025-04-18T12:17:36.920+03:00,112,1.866666666666667,2025-04-18T08:51:18.885+03:00,0.03057091307199995,1
2025-04-18T12:17:42.960+03:00,1744967856.981899,40.9536263982903,29.14098580579653,93.69963,-1,-1,-1,-1,30,25.94878961532435,-9999,66050.72870029167,-0.7178802490234375,0.68450927734375,-0.1719512939453125,66050.71862529167,1.011293130954944,-1.350021079729873,-0.7169617439236549,-0.01217561680823565,0.01120794098824263,-0.01790118217468262,-0.01800030469894409,-0.005089461803436279,-0.01325641572475433,XArbitraryZVertical,0.04381233532142301,-0.6446270252694948,0.5459245264781811,0.533388062225051,-0.7355091571807861,0.6570974588394165,-0.1650729477405548,0,0,0,-1,-1,66048.42023575,unknown,2,2025-04-18T12:17:40.647+03:00,2025-04-17T15:44:39.500+03:00,7589,1.149553,0,0,6253.948,4,10,2025-04-18T12:16:59.379+03:00,766660660.7359301,0,108.98,100.548,1,0.45,2025-04-18T12:17:36.920+03:00,112,1.866666666666667,2025-04-18T08:51:18.885+03:00,0.03057091307199995,1
2025-04-18T12:17:42.997+03:00,1744967856.981899,40.9536263982903,29.14098580579653,93.69963,-1,-1,-1,-1,30,25.94878961532435,-9999,66050.73877529167,-0.73077392578125,0.660369873046875,-0.16339111328125,66050.72870029167,1.011128369761245,-1.350021928231287,-0.7168360701539886,-0.01080914866179228,0.01513077784329653,-0.01529634650796652,0.01543617248535156,0.02854418754577637,-0.007944166660308838,XArbitraryZVertical,0.04380628375555771,-0.6446206551023679,0.5458567102342415,0.5334657643935267,-0.7355899810791016,0.6570026874542236,-0.1650904417037964,0,0,0,-1,-1,66048.42023575,unknown,2,2025-04-18T12:17:40.647+03:00,2025-04-17T15:44:39.500+03:00,7589,1.149553,0,0,6253.948,4,10,2025-04-18T12:16:59.379+03:00,766660660.7359301,0,108.98,100.548,1,0.45,2025-04-18T12:17:36.920+03:00,112,1.866666666666667,2025-04-18T08:51:18.885+03:00,0.03057091307199995,1
2025-04-18T12:17:43.002+03:00,1744967856.981899,40.9536263982903,29.14098580579653,93.69963,-1,-1,-1,-1,30,25.94878961532435,-9999,66050.74885029167,-0.735565185546875,0.647705078125,-0.1633453369140625,66050.73877529167,1.010903566439364,-1.350019596582055,-0.7167680950812749,-0.01875495724380016,0.01523943431675434,-0.005303632467985153,0.007086992263793945,0.006012380123138428,0.001237884163856506,XArbitraryZVertical,0.04375855894079358,-0.6446194436828977,0.545783908527025,0.5335455764182173,-0.7356331348419189,0.6569514870643616,-0.1651019155979156,0,0,0,-1,-1,66048.42023575,unknown,2,2025-04-18T12:17:40.647+03:00,2025-04-17T15:44:39.500+03:00,7589,1.149553,0,0,6253.948,4,10,2025-04-18T12:16:59.379+03:00,766660660.7359301,0,108.98,100.548,1,0.45,2025-04-18T12:17:36.920+03:00,112,1.866666666666667,2025-04-18T08:51:18.885+03:00,0.03057091307199995,1
2025-04-18T12:17:43.003+03:00,1744967856.981899,40.9536263982903,29.14098580579653,93.69963,-1,-1,-1,-1,30,25.94878961532435,-9999,66050.75892529167,-0.7315826416015625,0.64031982421875,-0.15966796875,66050.74885029167,1.010535107384435,-1.35011687947972,-0.7168169657591018,-0.0335187241435051,0.01775265857577324,0.007779145613312721,-0.001183211803436279,-0.008611857891082764,0.0005031377077102661,XArbitraryZVertical,0.0436481019646103,-0.6446574074289501,0.5456927482460244,0.5336020386544708,-0.7356179356575012,0.6569883227348328,-0.1650233417749405,0,0,0,-1,-1,66048.42023575,unknown,2,2025-04-18T12:17:40.647+03:00,2025-04-17T15:44:39.500+03:00,7589,1.149553,0,0,6253.948,4,10,2025-04-18T12:16:59.379+03:00,766660660.7359301,0,108.98,100.548,1,0.45,2025-04-18T12:17:36.920+03:00,112,1.866666666666667,2025-04-18T08:51:18.885+03:00,0.03057091307199995,1
2025-04-18T12:17:43.004+03:00,1744967856.981899,40.9536263982903,29.14098580579653,93.69963,-1,-1,-1,-1,30,25.94878961532435,-9999,66050.76900129167,-0.73675537109375,0.6400146484375,-0.17169189453125,66050.75892529167,1.010067597632516,-1.350257419550811,-0.7169591511471847,-0.04324604943394661,0.0174715630710125,0.01450369413942099,0.004150450229644775,-0.01590591669082642,0.005567312240600586,XArbitraryZVertical,0.04348269051946999,-0.6447165934767864,0.5455919235032297,0.5336472148217699,-0.7355500459671021,0.6570954918861389,-0.164899542927742,0,0,0,-1,-1,66048.42023575,unknown,2,2025-04-18T12:17:40.647+03:00,2025-04-17T15:44:39.500+03:00,7589,1.149553,0,0,6253.948,4,10,2025-04-18T12:16:59.379+03:00,766660660.7359301,0,108.98,100.548,1,0.45,2025-04-18T12:17:36.920+03:00,112,1.866666666666667,2025-04-18T08:51:18.885+03:00,0.03057091307199995,1
2025-04-18T12:17:43.016+03:00,1744967856.981899,40.9536263982903,29.14098580579653,93.69963,-1,-1,-1,-1,30,25.94878961532435,-9999,66050.77907629167,-0.7383270263671875,0.6450958251953125,-0.1796417236328125,66050.76900129167,1.009515825224714,-1.350472292650245,-0.7170506850280933,-0.04507777094841003,0.01251169107854366,0.0167415477335453,-0.0008929967880249023,-0.01798897981643677,-0.004598334431648254,XArbitraryZVertical,0.0433292590977785,-0.6447932973931081,0.5454573960034342,0.5337046074189193,-0.7355268597602844,0.6571645140647888,-0.1647283583879471,0,0,0,-1,-1,66048.42023575,unknown,2,2025-04-18T12:17:40.647+03:00,2025-04-17T15:44:39.500+03:00,7589,1.149553,0,0,6253.948,4,10,2025-04-18T12:16:59.379+03:00,766660660.7359301,0,108.98,100.548,1,0.45,2025-04-18T12:17:36.920+03:00,112,1.866666666666667,2025-04-18T08:51:18.885+03:00,0.03057091307199995,1
2025-04-18T12:17:43.031+03:00,1744967856.981899,40.9536263982903,29.14098580579653,93.69963,-1,-1,-1,-1,30,25.94878961532435,-9999,66050.78915129167,-0.747650146484375,0.65606689453125,-0.1719970703125,66050.77907629167,1.008971271379188,-1.35069729549791,-0.7174360686524353,-0.03671245276927948,0.01571847125887871,0.0146620525047183,-0.00270533561706543,-0.0137934684753418,-0.01485948264598846,XArbitraryZVertical,0.04307139048252106,-0.6448961939270274,0.5453804662144722,0.5336796049229144,-0.7353164553642273,0.6574549078941345,-0.1645075082778931,0,0,0,-1,-1,66048.42023575,unknown,2,2025-04-18T12:17:40.647+03:00,2025-04-17T15:44:39.500+03:00,7589,1.149553,0,0,6253.948,4,10,2025-04-18T12:16:59.379+03:00,766660660.7359301,0,108.98,100.548,1,0.45,2025-04-18T12:17:36.920+03:00,112,1.866666666666667,2025-04-18T08:51:18.885+03:00,0.03057091307199995,1
2025-04-18T12:17:43.033+03:00,1744967856.981899,40.9536263982903,29.14098580579653,93.69963,-1,-1,-1,-1,30,25.94878961532435,-9999,66050.79922629167,-0.74725341796875,0.6662445068359375,-0.16851806640625,66050.78915129167,1.008611079569968,-1.350689670146102,-0.7176988620487912,-0.03238162025809288,0.02033612504601479,0.006429156288504601,-0.01065725088119507,-0.002745687961578369,-0.009047508239746094,XArbitraryZVertical,0.04285516547685784,-0.6449230517554205,0.5453344488956601,0.5337115666710452,-0.7351465821266174,0.6576529145240784,-0.1644753813743591,0,0,0,-1,-1,66048.42023575,unknown,2,2025-04-18T12:17:40.647+03:00,2025-04-17T15:44:39.500+03:00,7589,1.149553,0,0,6253.948,4,10,2025-04-18T12:16:59.379+03:00,766660660.7359301,0,108.98,100.548,1,0.45,2025-04-18T12:17:36.920+03:00,112,1.866666666666667,2025-04-18T08:51:18.885+03:00,0.03057091307199995,1
2025-04-18T12:17:43.041+03:00,1744967856.981899,40.9536263982903,29.14098580579653,93.69963,-1,-1,-1,-1,30,25.94878961532435,-9999,66050.80930229167,-0.735382080078125,0.6649169921875,-0.163848876953125,66050.79922629167,1.008229860373061,-1.350753358628842,-0.7177012382618011,-0.02957744337618351,0.01193132251501083,-0.009528039023280144,-0.01331859827041626,0.008574485778808594,-0.004791721701622009,XArbitraryZVertical,0.04274871189674989,-0.6449483981235329,0.545231798798237,0.5337943461024673,-0.7351555228233337,0.6576547026634216,-0.1644282191991806,0,0,0,-1,-1,66048.42023575,unknown,2,2025-04-18T12:17:40.647+03:00,2025-04-17T15:44:39.500+03:00,7589,1.149553,0,0,6253.948,4,10,2025-04-18T12:16:59.379+03:00,766660660.7359301,0,108.98,100.548,1,0.45,2025-04-18T12:17:36.920+03:00,112,1.866666666666667,2025-04-18T08:51:18.885+03:00,0.03057091307199995,1
2025-04-18T12:17:43.051+03:00,1744967856.981899,40.9536263982903,29.14098580579653,93.69963,-1,-1,-1,-1,30,25.94878961532435,-9999,66050.81937729167,-0.733612060546875,0.67578125,-0.161834716796875,66050.80930229167,1.007891852808528,-1.350793440402555,-0.7177107086841458,-0.0183855090290308,0.02042867057025433,-0.01221889723092318,-0.001614570617675781,0.007087290287017822,0.0002739578485488892,XArbitraryZVertical,0.04264709255532577,-0.6449670710044838,0.5451425178350587,0.5338711270657238,-0.7351560592651367,0.6576618552207947,-0.1643974035978317,0,0,0,-1,-1,66048.42023575,unknown,2,2025-04-18T12:17:40.647+03:00,2025-04-17T15:44:39.500+03:00,7589,1.149553,0,0,6253.948,4,10,2025-04-18T12:16:59.379+03:00,766660660.7359301,0,108.98,100.548,1,0.45,2025-04-18T12:17:36.920+03:00,112,1.866666666666667,2025-04-18T08:51:18.885+03:00,0.03057091307199995,1
2025-04-18T12:17:43.061+03:00,1744967856.981899,40.9536263982903,29.14098580579653,93.69963,-1,-1,-1,-1,30,25.94878961532435,-9999,66050.82945229167,-0.7281646728515625,0.6747894287109375,-0.1643829345703125,66050.81937729167,1.007695954712383,-1.350717955293762,-0.7176449350664031,-0.009412587620317936,0.01906906068325043,-0.009809168986976147,0.001192331314086914,0.01702451705932617,0.00299389660358429,XArbitraryZVertical,0.04258787757680928,-0.6449458132430678,0.54507932364612,0.5339660510573977,-0.7351858615875244,0.6576122641563416,-0.1644623428583145,0,0,0,-1,-1,66048.42023575,unknown,2,2025-04-18T12:17:40.647+03:00,2025-04-17T15:44:39.500+03:00,7589,1.149553,0,0,6253.948,4,10,2025-04-18T12:16:59.379+03:00,766660660.7359301,0,108.98,100.548,1,0.45,2025-04-18T12:17:36.920+03:00,112,1.866666666666667,2025-04-18T08:51:18.885+03:00,0.03057091307199995,1
2025-04-18T12:17:43.071+03:00,1744967856.981899,40.9536263982903,29.14098580579653,93.69963,-1,-1,-1,-1,30,25.94878961532435,-9999,66050.83952729167,-0.72186279296875,0.6632232666015625,-0.1685028076171875,66050.82945229167,1.00749720507879,-1.350677157635693,-0.7175436005055366,-0.01473251823335886,0.01561946794390678,-0.01096764393150806,0.005782544612884521,0.01850473880767822,0.0008411407470703125,XArbitraryZVertical,0.04255045718708012,-0.6449310147540211,0.5450078511449433,0.5340598749532602,-0.7352442145347595,0.6575359702110291,-0.1645068824291229,0,0,0,-1,-1,66048.42023575,unknown,2,2025-04-18T12:17:40.647+03:00,2025-04-17T15:44:39.500+03:00,7589,1.149553,0,0,6253.948,4,10,2025-04-18T12:16:59.379+03:00,766660660.7359301,0,108.98,100.548,1,0.45,2025-04-18T12:17:36.920+03:00,112,1.866666666666667,2025-04-18T08:51:18.885+03:00,0.03057091307199995,1
2025-04-18T12:17:43.081+03:00,1744967856.981899,40.9536263982903,29.14098580579653,93.69963,-1,-1,-1,-1,30,25.94878961532435,-9999,66050.84960329167,-0.72540283203125,0.652801513671875,-0.1743621826171875,66050.83952729167,1.007214729083385,-1.350702118899209,-0.7174984483373007,-0.02090838924050331,0.02032766863703728,-0.003872716333717108,0.01275843381881714,0.006606400012969971,-0.003580451011657715,XArbitraryZVertical,0.0424829733986495,-0.6449400556619774,0.5449232804124613,0.5341407162000674,-0.7352774143218994,0.6575019359588623,-0.1644950360059738,0,0,0,-1,-1,66048.42023575,unknown,2,2025-04-18T12:17:40.647+03:00,2025-04-17T15:44:39.500+03:00,7589,1.149553,0,0,6253.948,4,10,2025-04-18T12:16:59.379+03:00,766660660.7359301,0,108.98,100.548,1,0.45,2025-04-18T12:17:36.920+03:00,112,1.866666666666667,2025-04-18T08:51:18.885+03:00,0.03057091307199995,1
2025-04-18T12:17:43.091+03:00,1744967856.981899,40.9536263982903,29.14098580579653,93.69963,-1,-1,-1,-1,30,25.94878961532435,-9999,66050.85967829167,-0.728271484375,0.64532470703125,-0.1724090576171875,66050.84960329167,1.006938014307246,-1.350672126457813,-0.7174625903449241,-0.02605574578046799,0.01493583433330059,-0.005309757776558399,0.01123529672622681,-0.003681540489196777,-0.009321093559265137,XArbitraryZVertical,0.04239898118695046,-0.6449350480922962,0.5448432023454201,0.5342350258152619,-0.7352953553199768,0.6574749350547791,-0.1645222157239914,0,0,0,-1,-1,66048.42023575,unknown,2,2025-04-18T12:17:40.647+03:00,2025-04-17T15:44:39.500+03:00,7589,1.149553,0,0,6253.948,4,10,2025-04-18T12:16:59.379+03:00,766660660.7359301,0,108.98,100.548,1,0.45,2025-04-18T12:17:36.920+03:00,112,1.866666666666667,2025-04-18T08:51:18.885+03:00,0.03057091307199995,1
2025-04-18T12:17:43.101+03:00,1744967856.981899,40.9536263982903,29.14098580579653,93.69963,-1,-1,-1,-1,30,25.94878961532435,-9999,66050.86975329167,-0.728271484375,0.6428070068359375,-0.164154052734375,66050.85967829167,1.006588644274156,-1.350797795687947,-0.7174039595585147,-0.02966739237308502,-0.001119432039558887,-0.006464571226388216,0.007036328315734863,-0.01202976703643799,-0.008810028433799744,XArbitraryZVertical,0.04234245983109049,-0.6449713295635932,0.544736071956806,0.534304846861495,-0.7353535294532776,0.6574307084083557,-0.1644382029771805,0,0,0,-1,-1,66048.42023575,unknown,2,2025-04-18T12:17:40.647+03:00,2025-04-17T15:44:39.500+03:00,7589,1.149553,0,0,6253.948,4,10,2025-04-18T12:16:59.379+03:00,766660660.7359301,0,108.98,100.548,1,0.45,2025-04-18T12:17:36.920+03:00,112,1.866666666666667,2025-04-18T08:51:18.885+03:00,0.03057091307199995,1
2025-04-18T12:17:43.112+03:00,1744967856.981899,40.9536263982903,29.14098580579653,93.69963,-1,-1,-1,-1,30,25.94878961532435,-9999,66050.87982829167,-0.7397613525390625,0.6418609619140625,-0.1647186279296875,66050.86975329167,1.006159079198065,-1.351116411895132,-0.7173537185053558,-0.03981802985072136,-0.00691234041005373,-0.0111866220831871,0.007181942462921143,-0.01408237218856812,-0.001087293028831482,XArbitraryZVertical,0.04230942819049992,-0.6450615195260685,0.5446049991181202,0.5343322108589225,-0.7354381680488586,0.6573928594589233,-0.164211094379425,0,0,0,-1,-1,66048.42023575,unknown,2,2025-04-18T12:17:40.647+03:00,2025-04-17T15:44:39.500+03:00,7589,1.149553,0,0,6253.948,4,10,2025-04-18T12:16:59.379+03:00,766660660.7359301,0,108.98,100.548,1,0.45,2025-04-18T12:17:36.920+03:00,112,1.866666666666667,2025-04-18T08:51:18.885+03:00,0.03057091307199995,1
2025-04-18T12:17:43.122+03:00,1744967856.981899,40.9536263982903,29.14098580579653,93.69963,-1,-1,-1,-1,30,25.94878961532435,-9999,66050.88990429167,-0.739593505859375,0.641357421875,-0.164337158203125,66050.87982829167,1.005509135993266,-1.351594740600376,-0.7173413040731341,-0.05508599802851677,-0.005158448591828346,-0.01083684898912907,-0.00235980749130249,-0.0159040093421936,-0.0003539323806762695,XArbitraryZVertical,0.04223458660096255,-0.6452020516928565,0.5444188538270793,0.5343582778731371,-0.7355247139930725,0.6573835015296936,-0.1638611108064651,0,0,0,-1,-1,66048.42023575,unknown,2,2025-04-18T12:17:40.647+03:00,2025-04-17T15:44:39.500+03:00,7589,1.149553,0,0,6253.948,4,10,2025-04-18T12:16:59.379+03:00,766660660.7359301,0,108.98,100.548,1,0.45,2025-04-18T12:17:36.920+03:00,112,1.866666666666667,2025-04-18T08:51:18.885+03:00,0.03057091307199995,1
2025-04-18T12:17:43.131+03:00,1744967856.981899,40.9536263982903,29.14098580579653,93.69963,-1,-1,-1,-1,30,25.94878961532435,-9999,66050.89997929167,-0.731109619140625,0.64202880859375,-0.170074462890625,66050.88990429167,1.00467182953882,-1.352178472657853,-0.7174007400671935,-0.06714745610952377,-0.002174642402678728,-0.008079146035015583,-0.005094826221466064,-0.01494169235229492,-0.0005171298980712891,XArbitraryZVertical,0.0421011345855369,-0.6453804068162631,0.5441941695204396,0.5343822827427082,-0.7355821132659912,0.6574283242225647,-0.1634232550859451,0,0,0,-1,-1,66048.42023575,unknown,2,2025-04-18T12:17:40.647+03:00,2025-04-17T15:44:39.500+03:00,7589,1.149553,0,0,6253.948,4,10,2025-04-18T12:16:59.379+03:00,766660660.7359301,0,108.98,100.548,1,0.45,2025-04-18T12:17:36.920+03:00,112,1.866666666666667,2025-04-18T08:51:18.885+03:00,0.03057091307199995,1
2025-04-18T12:17:43.142+03:00,1744967856.981899,40.9536263982903,29.14098580579653,93.69963,-1,-1,-1,-1,30,25.94878961532435,-9999,66050.91005429167,-0.7284698486328125,0.667266845703125,-0.179840087890625,66050.89997929167,1.003771083442453,-1.352770850544692,-0.7175299434996443,-0.06439068913459778,0.002613321645185351,-0.008623163215816021,0.003738582134246826,-0.01647335290908813,-0.005457356572151184,XArbitraryZVertical,0.04192335242270035,-0.6455678636597167,0.5439657024444275,0.5344025531412552,-0.7355959415435791,0.6575256586074829,-0.1629691272974014,0,0,0,-1,-1,66048.42023575,unknown,2,2025-04-18T12:17:40.647+03:00,2025-04-17T15:44:39.500+03:00,7589,1.149553,0,0,6253.948,4,10,2025-04-18T12:16:59.379+03:00,766660660.7359301,0,108.98,100.548,1,0.45,2025-04-18T12:17:36.920+03:00,112,1.866666666666667,2025-04-18T08:51:18.885+03:00,0.03057091307199995,1
2025-04-18T12:17:43.152+03:00,1744967856.981899,40.9536263982903,29.14098580579653,93.69963,-1,-1,-1,-1,30,25.94878961532435,-9999,66050.92012929167,-0.7266387939453125,0.68157958984375,-0.179443359375,66050.91005429167,1.003032132335354,-1.353232106202441,-0.7176191923316133,-0.04527425020933151,0.001006902661174536,-0.01149005629122257,0.006823360919952393,0.006057679653167725,-0.01578857004642487,XArbitraryZVertical,0.0417769502985223,-0.6457136449585437,0.5437756550900118,0.5344313097949083,-0.7356137633323669,0.6575928926467896,-0.1626171469688416,0,0,0,-1,-1,66048.42023575,unknown,2,2025-04-18T12:17:40.647+03:00,2025-04-17T15:44:39.500+03:00,7589,1.149553,0,0,6253.948,4,10,2025-04-18T12:16:59.379+03:00,766660660.7359301,0,108.98,100.548,1,0.45,2025-04-18T12:17:36.920+03:00,112,1.866666666666667,2025-04-18T08:51:18.885+03:00,0.03057091307199995,1
2025-04-18T12:17:43.162+03:00,1744967856.981899,40.9536263982903,29.14098580579653,93.69963,-1,-1,-1,-1,30,25.94878961532435,-9999,66050.93020429167,-0.729736328125,0.6750335693359375,-0.1749725341796875,66050.92012929167,1.002512197977993,-1.353535812719155,-0.7176093412771208,-0.0279974564909935,0.002088478766381741,-0.01529501471668482,0.009000003337860107,0.02364325523376465,-0.0173075944185257,XArbitraryZVertical,0.04169531807165289,-0.6458048765904721,0.5436284957327447,0.5344771400069284,-0.7356694340705872,0.6575855016708374,-0.1623951196670532,0,0,0,-1,-1,66048.42023575,unknown,2,2025-04-18T12:17:40.647+03:00,2025-04-17T15:44:39.500+03:00,7589,1.149553,0,0,6253.948,4,10,2025-04-18T12:16:59.379+03:00,766660660.7359301,0,108.98,100.548,1,0.45,2025-04-18T12:17:36.920+03:00,112,1.866666666666667,2025-04-18T08:51:18.885+03:00,0.03057091307199995,1
2025-04-18T12:17:43.172+03:00,1744967856.981899,40.9536263982903,29.14098580579653,93.69963,-1,-1,-1,-1,30,25.94878961532435,-9999,66050.94028029167,-0.735107421875,0.6655120849609375,-0.17333984375,66050.93020429167,1.002242972146635,-1.353634111946183,-0.7174827844847012,-0.01296684239059687,0.00311672524549067,-0.02050735242664814,0.00657951831817627,0.01859641075134277,-0.01322682201862335,XArbitraryZVertical,0.04168229457902699,-0.6458267708045772,0.5435302726972148,0.5345515917477155,-0.7357666492462158,0.6574901342391968,-0.1623407304286957,0,0,0,-1,-1,66048.42023575,unknown,2,2025-04-18T12:17:40.647+03:00,2025-04-17T15:44:39.500+03:00,7589,1.149553,0,0,6253.948,4,10,2025-04-18T12:16:59.379+03:00,766660660.7359301,0,108.98,100.548,1,0.45,2025-04-18T12:17:36.920+03:00,112,1.866666666666667,2025-04-18T08:51:18.885+03:00,0.03057091307199995,1
2025-04-18T12:17:43.182+03:00,1744967856.981899,40.9536263982903,29.14098580579653,93.69963,-1,-1,-1,-1,30,25.94878961532435,-9999,66050.95035529167,-0.7447052001953125,0.6567230224609375,-0.149200439453125,66050.94028029167,1.00210883997635,-1.35365167260982,-0.7172503784603034,-0.004348986316472292,0.005598924588412046,-0.02268189005553722,0.001604557037353516,0.00917363166809082,-0.01241342723369598,XArbitraryZVertical,0.04173047546209496,-0.6458159324651044,0.5434495834893689,0.5346428213980096,-0.7359185218811035,0.6573150157928467,-0.1623606979846954,0,0,0,-1,-1,66048.42023575,unknown,2,2025-04-18T12:17:40.647+03:00,2025-04-17T15:44:39.500+03:00,7589,1.149553,0,0,6253.948,4,10,2025-04-18T12:16:59.379+03:00,766660660.7359301,0,108.98,100.548,1,0.45,2025-04-18T12:17:36.920+03:00,112,1.866666666666667,2025-04-18T08:51:18.885+03:00,0.03057091307199995,1
2025-04-18T12:17:43.192+03:00,1744967856.981899,40.9536263982903,29.14098580579653,93.69963,-1,-1,-1,-1,30,25.94878961532435,-9999,66050.96043029167,-0.748748779296875,0.636810302734375,-0.1370086669921875,66050.95035529167,1.001997538385565,-1.353599456633735,-0.7170862600247061,-0.008979424834251404,0.02057867310941219,-0.007569517008960247,-0.00771331787109375,0.001164436340332031,0.008903801441192627,XArbitraryZVertical,0.04174155002468161,-0.6457913425454385,0.5433894896856959,0.5347327362566893,-0.7360153794288635,0.6571913361549377,-0.1624223738908768,0,0,0,-1,-1,66048.42023575,unknown,2,2025-04-18T12:17:40.647+03:00,2025-04-17T15:44:39.500+03:00,7589,1.149553,0,0,6253.948,4,10,2025-04-18T12:16:59.379+03:00,766660660.7359301,0,108.98,100.548,1,0.45,2025-04-18T12:17:36.920+03:00,112,1.866666666666667,2025-04-18T08:51:18.885+03:00,0.03057091307199995,1
2025-04-18T12:17:43.202+03:00,1744967856.981899,40.9536263982903,29.14098580579653,93.69963,-1,-1,-1,-1,30,25.94878961532435,-9999,66050.97050529167,-0.7445068359375,0.634674072265625,-0.1499176025390625,66050.96043029167,1.001819891032153,-1.353403472489646,-0.7170865171954044,-0.02075478993356228,0.03695638105273247,0.01064707059413195,-0.01183468103408813,-0.01890110969543457,0.02610726654529572,XArbitraryZVertical,0.04163086992207773,-0.6457426644798407,0.5433461315187741,0.5348441437011086,-0.7359833121299744,0.6571915149688721,-0.1625665575265884,0,0,0,-1,-1,66048.42023575,unknown,2,2025-04-18T12:17:40.647+03:00,2025-04-17T15:44:39.500+03:00,7589,1.149553,0,0,6253.948,4,10,2025-04-18T12:16:59.379+03:00,766660660.7359301,0,108.98,100.548,1,0.45,2025-04-18T12:17:36.920+03:00,112,1.866666666666667,2025-04-18T08:51:18.885+03:00,0.03057091307199995,1
2025-04-18T12:17:43.212+03:00,1744967856.981899,40.9536263982903,29.14098580579653,93.69963,-1,-1,-1,-1,30,25.94878961532435,-9999,66050.98058129167,-0.731536865234375,0.6484832763671875,-0.1614837646484375,66050.97050529167,1.001539139257787,-1.353185019741493,-0.7172384470299946,-0.02878795005381107,0.04435278102755547,0.01826504431664944,-0.009343087673187256,-0.02345585823059082,0.01495504379272461,XArbitraryZVertical,0.0414241607399399,-0.6457020454202705,0.5433046466540045,0.5349515052765813,-0.73585045337677,0.6573060154914856,-0.1627058088779449,0,0,0,-1,-1,66048.42023575,unknown,2,2025-04-18T12:17:40.647+03:00,2025-04-17T15:44:39.500+03:00,7589,1.149553,0,0,6253.948,4,10,2025-04-18T12:16:59.379+03:00,766660660.7359301,0,108.98,100.548,1,0.45,2025-04-18T12:17:36.920+03:00,112,1.866666666666667,2025-04-18T08:51:18.885+03:00,0.03057091307199995,1
2025-04-18T12:17:43.222+03:00,1744967856.981899,40.9536263982903,29.14098580579653,93.69963,-1,-1,-1,-1,30,25.94878961532435,-9999,66050.99065629167,-0.714691162109375,0.6601715087890625,-0.175689697265625,66050.98058129167,1.001204108764765,-1.352991259157584,-0.7174509692357596,-0.0357234850525856,0.03227227926254272,0.01846777461469173,0.002543449401855469,-0.01035606861114502,0.003119811415672302,XArbitraryZVertical,0.04118405587233057,-0.6456738809029186,0.5432596983431851,0.5350497744905568,-0.7356826066970825,0.6574661731719971,-0.1628182232379913,0,0,0,-1,-1,66048.42023575,unknown,2,2025-04-18T12:17:40.647+03:00,2025-04-17T15:44:39.500+03:00,7589,1.149553,0,0,6253.948,4,10,2025-04-18T12:16:59.379+03:00,766660660.7359301,0,108.98,100.548,1,0.45,2025-04-18T12:17:36.920+03:00,112,1.866666666666667,2025-04-18T08:51:18.885+03:00,0.03057091307199995,1
2025-04-18T12:17:43.232+03:00,1744967856.981899,40.9536263982903,29.14098580579653,93.69963,-1,-1,-1,-1,30,25.94878961532435,-9999,66051.00073129167,-0.703765869140625,0.6673583984375,-0.1815185546875,66050.99065629167,1.000836026513408,-1.352963912040437,-0.7177038995956668,-0.03859144449234009,0.009998932480812073,0.01108149904757738,0.01903915405273438,0.001370429992675781,-0.01119351387023926,XArbitraryZVertical,0.04096347783373505,-0.6456940478273863,0.5432102226314521,0.535092518696807,-0.7355156540870667,0.657656729221344,-0.1628023833036423,0,0,0,-1,-1,66048.42023575,unknown,2,2025-04-18T12:17:40.647+03:00,2025-04-17T15:44:39.500+03:00,7589,1.149553,0,0,6253.948,4,10,2025-04-18T12:16:59.379+03:00,766660660.7359301,0,108.98,100.548,1,0.45,2025-04-18T12:17:36.920+03:00,112,1.866666666666667,2025-04-18T08:51:18.885+03:00,0.03057091307199995,1
2025-04-18T12:17:43.242+03:00,1744967856.981899,40.9536263982903,29.14098580579653,93.69963,-1,-1,-1,-1,30,25.94878961532435,-9999,66051.01080629167,-0.706329345703125,0.6621856689453125,-0.1816558837890625,66051.00073129167,1.000483970028153,-1.353093203986428,-0.7179297431901128,-0.02957804314792156,-0.003143034875392914,0.004583219066262245,0.03095436096191406,0.009653687477111816,-0.01888906955718994,XArbitraryZVertical,0.04080069631752412,-0.6457535984920273,0.5431566397623923,0.5350874394265865,-0.7353916168212891,0.657826840877533,-0.1626751869916916,0,0,0,-1,-1,66048.42023575,unknown,2,2025-04-18T12:17:40.647+03:00,2025-04-17T15:44:39.500+03:00,7589,1.149553,0,0,6253.948,4,10,2025-04-18T12:16:59.379+03:00,766660660.7359301,0,108.98,100.548,1,0.45,2025-04-18T12:17:36.920+03:00,112,1.866666666666667,2025-04-18T08:51:18.885+03:00,0.03057091307199995,1
2025-04-18T12:17:43.252+03:00,1744967856.981899,40.9536263982903,29.14098580579653,93.69963,-1,-1,-1,-1,30,25.94878961532435,-9999,66051.02088179167,-0.716583251953125,0.662353515625,-0.1749267578125,66051.01080629167,1.000104982837118,-1.353433497843533,-0.7180404681301109,-0.03733556717634201,-0.02210394293069839,-0.007782370317727327,0.02964144945144653,0.00516045093536377,-0.01889567077159882,XArbitraryZVertical,0.04072945769805626,-0.645861062883805,0.5430695348066937,0.5350514924104631,-0.735375702381134,0.6579102277755737,-0.1624092012643814,0,0,0,-1,-1,66048.42023575,unknown,2,2025-04-18T12:17:40.647+03:00,2025-04-17T15:44:39.500+03:00,7589,1.149553,0,0,6253.948,4,10,2025-04-18T12:16:59.379+03:00,766660660.7359301,0,108.98,100.548,1,0.45,2025-04-18T12:17:36.920+03:00,112,1.866666666666667,2025-04-18T08:51:18.885+03:00,0.03057091307199995,1
2025-04-18T12:17:43.262+03:00,1744967856.981899,40.9536263982903,29.14098580579653,93.69963,-1,-1,-1,-1,30,25.94878961532435,-9999,66051.03095679167,-0.7414093017578125,0.6537017822265625,-0.154510498046875,66051.02088179167,0.999671835086459,-1.353959248827353,-0.7180031714483487,-0.02804326266050339,-0.03104923479259014,-0.01605414785444736,0.02059537172317505,0.004410326480865479,-0.01511137187480927,XArbitraryZVertical,0.04074623656863123,-0.6460076122523236,0.5429358115892541,0.5350089595956277,-0.7354848980903625,0.6578821539878845,-0.1620278209447861,0,0,0,-1,-1,66048.42023575,unknown,2,2025-04-18T12:17:40.647+03:00,2025-04-17T15:44:39.500+03:00,7589,1.149553,0,0,6253.948,4,10,2025-04-18T12:16:59.379+03:00,766660660.7359301,0,108.98,100.548,1,0.45,2025-04-18T12:17:36.920+03:00,112,1.866666666666667,2025-04-18T08:51:18.885+03:00,0.03057091307199995,1
2025-04-18T12:17:43.273+03:00,1744967863.226054,40.95360060295836,29.14095643076388,93.25933,-1,-1,-1,-1,30,25.81347138848038,-9999,66051.04103179167,-0.764892578125,0.6505126953125,-0.1394195556640625,66051.03095679167,0.999305641185033,-1.354534689605415,-0.7178738625096763,-0.01596343144774437,-0.02908595092594624,-0.0181463286280632,-0.002497971057891846,-0.002602815628051758,0.004655778408050537,XArbitraryZVertical,0.04083230117469089,-0.6461588772909344,0.5428012874114123,0.5349563850912258,-0.7356612682342529,0.6577847599983215,-0.1616228520870209,0,0,0,-1,-1,66048.42023575,unknown,2,2025-04-18T12:17:40.647+03:00,2025-04-17T15:44:39.500+03:00,7589,1.149553,0,0,6253.948,4,10,2025-04-18T12:16:59.379+03:00,766660660.7359301,0,108.98,100.548,1,0.45,2025-04-18T12:17:36.920+03:00,112,1.866666666666667,2025-04-18T08:51:18.885+03:00,0.03057091307199995,1
2025-04-18T12:17:43.283+03:00,1744967863.226054,40.95360060295836,29.14095643076388,93.25933,-1,-1,-1,-1,30,25.81347138848038,-9999,66051.05110679167,-0.7615509033203125,0.65411376953125,-0.1429290771484375,66051.04103179167,0.9990067028758433,-1.355064491865414,-0.7176367718012322,-0.006314798723906279,-0.02187917195260525,-0.02062413282692432,-0.02681159973144531,-0.007490158081054688,0.0212213397026062,XArbitraryZVertical,0.04096793427710008,-0.6462881790517971,0.5426649888122342,0.534928009394233,-0.735899031162262,0.6576061248779297,-0.1612664312124252,0,0,0,-1,-1,66048.42023575,unknown,2,2025-04-18T12:17:40.647+03:00,2025-04-17T15:44:39.500+03:00,7589,1.149553,0,0,6253.948,4,10,2025-04-18T12:16:59.379+03:00,766660660.7359301,0,108.98,100.548,1,0.45,2025-04-18T12:17:36.920+03:00,112,1.866666666666667,2025-04-18T08:51:18.885+03:00,0.03057091307199995,1
2025-04-18T12:17:43.293+03:00,1744967863.226054,40.95360060295836,29.14095643076388,93.25933,-1,-1,-1,-1,30,25.81347138848038,-9999,66051.06118279167,-0.745880126953125,0.652191162109375,-0.1480560302734375,66051.05110679167,0.9987977716765937,-1.355452186239863,-0.7173611830518773,-0.008416298776865005,-0.01824608817696571,-0.02091708034276962,-0.02793014049530029,-0.002933800220489502,0.0192047506570816,XArbitraryZVertical,0.04110837151082933,-0.6463746475729465,0.542548199106245,0.5349312019689852,-0.7361384630203247,0.657398521900177,-0.1610198318958282,0,0,0,-1,-1,66048.42023575,unknown,2,2025-04-18T12:17:40.647+03:00,2025-04-17T15:44:39.500+03:00,7589,1.149553,0,0,6253.948,4,10,2025-04-18T12:16:59.379+03:00,766660660.7359301,0,108.98,100.548,1,0.45,2025-04-18T12:17:36.920+03:00,112,1.866666666666667,2025-04-18T08:51:18.885+03:00,0.03057091307199995,1
2025-04-18T12:17:43.303+03:00,1744967863.226054,40.95360060295836,29.14095643076388,93.25933,-1,-1,-1,-1,30,25.81347138848038,-9999,66051.07125779167,-0.730194091796875,0.659698486328125,-0.15625,66051.06118279167,0.9985273207162662,-1.355793895115224,-0.7171793302635122,-0.02174275740981102,-0.0165384691208601,-0.0194611307233572,-0.01144671440124512,-0.005360186100006104,0.01343971490859985,XArbitraryZVertical,0.04118142637718213,-0.6464574157350067,0.5424338516775267,0.5349415959429478,-0.7363103032112122,0.6572614312171936,-0.1607937961816788,0,0,0,-1,-1,66048.42023575,unknown,2,2025-04-18T12:17:40.647+03:00,2025-04-17T15:44:39.500+03:00,7589,1.149553,0,0,6253.948,4,10,2025-04-18T12:16:59.379+03:00,766660660.7359301,0,108.98,100.548,1,0.45,2025-04-18T12:17:36.920+03:00,112,1.866666666666667,2025-04-18T08:51:18.885+03:00,0.03057091307199995,1
2025-04-18T12:17:43.313+03:00,1744967863.226054,40.95360060295836,29.14095643076388,93.25933,-1,-1,-1,-1,30,25.81347138848038,-9999,66051.08133279167,-0.720550537109375,0.65948486328125,-0.1671600341796875,66051.07125779167,0.9981223094431459,-1.356198905597372,-0.7170699942457514,-0.03750094771385193,-0.0210671741515398,-0.02180417999625206,0.004069507122039795,0.001664996147155762,0.00549691915512085,XArbitraryZVertical,0.04120107048236951,-0.6465655607315789,0.5422961281417586,0.5349490948536247,-0.7364456653594971,0.657179057598114,-0.1605108976364136,0,0,0,-1,-1,66048.42023575,unknown,2,2025-04-18T12:17:40.647+03:00,2025-04-17T15:44:39.500+03:00,7589,1.149553,0,0,6253.948,4,10,2025-04-18T12:16:59.379+03:00,766660660.7359301,0,108.98,100.548,1,0.45,2025-04-18T12:17:36.920+03:00,112,1.866666666666667,2025-04-18T08:51:18.885+03:00,0.03057091307199995,1
2025-04-18T12:17:43.323+03:00,1744967863.226054,40.95360060295836,29.14095643076388,93.25933,-1,-1,-1,-1,30,25.81347138848038,-9999,66051.09140779167,-0.72381591796875,0.6566925048828125,-0.1717681884765625,66051.08133279167,0.9976715822338895,-1.356631241348818,-0.7170443333527875,-0.03778304532170296,-0.01947653293609619,-0.01460116077214479,0.01561450958251953,0.003591656684875488,-0.005346536636352539,XArbitraryZVertical,0.04118217780065157,-0.646688495083744,0.5421617505474785,0.5349380187106594,-0.7365313172340393,0.657159686088562,-0.1601960361003876,0,0,0,-1,-1,66048.42023575,unknown,2,2025-04-18T12:17:40.647+03:00,2025-04-17T15:44:39.500+03:00,7589,1.149553,0,0,6253.948,4,10,2025-04-18T12:16:59.379+03:00,766660663.3114082,0,108.98,100.5478,1,0.45,2025-04-18T12:17:36.920+03:00,112,1.866666666666667,2025-04-18T08:51:18.885+03:00,0.03057091307199995,1
2025-04-18T12:17:43.334+03:00,1744967863.226054,40.95360060295836,29.14095643076388,93.25933,-1,-1,-1,-1,30,25.81347138848038,-9999,66051.10148279167,-0.724365234375,0.662445068359375,-0.1717987060546875,66051.09140779167,0.9972658034286558,-1.357012743524971,-0.7171001052519196,-0.03105110488831997,-0.02285528555512428,-0.007755771744996309,0.01382404565811157,-0.001043319702148438,-0.01170824468135834,XArbitraryZVertical,0.0411335873469315,-0.6468032165803032,0.54205612123978,0.5349100744175431,-0.7365565299987793,0.6572017669677734,-0.1599072515964508,0,0,0,-1,-1,66048.42023575,unknown,2,2025-04-18T12:17:40.647+03:00,2025-04-17T15:44:39.500+03:00,7589,1.149553,0,0,6253.948,4,10,2025-04-18T12:16:59.379+03:00,766660663.3114082,0,108.98,100.5478,1,0.45,2025-04-18T12:17:36.920+03:00,112,1.866666666666667,2025-04-18T08:51:18.885+03:00,0.03057091307199995,1
2025-04-18T12:17:43.344+03:00,1744967863.226054,40.95360060295836,29.14095643076388,93.25933,-1,-1,-1,-1,30,25.81347138848038,-9999,66051.11155879167,-0.7255096435546875,0.6613311767578125,-0.170166015625,66051.10148279167,0.9970294591360108,-1.357359379783323,-0.7171504552019896,-0.01532600447535515,-0.02709297463297844,-0.005482797045260668,0.01120728254318237,0.004244089126586914,-0.01261144876480103,XArbitraryZVertical,0.04113231020214166,-0.6469046843156184,0.5419954866409147,0.5348489357678736,-0.7365795969963074,0.6572396755218506,-0.1596449315547943,0,0,0,-1,-1,66048.42023575,unknown,2,2025-04-18T12:17:40.647+03:00,2025-04-17T15:44:39.500+03:00,7589,1.149553,0,0,6253.948,4,10,2025-04-18T12:16:59.379+03:00,766660663.3114082,0,108.98,100.5478,1,0.45,2025-04-18T12:17:36.920+03:00,112,1.866666666666667,2025-04-18T08:51:18.885+03:00,0.03057091307199995,1
2025-04-18T12:17:43.354+03:00,1744967863.226054,40.95360060295836,29.14095643076388,93.25933,-1,-1,-1,-1,30,25.81347138848038,-9999,66051.12163379167,-0.7387237548828125,0.655426025390625,-0.1673431396484375,66051.11155879167,0.9968459303840047,-1.35775921495051,-0.7170933473326487,-0.006094688549637794,-0.02764185145497322,-0.009220276959240437,0.01205539703369141,0.004729568958282471,-0.01158581674098969,XArbitraryZVertical,0.04120258506587498,-0.6470109590245777,0.5419271674480276,0.5347841782198327,-0.7366800308227539,0.6571966409683228,-0.159358337521553,0,0,0,-1,-1,66048.42023575,unknown,2,2025-04-18T12:17:40.647+03:00,2025-04-17T15:44:39.500+03:00,7589,1.149553,0,0,6253.948,4,10,2025-04-18T12:16:59.379+03:00,766660663.3114082,0,108.98,100.5478,1,0.45,2025-04-18T12:17:36.920+03:00,112,1.866666666666667,2025-04-18T08:51:18.885+03:00,0.03057091307199995,1
2025-04-18T12:17:43.363+03:00,1744967863.226054,40.95360060295836,29.14095643076388,93.25933,-1,-1,-1,-1,30,25.81347138848038,-9999,66051.13170879167,-0.7489471435546875,0.65118408203125,-0.159088134765625,66051.12163379167,0.9965970545303952,-1.35827853647516,-0.7169220368588431,-0.01422511972486973,-0.02623923309147358,-0.0138795105740428,0.0003309249877929688,-0.001137971878051758,-0.009762629866600037,XArbitraryZVertical,0.0413266357765792,-0.6471416964926892,0.5418168508462509,0.5347281409842388,-0.736872673034668,0.6570675373077393,-0.1589994728565216,0,0,0,-1,-1,66048.42023575,unknown,2,2025-04-18T12:17:40.647+03:00,2025-04-17T15:44:39.500+03:00,7589,1.149553,0,0,6253.948,4,10,2025-04-18T12:16:59.379+03:00,766660663.3114082,0,108.98,100.5478,1,0.45,2025-04-18T12:17:36.920+03:00,112,1.866666666666667,2025-04-18T08:51:18.885+03:00,0.03057091307199995,1
2025-04-18T12:17:43.374+03:00,1744967863.226054,40.95360060295836,29.14095643076388,93.25933,-1,-1,-1,-1,30,25.81347138848038,-9999,66051.14178379167,-0.7537841796875,0.6508941650390625,-0.143218994140625,66051.13170879167,0.9962830400424401,-1.35881664603769,-0.7167445449107236,-0.01474390365183353,-0.02826243452727795,-0.01580977067351341,-0.01172232627868652,-0.00620734691619873,-0.002429008483886719,XArbitraryZVertical,0.04143687035164594,-0.647278330942735,0.5416874504144554,0.5346854719311003,-0.7370722889900208,0.6569337248802185,-0.1586274951696396,0,0,0,-1,-1,66048.42023575,unknown,2,2025-04-18T12:17:40.647+03:00,2025-04-17T15:44:39.500+03:00,7589,1.149553,0,0,6253.948,4,10,2025-04-18T12:16:59.379+03:00,766660663.3114082,0,108.98,100.5478,1,0.45,2025-04-18T12:17:36.920+03:00,112,1.866666666666667,2025-04-18T08:51:18.885+03:00,0.03057091307199995,1
2025-04-18T12:17:43.384+03:00,1744967863.226054,40.95360060295836,29.14095643076388,93.25933,-1,-1,-1,-1,30,25.81347138848038,-9999,66051.15185979167,-0.7636260986328125,0.657958984375,-0.1409759521484375,66051.14178379167,0.9961056554447631,-1.359187310159198,-0.716637063374822,0.0003277907380834222,-0.0140687869861722,-0.003428700845688581,-0.01630949974060059,-0.006004273891448975,0.01315128803253174,XArbitraryZVertical,0.041519902427471,-0.6473728034032349,0.5416115685763839,0.53464150080864,-0.7372000813484192,0.656852662563324,-0.1583691090345383,0,0,0,-1,-1,66048.42023575,unknown,2,2025-04-18T12:17:40.647+03:00,2025-04-17T15:44:39.500+03:00,7589,1.149553,0,0,6253.948,4,10,2025-04-18T12:16:59.379+03:00,766660663.3114082,0,108.98,100.5478,1,0.45,2025-04-18T12:17:36.920+03:00,112,1.866666666666667,2025-04-18T08:51:18.885+03:00,0.03057091307199995,1
2025-04-18T12:17:43.394+03:00,1744967863.226054,40.95360060295836,29.14095643076388,93.25933,-1,-1,-1,-1,30,25.81347138848038,-9999,66051.16193479167,-0.7614593505859375,0.6694488525390625,-0.1526031494140625,66051.15185979167,0.9961763846955545,-1.359170026616577,-0.7166456389786805,0.01460419781506062,0.006549673154950142,0.003736267797648907,-0.02513730525970459,-0.0001819133758544922,0.01850338280200958,XArbitraryZVertical,0.04153493171130072,-0.647367378561083,0.541632497957093,0.5346256705284699,-0.7371917963027954,0.6568591594696045,-0.1583806574344635,0,0,0,-1,-1,66048.42023575,unknown,2,2025-04-18T12:17:40.647+03:00,2025-04-17T15:44:39.500+03:00,7589,1.149553,0,0,6253.948,4,10,2025-04-18T12:16:59.379+03:00,766660663.3114082,0,108.98,100.5478,1,0.45,2025-04-18T12:17:36.920+03:00,112,1.866666666666667,2025-04-18T08:51:18.885+03:00,0.03057091307199995,1
2025-04-18T12:17:43.404+03:00,1744967863.226054,40.95360060295836,29.14095643076388,93.25933,-1,-1,-1,-1,30,25.81347138848038,-9999,66051.17200979167,-0.7423553466796875,0.6788177490234375,-0.161712646484375,66051.16193479167,0.9965131744905232,-1.358813251629685,-0.7167099741136495,0.02864784561097622,0.01429308019578457,0.007628744002431631,-0.02654737234115601,0.01031345129013062,0.006931960582733154,XArbitraryZVertical,0.04152329657360738,-0.6472699763727511,0.5417423539333888,0.5346332959726388,-0.7370940446853638,0.6569076180458069,-0.1586347818374634,0,0,0,-1,-1,66048.42023575,unknown,2,2025-04-18T12:17:40.647+03:00,2025-04-17T15:44:39.500+03:00,7589,1.149553,0,0,6253.948,4,10,2025-04-18T12:16:59.379+03:00,766660663.3114082,0,108.98,100.5478,1,0.45,2025-04-18T12:17:36.920+03:00,112,1.866666666666667,2025-04-18T08:51:18.885+03:00,0.03057091307199995,1
2025-04-18T12:17:43.414+03:00,1744967863.226054,40.95360060295836,29.14095643076388,93.25933,-1,-1,-1,-1,30,25.81347138848038,-9999,66051.18208479167,-0.7214202880859375,0.6632232666015625,-0.1628875732421875,66051.17200979167,0.9969094343448063,-1.358384367484643,-0.7167641231718607,0.01805725321173668,0.01157612353563309,0.007515825796872377,-0.008461833000183105,0.02255594730377197,-0.002052068710327148,XArbitraryZVertical,0.04151517722086241,-0.6471512912021279,0.5418676520216201,0.5346505904339217,-0.7369911074638367,0.656948447227478,-0.1589433997869492,0,0,0,-1,-1,66048.42023575,unknown,2,2025-04-18T12:17:40.647+03:00,2025-04-17T15:44:39.500+03:00,7589,1.149553,0,0,6253.948,4,10,2025-04-18T12:16:59.379+03:00,766660663.3114082,0,108.98,100.5478,1,0.45,2025-04-18T12:17:36.920+03:00,112,1.866666666666667,2025-04-18T08:51:18.885+03:00,0.03057091307199995,1
2025-04-18T12:17:43.424+03:00,1744967863.226054,40.95360060295836,29.14095643076388,93.25933,-1,-1,-1,-1,30,25.81347138848038,-9999,66051.19216079167,-0.7171478271484375,0.6507110595703125,-0.16217041015625,66051.18208479167,0.9970966513528505,-1.358107918835002,-0.7168314503105456,0.00429603410884738,0.007961547933518887,0.007941599003970623,0.01298105716705322,0.00906217098236084,-0.004283785820007324,XArbitraryZVertical,0.04147577334040625,-0.6470787202944919,0.5419364417765021,0.5346717221067439,-0.7369038462638855,0.6569992303848267,-0.1591377854347229,0,0,0,-1,-1,66048.42023575,unknown,2,2025-04-18T12:17:40.647+03:00,2025-04-17T15:44:39.500+03:00,7589,1.149553,0,0,6253.948,4,10,2025-04-18T12:16:59.379+03:00,766660663.3114082,0,108.98,100.5478,1,0.45,2025-04-18T12:17:36.920+03:00,112,1.866666666666667,2025-04-18T08:51:18.885+03:00,0.03057091307199995,1
2025-04-18T12:17:43.434+03:00,1744967863.226054,40.95360060295836,29.14095643076388,93.25933,-1,-1,-1,-1,30,25.81347138848038,-9999,66051.20223579167,-0.7313232421875,0.6492156982421875,-0.17034912109375,66051.19216079167,0.9971529533417665,-1.357948042457733,-0.7169426656561794,-0.004198384471237659,0.007436638697981834,0.007284330669790506,0.02017790079116821,-0.006677210330963135,-0.001678988337516785,XArbitraryZVertical,0.04140922237283633,-0.6470434300916383,0.5419762721520442,0.5346792023311394,-0.7368069887161255,0.6570830941200256,-0.1592401564121246,0,0,0,-1,-1,66048.42023575,unknown,2,2025-04-18T12:17:40.647+03:00,2025-04-17T15:44:39.500+03:00,7589,1.149553,0,0,6253.948,4,10,2025-04-18T12:16:59.379+03:00,766660663.3114082,0,108.98,100.5478,1,0.45,2025-04-18T12:17:36.920+03:00,112,1.866666666666667,2025-04-18T08:51:18.885+03:00,0.03057091307199995,1
2025-04-18T12:17:43.444+03:00,1744967863.226054,40.95360060295836,29.14095643076388,93.25933,-1,-1,-1,-1,30,25.81347138848038,-9999,66051.21231079167,-0.7443084716796875,0.643829345703125,-0.1783294677734375,66051.20223579167,0.9971267508683943,-1.357884942448118,-0.7170088072816462,-0.004830485675483942,0.003035365603864193,0.00337008317001164,0.007491052150726318,-0.008069813251495361,-0.009026944637298584,XArbitraryZVertical,0.04135900067727599,-0.6470322285837828,0.5419833378003088,0.5346894681947111,-0.7367544174194336,0.6571329236030579,-0.1592774540185928,0,0,0,-1,-1,66048.42023575,unknown,2,2025-04-18T12:17:40.647+03:00,2025-04-17T15:44:39.500+03:00,7589,1.149553,0,0,6253.948,4,10,2025-04-18T12:16:59.379+03:00,766660663.3114082,0,108.98,100.5478,1,0.45,2025-04-18T12:17:36.920+03:00,112,1.866666666666667,2025-04-18T08:51:18.885+03:00,0.03057091307199995,1
2025-04-18T12:17:43.454+03:00,1744967863.226054,40.95360060295836,29.14095643076388,93.25933,-1,-1,-1,-1,30,25.81347138848038,-9999,66051.22238579167,-0.746978759765625,0.652435302734375,-0.1768951416015625,66051.21231079167,0.9971496316537536,-1.357887082502932,-0.7169564323263755,0.01336795836687088,-0.00417301245033741,-0.002978360280394554,-0.006558716297149658,-0.0124858021736145,-0.01840533316135406,XArbitraryZVertical,0.04138645055286613,-0.6470282596225359,0.5419792807608874,0.5346963936397534,-0.7367885708808899,0.6570934653282166,-0.1592831909656525,0,0,0,-1,-1,66048.42023575,unknown,2,2025-04-18T12:17:40.647+03:00,2025-04-17T15:44:39.500+03:00,7589,1.149553,0,0,6253.948,4,10,2025-04-18T12:16:59.379+03:00,766660663.3114082,0,108.98,100.5478,1,0.45,2025-04-18T12:17:36.920+03:00,112,1.866666666666667,2025-04-18T08:51:18.885+03:00,0.03057091307199995,1
2025-04-18T12:17:43.464+03:00,1744967863.226054,40.95360060295836,29.14095643076388,93.25933,-1,-1,-1,-1,30,25.81347138848038,-9999,66051.23246079167,-0.7425384521484375,0.654266357421875,-0.171539306640625,66051.22238579167,0.9972735637640857,-1.357908215156866,-0.7167994426843366,0.01397229637950659,-0.007618810050189495,-0.01148512959480286,-0.01042193174362183,-0.006721794605255127,-0.01815503835678101,XArbitraryZVertical,0.04149082801387956,-0.6470191821181739,0.5419817057352537,0.5346967092390292,-0.7368925809860229,0.6569750905036926,-0.1592893749475479,0,0,0,-1,-1,66048.42023575,unknown,2,2025-04-18T12:17:40.647+03:00,2025-04-17T15:44:39.500+03:00,7589,1.149553,0,0,6253.948,4,10,2025-04-18T12:16:59.379+03:00,766660663.3114082,0,108.98,100.5478,1,0.45,2025-04-18T12:17:36.920+03:00,112,1.866666666666667,2025-04-18T08:51:18.885+03:00,0.03057091307199995,1
2025-04-18T12:17:43.483+03:00,1744967863.226054,40.95360060295836,29.14095643076388,93.25933,-1,-1,-1,-1,30,25.81347138848038,-9999,66051.24253679167,-0.7313995361328125,0.64324951171875,-0.1638031005859375,66051.23246079167,0.9971968628297249,-1.358089181557217,-0.7166142810146942,-0.01303961407393217,-0.005378558300435543,-0.0140854399651289,-0.006505250930786133,-0.001684188842773438,-0.01308993995189667,XArbitraryZVertical,0.04158406193116727,-0.6470548019081023,0.5419217076511398,0.5347071655440297,-0.7370402812957764,0.6568354964256287,-0.1591816991567612,0,0,0,-1,-1,66048.42023575,unknown,2,2025-04-18T12:17:40.647+03:00,2025-04-17T15:44:39.500+03:00,7589,1.149553,0,0,6253.948,4,10,2025-04-18T12:16:59.379+03:00,766660663.3114082,0,108.98,100.5478,1,0.45,2025-04-18T12:17:36.920+03:00,112,1.866666666666667,2025-04-18T08:51:18.885+03:00,0.03057091307199995,1
2025-04-18T12:17:43.486+03:00,1744967863.226054,40.95360060295836,29.14095643076388,93.25933,-1,-1,-1,-1,30,25.81347138848038,-9999,66051.25261179167,-0.721710205078125,0.648040771484375,-0.157440185546875,66051.24253679167,0.9968876758423987,-1.358391263763801,-0.7164942684962381,-0.0199383981525898,-0.008824555203318596,-0.01085109729319811,0.004377245903015137,-0.01283937692642212,-0.006277009844779968,XArbitraryZVertical,0.04161061552098302,-0.6471327012465063,0.5418095982658115,0.5347243827243811,-0.7371653318405151,0.6567450165748596,-0.1589756458997726,0,0,0,-1,-1,66048.42023575,unknown,2,2025-04-18T12:17:40.647+03:00,2025-04-17T15:44:39.500+03:00,7589,1.149553,0,0,6253.948,4,10,2025-04-18T12:16:59.379+03:00,766660663.3114082,0,108.98,100.5478,1,0.45,2025-04-18T12:17:36.920+03:00,112,1.866666666666667,2025-04-18T08:51:18.885+03:00,0.03057091307199995,1
2025-04-18T12:17:43.494+03:00,1744967863.226054,40.95360060295836,29.14095643076388,93.25933,-1,-1,-1,-1,30,25.81347138848038,-9999,66051.26268679167,-0.718017578125,0.6513214111328125,-0.1511688232421875,66051.25261179167,0.9966889168805131,-1.358611853296477,-0.7165068674897347,-0.008377350866794586,-0.00897076353430748,0.002158977091312408,0.01479536294937134,-0.009491980075836182,0.0006539374589920044,XArbitraryZVertical,0.0416013924414443,-0.6471967932308617,0.5417543178480767,0.534703461407672,-0.7371922135353088,0.6567544937133789,-0.1588112711906433,0,0,0,-1,-1,66048.42023575,unknown,2,2025-04-18T12:17:40.647+03:00,2025-04-17T15:44:39.500+03:00,7589,1.149553,0,0,6253.948,4,10,2025-04-18T12:16:59.379+03:00,766660663.3114082,0,108.98,100.5478,1,0.45,2025-04-18T12:17:36.920+03:00,112,1.866666666666667,2025-04-18T08:51:18.885+03:00,0.03057091307199995,1
2025-04-18T12:17:43.505+03:00,1744967863.226054,40.95360060295836,29.14095643076388,93.25933,-1,-1,-1,-1,30,25.81347138848038,-9999,66051.27276179167,-0.7189178466796875,0.6449737548828125,-0.1524810791015625,66051.26268679167,0.9966431868027487,-1.358672405872114,-0.7166913272667129,-0.01069782860577106,-0.0006436579860746861,0.01950957253575325,0.01866918802261353,-0.005343258380889893,0.006870508193969727,XArbitraryZVertical,0.04153419900264076,-0.6472281898886406,0.5417764447445343,0.5346484129761334,-0.7370835542678833,0.6568936109542847,-0.1587411612272263,0,0,0,-1,-1,66048.42023575,unknown,2,2025-04-18T12:17:40.647+03:00,2025-04-17T15:44:39.500+03:00,7589,1.149553,0,0,6253.948,4,10,2025-04-18T12:16:59.379+03:00,766660663.3114082,0,108.98,100.5478,1,0.45,2025-04-18T12:17:36.920+03:00,112,1.866666666666667,2025-04-18T08:51:18.885+03:00,0.03057091307199995,1
2025-04-18T12:17:43.515+03:00,1744967863.226054,40.95360060295836,29.14095643076388,93.25933,-1,-1,-1,-1,30,25.81347138848038,-9999,66051.28283779167,-0.7142791748046875,0.638916015625,-0.1469268798828125,66051.27276179167,0.9964563626009991,-1.358800141649901,-0.7169701717551792,-0.03513419628143311,-0.004706842824816704,0.01899984292685986,0.01791524887084961,-0.01104670763015747,0.006692007184028625,XArbitraryZVertical,0.04140445937128202,-0.647287764329052,0.5417777438876508,0.5345849599767185,-0.7369246482849121,0.6571037769317627,-0.1586084365844727,0,0,0,-1,-1,66048.42023575,unknown,2,2025-04-18T12:17:40.647+03:00,2025-04-17T15:44:39.500+03:00,7589,1.149553,0,0,6253.948,4,10,2025-04-18T12:16:59.379+03:00,766660663.3114082,0,108.98,100.5478,1,0.45,2025-04-18T12:17:36.920+03:00,112,1.866666666666667,2025-04-18T08:51:18.885+03:00,0.03057091307199995,1
2025-04-18T12:17:43.525+03:00,1744967863.226054,40.95360060295836,29.14095643076388,93.25933,-1,-1,-1,-1,30,25.81347138848038,-9999,66051.29291279167,-0.7180633544921875,0.6415252685546875,-0.1514892578125,66051.28283779167,0.9959523987105082,-1.359206364067601,-0.7172108812119613,-0.05810429155826569,-0.01460028719156981,0.0147531321272254,0.02160912752151489,-0.01821660995483398,0.01006728410720825,XArbitraryZVertical,0.04126165911479338,-0.6474253206870435,0.5416811645237805,0.5345273285143575,-0.7368344068527222,0.657285213470459,-0.1582758575677872,0,0,0,-1,-1,66048.42023575,unknown,2,2025-04-18T12:17:40.647+03:00,2025-04-17T15:44:39.500+03:00,7589,1.149553,0,0,6253.948,4,10,2025-04-18T12:16:59.379+03:00,766660663.3114082,0,108.98,100.5478,1,0.45,2025-04-18T12:17:36.920+03:00,112,1.866666666666667,2025-04-18T08:51:18.885+03:00,0.03057091307199995,1
2025-04-18T12:17:43.535+03:00,1744967863.226054,40.95360060295836,29.14095643076388,93.25933,-1,-1,-1,-1,30,25.81347138848038,-9999,66051.30298779167,-0.7350006103515625,0.646484375,-0.159576416015625,66051.29291279167,0.9951723753442496,-1.359820145758203,-0.7173949465920296,-0.06788555532693863,-0.01369188260287046,0.005558302626013756,0.01986360549926758,-0.01620382070541382,0.007804393768310547,XArbitraryZVertical,0.04110671769755536,-0.6476195736685503,0.5414956501719395,0.5344919754949887,-0.7368131279945374,0.6574239134788513,-0.157798245549202,0,0,0,-1,-1,66048.42023575,unknown,2,2025-04-18T12:17:40.647+03:00,2025-04-17T15:44:39.500+03:00,7589,1.149553,0,0,6253.948,4,10,2025-04-18T12:16:59.379+03:00,766660663.3114082,0,108.98,100.5478,1,0.45,2025-04-18T12:17:36.920+03:00,112,1.866666666666667,2025-04-18T08:51:18.885+03:00,0.03057091307199995,1
2025-04-18T12:17:43.545+03:00,1744967863.226054,40.95360060295836,29.14095643076388,93.25933,-1,-1,-1,-1,30,25.81347138848038,-9999,66051.31306279167,-0.7436065673828125,0.6566162109375,-0.1583099365234375,66051.30298779167,0.9944307645638343,-1.360410515063901,-0.7174880491021439,-0.05318590253591537,-0.01627481542527676,-0.003833701135590672,0.003936171531677246,-0.01107066869735718,-0.002058103680610657,XArbitraryZVertical,0.04099162833234313,-0.6477996985305027,0.5413033502239063,0.5344774213949692,-0.7368464469909668,0.657494068145752,-0.157350480556488,0,0,0,-1,-1,66048.42023575,unknown,2,2025-04-18T12:17:40.647+03:00,2025-04-17T15:44:39.500+03:00,7589,1.149553,0,0,6253.948,4,10,2025-04-18T12:16:59.379+03:00,766660663.3114082,0,108.98,100.5478,1,0.45,2025-04-18T12:17:36.920+03:00,112,1.866666666666667,2025-04-18T08:51:18.885+03:00,0.03057091307199995,1
2025-04-18T12:17:43.555+03:00,1744967863.226054,40.95360060295836,29.14095643076388,93.25933,-1,-1,-1,-1,30,25.81347138848038,-9999,66051.32313879167,-0.7503662109375,0.662811279296875,-0.1612548828125,66051.31306279167,0.9939042423994311,-1.36088644494287,-0.7174310278923212,-0.02649037353694439,-0.01222707703709602,-0.015163853764534,-0.006297886371612549,-0.002864301204681396,-0.00156170129776001,XArbitraryZVertical,0.04097114191107647,-0.647933319590252,0.5411418573705707,0.5344804621339478,-0.7369577884674072,0.6574511528015137,-0.157007560133934,0,0,0,-1,-1,66048.42023575,unknown,2,2025-04-18T12:17:40.647+03:00,2025-04-17T15:44:39.500+03:00,7589,1.149553,0,0,6253.948,4,10,2025-04-18T12:16:59.379+03:00,766660663.3114082,0,108.98,100.5478,1,0.45,2025-04-18T12:17:36.920+03:00,112,1.866666666666667,2025-04-18T08:51:18.885+03:00,0.03057091307199995,1
2025-04-18T12:17:43.565+03:00,1744967863.226054,40.95360060295836,29.14095643076388,93.25933,-1,-1,-1,-1,30,25.81347138848038,-9999,66051.33321379167,-0.755645751953125,0.6652374267578125,-0.1744842529296875,66051.32313879167,0.9937635782377519,-1.360925237404829,-0.7172608175809203,0.003387696342542768,0.01721716485917568,-0.02013407833874226,-0.01214855909347534,0.006114065647125244,-0.00336754322052002,XArbitraryZVertical,0.04099947903365684,-0.6479335637583575,0.5410704671543595,0.5345502588984299,-0.7370733022689819,0.657322883605957,-0.1570022851228714,0,0,0,-1,-1,66048.42023575,unknown,2,2025-04-18T12:17:40.647+03:00,2025-04-17T15:44:39.500+03:00,7589,1.149553,0,0,6253.948,4,10,2025-04-18T12:16:59.379+03:00,766660663.3114082,0,108.98,100.5478,1,0.45,2025-04-18T12:17:36.920+03:00,112,1.866666666666667,2025-04-18T08:51:18.885+03:00,0.03057091307199995,1
2025-04-18T12:17:43.575+03:00,1744967863.226054,40.95360060295836,29.14095643076388,93.25933,-1,-1,-1,-1,30,25.81347138848038,-9999,66051.34328879167,-0.7472381591796875,0.671905517578125,-0.17718505859375,66051.33321379167,0.9938477438466576,-1.360600949751563,-0.7170533594291046,0.01156892720609903,0.03451120108366013,-0.02398980222642422,-0.01900887489318848,0.007033288478851318,-0.01509349048137665,XArbitraryZVertical,0.04101632677302655,-0.6478292956723967,0.5410594005031467,0.5346864631812135,-0.7371556758880615,0.6571665406227112,-0.1572697311639786,0,0,0,-1,-1,66048.42023575,unknown,2,2025-04-18T12:17:40.647+03:00,2025-04-17T15:44:39.500+03:00,7589,1.149553,0,0,6253.948,4,10,2025-04-18T12:16:59.379+03:00,766660663.3114082,0,108.98,100.5478,1,0.45,2025-04-18T12:17:36.920+03:00,112,1.866666666666667,2025-04-18T08:51:18.885+03:00,0.03057091307199995,1
2025-04-18T12:17:43.585+03:00,1744967863.226054,40.95360060295836,29.14095643076388,93.25933,-1,-1,-1,-1,30,25.81347138848038,-9999,66051.35336379167,-0.7351531982421875,0.6500396728515625,-0.1788177490234375,66051.34328879167,0.9937283374738511,-1.360151098546982,-0.7167892505142236,-0.01358802430331707,0.07081814110279083,-0.03544243052601814,-0.01164674758911133,0.0157926082611084,-0.01998984813690186,XArbitraryZVertical,0.04095431792630898,-0.6476912254694409,0.5409854666831229,0.5349333657439557,-0.7372546792030334,0.6569674015045166,-0.1576376408338547,0,0,0,-1,-1,66048.42023575,unknown,2,2025-04-18T12:17:40.647+03:00,2025-04-17T15:44:39.500+03:00,7589,1.149553,0,0,6253.948,4,10,2025-04-18T12:16:59.379+03:00,766660663.3114082,0,108.98,100.5478,1,0.45,2025-04-18T12:17:36.920+03:00,112,1.866666666666667,2025-04-18T08:51:18.885+03:00,0.03057091307199995,1
2025-04-18T12:17:43.595+03:00,1744967863.226054,40.95360060295836,29.14095643076388,93.25933,-1,-1,-1,-1,30,25.81347138848038,-9999,66051.36343879167,-0.7230072021484375,0.64154052734375,-0.1883544921875,66051.35336379167,0.9930869654092561,-1.35977652295223,-0.7165324018743761,-0.07297172397375107,0.0853254422545433,-0.04097994044423103,0.001413643360137939,-0.003865480422973633,-0.01943425834178925,XArbitraryZVertical,0.04074112280051648,-0.6475844530198946,0.5407717566992915,0.53529467009312,-0.7373602986335754,0.6567737460136414,-0.1579490751028061,0,0,0,-1,-1,66048.42023575,unknown,2,2025-04-18T12:17:40.647+03:00,2025-04-17T15:44:39.500+03:00,7589,1.149553,0,0,6253.948,4,10,2025-04-18T12:16:59.379+03:00,766660663.3114082,0,108.98,100.5478,1,0.45,2025-04-18T12:17:36.920+03:00,112,1.866666666666667,2025-04-18T08:51:18.885+03:00,0.03057091307199995,1
2025-04-18T12:17:43.605+03:00,1744967863.226054,40.95360060295836,29.14095643076388,93.25933,-1,-1,-1,-1,30,25.81347138848038,-9999,66051.37351479167,-0.7140655517578125,0.638580322265625,-0.1873931884765625,66051.36343879167,0.9917853450100098,-1.359848756320366,-0.7163086758850888,-0.1077888906002045,0.06257958710193634,-0.0471196249127388,0.01267725229263306,-0.01475930213928223,-0.03001582622528076,XArbitraryZVertical,0.04042250194022547,-0.6476130900572544,0.5403783594133287,0.5356814754868159,-0.7375155687332153,0.6566050052642822,-0.157926619052887,0,0,0,-1,-1,66048.42023575,unknown,2,2025-04-18T12:17:40.647+03:00,2025-04-17T15:44:39.500+03:00,7589,1.149553,0,0,6253.948,4,10,2025-04-18T12:16:59.379+03:00,766660663.3114082,0,108.98,100.5478,1,0.45,2025-04-18T12:17:36.920+03:00,112,1.866666666666667,2025-04-18T08:51:18.885+03:00,0.03057091307199995,1
2025-04-18T12:17:43.615+03:00,1744967863.226054,40.95360060295836,29.14095643076388,93.25933,-1,-1,-1,-1,30,25.81347138848038,-9999,66051.38358979167,-0.73236083984375,0.6260986328125,-0.1796112060546875,66051.37351479167,0.990026771403857,-1.36050855241174,-0.7160887643623304,-0.1347344815731049,0.0382542721927166,-0.04828023165464401,0.02398508787155151,-0.01651608943939209,-0.03059439361095428,XArbitraryZVertical,0.04011315446024528,-0.6478085294486,0.5398512040603769,0.535999764496513,-0.7377607226371765,0.6564391255378723,-0.1574700921773911,0,0,0,-1,-1,66048.42023575,unknown,2,2025-04-18T12:17:40.647+03:00,2025-04-17T15:44:39.500+03:00,7589,1.149553,0,0,6253.948,4,10,2025-04-18T12:16:59.379+03:00,766660663.3114082,0,108.98,100.5478,1,0.45,2025-04-18T12:17:36.920+03:00,112,1.866666666666667,2025-04-18T08:51:18.885+03:00,0.03057091307199995,1
2025-04-18T12:17:43.625+03:00,1744967863.226054,40.95360060295836,29.14095643076388,93.25933,-1,-1,-1,-1,30,25.81347138848038,-9999,66051.39366479167,-0.77215576171875,0.622833251953125,-0.1606597900390625,66051.38358979167,0.9879562164557802,-1.361523980183342,-0.716050950532919,-0.16598841547966,0.03416752070188522,-0.02124667912721634,0.01055806875228882,-0.0281299352645874,-0.02402955293655396,XArbitraryZVertical,0.03973034224636142,-0.6481191876552554,0.5392685279933324,0.5362392826412918,-0.7379446029663086,0.6564106345176697,-0.1567260324954987,0,0,0,-1,-1,66048.42023575,unknown,2,2025-04-18T12:17:40.647+03:00,2025-04-17T15:44:39.500+03:00,7589,1.149553,0,0,6253.948,4,10,2025-04-18T12:16:59.379+03:00,766660663.3114082,0,108.98,100.5478,1,0.45,2025-04-18T12:17:36.920+03:00,112,1.866666666666667,2025-04-18T08:51:18.885+03:00,0.03057091307199995,1
2025-04-18T12:17:43.635+03:00,1744967863.226054,40.95360060295836,29.14095643076388,93.25933,-1,-1,-1,-1,30,25.81347138848038,-9999,66051.40373979167,-0.791229248046875,0.6279449462890625,-0.143463134765625,66051.39366479167,0.9858765278084366,-1.362377193278451,-0.7163891648571595,-0.1503330320119858,0.06815211474895477,0.02310294099152088,-0.02968686819076538,-0.03348147869110107,-0.008210420608520508,XArbitraryZVertical,0.03916012917048443,-0.648414430974365,0.5387599848910594,0.5364354791936803,-0.7378608584403992,0.6566657423973083,-0.1560504138469696,0,0,0,-1,-1,66048.42023575,unknown,2,2025-04-18T12:17:40.647+03:00,2025-04-17T15:44:39.500+03:00,7589,1.149553,0,0,6253.948,4,10,2025-04-18T12:16:59.379+03:00,766660663.3114082,0,108.98,100.5478,1,0.45,2025-04-18T12:17:36.920+03:00,112,1.866666666666667,2025-04-18T08:51:18.885+03:00,0.03057091307199995,1
2025-04-18T12:17:43.646+03:00,1744967863.226054,40.95360060295836,29.14095643076388,93.25933,-1,-1,-1,-1,30,25.81347138848038,-9999,66051.41381579168,-0.7891998291015625,0.6572113037109375,-0.147003173828125,66051.40373979167,0.9843087170836124,-1.362514615051868,-0.7170090654093783,-0.1013283282518387,0.1099396422505379,0.04164806380867958,-0.05311977863311768,-0.03109544515609741,0.01142518222332001,XArbitraryZVertical,0.03845771436922452,-0.6485280130544558,0.5384578315810188,0.5366524206462959,-0.7374839782714844,0.6571331024169922,-0.1558648347854614,0,0,0,-1,-1,66048.42023575,unknown,2,2025-04-18T12:17:40.647+03:00,2025-04-17T15:44:39.500+03:00,7589,1.149553,0,0,6253.948,4,10,2025-04-18T12:16:59.379+03:00,766660663.3114082,0,108.98,100.5478,1,0.45,2025-04-18T12:17:36.920+03:00,112,1.866666666666667,2025-04-18T08:51:18.885+03:00,0.03057091307199995,1
2025-04-18T12:17:43.656+03:00,1744967863.226054,40.95360060295836,29.14095643076388,93.25933,-1,-1,-1,-1,30,25.81347138848038,-9999,66051.42389079167,-0.782318115234375,0.688751220703125,-0.1598358154296875,66051.41381579168,0.9835318466700914,-1.36147314188404,-0.717500368821087,-0.04035073146224022,0.2035702764987946,0.02649201452732086,-0.05292713642120361,-0.004640877246856689,0.01064594089984894,XArbitraryZVertical,0.03774239097565625,-0.6482998353730985,0.53836517044029,0.5370715098699774,-0.7370051145553589,0.6575033664703369,-0.1565656661987305,0,0,0,-1,-1,66048.42023575,unknown,2,2025-04-18T12:17:40.647+03:00,2025-04-17T15:44:39.500+03:00,7589,1.149553,0,0,6253.948,4,10,2025-04-18T12:16:59.379+03:00,766660663.3114082,0,108.98,100.5478,1,0.45,2025-04-18T12:17:36.920+03:00,112,1.866666666666667,2025-04-18T08:51:18.885+03:00,0.03057091307199995,1
2025-04-18T12:17:43.666+03:00,1744967863.226054,40.95360060295836,29.14095643076388,93.25933,-1,-1,-1,-1,30,25.81347138848038,-9999,66051.43396579167,-0.76739501953125,0.7125091552734375,-0.1934661865234375,66051.42389079167,0.9835947728973548,-1.358855366595046,-0.7178013268276215,0.05655837059020996,0.3033071160316467,0.0272634644061327,-0.04633080959320068,0.0276641845703125,0.0005244016647338867,XArbitraryZVertical,0.03694575157085685,-0.647617631274146,0.5384896479072198,0.5378247074058369,-0.7363993525505066,0.6577301025390625,-0.1584528237581253,0,0,0,-1,-1,66048.42023575,unknown,2,2025-04-18T12:17:40.647+03:00,2025-04-17T15:44:39.500+03:00,7589,1.149553,0,0,6253.948,4,10,2025-04-18T12:16:59.379+03:00,766660663.3114082,0,108.98,100.5478,1,0.45,2025-04-18T12:17:36.920+03:00,112,1.866666666666667,2025-04-18T08:51:18.885+03:00,0.03057091307199995,1
2025-04-18T12:17:43.676+03:00,1744967863.226054,40.95360060295836,29.14095643076388,93.25933,-1,-1,-1,-1,30,25.81347138848038,-9999,66051.44404079167,-0.73883056640625,0.7427215576171875,-0.232513427734375,66051.43396579167,0.9847797272752766,-1.354459201827136,-0.7177420063590747,0.1107529029250145,0.4103803038597107,-0.003136518876999617,-0.03477412462234497,0.05110067129135132,-0.02624543011188507,XArbitraryZVertical,0.03616715394941924,-0.6464081022763812,0.5388774507184335,0.5389431623553143,-0.7357338070869446,0.657685399055481,-0.1616970002651215,0,0,0,-1,-1,66048.42023575,unknown,2,2025-04-18T12:17:40.647+03:00,2025-04-17T15:44:39.500+03:00,7589,1.149553,0,0,6253.948,4,10,2025-04-18T12:16:59.379+03:00,766660663.3114082,0,108.98,100.5478,1,0.45,2025-04-18T12:17:36.920+03:00,112,1.866666666666667,2025-04-18T08:51:18.885+03:00,0.03057091307199995,1
2025-04-18T12:17:43.686+03:00,1744967863.226054,40.95360060295836,29.14095643076388,93.25933,-1,-1,-1,-1,30,25.81347138848038,-9999,66051.45411679168,-0.741485595703125,0.7445831298828125,-0.25140380859375,66051.44404079167,0.9864471628886027,-1.348817091109066,-0.7171486503700909,0.1510565876960754,0.4652861058712006,-0.05053163319826126,-0.006096959114074707,0.08307242393493652,-0.06331659853458405,XArbitraryZVertical,0.03540632947465687,-0.6448105832590512,0.539313708842838,0.5404689141374719,-0.7351903915405273,0.6572383046150208,-0.1659314036369324,0,0,0,-1,-1,66048.42023575,unknown,2,2025-04-18T12:17:40.647+03:00,2025-04-17T15:44:39.500+03:00,7589,1.149553,0,0,6253.948,4,10,2025-04-18T12:16:59.379+03:00,766660663.3114082,0,108.98,100.5478,1,0.45,2025-04-18T12:17:36.920+03:00,112,1.866666666666667,2025-04-18T08:51:18.885+03:00,0.03057091307199995,1
2025-04-18T12:17:43.696+03:00,1744967863.226054,40.95360060295836,29.14095643076388,93.25933,-1,-1,-1,-1,30,25.81347138848038,-9999,66051.46419179167,-0.7407989501953125,0.716766357421875,-0.249359130859375,66051.45411679168,0.9882335803163261,-1.343149604410431,-0.7162514412180755,0.1219258606433868,0.4051072001457214,-0.06468047201633453,-0.00519329309463501,0.09008121490478516,-0.08000046014785767,XArbitraryZVertical,0.03478847411598055,-0.6431761524659737,0.5397243362596441,0.5420442698424023,-0.7348122596740723,0.6565618515014648,-0.1702283918857574,0,0,0,-1,-1,66048.42023575,unknown,2,2025-04-18T12:17:40.647+03:00,2025-04-17T15:44:39.500+03:00,7589,1.149553,0,0,6253.948,4,10,2025-04-18T12:16:59.379+03:00,766660663.3114082,0,108.98,100.5478,1,0.45,2025-04-18T12:17:36.920+03:00,112,1.866666666666667,2025-04-18T08:51:18.885+03:00,0.03057091307199995,1
2025-04-18T12:17:43.706+03:00,1744967863.226054,40.95360060295836,29.14095643076388,93.25933,-1,-1,-1,-1,30,25.81347138848038,-9999,66051.47426679167,-0.7391357421875,0.631927490234375,-0.2393035888671875,66051.46419179167,0.9885363916813026,-1.339473689153286,-0.7152646120200052,-0.05817833170294762,0.28535395860672,-0.114154115319252,-0.007268846035003662,0.06763261556625366,-0.07706041634082794,XArbitraryZVertical,0.03426349025681556,-0.6420962557104253,0.5396813179480107,0.5433992026762946,-0.7348119020462036,0.6558172106742859,-0.1730768233537674,0,0,0,-1,-1,66048.42023575,unknown,2,2025-04-18T12:17:40.647+03:00,2025-04-17T15:44:39.500+03:00,7589,1.149553,0,0,6253.948,4,10,2025-04-18T12:16:59.379+03:00,766660663.3114082,0,108.98,100.5478,1,0.45,2025-04-18T12:17:36.920+03:00,112,1.866666666666667,2025-04-18T08:51:18.885+03:00,0.03057091307199995,1
2025-04-18T12:17:43.716+03:00,1744967863.226054,40.95360060295836,29.14095643076388,93.25933,-1,-1,-1,-1,30,25.81347138848038,-9999,66051.48434179167,-0.7548370361328125,0.553131103515625,-0.247802734375,66051.47426679167,0.9857350776835737,-1.338933863317178,-0.7142822594954089,-0.2952811419963837,0.1963614970445633,-0.1641821265220642,-0.002188682556152344,-0.01058977842330933,-0.06641459465026855,XArbitraryZVertical,0.03358700696495073,-0.6419199438674708,0.5387408682023098,0.5445815538231681,-0.7353448867797852,0.6550753116607666,-0.1736214011907578,0,0,0,-1,-1,66048.42023575,unknown,2,2025-04-18T12:17:40.647+03:00,2025-04-17T15:44:39.500+03:00,7589,1.149553,0,0,6253.948,4,10,2025-04-18T12:16:59.379+03:00,766660663.3114082,0,108.98,100.5478,1,0.45,2025-04-18T12:17:36.920+03:00,112,1.866666666666667,2025-04-18T08:51:18.885+03:00,0.03057091307199995,1
2025-04-18T12:17:43.726+03:00,1744967863.226054,40.95360060295836,29.14095643076388,93.25933,-1,-1,-1,-1,30,25.81347138848038,-9999,66051.49441679167,-0.77197265625,0.5741729736328125,-0.3128204345703125,66051.48434179167,0.9809045510096879,-1.340118863081386,-0.7131172899186877,-0.3278154730796814,0.211482048034668,-0.2266031950712204,-0.01630145311355591,-0.09544825553894043,-0.07217758893966675,XArbitraryZVertical,0.03279179845999738,-0.6422324884016462,0.5371810369560128,0.5458010222680695,-0.7362925410270691,0.6541946530342102,-0.1729242503643036,0,0,0,-1,-1,66048.42023575,unknown,2,2025-04-18T12:17:40.647+03:00,2025-04-17T15:44:39.500+03:00,7589,1.149553,0,0,6253.948,4,10,2025-04-18T12:16:59.379+03:00,766660663.3114082,0,108.98,100.5478,1,0.45,2025-04-18T12:17:36.920+03:00,112,1.866666666666667,2025-04-18T08:51:18.885+03:00,0.03057091307199995,1
2025-04-18T12:17:43.736+03:00,1744967863.226054,40.95360060295836,29.14095643076388,93.25933,-1,-1,-1,-1,30,25.81347138848038,-9999,66051.50449279168,-0.775665283203125,0.675628662109375,-0.39007568359375,66051.49441679167,0.9775119516651901,-1.340047538617553,-0.7112263530075345,-0.09244769066572189,0.2319628298282623,-0.249997466802597,-0.03224641084671021,-0.0877608060836792,-0.1290476322174072,XArbitraryZVertical,0.03239252669699047,-0.6421222771326661,0.5358909546208658,0.5472209761161153,-0.7374832630157471,0.652763307094574,-0.1732594072818756,0,0,0,-1,-1,66048.42023575,unknown,2,2025-04-18T12:17:40.647+03:00,2025-04-17T15:44:39.500+03:00,7589,1.149553,0,0,6253.948,4,10,2025-04-18T12:16:59.379+03:00,766660663.3114082,0,108.98,100.5478,1,0.45,2025-04-18T12:17:36.920+03:00,112,1.866666666666667,2025-04-18T08:51:18.885+03:00,0.03057091307199995,1
2025-04-18T12:17:43.746+03:00,1744967863.226054,40.95360060295836,29.14095643076388,93.25933,-1,-1,-1,-1,30,25.81347138848038,-9999,66051.51456779167,-0.719879150390625,0.7702789306640625,-0.44232177734375,66051.50449279168,0.9770862963323266,-1.337749721896401,-0.708808491879884,0.1440017968416214,0.2829468250274658,-0.2094717770814896,-0.03949010372161865,0.01030999422073364,-0.2068692594766617,XArbitraryZVertical,0.0325478367499825,-0.6413126121207434,0.5353452208014442,0.5486934500551416,-0.7386167049407959,0.6509296894073486,-0.1753175407648087,0,0,0,-1,-1,66048.42023575,unknown,2,2025-04-18T12:17:40.647+03:00,2025-04-17T15:44:39.500+03:00,7589,1.149553,0,0,6253.948,4,10,2025-04-18T12:16:59.379+03:00,766660663.3114082,0,108.98,100.5478,1,0.45,2025-04-18T12:17:36.920+03:00,112,1.866666666666667,2025-04-18T08:51:18.885+03:00,0.03057091307199995,1
2025-04-18T12:17:43.756+03:00,1744967863.226054,40.95360060295836,29.14095643076388,93.25933,-1,-1,-1,-1,30,25.81347138848038,-9999,66051.52464279167,-0.647613525390625,0.798187255859375,-0.47308349609375,66051.51456779167,0.979715286682297,-1.333454361940292,-0.706562357418679,0.3229212164878845,0.2055593729019165,-0.1496966034173965,0.009997367858886719,0.1126636862754822,-0.2578288912773132,XArbitraryZVertical,0.03308323056422952,-0.6399137340851038,0.5357055125399843,0.549941489708127,-0.7392759919166565,0.6492229700088501,-0.1788318306207657,0,0,0,-1,-1,66048.42023575,unknown,2,2025-04-18T12:17:40.647+03:00,2025-04-17T15:44:39.500+03:00,7589,1.149553,0,0,6253.948,4,10,2025-04-18T12:16:59.379+03:00,766660663.3114082,0,108.98,100.5478,1,0.45,2025-04-18T12:17:36.920+03:00,112,1.866666666666667,2025-04-18T08:51:18.885+03:00,0.03057091307199995,1
2025-04-18T12:17:43.766+03:00,1744967863.226054,40.95360060295836,29.14095643076388,93.25933,-1,-1,-1,-1,30,25.81347138848038,-9999,66051.53471779167,-0.5694732666015625,0.789337158203125,-0.4951019287109375,66051.52464279167,0.9849488346755981,-1.3289870262256,-0.7045557214323315,0.5645419359207153,0.01461885124444962,0.01096811424940825,0.08409339189529419,0.1497136950492859,-0.2887929081916809,XArbitraryZVertical,0.03431192009629831,-0.6384360430198391,0.5368364597284404,0.5504805937377003,-0.739733099937439,0.6476954221725464,-0.1824442148208618,0,0,0,-1,-1,66048.42023575,unknown,2,2025-04-18T12:17:40.647+03:00,2025-04-17T15:44:39.500+03:00,7589,1.149553,0,0,6253.948,4,10,2025-04-18T12:16:59.379+03:00,766660663.3114082,0,108.98,100.5478,1,0.45,2025-04-18T12:17:36.920+03:00,112,1.866666666666667,2025-04-18T08:51:18.885+03:00,0.03057091307199995,1
2025-04-18T12:17:43.777+03:00,1744967863.226054,40.95360060295836,29.14095643076388,93.25933,-1,-1,-1,-1,30,25.81347138848038,-9999,66051.54479379168,-0.510772705078125,0.7802581787109375,-0.5046234130859375,66051.53471779167,0.9926882576636074,-1.325402530786091,-0.7033840871360737,0.5216600298881531,-0.3239000737667084,-0.07009850442409515,0.1570920348167419,0.1421381831169128,-0.3057184219360352,XArbitraryZVertical,0.03625657366247701,-0.6372174184866111,0.5388060142200591,0.5498433078783362,-0.7398099899291992,0.6468023061752319,-0.1852788478136063,0,0,0,-1,-1,66048.42023575,unknown,2,2025-04-18T12:17:40.647+03:00,2025-04-17T15:44:39.500+03:00,7589,1.149553,0,0,6253.948,4,10,2025-04-18T12:16:59.379+03:00,766660663.3114082,0,108.98,100.5478,1,0.45,2025-04-18T12:17:36.920+03:00,112,1.866666666666667,2025-04-18T08:51:18.885+03:00,0.03057091307199995,1
2025-04-18T12:17:43.787+03:00,1744967863.226054,40.95360060295836,29.14095643076388,93.25933,-1,-1,-1,-1,30,25.81347138848038,-9999,66051.55486879167,-0.68994140625,0.645233154296875,-0.4674530029296875,66051.54479379168,0.9966177789320153,-1.327322245277226,-0.7004592971274887,0.2047168165445328,-0.4915392994880676,-0.2423754036426544,0.2375719547271729,0.143639087677002,-0.3234989047050476,XArbitraryZVertical,0.0391249513109171,-0.6374264467035601,0.5392952811093118,0.5489238834680026,-0.7419970035552979,0.644568920135498,-0.1843135207891464,0,0,0,-1,-1,66048.42023575,unknown,2,2025-04-18T12:17:40.647+03:00,2025-04-17T15:44:39.500+03:00,7589,1.149553,0,0,6253.948,4,10,2025-04-18T12:16:59.379+03:00,766660663.3114082,0,108.98,100.5478,1,0.45,2025-04-18T12:17:36.920+03:00,112,1.866666666666667,2025-04-18T08:51:18.885+03:00,0.03057091307199995,1
2025-04-18T12:17:43.797+03:00,1744967863.226054,40.95360060295836,29.14095643076388,93.25933,-1,-1,-1,-1,30,25.81347138848038,-9999,66051.56494379167,-0.775543212890625,0.6800994873046875,-0.4557037353515625,66051.55486879167,0.9976484621547588,-1.331495929264577,-0.6989748242400852,0.06947004050016403,-0.489386111497879,-0.03622649610042572,0.07848167419433594,0.01666206121444702,-0.2892919182777405,XArbitraryZVertical,0.0411360471282536,-0.6384253896085135,0.5392120935034116,0.547696408939796,-0.743688702583313,0.6434332728385925,-0.1814416944980621,0,0,0,-1,-1,66048.42023575,unknown,2,2025-04-18T12:17:40.647+03:00,2025-04-17T15:44:39.500+03:00,7589,1.149553,0,0,6253.948,4,10,2025-04-18T12:16:59.379+03:00,766660663.3114082,0,108.98,100.5478,1,0.45,2025-04-18T12:17:36.920+03:00,112,1.866666666666667,2025-04-18T08:51:18.885+03:00,0.03057091307199995,1
2025-04-18T12:17:43.807+03:00,1744967863.226054,40.95360060295836,29.14095643076388,93.25933,-1,-1,-1,-1,30,25.81347138848038,-9999,66051.57501879167,-0.8009185791015625,0.7427978515625,-0.42266845703125,66051.56494379167,0.9990417526671977,-1.335679167313181,-0.6982003165135712,0.1670005321502686,-0.524892270565033,-0.07924044132232666,-0.02721506357192993,0.02181738615036011,-0.2787386775016785,XArbitraryZVertical,0.04299947952229561,-0.6394751741715328,0.539357422491989,0.5461832682419373,-0.7449254393577576,0.6428401470184326,-0.1784450858831406,0,0,0,-1,-1,66048.42023575,unknown,2,2025-04-18T12:17:40.647+03:00,2025-04-17T15:44:39.500+03:00,7589,1.149553,0,0,6253.948,4,10,2025-04-18T12:16:59.379+03:00,766660663.3114082,0,108.98,100.5478,1,0.45,2025-04-18T12:17:36.920+03:00,112,1.866666666666667,2025-04-18T08:51:18.885+03:00,0.03057091307199995,1
2025-04-18T12:17:43.817+03:00,1744967863.226054,40.95360060295836,29.14095643076388,93.25933,-1,-1,-1,-1,30,25.81347138848038,-9999,66051.58509479168,-0.787200927734375,0.7239227294921875,-0.379730224609375,66051.57501879167,1.000945038253473,-1.340144708959358,-0.6966863967435496,0.1835632622241974,-0.5806210041046143,-0.1171563938260078,-0.05103743076324463,0.101804792881012,-0.2536005973815918,XArbitraryZVertical,0.04537953808771451,-0.6405240979101768,0.5394878628292618,0.5446307284663164,-0.7466616034507751,0.6416797637939453,-0.1753391623497009,0,0,0,-1,-1,66048.42023575,unknown,2,2025-04-18T12:17:40.647+03:00,2025-04-17T15:44:39.500+03:00,7589,1.149553,0,0,6253.948,4,10,2025-04-18T12:16:59.379+03:00,766660663.3114082,0,108.98,100.5478,1,0.45,2025-04-18T12:17:36.920+03:00,112,1.866666666666667,2025-04-18T08:51:18.885+03:00,0.03057091307199995,1
2025-04-18T12:17:43.827+03:00,1744967863.226054,40.95360060295836,29.14095643076388,93.25933,-1,-1,-1,-1,30,25.81347138848038,-9999,66051.59516979168,-0.7322540283203125,0.7667694091796875,-0.373809814453125,66051.58509479168,1.002471151211522,-1.345985547696374,-0.6951545467145402,0.1140505000948906,-0.7897667288780212,-0.1600653827190399,-0.04500991106033325,0.08360171318054199,-0.2121677994728088,XArbitraryZVertical,0.04801684907474213,-0.6419481296473505,0.5394715727958566,0.5427407592710219,-0.7486302852630615,0.6405041217803955,-0.1711939573287964,0,0,0,-1,-1,66048.42023575,unknown,2,2025-04-18T12:17:40.647+03:00,2025-04-17T15:44:39.500+03:00,7589,1.149553,0,0,6253.948,4,10,2025-04-18T12:16:59.379+03:00,766660663.3114082,0,108.98,100.5478,1,0.45,2025-04-18T12:17:36.920+03:00,112,1.866666666666667,2025-04-18T08:51:18.885+03:00,0.03057091307199995,1
2025-04-18T12:17:43.837+03:00,1744967863.226054,40.95360060295836,29.14095643076388,93.25933,-1,-1,-1,-1,30,25.81347138848038,-9999,66051.60524479167,-0.7161712646484375,0.83441162109375,-0.379547119140625,66051.59516979168,1.003714571452491,-1.353968726568879,-0.6928691747732161,0.1661610901355743,-0.9460482597351074,-0.2279895693063736,0.01371443271636963,0.1196296811103821,-0.2079779505729675,XArbitraryZVertical,0.05142167601617585,-0.6438885881460353,0.5391669011659841,0.5404280361994561,-0.7514006495475769,0.6387473940849304,-0.1655265986919403,0,0,0,-1,-1,66048.42023575,unknown,2,2025-04-18T12:17:40.647+03:00,2025-04-17T15:44:39.500+03:00,7589,1.149553,0,0,6253.948,4,10,2025-04-18T12:16:59.379+03:00,766660663.3114082,0,108.98,100.5478,1,0.45,2025-04-18T12:17:36.920+03:00,112,1.866666666666667,2025-04-18T08:51:18.885+03:00,0.03057091307199995,1
2025-04-18T12:17:43.847+03:00,1744967863.226054,40.95360060295836,29.14095643076388,93.25933,-1,-1,-1,-1,30,25.81347138848038,-9999,66051.61531979167,-0.7097625732421875,0.83233642578125,-0.36749267578125,66051.60524479167,1.005069977882523,-1.363634977465369,-0.6900306838314475,0.1377445757389069,-1.148958802223206,-0.2862618565559387,0.03659713268280029,0.1911369562149048,-0.2204307317733765,XArbitraryZVertical,0.05551956463985273,-0.6462225269246087,0.5387184828605218,0.5376770537780494,-0.7547369003295898,0.63656085729599,-0.1586280465126038,0,0,0,-1,-1,66048.42023575,unknown,2,2025-04-18T12:17:40.647+03:00,2025-04-17T15:44:39.500+03:00,7589,1.149553,0,0,6253.948,4,10,2025-04-18T12:16:59.379+03:00,766660663.3114082,0,108.98,100.5478,1,0.45,2025-04-18T12:17:36.920+03:00,112,1.866666666666667,2025-04-18T08:51:18.885+03:00,0.03057091307199995,1
2025-04-18T12:17:43.857+03:00,1744967863.226054,40.95360060295836,29.14095643076388,93.25933,-1,-1,-1,-1,30,25.81347138848038,-9999,66051.62539479167,-0.744842529296875,0.7729644775390625,-0.332275390625,66051.61531979167,1.005021326464393,-1.376061307379302,-0.6867546007101878,-0.03377977758646011,-1.299344897270203,-0.3523567020893097,0.05031746625900269,0.203585147857666,-0.2209805250167847,XArbitraryZVertical,0.06006282187760464,-0.6492860565237861,0.5376976973560592,0.5345103666534406,-0.7586915493011475,0.634030818939209,-0.1496401429176331,0,0,0,-1,-1,66048.42023575,unknown,2,2025-04-18T12:17:40.647+03:00,2025-04-17T15:44:39.500+03:00,7589,1.149553,0,0,6253.948,4,10,2025-04-18T12:16:59.379+03:00,766660663.3114082,0,108.98,100.5478,1,0.45,2025-04-18T12:17:36.920+03:00,112,1.866666666666667,2025-04-18T08:51:18.885+03:00,0.03057091307199995,1
2025-04-18T12:17:43.867+03:00,1744967863.226054,40.95360060295836,29.14095643076388,93.25933,-1,-1,-1,-1,30,25.81347138848038,-9999,66051.63547079168,-0.788116455078125,0.7576446533203125,-0.2693023681640625,66051.62539479167,1.002793883399441,-1.390889498283637,-0.6831834362701447,-0.1499135196208954,-1.357590317726135,-0.4125757813453674,0.0241122841835022,0.1474670767784119,-0.1990359276533127,XArbitraryZVertical,0.06463717606645138,-0.6530182724786017,0.5359236776945081,0.5312014362184037,-0.7630496621131897,0.6312651634216309,-0.13877834379673,0,0,0,-1,-1,66048.42023575,unknown,2,2025-04-18T12:17:40.647+03:00,2025-04-17T15:44:39.500+03:00,7589,1.149553,0,0,6253.948,4,10,2025-04-18T12:16:59.379+03:00,766660663.3114082,0,108.98,100.5478,1,0.45,2025-04-18T12:17:36.920+03:00,112,1.866666666666667,2025-04-18T08:51:18.885+03:00,0.03057091307199995,1
2025-04-18T12:17:43.877+03:00,1744967863.226054,40.95360060295836,29.14095643076388,93.25933,-1,-1,-1,-1,30,25.81347138848038,-9999,66051.64554579167,-0.807861328125,0.7759857177734375,-0.1985321044921875,66051.63547079168,1.000010858709852,-1.406444360445039,-0.6790166069449708,-0.1266699731349945,-1.381304383277893,-0.4768080413341522,-0.01623117923736572,0.1286247968673706,-0.1501283049583435,XArbitraryZVertical,0.0694190117214519,-0.6569017454362448,0.5338121473575647,0.5279259986670767,-0.7677044272422791,0.6280280351638794,-0.1273221969604492,0,0,0,-1,-1,66048.42023575,unknown,2,2025-04-18T12:17:40.647+03:00,2025-04-17T15:44:39.500+03:00,7589,1.149553,0,0,6253.948,4,10,2025-04-18T12:16:59.379+03:00,766660663.3114082,0,108.98,100.5478,1,0.45,2025-04-18T12:17:36.920+03:00,112,1.866666666666667,2025-04-18T08:51:18.885+03:00,0.03057091307199995,1
2025-04-18T12:17:43.887+03:00,1744967863.226054,40.95360060295836,29.14095643076388,93.25933,-1,-1,-1,-1,30,25.81347138848038,-9999,66051.65562079167,-0.811981201171875,0.7532806396484375,-0.1270904541015625,66051.64554579167,0.9977430673821532,-1.421678454578619,-0.6741374234753784,-0.06962046772241592,-1.356344103813171,-0.5343853235244751,-0.03424781560897827,0.1503430008888245,-0.09233802556991577,XArbitraryZVertical,0.0745177686333882,-0.6606162849802324,0.5316496437026388,0.5247685327493177,-0.7725759744644165,0.6242236495018005,-0.1160664558410645,0,0,0,-1,-1,66048.42023575,unknown,2,2025-04-18T12:17:40.647+03:00,2025-04-17T15:44:39.500+03:00,7589,1.149553,0,0,6253.948,4,10,2025-04-18T12:16:59.379+03:00,766660663.3114082,0,108.98,100.5478,1,0.45,2025-04-18T12:17:36.920+03:00,112,1.866666666666667,2025-04-18T08:51:18.885+03:00,0.03057091307199995,1
2025-04-18T12:17:43.897+03:00,1744967863.226054,40.95360060295836,29.14095643076388,93.25933,-1,-1,-1,-1,30,25.81347138848038,-9999,66051.66569579167,-0.7935333251953125,0.695281982421875,-0.05401611328125,66051.65562079167,0.9962315994150119,-1.436190043808582,-0.6686795334661199,-0.01201975625008345,-1.352015495300293,-0.5774204134941101,-0.03520077466964722,0.1399677991867065,-0.03094673156738281,XArbitraryZVertical,0.07985835361640328,-0.66405810099651,0.5295360424185362,0.5217673419740381,-0.7775434255599976,0.6199504137039185,-0.1052989661693573,0,0,0,-1,-1,66048.42023575,unknown,2,2025-04-18T12:17:40.647+03:00,2025-04-17T15:44:39.500+03:00,7589,1.149553,0,0,6253.948,4,10,2025-04-18T12:16:59.379+03:00,766660663.3114082,0,108.98,100.5478,1,0.45,2025-04-18T12:17:36.920+03:00,112,1.866666666666667,2025-04-18T08:51:18.885+03:00,0.03057091307199995,1
2025-04-18T12:17:43.907+03:00,1744967863.226054,40.95360060295836,29.14095643076388,93.25933,-1,-1,-1,-1,30,25.81347138848038,-9999,66051.67577179168,-0.76007080078125,0.6566619873046875,0.055084228515625,66051.66569579167,0.9956771292788796,-1.450335521242486,-0.6626352755190481,0.08025817573070526,-1.396526217460632,-0.6272639632225037,-0.01416844129562378,0.08626526594161987,0.0303313136100769,XArbitraryZVertical,0.08560734070646675,-0.6673095707775165,0.5275029832045128,0.518758146646539,-0.7826607823371887,0.6151965856552124,-0.09473863989114761,0,0,0,-1,-1,66048.42023575,unknown,2,2025-04-18T12:17:40.647+03:00,2025-04-17T15:44:39.500+03:00,7589,1.149553,0,0,6253.948,4,10,2025-04-18T12:16:59.379+03:00,766660663.3114082,0,108.98,100.5478,1,0.45,2025-04-18T12:17:36.920+03:00,112,1.866666666666667,2025-04-18T08:51:18.885+03:00,0.03057091307199995,1
2025-04-18T12:17:43.918+03:00,1744967863.226054,40.95360060295836,29.14095643076388,93.25933,-1,-1,-1,-1,30,25.81347138848038,-9999,66051.68584679168,-0.7554473876953125,0.6186981201171875,0.229827880859375,66051.67577179168,0.9960859016439146,-1.464346164084509,-0.6559976112699921,0.1289673894643784,-1.421107172966003,-0.6749353408813477,0.02454179525375366,0.05226606130599976,0.1224652007222176,XArbitraryZVertical,0.09183248666700075,-0.6704242950061831,0.5255329913190923,0.515667604297453,-0.7879542112350464,0.609950065612793,-0.08419612050056458,0,0,0,-1,-1,66048.42023575,unknown,2,2025-04-18T12:17:40.647+03:00,2025-04-17T15:44:39.500+03:00,7589,1.149553,0,0,6253.948,4,10,2025-04-18T12:16:59.379+03:00,766660663.3114082,0,108.98,100.5478,1,0.45,2025-04-18T12:17:36.920+03:00,112,1.866666666666667,2025-04-18T08:51:18.885+03:00,0.03057091307199995,1
2025-04-18T12:17:43.928+03:00,1744967863.226054,40.95360060295836,29.14095643076388,93.25933,-1,-1,-1,-1,30,25.81347138848038,-9999,66051.69592179167,-0.77960205078125,0.5953216552734375,0.3903656005859375,66051.68584679168,0.9974222463130702,-1.477488376389841,-0.6490361802131609,0.2104942798614502,-1.344092845916748,-0.673298180103302,0.03950858116149902,0.01826184988021851,0.2803432941436768,XArbitraryZVertical,0.09823394840818432,-0.6732282886860866,0.5237044386246561,0.5126865211725145,-0.7932012677192688,0.6044188141822815,-0.07422752678394318,0,0,0,-1,-1,66048.42023575,unknown,2,2025-04-18T12:17:40.647+03:00,2025-04-17T15:44:39.500+03:00,7589,1.149553,0,0,6253.948,4,10,2025-04-18T12:16:59.379+03:00,766660663.3114082,0,108.98,100.5478,1,0.45,2025-04-18T12:17:36.920+03:00,112,1.866666666666667,2025-04-18T08:51:18.885+03:00,0.03057091307199995,1
2025-04-18T12:17:43.938+03:00,1744967863.226054,40.95360060295836,29.14095643076388,93.25933,-1,-1,-1,-1,30,25.81347138848038,-9999,66051.70599679167,-0.789794921875,0.5149688720703125,0.4866790771484375,66051.69592179167,0.999065001056075,-1.489340811558077,-0.6423396247959415,0.1440188437700272,-1.194962739944458,-0.6278191208839417,0.02127766609191895,-0.000880122184753418,0.4409578442573547,XArbitraryZVertical,0.1042856014682847,-0.6756848324768511,0.5220158693563657,0.5099745347271537,-0.7980415821075439,0.5990704298019409,-0.06514903903007507,0,0,0,-1,-1,66048.42023575,unknown,2,2025-04-18T12:17:40.647+03:00,2025-04-17T15:44:39.500+03:00,7589,1.149553,0,0,6253.948,4,10,2025-04-18T12:16:59.379+03:00,766660663.3114082,0,108.98,100.5478,1,0.45,2025-04-18T12:17:36.920+03:00,112,1.866666666666667,2025-04-18T08:51:18.885+03:00,0.03057091307199995,1
2025-04-18T12:17:43.948+03:00,1744967863.226054,40.95360060295836,29.14095643076388,93.25933,-1,-1,-1,-1,30,25.81347138848038,-9999,66051.71607279166,-0.7760772705078125,0.3828582763671875,0.6777801513671875,66051.70599679167,0.9993205168491186,-1.500157137981903,-0.6363748158037761,-0.03678742051124573,-0.9933387041091919,-0.5477514266967773,0.01250064373016357,-0.06359833478927612,0.5300619006156921,XArbitraryZVertical,0.1093182288691016,-0.6779875829139627,0.5201433456873746,0.5077729572660942,-0.8022497892379761,0.5942837595939636,-0.05676472559571266,0,0,0,-1,-1,66048.42023575,unknown,2,2025-04-18T12:17:40.647+03:00,2025-04-17T15:44:39.500+03:00,7589,1.149553,0,0,6253.948,4,10,2025-04-18T12:16:59.379+03:00,766660663.3114082,0,108.98,100.5478,1,0.45,2025-04-18T12:17:36.920+03:00,112,1.866666666666667,2025-04-18T08:51:18.885+03:00,0.03057091307199995,1
2025-04-18T12:17:43.958+03:00,1744967863.226054,40.95360060295836,29.14095643076388,93.25933,-1,-1,-1,-1,30,25.81347138848038,-9999,66051.72614779168,-0.7430572509765625,0.2817535400390625,0.976043701171875,66051.71607279166,0.9965043739417724,-1.510632482160885,-0.6314863622834365,-0.340232253074646,-0.7507972121238708,-0.4437294006347656,0.02643954753875732,-0.1937081217765808,0.6938720345497131,XArbitraryZVertical,0.1128174322304649,-0.6804456008169896,0.5177196878263218,0.5061941115645782,-0.8056907057762146,0.5903451442718506,-0.04853202402591705,0,0,0,-1,-1,66048.42023575,unknown,2,2025-04-18T12:17:40.647+03:00,2025-04-17T15:44:39.500+03:00,7589,1.149553,0,0,6253.948,4,10,2025-04-18T12:16:59.379+03:00,766660663.3114082,0,108.98,100.5478,1,0.45,2025-04-18T12:17:36.920+03:00,112,1.866666666666667,2025-04-18T08:51:18.885+03:00,0.03057091307199995,1
2025-04-18T12:17:43.968+03:00,1744967863.226054,40.95360060295836,29.14095643076388,93.25933,-1,-1,-1,-1,30,25.81347138848038,-9999,66051.73622279167,-0.7035369873046875,0.0574188232421875,1.401138305664062,66051.72614779168,0.9907061777496382,-1.520204833363235,-0.6282685165775843,-0.5168461203575134,-0.4634724259376526,-0.242304801940918,0.06030005216598511,-0.2893133759498596,0.9771469831466675,XArbitraryZVertical,0.1144526035116189,-0.6829669813352875,0.5149579612392912,0.5052474814379548,-0.8080112338066101,0.5877447724342346,-0.0409134067595005,0,0,0,-1,-1,66048.42023575,unknown,2,2025-04-18T12:17:40.647+03:00,2025-04-17T15:44:39.500+03:00,7589,1.149553,0,0,6253.948,4,10,2025-04-18T12:16:59.379+03:00,766660663.3114082,0,108.98,100.5478,1,0.45,2025-04-18T12:17:36.920+03:00,112,1.866666666666667,2025-04-18T08:51:18.885+03:00,0.03057091307199995,1
2025-04-18T12:17:43.987+03:00,1744967863.226054,40.95360060295836,29.14095643076388,93.25933,-1,-1,-1,-1,30,25.81347138848038,-9999,66051.74629779167,-0.6932373046875,-0.186920166015625,1.990341186523438,66051.73622279167,0.986079372821189,-1.525121190522069,-0.6275479105031494,-0.1767985224723816,0.06458048522472382,0.07797494530677795,0.1003583073616028,-0.494540810585022,1.371783494949341,XArbitraryZVertical,0.1143896478058231,-0.6844232007309883,0.5133382914754621,0.5049392242228041,-0.8086254000663757,0.587161660194397,-0.03695978224277496,0,0,0,-1,-1,66048.42023575,unknown,2,2025-04-18T12:17:40.647+03:00,2025-04-17T15:44:39.500+03:00,7589,1.149553,0,0,6253.948,4,10,2025-04-18T12:16:59.379+03:00,766660663.3114082,0,108.98,100.5478,1,0.45,2025-04-18T12:17:36.920+03:00,112,1.866666666666667,2025-04-18T08:51:18.885+03:00,0.03057091307199995,1
2025-04-18T12:17:43.990+03:00,1744967863.226054,40.95360060295836,29.14095643076388,93.25933,-1,-1,-1,-1,30,25.81347138848038,-9999,66051.75637279167,-0.736724853515625,-0.276214599609375,2.415725708007812,66051.74629779167,0.9875220162019953,-1.518334255609956,-0.6305481595263192,0.3725712597370148,1.197821974754333,0.5412463545799255,0.1144698858261108,-0.7545045614242554,1.96023166179657,XArbitraryZVertical,0.1120767282523939,-0.6828335052842925,0.5147943263072967,0.5061266199114203,-0.8065933585166931,0.5895875692367554,-0.04235442355275154,0,0,0,-1,-1,66048.42023575,unknown,2,2025-04-18T12:17:40.647+03:00,2025-04-17T15:44:39.500+03:00,7589,1.149553,0,0,6253.948,4,10,2025-04-18T12:16:59.379+03:00,766660663.3114082,0,108.98,100.5478,1,0.45,2025-04-18T12:17:36.920+03:00,112,1.866666666666667,2025-04-18T08:51:18.885+03:00,0.03057091307199995,1
2025-04-18T12:17:43.998+03:00,1744967863.226054,40.95360060295836,29.14095643076388,93.25933,-1,-1,-1,-1,30,25.81347138848038,-9999,66051.76644879168,-0.780120849609375,-0.3181304931640625,2.51953125,66051.75637279167,0.9966580931382258,-1.492194127963025,-0.639484941596732,0.9114000797271729,2.953011989593506,1.366756558418274,0.07116609811782837,-0.8664050102233887,2.444841861724854,XArbitraryZVertical,0.1052357900492725,-0.6763302120311248,0.5206037172459251,0.5103672851278551,-0.7999259233474731,0.5967822074890137,-0.06300574541091919,0,0,0,-1,-1,66048.42023575,unknown,2,2025-04-18T12:17:40.647+03:00,2025-04-17T15:44:39.500+03:00,7589,1.149553,0,0,6253.948,4,10,2025-04-18T12:16:59.379+03:00,766660663.3114082,0,108.98,100.5478,1,0.45,2025-04-18T12:17:36.920+03:00,112,1.866666666666667,2025-04-18T08:51:18.885+03:00,0.03057091307199995,1
2025-04-18T12:17:44.008+03:00,1744967863.226054,40.95360060295836,29.14095643076388,93.25933,-1,-1,-1,-1,30,25.81347138848038,-9999,66051.77652379168,-0.722137451171875,-0.3213348388671875,2.569595336914062,66051.76644879168,1.010673654566236,-1.445466572465,-0.656500220576099,0.8432818055152893,4.573503971099854,2.146556854248047,0.006653726100921631,-0.9289975166320801,2.614414215087891,XArbitraryZVertical,0.09153733133936505,-0.6649149027702492,0.5302778733153927,0.5179909418854822,-0.785920262336731,0.6103482842445374,-0.09901817888021469,0,0,0,-1,-1,66048.42023575,unknown,2,2025-04-18T12:17:40.647+03:00,2025-04-17T15:44:39.500+03:00,7589,1.149553,0,0,6253.948,4,10,2025-04-18T12:16:59.379+03:00,766660663.3114082,0,108.98,100.5478,1,0.45,2025-04-18T12:17:36.920+03:00,112,1.866666666666667,2025-04-18T08:51:18.885+03:00,0.03057091307199995,1
2025-04-18T12:17:44.018+03:00,1744967863.226054,40.95360060295836,29.14095643076388,93.25933,-1,-1,-1,-1,30,25.81347138848038,-9999,66051.78659879167,-0.645599365234375,-0.6819305419921875,2.641387939453125,66051.77652379168,1.022096633018462,-1.385233047701308,-0.6791648185293294,0.1643626540899277,5.9894700050354,2.539290428161621,0.03118860721588135,-0.9378510117530823,2.70219874382019,XArbitraryZVertical,0.07088701825056827,-0.6505347406502177,0.5404217036985566,0.5288894715725798,-0.7647396922111511,0.6281433701515198,-0.1435591578483582,0,0,0,-1,-1,66048.42023575,unknown,2,2025-04-18T12:17:40.647+03:00,2025-04-17T15:44:39.500+03:00,7589,1.149553,0,0,6253.948,4,10,2025-04-18T12:16:59.379+03:00,766660663.3114082,0,108.98,100.5478,1,0.45,2025-04-18T12:17:36.920+03:00,112,1.866666666666667,2025-04-18T08:51:18.885+03:00,0.03057091307199995,1
2025-04-18T12:17:44.028+03:00,1744967863.226054,40.95360060295836,29.14095643076388,93.25933,-1,-1,-1,-1,30,25.81347138848038,-9999,66051.79667379167,-0.633575439453125,-0.96728515625,2.323715209960938,66051.78659879167,1.024672328708752,-1.316311003922812,-0.7062854101403837,-0.9413231015205383,7.295187950134277,2.782937288284302,0.08483219146728516,-1.267298340797424,2.83289647102356,XArbitraryZVertical,0.04286352346538051,-0.6343506761219345,0.5482669643215281,0.5432913366494694,-0.7362757325172424,0.6490122675895691,-0.1915238797664642,0,0,0,-1,-1,66048.42023575,unknown,2,2025-04-18T12:17:40.647+03:00,2025-04-17T15:44:39.500+03:00,7589,1.149553,0,0,6253.948,4,10,2025-04-18T12:16:59.379+03:00,766660663.3114082,0,108.98,100.5478,1,0.45,2025-04-18T12:17:36.920+03:00,112,1.866666666666667,2025-04-18T08:51:18.885+03:00,0.03057091307199995,1
2025-04-18T12:17:44.038+03:00,1744967863.226054,40.95360060295836,29.14095643076388,93.25933,-1,-1,-1,-1,30,25.81347138848038,-9999,66051.80674979166,0.3315277099609375,0.2503662109375,-1.19244384765625,66051.79667379167,1.022027292981786,-1.243224625533282,-0.746231655630973,-2.633517503738403,7.479535102844238,6.120802879333496,0.0571632981300354,-1.650342702865601,2.641225337982178,XArbitraryZVertical,0.00673240439416879,-0.6179269500144842,0.5553808640998044,0.5564828932389787,-0.6952096223831177,0.6788766980171204,-0.2362419217824936,0,0,0,-1,-1,66048.42023575,unknown,2,2025-04-18T12:17:40.647+03:00,2025-04-17T15:44:39.500+03:00,7589,1.149553,0,0,6253.948,4,10,2025-04-18T12:16:59.379+03:00,766660663.3114082,0,108.98,100.5478,1,0.45,2025-04-18T12:17:36.920+03:00,112,1.866666666666667,2025-04-18T08:51:18.885+03:00,0.03057091307199995,1
2025-04-18T12:17:44.049+03:00,1744967863.226054,40.95360060295836,29.14095643076388,93.25933,-1,-1,-1,-1,30,25.81347138848038,-9999,66051.81682479168,3.221023559570312,4.769088745117188,-8.30218505859375,66051.80674979166,1.035119509881408,-1.229392310832499,-0.7645526499219308,1.090059280395508,-4.151576995849609,-2.318179845809937,0.7248245477676392,-0.7827446460723877,-0.02314041554927826,XArbitraryZVertical,-9.814492456311543e-05,-0.615779980108388,0.5619749234444423,0.5522672960012012,-0.6800400018692017,0.6922141909599304,-0.2416300177574158,0,0,0,-1,-1,66048.42023575,unknown,2,2025-04-18T12:17:40.647+03:00,2025-04-17T15:44:39.500+03:00,7589,1.149553,0,0,6253.948,4,10,2025-04-18T12:16:59.379+03:00,766660663.3114082,0,108.98,100.5478,1,0.45,2025-04-18T12:17:36.920+03:00,112,1.866666666666667,2025-04-18T08:51:18.885+03:00,0.03057091307199995,1
2025-04-18T12:17:44.059+03:00,1744967863.226054,40.95360060295836,29.14095643076388,93.25933,-1,-1,-1,-1,30,25.81347138848038,-9999,66051.82689979167,1.135055541992188,4.298477172851562,-6.180648803710938,66051.81682479168,1.034867971983689,-1.263070610188071,-0.7556055246373398,0.800749659538269,-2.446377992630005,0.3847089409828186,3.706040143966675,3.503296375274658,-7.757458686828613,XArbitraryZVertical,0.01268473259818661,-0.6241859896406424,0.5603596827408901,0.5442683472914652,-0.6936653852462769,0.6857295036315918,-0.2204618901014328,0,0,0,-1,-1,66048.42023575,unknown,2,2025-04-18T12:17:40.647+03:00,2025-04-17T15:44:39.500+03:00,7589,1.149553,0,0,6253.948,4,10,2025-04-18T12:16:59.379+03:00,766660663.3114082,0,108.98,100.5478,1,0.45,2025-04-18T12:17:36.920+03:00,112,1.866666666666667,2025-04-18T08:51:18.885+03:00,0.03057091307199995,1
