loggingTime(txt),locationTimestamp_since1970(s),locationLatitude(WGS84),locationLongitude(WGS84),locationAltitude(m),locationSpeed(m/s),locationSpeedAccuracy(m/s),locationCourse(°),locationCourseAccuracy(°),locationVerticalAccuracy(m),locationHorizontalAccuracy(m),locationFloor(Z),accelerometerTimestamp_sinceReboot(s),accelerometerAccelerationX(G),accelerometerAccelerationY(G),accelerometerAccelerationZ(G),motionTimestamp_sinceReboot(s),motionYaw(rad),motionRoll(rad),motionPitch(rad),motionRotationRateX(rad/s),motionRotationRateY(rad/s),motionRotationRateZ(rad/s),motionUserAccelerationX(G),motionUserAccelerationY(G),motionUserAccelerationZ(G),motionAttitudeReferenceFrame(txt),motionQuaternionX(R),motionQuaternionY(R),motionQuaternionZ(R),motionQuaternionW(R),motionGravityX(G),motionGravityY(G),motionGravityZ(G),motionMagneticFieldX(µT),motionMagneticFieldY(µT),motionMagneticFieldZ(µT),motionHeading(°),motionMagneticFieldCalibrationAccuracy(Z),activityTimestamp_sinceReboot(s),activity(txt),activityActivityConfidence(Z),activityActivityStartDate(txt),pedometerStartDate(txt),pedometerNumberofSteps(N),pedometerAverageActivePace(s/m),pedometerCurrentPace(s/m),pedometerCurrentCadence(steps/s),pedometerDistance(m),pedometerFloorAscended(N),pedometerFloorDescended(N),pedometerEndDate(txt),altimeterTimestamp_sinceReboot(s),altimeterReset(bool),altimeterRelativeAltitude(m),altimeterPressure(kPa),batteryState(N),batteryLevel(R),heartRateBPMTimestamp(txt),heartRateBPM(N),heartRateBPS(R),heartRateVariabilityTimestamp(txt),heartRateVariability(ms),label
2025-04-22T12:10:14.341+03:00,1745313008.972918,40.95222567643675,29.14026538326243,76.34016,-1,-1,-1,-1,30,20.32104858318339,-9999,29403.866279375,-0.606109619140625,0.5745697021484375,-0.551910400390625,29403.856203375,-0.656001832067871,-0.8250512838928163,-0.6166361454497914,-0.01145242806524038,-0.009366774931550026,0.002168314065784216,-0.004390180110931396,0.001921236515045166,-0.00604557991027832,XArbitraryZVertical,-0.3862470066866598,-0.2720948378125906,-0.1660326754226843,0.8655696559494571,-0.5992932915687561,0.5782940983772278,-0.5535553097724915,0,0,0,-1,-1,29382.265214,unknown,2,2025-04-22T12:09:52.710+03:00,2025-04-21T17:08:51.449+03:00,7208,0.9677966,0,0,6015.835,5,20,2025-04-22T12:09:26.917+03:00,767005813.448632,0,-20.61,100.4508,1,0.85,2025-04-22T12:10:10.706+03:00,84,1.4,2025-04-22T09:54:17.825+03:00,0.02225348692287972,0
2025-04-22T12:10:14.342+03:00,1745313008.972918,40.95222567643675,29.14026538326243,76.34016,-1,-1,-1,-1,30,20.32104858318339,-9999,29403.876354375,-0.60516357421875,0.5770721435546875,-0.555816650390625,29403.866279375,-0.6561366351991818,-0.8252783422436234,-0.6167652637030281,-0.02321328036487103,-0.02008526399731636,0.004633036442101002,-0.0008862018585205078,0.001876950263977051,0.001000344753265381,XArbitraryZVertical,-0.3863350502878863,-0.2721414680840598,-0.1660180125910106,0.8655184327196618,-0.5993640422821045,0.5783994197845459,-0.5533685088157654,0,0,0,-1,-1,29382.265214,unknown,2,2025-04-22T12:09:52.710+03:00,2025-04-21T17:08:51.449+03:00,7208,0.9677966,0,0,6015.835,5,20,2025-04-22T12:09:26.917+03:00,767005813.448632,0,-20.61,100.4508,1,0.85,2025-04-22T12:10:10.706+03:00,84,1.4,2025-04-22T09:54:17.825+03:00,0.02225348692287972,0
2025-04-22T12:10:14.343+03:00,1745313008.972918,40.95222567643675,29.14026538326243,76.34016,-1,-1,-1,-1,30,20.32104858318339,-9999,29403.886430375,-0.5984649658203125,0.5816192626953125,-0.55511474609375,29403.876354375,-0.6563318187496323,-0.8256944939332672,-0.616944284539229,-0.02371235564351082,-0.03603599965572357,0.001400225097313523,-0.007079720497131348,-0.005059242248535156,-8.225440979003906e-05,XArbitraryZVertical,-0.386466564309991,-0.2722483529950386,-0.165981681151351,0.8654331463117214,-0.5995182394981384,0.5785454511642456,-0.553048849105835,0,0,0,-1,-1,29382.265214,unknown,2,2025-04-22T12:09:52.710+03:00,2025-04-21T17:08:51.449+03:00,7208,0.9677966,0,0,6015.835,5,20,2025-04-22T12:09:26.917+03:00,767005813.448632,0,-20.61,100.4508,1,0.85,2025-04-22T12:10:10.706+03:00,84,1.4,2025-04-22T09:54:17.825+03:00,0.02225348692287972,0
2025-04-22T12:10:14.349+03:00,1745313008.972918,40.95222567643675,29.14026538326243,76.34016,-1,-1,-1,-1,30,20.32104858318339,-9999,29403.896506375,-0.601043701171875,0.585601806640625,-0.5544586181640625,29403.886430375,-0.6565499294084453,-0.8262081523986036,-0.6170713640103264,-0.01692868582904339,-0.03544311597943306,-0.008050368167459965,-0.005247592926025391,-0.0009057521820068359,-0.002912044525146484,XArbitraryZVertical,-0.3865889291816014,-0.2724032459878818,-0.1659480712211628,0.8653360902143306,-0.5997480750083923,0.57864910364151,-0.5526909232139587,0,0,0,-1,-1,29382.265214,unknown,2,2025-04-22T12:09:52.710+03:00,2025-04-21T17:08:51.449+03:00,7208,0.9677966,0,0,6015.835,5,20,2025-04-22T12:09:26.917+03:00,767005813.448632,0,-20.61,100.4508,1,0.85,2025-04-22T12:10:10.706+03:00,84,1.4,2025-04-22T09:54:17.825+03:00,0.02225348692287972,0
2025-04-22T12:10:14.359+03:00,1745313008.972918,40.95222567643675,29.14026538326243,76.34016,-1,-1,-1,-1,30,20.32104858318339,-9999,29403.906582375,-0.6028594970703125,0.586517333984375,-0.55157470703125,29403.896506375,-0.6567798925167049,-0.8267519199732252,-0.6170794830635282,-0.0138106569647789,-0.04843481257557869,-0.01577699743211269,0.001442790031433105,0.003726363182067871,-0.002417445182800293,XArbitraryZVertical,-0.3866685403803051,-0.2725924419461299,-0.1659406225533344,0.86524243546755,-0.6000451445579529,0.5786557197570801,-0.5523616075515747,0,0,0,-1,-1,29382.265214,unknown,2,2025-04-22T12:09:52.710+03:00,2025-04-21T17:08:51.449+03:00,7208,0.9677966,0,0,6015.835,5,20,2025-04-22T12:09:26.917+03:00,767005813.448632,0,-20.61,100.4508,1,0.85,2025-04-22T12:10:10.706+03:00,84,1.4,2025-04-22T09:54:17.825+03:00,0.02225348692287972,0
2025-04-22T12:10:14.367+03:00,1745313008.972918,40.95222567643675,29.14026538326243,76.34016,-1,-1,-1,-1,30,20.32104858318339,-9999,29403.916658375,-0.5980377197265625,0.58050537109375,-0.54730224609375,29403.906582375,-0.6569119794996358,-0.827255945557813,-0.6170172950016477,0.003619399387389421,-0.03043830208480358,-0.004627706948667765,-0.001639783382415771,0.007835924625396729,-0.001810550689697266,XArbitraryZVertical,-0.3867039016654373,-0.2727972891792196,-0.1659143737999969,0.8651671215820397,-0.6003499627113342,0.5786049962043762,-0.5520834922790527,0,0,0,-1,-1,29382.265214,unknown,2,2025-04-22T12:09:52.710+03:00,2025-04-21T17:08:51.449+03:00,7208,0.9677966,0,0,6015.835,5,20,2025-04-22T12:09:26.917+03:00,767005813.448632,0,-20.61,100.4508,1,0.85,2025-04-22T12:10:10.706+03:00,84,1.4,2025-04-22T09:54:17.825+03:00,0.02225348692287972,0
2025-04-22T12:10:14.377+03:00,1745313008.972918,40.95222567643675,29.14026538326243,76.34016,-1,-1,-1,-1,30,20.32104858318339,-9999,29403.926733375,-0.602874755859375,0.567901611328125,-0.547210693359375,29403.916658375,-0.6568636592393132,-0.8273842554277394,-0.6170311821350077,-0.007684387266635895,-0.008565761148929596,0.01145592238754034,-0.001895308494567871,0.007626235485076904,0.0003042221069335938,XArbitraryZVertical,-0.3867134090099817,-0.2728593806771765,-0.1658655238301321,0.8651526676157932,-0.6004148721694946,0.5786163210868835,-0.5520009994506836,0,0,0,-1,-1,29382.265214,unknown,2,2025-04-22T12:09:52.710+03:00,2025-04-21T17:08:51.449+03:00,7208,0.9677966,0,0,6015.835,5,20,2025-04-22T12:09:26.917+03:00,767005813.448632,0,-20.61,100.4508,1,0.85,2025-04-22T12:10:10.706+03:00,84,1.4,2025-04-22T09:54:17.825+03:00,0.02225348692287972,0
2025-04-22T12:10:14.387+03:00,1745313008.972918,40.95222567643675,29.14026538326243,76.34016,-1,-1,-1,-1,30,20.32104858318339,-9999,29403.936809375,-0.60198974609375,0.570831298828125,-0.546112060546875,29403.926733375,-0.6569226750317938,-0.8275698823296977,-0.6172349455782132,-0.02775017358362675,-0.0238485112786293,0.01828563213348389,0.002774238586425781,-0.0002608299255371094,0.004370152950286865,XArbitraryZVertical,-0.3868169511617163,-0.2728878214364745,-0.1658090833740521,0.8651082651417668,-0.6004305481910706,0.5787824988365173,-0.5518097877502441,0,0,0,-1,-1,29382.265214,unknown,2,2025-04-22T12:09:52.710+03:00,2025-04-21T17:08:51.449+03:00,7208,0.9677966,0,0,6015.835,5,20,2025-04-22T12:09:26.917+03:00,767005813.448632,0,-20.61,100.4508,1,0.85,2025-04-22T12:10:10.706+03:00,84,1.4,2025-04-22T09:54:17.825+03:00,0.02225348692287972,0
2025-04-22T12:10:14.397+03:00,1745313008.972918,40.95222567643675,29.14026538326243,76.34016,-1,-1,-1,-1,30,20.32104858318339,-9999,29403.946885375,-0.595916748046875,0.579559326171875,-0.54656982421875,29403.936809375,-0.6570340024036584,-0.8278398108463603,-0.6175731823360645,-0.03338036313652992,-0.01603586226701736,0.01826565712690353,-0.002988874912261963,-0.01239281892776489,0.004472315311431885,XArbitraryZVertical,-0.3869875574849938,-0.2729158796376361,-0.1657284847598473,0.8650383898962977,-0.6004351377487183,0.5790582895278931,-0.5515151023864746,0,0,0,-1,-1,29382.265214,unknown,2,2025-04-22T12:09:52.710+03:00,2025-04-21T17:08:51.449+03:00,7208,0.9677966,0,0,6015.835,5,20,2025-04-22T12:09:26.917+03:00,767005813.448632,0,-20.61,100.4508,1,0.85,2025-04-22T12:10:10.706+03:00,84,1.4,2025-04-22T09:54:17.825+03:00,0.02225348692287972,0
2025-04-22T12:10:14.407+03:00,1745313008.972918,40.95222567643675,29.14026538326243,76.34016,-1,-1,-1,-1,30,20.32104858318339,-9999,29403.956961375,-0.605621337890625,0.5810546875,-0.545623779296875,29403.946885375,-0.6572396037610443,-0.8281572418998555,-0.6179903476135149,-0.04930799826979637,-0.02676154300570488,0.02271643280982971,-0.0006725788116455078,-0.007438063621520996,0.005033791065216064,XArbitraryZVertical,-0.3872058594853323,-0.2729305273177879,-0.165661580361509,0.8649489207121376,-0.6004322171211243,0.5793983936309814,-0.5511611104011536,0,0,0,-1,-1,29382.265214,unknown,2,2025-04-22T12:09:52.710+03:00,2025-04-21T17:08:51.449+03:00,7208,0.9677966,0,0,6015.835,5,20,2025-04-22T12:09:26.917+03:00,767005813.448632,0,-20.61,100.4508,1,0.85,2025-04-22T12:10:10.706+03:00,84,1.4,2025-04-22T09:54:17.825+03:00,0.02225348692287972,0
2025-04-22T12:10:14.417+03:00,1745313008.972918,40.95222567643675,29.14026538326243,76.34016,-1,-1,-1,-1,30,20.32104858318339,-9999,29403.967037375,-0.5971832275390625,0.5753326416015625,-0.5477447509765625,29403.956961375,-0.6575326641370868,-0.8286532651445981,-0.618478557603701,-0.05195864289999008,-0.03432252258062363,0.02249965257942677,0.003634214401245117,0.0001749396324157715,0.004743039608001709,XArbitraryZVertical,-0.3874787483715321,-0.2729912698336739,-0.1655817302953198,0.864822852589042,-0.6004970073699951,0.5797961950302124,-0.5506719946861267,0,0,0,-1,-1,29382.265214,unknown,2,2025-04-22T12:09:52.710+03:00,2025-04-21T17:08:51.449+03:00,7208,0.9677966,0,0,6015.835,5,20,2025-04-22T12:09:26.917+03:00,767005813.448632,0,-20.61,100.4508,1,0.85,2025-04-22T12:10:10.706+03:00,84,1.4,2025-04-22T09:54:17.825+03:00,0.02225348692287972,0
2025-04-22T12:10:14.427+03:00,1745313008.972918,40.95222567643675,29.14026538326243,76.34016,-1,-1,-1,-1,30,20.32104858318339,-9999,29403.977113375,-0.596160888671875,0.5755462646484375,-0.549774169921875,29403.967037375,-0.6577438746519446,-0.829075784446795,-0.6190289280487573,-0.04805710911750793,-0.02624968439340591,0.03909966722130775,-0.005676448345184326,0.0003522634506225586,0.004227817058563232,XArbitraryZVertical,-0.3877587230323583,-0.2730236165148019,-0.1654665092759069,0.864709214628405,-0.6004942655563354,0.5802445411682129,-0.5502025485038757,0,0,0,-1,-1,29382.265214,unknown,2,2025-04-22T12:09:52.710+03:00,2025-04-21T17:08:51.449+03:00,7208,0.9677966,0,0,6015.835,5,20,2025-04-22T12:09:26.917+03:00,767005813.448632,0,-20.61,100.4508,1,0.85,2025-04-22T12:10:10.706+03:00,84,1.4,2025-04-22T09:54:17.825+03:00,0.02225348692287972,0
2025-04-22T12:10:14.437+03:00,1745313008.972918,40.95222567643675,29.14026538326243,76.34016,-1,-1,-1,-1,30,20.32104858318339,-9999,29403.987188375,-0.6108245849609375,0.586151123046875,-0.549102783203125,29403.977113375,-0.6578759684422579,-0.8293748269345272,-0.6198171867209386,-0.07370787858963013,-0.01391338929533958,0.05807548761367798,0.00515216588973999,-0.005462288856506348,0.00215226411819458,XArbitraryZVertical,-0.3881109979684403,-0.2729705073557853,-0.1652869925648252,0.8646022851605097,-0.6003212332725525,0.5808863639831543,-0.5497139096260071,0,0,0,-1,-1,29382.265214,unknown,2,2025-04-22T12:09:52.710+03:00,2025-04-21T17:08:51.449+03:00,7208,0.9677966,0,0,6015.835,5,20,2025-04-22T12:09:26.917+03:00,767005813.448632,0,-20.61,100.4508,1,0.85,2025-04-22T12:10:10.706+03:00,84,1.4,2025-04-22T09:54:17.825+03:00,0.02225348692287972,0
2025-04-22T12:10:14.447+03:00,1745313008.972918,40.95222567643675,29.14026538326243,76.34016,-1,-1,-1,-1,30,20.32104858318339,-9999,29403.997264375,-0.60968017578125,0.5858917236328125,-0.5490570068359375,29403.987188375,-0.6580404128718453,-0.8294456296819476,-0.6207426544408078,-0.06770724058151245,0.01329532824456692,0.04969159141182899,0.002535998821258545,-0.005467712879180908,-0.0004507899284362793,XArbitraryZVertical,-0.3885026110595388,-0.272785033610993,-0.1651345328644178,0.864513995240104,-0.599963366985321,0.5816394090652466,-0.5493081212043762,0,0,0,-1,-1,29382.265214,unknown,2,2025-04-22T12:09:52.710+03:00,2025-04-21T17:08:51.449+03:00,7208,0.9677966,0,0,6015.835,5,20,2025-04-22T12:09:26.917+03:00,767005813.448632,0,-20.61,100.4508,1,0.85,2025-04-22T12:10:10.706+03:00,84,1.4,2025-04-22T09:54:17.825+03:00,0.02225348692287972,0
2025-04-22T12:10:14.457+03:00,1745313008.972918,40.95222567643675,29.14026538326243,76.34016,-1,-1,-1,-1,30,20.32104858318339,-9999,29404.007340375,-0.5914459228515625,0.580841064453125,-0.5459747314453125,29403.997264375,-0.6582765846166316,-0.8293847680511238,-0.6214784722252166,-0.05177567899227142,0.02614694461226463,0.02949977107346058,-0.01278209686279297,0.005378007888793945,0.0004409551620483398,XArbitraryZVertical,-0.3888185418590758,-0.2725663503401168,-0.1650816214905772,0.8644510736254866,-0.599614143371582,0.5822378396987915,-0.5490554571151733,0,0,0,-1,-1,29382.265214,unknown,2,2025-04-22T12:09:52.710+03:00,2025-04-21T17:08:51.449+03:00,7208,0.9677966,0,0,6015.835,5,20,2025-04-22T12:09:26.917+03:00,767005813.448632,0,-20.61,100.4508,1,0.85,2025-04-22T12:10:10.706+03:00,84,1.4,2025-04-22T09:54:17.825+03:00,0.02225348692287972,0
2025-04-22T12:10:14.467+03:00,1745313008.972918,40.95222567643675,29.14026538326243,76.34016,-1,-1,-1,-1,30,20.32104858318339,-9999,29404.017416375,-0.594146728515625,0.5845947265625,-0.5428314208984375,29404.007340375,-0.6582230557737671,-0.8286514274789269,-0.6216567435666087,0.05762764066457748,0.1550640612840652,0.00127525650896132,-0.009309351444244385,0.002211868762969971,0.0006730556488037109,XArbitraryZVertical,-0.3888206270455576,-0.2722242809246257,-0.1651606585688066,0.8645429108862274,-0.5991348624229431,0.5823827385902405,-0.549424946308136,0,0,0,-1,-1,29382.265214,unknown,2,2025-04-22T12:09:52.710+03:00,2025-04-21T17:08:51.449+03:00,7208,0.9677966,0,0,6015.835,5,20,2025-04-22T12:09:26.917+03:00,767005813.448632,0,-20.61,100.4508,1,0.85,2025-04-22T12:10:10.706+03:00,84,1.4,2025-04-22T09:54:17.825+03:00,0.02225348692287972,0
2025-04-22T12:10:14.477+03:00,1745313008.972918,40.95222567643675,29.14026538326243,76.34016,-1,-1,-1,-1,30,20.32104858318339,-9999,29404.027492375,-0.64727783203125,0.6186065673828125,-0.532989501953125,29404.017416375,-0.6572064799460613,-0.8254774750712057,-0.6206355350903836,0.1132403016090393,0.2361831367015839,-0.01544566731899977,0.008087813854217529,-0.001016497611999512,0.006972789764404297,XArbitraryZVertical,-0.3880189938910803,-0.2712523601977194,-0.1655685304943582,0.8651303304628052,-0.59782475233078,0.581552267074585,-0.5517268180847168,0,0,0,-1,-1,29382.265214,unknown,2,2025-04-22T12:09:52.710+03:00,2025-04-21T17:08:51.449+03:00,7208,0.9677966,0,0,6015.835,5,20,2025-04-22T12:09:26.917+03:00,767005813.448632,0,-20.61,100.4508,1,0.85,2025-04-22T12:10:10.706+03:00,84,1.4,2025-04-22T09:54:17.825+03:00,0.02225348692287972,0
2025-04-22T12:10:14.487+03:00,1745313008.972918,40.95222567643675,29.14026538326243,76.34016,-1,-1,-1,-1,30,20.32104858318339,-9999,29404.037568375,-0.593994140625,0.600616455078125,-0.5326385498046875,29404.027492375,-0.6563966405336444,-0.8232500656378063,-0.6198922666268867,0.08986353874206543,0.1105537712574005,-0.007676193956285715,-0.001096069812774658,0.005569696426391602,0.01064139604568481,XArbitraryZVertical,-0.387432515617845,-0.2705932116297496,-0.1658176526763248,0.8655516904534721,-0.5969111323356628,0.5809474587440491,-0.5533507466316223,0,0,0,-1,-1,29382.265214,unknown,2,2025-04-22T12:09:52.710+03:00,2025-04-21T17:08:51.449+03:00,7208,0.9677966,0,0,6015.835,5,20,2025-04-22T12:09:26.917+03:00,767005813.448632,0,-20.61,100.4508,1,0.85,2025-04-22T12:10:10.706+03:00,84,1.4,2025-04-22T09:54:17.825+03:00,0.02225348692287972,0
2025-04-22T12:10:14.497+03:00,1745313008.972918,40.95222567643675,29.14026538326243,76.34016,-1,-1,-1,-1,30,20.32104858318339,-9999,29404.047643375,-0.51336669921875,0.527862548828125,-0.5337982177734375,29404.037568375,-0.65593797203799,-0.8226632759867745,-0.6192866457327437,0.0478401891887188,-0.03535816073417664,-0.02771621569991112,-0.05324137210845947,0.04218029975891113,0.02313268184661865,XArbitraryZVertical,-0.3870834829552007,-0.2705481772494113,-0.1658692114868764,0.8657120288651533,-0.5968440771102905,0.580454409122467,-0.5539401173591614,0,0,0,-1,-1,29382.265214,unknown,2,2025-04-22T12:09:52.710+03:00,2025-04-21T17:08:51.449+03:00,7208,0.9677966,0,0,6015.835,5,20,2025-04-22T12:09:26.917+03:00,767005813.448632,0,-20.61,100.4508,1,0.85,2025-04-22T12:10:10.706+03:00,84,1.4,2025-04-22T09:54:17.825+03:00,0.02225348692287972,0
2025-04-22T12:10:14.508+03:00,1745313008.972918,40.95222567643675,29.14026538326243,76.34016,-1,-1,-1,-1,30,20.32104858318339,-9999,29404.057719375,-0.5666961669921875,0.5576629638671875,-0.539520263671875,29404.047643375,-0.6558982570732855,-0.8231683939054226,-0.618880420973471,0.01941147819161415,-0.04656074941158295,-0.02442601136863232,0.01900374889373779,0.009445488452911377,0.0195125937461853,XArbitraryZVertical,-0.3869600531800761,-0.2708550488320361,-0.1658458093761363,0.8656758487273045,-0.5972967743873596,0.5801236033439636,-0.5537989139556885,0,0,0,-1,-1,29382.265214,unknown,2,2025-04-22T12:09:52.710+03:00,2025-04-21T17:08:51.449+03:00,7208,0.9677966,0,0,6015.835,5,20,2025-04-22T12:09:26.917+03:00,767005813.448632,0,-20.61,100.4508,1,0.85,2025-04-22T12:10:10.706+03:00,84,1.4,2025-04-22T09:54:17.825+03:00,0.02225348692287972,0
2025-04-22T12:10:14.518+03:00,1745313008.972918,40.95222567643675,29.14026538326243,76.34016,-1,-1,-1,-1,30,20.32104858318339,-9999,29404.067795375,-0.6275634765625,0.5882568359375,-0.5511322021484375,29404.057719375,-0.6558545745695438,-0.8232777848018055,-0.6185670042589319,0.02767047472298145,0.02073946222662926,-0.01779820211231709,0.08282691240310669,-0.0527535080909729,0.02057772874832153,XArbitraryZVertical,-0.3868398576150492,-0.2709729800940683,-0.1658763570481042,0.8656867802163605,-0.5974906086921692,0.5798682570457458,-0.553857147693634,0,0,0,-1,-1,29382.265214,unknown,2,2025-04-22T12:09:52.710+03:00,2025-04-21T17:08:51.449+03:00,7208,0.9677966,0,0,6015.835,5,20,2025-04-22T12:09:26.917+03:00,767005813.448632,0,-20.61,100.4508,1,0.85,2025-04-22T12:10:10.706+03:00,84,1.4,2025-04-22T09:54:17.825+03:00,0.02225348692287972,0
2025-04-22T12:10:14.528+03:00,1745313008.972918,40.95222567643675,29.14026538326243,76.34016,-1,-1,-1,-1,30,20.32104858318339,-9999,29404.077871375,-0.6090545654296875,0.581634521484375,-0.55706787109375,29404.067795375,-0.6557231259725361,-0.8229276620480583,-0.6182480285548867,0.0309621412307024,0.02183668687939644,-0.01438136771321297,0.02011591196060181,-0.01608610153198242,0.01305431127548218,XArbitraryZVertical,-0.386667416981838,-0.2709100681087192,-0.1659590315656631,0.8657677029665135,-0.5974322557449341,0.5796083807945251,-0.554192066192627,0,0,0,-1,-1,29382.265214,unknown,2,2025-04-22T12:09:52.710+03:00,2025-04-21T17:08:51.449+03:00,7208,0.9677966,0,0,6015.835,5,20,2025-04-22T12:09:26.917+03:00,767005813.448632,0,-20.61,100.4508,1,0.85,2025-04-22T12:10:10.706+03:00,84,1.4,2025-04-22T09:54:17.825+03:00,0.02225348692287972,0
2025-04-22T12:10:14.538+03:00,1745313008.972918,40.95222567643675,29.14026538326243,76.34016,-1,-1,-1,-1,30,20.32104858318339,-9999,29404.087947375,-0.579010009765625,0.56732177734375,-0.55584716796875,29404.077871375,-0.6556443755144463,-0.822911666733262,-0.6179362620337228,0.02141524106264114,-0.02387221530079842,-0.0205290075391531,-0.03208285570144653,0.01015365123748779,0.001971602439880371,XArbitraryZVertical,-0.3865326730933377,-0.2709801441348431,-0.1659982532988768,0.8657984180149779,-0.5975558757781982,0.5793542861938477,-0.5543245077133179,0,0,0,-1,-1,29382.265214,unknown,2,2025-04-22T12:09:52.710+03:00,2025-04-21T17:08:51.449+03:00,7208,0.9677966,0,0,6015.835,5,20,2025-04-22T12:09:26.917+03:00,767005813.448632,0,-20.61,100.4508,1,0.85,2025-04-22T12:10:10.706+03:00,84,1.4,2025-04-22T09:54:17.825+03:00,0.02225348692287972,0
2025-04-22T12:10:14.548+03:00,1745313008.972918,40.95222567643675,29.14026538326243,76.34016,-1,-1,-1,-1,30,20.32104858318339,-9999,29404.098023375,-0.5877685546875,0.568145751953125,-0.5552978515625,29404.087947375,-0.6556683489097647,-0.8232634856807857,-0.617659121793986,0.01262421254068613,-0.03676557540893555,-0.02077465318143368,-0.005586147308349609,0.0008885860443115234,-0.003409147262573242,XArbitraryZVertical,-0.3864560532051999,-0.2711827161622219,-0.1660030528968705,0.8657681668922268,-0.5978685021400452,0.5791283845901489,-0.5542232990264893,0,0,0,-1,-1,29382.265214,unknown,2,2025-04-22T12:09:52.710+03:00,2025-04-21T17:08:51.449+03:00,7208,0.9677966,0,0,6015.835,5,20,2025-04-22T12:09:26.917+03:00,767005813.448632,0,-20.61,100.4508,1,0.85,2025-04-22T12:10:10.706+03:00,84,1.4,2025-04-22T09:54:17.825+03:00,0.02225348692287972,0
2025-04-22T12:10:14.558+03:00,1745313008.972918,40.95222567643675,29.14026538326243,76.34016,-1,-1,-1,-1,30,20.32104858318339,-9999,29404.108098375,-0.60333251953125,0.57330322265625,-0.5542449951171875,29404.098023375,-0.6557847150152973,-0.8236525698818582,-0.6174800944882975,0.002486357698217034,-0.02858008444309235,-0.02062072232365608,0.02029454708099365,-0.01237791776657104,-0.001953959465026855,XArbitraryZVertical,-0.3864336351924404,-0.2713641303857359,-0.1660185879699521,0.8657183791816708,-0.5981601476669312,0.578982412815094,-0.5540611147880554,0,0,0,-1,-1,29382.265214,unknown,2,2025-04-22T12:09:52.710+03:00,2025-04-21T17:08:51.449+03:00,7208,0.9677966,0,0,6015.835,5,20,2025-04-22T12:09:26.917+03:00,767005813.448632,0,-20.61,100.4508,1,0.85,2025-04-22T12:10:10.706+03:00,84,1.4,2025-04-22T09:54:17.825+03:00,0.02225348692287972,0
2025-04-22T12:10:14.568+03:00,1745313008.972918,40.95222567643675,29.14026538326243,76.34016,-1,-1,-1,-1,30,20.32104858318339,-9999,29404.118174375,-0.6039581298828125,0.571563720703125,-0.548797607421875,29404.108098375,-0.6559235675705529,-0.8240249773775312,-0.6173396575295003,0.000195972592337057,-0.03054183349013329,-0.01876359805464745,0.008811235427856445,-0.00977623462677002,-0.001129627227783203,XArbitraryZVertical,-0.3864281067119256,-0.2715263285087945,-0.1660383897604548,0.8656661985226545,-0.5984261035919189,0.5788679122924805,-0.5538935661315918,0,0,0,-1,-1,29382.265214,unknown,2,2025-04-22T12:09:52.710+03:00,2025-04-21T17:08:51.449+03:00,7208,0.9677966,0,0,6015.835,5,20,2025-04-22T12:09:26.917+03:00,767005813.448632,0,-20.61,100.4508,1,0.85,2025-04-22T12:10:10.706+03:00,84,1.4,2025-04-22T09:54:17.825+03:00,0.02225348692287972,0
2025-04-22T12:10:14.579+03:00,1745313008.972918,40.95222567643675,29.14026538326243,76.34016,-1,-1,-1,-1,30,20.32104858318339,-9999,29404.128250375,-0.6018524169921875,0.56951904296875,-0.5398406982421875,29404.118174375,-0.656187610769209,-0.8245783692933322,-0.617317678909194,-0.01557393558323383,-0.03308169171214104,-0.01216987799853086,-0.005262017250061035,-0.004738152027130127,-0.000262141227722168,XArbitraryZVertical,-0.3865012668024854,-0.2717191758186375,-0.1660506903084412,0.865570646821093,-0.598741888999939,0.5788499712944031,-0.5535709261894226,0,0,0,-1,-1,29382.265214,unknown,2,2025-04-22T12:09:52.710+03:00,2025-04-21T17:08:51.449+03:00,7208,0.9677966,0,0,6015.835,5,20,2025-04-22T12:09:26.917+03:00,767005813.448632,0,-20.61,100.4508,1,0.85,2025-04-22T12:10:10.706+03:00,84,1.4,2025-04-22T09:54:17.825+03:00,0.02225348692287972,0
2025-04-22T12:10:14.588+03:00,1745313008.972918,40.95222567643675,29.14026538326243,76.34016,-1,-1,-1,-1,30,20.32104858318339,-9999,29404.138326375,-0.6037750244140625,0.5722503662109375,-0.5392303466796875,29404.128250375,-0.6564374047906378,-0.8250121004959702,-0.6174262566066093,-0.01976408623158932,-0.02298877760767937,-0.007831289432942867,-0.004442512989044189,-0.007970035076141357,0.005157589912414551,XArbitraryZVertical,-0.3866139418805931,-0.2718370693546124,-0.1660504687922668,0.8654833636680094,-0.5989357829093933,0.5789385437965393,-0.5532685518264771,0,0,0,-1,-1,29382.265214,unknown,2,2025-04-22T12:09:52.710+03:00,2025-04-21T17:08:51.449+03:00,7208,0.9677966,0,0,6015.835,5,20,2025-04-22T12:09:26.917+03:00,767005813.448632,0,-20.61,100.4508,1,0.85,2025-04-22T12:10:10.706+03:00,84,1.4,2025-04-22T09:54:17.825+03:00,0.02225348692287972,0
2025-04-22T12:10:14.598+03:00,1745313008.972918,40.95222567643675,29.14026538326243,76.34016,-1,-1,-1,-1,30,20.32104858318339,-9999,29404.148402375,-0.599456787109375,0.5766143798828125,-0.5407562255859375,29404.138326375,-0.6565531605899489,-0.8251612279703956,-0.6174953780986039,-0.009439810179173946,-0.01062798127532005,-0.00322854844853282,-0.002451598644256592,-0.009735345840454102,0.01440995931625366,XArbitraryZVertical,-0.3866692792629792,-0.2718655106016016,-0.1660561234984518,0.8654485679462856,-0.5989888310432434,0.5789948701858521,-0.5531520247459412,0,0,0,-1,-1,29382.265214,unknown,2,2025-04-22T12:09:52.710+03:00,2025-04-21T17:08:51.449+03:00,7208,0.9677966,0,0,6015.835,5,20,2025-04-22T12:09:26.917+03:00,767005813.448632,0,-20.61,100.4508,1,0.85,2025-04-22T12:10:10.706+03:00,84,1.4,2025-04-22T09:54:17.825+03:00,0.02225348692287972,0
2025-04-22T12:10:14.609+03:00,1745313008.972918,40.95222567643675,29.14026538326243,76.34016,-1,-1,-1,-1,30,20.32104858318339,-9999,29404.158478375,-0.5832977294921875,0.579071044921875,-0.541534423828125,29404.148402375,-0.6565827370707984,-0.8252688587424091,-0.6174902224589556,0.006406197790056467,-0.01094150077551603,-0.001795801101252437,-0.004816055297851562,-0.006114840507507324,0.01384401321411133,XArbitraryZVertical,-0.3866801965623441,-0.2719073904347107,-0.1660492803718115,0.8654318708517807,-0.5990505814552307,0.5789906978607178,-0.5530896186828613,0,0,0,-1,-1,29382.265214,unknown,2,2025-04-22T12:09:52.710+03:00,2025-04-21T17:08:51.449+03:00,7208,0.9677966,0,0,6015.835,5,20,2025-04-22T12:09:26.917+03:00,767005813.448632,0,-20.61,100.4508,1,0.85,2025-04-22T12:10:10.706+03:00,84,1.4,2025-04-22T09:54:17.825+03:00,0.02225348692287972,0
2025-04-22T12:10:14.619+03:00,1745313008.972918,40.95222567643675,29.14026538326243,76.34016,-1,-1,-1,-1,30,20.32104858318339,-9999,29404.168553375,-0.57452392578125,0.577484130859375,-0.5473480224609375,29404.158478375,-0.656575294183976,-0.8254749643876474,-0.6174432788798879,0.006347608286887407,-0.02143009379506111,0.0004777394933626056,0.001741886138916016,-0.001483678817749023,0.01178580522537231,XArbitraryZVertical,-0.3866778541068429,-0.2720073224649391,-0.1660167977190523,0.86540768453558,-0.599184513092041,0.578952431678772,-0.5529845356941223,0,0,0,-1,-1,29382.265214,unknown,2,2025-04-22T12:09:52.710+03:00,2025-04-21T17:08:51.449+03:00,7208,0.9677966,0,0,6015.835,5,20,2025-04-22T12:09:26.917+03:00,767005813.448632,0,-20.61,100.4508,1,0.85,2025-04-22T12:10:10.706+03:00,84,1.4,2025-04-22T09:54:17.825+03:00,0.02225348692287972,0
2025-04-22T12:10:14.629+03:00,1745313008.972918,40.95222567643675,29.14026538326243,76.34016,-1,-1,-1,-1,30,20.32104858318339,-9999,29404.178629375,-0.5762939453125,0.580810546875,-0.550323486328125,29404.168553375,-0.6564766578594254,-0.8256621062245003,-0.6173971639039777,0.007260540034621954,-0.02639342844486237,0.003900833427906036,0.01747477054595947,0.000568091869354248,0.01105093955993652,XArbitraryZVertical,-0.3866617632076564,-0.2721165239228954,-0.1659483698348609,0.8653938057753894,-0.5993077158927917,0.5789148211479187,-0.5528905391693115,0,0,0,-1,-1,29382.265214,unknown,2,2025-04-22T12:09:52.710+03:00,2025-04-21T17:08:51.449+03:00,7208,0.9677966,0,0,6015.835,5,20,2025-04-22T12:09:26.917+03:00,767005813.448632,0,-20.61,100.4508,1,0.85,2025-04-22T12:10:10.706+03:00,84,1.4,2025-04-22T09:54:17.825+03:00,0.02225348692287972,0
2025-04-22T12:10:14.639+03:00,1745313008.972918,40.95222567643675,29.14026538326243,76.34016,-1,-1,-1,-1,30,20.32104858318339,-9999,29404.188705375,-0.5853424072265625,0.5858001708984375,-0.554656982421875,29404.178629375,-0.6563124961233889,-0.8258242049098602,-0.6173430983928043,0.01308354176580906,-0.03003636375069618,0.004376474302262068,0.02541512250900269,-0.001127302646636963,0.004886746406555176,XArbitraryZVertical,-0.3866316071091333,-0.2722291223684306,-0.1658582049219363,0.8653891354528029,-0.5994203090667725,0.5788707137107849,-0.5528146028518677,0,0,0,-1,-1,29382.265214,unknown,2,2025-04-22T12:09:52.710+03:00,2025-04-21T17:08:51.449+03:00,7208,0.9677966,0,0,6015.835,5,20,2025-04-22T12:09:26.917+03:00,767005813.448632,0,-20.61,100.4508,1,0.85,2025-04-22T12:10:10.706+03:00,84,1.4,2025-04-22T09:54:17.825+03:00,0.02225348692287972,0
2025-04-22T12:10:14.649+03:00,1745313008.972918,40.95222567643675,29.14026538326243,76.34016,-1,-1,-1,-1,30,20.32104858318339,-9999,29404.19878204167,-0.5912017822265625,0.5858917236328125,-0.555389404296875,29404.188705375,-0.6561266559240847,-0.8260497410953764,-0.6172206886714539,0.0207811426371336,-0.040738545358181,6.974319694563746e-05,0.02263170480728149,0.002787232398986816,0.002480268478393555,XArbitraryZVertical,-0.3865768409638763,-0.2723869093283945,-0.1657618400096305,0.8653824251523287,-0.5995970368385315,0.5787708759307861,-0.5527274608612061,0,0,0,-1,-1,29382.265214,unknown,2,2025-04-22T12:09:52.710+03:00,2025-04-21T17:08:51.449+03:00,7208,0.9677966,0,0,6015.835,5,20,2025-04-22T12:09:26.917+03:00,767005813.448632,0,-20.61,100.4508,1,0.85,2025-04-22T12:10:10.706+03:00,84,1.4,2025-04-22T09:54:17.825+03:00,0.02225348692287972,0
2025-04-22T12:10:14.659+03:00,1745313008.972918,40.95222567643675,29.14026538326243,76.34016,-1,-1,-1,-1,30,20.32104858318339,-9999,29404.20885804167,-0.59381103515625,0.576812744140625,-0.55084228515625,29404.19878204167,-0.6560103096425844,-0.8264577376937018,-0.6171309513170037,0.005335074383765459,-0.05468392372131348,0.0005397910717874765,0.01320600509643555,0.007834732532501221,-0.002535820007324219,XArbitraryZVertical,-0.3865595254099552,-0.2726037191685177,-0.165652896179481,0.865342673834914,-0.599860668182373,0.5786977410316467,-0.5525178909301758,0,0,0,-1,-1,29382.265214,unknown,2,2025-04-22T12:09:52.710+03:00,2025-04-21T17:08:51.449+03:00,7208,0.9677966,0,0,6015.835,5,20,2025-04-22T12:09:26.917+03:00,767005813.448632,0,-20.61,100.4508,1,0.85,2025-04-22T12:10:10.706+03:00,84,1.4,2025-04-22T09:54:17.825+03:00,0.02225348692287972,0
2025-04-22T12:10:14.669+03:00,1745313008.972918,40.95222567643675,29.14026538326243,76.34016,-1,-1,-1,-1,30,20.32104858318339,-9999,29404.21893404167,-0.597564697265625,0.5672149658203125,-0.545684814453125,29404.20885804167,-0.6560234083093266,-0.8270967712112989,-0.6171115487564914,-0.004749451298266649,-0.06782308965921402,-0.0003141181368846446,0.007936716079711914,0.006019532680511475,-0.002850592136383057,XArbitraryZVertical,-0.3866065617281372,-0.2728815157056929,-0.1655394381483864,0.8652558745087121,-0.6002219319343567,0.5786818861961365,-0.5521420836448669,0,0,0,-1,-1,29382.265214,unknown,2,2025-04-22T12:09:52.710+03:00,2025-04-21T17:08:51.449+03:00,7208,0.9677966,0,0,6015.835,5,20,2025-04-22T12:09:26.917+03:00,767005813.448632,0,-20.61,100.4508,1,0.85,2025-04-22T12:10:10.706+03:00,84,1.4,2025-04-22T09:54:17.825+03:00,0.02225348692287972,0
2025-04-22T12:10:14.682+03:00,1745313008.972918,40.95222567643675,29.14026538326243,76.34016,-1,-1,-1,-1,30,20.32104858318339,-9999,29404.22900904167,-0.6046905517578125,0.5625762939453125,-0.54132080078125,29404.21893404167,-0.6561682619894721,-0.8278965093002063,-0.6172131018166706,-0.0239401888102293,-0.0691906213760376,0.003884088946506381,0.006473243236541748,-0.002608299255371094,0.001573264598846436,XArbitraryZVertical,-0.3867324875460003,-0.2731793272807623,-0.1654245060611296,0.8651275013114116,-0.6006199717521667,0.5787647366523743,-0.5516220927238464,0,0,0,-1,-1,29382.265214,unknown,2,2025-04-22T12:09:52.710+03:00,2025-04-21T17:08:51.449+03:00,7208,0.9677966,0,0,6015.835,5,20,2025-04-22T12:09:26.917+03:00,767005813.448632,0,-20.61,100.4508,1,0.85,2025-04-22T12:10:10.706+03:00,84,1.4,2025-04-22T09:54:17.825+03:00,0.02225348692287972,0
2025-04-22T12:10:14.689+03:00,1745313008.972918,40.95222567643675,29.14026538326243,76.34016,-1,-1,-1,-1,30,20.32104858318339,-9999,29404.23908504167,-0.6022491455078125,0.563995361328125,-0.54156494140625,29404.22900904167,-0.656431824448739,-0.8287623429928357,-0.6174657661711656,-0.03898405283689499,-0.06812023371458054,0.006943694781512022,0.00244826078414917,-0.01248836517333984,0.006172716617584229,XArbitraryZVertical,-0.3869394342689179,-0.2734527102856909,-0.1653138566545025,0.8649697131416071,-0.6009895205497742,0.578970730304718,-0.5510029792785645,0,0,0,-1,-1,29382.265214,unknown,2,2025-04-22T12:09:52.710+03:00,2025-04-21T17:08:51.449+03:00,7208,0.9677966,0,0,6015.835,5,20,2025-04-22T12:09:26.917+03:00,767005813.448632,0,-20.61,100.4508,1,0.85,2025-04-22T12:10:10.706+03:00,84,1.4,2025-04-22T09:54:17.825+03:00,0.02225348692287972,0
2025-04-22T12:10:14.701+03:00,1745313008.972918,40.95222567643675,29.14026538326243,76.34016,-1,-1,-1,-1,30,20.32104858318339,-9999,29404.24916104167,-0.594757080078125,0.5700836181640625,-0.5464630126953125,29404.23908504167,-0.6567475453735007,-0.8296831051920546,-0.6178267331421905,-0.04364405199885368,-0.07889698445796967,0.01042790804058313,-0.003927946090698242,-0.01670408248901367,0.008544981479644775,XArbitraryZVertical,-0.3872005047550433,-0.2737181269575044,-0.1651904485298413,0.8647925904217146,-0.6013424396514893,0.5792649984359741,-0.5503082871437073,0,0,0,-1,-1,29382.265214,unknown,2,2025-04-22T12:09:52.710+03:00,2025-04-21T17:08:51.449+03:00,7208,0.9677966,0,0,6015.835,5,20,2025-04-22T12:09:26.917+03:00,767005813.448632,0,-20.61,100.4508,1,0.85,2025-04-22T12:10:10.706+03:00,84,1.4,2025-04-22T09:54:17.825+03:00,0.02225348692287972,0
2025-04-22T12:10:14.723+03:00,1745313008.972918,40.95222567643675,29.14026538326243,76.34016,-1,-1,-1,-1,30,20.32104858318339,-9999,29404.25923704167,-0.588836669921875,0.578094482421875,-0.550384521484375,29404.24916104167,-0.6570272885036497,-0.8306795204058546,-0.618231723890213,-0.038039430975914,-0.08963591605424881,0.01157253514975309,0.0002157092094421387,-0.01448595523834229,0.007283806800842285,XArbitraryZVertical,-0.3874801376780241,-0.2740143013046821,-0.1650266095356288,0.86460482503467,-0.6017172336578369,0.5795950889587402,-0.5495505928993225,0,0,0,-1,-1,29382.265214,unknown,2,2025-04-22T12:09:52.710+03:00,2025-04-21T17:08:51.449+03:00,7208,0.9677966,0,0,6015.835,5,20,2025-04-22T12:09:26.917+03:00,767005813.448632,0,-20.61,100.4508,1,0.85,2025-04-22T12:10:10.706+03:00,84,1.4,2025-04-22T09:54:17.825+03:00,0.02225348692287972,0
2025-04-22T12:10:14.724+03:00,1745313008.972918,40.95222567643675,29.14026538326243,76.34016,-1,-1,-1,-1,30,20.32104858318339,-9999,29404.26931304167,-0.5865020751953125,0.5852508544921875,-0.5571746826171875,29404.25923704167,-0.6572022490318332,-0.8316587743842613,-0.6186071669145525,-0.03288648277521133,-0.09259122610092163,0.01100554782897234,0.008466243743896484,-0.008642613887786865,0.001939475536346436,XArbitraryZVertical,-0.3877323214422341,-0.2743290610113596,-0.164827244413788,0.8644298782563702,-0.6020941734313965,0.5799009799957275,-0.5488144159317017,0,0,0,-1,-1,29382.265214,unknown,2,2025-04-22T12:09:52.710+03:00,2025-04-21T17:08:51.449+03:00,7208,0.9677966,0,0,6015.835,5,20,2025-04-22T12:09:26.917+03:00,767005813.448632,0,-20.61,100.4508,1,0.85,2025-04-22T12:10:10.706+03:00,84,1.4,2025-04-22T09:54:17.825+03:00,0.02225348692287972,0
2025-04-22T12:10:14.729+03:00,1745313008.972918,40.95222567643675,29.14026538326243,76.34016,-1,-1,-1,-1,30,20.32104858318339,-9999,29404.27938904167,-0.5873565673828125,0.5842437744140625,-0.5620574951171875,29404.26931304167,-0.6572803298508494,-0.8326176804670015,-0.6188830755491121,-0.01400200463831425,-0.09983769059181213,0.009738682769238949,0.01438230276107788,-0.001268506050109863,-0.002789437770843506,XArbitraryZVertical,-0.3879303149282994,-0.274673475115829,-0.1646123688555529,0.8642725697740835,-0.6025017499923706,0.5801257491111755,-0.5481290817260742,0,0,0,-1,-1,29382.265214,unknown,2,2025-04-22T12:09:52.710+03:00,2025-04-21T17:08:51.449+03:00,7208,0.9677966,0,0,6015.835,5,20,2025-04-22T12:09:26.917+03:00,767005813.448632,0,-20.61,100.4508,1,0.85,2025-04-22T12:10:10.706+03:00,84,1.4,2025-04-22T09:54:17.825+03:00,0.02225348692287972,0
2025-04-22T12:10:14.739+03:00,1745313008.972918,40.95222567643675,29.14026538326243,76.34016,-1,-1,-1,-1,30,20.32104858318339,-9999,29404.28946404167,-0.590118408203125,0.5829315185546875,-0.5639801025390625,29404.27938904167,-0.6572343117127097,-0.8335922916921533,-0.6190512260829067,-0.002167715923860669,-0.1108527779579163,0.0117368521168828,0.01655298471450806,0.004988014698028564,-0.00971376895904541,XArbitraryZVertical,-0.3880700525181521,-0.2750700989932981,-0.1643652079525783,0.864130865264077,-0.6029635667800903,0.5802627205848694,-0.5474761724472046,0,0,0,-1,-1,29382.265214,unknown,2,2025-04-22T12:09:52.710+03:00,2025-04-21T17:08:51.449+03:00,7208,0.9677966,0,0,6015.835,5,20,2025-04-22T12:09:26.917+03:00,767005813.448632,0,-20.61,100.4508,1,0.85,2025-04-22T12:10:10.706+03:00,84,1.4,2025-04-22T09:54:17.825+03:00,0.02225348692287972,0
2025-04-22T12:10:14.749+03:00,1745313008.972918,40.95222567643675,29.14026538326243,76.34016,-1,-1,-1,-1,30,20.32104858318339,-9999,29404.29954004167,-0.5909881591796875,0.579986572265625,-0.564056396484375,29404.28946404167,-0.6570593069537389,-0.8346449267929654,-0.6191435596335763,0.009846002794802189,-0.1260973215103149,0.01650161296129227,0.01554811000823975,0.003295361995697021,-0.01627463102340698,XArbitraryZVertical,-0.3881686287912448,-0.2755404633774652,-0.1640643095664633,0.8639938562514963,-0.6034997701644897,0.5803378820419312,-0.5468051433563232,0,0,0,-1,-1,29382.265214,unknown,2,2025-04-22T12:09:52.710+03:00,2025-04-21T17:08:51.449+03:00,7208,0.9677966,0,0,6015.835,5,20,2025-04-22T12:09:26.917+03:00,767005813.448632,0,-20.61,100.4508,1,0.85,2025-04-22T12:10:10.706+03:00,84,1.4,2025-04-22T09:54:17.825+03:00,0.02225348692287972,0
2025-04-22T12:10:14.759+03:00,1745313008.972918,40.95222567643675,29.14026538326243,76.34016,-1,-1,-1,-1,30,20.32104858318339,-9999,29404.30961604167,-0.5951080322265625,0.57391357421875,-0.56085205078125,29404.29954004167,-0.6567708467255842,-0.8357845801807003,-0.619209730155606,0.0117749311029911,-0.1335962414741516,0.02381172403693199,0.01435708999633789,0.002966880798339844,-0.01772099733352661,XArbitraryZVertical,-0.3882481795067783,-0.2760755808446172,-0.1637034246516595,0.8638557333522052,-0.6040940880775452,0.5803918242454529,-0.5460912585258484,0,0,0,-1,-1,29382.265214,unknown,2,2025-04-22T12:09:52.710+03:00,2025-04-21T17:08:51.449+03:00,7208,0.9677966,0,0,6015.835,5,20,2025-04-22T12:09:26.917+03:00,767005813.448632,0,-20.61,100.4508,1,0.85,2025-04-22T12:10:10.706+03:00,84,1.4,2025-04-22T09:54:17.825+03:00,0.02225348692287972,0
2025-04-22T12:10:14.770+03:00,1745313008.972918,40.95222567643675,29.14026538326243,76.34016,-1,-1,-1,-1,30,20.32104858318339,-9999,29404.31969204167,-0.594146728515625,0.572418212890625,-0.5561676025390625,29404.30961604167,-0.6564526655280589,-0.8369767315248064,-0.619297386887926,0.008679937571287155,-0.1391346901655197,0.02618812955915928,0.01327615976333618,-0.002002596855163574,-0.01788055896759033,XArbitraryZVertical,-0.388336059885982,-0.2766347983414674,-0.1633145631965384,0.8637108773774648,-0.6047068238258362,0.580463171005249,-0.5453366041183472,0,0,0,-1,-1,29382.265214,unknown,2,2025-04-22T12:09:52.710+03:00,2025-04-21T17:08:51.449+03:00,7208,0.9677966,0,0,6015.835,5,20,2025-04-22T12:09:26.917+03:00,767005813.448632,0,-20.61,100.4508,1,0.85,2025-04-22T12:10:10.706+03:00,84,1.4,2025-04-22T09:54:17.825+03:00,0.02225348692287972,0
2025-04-22T12:10:14.780+03:00,1745313008.972918,40.95222567643675,29.14026538326243,76.34016,-1,-1,-1,-1,30,20.32104858318339,-9999,29404.32976804167,-0.591156005859375,0.573272705078125,-0.548187255859375,29404.31969204167,-0.6562079203112693,-0.8382889765946847,-0.6194816858840144,-0.008525148034095764,-0.1450053602457047,0.03328332304954529,0.01008176803588867,-0.006715059280395508,-0.01532810926437378,XArbitraryZVertical,-0.3884813842232006,-0.2772123212337976,-0.1629119896414095,0.8635364353020584,-0.6053424477577209,0.5806132555007935,-0.5444710850715637,0,0,0,-1,-1,29382.265214,unknown,2,2025-04-22T12:09:52.710+03:00,2025-04-21T17:08:51.449+03:00,7208,0.9677966,0,0,6015.835,5,20,2025-04-22T12:09:26.917+03:00,767005813.448632,0,-20.61,100.4508,1,0.85,2025-04-22T12:10:10.706+03:00,84,1.4,2025-04-22T09:54:17.825+03:00,0.02225348692287972,0
2025-04-22T12:10:14.790+03:00,1745313008.972918,40.95222567643675,29.14026538326243,76.34016,-1,-1,-1,-1,30,20.32104858318339,-9999,29404.33984404167,-0.5890350341796875,0.5746002197265625,-0.540283203125,29404.32976804167,-0.6560722535183091,-0.8396758915869701,-0.6198059362226508,-0.02176758274435997,-0.1470025926828384,0.03573323413729668,0.0126798152923584,-0.008504867553710938,-0.01153314113616943,XArbitraryZVertical,-0.3887023890867879,-0.2777729403161717,-0.1625098725707822,0.8633326091912892,-0.6059568524360657,0.5808771848678589,-0.5435053110122681,0,0,0,-1,-1,29382.265214,unknown,2,2025-04-22T12:09:52.710+03:00,2025-04-21T17:08:51.449+03:00,7208,0.9677966,0,0,6015.835,5,20,2025-04-22T12:09:26.917+03:00,767005813.448632,0,-20.61,100.4508,1,0.85,2025-04-22T12:10:10.706+03:00,84,1.4,2025-04-22T09:54:17.825+03:00,0.02225348692287972,0
2025-04-22T12:10:14.800+03:00,1745313008.972918,40.95222567643675,29.14026538326243,76.34016,-1,-1,-1,-1,30,20.32104858318339,-9999,29404.34991904167,-0.58929443359375,0.5709075927734375,-0.537017822265625,29404.33984404167,-0.6560485423902207,-0.8411146438374951,-0.6203001907653448,-0.04314690828323364,-0.1458385288715363,0.03923315927386284,0.01600891351699829,-0.007655918598175049,-0.004586160182952881,XArbitraryZVertical,-0.3890093644281935,-0.2783001832480336,-0.162106837885915,0.8631002746122389,-0.6065241098403931,0.581279456615448,-0.5424414277076721,0,0,0,-1,-1,29382.265214,unknown,2,2025-04-22T12:09:52.710+03:00,2025-04-21T17:08:51.449+03:00,7208,0.9677966,0,0,6015.835,5,20,2025-04-22T12:09:26.917+03:00,767005813.448632,0,-20.61,100.4508,1,0.85,2025-04-22T12:10:10.706+03:00,84,1.4,2025-04-22T09:54:17.825+03:00,0.02225348692287972,0
2025-04-22T12:10:14.829+03:00,1745313008.972918,40.95222567643675,29.14026538326243,76.34016,-1,-1,-1,-1,30,20.32104858318339,-9999,29404.35999504167,-0.5883941650390625,0.5716094970703125,-0.5377960205078125,29404.34991904167,-0.6561833876914854,-0.842633257923544,-0.620988424878769,-0.06294751167297363,-0.1502255499362946,0.04075422510504723,0.01822692155838013,-0.006812036037445068,0.001305878162384033,XArbitraryZVertical,-0.3894204245430588,-0.2787921790609888,-0.1617118120007048,0.8628300787945636,-0.6070483326911926,0.5818393230438232,-0.5412533283233643,0,0,0,-1,-1,29382.265214,unknown,2,2025-04-22T12:09:52.710+03:00,2025-04-21T17:08:51.449+03:00,7208,0.9677966,0,0,6015.835,5,20,2025-04-22T12:09:26.917+03:00,767005813.448632,0,-20.61,100.4508,1,0.85,2025-04-22T12:10:10.706+03:00,84,1.4,2025-04-22T09:54:17.825+03:00,0.02225348692287972,0
2025-04-22T12:10:14.833+03:00,1745313008.972918,40.95222567643675,29.14026538326243,76.34016,-1,-1,-1,-1,30,20.32104858318339,-9999,29404.37007104167,-0.5868988037109375,0.58056640625,-0.5417938232421875,29404.35999504167,-0.6563944404257214,-0.8442489870775391,-0.6217358346373044,-0.06415817886590958,-0.1627655774354935,0.03625534474849701,0.01851606369018555,-0.01240932941436768,0.003529548645019531,XArbitraryZVertical,-0.3898725509297131,-0.2792991024116183,-0.1613166166233735,0.8625359925044217,-0.6075968742370605,0.5824470520019531,-0.539982795715332,0,0,0,-1,-1,29382.265214,unknown,2,2025-04-22T12:09:52.710+03:00,2025-04-21T17:08:51.449+03:00,7208,0.9677966,0,0,6015.835,5,20,2025-04-22T12:09:26.917+03:00,767005813.448632,0,-20.61,100.4508,1,0.85,2025-04-22T12:10:10.706+03:00,84,1.4,2025-04-22T09:54:17.825+03:00,0.02225348692287972,0
2025-04-22T12:10:14.836+03:00,1745313008.972918,40.95222567643675,29.14026538326243,76.34016,-1,-1,-1,-1,30,20.32104858318339,-9999,29404.38014704167,-0.584503173828125,0.59100341796875,-0.53955078125,29404.37007104167,-0.6566014430932594,-0.8460119955101166,-0.6224213092432145,-0.05822259932756424,-0.1805614233016968,0.03340372815728188,0.01977843046188354,-0.01086068153381348,0.0008956789970397949,XArbitraryZVertical,-0.390311343123019,-0.2798822599823514,-0.1609044961739829,0.8622254345587927,-0.6082488894462585,0.5830041170120239,-0.5386459231376648,0,0,0,-1,-1,29382.265214,unknown,2,2025-04-22T12:09:52.710+03:00,2025-04-21T17:08:51.449+03:00,7208,0.9677966,0,0,6015.835,5,20,2025-04-22T12:09:26.917+03:00,767005813.448632,0,-20.61,100.4508,1,0.85,2025-04-22T12:10:10.706+03:00,84,1.4,2025-04-22T09:54:17.825+03:00,0.02225348692287972,0
2025-04-22T12:10:14.840+03:00,1745313008.972918,40.95222567643675,29.14026538326243,76.34016,-1,-1,-1,-1,30,20.32104858318339,-9999,29404.39022304167,-0.5865478515625,0.5882568359375,-0.5318450927734375,29404.38014704167,-0.6568256454956671,-0.8479209379570839,-0.6230276282352836,-0.05733096972107887,-0.1895136535167694,0.02451623044908047,0.02215778827667236,-0.001068770885467529,-0.004162430763244629,XArbitraryZVertical,-0.3907328441864899,-0.2805403271948237,-0.1604888398852131,0.8618981082057414,-0.6090108752250671,0.583496630191803,-0.5372499227523804,0,0,0,-1,-1,29382.265214,unknown,2,2025-04-22T12:09:52.710+03:00,2025-04-21T17:08:51.449+03:00,7208,0.9677966,0,0,6015.835,5,20,2025-04-22T12:09:26.917+03:00,767005813.448632,0,-20.61,100.4508,1,0.85,2025-04-22T12:10:10.706+03:00,84,1.4,2025-04-22T09:54:17.825+03:00,0.02225348692287972,0
2025-04-22T12:10:14.851+03:00,1745313008.972918,40.95222567643675,29.14026538326243,76.34016,-1,-1,-1,-1,30,20.32104858318339,-9999,29404.40029904167,-0.5873565673828125,0.5815277099609375,-0.532012939453125,29404.39022304167,-0.6570737126786659,-0.8499069939052379,-0.623592818666574,-0.06210322305560112,-0.1948656588792801,0.02778998762369156,0.02521878480911255,0.007261395454406738,-0.002859532833099365,XArbitraryZVertical,-0.391147395400878,-0.2812347008610294,-0.1600771642163117,0.8615601644947132,-0.609828770160675,0.5839555263519287,-0.5358214974403381,0,0,0,-1,-1,29382.265214,unknown,2,2025-04-22T12:09:52.710+03:00,2025-04-21T17:08:51.449+03:00,7208,0.9677966,0,0,6015.835,5,20,2025-04-22T12:09:26.917+03:00,767005813.448632,0,-20.61,100.4508,1,0.85,2025-04-22T12:10:10.706+03:00,84,1.4,2025-04-22T09:54:17.825+03:00,0.02225348692287972,0
2025-04-22T12:10:14.861+03:00,1745313008.972918,40.95222567643675,29.14026538326243,76.34016,-1,-1,-1,-1,30,20.32104858318339,-9999,29404.41037404167,-0.583099365234375,0.582366943359375,-0.5394744873046875,29404.40029904167,-0.6573160427960156,-0.8519986471587804,-0.6241667462130601,-0.0539558120071888,-0.2079218029975891,0.0271401759237051,0.02370554208755493,0.002645194530487061,0.003409743309020996,XArbitraryZVertical,-0.3915723781168399,-0.2819734583383962,-0.1596396711222942,0.8612068544780623,-0.6106958985328674,0.5844213366508484,-0.5343241095542908,0,0,0,-1,-1,29382.265214,unknown,2,2025-04-22T12:09:52.710+03:00,2025-04-21T17:08:51.449+03:00,7208,0.9677966,0,0,6015.835,5,20,2025-04-22T12:09:26.917+03:00,767005813.448632,0,-20.61,100.4508,1,0.85,2025-04-22T12:10:10.706+03:00,84,1.4,2025-04-22T09:54:17.825+03:00,0.02225348692287972,0
2025-04-22T12:10:14.871+03:00,1745313008.972918,40.95222567643675,29.14026538326243,76.34016,-1,-1,-1,-1,30,20.32104858318339,-9999,29404.42045004167,-0.5804443359375,0.5919952392578125,-0.5413665771484375,29404.41037404167,-0.6574472049679114,-0.8542252240545741,-0.6245739904085785,-0.0238934513181448,-0.2383121401071548,0.01536850444972515,0.02482104301452637,-0.00328516960144043,0.0003664493560791016,XArbitraryZVertical,-0.391926979491884,-0.2828249041312338,-0.1591657464367825,0.8608539996653373,-0.6117045879364014,0.5847517251968384,-0.5328066349029541,0,0,0,-1,-1,29382.265214,unknown,2,2025-04-22T12:09:52.710+03:00,2025-04-21T17:08:51.449+03:00,7208,0.9677966,0,0,6015.835,5,20,2025-04-22T12:09:26.917+03:00,767005813.448632,0,-20.61,100.4508,1,0.85,2025-04-22T12:10:10.706+03:00,84,1.4,2025-04-22T09:54:17.825+03:00,0.02225348692287972,0
2025-04-22T12:10:14.881+03:00,1745313008.972918,40.95222567643675,29.14026538326243,76.34016,-1,-1,-1,-1,30,20.32104858318339,-9999,29404.43052604167,-0.5843505859375,0.5927734375,-0.53741455078125,29404.42045004167,-0.6573600222122378,-0.8566722459219737,-0.6246755636315608,0.008042910136282444,-0.2761228978633881,-5.945336306467652e-05,0.03027421236038208,-0.001231372356414795,-0.009227573871612549,XArbitraryZVertical,-0.3921485865251088,-0.2838747214682062,-0.1586250015058909,0.8605072358457017,-0.6129616498947144,0.5848341584205627,-0.5312692523002625,0,0,0,-1,-1,29382.265214,unknown,2,2025-04-22T12:09:52.710+03:00,2025-04-21T17:08:51.449+03:00,7208,0.9677966,0,0,6015.835,5,20,2025-04-22T12:09:26.917+03:00,767005813.448632,0,-20.61,100.4508,1,0.85,2025-04-22T12:10:10.706+03:00,84,1.4,2025-04-22T09:54:17.825+03:00,0.02225348692287972,0
2025-04-22T12:10:14.891+03:00,1745313008.972918,40.95222567643675,29.14026538326243,76.34016,-1,-1,-1,-1,30,20.32104858318339,-9999,29404.44060204167,-0.5951385498046875,0.585479736328125,-0.530364990234375,29404.43052604167,-0.6571880158319217,-0.8594870348401736,-0.6244958940002135,0.02438180334866047,-0.3132352530956268,-0.01448213588446379,0.03407460451126099,0.007718682289123535,-0.01160359382629395,XArbitraryZVertical,-0.3922771014486814,-0.2851552188153662,-0.1580407651875066,0.8601326494789026,-0.6145341992378235,0.5846883654594421,-0.5296103358268738,0,0,0,-1,-1,29382.265214,unknown,2,2025-04-22T12:09:52.710+03:00,2025-04-21T17:08:51.449+03:00,7208,0.9677966,0,0,6015.835,5,20,2025-04-22T12:09:26.917+03:00,767005813.448632,0,-20.61,100.4508,1,0.85,2025-04-22T12:10:10.706+03:00,84,1.4,2025-04-22T09:54:17.825+03:00,0.02225348692287972,0
2025-04-22T12:10:14.901+03:00,1745313008.972918,40.95222567643675,29.14026538326243,76.34016,-1,-1,-1,-1,30,20.32104858318339,-9999,29404.45067804167,-0.605224609375,0.5821685791015625,-0.5251312255859375,29404.44060204167,-0.6570626961540316,-0.8626559281493557,-0.6241568715512734,0.02332559414207935,-0.3416855335235596,-0.02682189270853996,0.03162777423858643,0.007856428623199463,-0.008770883083343506,XArbitraryZVertical,-0.3923774103036188,-0.2866101698510904,-0.1574442399247342,0.8597125394573069,-0.6163598299026489,0.5844132900238037,-0.5277891755104065,0,0,0,-1,-1,29382.265214,unknown,2,2025-04-22T12:09:52.710+03:00,2025-04-21T17:08:51.449+03:00,7208,0.9677966,0,0,6015.835,5,20,2025-04-22T12:09:26.917+03:00,767005813.448632,0,-20.61,100.4508,1,0.85,2025-04-22T12:10:10.706+03:00,84,1.4,2025-04-22T09:54:17.825+03:00,0.02225348692287972,0
2025-04-22T12:10:14.911+03:00,1745313008.972918,40.95222567643675,29.14026538326243,76.34016,-1,-1,-1,-1,30,20.32104858318339,-9999,29404.46075304167,-0.6067047119140625,0.5735321044921875,-0.523529052734375,29404.45067804167,-0.6571176775882291,-0.8661708087983374,-0.6238057417210777,0.006928976625204086,-0.3621818125247955,-0.03674965724349022,0.02145898342132568,0.0008782148361206055,-0.004398941993713379,XArbitraryZVertical,-0.3925251072369014,-0.2881801787401328,-0.156860219129128,0.8592270354665912,-0.6183675527572632,0.5841283798217773,-0.5257524251937866,0,0,0,-1,-1,29382.265214,unknown,2,2025-04-22T12:09:52.710+03:00,2025-04-21T17:08:51.449+03:00,7208,0.9677966,0,0,6015.835,5,20,2025-04-22T12:09:26.917+03:00,767005813.448632,0,-20.61,100.4508,1,0.85,2025-04-22T12:10:10.706+03:00,84,1.4,2025-04-22T09:54:17.825+03:00,0.02225348692287972,0
2025-04-22T12:10:14.921+03:00,1745313008.972918,40.95222567643675,29.14026538326243,76.34016,-1,-1,-1,-1,30,20.32104858318339,-9999,29404.47082904167,-0.6103668212890625,0.56683349609375,-0.52581787109375,29404.46075304167,-0.657405680229735,-0.8699886228146098,-0.6235204766495217,-0.01135255862027407,-0.3770055174827576,-0.04694397002458572,0.01461678743362427,-0.002949059009552002,-0.001285076141357422,XArbitraryZVertical,-0.3927549961133463,-0.2898204615538984,-0.1563012401478977,0.8586719404179796,-0.6204975843429565,0.583896815776825,-0.5234951972961426,0,0,0,-1,-1,29382.265214,unknown,2,2025-04-22T12:09:52.710+03:00,2025-04-21T17:08:51.449+03:00,7208,0.9677966,0,0,6015.835,5,20,2025-04-22T12:09:26.917+03:00,767005813.448632,0,-20.61,100.4508,1,0.85,2025-04-22T12:10:10.706+03:00,84,1.4,2025-04-22T09:54:17.825+03:00,0.02225348692287972,0
2025-04-22T12:10:14.931+03:00,1745313008.972918,40.95222567643675,29.14026538326243,76.34016,-1,-1,-1,-1,30,20.32104858318339,-9999,29404.48090504167,-0.605224609375,0.56439208984375,-0.528289794921875,29404.47082904167,-0.6578725671009528,-0.8740507068612837,-0.6232284250965386,-0.01337782666087151,-0.3902035355567932,-0.0611879862844944,0.0157092809677124,-0.01165354251861572,-0.001915216445922852,XArbitraryZVertical,-0.3930266344526862,-0.2915307104222962,-0.1557723074336523,0.8580646162370987,-0.6227496862411499,0.5836596488952637,-0.5210798382759094,0,0,0,-1,-1,29382.265214,unknown,2,2025-04-22T12:09:52.710+03:00,2025-04-21T17:08:51.449+03:00,7208,0.9677966,0,0,6015.835,5,20,2025-04-22T12:09:26.917+03:00,767005813.448632,0,-20.61,100.4508,1,0.85,2025-04-22T12:10:10.706+03:00,84,1.4,2025-04-22T09:54:17.825+03:00,0.02225348692287972,0
2025-04-22T12:10:14.941+03:00,1745313008.972918,40.95222567643675,29.14026538326243,76.34016,-1,-1,-1,-1,30,20.32104858318339,-9999,29404.49098104167,-0.594757080078125,0.5514984130859375,-0.5252227783203125,29404.48090504167,-0.6584729594682919,-0.8783995892376567,-0.6228933483515503,-0.0206647664308548,-0.4205342829227448,-0.06470602750778198,0.01465624570846558,-0.01704239845275879,-0.007677376270294189,XArbitraryZVertical,-0.393322940470112,-0.2933450639109275,-0.1552539189144612,0.8574042233760073,-0.6251604557037354,0.583387553691864,-0.5184914469718933,0,0,0,-1,-1,29382.265214,unknown,2,2025-04-22T12:09:52.710+03:00,2025-04-21T17:08:51.449+03:00,7208,0.9677966,0,0,6015.835,5,20,2025-04-22T12:09:26.917+03:00,767005813.448632,0,-20.61,100.4508,1,0.85,2025-04-22T12:10:10.706+03:00,84,1.4,2025-04-22T09:54:17.825+03:00,0.02225348692287972,0
2025-04-22T12:10:14.951+03:00,1745313008.972918,40.95222567643675,29.14026538326243,76.34016,-1,-1,-1,-1,30,20.32104858318339,-9999,29404.50105704167,-0.5964813232421875,0.545318603515625,-0.5074615478515625,29404.49098104167,-0.6591852223376236,-0.8831197426208827,-0.6225763575336172,-0.02780044078826904,-0.4466955959796906,-0.0654694139957428,0.02412116527557373,-0.02005040645599365,-0.01314115524291992,XArbitraryZVertical,-0.3936711423785277,-0.2952913346843816,-0.1547054923256908,0.8566750032980252,-0.6277436017990112,0.5831300616264343,-0.5156521201133728,0,0,0,-1,-1,29382.265214,unknown,2,2025-04-22T12:09:52.710+03:00,2025-04-21T17:08:51.449+03:00,7208,0.9677966,0,0,6015.835,5,20,2025-04-22T12:09:26.917+03:00,767005813.448632,0,-20.61,100.4508,1,0.85,2025-04-22T12:10:10.706+03:00,84,1.4,2025-04-22T09:54:17.825+03:00,0.02225348692287972,0
2025-04-22T12:10:14.961+03:00,1745313008.972918,40.95222567643675,29.14026538326243,76.34016,-1,-1,-1,-1,30,20.32104858318339,-9999,29404.51113304167,-0.603515625,0.5440826416015625,-0.4897613525390625,29404.50105704167,-0.6600407568485593,-0.8882993146748364,-0.6222735796409471,-0.04020038619637489,-0.4785925447940826,-0.06752245128154755,0.0364115834236145,-0.03262174129486084,-0.011252760887146,XArbitraryZVertical,-0.3940810090212341,-0.2974013703428925,-0.1541237312373085,0.8558612023958699,-0.630543053150177,0.5828840732574463,-0.5125051736831665,0,0,0,-1,-1,29382.265214,unknown,2,2025-04-22T12:09:52.710+03:00,2025-04-21T17:08:51.449+03:00,7208,0.9677966,0,0,6015.835,5,20,2025-04-22T12:09:26.917+03:00,767005813.448632,0,-20.61,100.4508,1,0.85,2025-04-22T12:10:10.706+03:00,84,1.4,2025-04-22T09:54:17.825+03:00,0.02225348692287972,0
2025-04-22T12:10:14.972+03:00,1745313008.972918,40.95222567643675,29.14026538326243,76.34016,-1,-1,-1,-1,30,20.32104858318339,-9999,29404.52120804167,-0.605224609375,0.5364532470703125,-0.481231689453125,29404.51113304167,-0.660998618695998,-0.8938482963390509,-0.6220766070470274,-0.05131569132208824,-0.516024112701416,-0.05986496433615685,0.03622239828109741,-0.03816848993301392,0.003790795803070068,XArbitraryZVertical,-0.3945748924827324,-0.2996255866604251,-0.1534863978271117,0.8549719319504759,-0.6334667205810547,0.5827240347862244,-0.5090703368186951,0,0,0,-1,-1,29382.265214,unknown,2,2025-04-22T12:09:52.710+03:00,2025-04-21T17:08:51.449+03:00,7208,0.9677966,0,0,6015.835,5,20,2025-04-22T12:09:26.917+03:00,767005813.448632,0,-20.61,100.4508,1,0.85,2025-04-22T12:10:10.706+03:00,84,1.4,2025-04-22T09:54:17.825+03:00,0.02225348692287972,0
2025-04-22T12:10:14.981+03:00,1745313008.972918,40.95222567643675,29.14026538326243,76.34016,-1,-1,-1,-1,30,20.32104858318339,-9999,29404.53128404167,-0.5978851318359375,0.5238189697265625,-0.4791717529296875,29404.52120804167,-0.6621377342560585,-0.8999367901896126,-0.6220599378912848,-0.09190945327281952,-0.562122106552124,-0.05391626060009003,0.0321614146232605,-0.03981810808181763,0.01674574613571167,XArbitraryZVertical,-0.3952059739532046,-0.3020052663905194,-0.1527749314601932,0.8539700534543906,-0.6365620493888855,0.5827104449272156,-0.5052101016044617,0,0,0,-1,-1,29382.265214,unknown,2,2025-04-22T12:09:52.710+03:00,2025-04-21T17:08:51.449+03:00,7208,0.9677966,0,0,6015.835,5,20,2025-04-22T12:09:26.917+03:00,767005813.448632,0,-20.61,100.4508,1,0.85,2025-04-22T12:10:10.706+03:00,84,1.4,2025-04-22T09:54:17.825+03:00,0.02225348692287972,0
2025-04-22T12:10:14.991+03:00,1745313008.972918,40.95222567643675,29.14026538326243,76.34016,-1,-1,-1,-1,30,20.32104858318339,-9999,29404.54136004167,-0.5825958251953125,0.504364013671875,-0.4794769287109375,29404.53128404167,-0.6635876351640253,-0.906734702751235,-0.6224466760142031,-0.1466878801584244,-0.6188966035842896,-0.03058716841042042,0.03451848030090332,-0.04825007915496826,0.02053815126419067,XArbitraryZVertical,-0.3960919539031904,-0.3045407394308476,-0.1519554815411414,0.8528044802571382,-0.6398041248321533,0.5830247402191162,-0.5007321834564209,0,0,0,-1,-1,29382.265214,unknown,2,2025-04-22T12:09:52.710+03:00,2025-04-21T17:08:51.449+03:00,7208,0.9677966,0,0,6015.835,5,20,2025-04-22T12:09:26.917+03:00,767005813.448632,0,-20.61,100.4508,1,0.85,2025-04-22T12:10:10.706+03:00,84,1.4,2025-04-22T09:54:17.825+03:00,0.02225348692287972,0
2025-04-22T12:10:15.002+03:00,1745313008.972918,40.95222567643675,29.14026538326243,76.34016,-1,-1,-1,-1,30,20.32104858318339,-9999,29404.55143604167,-0.5728759765625,0.483551025390625,-0.4860687255859375,29404.54136004167,-0.6655697238723648,-0.914440314567853,-0.623519244297604,-0.2451955378055573,-0.6757396459579468,0.005103184375911951,0.04733777046203613,-0.06297612190246582,0.01603531837463379,XArbitraryZVertical,-0.3973885524404688,-0.30721267968587,-0.151011048331098,0.8514095425584579,-0.6431477665901184,0.5838958024978638,-0.4954054057598114,0,0,0,-1,-1,29382.265214,unknown,2,2025-04-22T12:09:52.710+03:00,2025-04-21T17:08:51.449+03:00,7208,0.9677966,0,0,6015.835,5,20,2025-04-22T12:09:26.917+03:00,767005813.448632,0,-20.61,100.4508,1,0.85,2025-04-22T12:10:10.706+03:00,84,1.4,2025-04-22T09:54:17.825+03:00,0.02225348692287972,0
2025-04-22T12:10:15.012+03:00,1745313008.972918,40.95222567643675,29.14026538326243,76.34016,-1,-1,-1,-1,30,20.32104858318339,-9999,29404.56151204167,-0.56573486328125,0.4769744873046875,-0.4972381591796875,29404.55143604167,-0.6682877126910167,-0.9230901195097798,-0.6256470073926029,-0.3616713583469391,-0.7297797203063965,0.05984296277165413,0.06566709280014038,-0.08438599109649658,0.00955045223236084,XArbitraryZVertical,-0.3992686636526729,-0.3099160376187048,-0.1499241812773257,0.8497406981213608,-0.6464166045188904,0.5856218338012695,-0.4890731573104858,0,0,0,-1,-1,29382.265214,unknown,2,2025-04-22T12:09:52.710+03:00,2025-04-21T17:08:51.449+03:00,7208,0.9677966,0,0,6015.835,5,20,2025-04-22T12:09:26.917+03:00,767005813.448632,0,-20.61,100.4508,1,0.85,2025-04-22T12:10:10.706+03:00,84,1.4,2025-04-22T09:54:17.825+03:00,0.02225348692287972,0
2025-04-22T12:10:15.022+03:00,1745313008.972918,40.95222567643675,29.14026538326243,76.34016,-1,-1,-1,-1,30,20.32104858318339,-9999,29404.57158804167,-0.571929931640625,0.484283447265625,-0.49127197265625,29404.56151204167,-0.6719326073053047,-0.9328710226114891,-0.6288747461552925,-0.4917502701282501,-0.7843700051307678,0.1035385131835938,0.0777783989906311,-0.1062864065170288,-0.005034148693084717,XArbitraryZVertical,-0.4017894499181038,-0.3126750035622029,-0.1487170017341118,0.847751636236592,-0.6496473550796509,0.5882351398468018,-0.4815991520881653,0,0,0,-1,-1,29382.265214,unknown,2,2025-04-22T12:09:52.710+03:00,2025-04-21T17:08:51.449+03:00,7208,0.9677966,0,0,6015.835,5,20,2025-04-22T12:09:26.917+03:00,767005813.448632,0,-20.61,100.4508,1,0.85,2025-04-22T12:10:10.706+03:00,84,1.4,2025-04-22T09:54:17.825+03:00,0.02225348692287972,0
2025-04-22T12:10:15.032+03:00,1745313008.972918,40.95222567643675,29.14026538326243,76.34016,-1,-1,-1,-1,30,20.32104858318339,-9999,29404.58166304167,-0.595458984375,0.493804931640625,-0.466522216796875,29404.57158804167,-0.6766748646831988,-0.9437789742190298,-0.6332847832715109,-0.6418576240539551,-0.8170253038406372,0.1551331877708435,0.08692830801010132,-0.1142569184303284,-0.02504351735115051,XArbitraryZVertical,-0.4050038169562993,-0.3154253072332782,-0.1474279278836163,0.8454250802847688,-0.6527546644210815,0.5917957425117493,-0.472957581281662,0,0,0,-1,-1,29382.265214,unknown,2,2025-04-22T12:09:52.710+03:00,2025-04-21T17:08:51.449+03:00,7208,0.9677966,0,0,6015.835,5,20,2025-04-22T12:09:26.917+03:00,767005813.448632,0,-20.61,100.4508,1,0.85,2025-04-22T12:10:10.706+03:00,84,1.4,2025-04-22T09:54:17.825+03:00,0.02225348692287972,0
2025-04-22T12:10:15.042+03:00,1745313008.972918,40.95222567643675,29.14026538326243,76.34016,-1,-1,-1,-1,30,20.32104858318339,-9999,29404.59173904167,-0.63140869140625,0.5157012939453125,-0.4471282958984375,29404.58166304167,-0.6825911315313991,-0.9554750355620395,-0.6389092796354371,-0.7734787464141846,-0.8023017048835754,0.2001848220825195,0.0814012885093689,-0.1112739443778992,-0.02540743350982666,XArbitraryZVertical,-0.4089049084423155,-0.3179869897998774,-0.1461329963036529,0.8428084294232933,-0.6555132269859314,0.5963202118873596,-0.4633620977401733,0,0,0,-1,-1,29382.265214,unknown,2,2025-04-22T12:09:52.710+03:00,2025-04-21T17:08:51.449+03:00,7208,0.9677966,0,0,6015.835,5,20,2025-04-22T12:09:26.917+03:00,767005813.448632,0,-20.61,100.4508,1,0.85,2025-04-22T12:10:10.706+03:00,84,1.4,2025-04-22T09:54:17.825+03:00,0.02225348692287972,0
2025-04-22T12:10:15.052+03:00,1745313008.972918,40.95222567643675,29.14026538326243,76.34016,-1,-1,-1,-1,30,20.32104858318339,-9999,29404.60181504167,-0.662567138671875,0.5595703125,-0.4305877685546875,29404.59173904167,-0.6895664459525342,-0.9675266858984365,-0.6454561668560433,-0.8725934028625488,-0.7584741711616516,0.2309478968381882,0.05830287933349609,-0.1058812737464905,-0.01014441251754761,XArbitraryZVertical,-0.4133277471301383,-0.3202470607543024,-0.1449293853326634,0.8399984309538684,-0.6578207015991211,0.6015629172325134,-0.4532039761543274,0,0,0,-1,-1,29382.265214,unknown,2,2025-04-22T12:09:52.710+03:00,2025-04-21T17:08:51.449+03:00,7208,0.9677966,0,0,6015.835,5,20,2025-04-22T12:09:26.917+03:00,767005813.448632,0,-20.61,100.4508,1,0.85,2025-04-22T12:10:10.706+03:00,84,1.4,2025-04-22T09:54:17.825+03:00,0.02225348692287972,0
2025-04-22T12:10:15.062+03:00,1745313008.972918,40.95222567643675,29.14026538326243,76.34016,-1,-1,-1,-1,30,20.32104858318339,-9999,29404.61189104167,-0.6846160888671875,0.607147216796875,-0.4234161376953125,29404.60181504167,-0.6972861608067691,-0.9795760682978091,-0.6525467683420365,-0.9194357395172119,-0.7064527869224548,0.2433787435293198,0.02310943603515625,-0.08652114868164062,-0.002471417188644409,XArbitraryZVertical,-0.4180510865262841,-0.3221880407833654,-0.1438438369427467,0.8371003359365519,-0.6596755981445312,0.6072118878364563,-0.4428563117980957,0,0,0,-1,-1,29382.265214,unknown,2,2025-04-22T12:09:52.710+03:00,2025-04-21T17:08:51.449+03:00,7208,0.9677966,0,0,6015.835,5,20,2025-04-22T12:09:26.917+03:00,767005813.448632,0,-20.61,100.4508,1,0.85,2025-04-22T12:10:10.706+03:00,84,1.4,2025-04-22T09:54:17.825+03:00,0.02225348692287972,0
2025-04-22T12:10:15.072+03:00,1745313008.972918,40.95222567643675,29.14026538326243,76.34016,-1,-1,-1,-1,30,20.32104858318339,-9999,29404.62196704167,-0.7092132568359375,0.640869140625,-0.4257354736328125,29404.61189104167,-0.705403403570586,-0.9913371889850865,-0.6597325639473749,-0.9277830719947815,-0.6427572965621948,0.238848090171814,-0.004174113273620605,-0.04752177000045776,0.003955960273742676,XArbitraryZVertical,-0.4228314296405393,-0.3238520146794502,-0.1429016331697973,0.8342136745275189,-0.6611701846122742,0.6129055619239807,-0.4326668977737427,0,0,0,-1,-1,29382.265214,unknown,2,2025-04-22T12:09:52.710+03:00,2025-04-21T17:08:51.449+03:00,7208,0.9677966,0,0,6015.835,5,20,2025-04-22T12:09:26.917+03:00,767005813.448632,0,-20.61,100.4508,1,0.85,2025-04-22T12:10:10.706+03:00,84,1.4,2025-04-22T09:54:17.825+03:00,0.02225348692287972,0
2025-04-22T12:10:15.082+03:00,1745313008.972918,40.95222567643675,29.14026538326243,76.34016,-1,-1,-1,-1,30,20.32104858318339,-9999,29404.63204304167,-0.7331085205078125,0.6647186279296875,-0.4227752685546875,29404.62196704167,-0.7135788126550247,-1.002474516619193,-0.6666812231838086,-0.8937665224075317,-0.5667487978935242,0.2257059216499329,-0.02524924278259277,-0.00546640157699585,-0.001021832227706909,XArbitraryZVertical,-0.4274695993110317,-0.3252425402871708,-0.1421206621239486,0.8314376206919157,-0.6623423099517822,0.6183812618255615,-0.4229740500450134,0,0,0,-1,-1,29382.265214,unknown,2,2025-04-22T12:09:52.710+03:00,2025-04-21T17:08:51.449+03:00,7208,0.9677966,0,0,6015.835,5,20,2025-04-22T12:09:26.917+03:00,767005813.448632,0,-20.61,100.4508,1,0.85,2025-04-22T12:10:10.706+03:00,84,1.4,2025-04-22T09:54:17.825+03:00,0.02225348692287972,0
2025-04-22T12:10:15.092+03:00,1745313008.972918,40.95222567643675,29.14026538326243,76.34016,-1,-1,-1,-1,30,20.32104858318339,-9999,29404.64211804167,-0.7480010986328125,0.6870269775390625,-0.4146575927734375,29404.63204304167,-0.7214301607014579,-1.012613537080629,-0.6731423737800124,-0.8231862783432007,-0.4772703349590302,0.2068531513214111,-0.04934573173522949,0.02140557765960693,-0.0113791823387146,XArbitraryZVertical,-0.4317893231158622,-0.326346284484474,-0.141495993875141,0.8288757075387245,-0.663193941116333,0.623445987701416,-0.4141121804714203,0,0,0,-1,-1,29382.265214,unknown,2,2025-04-22T12:09:52.710+03:00,2025-04-21T17:08:51.449+03:00,7208,0.9677966,0,0,6015.835,5,20,2025-04-22T12:09:26.917+03:00,767005813.448632,0,-20.61,100.4508,1,0.85,2025-04-22T12:10:10.706+03:00,84,1.4,2025-04-22T09:54:17.825+03:00,0.02225348692287972,0
2025-04-22T12:10:15.102+03:00,1745313008.972918,40.95222567643675,29.14026538326243,76.34016,-1,-1,-1,-1,30,20.32104858318339,-9999,29404.65219404167,-0.75115966796875,0.7127227783203125,-0.4077911376953125,29404.64211804167,-0.7286406515400784,-1.02145544409332,-0.6789153332034562,-0.7245113849639893,-0.385833352804184,0.1796415001153946,-0.07238095998764038,0.03940898180007935,-0.01583406329154968,XArbitraryZVertical,-0.4356506174909308,-0.3271627549253709,-0.141026559890115,0.8266102396875415,-0.6637488007545471,0.6279492378234863,-0.4063461422920227,0,0,0,-1,-1,29382.265214,unknown,2,2025-04-22T12:09:52.710+03:00,2025-04-21T17:08:51.449+03:00,7208,0.9677966,0,0,6015.835,5,20,2025-04-22T12:09:26.917+03:00,767005813.448632,0,-20.61,100.4508,1,0.85,2025-04-22T12:10:10.706+03:00,84,1.4,2025-04-22T09:54:17.825+03:00,0.02225348692287972,0
2025-04-22T12:10:15.112+03:00,1745313008.972918,40.95222567643675,29.14026538326243,76.34016,-1,-1,-1,-1,30,20.32104858318339,-9999,29404.66227004167,-0.7442169189453125,0.732513427734375,-0.4089508056640625,29404.65219404167,-0.73492092415059,-1.02890857453855,-0.6837542008735776,-0.6003968119621277,-0.3149412572383881,0.139250710606575,-0.08417361974716187,0.05782157182693481,-0.01383441686630249,XArbitraryZVertical,-0.438917749301759,-0.3277852357278174,-0.1406932578261333,0.8246899296620812,-0.6641479134559631,0.6317077279090881,-0.39981609582901,0,0,0,-1,-1,29382.265214,unknown,2,2025-04-22T12:09:52.710+03:00,2025-04-21T17:08:51.449+03:00,7208,0.9677966,0,0,6015.835,5,20,2025-04-22T12:09:26.917+03:00,767005813.448632,0,-20.61,100.4508,1,0.85,2025-04-22T12:10:10.706+03:00,84,1.4,2025-04-22T09:54:17.825+03:00,0.02225348692287972,0
2025-04-22T12:10:15.122+03:00,1745313008.972918,40.95222567643675,29.14026538326243,76.34016,-1,-1,-1,-1,30,20.32104858318339,-9999,29404.67234604167,-0.7375335693359375,0.739837646484375,-0.4017333984375,29404.66227004167,-0.7399808042928634,-1.035027259150691,-0.6874774334831838,-0.4429963231086731,-0.262121707201004,0.09639404714107513,-0.0861167311668396,0.0817188024520874,-0.01282250881195068,XArbitraryZVertical,-0.4414890721283151,-0.3283545130409355,-0.1404278535247656,0.823134619255821,-0.6645546555519104,0.6345896124839783,-0.3945414125919342,0,0,0,-1,-1,29382.265214,unknown,2,2025-04-22T12:09:52.710+03:00,2025-04-21T17:08:51.449+03:00,7208,0.9677966,0,0,6015.835,5,20,2025-04-22T12:09:26.917+03:00,767005813.448632,0,-20.61,100.4508,1,0.85,2025-04-22T12:10:10.706+03:00,84,1.4,2025-04-22T09:54:17.825+03:00,0.02225348692287972,0
2025-04-22T12:10:15.132+03:00,1745313008.972918,40.95222567643675,29.14026538326243,76.34016,-1,-1,-1,-1,30,20.32104858318339,-9999,29404.68242204167,-0.73736572265625,0.738677978515625,-0.3890838623046875,29404.67234604167,-0.7435362606297891,-1.03971403024267,-0.689981517310346,-0.2785672843456268,-0.2171165645122528,0.05356502532958984,-0.07806360721588135,0.09809607267379761,-0.01805973052978516,XArbitraryZVertical,-0.4432800773989056,-0.3289293918149284,-0.1401758956850676,0.8219846873315699,-0.6650242209434509,0.6365229487419128,-0.3906164467334747,0,0,0,-1,-1,29382.265214,unknown,2,2025-04-22T12:09:52.710+03:00,2025-04-21T17:08:51.449+03:00,7208,0.9677966,0,0,6015.835,5,20,2025-04-22T12:09:26.917+03:00,767005813.448632,0,-20.61,100.4508,1,0.85,2025-04-22T12:10:10.706+03:00,84,1.4,2025-04-22T09:54:17.825+03:00,0.02225348692287972,0
2025-04-22T12:10:15.143+03:00,1745313008.972918,40.95222567643675,29.14026538326243,76.34016,-1,-1,-1,-1,30,20.32104858318339,-9999,29404.69249804167,-0.73931884765625,0.7385101318359375,-0.377197265625,29404.68242204167,-0.7456006356731152,-1.042928199163794,-0.6913626330759403,-0.1379832625389099,-0.1563671976327896,0.02310645207762718,-0.071880042552948,0.1021736860275269,-0.01144129037857056,XArbitraryZVertical,-0.4443277208164824,-0.3294783495389996,-0.1399358716405377,0.821239776569797,-0.665516197681427,0.6375874876976013,-0.3880337774753571,0,0,0,-1,-1,29382.265214,unknown,2,2025-04-22T12:09:52.710+03:00,2025-04-21T17:08:51.449+03:00,7208,0.9677966,0,0,6015.835,5,20,2025-04-22T12:09:26.917+03:00,767005813.448632,0,-20.61,100.4508,1,0.85,2025-04-22T12:10:10.706+03:00,84,1.4,2025-04-22T09:54:17.825+03:00,0.02225348692287972,0
2025-04-22T12:10:15.153+03:00,1745313008.972918,40.95222567643675,29.14026538326243,76.34016,-1,-1,-1,-1,30,20.32104858318339,-9999,29404.70257304167,-0.74066162109375,0.7321014404296875,-0.37542724609375,29404.69249804167,-0.7464035926547334,-1.04466260264096,-0.6918013370368832,-0.01340172812342644,-0.08907638490200043,-0.009348725900053978,-0.07112956047058105,0.1016221642494202,-0.001033186912536621,XArbitraryZVertical,-0.4447344615116027,-0.3299121920159884,-0.1397607116186517,0.8208751641749593,-0.6659462451934814,0.6379254460334778,-0.3867384195327759,0,0,0,-1,-1,29382.265214,unknown,2,2025-04-22T12:09:52.710+03:00,2025-04-21T17:08:51.449+03:00,7208,0.9677966,0,0,6015.835,5,20,2025-04-22T12:09:26.917+03:00,767005813.448632,0,-20.61,100.4508,1,0.85,2025-04-22T12:10:10.706+03:00,84,1.4,2025-04-22T09:54:17.825+03:00,0.02225348692287972,0
2025-04-22T12:10:15.163+03:00,1745313008.972918,40.95222567643675,29.14026538326243,76.34016,-1,-1,-1,-1,30,20.32104858318339,-9999,29404.71264904167,-0.7295074462890625,0.714263916015625,-0.3846435546875,29404.70257304167,-0.74601679089018,-1.045081077607042,-0.6913495789658657,0.1106413900852203,-0.04180474206805229,-0.03806426003575325,-0.07291585206985474,0.1005052328109741,0.01010891795158386,XArbitraryZVertical,-0.444542298753254,-0.3302726396814133,-0.1396318403611232,0.820856209486436,-0.6663572192192078,0.6375774741172791,-0.3866042494773865,0,0,0,-1,-1,29382.265214,unknown,2,2025-04-22T12:09:52.710+03:00,2025-04-21T17:08:51.449+03:00,7208,0.9677966,0,0,6015.835,5,20,2025-04-22T12:09:26.917+03:00,767005813.448632,0,-20.61,100.4508,1,0.85,2025-04-22T12:10:10.706+03:00,84,1.4,2025-04-22T09:54:17.825+03:00,0.02225348692287972,0
2025-04-22T12:10:15.173+03:00,1745313008.972918,40.95222567643675,29.14026538326243,76.34016,-1,-1,-1,-1,30,20.32104858318339,-9999,29404.72272504167,-0.7058868408203125,0.6789093017578125,-0.3872222900390625,29404.71264904167,-0.7446319608315938,-1.044465115115798,-0.6901849990882071,0.1765632927417755,-0.01548245642334223,-0.05301997438073158,-0.07342809438705444,0.0946279764175415,0.01044952869415283,XArbitraryZVertical,-0.4438640974688314,-0.3305918574304763,-0.1395169968313427,0.8211141896202291,-0.6667605042457581,0.6366798281669617,-0.3873873651027679,0,0,0,-1,-1,29382.265214,unknown,2,2025-04-22T12:09:52.710+03:00,2025-04-21T17:08:51.449+03:00,7208,0.9677966,0,0,6015.835,5,20,2025-04-22T12:09:26.917+03:00,767005813.448632,0,-20.61,100.4508,1,0.85,2025-04-22T12:10:10.706+03:00,84,1.4,2025-04-22T09:54:17.825+03:00,0.02225348692287972,0
2025-04-22T12:10:15.183+03:00,1745313008.972918,40.95222567643675,29.14026538326243,76.34016,-1,-1,-1,-1,30,20.32104858318339,-9999,29404.73280104167,-0.6809844970703125,0.649505615234375,-0.388458251953125,29404.72272504167,-0.7429067760762457,-1.043494477566316,-0.6887522223919054,0.1889419257640839,-0.01221129577606916,-0.05889304354786873,-0.0600619912147522,0.07481372356414795,0.003223896026611328,XArbitraryZVertical,-0.4430104247120096,-0.3309006251463972,-0.1394132559120626,0.8214684913781627,-0.6671719551086426,0.6355743408203125,-0.3884930908679962,0,0,0,-1,-1,29382.265214,unknown,2,2025-04-22T12:09:52.710+03:00,2025-04-21T17:08:51.449+03:00,7208,0.9677966,0,0,6015.835,5,20,2025-04-22T12:09:26.917+03:00,767005813.448632,0,-20.61,100.4508,1,0.85,2025-04-22T12:10:10.706+03:00,84,1.4,2025-04-22T09:54:17.825+03:00,0.02225348692287972,0
2025-04-22T12:10:15.193+03:00,1745313008.972918,40.95222567643675,29.14026538326243,76.34016,-1,-1,-1,-1,30,20.32104858318339,-9999,29404.74287704167,-0.66241455078125,0.6358489990234375,-0.3900146484375,29404.73280104167,-0.7412488961560564,-1.042600444662027,-0.6873294751266232,0.1730063706636429,-0.01779914274811745,-0.05796519666910172,-0.03530669212341309,0.04064971208572388,0.00239872932434082,XArbitraryZVertical,-0.442175890849063,-0.3312221599087539,-0.1393163792737437,0.8218048997647681,-0.6676046848297119,0.6344752907752991,-0.3895447254180908,0,0,0,-1,-1,29382.265214,unknown,2,2025-04-22T12:09:52.710+03:00,2025-04-21T17:08:51.449+03:00,7208,0.9677966,0,0,6015.835,5,20,2025-04-22T12:09:26.917+03:00,767005813.448632,0,-20.61,100.4508,1,0.85,2025-04-22T12:10:10.706+03:00,84,1.4,2025-04-22T09:54:17.825+03:00,0.02225348692287972,0
2025-04-22T12:10:15.203+03:00,1745313015.170257,40.95225047145286,29.14027491728716,76.29721,-1,-1,-1,-1,30,18.50609945942865,-9999,29404.75295304167,-0.6617279052734375,0.62945556640625,-0.38677978515625,29404.74287704167,-0.739762612398149,-1.041895020673426,-0.6860238510796205,0.1543288230895996,-0.02744830399751663,-0.05256830155849457,-0.00912553071975708,0.01336961984634399,0.001105189323425293,XArbitraryZVertical,-0.4414231269389401,-0.3315554629482755,-0.139215630160906,0.8220921499935365,-0.6680442690849304,0.633465588092804,-0.3904331922531128,0,0,0,-1,-1,29382.265214,unknown,2,2025-04-22T12:09:52.710+03:00,2025-04-21T17:08:51.449+03:00,7208,0.9677966,0,0,6015.835,5,20,2025-04-22T12:09:26.917+03:00,767005813.448632,0,-20.61,100.4508,1,0.85,2025-04-22T12:10:10.706+03:00,84,1.4,2025-04-22T09:54:17.825+03:00,0.02225348692287972,0
2025-04-22T12:10:15.213+03:00,1745313015.170257,40.95225047145286,29.14027491728716,76.29721,-1,-1,-1,-1,30,18.50609945942865,-9999,29404.76302804167,-0.6634521484375,0.6218719482421875,-0.3802032470703125,29404.75295304167,-0.7385199770817957,-1.041376935445602,-0.6848821140252984,0.124162457883358,-0.02482529357075691,-0.04601769149303436,0.007317602634429932,0.001909077167510986,0.001221120357513428,XArbitraryZVertical,-0.4407806144894363,-0.3318740042347202,-0.1391285953840055,0.8223229632310661,-0.6684656143188477,0.6325817108154297,-0.391144186258316,0,0,0,-1,-1,29382.265214,unknown,2,2025-04-22T12:09:52.710+03:00,2025-04-21T17:08:51.449+03:00,7208,0.9677966,0,0,6015.835,5,20,2025-04-22T12:09:26.917+03:00,767005813.448632,0,-20.61,100.4508,1,0.85,2025-04-22T12:10:10.706+03:00,84,1.4,2025-04-22T09:54:17.825+03:00,0.02225348692287972,0
2025-04-22T12:10:15.223+03:00,1745313015.170257,40.95225047145286,29.14027491728716,76.29721,-1,-1,-1,-1,30,18.50609945942865,-9999,29404.77310404167,-0.6637115478515625,0.613861083984375,-0.37542724609375,29404.76302804167,-0.7376474589744119,-1.041097241777698,-0.6840178332423483,0.07780081778764725,-0.02986292913556099,-0.03598449751734734,0.00682520866394043,-0.003418028354644775,0.005254745483398438,XArbitraryZVertical,-0.440312966631394,-0.3321458542420672,-0.1390656642314878,0.8224743766515153,-0.6688277125358582,0.6319121122360229,-0.391607254743576,0,0,0,-1,-1,29382.265214,unknown,2,2025-04-22T12:09:52.710+03:00,2025-04-21T17:08:51.449+03:00,7208,0.9677966,0,0,6015.835,5,20,2025-04-22T12:09:26.917+03:00,767005813.448632,0,-20.61,100.4508,1,0.85,2025-04-22T12:10:10.706+03:00,84,1.4,2025-04-22T09:54:17.825+03:00,0.02225348692287972,0
2025-04-22T12:10:15.233+03:00,1745313015.170257,40.95225047145286,29.14027491728716,76.29721,-1,-1,-1,-1,30,18.50609945942865,-9999,29404.78318004167,-0.661529541015625,0.608245849609375,-0.3746185302734375,29404.77310404167,-0.7373146058805717,-1.041218369038788,-0.683513927659651,0.01807703636586666,-0.03413543850183487,-0.025260079652071,0.005301177501678467,-0.01003110408782959,0.01152962446212769,XArbitraryZVertical,-0.4400890731809294,-0.3323823644913597,-0.1390387087716538,0.822503379753793,-0.6691500544548035,0.631521463394165,-0.3916871547698975,0,0,0,-1,-1,29382.265214,unknown,2,2025-04-22T12:09:52.710+03:00,2025-04-21T17:08:51.449+03:00,7208,0.9677966,0,0,6015.835,5,20,2025-04-22T12:09:26.917+03:00,767005813.448632,0,-20.61,100.4508,1,0.85,2025-04-22T12:10:10.706+03:00,84,1.4,2025-04-22T09:54:17.825+03:00,0.02225348692287972,0
2025-04-22T12:10:15.244+03:00,1745313015.170257,40.95225047145286,29.14027491728716,76.29721,-1,-1,-1,-1,30,18.50609945942865,-9999,29404.79325604167,-0.6666412353515625,0.6059112548828125,-0.3761444091796875,29404.78318004167,-0.737518590160017,-1.041647819382162,-0.6834075033621692,-0.03225351497530937,-0.0235831942409277,-0.01125797815620899,0.005481481552124023,-0.01892077922821045,0.01675403118133545,XArbitraryZVertical,-0.440115504976214,-0.3325380204068287,-0.1390569110360252,0.8224231613289933,-0.6693761348724365,0.6314389705657959,-0.3914336264133453,0,0,0,-1,-1,29382.265214,unknown,2,2025-04-22T12:09:52.710+03:00,2025-04-21T17:08:51.449+03:00,7208,0.9677966,0,0,6015.835,5,20,2025-04-22T12:09:26.917+03:00,767005813.448632,0,-20.61,100.4508,1,0.85,2025-04-22T12:10:10.706+03:00,84,1.4,2025-04-22T09:54:17.825+03:00,0.02225348692287972,0
2025-04-22T12:10:15.253+03:00,1745313015.170257,40.95225047145286,29.14027491728716,76.29721,-1,-1,-1,-1,30,18.50609945942865,-9999,29404.80333204167,-0.6722259521484375,0.6132659912109375,-0.3767242431640625,29404.79325604167,-0.7380467830988618,-1.042039699696641,-0.6836349094203816,-0.06003753840923309,0.01260110922157764,0.007403422612696886,0.007357180118560791,-0.02401041984558105,0.01574784517288208,XArbitraryZVertical,-0.4403104002328704,-0.332531704880895,-0.1391261982623941,0.8223096861160115,-0.6694055199623108,0.6316152811050415,-0.391098827123642,0,0,0,-1,-1,29382.265214,unknown,2,2025-04-22T12:09:52.710+03:00,2025-04-21T17:08:51.449+03:00,7208,0.9677966,0,0,6015.835,5,20,2025-04-22T12:09:26.917+03:00,767005813.448632,0,-20.61,100.4508,1,0.85,2025-04-22T12:10:10.706+03:00,84,1.4,2025-04-22T09:54:17.825+03:00,0.02225348692287972,0
2025-04-22T12:10:15.264+03:00,1745313015.170257,40.95225047145286,29.14027491728716,76.29721,-1,-1,-1,-1,30,18.50609945942865,-9999,29404.81340804167,-0.6716766357421875,0.6233673095703125,-0.3827056884765625,29404.80333204167,-0.7387738857364464,-1.042243839812757,-0.684147245940861,-0.0824296623468399,0.03678101301193237,0.02207690663635731,0.001572787761688232,-0.02634537220001221,0.01427298784255981,XArbitraryZVertical,-0.4406252035778284,-0.3323400957950774,-0.1392412633485239,0.8221991119554131,-0.669205904006958,0.6320123672485352,-0.3907989859580994,0,0,0,-1,-1,29382.265214,unknown,2,2025-04-22T12:09:52.710+03:00,2025-04-21T17:08:51.449+03:00,7208,0.9677966,0,0,6015.835,5,20,2025-04-22T12:09:26.917+03:00,767005813.448632,0,-20.61,100.4508,1,0.85,2025-04-22T12:10:10.706+03:00,84,1.4,2025-04-22T09:54:17.825+03:00,0.02225348692287972,0
2025-04-22T12:10:15.274+03:00,1745313015.170257,40.95225047145286,29.14027491728716,76.29721,-1,-1,-1,-1,30,18.50609945942865,-9999,29404.82348304167,-0.6632843017578125,0.6298828125,-0.387603759765625,29404.81340804167,-0.7395653534068644,-1.042283827497876,-0.6848206086024341,-0.0863693431019783,0.05442119389772415,0.03429532423615456,-0.003997802734375,-0.01795601844787598,0.01296344399452209,XArbitraryZVertical,-0.4409956695547745,-0.3320302594472873,-0.1393751293483218,0.822102854966748,-0.6688537001609802,0.6325340867042542,-0.3905574381351471,0,0,0,-1,-1,29382.265214,unknown,2,2025-04-22T12:09:52.710+03:00,2025-04-21T17:08:51.449+03:00,7208,0.9677966,0,0,6015.835,5,20,2025-04-22T12:09:26.917+03:00,767005813.448632,0,-20.61,100.4508,1,0.85,2025-04-22T12:10:10.706+03:00,84,1.4,2025-04-22T09:54:17.825+03:00,0.02225348692287972,0
2025-04-22T12:10:15.284+03:00,1745313015.170257,40.95225047145286,29.14027491728716,76.29721,-1,-1,-1,-1,30,18.50609945942865,-9999,29404.83355904167,-0.660552978515625,0.6358489990234375,-0.398101806640625,29404.82348304167,-0.7403485925126202,-1.042154008549005,-0.6855946404024932,-0.0968661904335022,0.06998790055513382,0.03962617367506027,-0.002716720104217529,-0.008576035499572754,0.006745517253875732,XArbitraryZVertical,-0.4413878879886642,-0.3316294656910985,-0.1395157510285328,0.8220303367774026,-0.668380081653595,0.6331334114074707,-0.3903972506523132,0,0,0,-1,-1,29382.265214,unknown,2,2025-04-22T12:09:52.710+03:00,2025-04-21T17:08:51.449+03:00,7208,0.9677966,0,0,6015.835,5,20,2025-04-22T12:09:26.917+03:00,767005813.448632,0,-20.61,100.4508,1,0.85,2025-04-22T12:10:10.706+03:00,84,1.4,2025-04-22T09:54:17.825+03:00,0.02225348692287972,0
2025-04-22T12:10:15.294+03:00,1745313015.170257,40.95225047145286,29.14027491728716,76.29721,-1,-1,-1,-1,30,18.50609945942865,-9999,29404.84363504167,-0.6591644287109375,0.6387176513671875,-0.4176483154296875,29404.83355904167,-0.7412061037208844,-1.041939763113073,-0.6865090627743629,-0.1062168180942535,0.08079075068235397,0.04742377623915672,0.00586998462677002,-0.002966523170471191,0.001637309789657593,XArbitraryZVertical,-0.4418354668000254,-0.331145524186256,-0.1396673985165802,0.8219591454398375,-0.6677961945533752,0.6338409185409546,-0.3902481198310852,0,0,0,-1,-1,29382.265214,unknown,2,2025-04-22T12:09:52.710+03:00,2025-04-21T17:08:51.449+03:00,7208,0.9677966,0,0,6015.835,5,20,2025-04-22T12:09:26.917+03:00,767005813.448632,0,-20.61,100.4508,1,0.85,2025-04-22T12:10:10.706+03:00,84,1.4,2025-04-22T09:54:17.825+03:00,0.02225348692287972,0
2025-04-22T12:10:15.316+03:00,1745313015.170257,40.95225047145286,29.14027491728716,76.29721,-1,-1,-1,-1,30,18.50609945942865,-9999,29404.85371104167,-0.6591796875,0.6317901611328125,-0.4326629638671875,29404.84363504167,-0.7420865474682403,-1.041637391671662,-0.687514548230739,-0.1095705404877663,0.08692507445812225,0.05656773969531059,0.007429301738739014,0.001886665821075439,-0.01017093658447266,XArbitraryZVertical,-0.4423120944414278,-0.330599338205884,-0.1398233105461449,0.8218962586949273,-0.667127788066864,0.63461834192276,-0.3901281654834747,0,0,0,-1,-1,29382.265214,unknown,2,2025-04-22T12:09:52.710+03:00,2025-04-21T17:08:51.449+03:00,7208,0.9677966,0,0,6015.835,5,20,2025-04-22T12:09:26.917+03:00,767005813.448632,0,-20.61,100.4508,1,0.85,2025-04-22T12:10:10.706+03:00,84,1.4,2025-04-22T09:54:17.825+03:00,0.02225348692287972,0
2025-04-22T12:10:15.319+03:00,1745313015.170257,40.95225047145286,29.14027491728716,76.29721,-1,-1,-1,-1,30,18.50609945942865,-9999,29404.86378704167,-0.6639556884765625,0.628997802734375,-0.4362335205078125,29404.85371104167,-0.7429270457948364,-1.041267406869829,-0.6886417220354375,-0.1126511469483376,0.09677570313215256,0.07150827348232269,0.007338583469390869,0.002175629138946533,-0.03022891283035278,XArbitraryZVertical,-0.4428195818440585,-0.3300062188543877,-0.1399447845466088,0.8218407192599245,-0.6663656830787659,0.6354890465736389,-0.3900134265422821,0,0,0,-1,-1,29382.265214,unknown,2,2025-04-22T12:09:52.710+03:00,2025-04-21T17:08:51.449+03:00,7208,0.9677966,0,0,6015.835,5,20,2025-04-22T12:09:26.917+03:00,767005813.448632,0,-20.61,100.4508,1,0.85,2025-04-22T12:10:10.706+03:00,84,1.4,2025-04-22T09:54:17.825+03:00,0.02225348692287972,0
2025-04-22T12:10:15.324+03:00,1745313015.170257,40.95225047145286,29.14027491728716,76.29721,-1,-1,-1,-1,30,18.50609945942865,-9999,29404.87386304167,-0.668365478515625,0.6256103515625,-0.441070556640625,29404.86378704167,-0.7437362278571427,-1.040775849082686,-0.6899171614191798,-0.1212776601314545,0.1056078150868416,0.08870323747396469,0.00583648681640625,-0.005324184894561768,-0.04370871186256409,XArbitraryZVertical,-0.4433648597976723,-0.3293360003909469,-0.1400401550026271,0.8217992518967284,-0.6654739379882812,0.6364732980728149,-0.3899308145046234,0,0,0,-1,-1,29382.265214,unknown,2,2025-04-22T12:09:52.710+03:00,2025-04-21T17:08:51.449+03:00,7208,0.9677966,0,0,6015.835,5,20,2025-04-22T12:09:26.917+03:00,767005813.448632,0,-20.61,100.4508,1,0.85,2025-04-22T12:10:10.706+03:00,84,1.4,2025-04-22T09:54:17.825+03:00,0.02225348692287972,0
2025-04-22T12:10:15.335+03:00,1745313015.170257,40.95225047145286,29.14027491728716,76.29721,-1,-1,-1,-1,30,18.50609945942865,-9999,29404.88393804167,-0.6694793701171875,0.6195526123046875,-0.450714111328125,29404.87386304167,-0.7446248518084434,-1.040239417705748,-0.6914186129315057,-0.1446624100208282,0.1172297894954681,0.1057114824652672,0.0004077553749084473,-0.008983850479125977,-0.04740631580352783,XArbitraryZVertical,-0.4439984627318465,-0.3285779450771922,-0.1401170237640236,0.8217476293829389,-0.6644397974014282,0.6376306414604187,-0.3898037970066071,0,0,0,-1,-1,29382.265214,unknown,2,2025-04-22T12:09:52.710+03:00,2025-04-21T17:08:51.449+03:00,7208,0.9677966,0,0,6015.835,5,20,2025-04-22T12:09:26.917+03:00,767005813.448632,0,-20.61,100.4508,1,0.85,2025-04-22T12:10:10.706+03:00,84,1.4,2025-04-22T09:54:17.825+03:00,0.02225348692287972,0
2025-04-22T12:10:15.344+03:00,1745313015.170257,40.95225047145286,29.14027491728716,76.29721,-1,-1,-1,-1,30,18.50609945942865,-9999,29404.89401404167,-0.6661224365234375,0.6195220947265625,-0.4672088623046875,29404.88393804167,-0.7458000360456748,-1.039824912931782,-0.693197217817441,-0.1915407031774521,0.1162771731615067,0.1211024299263954,-0.005829334259033203,-0.01377099752426147,-0.05298542976379395,XArbitraryZVertical,-0.4447838457584001,-0.3277425939036812,-0.1402094494967785,0.8216406580686486,-0.6632990837097168,0.6389997601509094,-0.3895042538642883,0,0,0,-1,-1,29382.265214,unknown,2,2025-04-22T12:09:52.710+03:00,2025-04-21T17:08:51.449+03:00,7208,0.9677966,0,0,6015.835,5,20,2025-04-22T12:09:26.917+03:00,767005813.448632,0,-20.61,100.4508,1,0.85,2025-04-22T12:10:10.706+03:00,84,1.4,2025-04-22T09:54:17.825+03:00,0.02225348692287972,0
2025-04-22T12:10:15.354+03:00,1745313015.170257,40.95225047145286,29.14027491728716,76.29721,-1,-1,-1,-1,30,18.50609945942865,-9999,29404.90409004167,-0.652557373046875,0.625,-0.50177001953125,29404.89401404167,-0.7473684863902765,-1.039800972331343,-0.6953460234732444,-0.2287874072790146,0.08630461990833282,0.1394470781087875,-0.008031308650970459,-0.02180057764053345,-0.06311094760894775,XArbitraryZVertical,-0.4457890668633784,-0.3268947119400855,-0.1402760049609038,0.8214222697503174,-0.6621041893959045,0.6406511664390564,-0.3888238966464996,0,0,0,-1,-1,29382.265214,unknown,2,2025-04-22T12:09:52.710+03:00,2025-04-21T17:08:51.449+03:00,7208,0.9677966,0,0,6015.835,5,20,2025-04-22T12:09:26.917+03:00,767005813.448632,0,-20.61,100.4508,1,0.85,2025-04-22T12:10:10.706+03:00,84,1.4,2025-04-22T09:54:17.825+03:00,0.02225348692287972,0
2025-04-22T12:10:15.364+03:00,1745313015.170257,40.95225047145286,29.14027491728716,76.29721,-1,-1,-1,-1,30,18.50609945942865,-9999,29404.91416604167,-0.64007568359375,0.6358795166015625,-0.5328369140625,29404.90409004167,-0.7493280531035045,-1.040465995107951,-0.6978595287892436,-0.2835571765899658,0.03549950197339058,0.1436945497989655,-0.003731906414031982,-0.02221786975860596,-0.08371514081954956,XArbitraryZVertical,-0.4470318861516294,-0.3261573156538075,-0.1402497495908998,0.8210444002564288,-0.6609715223312378,0.6425790786743164,-0.3875677883625031,0,0,0,-1,-1,29382.265214,unknown,2,2025-04-22T12:09:52.710+03:00,2025-04-21T17:08:51.449+03:00,7208,0.9677966,0,0,6015.835,5,20,2025-04-22T12:09:26.917+03:00,767005813.448632,0,-20.61,100.4508,1,0.85,2025-04-22T12:10:10.706+03:00,84,1.4,2025-04-22T09:54:17.825+03:00,0.02225348692287972,0
2025-04-22T12:10:15.374+03:00,1745313015.170257,40.95225047145286,29.14027491728716,76.29721,-1,-1,-1,-1,30,18.50609945942865,-9999,29404.92424204167,-0.632781982421875,0.63592529296875,-0.5540008544921875,29404.91416604167,-0.7519115455212615,-1.042004585836005,-0.7006908786185518,-0.3374765813350677,-0.009716713801026344,0.1474978178739548,0.009419679641723633,-0.01861691474914551,-0.1210524439811707,XArbitraryZVertical,-0.4485457945552408,-0.325562905325291,-0.1401957168602895,0.820463601807716,-0.6599934101104736,0.644745945930481,-0.3856309354305267,0,0,0,-1,-1,29382.265214,unknown,2,2025-04-22T12:09:52.710+03:00,2025-04-21T17:08:51.449+03:00,7208,0.9677966,0,0,6015.835,5,20,2025-04-22T12:09:26.917+03:00,767005813.448632,0,-20.61,100.4508,1,0.85,2025-04-22T12:10:10.706+03:00,84,1.4,2025-04-22T09:54:17.825+03:00,0.02225348692287972,0
2025-04-22T12:10:15.384+03:00,1745313015.170257,40.95225047145286,29.14027491728716,76.29721,-1,-1,-1,-1,30,18.50609945942865,-9999,29404.93431804167,-0.6339111328125,0.6357574462890625,-0.567657470703125,29404.92424204167,-0.7550137008099166,-1.044401735934338,-0.7039010326672542,-0.392520934343338,-0.06956353783607483,0.1661817580461502,0.0202527642250061,-0.01026427745819092,-0.1534473598003387,XArbitraryZVertical,-0.4503322573926786,-0.3251121829094059,-0.1400546268586442,0.8196874318612377,-0.6591229438781738,0.6471964716911316,-0.3830058574676514,0,0,0,-1,-1,29382.265214,unknown,2,2025-04-22T12:09:52.710+03:00,2025-04-21T17:08:51.449+03:00,7208,0.9677966,0,0,6015.835,5,20,2025-04-22T12:09:26.917+03:00,767005813.448632,0,-20.61,100.4508,1,0.85,2025-04-22T12:10:10.706+03:00,84,1.4,2025-04-22T09:54:17.825+03:00,0.02225348692287972,0
2025-04-22T12:10:15.394+03:00,1745313015.170257,40.95225047145286,29.14027491728716,76.29721,-1,-1,-1,-1,30,18.50609945942865,-9999,29404.94439304167,-0.6420440673828125,0.64459228515625,-0.5723114013671875,29404.93431804167,-0.7586529465920681,-1.047686025618039,-0.707628197997726,-0.4574987590312958,-0.1109209582209587,0.2016596645116806,0.02557742595672607,-0.01470321416854858,-0.1768261790275574,XArbitraryZVertical,-0.4524422241575752,-0.3247774164902359,-0.1397861764416964,0.8187034741688857,-0.6582831144332886,0.6500332355499268,-0.3796313405036926,0,0,0,-1,-1,29382.265214,unknown,2,2025-04-22T12:09:52.710+03:00,2025-04-21T17:08:51.449+03:00,7208,0.9677966,0,0,6015.835,5,20,2025-04-22T12:09:26.917+03:00,767005813.448632,0,-20.61,100.4508,1,0.85,2025-04-22T12:10:10.706+03:00,84,1.4,2025-04-22T09:54:17.825+03:00,0.02225348692287972,0
2025-04-22T12:10:15.405+03:00,1745313015.170257,40.95225047145286,29.14027491728716,76.29721,-1,-1,-1,-1,30,18.50609945942865,-9999,29404.95446904167,-0.646087646484375,0.6311492919921875,-0.5762481689453125,29404.94439304167,-0.7629510241806899,-1.051677579480242,-0.7122446915783704,-0.557725191116333,-0.1213048994541168,0.2776449620723724,0.02291858196258545,-0.01629698276519775,-0.1932634115219116,XArbitraryZVertical,-0.4550081899061777,-0.3243664097615853,-0.1393740397151101,0.8175137790786303,-0.6571806669235229,0.6535344123840332,-0.3755079507827759,0,0,0,-1,-1,29382.265214,unknown,2,2025-04-22T12:09:52.710+03:00,2025-04-21T17:08:51.449+03:00,7208,0.9677966,0,0,6015.835,5,20,2025-04-22T12:09:26.917+03:00,767005813.448632,0,-20.61,100.4508,1,0.85,2025-04-22T12:10:10.706+03:00,84,1.4,2025-04-22T09:54:17.825+03:00,0.02225348692287972,0
2025-04-22T12:10:15.415+03:00,1745313015.170257,40.95225047145286,29.14027491728716,76.29721,-1,-1,-1,-1,30,18.50609945942865,-9999,29404.96454504167,-0.6317291259765625,0.6048583984375,-0.58489990234375,29404.95446904167,-0.7672948766747357,-1.055145989748854,-0.7179649701710794,-0.5782106518745422,-0.01099210139364004,0.3794468939304352,0.01208865642547607,-0.01388680934906006,-0.2005988955497742,XArbitraryZVertical,-0.4579137378949344,-0.3234603219902726,-0.1387842753275154,0.8163500147206935,-0.6552161574363708,0.657853364944458,-0.3713768720626831,0,0,0,-1,-1,29382.265214,unknown,2,2025-04-22T12:09:52.710+03:00,2025-04-21T17:08:51.449+03:00,7208,0.9677966,0,0,6015.835,5,20,2025-04-22T12:09:26.917+03:00,767005813.448632,0,-20.61,100.4508,1,0.85,2025-04-22T12:10:10.706+03:00,84,1.4,2025-04-22T09:54:17.825+03:00,0.02225348692287972,0
2025-04-22T12:10:15.425+03:00,1745313015.170257,40.95225047145286,29.14027491728716,76.29721,-1,-1,-1,-1,30,18.50609945942865,-9999,29404.97462104167,-0.603179931640625,0.5605010986328125,-0.58349609375,29404.96454504167,-0.7716544904108673,-1.057908617546585,-0.7246355398267108,-0.6527778506278992,-0.03251310810446739,0.4381876885890961,0.006893515586853027,-0.03578758239746094,-0.2091648280620575,XArbitraryZVertical,-0.4610841468647371,-0.3220241073851403,-0.1380883434599249,0.8152504880029033,-0.652401328086853,0.6628625988960266,-0.3674037754535675,0,0,0,-1,-1,29382.265214,unknown,2,2025-04-22T12:09:52.710+03:00,2025-04-21T17:08:51.449+03:00,7208,0.9677966,0,0,6015.835,5,20,2025-04-22T12:09:26.917+03:00,767005813.448632,0,-20.61,100.4508,1,0.85,2025-04-22T12:10:10.706+03:00,84,1.4,2025-04-22T09:54:17.825+03:00,0.02225348692287972,0
2025-04-22T12:10:15.435+03:00,1745313015.170257,40.95225047145286,29.14027491728716,76.29721,-1,-1,-1,-1,30,18.50609945942865,-9999,29404.98469704167,-0.6015625,0.467254638671875,-0.5500640869140625,29404.97462104167,-0.7775139451990492,-1.063677570513661,-0.7322790516305758,-0.8616136312484741,-0.3231920897960663,0.471476137638092,0.021323561668396,-0.06708014011383057,-0.2248815298080444,XArbitraryZVertical,-0.4650153035726073,-0.3212154568460038,-0.1370223779259549,0.8135147362028632,-0.6500620245933533,0.6685661673545837,-0.3611627817153931,0,0,0,-1,-1,29382.265214,unknown,2,2025-04-22T12:09:52.710+03:00,2025-04-21T17:08:51.449+03:00,7208,0.9677966,0,0,6015.835,5,20,2025-04-22T12:09:26.917+03:00,767005813.448632,0,-20.61,100.4508,1,0.85,2025-04-22T12:10:10.706+03:00,84,1.4,2025-04-22T09:54:17.825+03:00,0.02225348692287972,0
2025-04-22T12:10:15.445+03:00,1745313015.170257,40.95225047145286,29.14027491728716,76.29721,-1,-1,-1,-1,30,18.50609945942865,-9999,29404.99477304167,-0.640960693359375,0.4300689697265625,-0.5211334228515625,29404.98469704167,-0.7862614376052983,-1.073806373062052,-0.7416939804398112,-1.170704007148743,-0.5063562989234924,0.5527006983757019,0.0480118989944458,-0.1261606216430664,-0.2297403514385223,XArbitraryZVertical,-0.4702752136735458,-0.3210445759583171,-0.1355822617847405,0.8107952239213544,-0.6481247544288635,0.6755378842353821,-0.3515432178974152,0,0,0,-1,-1,29382.265214,unknown,2,2025-04-22T12:09:52.710+03:00,2025-04-21T17:08:51.449+03:00,7208,0.9677966,0,0,6015.835,5,20,2025-04-22T12:09:26.917+03:00,767005813.448632,0,-20.61,100.4508,1,0.85,2025-04-22T12:10:10.706+03:00,84,1.4,2025-04-22T09:54:17.825+03:00,0.02225348692287972,0
2025-04-22T12:10:15.455+03:00,1745313015.170257,40.95225047145286,29.14027491728716,76.29721,-1,-1,-1,-1,30,18.50609945942865,-9999,29405.00484804167,-0.6716461181640625,0.4751434326171875,-0.5105438232421875,29404.99477304167,-0.7984335561824286,-1.087553317102058,-0.7532630228663515,-1.472003221511841,-0.5644455552101135,0.6398533582687378,0.04081422090530396,-0.226442277431488,-0.2064487040042877,XArbitraryZVertical,-0.47699643169889,-0.3209381393891542,-0.1339956037443794,0.8071666712988748,-0.6459320187568665,0.6840226650238037,-0.3389462232589722,0,0,0,-1,-1,29382.265214,unknown,2,2025-04-22T12:09:52.710+03:00,2025-04-21T17:08:51.449+03:00,7208,0.9677966,0,0,6015.835,5,20,2025-04-22T12:09:26.917+03:00,767005813.448632,0,-20.61,100.4508,1,0.85,2025-04-22T12:10:10.706+03:00,84,1.4,2025-04-22T09:54:17.825+03:00,0.02225348692287972,0
2025-04-22T12:10:15.465+03:00,1745313015.170257,40.95225047145286,29.14027491728716,76.29721,-1,-1,-1,-1,30,18.50609945942865,-9999,29405.01492404167,-0.6539306640625,0.544677734375,-0.5234375,29405.00484804167,-0.8139303717109805,-1.104127853982972,-0.7667107226510783,-1.705845832824707,-0.6219245791435242,0.7101650834083557,-0.003617405891418457,-0.2611530423164368,-0.1951999962329865,XArbitraryZVertical,-0.4849792417730357,-0.3205964634997112,-0.13241973190937,0.8027938086274133,-0.6431873440742493,0.6937700510025024,-0.3240260779857635,0,0,0,-1,-1,29382.265214,unknown,2,2025-04-22T12:09:52.710+03:00,2025-04-21T17:08:51.449+03:00,7208,0.9677966,0,0,6015.835,5,20,2025-04-22T12:09:26.917+03:00,767005813.448632,0,-20.61,100.4508,1,0.85,2025-04-22T12:10:10.706+03:00,84,1.4,2025-04-22T09:54:17.825+03:00,0.02225348692287972,0
2025-04-22T12:10:15.475+03:00,1745313015.170257,40.95225047145286,29.14027491728716,76.29721,-1,-1,-1,-1,30,18.50609945942865,-9999,29405.02500004167,-0.6214599609375,0.5772247314453125,-0.55194091796875,29405.01492404167,-0.8315776267991407,-1.123464563849677,-0.7811626872743956,-1.789183378219604,-0.7702632546424866,0.7580654621124268,-0.0322907567024231,-0.220173180103302,-0.2032772302627563,XArbitraryZVertical,-0.4937091688808367,-0.3204237048194075,-0.1305826626045401,0.7978270655135984,-0.6402251124382019,0.7041054964065552,-0.307159811258316,0,0,0,-1,-1,29382.265214,unknown,2,2025-04-22T12:09:52.710+03:00,2025-04-21T17:08:51.449+03:00,7208,0.9677966,0,0,6015.835,5,20,2025-04-22T12:09:26.917+03:00,767005813.448632,0,-20.61,100.4508,1,0.85,2025-04-22T12:10:10.706+03:00,84,1.4,2025-04-22T09:54:17.825+03:00,0.02225348692287972,0
2025-04-22T12:10:15.485+03:00,1745313015.170257,40.95225047145286,29.14027491728716,76.29721,-1,-1,-1,-1,30,18.50609945942865,-9999,29405.03507604167,-0.6036376953125,0.5953216552734375,-0.54278564453125,29405.02500004167,-0.8501034530707913,-1.145157565369358,-0.7960320701789551,-1.816477656364441,-0.9245521426200867,0.820893406867981,-0.0129244327545166,-0.1642473936080933,-0.238590270280838,XArbitraryZVertical,-0.5027411490106145,-0.3206693552850686,-0.1281941261574298,0.792457335925749,-0.6371304988861084,0.7145859599113464,-0.2888450026512146,0,0,0,-1,-1,29382.265214,unknown,2,2025-04-22T12:09:52.710+03:00,2025-04-21T17:08:51.449+03:00,7208,0.9677966,0,0,6015.835,5,20,2025-04-22T12:09:26.917+03:00,767005813.448632,0,-20.61,100.4508,1,0.85,2025-04-22T12:10:10.706+03:00,84,1.4,2025-04-22T09:54:17.825+03:00,0.02225348692287972,0
2025-04-22T12:10:15.495+03:00,1745313015.170257,40.95225047145286,29.14027491728716,76.29721,-1,-1,-1,-1,30,18.50609945942865,-9999,29405.04515204167,-0.6076812744140625,0.61358642578125,-0.523468017578125,29405.03507604167,-0.8697908354119689,-1.16931897607044,-0.8112667530314456,-1.889297008514404,-1.05657434463501,0.8507878184318542,0.0162433385848999,-0.1458603143692017,-0.2845827043056488,XArbitraryZVertical,-0.5120884015357903,-0.3212852972988913,-0.1253116593727886,0.7866626175335684,-0.6338275671005249,0.7251600027084351,-0.2690824568271637,0,0,0,-1,-1,29382.265214,unknown,2,2025-04-22T12:09:52.710+03:00,2025-04-21T17:08:51.449+03:00,7208,0.9677966,0,0,6015.835,5,20,2025-04-22T12:09:26.917+03:00,767005813.448632,0,-20.61,100.4508,1,0.85,2025-04-22T12:10:10.706+03:00,84,1.4,2025-04-22T09:54:17.825+03:00,0.02225348692287972,0
2025-04-22T12:10:15.505+03:00,1745313015.170257,40.95225047145286,29.14027491728716,76.29721,-1,-1,-1,-1,30,18.50609945942865,-9999,29405.05522804167,-0.613739013671875,0.6405792236328125,-0.490997314453125,29405.04515204167,-0.8916776693750673,-1.196604267775687,-0.8267373904125638,-2.012570142745972,-1.1923588514328,0.8666964769363403,0.02787506580352783,-0.1370471715927124,-0.2929372191429138,XArbitraryZVertical,-0.5218945169942879,-0.3222518866258829,-0.1221634335948053,0.7802921459977548,-0.6304140686988831,0.7357255816459656,-0.247559666633606,0,0,0,-1,-1,29382.265214,unknown,2,2025-04-22T12:09:52.710+03:00,2025-04-21T17:08:51.449+03:00,7208,0.9677966,0,0,6015.835,5,20,2025-04-22T12:09:26.917+03:00,767005813.448632,0,-20.61,100.4508,1,0.85,2025-04-22T12:10:10.706+03:00,84,1.4,2025-04-22T09:54:17.825+03:00,0.02225348692287972,0
2025-04-22T12:10:15.515+03:00,1745313015.170257,40.95225047145286,29.14027491728716,76.29721,-1,-1,-1,-1,30,18.50609945942865,-9999,29405.06530304167,-0.605377197265625,0.679046630859375,-0.4678192138671875,29405.05522804167,-0.9158281197132216,-1.227101881842289,-0.8421598127416918,-2.073655843734741,-1.313449859619141,0.8717035055160522,0.0174599289894104,-0.1304367780685425,-0.2961979508399963,XArbitraryZVertical,-0.5320675415825374,-0.3236026243981585,-0.1187741861744089,0.7733550622447037,-0.6269112229347229,0.7460829615592957,-0.2243709415197372,0,0,0,-1,-1,29382.265214,unknown,2,2025-04-22T12:09:52.710+03:00,2025-04-21T17:08:51.449+03:00,7208,0.9677966,0,0,6015.835,5,20,2025-04-22T12:09:26.917+03:00,767005813.448632,0,-20.61,100.4508,1,0.85,2025-04-22T12:10:10.706+03:00,84,1.4,2025-04-22T09:54:17.825+03:00,0.02225348692287972,0
2025-04-22T12:10:15.525+03:00,1745313015.170257,40.95225047145286,29.14027491728716,76.29721,-1,-1,-1,-1,30,18.50609945942865,-9999,29405.07537904167,-0.587493896484375,0.69769287109375,-0.45367431640625,29405.06530304167,-0.9415627711097482,-1.260282314831913,-0.8573319359912125,-2.085722923278809,-1.440339326858521,0.8977529406547546,0.009999394416809082,-0.1110950708389282,-0.2862533330917358,XArbitraryZVertical,-0.5423897440105319,-0.325314207965944,-0.1150266896909192,0.7659978500134821,-0.6231585741043091,0.7560991048812866,-0.1999680697917938,0,0,0,-1,-1,29382.265214,unknown,2,2025-04-22T12:09:52.710+03:00,2025-04-21T17:08:51.449+03:00,7208,0.9677966,0,0,6015.835,5,20,2025-04-22T12:09:26.917+03:00,767005813.448632,0,-20.61,100.4508,1,0.85,2025-04-22T12:10:10.706+03:00,84,1.4,2025-04-22T09:54:17.825+03:00,0.02225348692287972,0
2025-04-22T12:10:15.536+03:00,1745313015.170257,40.95225047145286,29.14027491728716,76.29721,-1,-1,-1,-1,30,18.50609945942865,-9999,29405.08545504167,-0.5607147216796875,0.706146240234375,-0.39166259765625,29405.07537904167,-0.9686686652194394,-1.296087575940315,-0.8722470825324222,-2.11756420135498,-1.57794201374054,0.9281808733940125,0.01512700319290161,-0.08329623937606812,-0.2918092608451843,XArbitraryZVertical,-0.5528051262956021,-0.3273831199807215,-0.110812307118577,0.7582528655941477,-0.6189935803413391,0.7657759785652161,-0.1744535714387894,0,0,0,-1,-1,29382.265214,unknown,2,2025-04-22T12:09:52.710+03:00,2025-04-21T17:08:51.449+03:00,7208,0.9677966,0,0,6015.835,5,20,2025-04-22T12:09:26.917+03:00,767005813.448632,0,-20.61,100.4508,1,0.85,2025-04-22T12:10:10.706+03:00,84,1.4,2025-04-22T09:54:17.825+03:00,0.02225348692287972,0
2025-04-22T12:10:15.546+03:00,1745313015.170257,40.95225047145286,29.14027491728716,76.29721,-1,-1,-1,-1,30,18.50609945942865,-9999,29405.09553104167,-0.5379638671875,0.7235870361328125,-0.295318603515625,29405.08545504167,-0.9980494304204681,-1.335210542534041,-0.8868553276404152,-2.207857847213745,-1.690869092941284,0.9371176362037659,0.0304911732673645,-0.07695335149765015,-0.3010039925575256,XArbitraryZVertical,-0.563469087156896,-0.3297899631228469,-0.1062482902149615,0.7499682526154657,-0.614399254322052,0.7750886082649231,-0.1474823355674744,0,0,0,-1,-1,29382.265214,unknown,2,2025-04-22T12:09:52.710+03:00,2025-04-21T17:08:51.449+03:00,7208,0.9677966,0,0,6015.835,5,20,2025-04-22T12:09:26.917+03:00,767005813.448632,0,-20.61,100.4508,1,0.85,2025-04-22T12:10:10.706+03:00,84,1.4,2025-04-22T09:54:17.825+03:00,0.02225348692287972,0
2025-04-22T12:10:15.556+03:00,1745313015.170257,40.95225047145286,29.14027491728716,76.29721,-1,-1,-1,-1,30,18.50609945942865,-9999,29405.10560704167,-0.5189056396484375,0.75177001953125,-0.2179718017578125,29405.09553104167,-1.030071044475807,-1.37763116299607,-0.9009272329670448,-2.264750242233276,-1.77088189125061,0.9382991790771484,0.05177956819534302,-0.07559019327163696,-0.2613199353218079,XArbitraryZVertical,-0.5743673761001112,-0.3324271984250039,-0.1014881068606779,0.7411439085540072,-0.609335720539093,0.7839029431343079,-0.1191885471343994,0,0,0,-1,-1,29382.265214,unknown,2,2025-04-22T12:09:52.710+03:00,2025-04-21T17:08:51.449+03:00,7208,0.9677966,0,0,6015.835,5,20,2025-04-22T12:09:26.917+03:00,767005813.448632,0,-20.61,100.4508,1,0.85,2025-04-22T12:10:10.706+03:00,84,1.4,2025-04-22T09:54:17.825+03:00,0.02225348692287972,0
2025-04-22T12:10:15.566+03:00,1745313015.170257,40.95225047145286,29.14027491728716,76.29721,-1,-1,-1,-1,30,18.50609945942865,-9999,29405.11568304167,-0.5055389404296875,0.7736053466796875,-0.1857147216796875,29405.10560704167,-1.063840495349966,-1.422424631596922,-0.9140897964318416,-2.25139856338501,-1.839239954948425,0.9377444982528687,0.06919705867767334,-0.06477349996566772,-0.1930135488510132,XArbitraryZVertical,-0.5852124524851012,-0.3352626624889838,-0.09653558507892547,0.7319878242554554,-0.6038040518760681,0.7920072078704834,-0.09025066345930099,0,0,0,-1,-1,29382.265214,unknown,2,2025-04-22T12:09:52.710+03:00,2025-04-21T17:08:51.449+03:00,7208,0.9677966,0,0,6015.835,5,20,2025-04-22T12:09:26.917+03:00,767005813.448632,0,-20.61,100.4508,1,0.85,2025-04-22T12:10:10.706+03:00,84,1.4,2025-04-22T09:54:17.825+03:00,0.02225348692287972,0
2025-04-22T12:10:15.576+03:00,1745313015.170257,40.95225047145286,29.14027491728716,76.29721,-1,-1,-1,-1,30,18.50609945942865,-9999,29405.12575804167,-0.491485595703125,0.7752227783203125,-0.1540679931640625,29405.11568304167,-1.098573375204702,-1.469093398515252,-0.9262824617671128,-2.191632270812988,-1.932242631912231,0.9373990893363953,0.0804780125617981,-0.04342591762542725,-0.1509611010551453,XArbitraryZVertical,-0.5958442737377676,-0.3383344323827969,-0.09124312061705468,0.7226160868651179,-0.5977051854133606,0.7993919253349304,-0.0609988272190094,0,0,0,-1,-1,29382.265214,unknown,2,2025-04-22T12:09:52.710+03:00,2025-04-21T17:08:51.449+03:00,7208,0.9677966,0,0,6015.835,5,20,2025-04-22T12:09:26.917+03:00,767005813.448632,0,-20.61,100.4508,1,0.85,2025-04-22T12:10:10.706+03:00,84,1.4,2025-04-22T09:54:17.825+03:00,0.02225348692287972,0
2025-04-22T12:10:15.586+03:00,1745313015.170257,40.95225047145286,29.14027491728716,76.29721,-1,-1,-1,-1,30,18.50609945942865,-9999,29405.13583404167,-0.4774017333984375,0.7751312255859375,-0.095306396484375,29405.12575804167,-1.13311414959078,-1.516719098866317,-0.9372519089462367,-2.049947261810303,-2.011102676391602,0.9107139110565186,0.08723318576812744,-0.03147464990615845,-0.1507561802864075,XArbitraryZVertical,-0.6059891937006644,-0.3417278270950949,-0.08555144305068486,0.7132180642603907,-0.5911394357681274,0.8059342503547668,-0.03199837729334831,0,0,0,-1,-1,29382.265214,unknown,2,2025-04-22T12:09:52.710+03:00,2025-04-21T17:08:51.449+03:00,7208,0.9677966,0,0,6015.835,5,20,2025-04-22T12:09:26.917+03:00,767005813.448632,0,-20.61,100.4508,1,0.85,2025-04-22T12:10:10.706+03:00,84,1.4,2025-04-22T09:54:17.825+03:00,0.02225348692287972,0
2025-04-22T12:10:15.596+03:00,1745313015.170257,40.95225047145286,29.14027491728716,76.29721,-1,-1,-1,-1,30,18.50609945942865,-9999,29405.14591004167,-0.4703826904296875,0.79254150390625,-0.023529052734375,29405.13583404167,-1.166319526426055,-1.564057864193969,-0.9468611721350981,-1.879353284835815,-2.056478261947632,0.8715594410896301,0.09488582611083984,-0.03704971075057983,-0.1442413330078125,XArbitraryZVertical,-0.6154018651531825,-0.345415897653394,-0.07950846833282665,0.7040218146098641,-0.5842199921607971,0.8115857243537903,-0.00393680389970541,0,0,0,-1,-1,29382.265214,unknown,2,2025-04-22T12:09:52.710+03:00,2025-04-21T17:08:51.449+03:00,7208,0.9677966,0,0,6015.835,5,20,2025-04-22T12:09:26.917+03:00,767005813.448632,0,-20.61,100.4508,1,0.85,2025-04-22T12:10:10.706+03:00,84,1.4,2025-04-22T09:54:17.825+03:00,0.02225348692287972,0
2025-04-22T12:10:15.606+03:00,1745313015.170257,40.95225047145286,29.14027491728716,76.29721,-1,-1,-1,-1,30,18.50609945942865,-9999,29405.15598604167,-0.463592529296875,0.8051910400390625,0.0559539794921875,29405.14591004167,-1.197594461612986,-1.610324968745015,-0.9550099692670533,-1.692948818206787,-2.066302061080933,0.8031598925590515,0.1010141372680664,-0.04021173715591431,-0.1098924875259399,XArbitraryZVertical,-0.6239709782644588,-0.3493896541479615,-0.07323918324291596,0.6951425264686331,-0.5771494507789612,0.8163195252418518,0.0228258240967989,0,0,0,-1,-1,29382.265214,unknown,2,2025-04-22T12:09:52.710+03:00,2025-04-21T17:08:51.449+03:00,7208,0.9677966,0,0,6015.835,5,20,2025-04-22T12:09:26.917+03:00,767005813.448632,0,-20.61,100.4508,1,0.85,2025-04-22T12:10:10.706+03:00,84,1.4,2025-04-22T09:54:17.825+03:00,0.02225348692287972,0
2025-04-22T12:10:15.616+03:00,1745313015.170257,40.95225047145286,29.14027491728716,76.29721,-1,-1,-1,-1,30,18.50609945942865,-9999,29405.16606204167,-0.4642791748046875,0.8038177490234375,0.1320037841796875,29405.15598604167,-1.226129750715899,-1.654415175433814,-0.9618619442117288,-1.482439994812012,-2.047791004180908,0.7540408968925476,0.100924551486969,-0.02460390329360962,-0.06138456240296364,XArbitraryZVertical,-0.631586538797155,-0.3535326054951636,-0.06682089233391379,0.6867663296703932,-0.5699949264526367,0.8202580213546753,0.04777371883392334,0,0,0,-1,-1,29382.265214,unknown,2,2025-04-22T12:09:52.710+03:00,2025-04-21T17:08:51.449+03:00,7208,0.9677966,0,0,6015.835,5,20,2025-04-22T12:09:26.917+03:00,767005813.448632,0,-20.61,100.4508,1,0.85,2025-04-22T12:10:10.706+03:00,84,1.4,2025-04-22T09:54:17.825+03:00,0.02225348692287972,0
2025-04-22T12:10:15.626+03:00,1745313015.170257,40.95225047145286,29.14027491728716,76.29721,-1,-1,-1,-1,30,18.50609945942865,-9999,29405.17613804167,-0.47796630859375,0.8201141357421875,0.2285003662109375,29405.16606204167,-1.252312148714608,-1.696448729560432,-0.9675566051936834,-1.331957221031189,-2.010323762893677,0.6785253882408142,0.09962940216064453,-0.01821964979171753,-0.005713000893592834,XArbitraryZVertical,-0.6383841200597762,-0.357790612175601,-0.06037464048630704,0.678827162473955,-0.5628404021263123,0.8235020041465759,0.07109681516885757,0,0,0,-1,-1,29382.265214,unknown,2,2025-04-22T12:09:52.710+03:00,2025-04-21T17:08:51.449+03:00,7208,0.9677966,0,0,6015.835,5,20,2025-04-22T12:09:26.917+03:00,767005813.448632,0,-20.61,100.4508,1,0.85,2025-04-22T12:10:10.706+03:00,84,1.4,2025-04-22T09:54:17.825+03:00,0.02225348692287972,0
2025-04-22T12:10:15.636+03:00,1745313015.170257,40.95225047145286,29.14027491728716,76.29721,-1,-1,-1,-1,30,18.50609945942865,-9999,29405.18621304167,-0.495819091796875,0.8260498046875,0.275299072265625,29405.17613804167,-1.275475717326482,-1.735309451718513,-0.9723062870465625,-1.114841222763062,-1.912474632263184,0.636516273021698,0.09063959121704102,-0.02146941423416138,0.05087423324584961,XArbitraryZVertical,-0.6442781850506429,-0.3619942349947139,-0.05402278932717939,0.671526025612914,-0.555788516998291,0.8261872529983521,0.09226841479539871,0,0,0,-1,-1,29382.265214,unknown,2,2025-04-22T12:09:52.710+03:00,2025-04-21T17:08:51.449+03:00,7208,0.9677966,0,0,6015.835,5,20,2025-04-22T12:09:26.917+03:00,767005813.448632,0,-20.61,100.4508,1,0.85,2025-04-22T12:10:10.706+03:00,84,1.4,2025-04-22T09:54:17.825+03:00,0.02225348692287972,0
2025-04-22T12:10:15.647+03:00,1745313015.170257,40.95225047145286,29.14027491728716,76.29721,-1,-1,-1,-1,30,18.50609945942865,-9999,29405.19628879167,-0.494903564453125,0.8186798095703125,0.3072509765625,29405.18621304167,-1.296470470903756,-1.771598843243914,-0.9764507433885051,-1.057030916213989,-1.844627618789673,0.5930241942405701,0.06751370429992676,-0.005959808826446533,0.1265773773193359,XArbitraryZVertical,-0.6495138544999062,-0.3660273478561527,-0.04780000389169695,0.6647335842282986,-0.5487148761749268,0.8285151124000549,0.111688531935215,0,0,0,-1,-1,29382.265214,unknown,2,2025-04-22T12:09:52.710+03:00,2025-04-21T17:08:51.449+03:00,7208,0.9677966,0,0,6015.835,5,20,2025-04-22T12:09:26.917+03:00,767005813.448632,0,-20.61,100.4508,1,0.85,2025-04-22T12:10:10.706+03:00,84,1.4,2025-04-22T09:54:17.825+03:00,0.02225348692287972,0
2025-04-22T12:10:15.656+03:00,1745313015.170257,40.95225047145286,29.14027491728716,76.29721,-1,-1,-1,-1,30,18.50609945942865,-9999,29405.20636479167,-0.493896484375,0.7918243408203125,0.3455047607421875,29405.19628879167,-1.317587500930824,-1.807170573363337,-0.9797659421502458,-1.079830884933472,-1.742111444473267,0.5673210620880127,0.04529297351837158,-0.004805684089660645,0.1473128646612167,XArbitraryZVertical,-0.6545553511717346,-0.3698669778761937,-0.04198359331565341,0.6580220146875532,-0.5417224168777466,0.8303669691085815,0.1304885745048523,0,0,0,-1,-1,29382.265214,unknown,2,2025-04-22T12:09:52.710+03:00,2025-04-21T17:08:51.449+03:00,7208,0.9677966,0,0,6015.835,5,20,2025-04-22T12:09:26.917+03:00,767005813.448632,0,-20.61,100.4508,1,0.85,2025-04-22T12:10:10.706+03:00,84,1.4,2025-04-22T09:54:17.825+03:00,0.02225348692287972,0
2025-04-22T12:10:15.666+03:00,1745313015.170257,40.95225047145286,29.14027491728716,76.29721,-1,-1,-1,-1,30,18.50609945942865,-9999,29405.21644079167,-0.482574462890625,0.783843994140625,0.3470916748046875,29405.20636479167,-1.339648270845231,-1.842528165434722,-0.9826083793560444,-1.138224959373474,-1.641541719436646,0.5880244970321655,0.04011058807373047,-0.01593810319900513,0.1647824048995972,XArbitraryZVertical,-0.6596260328987936,-0.3733028141782614,-0.03655488272408269,0.651308095864425,-0.5344954133033752,0.8319474458694458,0.1489229947328568,0,0,0,-1,-1,29382.265214,unknown,2,2025-04-22T12:09:52.710+03:00,2025-04-21T17:08:51.449+03:00,7208,0.9677966,0,0,6015.835,5,20,2025-04-22T12:09:26.917+03:00,767005813.448632,0,-20.61,100.4508,1,0.85,2025-04-22T12:10:10.706+03:00,84,1.4,2025-04-22T09:54:17.825+03:00,0.02225348692287972,0
2025-04-22T12:10:15.677+03:00,1745313015.170257,40.95225047145286,29.14027491728716,76.29721,-1,-1,-1,-1,30,18.50609945942865,-9999,29405.22651679167,-0.47564697265625,0.8007049560546875,0.3412933349609375,29405.21644079167,-1.36270866849239,-1.877828488142347,-0.9849490020557566,-1.134042978286743,-1.556199908256531,0.585282564163208,0.03284686803817749,-0.04456311464309692,0.1803068965673447,XArbitraryZVertical,-0.6647529690360137,-0.3763721908634061,-0.03148579749234746,0.6445587244755482,-0.5270485281944275,0.8332439064979553,0.1671050786972046,0,0,0,-1,-1,29382.265214,unknown,2,2025-04-22T12:09:52.710+03:00,2025-04-21T17:08:51.449+03:00,7208,0.9677966,0,0,6015.835,5,20,2025-04-22T12:09:26.917+03:00,767005813.448632,0,-20.61,100.4508,1,0.85,2025-04-22T12:10:10.706+03:00,84,1.4,2025-04-22T09:54:17.825+03:00,0.02225348692287972,0
2025-04-22T12:10:15.687+03:00,1745313015.170257,40.95225047145286,29.14027491728716,76.29721,-1,-1,-1,-1,30,18.50609945942865,-9999,29405.23659279167,-0.48040771484375,0.8262481689453125,0.3265380859375,29405.22651679167,-1.384936983904833,-1.911700471433487,-0.9871408552293014,-1.014911770820618,-1.490387439727783,0.5985693335533142,0.03892666101455688,-0.04890084266662598,0.1616848856210709,XArbitraryZVertical,-0.6696116245405479,-0.3791355941654612,-0.02651616795765132,0.6381013969356761,-0.5193649530410767,0.8344537615776062,0.1842470467090607,0,0,0,-1,-1,29382.265214,unknown,2,2025-04-22T12:09:52.710+03:00,2025-04-21T17:08:51.449+03:00,7208,0.9677966,0,0,6015.835,5,20,2025-04-22T12:09:26.917+03:00,767005813.448632,0,-20.61,100.4508,1,0.85,2025-04-22T12:10:10.706+03:00,84,1.4,2025-04-22T09:54:17.825+03:00,0.02225348692287972,0
2025-04-22T12:10:15.697+03:00,1745313015.170257,40.95225047145286,29.14027491728716,76.29721,-1,-1,-1,-1,30,18.50609945942865,-9999,29405.24666879167,-0.494140625,0.8548126220703125,0.3074188232421875,29405.23659279167,-1.404479316495105,-1.94275782617308,-0.9895874894819913,-0.8092908263206482,-1.434711694717407,0.6039537191390991,0.0349574089050293,-0.0323939323425293,0.1401633024215698,XArbitraryZVertical,-0.6738659501102696,-0.3816754887225147,-0.02140071927660223,0.6322739908252938,-0.5114893913269043,0.8357995748519897,0.1995429992675781,0,0,0,-1,-1,29382.265214,unknown,2,2025-04-22T12:09:52.710+03:00,2025-04-21T17:08:51.449+03:00,7208,0.9677966,0,0,6015.835,5,20,2025-04-22T12:09:26.917+03:00,767005813.448632,0,-20.61,100.4508,1,0.85,2025-04-22T12:10:10.706+03:00,84,1.4,2025-04-22T09:54:17.825+03:00,0.02225348692287972,0
2025-04-22T12:10:15.707+03:00,1745313015.170257,40.95225047145286,29.14027491728716,76.29721,-1,-1,-1,-1,30,18.50609945942865,-9999,29405.25674379167,-0.5048370361328125,0.863128662109375,0.3038482666015625,29405.24666879167,-1.420739952106011,-1.970603547806826,-0.992527934670589,-0.6170998215675354,-1.39171302318573,0.5975266695022583,0.02144408226013184,-0.007088363170623779,0.1111491620540619,XArbitraryZVertical,-0.6774126022101487,-0.3840399018994828,-0.01604402998620933,0.6271904675123576,-0.5034691691398621,0.8374103307723999,0.2127489596605301,0,0,0,-1,-1,29382.265214,unknown,2,2025-04-22T12:09:52.710+03:00,2025-04-21T17:08:51.449+03:00,7208,0.9677966,0,0,6015.835,5,20,2025-04-22T12:09:26.917+03:00,767005813.448632,0,-20.61,100.4508,1,0.85,2025-04-22T12:10:10.706+03:00,84,1.4,2025-04-22T09:54:17.825+03:00,0.02225348692287972,0
