loggingTime(txt),locationTimestamp_since1970(s),locationLatitude(WGS84),locationLongitude(WGS84),locationAltitude(m),locationSpeed(m/s),locationSpeedAccuracy(m/s),locationCourse(°),locationCourseAccuracy(°),locationVerticalAccuracy(m),locationHorizontalAccuracy(m),locationFloor(Z),accelerometerTimestamp_sinceReboot(s),accelerometerAccelerationX(G),accelerometerAccelerationY(G),accelerometerAccelerationZ(G),motionTimestamp_sinceReboot(s),motionYaw(rad),motionRoll(rad),motionPitch(rad),motionRotationRateX(rad/s),motionRotationRateY(rad/s),motionRotationRateZ(rad/s),motionUserAccelerationX(G),motionUserAccelerationY(G),motionUserAccelerationZ(G),motionAttitudeReferenceFrame(txt),motionQuaternionX(R),motionQuaternionY(R),motionQuaternionZ(R),motionQuaternionW(R),motionGravityX(G),motionGravityY(G),motionGravityZ(G),motionMagneticFieldX(µT),motionMagneticFieldY(µT),motionMagneticFieldZ(µT),motionHeading(°),motionMagneticFieldCalibrationAccuracy(Z),activityTimestamp_sinceReboot(s),activity(txt),activityActivityConfidence(Z),activityActivityStartDate(txt),pedometerStartDate(txt),pedometerNumberofSteps(N),pedometerAverageActivePace(s/m),pedometerCurrentPace(s/m),pedometerCurrentCadence(steps/s),pedometerDistance(m),pedometerFloorAscended(N),pedometerFloorDescended(N),pedometerEndDate(txt),altimeterTimestamp_sinceReboot(s),altimeterReset(bool),altimeterRelativeAltitude(m),altimeterPressure(kPa),batteryState(N),batteryLevel(R),heartRateBPMTimestamp(txt),heartRateBPM(N),heartRateBPS(R),heartRateVariabilityTimestamp(txt),heartRateVariability(ms),label
2025-04-22T12:25:58.824+03:00,1745313958.242182,40.95219108736872,29.14026335014715,76.62879,-1,-1,-1,-1,30,21.38793351532817,-9999,30239.2458145,-0.6051788330078125,0.47393798828125,-0.541015625,30239.2357385,-0.7097891358584063,-0.8541919118771177,-0.4961836793746583,0.04427109658718109,-0.08145242929458618,-0.03451735526323318,-0.06075423955917358,0.01899832487106323,-0.02104490995407104,XArbitraryZVertical,-0.3491036321435416,-0.2988603125936714,-0.211216330640168,0.8626683036193949,-0.6631073951721191,0.4760729074478149,-0.5776183605194092,0,0,0,-1,-1,30235.1360655,unknown,2,2025-04-22T12:25:44.559+03:00,2025-04-21T17:08:51.449+03:00,7274,0.979095,0,0,6062.87,5,20,2025-04-22T12:23:51.056+03:00,767006736.9230493,0,-20.46,100.4482,1,0.85,2025-04-22T12:25:30.239+03:00,82,1.366666666666667,2025-04-22T09:54:17.825+03:00,0.02225348692287972,0
2025-04-22T12:25:58.827+03:00,1745313958.242182,40.95219108736872,29.14026335014715,76.62879,-1,-1,-1,-1,30,21.38793351532817,-9999,30239.2558915,-0.6918792724609375,0.459808349609375,-0.567474365234375,30239.2458145,-0.7098121344083995,-0.8545515677430862,-0.4957898474076523,0.01147506665438414,0.0102591086179018,-0.02704265899956226,0.03430616855621338,0.03397789597511292,0.03355759382247925,XArbitraryZVertical,-0.348989087788567,-0.2990905790009213,-0.2112529329849435,0.8626259232431874,-0.6634564995765686,0.4757265448570251,-0.5775029063224792,0,0,0,-1,-1,30235.1360655,unknown,2,2025-04-22T12:25:44.559+03:00,2025-04-21T17:08:51.449+03:00,7274,0.979095,0,0,6062.87,5,20,2025-04-22T12:23:51.056+03:00,767006736.9230493,0,-20.46,100.4482,1,0.85,2025-04-22T12:25:30.239+03:00,82,1.366666666666667,2025-04-22T09:54:17.825+03:00,0.02225348692287972,0
2025-04-22T12:25:58.828+03:00,1745313958.242182,40.95219108736872,29.14026335014715,76.62879,-1,-1,-1,-1,30,21.38793351532817,-9999,30239.2659675,-0.6626129150390625,0.4794769287109375,-0.566375732421875,30239.2558915,-0.7099467549948951,-0.8545192349423315,-0.4955785409626167,-0.0006114239804446697,-0.002425527200102806,-0.018998047336936,0.0494999885559082,-0.007492721080780029,0.03301948308944702,XArbitraryZVertical,-0.3489221359553554,-0.2990956113918936,-0.2113646318269121,0.8626238854203635,-0.6635136604309082,0.4755406677722931,-0.5775903463363647,0,0,0,-1,-1,30235.1360655,unknown,2,2025-04-22T12:25:44.559+03:00,2025-04-21T17:08:51.449+03:00,7274,0.979095,0,0,6062.87,5,20,2025-04-22T12:23:51.056+03:00,767006736.9230493,0,-20.46,100.4482,1,0.85,2025-04-22T12:25:30.239+03:00,82,1.366666666666667,2025-04-22T09:54:17.825+03:00,0.02225348692287972,0
2025-04-22T12:25:58.831+03:00,1745313958.242182,40.95219108736872,29.14026335014715,76.62879,-1,-1,-1,-1,30,21.38793351532817,-9999,30239.2760435,-0.6323394775390625,0.4771270751953125,-0.56170654296875,30239.2659675,-0.7101031340063784,-0.8547854945877708,-0.4955379266970521,-0.01231788098812103,-0.02528636902570724,-0.009084697812795639,-0.03199672698974609,-0.01307219266891479,0.008990645408630371,XArbitraryZVertical,-0.3489575805075575,-0.2991913288001964,-0.2113948503410892,0.8625689584611524,-0.6636819839477539,0.4755049347877502,-0.5774263143539429,0,0,0,-1,-1,30235.1360655,unknown,2,2025-04-22T12:25:44.559+03:00,2025-04-21T17:08:51.449+03:00,7274,0.979095,0,0,6062.87,5,20,2025-04-22T12:23:51.056+03:00,767006736.9230493,0,-20.46,100.4482,1,0.85,2025-04-22T12:25:30.239+03:00,82,1.366666666666667,2025-04-22T09:54:17.825+03:00,0.02225348692287972,0
2025-04-22T12:25:58.841+03:00,1745313958.242182,40.95219108736872,29.14026335014715,76.62879,-1,-1,-1,-1,30,21.38793351532817,-9999,30239.2861205,-0.657928466796875,0.477783203125,-0.563568115234375,30239.2760435,-0.7103206048850625,-0.8550822253519397,-0.4955675148080631,-0.01761350966989994,-0.002433184068650007,-0.005163692403584719,0.008370876312255859,0.005456447601318359,0.01107329130172729,XArbitraryZVertical,-0.3490332130461248,-0.2992754016266907,-0.2114301332321658,0.8625005065329971,-0.6638426780700684,0.4755309820175171,-0.57722008228302,0,0,0,-1,-1,30235.1360655,unknown,2,2025-04-22T12:25:44.559+03:00,2025-04-21T17:08:51.449+03:00,7274,0.979095,0,0,6062.87,5,20,2025-04-22T12:23:51.056+03:00,767006736.9230493,0,-20.46,100.4482,1,0.85,2025-04-22T12:25:30.239+03:00,82,1.366666666666667,2025-04-22T09:54:17.825+03:00,0.02225348692287972,0
2025-04-22T12:25:58.851+03:00,1745313958.242182,40.95219108736872,29.14026335014715,76.62879,-1,-1,-1,-1,30,21.38793351532817,-9999,30239.2961965,-0.6565093994140625,0.4871673583984375,-0.566192626953125,30239.2861205,-0.7104581199517001,-0.8551333174213793,-0.4956350811977883,-0.01207999419420958,-0.005619655828922987,-0.002771374769508839,0.02963167428970337,0.0008804202079772949,0.01608425378799438,XArbitraryZVertical,-0.3490858762125375,-0.2992598529404232,-0.2114651793257003,0.8624761483994765,-0.6638479828834534,0.4755904078483582,-0.5771651864051819,0,0,0,-1,-1,30235.1360655,unknown,2,2025-04-22T12:25:44.559+03:00,2025-04-21T17:08:51.449+03:00,7274,0.979095,0,0,6062.87,5,20,2025-04-22T12:23:51.056+03:00,767006736.9230493,0,-20.46,100.4482,1,0.85,2025-04-22T12:25:30.239+03:00,82,1.366666666666667,2025-04-22T09:54:17.825+03:00,0.02225348692287972,0
2025-04-22T12:25:58.861+03:00,1745313958.242182,40.95219108736872,29.14026335014715,76.62879,-1,-1,-1,-1,30,21.38793351532817,-9999,30239.3062735,-0.647918701171875,0.488433837890625,-0.571746826171875,30239.2961965,-0.7105346340015076,-0.855277508773285,-0.4957128984872821,-0.002190878381952643,-0.02037942782044411,-0.004095898009836674,0.004158973693847656,0.003177076578140259,0.01298874616622925,XArbitraryZVertical,-0.3491433958128694,-0.2992930254769553,-0.2114553134212292,0.8624437224145973,-0.6639032363891602,0.4756588637828827,-0.5770451426506042,0,0,0,-1,-1,30235.1360655,unknown,2,2025-04-22T12:25:44.559+03:00,2025-04-21T17:08:51.449+03:00,7274,0.979095,0,0,6062.87,5,20,2025-04-22T12:23:51.056+03:00,767006736.9230493,0,-20.46,100.4482,1,0.85,2025-04-22T12:25:30.239+03:00,82,1.366666666666667,2025-04-22T09:54:17.825+03:00,0.02225348692287972,0
2025-04-22T12:25:58.871+03:00,1745313958.242182,40.95219108736872,29.14026335014715,76.62879,-1,-1,-1,-1,30,21.38793351532817,-9999,30239.3163495,-0.654388427734375,0.488800048828125,-0.5716705322265625,30239.3062735,-0.7105479844725785,-0.8554551370886369,-0.4956657454049957,0.00481723016127944,-0.0180832501500845,-0.006744411773979664,0.009359538555145264,0.01151934266090393,0.01024574041366577,XArbitraryZVertical,-0.3491455270408785,-0.2993767729149577,-0.2114407755548958,0.8624173138952557,-0.6640226244926453,0.475617378950119,-0.5769419074058533,0,0,0,-1,-1,30235.1360655,unknown,2,2025-04-22T12:25:44.559+03:00,2025-04-21T17:08:51.449+03:00,7274,0.979095,0,0,6062.87,5,20,2025-04-22T12:23:51.056+03:00,767006736.9230493,0,-20.46,100.4482,1,0.85,2025-04-22T12:25:30.239+03:00,82,1.366666666666667,2025-04-22T09:54:17.825+03:00,0.02225348692287972,0
2025-04-22T12:25:58.881+03:00,1745313958.242182,40.95219108736872,29.14026335014715,76.62879,-1,-1,-1,-1,30,21.38793351532817,-9999,30239.3264265,-0.650909423828125,0.486358642578125,-0.570648193359375,30239.3163495,-0.7105722796049608,-0.8556733174953004,-0.4955641426911915,0.003605824895203114,-0.02107231505215168,-0.006747440900653601,0.0154881477355957,0.01249372959136963,0.004853010177612305,XArbitraryZVertical,-0.3491319713386193,-0.2994870488344361,-0.2114362739793993,0.862385722914677,-0.6641850471496582,0.4755280017852783,-0.5768287777900696,0,0,0,-1,-1,30235.1360655,unknown,2,2025-04-22T12:25:44.559+03:00,2025-04-21T17:08:51.449+03:00,7274,0.979095,0,0,6062.87,5,20,2025-04-22T12:23:51.056+03:00,767006736.9230493,0,-20.46,100.4482,1,0.85,2025-04-22T12:25:30.239+03:00,82,1.366666666666667,2025-04-22T09:54:17.825+03:00,0.02225348692287972,0
2025-04-22T12:25:58.891+03:00,1745313958.242182,40.95219108736872,29.14026335014715,76.62879,-1,-1,-1,-1,30,21.38793351532817,-9999,30239.3365025,-0.652740478515625,0.484588623046875,-0.5720977783203125,30239.3264265,-0.7106239231442878,-0.8559165407562319,-0.4955095009389954,0.0002576987026259303,-0.02323560044169426,-0.006576465908437967,0.0100175142288208,0.01266384124755859,0.005044162273406982,XArbitraryZVertical,-0.349143847078062,-0.2995938929662375,-0.2114284942699863,0.8623455788818756,-0.664344847202301,0.475479930639267,-0.5766841173171997,0,0,0,-1,-1,30235.1360655,unknown,2,2025-04-22T12:25:44.559+03:00,2025-04-21T17:08:51.449+03:00,7274,0.979095,0,0,6062.87,5,20,2025-04-22T12:23:51.056+03:00,767006736.9230493,0,-20.46,100.4482,1,0.85,2025-04-22T12:25:30.239+03:00,82,1.366666666666667,2025-04-22T09:54:17.825+03:00,0.02225348692287972,0
2025-04-22T12:25:58.901+03:00,1745313958.242182,40.95219108736872,29.14026335014715,76.62879,-1,-1,-1,-1,30,21.38793351532817,-9999,30239.3465785,-0.656402587890625,0.4844970703125,-0.57080078125,30239.3365025,-0.7106807726928366,-0.8561527303872035,-0.4954658582378306,-0.002648742171004415,-0.02127112075686455,-0.006915020756423473,0.01416712999343872,0.01125264167785645,0.006380975246429443,XArbitraryZVertical,-0.3491600631134135,-0.2996945825684681,-0.2114216980407011,0.8623056859553825,-0.6644967198371887,0.4754415452480316,-0.5765408277511597,0,0,0,-1,-1,30235.1360655,unknown,2,2025-04-22T12:25:44.559+03:00,2025-04-21T17:08:51.449+03:00,7274,0.979095,0,0,6062.87,5,20,2025-04-22T12:23:51.056+03:00,767006736.9230493,0,-20.46,100.4482,1,0.85,2025-04-22T12:25:30.239+03:00,82,1.366666666666667,2025-04-22T09:54:17.825+03:00,0.02225348692287972,0
2025-04-22T12:25:58.911+03:00,1745313958.242182,40.95219108736872,29.14026335014715,76.62879,-1,-1,-1,-1,30,21.38793351532817,-9999,30239.3566555,-0.654998779296875,0.4862060546875,-0.572662353515625,30239.3465785,-0.7107526467000871,-0.856416326496832,-0.4954503490317008,-0.004506296943873167,-0.0232330709695816,-0.003869695588946342,0.01144075393676758,0.008946985006332397,0.004364252090454102,XArbitraryZVertical,-0.3491925457141461,-0.2997988022762923,-0.2114101972240257,0.8622591624118447,-0.6646542549133301,0.4754278957843781,-0.5763704776763916,0,0,0,-1,-1,30235.1360655,unknown,2,2025-04-22T12:25:44.559+03:00,2025-04-21T17:08:51.449+03:00,7274,0.979095,0,0,6062.87,5,20,2025-04-22T12:23:51.056+03:00,767006736.9230493,0,-20.46,100.4482,1,0.85,2025-04-22T12:25:30.239+03:00,82,1.366666666666667,2025-04-22T09:54:17.825+03:00,0.02225348692287972,0
2025-04-22T12:25:58.921+03:00,1745313958.242182,40.95219108736872,29.14026335014715,76.62879,-1,-1,-1,-1,30,21.38793351532817,-9999,30239.3667315,-0.6548309326171875,0.485992431640625,-0.57012939453125,30239.3566555,-0.7108367934380799,-0.8566993952913168,-0.4954690176578069,-0.005872365552932024,-0.02504441887140274,-0.004917982500046492,0.008331775665283203,0.009312033653259277,0.00548255443572998,XArbitraryZVertical,-0.3492424659846078,-0.2999023897985147,-0.2113928008141681,0.8622071924640771,-0.6648106575012207,0.4754443168640137,-0.5761765241622925,0,0,0,-1,-1,30235.1360655,unknown,2,2025-04-22T12:25:44.559+03:00,2025-04-21T17:08:51.449+03:00,7274,0.979095,0,0,6062.87,5,20,2025-04-22T12:23:51.056+03:00,767006736.9230493,0,-20.46,100.4482,1,0.85,2025-04-22T12:25:30.239+03:00,82,1.366666666666667,2025-04-22T09:54:17.825+03:00,0.02225348692287972,0
2025-04-22T12:25:58.931+03:00,1745313958.242182,40.95219108736872,29.14026335014715,76.62879,-1,-1,-1,-1,30,21.38793351532817,-9999,30239.3768085,-0.6563720703125,0.4846954345703125,-0.5670623779296875,30239.3667315,-0.7109343655125825,-0.8569930152808358,-0.4955003537612239,-0.009161102585494518,-0.02791956998407841,-0.005336631089448929,0.01091581583023071,0.01132914423942566,0.002790391445159912,XArbitraryZVertical,-0.3493005390651743,-0.3000056214676078,-0.2113764524085378,0.8621517404354755,-0.6649685502052307,0.4754718840122223,-0.5759715437889099,0,0,0,-1,-1,30235.1360655,unknown,2,2025-04-22T12:25:44.559+03:00,2025-04-21T17:08:51.449+03:00,7274,0.979095,0,0,6062.87,5,20,2025-04-22T12:23:51.056+03:00,767006736.9230493,0,-20.46,100.4482,1,0.85,2025-04-22T12:25:30.239+03:00,82,1.366666666666667,2025-04-22T09:54:17.825+03:00,0.02225348692287972,0
2025-04-22T12:25:58.941+03:00,1745313958.242182,40.95219108736872,29.14026335014715,76.62879,-1,-1,-1,-1,30,21.38793351532817,-9999,30239.3868845,-0.656036376953125,0.484527587890625,-0.564971923828125,30239.3768085,-0.7110302398162098,-0.857303288636908,-0.4955448750548117,-0.008982671424746513,-0.02595894783735275,-8.873938350006938e-05,0.01002562046051025,0.010954350233078,0.006094992160797119,XArbitraryZVertical,-0.3493652723761993,-0.3001136675332388,-0.2113534629206885,0.8620936698135183,-0.6651313304901123,0.4755110442638397,-0.5757513642311096,0,0,0,-1,-1,30235.1360655,unknown,2,2025-04-22T12:25:44.559+03:00,2025-04-21T17:08:51.449+03:00,7274,0.979095,0,0,6062.87,5,20,2025-04-22T12:23:51.056+03:00,767006736.9230493,0,-20.46,100.4482,1,0.85,2025-04-22T12:25:30.239+03:00,82,1.366666666666667,2025-04-22T09:54:17.825+03:00,0.02225348692287972,0
2025-04-22T12:25:58.951+03:00,1745313958.242182,40.95219108736872,29.14026335014715,76.62879,-1,-1,-1,-1,30,21.38793351532817,-9999,30239.3969615,-0.652801513671875,0.4835968017578125,-0.566864013671875,30239.3868845,-0.7111492070150568,-0.8576133163098074,-0.4956865310183368,-0.01643179915845394,-0.02435972169041634,0.0004225875600241125,0.00859677791595459,0.009013831615447998,0.008972704410552979,XArbitraryZVertical,-0.3494719782092296,-0.3001980004941887,-0.2113183020012445,0.8620295275682103,-0.6652587056159973,0.4756356775760651,-0.5755009651184082,0,0,0,-1,-1,30235.1360655,unknown,2,2025-04-22T12:25:44.559+03:00,2025-04-21T17:08:51.449+03:00,7274,0.979095,0,0,6062.87,5,20,2025-04-22T12:23:51.056+03:00,767006736.9230493,0,-20.46,100.4482,1,0.85,2025-04-22T12:25:30.239+03:00,82,1.366666666666667,2025-04-22T09:54:17.825+03:00,0.02225348692287972,0
2025-04-22T12:25:58.961+03:00,1745313958.242182,40.95219108736872,29.14026335014715,76.62879,-1,-1,-1,-1,30,21.38793351532817,-9999,30239.4070375,-0.6551055908203125,0.4840240478515625,-0.57342529296875,30239.3969615,-0.7112291331606483,-0.8578616776580003,-0.4958455156518805,-0.008148170076310635,-0.02514601871371269,0.003833630587905645,0.009521722793579102,0.008767187595367432,0.009520947933197021,XArbitraryZVertical,-0.3495730891829964,-0.3002590743756755,-0.211273130442256,0.8619783337483486,-0.6653444170951843,0.4757755100727081,-0.5752862691879272,0,0,0,-1,-1,30235.1360655,unknown,2,2025-04-22T12:25:44.559+03:00,2025-04-21T17:08:51.449+03:00,7274,0.979095,0,0,6062.87,5,20,2025-04-22T12:23:51.056+03:00,767006736.9230493,0,-20.46,100.4482,1,0.85,2025-04-22T12:25:30.239+03:00,82,1.366666666666667,2025-04-22T09:54:17.825+03:00,0.02225348692287972,0
2025-04-22T12:25:58.972+03:00,1745313958.242182,40.95219108736872,29.14026335014715,76.62879,-1,-1,-1,-1,30,21.38793351532817,-9999,30239.4171135,-0.6520843505859375,0.48443603515625,-0.5687255859375,30239.4070375,-0.7112129403699528,-0.8580974052524033,-0.4960113903009531,-0.007469329982995987,-0.02479980885982513,0.01034346129745245,0.01208478212356567,0.006897062063217163,0.00682532787322998,XArbitraryZVertical,-0.3496611392811059,-0.3003301061969231,-0.2111871511504884,0.861938962225409,-0.6654202938079834,0.4759213924407959,-0.5750778317451477,0,0,0,-1,-1,30235.1360655,unknown,2,2025-04-22T12:25:44.559+03:00,2025-04-21T17:08:51.449+03:00,7274,0.979095,0,0,6062.87,5,20,2025-04-22T12:23:51.056+03:00,767006736.9230493,0,-20.46,100.4482,1,0.85,2025-04-22T12:25:30.239+03:00,82,1.366666666666667,2025-04-22T09:54:17.825+03:00,0.02225348692287972,0
2025-04-22T12:25:58.982+03:00,1745313958.242182,40.95219108736872,29.14026335014715,76.62879,-1,-1,-1,-1,30,21.38793351532817,-9999,30239.4271905,-0.653045654296875,0.4839324951171875,-0.5626983642578125,30239.4171135,-0.7112082612546115,-0.8583355914606655,-0.4962121126197574,-0.01164709776639938,-0.03002206794917583,0.009094672277569771,0.009662210941314697,0.007575064897537231,0.002011418342590332,XArbitraryZVertical,-0.3497649339322714,-0.30039316213352,-0.2110977426044821,0.8618968077898737,-0.6654849648475647,0.4760979115962982,-0.5748568773269653,0,0,0,-1,-1,30235.1360655,unknown,2,2025-04-22T12:25:44.559+03:00,2025-04-21T17:08:51.449+03:00,7274,0.979095,0,0,6062.87,5,20,2025-04-22T12:23:51.056+03:00,767006736.9230493,0,-20.46,100.4482,1,0.85,2025-04-22T12:25:30.239+03:00,82,1.366666666666667,2025-04-22T09:54:17.825+03:00,0.02225348692287972,0
2025-04-22T12:25:58.992+03:00,1745313958.242182,40.95219108736872,29.14026335014715,76.62879,-1,-1,-1,-1,30,21.38793351532817,-9999,30239.4372665,-0.6560211181640625,0.4842376708984375,-0.5635528564453125,30239.4271905,-0.7112224462104295,-0.8585987248561523,-0.4963941578182412,-0.008862496353685856,-0.02804946340620518,0.009713591076433659,0.01345574855804443,0.008330494165420532,0.006433606147766113,XArbitraryZVertical,-0.349866781990714,-0.3004674215909166,-0.2110163358500009,0.8618495727685943,-0.6655706763267517,0.4762580096721649,-0.5746251344680786,0,0,0,-1,-1,30235.1360655,unknown,2,2025-04-22T12:25:44.559+03:00,2025-04-21T17:08:51.449+03:00,7274,0.979095,0,0,6062.87,5,20,2025-04-22T12:23:51.056+03:00,767006736.9230493,0,-20.46,100.4482,1,0.85,2025-04-22T12:25:30.239+03:00,82,1.366666666666667,2025-04-22T09:54:17.825+03:00,0.02225348692287972,0
2025-04-22T12:25:59.002+03:00,1745313958.242182,40.95219108736872,29.14026335014715,76.62879,-1,-1,-1,-1,30,21.38793351532817,-9999,30239.4473435,-0.6575927734375,0.4835662841796875,-0.56707763671875,30239.4372665,-0.7112220616029837,-0.8588951660814383,-0.4965722791261801,-0.009145324118435383,-0.03353637456893921,0.007922882214188576,0.01269203424453735,0.008067131042480469,0.01191812753677368,XArbitraryZVertical,-0.3499684029869371,-0.3005593608137616,-0.210923687843538,0.8617989401766378,-0.6656767129898071,0.4764146208763123,-0.5743723511695862,0,0,0,-1,-1,30235.1360655,unknown,2,2025-04-22T12:25:44.559+03:00,2025-04-21T17:08:51.449+03:00,7274,0.979095,0,0,6062.87,5,20,2025-04-22T12:23:51.056+03:00,767006736.9230493,0,-20.46,100.4482,1,0.85,2025-04-22T12:25:30.239+03:00,82,1.366666666666667,2025-04-22T09:54:17.825+03:00,0.02225348692287972,0
2025-04-22T12:25:59.012+03:00,1745313958.242182,40.95219108736872,29.14026335014715,76.62879,-1,-1,-1,-1,30,21.38793351532817,-9999,30239.4574195,-0.661041259765625,0.485198974609375,-0.5686187744140625,30239.4473435,-0.7112391933456038,-0.8592247810369038,-0.4967580583247253,-0.01222020946443081,-0.03788558393716812,0.008797996677458286,0.009854137897491455,0.007384955883026123,0.00970304012298584,XArbitraryZVertical,-0.3500791696997352,-0.3006609737276978,-0.2108310034310947,0.8617411638175121,-0.6657989621162415,0.4765779674053192,-0.5740951299667358,0,0,0,-1,-1,30235.1360655,unknown,2,2025-04-22T12:25:44.559+03:00,2025-04-21T17:08:51.449+03:00,7274,0.979095,0,0,6062.87,5,20,2025-04-22T12:23:51.056+03:00,767006736.9230493,0,-20.46,100.4482,1,0.85,2025-04-22T12:25:30.239+03:00,82,1.366666666666667,2025-04-22T09:54:17.825+03:00,0.02225348692287972,0
2025-04-22T12:25:59.022+03:00,1745313958.242182,40.95219108736872,29.14026335014715,76.62879,-1,-1,-1,-1,30,21.38793351532817,-9999,30239.4674965,-0.660003662109375,0.488494873046875,-0.56915283203125,30239.4574195,-0.7112613288927438,-0.859636050469461,-0.4969271251141882,-0.007795766927301884,-0.04390259459614754,0.003059616312384605,0.007343590259552002,0.006183445453643799,0.00612640380859375,XArbitraryZVertical,-0.3501926601544582,-0.3008002422502274,-0.2107299599181692,0.8616711493216465,-0.665973961353302,0.4767265915870667,-0.5737686157226562,0,0,0,-1,-1,30235.1360655,unknown,2,2025-04-22T12:25:44.559+03:00,2025-04-21T17:08:51.449+03:00,7274,0.979095,0,0,6062.87,5,20,2025-04-22T12:23:51.056+03:00,767006736.9230493,0,-20.46,100.4482,1,0.85,2025-04-22T12:25:30.239+03:00,82,1.366666666666667,2025-04-22T09:54:17.825+03:00,0.02225348692287972,0
2025-04-22T12:25:59.032+03:00,1745313958.242182,40.95219108736872,29.14026335014715,76.62879,-1,-1,-1,-1,30,21.38793351532817,-9999,30239.4775725,-0.6576995849609375,0.4886016845703125,-0.56817626953125,30239.4674965,-0.7112823289064947,-0.860123101435765,-0.4970425666340536,-0.001747461967170238,-0.05050723254680634,0.0008651716634631157,0.005155086517333984,0.009164273738861084,0.004804790019989014,XArbitraryZVertical,-0.3502927361618955,-0.300983139837747,-0.2106273609161504,0.8615916922441327,-0.6662116050720215,0.4768280684947968,-0.573408305644989,0,0,0,-1,-1,30235.1360655,unknown,2,2025-04-22T12:25:44.559+03:00,2025-04-21T17:08:51.449+03:00,7274,0.979095,0,0,6062.87,5,20,2025-04-22T12:23:51.056+03:00,767006736.9230493,0,-20.46,100.4482,1,0.85,2025-04-22T12:25:30.239+03:00,82,1.366666666666667,2025-04-22T09:54:17.825+03:00,0.02225348692287972,0
2025-04-22T12:25:59.042+03:00,1745313958.242182,40.95219108736872,29.14026335014715,76.62879,-1,-1,-1,-1,30,21.38793351532817,-9999,30239.4876485,-0.6607818603515625,0.4906005859375,-0.5671844482421875,30239.4775725,-0.7112763124532345,-0.8606054303340127,-0.4971095747179942,0.003767212387174368,-0.04677714407444,0.003252595663070679,0.005956649780273438,0.01180616021156311,0.004020094871520996,XArbitraryZVertical,-0.3503690765788065,-0.3011784716973462,-0.2105249803765978,0.8615174349889445,-0.6664639115333557,0.4768869578838348,-0.5730660557746887,0,0,0,-1,-1,30235.1360655,unknown,2,2025-04-22T12:25:44.559+03:00,2025-04-21T17:08:51.449+03:00,7274,0.979095,0,0,6062.87,5,20,2025-04-22T12:23:51.056+03:00,767006736.9230493,0,-20.46,100.4482,1,0.85,2025-04-22T12:25:30.239+03:00,82,1.366666666666667,2025-04-22T09:54:17.825+03:00,0.02225348692287972,0
2025-04-22T12:25:59.052+03:00,1745313958.242182,40.95219108736872,29.14026335014715,76.62879,-1,-1,-1,-1,30,21.38793351532817,-9999,30239.4977255,-0.659637451171875,0.488433837890625,-0.5660247802734375,30239.4876485,-0.7111750874954716,-0.8609982087989292,-0.4971218398182891,0.007328923791646957,-0.04287268221378326,0.00426939083263278,0.008908569812774658,0.01159700751304626,0.00476151704788208,XArbitraryZVertical,-0.3504000583495308,-0.301362918698675,-0.2104097511878566,0.8614683591918515,-0.6666843891143799,0.4768977463245392,-0.5728003978729248,0,0,0,-1,-1,30235.1360655,unknown,2,2025-04-22T12:25:44.559+03:00,2025-04-21T17:08:51.449+03:00,7274,0.979095,0,0,6062.87,5,20,2025-04-22T12:23:51.056+03:00,767006736.9230493,0,-20.46,100.4482,1,0.85,2025-04-22T12:25:30.239+03:00,82,1.366666666666667,2025-04-22T09:54:17.825+03:00,0.02225348692287972,0
2025-04-22T12:25:59.062+03:00,1745313958.242182,40.95219108736872,29.14026335014715,76.62879,-1,-1,-1,-1,30,21.38793351532817,-9999,30239.5078015,-0.6578521728515625,0.4826812744140625,-0.566162109375,30239.4977255,-0.7110411608233381,-0.8613185114683579,-0.4971273430099065,0.008271349593997002,-0.03789077699184418,0.006649956572800875,0.006343424320220947,0.01339271664619446,0.005339622497558594,XArbitraryZVertical,-0.3504157119591795,-0.3015232389237503,-0.2102946951775971,0.861434040879334,-0.6668658852577209,0.476902574300766,-0.5725851058959961,0,0,0,-1,-1,30235.1360655,unknown,2,2025-04-22T12:25:44.559+03:00,2025-04-21T17:08:51.449+03:00,7274,0.979095,0,0,6062.87,5,20,2025-04-22T12:23:51.056+03:00,767006736.9230493,0,-20.46,100.4482,1,0.85,2025-04-22T12:25:30.239+03:00,82,1.366666666666667,2025-04-22T09:54:17.825+03:00,0.02225348692287972,0
2025-04-22T12:25:59.072+03:00,1745313958.242182,40.95219108736872,29.14026335014715,76.62879,-1,-1,-1,-1,30,21.38793351532817,-9999,30239.5178785,-0.6576690673828125,0.476806640625,-0.5662689208984375,30239.5078015,-0.7109227464832416,-0.8616099501714582,-0.497203264078082,0.001180151128210127,-0.03286139667034149,0.009776507504284382,0.007245719432830811,0.01123553514480591,0.006189823150634766,XArbitraryZVertical,-0.3504584909979356,-0.3016542192290652,-0.2101752681254496,0.8613998925475433,-0.6670052409172058,0.476969301700592,-0.5723671317100525,0,0,0,-1,-1,30235.1360655,unknown,2,2025-04-22T12:25:44.559+03:00,2025-04-21T17:08:51.449+03:00,7274,0.979095,0,0,6062.87,5,20,2025-04-22T12:23:51.056+03:00,767006736.9230493,0,-20.46,100.4482,1,0.85,2025-04-22T12:25:30.239+03:00,82,1.366666666666667,2025-04-22T09:54:17.825+03:00,0.02225348692287972,0
2025-04-22T12:25:59.082+03:00,1745313958.242182,40.95219108736872,29.14026335014715,76.62879,-1,-1,-1,-1,30,21.38793351532817,-9999,30239.5279545,-0.6591644287109375,0.476470947265625,-0.5653839111328125,30239.5178785,-0.7108655452922079,-0.861895644222613,-0.4973605186347822,-0.003854821203276515,-0.03098306991159916,0.01296577602624893,0.008984982967376709,0.004337698221206665,0.005660474300384521,XArbitraryZVertical,-0.3505419550571007,-0.3017556171960515,-0.2100646118440282,0.8613574679359239,-0.6671118140220642,0.4771074950695038,-0.5721277594566345,0,0,0,-1,-1,30235.1360655,unknown,2,2025-04-22T12:25:44.559+03:00,2025-04-21T17:08:51.449+03:00,7274,0.979095,0,0,6062.87,5,20,2025-04-22T12:23:51.056+03:00,767006736.9230493,0,-20.46,100.4482,1,0.85,2025-04-22T12:25:30.239+03:00,82,1.366666666666667,2025-04-22T09:54:17.825+03:00,0.02225348692287972,0
2025-04-22T12:25:59.093+03:00,1745313958.242182,40.95219108736872,29.14026335014715,76.62879,-1,-1,-1,-1,30,21.38793351532817,-9999,30239.5380315,-0.6620941162109375,0.4796600341796875,-0.563995361328125,30239.5279545,-0.7108284851730038,-0.8621566368318924,-0.4975317843622838,-0.00662983488291502,-0.02495420537889004,0.008806717582046986,0.009255349636077881,-0.000436246395111084,0.006653904914855957,XArbitraryZVertical,-0.3506313714167105,-0.3018400196207142,-0.2099637345195133,0.8613161601937708,-0.6671991348266602,0.477258026599884,-0.571900486946106,0,0,0,-1,-1,30235.1360655,unknown,2,2025-04-22T12:25:44.559+03:00,2025-04-21T17:08:51.449+03:00,7274,0.979095,0,0,6062.87,5,20,2025-04-22T12:23:51.056+03:00,767006736.9230493,0,-20.46,100.4482,1,0.85,2025-04-22T12:25:30.239+03:00,82,1.366666666666667,2025-04-22T09:54:17.825+03:00,0.02225348692287972,0
2025-04-22T12:25:59.103+03:00,1745313958.242182,40.95219108736872,29.14026335014715,76.62879,-1,-1,-1,-1,30,21.38793351532817,-9999,30239.5481075,-0.66241455078125,0.47979736328125,-0.5668792724609375,30239.5380315,-0.7108224691931669,-0.8623919271869535,-0.4977030313230447,-0.009816107340157032,-0.02366903051733971,0.01144640985876322,0.007435739040374756,-0.0005409717559814453,0.006245315074920654,XArbitraryZVertical,-0.35072283483201,-0.3019079014497996,-0.2098806943495449,0.861275223556813,-0.6672714948654175,0.4774084985256195,-0.5716902017593384,0,0,0,-1,-1,30235.1360655,unknown,2,2025-04-22T12:25:44.559+03:00,2025-04-21T17:08:51.449+03:00,7274,0.979095,0,0,6062.87,5,20,2025-04-22T12:23:51.056+03:00,767006736.9230493,0,-20.46,100.4482,1,0.85,2025-04-22T12:25:30.239+03:00,82,1.366666666666667,2025-04-22T09:54:17.825+03:00,0.02225348692287972,0
2025-04-22T12:25:59.113+03:00,1745313958.242182,40.95219108736872,29.14026335014715,76.62879,-1,-1,-1,-1,30,21.38793351532817,-9999,30239.5581845,-0.6638946533203125,0.4837493896484375,-0.5690460205078125,30239.5481075,-0.7108474309083869,-0.8626170503914716,-0.4979189457447345,-0.01112451869994402,-0.0185251347720623,0.01180194225162268,0.005243062973022461,0.002443224191665649,0.00746232271194458,XArbitraryZVertical,-0.3508354061030449,-0.3019569741189107,-0.2098025641309037,0.8612313483695931,-0.6673219799995422,0.4775981903076172,-0.5714730024337769,0,0,0,-1,-1,30235.1360655,unknown,2,2025-04-22T12:25:44.559+03:00,2025-04-21T17:08:51.449+03:00,7274,0.979095,0,0,6062.87,5,20,2025-04-22T12:23:51.056+03:00,767006736.9230493,0,-20.46,100.4482,1,0.85,2025-04-22T12:25:30.239+03:00,82,1.366666666666667,2025-04-22T09:54:17.825+03:00,0.02225348692287972,0
2025-04-22T12:25:59.123+03:00,1745313958.242182,40.95219108736872,29.14026335014715,76.62879,-1,-1,-1,-1,30,21.38793351532817,-9999,30239.5682605,-0.665985107421875,0.4933624267578125,-0.5672454833984375,30239.5581845,-0.7108604182688609,-0.862772396582722,-0.498111361521912,-0.009297989308834076,-0.01332118362188339,0.008879722096025944,0.00489574670791626,0.001938432455062866,0.003194272518157959,XArbitraryZVertical,-0.3509296731139378,-0.3019828164235172,-0.2097368463531943,0.8611997528259371,-0.6673408150672913,0.4777672588825226,-0.571309506893158,0,0,0,-1,-1,30235.1360655,unknown,2,2025-04-22T12:25:44.559+03:00,2025-04-21T17:08:51.449+03:00,7274,0.979095,0,0,6062.87,5,20,2025-04-22T12:23:51.056+03:00,767006736.9230493,0,-20.46,100.4482,1,0.85,2025-04-22T12:25:30.239+03:00,82,1.366666666666667,2025-04-22T09:54:17.825+03:00,0.02225348692287972,0
2025-04-22T12:25:59.133+03:00,1745313958.242182,40.95219108736872,29.14026335014715,76.62879,-1,-1,-1,-1,30,21.38793351532817,-9999,30239.5783365,-0.663116455078125,0.4925994873046875,-0.5659942626953125,30239.5682605,-0.7108527194223224,-0.8628932563397638,-0.4982407345712636,-0.005493930075317621,-0.01296032592654228,0.004555280786007643,0.00244593620300293,0.006295591592788696,0.002218961715698242,XArbitraryZVertical,-0.3509922485967039,-0.302010140861149,-0.2096827062950159,0.8611778558783018,-0.6673629283905029,0.4778808951377869,-0.5711886286735535,0,0,0,-1,-1,30235.1360655,unknown,2,2025-04-22T12:25:44.559+03:00,2025-04-21T17:08:51.449+03:00,7274,0.979095,0,0,6062.87,5,20,2025-04-22T12:23:51.056+03:00,767006736.9230493,0,-20.46,100.4482,1,0.85,2025-04-22T12:25:30.239+03:00,82,1.366666666666667,2025-04-22T09:54:17.825+03:00,0.02225348692287972,0
2025-04-22T12:25:59.143+03:00,1745313958.242182,40.95219108736872,29.14026335014715,76.62879,-1,-1,-1,-1,30,21.38793351532817,-9999,30239.5884135,-0.6656036376953125,0.4876861572265625,-0.5637969970703125,30239.5783365,-0.7108692302591841,-0.8629770616413706,-0.4983671461142419,-0.005714173428714275,-0.003376142587512732,0.002374951029196382,0.001623928546905518,0.01613327860832214,0.003680169582366943,XArbitraryZVertical,-0.3510534143359812,-0.3020178558323415,-0.209646166527803,0.8611591323785894,-0.6673648953437805,0.4779919385910034,-0.5710934400558472,0,0,0,-1,-1,30235.1360655,unknown,2,2025-04-22T12:25:44.559+03:00,2025-04-21T17:08:51.449+03:00,7274,0.979095,0,0,6062.87,5,20,2025-04-22T12:23:51.056+03:00,767006736.9230493,0,-20.46,100.4482,1,0.85,2025-04-22T12:25:30.239+03:00,82,1.366666666666667,2025-04-22T09:54:17.825+03:00,0.02225348692287972,0
2025-04-22T12:25:59.154+03:00,1745313958.242182,40.95219108736872,29.14026335014715,76.62879,-1,-1,-1,-1,30,21.38793351532817,-9999,30239.5984895,-0.6646575927734375,0.4900665283203125,-0.566253662109375,30239.5884135,-0.7108909665713986,-0.8629921925145,-0.4984553056435547,-0.003804421052336693,0.001783465966582298,0.004004538990557194,0.004484474658966064,0.0131109356880188,0.005031228065490723,XArbitraryZVertical,-0.3510930347446881,-0.3020027926056043,-0.209632694858285,0.8611516450557727,-0.6673415899276733,0.4780693650245667,-0.5710560083389282,0,0,0,-1,-1,30235.1360655,unknown,2,2025-04-22T12:25:44.559+03:00,2025-04-21T17:08:51.449+03:00,7274,0.979095,0,0,6062.87,5,20,2025-04-22T12:23:51.056+03:00,767006736.9230493,0,-20.46,100.4482,1,0.85,2025-04-22T12:25:30.239+03:00,82,1.366666666666667,2025-04-22T09:54:17.825+03:00,0.02225348692287972,0
2025-04-22T12:25:59.163+03:00,1745313958.242182,40.95219108736872,29.14026335014715,76.62879,-1,-1,-1,-1,30,21.38793351532817,-9999,30239.6085665,-0.6634674072265625,0.4900054931640625,-0.5684051513671875,30239.5984895,-0.7109088955987104,-0.8629799004410003,-0.4985107299624026,-0.004101896192878485,0.001524606719613075,0.0005695940926671028,0.002061724662780762,0.009033948183059692,0.007021069526672363,XArbitraryZVertical,-0.3511163376503689,-0.3019831820231507,-0.2096298795007533,0.8611496835661111,-0.6673144102096558,0.4781180620193481,-0.5710469484329224,0,0,0,-1,-1,30235.1360655,unknown,2,2025-04-22T12:25:44.559+03:00,2025-04-21T17:08:51.449+03:00,7274,0.979095,0,0,6062.87,5,20,2025-04-22T12:23:51.056+03:00,767006736.9230493,0,-20.46,100.4482,1,0.85,2025-04-22T12:25:30.239+03:00,82,1.366666666666667,2025-04-22T09:54:17.825+03:00,0.02225348692287972,0
2025-04-22T12:25:59.174+03:00,1745313958.242182,40.95219108736872,29.14026335014715,76.62879,-1,-1,-1,-1,30,21.38793351532817,-9999,30239.6186425,-0.6601104736328125,0.48126220703125,-0.5696258544921875,30239.6085665,-0.7109394630358303,-0.8629915676648908,-0.4985786191258296,-0.005955189932137728,-0.002582520712167025,0.001314213848672807,0.003035485744476318,0.01256018877029419,0.004703342914581299,XArbitraryZVertical,-0.3511489639923025,-0.3019691570301796,-0.209625449036469,0.8611423896247803,-0.6672964096069336,0.4781776666641235,-0.5710180401802063,0,0,0,-1,-1,30235.1360655,unknown,2,2025-04-22T12:25:44.559+03:00,2025-04-21T17:08:51.449+03:00,7274,0.979095,0,0,6062.87,5,20,2025-04-22T12:23:51.056+03:00,767006736.9230493,0,-20.46,100.4482,1,0.85,2025-04-22T12:25:30.239+03:00,82,1.366666666666667,2025-04-22T09:54:17.825+03:00,0.02225348692287972,0
2025-04-22T12:25:59.183+03:00,1745313958.242182,40.95219108736872,29.14026335014715,76.62879,-1,-1,-1,-1,30,21.38793351532817,-9999,30239.6287195,-0.65765380859375,0.4826507568359375,-0.565521240234375,30239.6186425,-0.7110256214820042,-0.8630705772418362,-0.4986825297316703,-0.01220576278865337,-0.005875385832041502,0.001614285632967949,0.004553437232971191,0.01101928949356079,0.002619385719299316,XArbitraryZVertical,-0.3512112749911358,-0.301967102100119,-0.2096248746835537,0.8611178069627019,-0.667303740978241,0.4782689213752747,-0.5709330439567566,0,0,0,-1,-1,30235.1360655,unknown,2,2025-04-22T12:25:44.559+03:00,2025-04-21T17:08:51.449+03:00,7274,0.979095,0,0,6062.87,5,20,2025-04-22T12:23:51.056+03:00,767006736.9230493,0,-20.46,100.4482,1,0.85,2025-04-22T12:25:30.239+03:00,82,1.366666666666667,2025-04-22T09:54:17.825+03:00,0.02225348692287972,0
2025-04-22T12:25:59.194+03:00,1745313958.242182,40.95219108736872,29.14026335014715,76.62879,-1,-1,-1,-1,30,21.38793351532817,-9999,30239.6387955,-0.6575927734375,0.4903564453125,-0.5647125244140625,30239.6287195,-0.7110993567263053,-0.8631835666864738,-0.4987815609262358,-0.008008354343473911,-0.005522517021745443,0.003520842408761382,0.007526934146881104,0.002784103155136108,0.001536667346954346,XArbitraryZVertical,-0.3512733556260832,-0.3019828353673214,-0.2096140919875829,0.8610895305357861,-0.6673322319984436,0.4783559143543243,-0.5708267688751221,0,0,0,-1,-1,30235.1360655,unknown,2,2025-04-22T12:25:44.559+03:00,2025-04-21T17:08:51.449+03:00,7274,0.979095,0,0,6062.87,5,20,2025-04-22T12:23:51.056+03:00,767006736.9230493,0,-20.46,100.4482,1,0.85,2025-04-22T12:25:30.239+03:00,82,1.366666666666667,2025-04-22T09:54:17.825+03:00,0.02225348692287972,0
2025-04-22T12:25:59.204+03:00,1745313958.242182,40.95219108736872,29.14026335014715,76.62879,-1,-1,-1,-1,30,21.38793351532817,-9999,30239.6488725,-0.6600799560546875,0.4898223876953125,-0.563568115234375,30239.6387955,-0.7111460042733146,-0.8632269937519644,-0.4988452438019373,-0.007398023270070553,0.001618416514247656,0.0006284831906668842,0.009618997573852539,0.006115645170211792,0.005821347236633301,XArbitraryZVertical,-0.3513100737880512,-0.3019805008282573,-0.2096119636407251,0.8610759012330715,-0.6673338413238525,0.4784118235111237,-0.5707780122756958,0,0,0,-1,-1,30235.1360655,unknown,2,2025-04-22T12:25:44.559+03:00,2025-04-21T17:08:51.449+03:00,7274,0.979095,0,0,6062.87,5,20,2025-04-22T12:23:51.056+03:00,767006736.9230493,0,-20.46,100.4482,1,0.85,2025-04-22T12:25:30.239+03:00,82,1.366666666666667,2025-04-22T09:54:17.825+03:00,0.02225348692287972,0
2025-04-22T12:25:59.215+03:00,1745313958.242182,40.95219108736872,29.14026335014715,76.62879,-1,-1,-1,-1,30,21.38793351532817,-9999,30239.6589485,-0.660858154296875,0.4857025146484375,-0.565887451171875,30239.6488725,-0.7112224965604367,-0.8632430726791482,-0.4989050140574062,-0.009371425956487656,0.003999548964202404,-0.001557705691084266,0.01043045520782471,0.01276174187660217,0.005822598934173584,XArbitraryZVertical,-0.3513469011932335,-0.3019619348125003,-0.2096283793535797,0.861063368996328,-0.6673212647438049,0.4784643054008484,-0.5707486867904663,0,0,0,-1,-1,30235.1360655,unknown,2,2025-04-22T12:25:44.559+03:00,2025-04-21T17:08:51.449+03:00,7274,0.979095,0,0,6062.87,5,20,2025-04-22T12:23:51.056+03:00,767006736.9230493,0,-20.46,100.4482,1,0.85,2025-04-22T12:25:30.239+03:00,82,1.366666666666667,2025-04-22T09:54:17.825+03:00,0.02225348692287972,0
2025-04-22T12:25:59.225+03:00,1745313958.242182,40.95219108736872,29.14026335014715,76.62879,-1,-1,-1,-1,30,21.38793351532817,-9999,30239.6690245,-0.6605377197265625,0.4866485595703125,-0.5693359375,30239.6589485,-0.711327171611521,-0.8632758730141464,-0.4989946375065983,-0.00872208084911108,0.0001153950579464436,-0.00383933586999774,0.007319033145904541,0.01068416237831116,0.006459474563598633,XArbitraryZVertical,-0.3514015117989215,-0.3019395935502155,-0.2096471515186016,0.8610443310399514,-0.6673073768615723,0.4785430133342743,-0.5706989169120789,0,0,0,-1,-1,30235.1360655,unknown,2,2025-04-22T12:25:44.559+03:00,2025-04-21T17:08:51.449+03:00,7274,0.979095,0,0,6062.87,5,20,2025-04-22T12:23:51.056+03:00,767006736.9230493,0,-20.46,100.4482,1,0.85,2025-04-22T12:25:30.239+03:00,82,1.366666666666667,2025-04-22T09:54:17.825+03:00,0.02225348692287972,0
2025-04-22T12:25:59.243+03:00,1745313958.242182,40.95219108736872,29.14026335014715,76.62879,-1,-1,-1,-1,30,21.38793351532817,-9999,30239.6791015,-0.6582489013671875,0.4904022216796875,-0.56622314453125,30239.6690245,-0.7114108478594714,-0.8633194136592105,-0.4990277384810376,-0.002032220363616943,-0.001770655624568462,-0.008419972844421864,0.006980836391448975,0.006794631481170654,0.004268646240234375,XArbitraryZVertical,-0.3514317557444113,-0.3019369615384463,-0.2096679460120346,0.8610278775251533,-0.6673202514648438,0.4785720705986023,-0.5706595778465271,0,0,0,-1,-1,30235.1360655,unknown,2,2025-04-22T12:25:44.559+03:00,2025-04-21T17:08:51.449+03:00,7274,0.979095,0,0,6062.87,5,20,2025-04-22T12:23:51.056+03:00,767006736.9230493,0,-20.46,100.4482,1,0.85,2025-04-22T12:25:30.239+03:00,82,1.366666666666667,2025-04-22T09:54:17.825+03:00,0.02225348692287972,0
2025-04-22T12:25:59.244+03:00,1745313958.242182,40.95219108736872,29.14026335014715,76.62879,-1,-1,-1,-1,30,21.38793351532817,-9999,30239.6891775,-0.65704345703125,0.488006591796875,-0.5630340576171875,30239.6791015,-0.7114811569424774,-0.8633958313926081,-0.4990042900395205,-2.839136868715286e-05,-0.00249097403138876,-0.009223015978932381,0.007200837135314941,0.008066445589065552,0.001112103462219238,XArbitraryZVertical,-0.3514411185960911,-0.3019622356882408,-0.2096901615801971,0.8610098126720294,-0.6673724055290222,0.4785514771938324,-0.5706158876419067,0,0,0,-1,-1,30235.1360655,unknown,2,2025-04-22T12:25:44.559+03:00,2025-04-21T17:08:51.449+03:00,7274,0.979095,0,0,6062.87,5,20,2025-04-22T12:23:51.056+03:00,767006736.9230493,0,-20.46,100.4482,1,0.85,2025-04-22T12:25:30.239+03:00,82,1.366666666666667,2025-04-22T09:54:17.825+03:00,0.02225348692287972,0
2025-04-22T12:25:59.254+03:00,1745313958.242182,40.95219108736872,29.14026335014715,76.62879,-1,-1,-1,-1,30,21.38793351532817,-9999,30239.6992545,-0.6608428955078125,0.485260009765625,-0.5623016357421875,30239.6891775,-0.711544691698762,-0.8634376418193817,-0.4989908605549485,0.0006419262499548495,0.002581016160547733,-0.008145766332745552,0.009213268756866455,0.0123353898525238,0.004353821277618408,XArbitraryZVertical,-0.3514498054923966,-0.3019717786850993,-0.209713240826176,0.8609972785514214,-0.667401134967804,0.4785397052764893,-0.5705921649932861,0,0,0,-1,-1,30235.1360655,unknown,2,2025-04-22T12:25:44.559+03:00,2025-04-21T17:08:51.449+03:00,7274,0.979095,0,0,6062.87,5,20,2025-04-22T12:23:51.056+03:00,767006736.9230493,0,-20.46,100.4482,1,0.85,2025-04-22T12:25:30.239+03:00,82,1.366666666666667,2025-04-22T09:54:17.825+03:00,0.02225348692287972,0
2025-04-22T12:25:59.264+03:00,1745313958.242182,40.95219108736872,29.14026335014715,76.62879,-1,-1,-1,-1,30,21.38793351532817,-9999,30239.7093305,-0.6605682373046875,0.48529052734375,-0.56109619140625,30239.6992545,-0.7115973316112988,-0.8633989543358344,-0.4989820593039539,-0.001420691842213273,0.008073519915342331,-0.007099943701177835,0.009835243225097656,0.009566068649291992,0.00761723518371582,XArbitraryZVertical,-0.3514502125384774,-0.3019476497959382,-0.2097447198277294,0.8609979339753333,-0.6673822402954102,0.4785319566726685,-0.5706207156181335,0,0,0,-1,-1,30235.1360655,unknown,2,2025-04-22T12:25:44.559+03:00,2025-04-21T17:08:51.449+03:00,7274,0.979095,0,0,6062.87,5,20,2025-04-22T12:23:51.056+03:00,767006736.9230493,0,-20.46,100.4482,1,0.85,2025-04-22T12:25:30.239+03:00,82,1.366666666666667,2025-04-22T09:54:17.825+03:00,0.02225348692287972,0
2025-04-22T12:25:59.274+03:00,1745313958.242182,40.95219108736872,29.14026335014715,76.62879,-1,-1,-1,-1,30,21.38793351532817,-9999,30239.7194075,-0.6590728759765625,0.4853057861328125,-0.5618438720703125,30239.7093305,-0.7116470354199126,-0.8633356132994859,-0.4989870793647087,-0.00250140274874866,0.006679887417703867,-0.003453010926023126,0.006592869758605957,0.006052136421203613,0.008420825004577637,XArbitraryZVertical,-0.3514530720673797,-0.3019106331318396,-0.2097760931780321,0.8610020592186327,-0.6673442721366882,0.4785363674163818,-0.5706614255905151,0,0,0,-1,-1,30235.1360655,unknown,2,2025-04-22T12:25:44.559+03:00,2025-04-21T17:08:51.449+03:00,7274,0.979095,0,0,6062.87,5,20,2025-04-22T12:23:51.056+03:00,767006736.9230493,0,-20.46,100.4482,1,0.85,2025-04-22T12:25:30.239+03:00,82,1.366666666666667,2025-04-22T09:54:17.825+03:00,0.02225348692287972,0
2025-04-22T12:25:59.284+03:00,1745313958.242182,40.95219108736872,29.14026335014715,76.62879,-1,-1,-1,-1,30,21.38793351532817,-9999,30239.7294835,-0.66119384765625,0.4824676513671875,-0.5627593994140625,30239.7194075,-0.7116757998481955,-0.8632317073296757,-0.4990299477579382,-0.002193741034716368,0.01524707674980164,-0.0009247056441381574,0.007067322731018066,0.006640106439590454,0.009697556495666504,XArbitraryZVertical,-0.3514634192088144,-0.3018521994171016,-0.2097969177432451,0.861013268040575,-0.6672694087028503,0.4785740077495575,-0.570717453956604,0,0,0,-1,-1,30235.1360655,unknown,2,2025-04-22T12:25:44.559+03:00,2025-04-21T17:08:51.449+03:00,7274,0.979095,0,0,6062.87,5,20,2025-04-22T12:23:51.056+03:00,767006736.9230493,0,-20.46,100.4482,1,0.85,2025-04-22T12:25:30.239+03:00,82,1.366666666666667,2025-04-22T09:54:17.825+03:00,0.02225348692287972,0
2025-04-22T12:25:59.294+03:00,1745313958.242182,40.95219108736872,29.14026335014715,76.62879,-1,-1,-1,-1,30,21.38793351532817,-9999,30239.7395605,-0.66156005859375,0.483001708984375,-0.567230224609375,30239.7294835,-0.7116928185699966,-0.8630552367061479,-0.4991135951261384,-0.001835013274103403,0.0195763111114502,0.0004987539723515511,0.007439732551574707,0.006444573402404785,0.00895005464553833,XArbitraryZVertical,-0.351480503958398,-0.3017563592714415,-0.2098160904025006,0.8610351487445769,-0.6671382188796997,0.4786474704742432,-0.5708091259002686,0,0,0,-1,-1,30235.1360655,unknown,2,2025-04-22T12:25:44.559+03:00,2025-04-21T17:08:51.449+03:00,7274,0.979095,0,0,6062.87,5,20,2025-04-22T12:23:51.056+03:00,767006736.9230493,0,-20.46,100.4482,1,0.85,2025-04-22T12:25:30.239+03:00,82,1.366666666666667,2025-04-22T09:54:17.825+03:00,0.02225348692287972,0
2025-04-22T12:25:59.304+03:00,1745313958.242182,40.95219108736872,29.14026335014715,76.62879,-1,-1,-1,-1,30,21.38793351532817,-9999,30239.7496365,-0.6529998779296875,0.4874725341796875,-0.5766754150390625,30239.7395605,-0.711755879501592,-0.8629543518358956,-0.4992400856734973,-0.007450487930327654,0.006825428921729326,0.003445708192884922,0.005383014678955078,0.002778232097625732,0.007940351963043213,XArbitraryZVertical,-0.3515293025803681,-0.3016763270826728,-0.2098320091768233,0.8610394750908811,-0.6670346260070801,0.4787585139274597,-0.5708370804786682,0,0,0,-1,-1,30235.1360655,unknown,2,2025-04-22T12:25:44.559+03:00,2025-04-21T17:08:51.449+03:00,7274,0.979095,0,0,6062.87,5,20,2025-04-22T12:23:51.056+03:00,767006736.9230493,0,-20.46,100.4482,1,0.85,2025-04-22T12:25:30.239+03:00,82,1.366666666666667,2025-04-22T09:54:17.825+03:00,0.02225348692287972,0
2025-04-22T12:25:59.314+03:00,1745313958.242182,40.95219108736872,29.14026335014715,76.62879,-1,-1,-1,-1,30,21.38793351532817,-9999,30239.7597125,-0.6509246826171875,0.4877471923828125,-0.5825347900390625,30239.7496365,-0.7117144532853772,-0.8628949899060879,-0.4992901192694033,0.009095465764403343,0.001319077331572771,0.006410605274140835,0.005941271781921387,0.00543510913848877,0.002837419509887695,XArbitraryZVertical,-0.3515365677688418,-0.3016479571886096,-0.2098131491995041,0.8610510400734214,-0.6669825911521912,0.4788024425506592,-0.5708611011505127,0,0,0,-1,-1,30235.1360655,unknown,2,2025-04-22T12:25:44.559+03:00,2025-04-21T17:08:51.449+03:00,7274,0.979095,0,0,6062.87,5,20,2025-04-22T12:23:51.056+03:00,767006736.9230493,0,-20.46,100.4482,1,0.85,2025-04-22T12:25:30.239+03:00,82,1.366666666666667,2025-04-22T09:54:17.825+03:00,0.02225348692287972,0
2025-04-22T12:25:59.325+03:00,1745313958.242182,40.95219108736872,29.14026335014715,76.62879,-1,-1,-1,-1,30,21.38793351532817,-9999,30239.7697895,-0.6519775390625,0.49200439453125,-0.5830841064453125,30239.7597125,-0.7114088554413556,-0.8627532720631419,-0.4991764435381169,0.0477745532989502,-0.00354372151196003,0.008238399401307106,0.0150570273399353,0.008678227663040161,-0.007469654083251953,XArbitraryZVertical,-0.3514307337650837,-0.3016635804094063,-0.209732520017002,0.8611084703109569,-0.6669430136680603,0.4787026345729828,-0.570991039276123,0,0,0,-1,-1,30235.1360655,unknown,2,2025-04-22T12:25:44.559+03:00,2025-04-21T17:08:51.449+03:00,7274,0.979095,0,0,6062.87,5,20,2025-04-22T12:23:51.056+03:00,767006736.9230493,0,-20.46,100.4482,1,0.85,2025-04-22T12:25:30.239+03:00,82,1.366666666666667,2025-04-22T09:54:17.825+03:00,0.02225348692287972,0
2025-04-22T12:25:59.335+03:00,1745313958.242182,40.95219108736872,29.14026335014715,76.62879,-1,-1,-1,-1,30,21.38793351532817,-9999,30239.7798655,-0.649566650390625,0.4902496337890625,-0.5808258056640625,30239.7697895,-0.7108969283421565,-0.8625633065754058,-0.4990079935557586,0.04952078685164452,-0.00766549538820982,0.01377085037529469,0.01551330089569092,0.009940028190612793,-0.0120665431022644,XArbitraryZVertical,-0.3512671243045746,-0.30170568128967,-0.2095840338953999,0.8611966234528493,-0.6668958067893982,0.4785547256469727,-0.5711701512336731,0,0,0,-1,-1,30235.1360655,unknown,2,2025-04-22T12:25:44.559+03:00,2025-04-21T17:08:51.449+03:00,7274,0.979095,0,0,6062.87,5,20,2025-04-22T12:23:51.056+03:00,767006736.9230493,0,-20.46,100.4482,1,0.85,2025-04-22T12:25:30.239+03:00,82,1.366666666666667,2025-04-22T09:54:17.825+03:00,0.02225348692287972,0
2025-04-22T12:25:59.345+03:00,1745313958.242182,40.95219108736872,29.14026335014715,76.62879,-1,-1,-1,-1,30,21.38793351532817,-9999,30239.7899425,-0.6522674560546875,0.4893646240234375,-0.5748748779296875,30239.7798655,-0.71033806694937,-0.8623873795158058,-0.4988654841670507,0.05105303227901459,-0.009281635284423828,0.01772331446409225,0.01470160484313965,0.01386460661888123,-0.01204216480255127,XArbitraryZVertical,-0.3511081558544136,-0.301756769894001,-0.2094068812068867,0.8612865822319039,-0.6668470501899719,0.4784295856952667,-0.5713318586349487,0,0,0,-1,-1,30235.1360655,unknown,2,2025-04-22T12:25:44.559+03:00,2025-04-21T17:08:51.449+03:00,7274,0.979095,0,0,6062.87,5,20,2025-04-22T12:23:51.056+03:00,767006736.9230493,0,-20.46,100.4482,1,0.85,2025-04-22T12:25:30.239+03:00,82,1.366666666666667,2025-04-22T09:54:17.825+03:00,0.02225348692287972,0
2025-04-22T12:25:59.355+03:00,1745313958.242182,40.95219108736872,29.14026335014715,76.62879,-1,-1,-1,-1,30,21.38793351532817,-9999,30239.8000185,-0.6627960205078125,0.49822998046875,-0.5644378662109375,30239.7899425,-0.7097736454816206,-0.8621282866419675,-0.4986620217514161,0.05968061089515686,0.008289102464914322,0.01304600387811661,0.01728254556655884,0.01186126470565796,-0.008616983890533447,XArbitraryZVertical,-0.3509155231769399,-0.3017852191457981,-0.2092558377034961,0.8613918752434432,-0.6667729020118713,0.4782509207725525,-0.5715679526329041,0,0,0,-1,-1,30235.1360655,unknown,2,2025-04-22T12:25:44.559+03:00,2025-04-21T17:08:51.449+03:00,7274,0.979095,0,0,6062.87,5,20,2025-04-22T12:23:51.056+03:00,767006736.9230493,0,-20.46,100.4482,1,0.85,2025-04-22T12:25:30.239+03:00,82,1.366666666666667,2025-04-22T09:54:17.825+03:00,0.02225348692287972,0
2025-04-22T12:25:59.365+03:00,1745313958.242182,40.95219108736872,29.14026335014715,76.62879,-1,-1,-1,-1,30,21.38793351532817,-9999,30239.8100955,-0.66937255859375,0.493011474609375,-0.5560455322265625,30239.8000185,-0.7090917874816829,-0.8616177881725398,-0.4983277140521902,0.07441182434558868,0.0352436862885952,0.01066071167588234,0.01319044828414917,0.01244479417800903,-0.0007720589637756348,XArbitraryZVertical,-0.3506272596032992,-0.3017521839033152,-0.2091281243125225,0.8615517188724008,-0.6666022539138794,0.4779573082923889,-0.5720123052597046,0,0,0,-1,-1,30235.1360655,unknown,2,2025-04-22T12:25:44.559+03:00,2025-04-21T17:08:51.449+03:00,7274,0.979095,0,0,6062.87,5,20,2025-04-22T12:23:51.056+03:00,767006736.9230493,0,-20.46,100.4482,1,0.85,2025-04-22T12:25:30.239+03:00,82,1.366666666666667,2025-04-22T09:54:17.825+03:00,0.02225348692287972,0
2025-04-22T12:25:59.375+03:00,1745313958.242182,40.95219108736872,29.14026335014715,76.62879,-1,-1,-1,-1,30,21.38793351532817,-9999,30239.8201715,-0.669036865234375,0.47662353515625,-0.54925537109375,30239.8100955,-0.7084157635237863,-0.8608780280519318,-0.4979967378946009,0.06132371723651886,0.05019813403487206,0.01472442876547575,0.002724707126617432,0.021249920129776,0.008918225765228271,XArbitraryZVertical,-0.3503171723826209,-0.3016184849008642,-0.2090421631441148,0.8617455245737778,-0.6662988662719727,0.4776665568351746,-0.5726083517074585,0,0,0,-1,-1,30235.1360655,unknown,2,2025-04-22T12:25:44.559+03:00,2025-04-21T17:08:51.449+03:00,7274,0.979095,0,0,6062.87,5,20,2025-04-22T12:23:51.056+03:00,767006736.9230493,0,-20.46,100.4482,1,0.85,2025-04-22T12:25:30.239+03:00,82,1.366666666666667,2025-04-22T09:54:17.825+03:00,0.02225348692287972,0
2025-04-22T12:25:59.385+03:00,1745313958.242182,40.95219108736872,29.14026335014715,76.62879,-1,-1,-1,-1,30,21.38793351532817,-9999,30239.8302485,-0.65570068359375,0.4703216552734375,-0.5594940185546875,30239.8201715,-0.7078761415532766,-0.8601760726821532,-0.4978419367461987,0.03369149193167686,0.04092361032962799,0.02114274725317955,-0.004228413105010986,0.01306992769241333,0.01834511756896973,XArbitraryZVertical,-0.3501012220388577,-0.3014415956111873,-0.2089679178245707,0.8619132870245905,-0.6659528613090515,0.4775305390357971,-0.5731241703033447,0,0,0,-1,-1,30235.1360655,unknown,2,2025-04-22T12:25:44.559+03:00,2025-04-21T17:08:51.449+03:00,7274,0.979095,0,0,6062.87,5,20,2025-04-22T12:23:51.056+03:00,767006736.9230493,0,-20.46,100.4482,1,0.85,2025-04-22T12:25:30.239+03:00,82,1.366666666666667,2025-04-22T09:54:17.825+03:00,0.02225348692287972,0
2025-04-22T12:25:59.395+03:00,1745313958.242182,40.95219108736872,29.14026335014715,76.62879,-1,-1,-1,-1,30,21.38793351532817,-9999,30239.8403245,-0.644866943359375,0.474609375,-0.5723876953125,30239.8302485,-0.7075182462374372,-0.8597343125269273,-0.4979587186339707,0.006883310619741678,0.01059047318994999,0.0279961246997118,-0.002357244491577148,-0.003008633852005005,0.02388238906860352,XArbitraryZVertical,-0.3500473740180245,-0.3012903963734658,-0.2088643232358527,0.8620130050119339,-0.6656572818756104,0.477633148431778,-0.5733818411827087,0,0,0,-1,-1,30235.1360655,unknown,2,2025-04-22T12:25:44.559+03:00,2025-04-21T17:08:51.449+03:00,7274,0.979095,0,0,6062.87,5,20,2025-04-22T12:23:51.056+03:00,767006736.9230493,0,-20.46,100.4482,1,0.85,2025-04-22T12:25:30.239+03:00,82,1.366666666666667,2025-04-22T09:54:17.825+03:00,0.02225348692287972,0
2025-04-22T12:25:59.405+03:00,1745313958.242182,40.95219108736872,29.14026335014715,76.62879,-1,-1,-1,-1,30,21.38793351532817,-9999,30239.8504015,-0.646148681640625,0.496978759765625,-0.5656585693359375,30239.8403245,-0.7072684569853891,-0.8596285003017374,-0.4982068596736866,0.004113356582820415,-0.0195610374212265,0.02514228224754333,0.01131677627563477,-0.007773756980895996,0.01217198371887207,XArbitraryZVertical,-0.3500968335037765,-0.3012386969205235,-0.2087185443269514,0.8620462781637953,-0.6655067801475525,0.4778511524200439,-0.5733749270439148,0,0,0,-1,-1,30235.1360655,unknown,2,2025-04-22T12:25:44.559+03:00,2025-04-21T17:08:51.449+03:00,7274,0.979095,0,0,6062.87,5,20,2025-04-22T12:23:51.056+03:00,767006736.9230493,0,-20.46,100.4482,1,0.85,2025-04-22T12:25:30.239+03:00,82,1.366666666666667,2025-04-22T09:54:17.825+03:00,0.02225348692287972,0
2025-04-22T12:25:59.415+03:00,1745313958.242182,40.95219108736872,29.14026335014715,76.62879,-1,-1,-1,-1,30,21.38793351532817,-9999,30239.8604775,-0.654388427734375,0.512115478515625,-0.5621337890625,30239.8504015,-0.7069730573455254,-0.8597769188887951,-0.4983424192222382,0.02194055542349815,-0.04480221122503281,0.01817705109715462,0.0211641788482666,-0.001957088708877563,0.0005410313606262207,XArbitraryZVertical,-0.3501213544267296,-0.3013271766063029,-0.208534314724515,0.8620501457383678,-0.6655429005622864,0.4779702126979828,-0.573233962059021,0,0,0,-1,-1,30235.1360655,unknown,2,2025-04-22T12:25:44.559+03:00,2025-04-21T17:08:51.449+03:00,7274,0.979095,0,0,6062.87,5,20,2025-04-22T12:23:51.056+03:00,767006736.9230493,0,-20.46,100.4482,1,0.85,2025-04-22T12:25:30.239+03:00,82,1.366666666666667,2025-04-22T09:54:17.825+03:00,0.02225348692287972,0
2025-04-22T12:25:59.425+03:00,1745313958.242182,40.95219108736872,29.14026335014715,76.62879,-1,-1,-1,-1,30,21.38793351532817,-9999,30239.8705545,-0.66680908203125,0.504119873046875,-0.554229736328125,30239.8604775,-0.706580254214774,-0.8599484067994394,-0.4982289978688734,0.0467333197593689,-0.03498147055506706,0.001034581917338073,0.01903003454208374,0.02196145057678223,0.00821375846862793,XArbitraryZVertical,-0.3500351842710021,-0.3014926059869786,-0.2083608767851151,0.8620692169773949,-0.6656822562217712,0.4778705835342407,-0.5731551647186279,0,0,0,-1,-1,30235.1360655,unknown,2,2025-04-22T12:25:44.559+03:00,2025-04-21T17:08:51.449+03:00,7274,0.979095,0,0,6062.87,5,20,2025-04-22T12:23:51.056+03:00,767006736.9230493,0,-20.46,100.4482,1,0.85,2025-04-22T12:25:30.239+03:00,82,1.366666666666667,2025-04-22T09:54:17.825+03:00,0.02225348692287972,0
2025-04-22T12:25:59.435+03:00,1745313958.242182,40.95219108736872,29.14026335014715,76.62879,-1,-1,-1,-1,30,21.38793351532817,-9999,30239.8806305,-0.6693267822265625,0.4988250732421875,-0.546661376953125,30239.8705545,-0.7061418963280947,-0.8599297379858182,-0.4979533277770774,0.05210784822702408,-0.01578966714441776,-0.003542060265317559,0.009750247001647949,0.03463953733444214,0.01173007488250732,XArbitraryZVertical,-0.3498581109078136,-0.3016165460076928,-0.2082381178448602,0.8621274121936582,-0.6657713651657104,0.4776284098625183,-0.5732535123825073,0,0,0,-1,-1,30235.1360655,unknown,2,2025-04-22T12:25:44.559+03:00,2025-04-21T17:08:51.449+03:00,7274,0.979095,0,0,6062.87,5,20,2025-04-22T12:23:51.056+03:00,767006736.9230493,0,-20.46,100.4482,1,0.85,2025-04-22T12:25:30.239+03:00,82,1.366666666666667,2025-04-22T09:54:17.825+03:00,0.02225348692287972,0
2025-04-22T12:25:59.445+03:00,1745313958.242182,40.95219108736872,29.14026335014715,76.62879,-1,-1,-1,-1,30,21.38793351532817,-9999,30239.8907075,-0.6563873291015625,0.48699951171875,-0.5538482666015625,30239.8806305,-0.7057205177043773,-0.8598372880795108,-0.497740291521284,0.03150296956300735,-0.01390841044485569,0.01063354685902596,-0.001852929592132568,0.02585452795028687,0.02046394348144531,XArbitraryZVertical,-0.3497007224576074,-0.3016930854355767,-0.2081212457263204,0.8621925525250873,-0.6657953858375549,0.4774412214756012,-0.5733813643455505,0,0,0,-1,-1,30235.1360655,unknown,2,2025-04-22T12:25:44.559+03:00,2025-04-21T17:08:51.449+03:00,7274,0.979095,0,0,6062.87,5,20,2025-04-22T12:23:51.056+03:00,767006736.9230493,0,-20.46,100.4482,1,0.85,2025-04-22T12:25:30.239+03:00,82,1.366666666666667,2025-04-22T09:54:17.825+03:00,0.02225348692287972,0
2025-04-22T12:25:59.455+03:00,1745313958.242182,40.95219108736872,29.14026335014715,76.62879,-1,-1,-1,-1,30,21.38793351532817,-9999,30239.9007835,-0.6457672119140625,0.4720306396484375,-0.5651397705078125,30239.8907075,-0.7054844119985049,-0.8599227216779288,-0.497834027579079,0.0005189547664485872,-0.02086511999368668,0.01777641102671623,-0.002722859382629395,0.02018746733665466,0.02648138999938965,XArbitraryZVertical,-0.3497110468918781,-0.3017524188804547,-0.207983136202374,0.862200994360912,-0.6658104658126831,0.4775235950946808,-0.5732952952384949,0,0,0,-1,-1,30235.1360655,unknown,2,2025-04-22T12:25:44.559+03:00,2025-04-21T17:08:51.449+03:00,7274,0.979095,0,0,6062.87,5,20,2025-04-22T12:23:51.056+03:00,767006736.9230493,0,-20.46,100.4482,1,0.85,2025-04-22T12:25:30.239+03:00,82,1.366666666666667,2025-04-22T09:54:17.825+03:00,0.02225348692287972,0
2025-04-22T12:25:59.465+03:00,1745313958.242182,40.95219108736872,29.14026335014715,76.62879,-1,-1,-1,-1,30,21.38793351532817,-9999,30239.9108595,-0.646575927734375,0.47125244140625,-0.568939208984375,30239.9007835,-0.7054426769256321,-0.8601961430956871,-0.4981258413569167,-0.01824268139898777,-0.02549948543310165,0.02641946636140347,0.01103061437606812,0.00638127326965332,0.01787710189819336,XArbitraryZVertical,-0.349848621431874,-0.3018191163374651,-0.2078507112106889,0.8621537540241034,-0.6658615469932556,0.4777799546718597,-0.5730223059654236,0,0,0,-1,-1,30235.1360655,unknown,2,2025-04-22T12:25:44.559+03:00,2025-04-21T17:08:51.449+03:00,7274,0.979095,0,0,6062.87,5,20,2025-04-22T12:23:51.056+03:00,767006736.9230493,0,-20.46,100.4482,1,0.85,2025-04-22T12:25:30.239+03:00,82,1.366666666666667,2025-04-22T09:54:17.825+03:00,0.02225348692287972,0
2025-04-22T12:25:59.475+03:00,1745313958.242182,40.95219108736872,29.14026335014715,76.62879,-1,-1,-1,-1,30,21.38793351532817,-9999,30239.9209365,-0.648834228515625,0.4846038818359375,-0.5646820068359375,30239.9108595,-0.7054164388431482,-0.8605046423438923,-0.4984876952138516,-0.0189265813678503,-0.0274643674492836,0.02931991592049599,0.02075034379959106,-0.007425308227539062,0.006587803363800049,XArbitraryZVertical,-0.3500198129553967,-0.3018841793676564,-0.20770280202908,0.8620971958028389,-0.6659072041511536,0.4780978262424469,-0.5727041363716125,0,0,0,-1,-1,30235.1360655,unknown,2,2025-04-22T12:25:44.559+03:00,2025-04-21T17:08:51.449+03:00,7274,0.979095,0,0,6062.87,5,20,2025-04-22T12:23:51.056+03:00,767006736.9230493,0,-20.46,100.4482,1,0.85,2025-04-22T12:25:30.239+03:00,82,1.366666666666667,2025-04-22T09:54:17.825+03:00,0.02225348692287972,0
2025-04-22T12:25:59.486+03:00,1745313958.242182,40.95219108736872,29.14026335014715,76.62879,-1,-1,-1,-1,30,21.38793351532817,-9999,30239.9310125,-0.650634765625,0.4966888427734375,-0.559906005859375,30239.9209365,-0.7053022740169548,-0.8607567946300336,-0.4987814311116846,-0.004984267521649599,-0.03197403252124786,0.02707546949386597,0.01962852478027344,-0.006462603807449341,0.003261327743530273,XArbitraryZVertical,-0.3501449160889359,-0.301953984457439,-0.2075423627526091,0.8620606028027044,-0.6659450531005859,0.4783557951450348,-0.5724446773529053,0,0,0,-1,-1,30235.1360655,unknown,2,2025-04-22T12:25:44.559+03:00,2025-04-21T17:08:51.449+03:00,7274,0.979095,0,0,6062.87,5,20,2025-04-22T12:23:51.056+03:00,767006736.9230493,0,-20.46,100.4482,1,0.85,2025-04-22T12:25:30.239+03:00,82,1.366666666666667,2025-04-22T09:54:17.825+03:00,0.02225348692287972,0
2025-04-22T12:25:59.496+03:00,1745313958.242182,40.95219108736872,29.14026335014715,76.62879,-1,-1,-1,-1,30,21.38793351532817,-9999,30239.9410895,-0.64990234375,0.4947662353515625,-0.5614776611328125,30239.9310125,-0.7050852702058032,-0.8609119798563296,-0.4990172196967096,0.003637449815869331,-0.02868529222905636,0.02685070037841797,0.01677840948104858,0.00848233699798584,0.008486032485961914,XArbitraryZVertical,-0.3502215052532767,-0.3020116168054564,-0.2073677825103573,0.8620512816030405,-0.6659483313560486,0.4785628318786621,-0.5722677707672119,0,0,0,-1,-1,30235.1360655,unknown,2,2025-04-22T12:25:44.559+03:00,2025-04-21T17:08:51.449+03:00,7274,0.979095,0,0,6062.87,5,20,2025-04-22T12:23:51.056+03:00,767006736.9230493,0,-20.46,100.4482,1,0.85,2025-04-22T12:25:30.239+03:00,82,1.366666666666667,2025-04-22T09:54:17.825+03:00,0.02225348692287972,0
2025-04-22T12:25:59.506+03:00,1745313958.242182,40.95219108736872,29.14026335014715,76.62879,-1,-1,-1,-1,30,21.38793351532817,-9999,30239.9511655,-0.6464080810546875,0.48504638671875,-0.5626220703125,30239.9410895,-0.704812677390007,-0.8610512764164218,-0.4992908112181482,0.007610153872519732,-0.02971906401216984,0.02735287137329578,0.01543122529983521,0.01834344863891602,0.01152753829956055,XArbitraryZVertical,-0.350302962959918,-0.3020645769194168,-0.2071633756329287,0.862048776449726,-0.6659286618232727,0.4788030385971069,-0.572089672088623,0,0,0,-1,-1,30235.1360655,unknown,2,2025-04-22T12:25:44.559+03:00,2025-04-21T17:08:51.449+03:00,7274,0.979095,0,0,6062.87,5,20,2025-04-22T12:23:51.056+03:00,767006736.9230493,0,-20.46,100.4482,1,0.85,2025-04-22T12:25:30.239+03:00,82,1.366666666666667,2025-04-22T09:54:17.825+03:00,0.02225348692287972,0
2025-04-22T12:25:59.516+03:00,1745313958.242182,40.95219108736872,29.14026335014715,76.62879,-1,-1,-1,-1,30,21.38793351532817,-9999,30239.9612425,-0.64569091796875,0.483306884765625,-0.5652008056640625,30239.9511655,-0.704556003692705,-0.8612464342527533,-0.4996208719101355,-0.001770032220520079,-0.03184560313820839,0.03446830809116364,0.01627743244171143,0.01431530714035034,0.01002806425094604,XArbitraryZVertical,-0.3504149231632355,-0.3021275313172335,-0.2069431173422869,0.8620340835283613,-0.6659203767776489,0.4790927767753601,-0.571856677532196,0,0,0,-1,-1,30235.1360655,unknown,2,2025-04-22T12:25:44.559+03:00,2025-04-21T17:08:51.449+03:00,7274,0.979095,0,0,6062.87,5,20,2025-04-22T12:23:51.056+03:00,767006736.9230493,0,-20.46,100.4482,1,0.85,2025-04-22T12:25:30.239+03:00,82,1.366666666666667,2025-04-22T09:54:17.825+03:00,0.02225348692287972,0
2025-04-22T12:25:59.526+03:00,1745313958.242182,40.95219108736872,29.14026335014715,76.62879,-1,-1,-1,-1,30,21.38793351532817,-9999,30239.9713185,-0.6459808349609375,0.4744720458984375,-0.5702972412109375,30239.9612425,-0.7043830175221004,-0.8616095692482257,-0.5000551736103723,-0.01700697466731071,-0.043947733938694,0.03981250524520874,0.02043169736862183,0.005221366882324219,0.008887708187103271,XArbitraryZVertical,-0.3505980515095788,-0.3022273543755646,-0.2067056284650706,0.8619816127348918,-0.6659700274467468,0.4794739484786987,-0.5714792609214783,0,0,0,-1,-1,30235.1360655,unknown,2,2025-04-22T12:25:44.559+03:00,2025-04-21T17:08:51.449+03:00,7274,0.979095,0,0,6062.87,5,20,2025-04-22T12:23:51.056+03:00,767006736.9230493,0,-20.46,100.4482,1,0.85,2025-04-22T12:25:30.239+03:00,82,1.366666666666667,2025-04-22T09:54:17.825+03:00,0.02225348692287972,0
2025-04-22T12:25:59.536+03:00,1745313958.242182,40.95219108736872,29.14026335014715,76.62879,-1,-1,-1,-1,30,21.38793351532817,-9999,30239.9813955,-0.6434173583984375,0.4673004150390625,-0.5808258056640625,30239.9713185,-0.7042847096882551,-0.8621419184490544,-0.500637590888256,-0.02337033301591873,-0.05773598700761795,0.05244521051645279,0.02034062147140503,0.00329124927520752,0.004857003688812256,XArbitraryZVertical,-0.3508684105367712,-0.3023573290381184,-0.2064366841044872,0.8618904558553193,-0.6660619974136353,0.4799849689006805,-0.5709428191184998,0,0,0,-1,-1,30235.1360655,unknown,2,2025-04-22T12:25:44.559+03:00,2025-04-21T17:08:51.449+03:00,7274,0.979095,0,0,6062.87,5,20,2025-04-22T12:23:51.056+03:00,767006736.9230493,0,-20.46,100.4482,1,0.85,2025-04-22T12:25:30.239+03:00,82,1.366666666666667,2025-04-22T09:54:17.825+03:00,0.02225348692287972,0
2025-04-22T12:25:59.546+03:00,1745313958.242182,40.95219108736872,29.14026335014715,76.62879,-1,-1,-1,-1,30,21.38793351532817,-9999,30239.9914715,-0.6357421875,0.468475341796875,-0.5931396484375,30239.9813955,-0.7040526347781244,-0.8627387720873148,-0.5012673176945281,-0.01963005587458611,-0.080949567258358,0.06646082550287247,0.02046674489974976,-0.007667571306228638,-0.0005133152008056641,XArbitraryZVertical,-0.3511437475953107,-0.3025290723164426,-0.2060877964744404,0.8618015173634705,-0.6661729216575623,0.4805373251438141,-0.5703484416007996,0,0,0,-1,-1,30235.1360655,unknown,2,2025-04-22T12:25:44.559+03:00,2025-04-21T17:08:51.449+03:00,7274,0.979095,0,0,6062.87,5,20,2025-04-22T12:23:51.056+03:00,767006736.9230493,0,-20.46,100.4482,1,0.85,2025-04-22T12:25:30.239+03:00,82,1.366666666666667,2025-04-22T09:54:17.825+03:00,0.02225348692287972,0
2025-04-22T12:25:59.556+03:00,1745313958.242182,40.95219108736872,29.14026335014715,76.62879,-1,-1,-1,-1,30,21.38793351532817,-9999,30240.0015485,-0.6190338134765625,0.4655303955078125,-0.5994110107421875,30239.9914715,-0.7036347495805979,-0.8635360800885933,-0.5018932509939403,-0.008835732005536556,-0.1255476474761963,0.07020522654056549,0.02327126264572144,-0.01369431614875793,-0.01256215572357178,XArbitraryZVertical,-0.3514098184944099,-0.3028205927693407,-0.2056243532357334,0.8617015058190705,-0.6663987636566162,0.4810861647129059,-0.5696216821670532,0,0,0,-1,-1,30235.1360655,unknown,2,2025-04-22T12:25:44.559+03:00,2025-04-21T17:08:51.449+03:00,7274,0.979095,0,0,6062.87,5,20,2025-04-22T12:23:51.056+03:00,767006736.9230493,0,-20.46,100.4482,1,0.85,2025-04-22T12:25:30.239+03:00,82,1.366666666666667,2025-04-22T09:54:17.825+03:00,0.02225348692287972,0
2025-04-22T12:25:59.566+03:00,1745313958.242182,40.95219108736872,29.14026335014715,76.62879,-1,-1,-1,-1,30,21.38793351532817,-9999,30240.0116245,-0.6149139404296875,0.457672119140625,-0.5965423583984375,30240.0015485,-0.703162847573114,-0.8647745325985426,-0.5026158556181135,-0.03157719597220421,-0.1754669398069382,0.08696001023054123,0.03259211778640747,-0.01290860772132874,-0.02531713247299194,XArbitraryZVertical,-0.3517508641181521,-0.3032923072616161,-0.2050376755430083,0.8615362266141651,-0.6668390035629272,0.4817195236682892,-0.5685701966285706,0,0,0,-1,-1,30235.1360655,unknown,2,2025-04-22T12:25:44.559+03:00,2025-04-21T17:08:51.449+03:00,7274,0.979095,0,0,6062.87,5,20,2025-04-22T12:23:51.056+03:00,767006736.9230493,0,-20.46,100.4482,1,0.85,2025-04-22T12:25:30.239+03:00,82,1.366666666666667,2025-04-22T09:54:17.825+03:00,0.02225348692287972,0
2025-04-22T12:25:59.576+03:00,1745313958.242182,40.95219108736872,29.14026335014715,76.62879,-1,-1,-1,-1,30,21.38793351532817,-9999,30240.0217015,-0.62969970703125,0.452880859375,-0.5781402587890625,30240.0116245,-0.7029502031735344,-0.8665766533242474,-0.5037110926967405,-0.08086031675338745,-0.2069556266069412,0.09585203975439072,0.05060821771621704,-0.01809477806091309,-0.03264474868774414,XArbitraryZVertical,-0.3523353700269857,-0.3038864340426699,-0.2043774059830124,0.8612448732495658,-0.667460024356842,0.482679009437561,-0.5670256614685059,0,0,0,-1,-1,30235.1360655,unknown,2,2025-04-22T12:25:44.559+03:00,2025-04-21T17:08:51.449+03:00,7274,0.979095,0,0,6062.87,5,20,2025-04-22T12:23:51.056+03:00,767006736.9230493,0,-20.46,100.4482,1,0.85,2025-04-22T12:25:30.239+03:00,82,1.366666666666667,2025-04-22T09:54:17.825+03:00,0.02225348692287972,0
2025-04-22T12:25:59.586+03:00,1745313958.242182,40.95219108736872,29.14026335014715,76.62879,-1,-1,-1,-1,30,21.38793351532817,-9999,30240.0317775,-0.651458740234375,0.4524383544921875,-0.5660247802734375,30240.0217015,-0.7030402665475899,-0.868740080287651,-0.5052335892286545,-0.132634237408638,-0.2149154841899872,0.1163867712020874,0.05241590738296509,-0.02673661708831787,-0.02986562252044678,XArbitraryZVertical,-0.3531703037529839,-0.3044966802069345,-0.2036843174570769,0.8608513356638022,-0.6681232452392578,0.4840118587017059,-0.5651050209999084,0,0,0,-1,-1,30235.1360655,unknown,2,2025-04-22T12:25:44.559+03:00,2025-04-21T17:08:51.449+03:00,7274,0.979095,0,0,6062.87,5,20,2025-04-22T12:23:51.056+03:00,767006736.9230493,0,-20.46,100.4482,1,0.85,2025-04-22T12:25:30.239+03:00,82,1.366666666666667,2025-04-22T09:54:17.825+03:00,0.02225348692287972,0
2025-04-22T12:25:59.596+03:00,1745313958.242182,40.95219108736872,29.14026335014715,76.62879,-1,-1,-1,-1,30,21.38793351532817,-9999,30240.0418545,-0.6609954833984375,0.4507904052734375,-0.5621337890625,30240.0317775,-0.7036989466033629,-0.871160754013668,-0.5073702205057071,-0.2332711070775986,-0.2038087695837021,0.1268466114997864,0.03637230396270752,-0.03370159864425659,-0.01292574405670166,XArbitraryZVertical,-0.354358476583842,-0.3049928288565642,-0.2030468423459375,0.8603379597673098,-0.6686965823173523,0.485880434513092,-0.5628188848495483,0,0,0,-1,-1,30235.1360655,unknown,2,2025-04-22T12:25:44.559+03:00,2025-04-21T17:08:51.449+03:00,7274,0.979095,0,0,6062.87,5,20,2025-04-22T12:23:51.056+03:00,767006736.9230493,0,-20.46,100.4482,1,0.85,2025-04-22T12:25:30.239+03:00,82,1.366666666666667,2025-04-22T09:54:17.825+03:00,0.02225348692287972,0
2025-04-22T12:25:59.607+03:00,1745313958.242182,40.95219108736872,29.14026335014715,76.62879,-1,-1,-1,-1,30,21.38793351532817,-9999,30240.0519305,-0.6569976806640625,0.4379730224609375,-0.583770751953125,30240.0418545,-0.7051975168507173,-0.8738542326455923,-0.5103392408519677,-0.3383108973503113,-0.1943592876195908,0.1568070650100708,0.01593315601348877,-0.03537893295288086,-0.004991412162780762,XArbitraryZVertical,-0.3560279601061448,-0.3052874731670316,-0.2025262384899645,0.859666662685035,-0.6691009402275085,0.4884732961654663,-0.5600873231887817,0,0,0,-1,-1,30235.1360655,unknown,2,2025-04-22T12:25:44.559+03:00,2025-04-21T17:08:51.449+03:00,7274,0.979095,0,0,6062.87,5,20,2025-04-22T12:23:51.056+03:00,767006736.9230493,0,-20.46,100.4482,1,0.85,2025-04-22T12:25:30.239+03:00,82,1.366666666666667,2025-04-22T09:54:17.825+03:00,0.02225348692287972,0
2025-04-22T12:25:59.617+03:00,1745313958.242182,40.95219108736872,29.14026335014715,76.62879,-1,-1,-1,-1,30,21.38793351532817,-9999,30240.0620075,-0.6403350830078125,0.418670654296875,-0.6385955810546875,30240.0519305,-0.7072308343436247,-0.8768165994856106,-0.5140618157234409,-0.4032390415668488,-0.2093470245599747,0.1778985112905502,0.007916748523712158,-0.04208752512931824,-0.006311893463134766,XArbitraryZVertical,-0.3580991487153986,-0.3054457209571036,-0.2020072141928382,0.8588719325467972,-0.6693547368049622,0.4917181432247162,-0.5569358468055725,0,0,0,-1,-1,30235.1360655,unknown,2,2025-04-22T12:25:44.559+03:00,2025-04-21T17:08:51.449+03:00,7274,0.979095,0,0,6062.87,5,20,2025-04-22T12:23:51.056+03:00,767006736.9230493,0,-20.46,100.4482,1,0.85,2025-04-22T12:25:30.239+03:00,82,1.366666666666667,2025-04-22T09:54:17.825+03:00,0.02225348692287972,0
2025-04-22T12:25:59.627+03:00,1745313958.242182,40.95219108736872,29.14026335014715,76.62879,-1,-1,-1,-1,30,21.38793351532817,-9999,30240.0720835,-0.6029815673828125,0.423095703125,-0.703369140625,30240.0620075,-0.7096180937657285,-0.880588235731354,-0.5183152601233574,-0.4479274153709412,-0.3276693820953369,0.2092511057853699,0.01356637477874756,-0.05930605530738831,-0.03626960515975952,XArbitraryZVertical,-0.3605096758490604,-0.305773554980876,-0.201363474652599,0.8578974105440783,-0.6698316335678101,0.4954173862934113,-0.553070604801178,0,0,0,-1,-1,30235.1360655,unknown,2,2025-04-22T12:25:44.559+03:00,2025-04-21T17:08:51.449+03:00,7274,0.979095,0,0,6062.87,5,20,2025-04-22T12:23:51.056+03:00,767006736.9230493,0,-20.46,100.4482,1,0.85,2025-04-22T12:25:30.239+03:00,82,1.366666666666667,2025-04-22T09:54:17.825+03:00,0.02225348692287972,0
2025-04-22T12:25:59.637+03:00,1745313958.242182,40.95219108736872,29.14026335014715,76.62879,-1,-1,-1,-1,30,21.38793351532817,-9999,30240.0821595,-0.57696533203125,0.4713592529296875,-0.7398681640625,30240.0720835,-0.712065020401869,-0.8859475887145681,-0.5228991190554031,-0.4477729499340057,-0.5107119679450989,0.2240239232778549,0.03399628400802612,-0.08270710706710815,-0.0992777943611145,XArbitraryZVertical,-0.3632119714083621,-0.3066949470235457,-0.2003696265954648,0.8566604494673178,-0.6710201501846313,0.4993939697742462,-0.5480305552482605,0,0,0,-1,-1,30235.1360655,unknown,2,2025-04-22T12:25:44.559+03:00,2025-04-21T17:08:51.449+03:00,7274,0.979095,0,0,6062.87,5,20,2025-04-22T12:23:51.056+03:00,767006736.9230493,0,-20.46,100.4482,1,0.85,2025-04-22T12:25:30.239+03:00,82,1.366666666666667,2025-04-22T09:54:17.825+03:00,0.02225348692287972,0
2025-04-22T12:25:59.647+03:00,1745313958.242182,40.95219108736872,29.14026335014715,76.62879,-1,-1,-1,-1,30,21.38793351532817,-9999,30240.0922365,-0.5988006591796875,0.5152130126953125,-0.73626708984375,30240.0821595,-0.714218260819107,-0.8927904706084188,-0.5272299948268868,-0.386506199836731,-0.6358701586723328,0.206936776638031,0.07551437616348267,-0.07539194822311401,-0.168140709400177,XArbitraryZVertical,-0.3659110358159621,-0.3083454941823147,-0.1990237263912879,0.8552318760947857,-0.6730637550354004,0.5031414031982422,-0.542064368724823,0,0,0,-1,-1,30235.1360655,unknown,2,2025-04-22T12:25:44.559+03:00,2025-04-21T17:08:51.449+03:00,7274,0.979095,0,0,6062.87,5,20,2025-04-22T12:23:51.056+03:00,767006736.9230493,0,-20.46,100.4482,1,0.85,2025-04-22T12:25:30.239+03:00,82,1.366666666666667,2025-04-22T09:54:17.825+03:00,0.02225348692287972,0
2025-04-22T12:25:59.657+03:00,1745313958.242182,40.95219108736872,29.14026335014715,76.62879,-1,-1,-1,-1,30,21.38793351532817,-9999,30240.1023125,-0.6386566162109375,0.520294189453125,-0.693389892578125,30240.0922365,-0.716042706388605,-0.9004672512528457,-0.5309369385746345,-0.3148376047611237,-0.6869170665740967,0.1704312413930893,0.09857535362243652,-0.02803963422775269,-0.2057816982269287,XArbitraryZVertical,-0.3683910162619012,-0.3105293661179746,-0.197514704184689,0.8537256887840775,-0.675739049911499,0.5063415169715881,-0.5357191562652588,0,0,0,-1,-1,30235.1360655,unknown,2,2025-04-22T12:25:44.559+03:00,2025-04-21T17:08:51.449+03:00,7274,0.979095,0,0,6062.87,5,20,2025-04-22T12:23:51.056+03:00,767006736.9230493,0,-20.46,100.4482,1,0.85,2025-04-22T12:25:30.239+03:00,82,1.366666666666667,2025-04-22T09:54:17.825+03:00,0.02225348692287972,0
2025-04-22T12:25:59.667+03:00,1745313958.242182,40.95219108736872,29.14026335014715,76.62879,-1,-1,-1,-1,30,21.38793351532817,-9999,30240.112388875,-0.66253662109375,0.50970458984375,-0.662750244140625,30240.1023125,-0.7175132868789811,-0.9080399551113802,-0.5340621235559835,-0.256234347820282,-0.6448547840118408,0.1691358089447021,0.07452178001403809,0.008986532688140869,-0.2022774219512939,XArbitraryZVertical,-0.3705720977388279,-0.3128436031115315,-0.1959964275266505,0.8522854940456194,-0.6785257458686829,0.5090339779853821,-0.5296103954315186,0,0,0,-1,-1,30235.1360655,unknown,2,2025-04-22T12:25:44.559+03:00,2025-04-21T17:08:51.449+03:00,7274,0.979095,0,0,6062.87,5,20,2025-04-22T12:23:51.056+03:00,767006736.9230493,0,-20.46,100.4482,1,0.85,2025-04-22T12:25:30.239+03:00,82,1.366666666666667,2025-04-22T09:54:17.825+03:00,0.02225348692287972,0
2025-04-22T12:25:59.677+03:00,1745313958.242182,40.95219108736872,29.14026335014715,76.62879,-1,-1,-1,-1,30,21.38793351532817,-9999,30240.122464875,-0.682098388671875,0.49078369140625,-0.67401123046875,30240.112388875,-0.7191725204981814,-0.9152253892921858,-0.5366517518943591,-0.307377964258194,-0.5655338168144226,0.04776330664753914,0.0385357141494751,0.008376657962799072,-0.1637519598007202,XArbitraryZVertical,-0.3725311464299695,-0.3150596542996186,-0.1947453589311637,0.8509008047021465,-0.6812664270401001,0.5112612843513489,-0.5239159464836121,0,0,0,-1,-1,30235.1360655,unknown,2,2025-04-22T12:25:44.559+03:00,2025-04-21T17:08:51.449+03:00,7274,0.979095,0,0,6062.87,5,20,2025-04-22T12:23:51.056+03:00,767006736.9230493,0,-20.46,100.4482,1,0.85,2025-04-22T12:25:30.239+03:00,82,1.366666666666667,2025-04-22T09:54:17.825+03:00,0.02225348692287972,0
2025-04-22T12:25:59.687+03:00,1745313958.242182,40.95219108736872,29.14026335014715,76.62879,-1,-1,-1,-1,30,21.38793351532817,-9999,30240.132541875,-0.66851806640625,0.4950408935546875,-0.73779296875,30240.122464875,-0.7216377164523091,-0.9205894373303735,-0.5389048320658462,-0.2515320777893066,-0.161751002073288,0.08406335115432739,0.01838392019271851,-0.005948543548583984,-0.1426912546157837,XArbitraryZVertical,-0.3743064195792254,-0.316412691834435,-0.1942471132126874,0.8497327578982183,-0.6831483244895935,0.5131963491439819,-0.5195554494857788,0,0,0,-1,-1,30235.1360655,unknown,2,2025-04-22T12:25:44.559+03:00,2025-04-21T17:08:51.449+03:00,7274,0.979095,0,0,6062.87,5,20,2025-04-22T12:23:51.056+03:00,767006736.9230493,0,-20.46,100.4482,1,0.85,2025-04-22T12:25:30.239+03:00,82,1.366666666666667,2025-04-22T09:54:17.825+03:00,0.02225348692287972,0
2025-04-22T12:25:59.697+03:00,1745313958.242182,40.95219108736872,29.14026335014715,76.62879,-1,-1,-1,-1,30,21.38793351532817,-9999,30240.142617875,-0.5833892822265625,0.5070037841796875,-0.7960052490234375,30240.132541875,-0.7229448832893042,-0.9211674106883228,-0.5412464570072026,-0.2416543960571289,-0.0002499907277524471,0.1490639299154282,-0.001546561717987061,-0.0262216329574585,-0.1591649055480957,XArbitraryZVertical,-0.3754658158108918,-0.3159261703042074,-0.1941261305306233,0.8494298442972724,-0.6824896931648254,0.5152046680450439,-0.5184321403503418,0,0,0,-1,-1,30235.1360655,unknown,2,2025-04-22T12:25:44.559+03:00,2025-04-21T17:08:51.449+03:00,7274,0.979095,0,0,6062.87,5,20,2025-04-22T12:23:51.056+03:00,767006736.9230493,0,-20.46,100.4482,1,0.85,2025-04-22T12:25:30.239+03:00,82,1.366666666666667,2025-04-22T09:54:17.825+03:00,0.02225348692287972,0
2025-04-22T12:25:59.707+03:00,1745313958.242182,40.95219108736872,29.14026335014715,76.62879,-1,-1,-1,-1,30,21.38793351532817,-9999,30240.152694875,-0.589447021484375,0.4342803955078125,-0.6969146728515625,30240.142617875,-0.7242082071571917,-0.9235720758325322,-0.5446793032420741,-0.3417447805404663,-0.2936664223670959,0.2746677994728088,0.02228516340255737,-0.01999026536941528,-0.235073447227478,XArbitraryZVertical,-0.3772108078597167,-0.3159936763389177,-0.1933758899093348,0.8488024874865164,-0.6823194026947021,0.5181438326835632,-0.515720009803772,0,0,0,-1,-1,30235.1360655,unknown,2,2025-04-22T12:25:44.559+03:00,2025-04-21T17:08:51.449+03:00,7274,0.979095,0,0,6062.87,5,20,2025-04-22T12:23:51.056+03:00,767006736.9230493,0,-20.46,100.4482,1,0.85,2025-04-22T12:25:30.239+03:00,82,1.366666666666667,2025-04-22T09:54:17.825+03:00,0.02225348692287972,0
2025-04-22T12:25:59.717+03:00,1745313958.242182,40.95219108736872,29.14026335014715,76.62879,-1,-1,-1,-1,30,21.38793351532817,-9999,30240.162770875,-0.697662353515625,0.3726806640625,-0.6432342529296875,30240.152694875,-0.7252823602557217,-0.9263921668561644,-0.549664913600709,-0.3936079740524292,-0.122203066945076,0.4113995432853699,0.1061968803405762,-0.01965510845184326,-0.2765675187110901,XArbitraryZVertical,-0.3795542168698179,-0.315944356349704,-0.1920830169690779,0.8480693823565129,-0.6816973090171814,0.5224015116691589,-0.5122355222702026,0,0,0,-1,-1,30235.1360655,unknown,2,2025-04-22T12:25:44.559+03:00,2025-04-21T17:08:51.449+03:00,7274,0.979095,0,0,6062.87,5,20,2025-04-22T12:23:51.056+03:00,767006736.9230493,0,-20.46,100.4482,1,0.85,2025-04-22T12:25:30.239+03:00,82,1.366666666666667,2025-04-22T09:54:17.825+03:00,0.02225348692287972,0
2025-04-22T12:25:59.727+03:00,1745313958.242182,40.95219108736872,29.14026335014715,76.62879,-1,-1,-1,-1,30,21.38793351532817,-9999,30240.172847875,-0.7599639892578125,0.3982391357421875,-0.557769775390625,30240.162770875,-0.7263340439214776,-0.9287020487151936,-0.5560956145566591,-0.5174478888511658,-0.2974342703819275,0.4724277257919312,0.07972568273544312,-0.1050379872322083,-0.1774437427520752,XArbitraryZVertical,-0.3823880964878646,-0.3153740049764452,-0.1905165912278349,0.8473617690762097,-0.6801742911338806,0.5278741717338562,-0.5086371898651123,0,0,0,-1,-1,30235.1360655,unknown,2,2025-04-22T12:25:44.559+03:00,2025-04-21T17:08:51.449+03:00,7274,0.979095,0,0,6062.87,5,20,2025-04-22T12:23:51.056+03:00,767006736.9230493,0,-20.46,100.4482,1,0.85,2025-04-22T12:25:30.239+03:00,82,1.366666666666667,2025-04-22T09:54:17.825+03:00,0.02225348692287972,0
2025-04-22T12:25:59.748+03:00,1745313958.242182,40.95219108736872,29.14026335014715,76.62879,-1,-1,-1,-1,30,21.38793351532817,-9999,30240.182923875,-0.8028717041015625,0.4863433837890625,-0.499053955078125,30240.172847875,-0.7282845410914122,-0.9336746443774167,-0.5629823745957993,-0.5496220588684082,-0.4374084174633026,0.4314352869987488,-0.02989894151687622,-0.1626322865486145,-0.1341482400894165,XArbitraryZVertical,-0.3857792061461224,-0.3156538623395026,-0.1886965824331343,0.8461268306748072,-0.6797568202018738,0.5337106585502625,-0.5030741095542908,0,0,0,-1,-1,30235.1360655,unknown,2,2025-04-22T12:25:44.559+03:00,2025-04-21T17:08:51.449+03:00,7274,0.979095,0,0,6062.87,5,20,2025-04-22T12:23:51.056+03:00,767006736.9230493,0,-20.46,100.4482,1,0.85,2025-04-22T12:25:30.239+03:00,82,1.366666666666667,2025-04-22T09:54:17.825+03:00,0.02225348692287972,0
2025-04-22T12:25:59.751+03:00,1745313958.242182,40.95219108736872,29.14026335014715,76.62879,-1,-1,-1,-1,30,21.38793351532817,-9999,30240.193000875,-0.8156280517578125,0.59674072265625,-0.5292510986328125,30240.182923875,-0.7303313959094768,-0.939581129963337,-0.5695377242882076,-0.4819450378417969,-0.5396983027458191,0.4061580300331116,-0.08518326282501221,-0.1327487826347351,-0.04802322387695312,XArbitraryZVertical,-0.3891333733315955,-0.3163664457933307,-0.1867990022873527,0.8447446539344534,-0.6798771619796753,0.5392428040504456,-0.4969749748706818,0,0,0,-1,-1,30235.1360655,unknown,2,2025-04-22T12:25:44.559+03:00,2025-04-21T17:08:51.449+03:00,7274,0.979095,0,0,6062.87,5,20,2025-04-22T12:23:51.056+03:00,767006736.9230493,0,-20.46,100.4482,1,0.85,2025-04-22T12:25:30.239+03:00,82,1.366666666666667,2025-04-22T09:54:17.825+03:00,0.02225348692287972,0
2025-04-22T12:25:59.758+03:00,1745313958.242182,40.95219108736872,29.14026335014715,76.62879,-1,-1,-1,-1,30,21.38793351532817,-9999,30240.203076875,-0.797607421875,0.62255859375,-0.55682373046875,30240.193000875,-0.731623243736759,-0.9465145752660159,-0.5751369139995229,-0.3479520678520203,-0.7108010649681091,0.3667302131652832,-0.1258556246757507,-0.04295796155929565,-0.008913040161132812,XArbitraryZVertical,-0.3920883021264275,-0.3178497230307056,-0.1845990086476822,0.8433038765948038,-0.6808460354804993,0.5439496636390686,-0.4904766380786896,0,0,0,-1,-1,30235.1360655,unknown,2,2025-04-22T12:25:44.559+03:00,2025-04-21T17:08:51.449+03:00,7274,0.979095,0,0,6062.87,5,20,2025-04-22T12:23:51.056+03:00,767006736.9230493,0,-20.46,100.4482,1,0.85,2025-04-22T12:25:30.239+03:00,82,1.366666666666667,2025-04-22T09:54:17.825+03:00,0.02225348692287972,0
2025-04-22T12:25:59.768+03:00,1745313958.242182,40.95219108736872,29.14026335014715,76.62879,-1,-1,-1,-1,30,21.38793351532817,-9999,30240.213153875,-0.76983642578125,0.5540313720703125,-0.55718994140625,30240.203076875,-0.7322961914955647,-0.9545108296149559,-0.5802034440996571,-0.3527292311191559,-0.7747776508331299,0.3973096907138824,-0.1314916014671326,0.0580679178237915,-0.04958716034889221,XArbitraryZVertical,-0.3948266239742624,-0.3200048939022936,-0.1820422588542359,0.8417655825868102,-0.6824885010719299,0.5481941103935242,-0.4834176003932953,0,0,0,-1,-1,30235.1360655,unknown,2,2025-04-22T12:25:44.559+03:00,2025-04-21T17:08:51.449+03:00,7274,0.979095,0,0,6062.87,5,20,2025-04-22T12:23:51.056+03:00,767006736.9230493,0,-20.46,100.4482,1,0.85,2025-04-22T12:25:30.239+03:00,82,1.366666666666667,2025-04-22T09:54:17.825+03:00,0.02225348692287972,0
2025-04-22T12:25:59.778+03:00,1745313958.242182,40.95219108736872,29.14026335014715,76.62879,-1,-1,-1,-1,30,21.38793351532817,-9999,30240.223229875,-0.6975860595703125,0.4889373779296875,-0.497039794921875,30240.213153875,-0.7333837961229371,-0.9627725244564103,-0.5862263841466654,-0.4749898910522461,-0.756084680557251,0.4759629666805267,-0.1118108630180359,0.06445425748825073,-0.08351927995681763,XArbitraryZVertical,-0.3979939139868156,-0.3219733980653924,-0.1793449465153268,0.8401008134926096,-0.6837366223335266,0.5532214045524597,-0.4758679568767548,0,0,0,-1,-1,30235.1360655,unknown,2,2025-04-22T12:25:44.559+03:00,2025-04-21T17:08:51.449+03:00,7274,0.979095,0,0,6062.87,5,20,2025-04-22T12:23:51.056+03:00,767006736.9230493,0,-20.46,100.4482,1,0.85,2025-04-22T12:25:30.239+03:00,82,1.366666666666667,2025-04-22T09:54:17.825+03:00,0.02225348692287972,0
2025-04-22T12:25:59.788+03:00,1745313958.242182,40.95219108736872,29.14026335014715,76.62879,-1,-1,-1,-1,30,21.38793351532817,-9999,30240.233306875,-0.6137237548828125,0.520355224609375,-0.4546661376953125,30240.223229875,-0.7346637885230806,-0.9713727618222966,-0.5930474075545441,-0.4427508413791656,-0.8075993061065674,0.5134073495864868,-0.07912176847457886,-0.01543372869491577,-0.08408010005950928,XArbitraryZVertical,-0.401497046746672,-0.3238594968425323,-0.1764321106467832,0.8383238247179312,-0.6846722364425659,0.5588906407356262,-0.4678303003311157,0,0,0,-1,-1,30235.1360655,unknown,2,2025-04-22T12:25:44.559+03:00,2025-04-21T17:08:51.449+03:00,7274,0.979095,0,0,6062.87,5,20,2025-04-22T12:23:51.056+03:00,767006736.9230493,0,-20.46,100.4482,1,0.85,2025-04-22T12:25:30.239+03:00,82,1.366666666666667,2025-04-22T09:54:17.825+03:00,0.02225348692287972,0
2025-04-22T12:25:59.798+03:00,1745313958.242182,40.95219108736872,29.14026335014715,76.62879,-1,-1,-1,-1,30,21.38793351532817,-9999,30240.243382875,-0.5832061767578125,0.5976409912109375,-0.5028839111328125,30240.233306875,-0.7351597872242868,-0.9799318648749409,-0.599602357310339,-0.3465777039527893,-0.8321115970611572,0.5133090615272522,-0.0005936026573181152,-0.07797098159790039,-0.02819585800170898,XArbitraryZVertical,-0.4047463952369086,-0.325928215560632,-0.1732387209482576,0.8366238988518778,-0.6855941414833069,0.5643142461776733,-0.4599023163318634,0,0,0,-1,-1,30235.1360655,unknown,2,2025-04-22T12:25:44.559+03:00,2025-04-21T17:08:51.449+03:00,7274,0.979095,0,0,6062.87,5,20,2025-04-22T12:23:51.056+03:00,767006736.9230493,0,-20.46,100.4482,1,0.85,2025-04-22T12:25:30.239+03:00,82,1.366666666666667,2025-04-22T09:54:17.825+03:00,0.02225348692287972,0
2025-04-22T12:25:59.808+03:00,1745313958.242182,40.95219108736872,29.14026335014715,76.62879,-1,-1,-1,-1,30,21.38793351532817,-9999,30240.253459875,-0.592864990234375,0.61492919921875,-0.562774658203125,30240.243382875,-0.735119932958335,-0.9882510684306764,-0.6056654830426034,-0.3321979343891144,-0.8193273544311523,0.4903944730758667,0.08078306913375854,-0.03850191831588745,-0.003945708274841309,XArbitraryZVertical,-0.4076821136151418,-0.3280994371579899,-0.1699710742758262,0.8350184081446053,-0.6865264773368835,0.5693092942237854,-0.4522921144962311,0,0,0,-1,-1,30235.1360655,unknown,2,2025-04-22T12:25:44.559+03:00,2025-04-21T17:08:51.449+03:00,7274,0.979095,0,0,6062.87,5,20,2025-04-22T12:23:51.056+03:00,767006736.9230493,0,-20.46,100.4482,1,0.85,2025-04-22T12:25:30.239+03:00,82,1.366666666666667,2025-04-22T09:54:17.825+03:00,0.02225348692287972,0
2025-04-22T12:25:59.818+03:00,1745313958.242182,40.95219108736872,29.14026335014715,76.62879,-1,-1,-1,-1,30,21.38793351532817,-9999,30240.263535875,-0.5970001220703125,0.6072998046875,-0.5399017333984375,30240.253459875,-0.7357679930320172,-0.9968334359262654,-0.6116994489311744,-0.4205155372619629,-0.8124513030052185,0.4611311256885529,0.1042641997337341,0.02948480844497681,-0.06774258613586426,XArbitraryZVertical,-0.4107187416218616,-0.3302347743395113,-0.1669207151736363,0.8333021629766144,-0.6874856352806091,0.5742595791816711,-0.4445102214813232,0,0,0,-1,-1,30235.1360655,unknown,2,2025-04-22T12:25:44.559+03:00,2025-04-21T17:08:51.449+03:00,7274,0.979095,0,0,6062.87,5,20,2025-04-22T12:23:51.056+03:00,767006736.9230493,0,-20.46,100.4482,1,0.85,2025-04-22T12:25:30.239+03:00,82,1.366666666666667,2025-04-22T09:54:17.825+03:00,0.02225348692287972,0
2025-04-22T12:25:59.828+03:00,1745313958.242182,40.95219108736872,29.14026335014715,76.62879,-1,-1,-1,-1,30,21.38793351532817,-9999,30240.273612875,-0.600830078125,0.6385345458984375,-0.46063232421875,30240.263535875,-0.7378558011071177,-1.006170508176683,-0.6181383845064883,-0.548791229724884,-0.8029094934463501,0.4307786524295807,0.09445858001708984,0.03461658954620361,-0.1292234659194946,XArbitraryZVertical,-0.4141801294701446,-0.3322841268488442,-0.1641819253160193,0.831315980952105,-0.6884679794311523,0.5795190334320068,-0.4360841512680054,0,0,0,-1,-1,30235.1360655,unknown,2,2025-04-22T12:25:44.559+03:00,2025-04-21T17:08:51.449+03:00,7274,0.979095,0,0,6062.87,5,20,2025-04-22T12:23:51.056+03:00,767006736.9230493,0,-20.46,100.4482,1,0.85,2025-04-22T12:25:30.239+03:00,82,1.366666666666667,2025-04-22T09:54:17.825+03:00,0.02225348692287972,0
2025-04-22T12:25:59.838+03:00,1745313958.242182,40.95219108736872,29.14026335014715,76.62879,-1,-1,-1,-1,30,21.38793351532817,-9999,30240.283688875,-0.619171142578125,0.69012451171875,-0.387969970703125,30240.273612875,-0.7411484219757645,-1.016004283130421,-0.6246955133993136,-0.57868492603302,-0.7682090401649475,0.3886629045009613,0.09238642454147339,0.0236242413520813,-0.1044562757015228,XArbitraryZVertical,-0.4179012624934313,-0.3342417248199708,-0.1617766118346146,0.829137607569563,-0.6894780397415161,0.5848503112792969,-0.4272820055484772,0,0,0,-1,-1,30235.1360655,unknown,2,2025-04-22T12:25:44.559+03:00,2025-04-21T17:08:51.449+03:00,7274,0.979095,0,0,6062.87,5,20,2025-04-22T12:23:51.056+03:00,767006736.9230493,0,-20.46,100.4482,1,0.85,2025-04-22T12:25:30.239+03:00,82,1.366666666666667,2025-04-22T09:54:17.825+03:00,0.02225348692287972,0
2025-04-22T12:25:59.848+03:00,1745313958.242182,40.95219108736872,29.14026335014715,76.62879,-1,-1,-1,-1,30,21.38793351532817,-9999,30240.293765875,-0.640472412109375,0.7092742919921875,-0.332855224609375,30240.283688875,-0.7445929814426607,-1.025495142703145,-0.6308143977525392,-0.5165030360221863,-0.713395893573761,0.3593319058418274,0.08843994140625,0.05581188201904297,-0.03129440546035767,XArbitraryZVertical,-0.4214395122414924,-0.3360969658997209,-0.1595875347752107,0.8270183152052378,-0.6904296875,0.589802622795105,-0.4188551306724548,0,0,0,-1,-1,30235.1360655,unknown,2,2025-04-22T12:25:44.559+03:00,2025-04-21T17:08:51.449+03:00,7274,0.979095,0,0,6062.87,5,20,2025-04-22T12:23:51.056+03:00,767006736.9230493,0,-20.46,100.4482,1,0.85,2025-04-22T12:25:30.239+03:00,82,1.366666666666667,2025-04-22T09:54:17.825+03:00,0.02225348692287972,0
2025-04-22T12:25:59.858+03:00,1745313958.242182,40.95219108736872,29.14026335014715,76.62879,-1,-1,-1,-1,30,21.38793351532817,-9999,30240.303841875,-0.6412506103515625,0.6885986328125,-0.2971649169921875,30240.293765875,-0.7473183608139613,-1.034099481598491,-0.6362820362485435,-0.4134318232536316,-0.6767140626907349,0.3531129062175751,0.06868290901184082,0.1008132696151733,0.0314679741859436,XArbitraryZVertical,-0.4245333609428887,-0.3378600674217143,-0.1574320567865426,0.8251285208503554,-0.6912263035774231,0.5942091345787048,-0.4112440049648285,0,0,0,-1,-1,30235.1360655,unknown,2,2025-04-22T12:25:44.559+03:00,2025-04-21T17:08:51.449+03:00,7274,0.979095,0,0,6062.87,5,20,2025-04-22T12:23:51.056+03:00,767006736.9230493,0,-20.46,100.4482,1,0.85,2025-04-22T12:25:30.239+03:00,82,1.366666666666667,2025-04-22T09:54:17.825+03:00,0.02225348692287972,0
2025-04-22T12:25:59.869+03:00,1745313958.242182,40.95219108736872,29.14026335014715,76.62879,-1,-1,-1,-1,30,21.38793351532817,-9999,30240.313918875,-0.638397216796875,0.6417999267578125,-0.296844482421875,30240.303841875,-0.7492394510906425,-1.041802099205836,-0.6413901928853925,-0.3791864812374115,-0.6249546408653259,0.3612212836742401,0.05053907632827759,0.1099418997764587,0.07761877775192261,XArbitraryZVertical,-0.4272752551910011,-0.3394857828559813,-0.1552095090816345,0.8234653968184096,-0.6917439699172974,0.5983099341392517,-0.40437051653862,0,0,0,-1,-1,30235.1360655,unknown,2,2025-04-22T12:25:44.559+03:00,2025-04-21T17:08:51.449+03:00,7274,0.979095,0,0,6062.87,5,20,2025-04-22T12:23:51.056+03:00,767006736.9230493,0,-20.46,100.4482,1,0.85,2025-04-22T12:25:30.239+03:00,82,1.366666666666667,2025-04-22T09:54:17.825+03:00,0.02225348692287972,0
2025-04-22T12:25:59.879+03:00,1745313958.242182,40.95219108736872,29.14026335014715,76.62879,-1,-1,-1,-1,30,21.38793351532817,-9999,30240.323994875,-0.6299591064453125,0.592010498046875,-0.3311309814453125,30240.313918875,-0.7512427410629089,-1.048999818500616,-0.6466403227323082,-0.4239587485790253,-0.5640670657157898,0.3830323219299316,0.05117189884185791,0.081878662109375,0.1019420027732849,XArbitraryZVertical,-0.4300263869290989,-0.3408406698196809,-0.1530704384678974,0.8218724404697285,-0.6919037699699402,0.6025084257125854,-0.3978098928928375,0,0,0,-1,-1,30235.1360655,unknown,2,2025-04-22T12:25:44.559+03:00,2025-04-21T17:08:51.449+03:00,7274,0.979095,0,0,6062.87,5,20,2025-04-22T12:23:51.056+03:00,767006736.9230493,0,-20.46,100.4482,1,0.85,2025-04-22T12:25:30.239+03:00,82,1.366666666666667,2025-04-22T09:54:17.825+03:00,0.02225348692287972,0
2025-04-22T12:25:59.889+03:00,1745313958.242182,40.95219108736872,29.14026335014715,76.62879,-1,-1,-1,-1,30,21.38793351532817,-9999,30240.334071875,-0.610107421875,0.564239501953125,-0.373138427734375,30240.323994875,-0.7537705427377467,-1.055995121170111,-0.6524291612334787,-0.4906877875328064,-0.5221588611602783,0.4170998334884644,0.05322498083114624,0.02743345499038696,0.09220981597900391,XArbitraryZVertical,-0.4330252043563183,-0.3418640474810729,-0.1510239521669784,0.8202498909417071,-0.691622257232666,0.6071184277534485,-0.3912363052368164,0,0,0,-1,-1,30235.1360655,unknown,2,2025-04-22T12:25:44.559+03:00,2025-04-21T17:08:51.449+03:00,7274,0.979095,0,0,6062.87,5,20,2025-04-22T12:23:51.056+03:00,767006736.9230493,0,-20.46,100.4482,1,0.85,2025-04-22T12:25:30.239+03:00,82,1.366666666666667,2025-04-22T09:54:17.825+03:00,0.02225348692287972,0
2025-04-22T12:25:59.899+03:00,1745313958.242182,40.95219108736872,29.14026335014715,76.62879,-1,-1,-1,-1,30,21.38793351532817,-9999,30240.344147875,-0.597381591796875,0.5557098388671875,-0.3625030517578125,30240.334071875,-0.756972969485437,-1.063096702856111,-0.658817584472665,-0.5729267597198486,-0.502530038356781,0.439347892999649,0.06314152479171753,-0.02487170696258545,0.04762932658195496,XArbitraryZVertical,-0.4363400080659115,-0.3426320821466177,-0.1490447107575595,0.8185329221066199,-0.6909795999526978,0.6121823191642761,-0.384421318769455,0,0,0,-1,-1,30235.1360655,unknown,2,2025-04-22T12:25:44.559+03:00,2025-04-21T17:08:51.449+03:00,7274,0.979095,0,0,6062.87,5,20,2025-04-22T12:23:51.056+03:00,767006736.9230493,0,-20.46,100.4482,1,0.85,2025-04-22T12:25:30.239+03:00,82,1.366666666666667,2025-04-22T09:54:17.825+03:00,0.02225348692287972,0
2025-04-22T12:25:59.909+03:00,1745313958.242182,40.95219108736872,29.14026335014715,76.62879,-1,-1,-1,-1,30,21.38793351532817,-9999,30240.354224875,-0.6051788330078125,0.558197021484375,-0.3021392822265625,30240.344147875,-0.7610391372620718,-1.07057248944817,-0.6657674496763246,-0.6463189125061035,-0.4775921702384949,0.4635103642940521,0.08254015445709229,-0.05510199069976807,0.001371324062347412,XArbitraryZVertical,-0.4400062423438917,-0.3432154816742737,-0.1471566779498258,0.8166654254304861,-0.6900841593742371,0.6176628470420837,-0.3771952688694,0,0,0,-1,-1,30235.1360655,unknown,2,2025-04-22T12:25:44.559+03:00,2025-04-21T17:08:51.449+03:00,7274,0.979095,0,0,6062.87,5,20,2025-04-22T12:23:51.056+03:00,767006736.9230493,0,-20.46,100.4482,1,0.85,2025-04-22T12:25:30.239+03:00,82,1.366666666666667,2025-04-22T09:54:17.825+03:00,0.02225348692287972,0
2025-04-22T12:25:59.919+03:00,1745313958.242182,40.95219108736872,29.14026335014715,76.62879,-1,-1,-1,-1,30,21.38793351532817,-9999,30240.364300875,-0.6212005615234375,0.5690765380859375,-0.27532958984375,30240.354224875,-0.7657515012229544,-1.078161751926477,-0.6733253173119736,-0.725780725479126,-0.4485669136047363,0.5067046880722046,0.09208387136459351,-0.067970871925354,0.01364976167678833,XArbitraryZVertical,-0.4439792695504592,-0.3435374466800422,-0.145309100905194,0.8147083538191551,-0.6887941360473633,0.6235889792442322,-0.3697288632392883,0,0,0,-1,-1,30235.1360655,unknown,2,2025-04-22T12:25:44.559+03:00,2025-04-21T17:08:51.449+03:00,7274,0.979095,0,0,6062.87,5,20,2025-04-22T12:23:51.056+03:00,767006736.9230493,0,-20.46,100.4482,1,0.85,2025-04-22T12:25:30.239+03:00,82,1.366666666666667,2025-04-22T09:54:17.825+03:00,0.02225348692287972,0
2025-04-22T12:25:59.929+03:00,1745313958.242182,40.95219108736872,29.14026335014715,76.62879,-1,-1,-1,-1,30,21.38793351532817,-9999,30240.374377875,-0.6298828125,0.573883056640625,-0.28741455078125,30240.364300875,-0.7714511983121236,-1.086104623335328,-0.6816752354349838,-0.8266356587409973,-0.416440337896347,0.539760947227478,0.07912182807922363,-0.07133328914642334,0.06552749872207642,XArbitraryZVertical,-0.4483930912636054,-0.3435693624687098,-0.1435298239736837,0.812590194729146,-0.6870777606964111,0.6300947666168213,-0.3618074655532837,0,0,0,-1,-1,30235.1360655,unknown,2,2025-04-22T12:25:44.559+03:00,2025-04-21T17:08:51.449+03:00,7274,0.979095,0,0,6062.87,5,20,2025-04-22T12:23:51.056+03:00,767006736.9230493,0,-20.46,100.4482,1,0.85,2025-04-22T12:25:30.239+03:00,82,1.366666666666667,2025-04-22T09:54:17.825+03:00,0.02225348692287972,0
2025-04-22T12:25:59.939+03:00,1745313958.242182,40.95219108736872,29.14026335014715,76.62879,-1,-1,-1,-1,30,21.38793351532817,-9999,30240.384453875,-0.6271514892578125,0.537384033203125,-0.3251495361328125,30240.374377875,-0.7781303644872223,-1.094372785382778,-0.6907973537116306,-0.923117458820343,-0.385472297668457,0.5993212461471558,0.0629001259803772,-0.06606137752532959,0.07851541042327881,XArbitraryZVertical,-0.4532297635587296,-0.3432943229543411,-0.141818293244741,0.8103205312902008,-0.6849094033241272,0.6371519565582275,-0.3534635901451111,0,0,0,-1,-1,30235.1360655,unknown,2,2025-04-22T12:25:44.559+03:00,2025-04-21T17:08:51.449+03:00,7274,0.979095,0,0,6062.87,5,20,2025-04-22T12:23:51.056+03:00,767006736.9230493,0,-20.46,100.4482,1,0.85,2025-04-22T12:25:30.239+03:00,82,1.366666666666667,2025-04-22T09:54:17.825+03:00,0.02225348692287972,0
2025-04-22T12:25:59.949+03:00,1745313958.242182,40.95219108736872,29.14026335014715,76.62879,-1,-1,-1,-1,30,21.38793351532817,-9999,30240.394529875,-0.612640380859375,0.49627685546875,-0.371917724609375,30240.384453875,-0.785627443059407,-1.102970729715182,-0.7009949214558678,-1.017168045043945,-0.3633839786052704,0.6869168877601624,0.05165600776672363,-0.07333844900131226,0.05297249555587769,XArbitraryZVertical,-0.4585549468325821,-0.3426667185622837,-0.1400125538204394,0.8079005755334911,-0.6820881962776184,0.6449783444404602,-0.3446137607097626,0,0,0,-1,-1,30235.1360655,unknown,2,2025-04-22T12:25:44.559+03:00,2025-04-21T17:08:51.449+03:00,7274,0.979095,0,0,6062.87,5,20,2025-04-22T12:23:51.056+03:00,767006736.9230493,0,-20.46,100.4482,1,0.85,2025-04-22T12:25:30.239+03:00,82,1.366666666666667,2025-04-22T09:54:17.825+03:00,0.02225348692287972,0
2025-04-22T12:25:59.959+03:00,1745313958.242182,40.95219108736872,29.14026335014715,76.62879,-1,-1,-1,-1,30,21.38793351532817,-9999,30240.404606875,-0.592987060546875,0.4845428466796875,-0.4129486083984375,30240.394529875,-0.7937824902534075,-1.111865362817198,-0.7123843769605981,-1.085770726203918,-0.3541361689567566,0.7850930094718933,0.05273324251174927,-0.1220851540565491,0.004583984613418579,XArbitraryZVertical,-0.4643646968070613,-0.3416677268167136,-0.1380111629222415,0.8053455212450806,-0.6784961819648743,0.6536401510238647,-0.3352571725845337,0,0,0,-1,-1,30235.1360655,unknown,2,2025-04-22T12:25:44.559+03:00,2025-04-21T17:08:51.449+03:00,7274,0.979095,0,0,6062.87,5,20,2025-04-22T12:23:51.056+03:00,767006736.9230493,0,-20.46,100.4482,1,0.85,2025-04-22T12:25:30.239+03:00,82,1.366666666666667,2025-04-22T09:54:17.825+03:00,0.02225348692287972,0
2025-04-22T12:25:59.970+03:00,1745313958.242182,40.95219108736872,29.14026335014715,76.62879,-1,-1,-1,-1,30,21.38793351532817,-9999,30240.414682875,-0.5887603759765625,0.5019073486328125,-0.404266357421875,30240.404606875,-0.8022504883651757,-1.120993896785205,-0.724818006643325,-1.128486037254333,-0.3533406853675842,0.8748735785484314,0.06449210643768311,-0.1701709628105164,-0.05298829078674316,XArbitraryZVertical,-0.4705320881033086,-0.3403736085618763,-0.1357210260067699,0.8026986252563705,-0.6741570234298706,0.6629992127418518,-0.3254907131195068,0,0,0,-1,-1,30235.1360655,unknown,2,2025-04-22T12:25:44.559+03:00,2025-04-21T17:08:51.449+03:00,7274,0.979095,0,0,6062.87,5,20,2025-04-22T12:23:51.056+03:00,767006736.9230493,0,-20.46,100.4482,1,0.85,2025-04-22T12:25:30.239+03:00,82,1.366666666666667,2025-04-22T09:54:17.825+03:00,0.02225348692287972,0
2025-04-22T12:25:59.979+03:00,1745313958.242182,40.95219108736872,29.14026335014715,76.62879,-1,-1,-1,-1,30,21.38793351532817,-9999,30240.424759875,-0.5855560302734375,0.5582733154296875,-0.3851470947265625,30240.414682875,-0.810867890747843,-1.130411389613213,-0.738059882063647,-1.139300584793091,-0.373978316783905,0.9445203542709351,0.07747095823287964,-0.1870599985122681,-0.09943783283233643,XArbitraryZVertical,-0.4769423917532964,-0.3388914321652133,-0.1331225307159389,0.7999730269018825,-0.6691915392875671,0.672853946685791,-0.315357118844986,0,0,0,-1,-1,30235.1360655,unknown,2,2025-04-22T12:25:44.559+03:00,2025-04-21T17:08:51.449+03:00,7274,0.979095,0,0,6062.87,5,20,2025-04-22T12:23:51.056+03:00,767006736.9230493,0,-20.46,100.4482,1,0.85,2025-04-22T12:25:30.239+03:00,82,1.366666666666667,2025-04-22T09:54:17.825+03:00,0.02225348692287972,0
2025-04-22T12:25:59.990+03:00,1745313958.242182,40.95219108736872,29.14026335014715,76.62879,-1,-1,-1,-1,30,21.38793351532817,-9999,30240.434836875,-0.5781402587890625,0.609283447265625,-0.4133453369140625,30240.424759875,-0.819023959916227,-1.139890089889305,-0.7516127417517943,-1.077404618263245,-0.4150071740150452,0.994482696056366,0.07585203647613525,-0.1761957406997681,-0.09493798017501831,XArbitraryZVertical,-0.4833064509325096,-0.3373922231216943,-0.1301645174216965,0.7972694018182335,-0.6638036966323853,0.6828178763389587,-0.3051627278327942,0,0,0,-1,-1,30235.1360655,unknown,2,2025-04-22T12:25:44.559+03:00,2025-04-21T17:08:51.449+03:00,7274,0.979095,0,0,6062.87,5,20,2025-04-22T12:23:51.056+03:00,767006736.9230493,0,-20.46,100.4482,1,0.85,2025-04-22T12:25:30.239+03:00,82,1.366666666666667,2025-04-22T09:54:17.825+03:00,0.02225348692287972,0
2025-04-22T12:26:00.000+03:00,1745313958.242182,40.95219108736872,29.14026335014715,76.62879,-1,-1,-1,-1,30,21.38793351532817,-9999,30240.444912875,-0.5670623779296875,0.6170501708984375,-0.4500885009765625,30240.434836875,-0.8264834581363621,-1.149509967371871,-0.7654584205142588,-1.039356231689453,-0.4777914583683014,1.060002088546753,0.07333117723464966,-0.1266751885414124,-0.09082803130149841,XArbitraryZVertical,-0.4895799514412391,-0.3359721617600144,-0.1267393259022625,0.7945886985071413,-0.6580174565315247,0.692867636680603,-0.2948683500289917,0,0,0,-1,-1,30235.1360655,unknown,2,2025-04-22T12:25:44.559+03:00,2025-04-21T17:08:51.449+03:00,7274,0.979095,0,0,6062.87,5,20,2025-04-22T12:23:51.056+03:00,767006736.9230493,0,-20.46,100.4482,1,0.85,2025-04-22T12:25:30.239+03:00,82,1.366666666666667,2025-04-22T09:54:17.825+03:00,0.02225348692287972,0
2025-04-22T12:26:00.010+03:00,1745313958.242182,40.95219108736872,29.14026335014715,76.62879,-1,-1,-1,-1,30,21.38793351532817,-9999,30240.454989875,-0.5540008544921875,0.594024658203125,-0.4680938720703125,30240.444912875,-0.8332571409349572,-1.159543418378856,-0.7797220053745132,-0.9888233542442322,-0.5791828036308289,1.142760396003723,0.0746382474899292,-0.09103661775588989,-0.1341397166252136,XArbitraryZVertical,-0.495816383568238,-0.3347093224759745,-0.122747156460368,0.7918768147427124,-0.6518172025680542,0.7030817866325378,-0.2842715680599213,0,0,0,-1,-1,30235.1360655,unknown,2,2025-04-22T12:25:44.559+03:00,2025-04-21T17:08:51.449+03:00,7274,0.979095,0,0,6062.87,5,20,2025-04-22T12:23:51.056+03:00,767006736.9230493,0,-20.46,100.4482,1,0.85,2025-04-22T12:25:30.239+03:00,82,1.366666666666667,2025-04-22T09:54:17.825+03:00,0.02225348692287972,0
2025-04-22T12:26:00.020+03:00,1745313958.242182,40.95219108736872,29.14026335014715,76.62879,-1,-1,-1,-1,30,21.38793351532817,-9999,30240.465065875,-0.5596466064453125,0.580718994140625,-0.475860595703125,30240.454989875,-0.8395546223348392,-1.170531026534647,-0.7947161718661551,-1.010147333145142,-0.7168908715248108,1.242107748985291,0.07991832494735718,-0.0990409255027771,-0.1803696155548096,XArbitraryZVertical,-0.502171351807868,-0.3336870390735268,-0.1180388211288404,0.7890144093735125,-0.6451191902160645,0.7136648297309875,-0.2729537785053253,0,0,0,-1,-1,30235.1360655,unknown,2,2025-04-22T12:25:44.559+03:00,2025-04-21T17:08:51.449+03:00,7274,0.979095,0,0,6062.87,5,20,2025-04-22T12:23:51.056+03:00,767006736.9230493,0,-20.46,100.4482,1,0.85,2025-04-22T12:25:30.239+03:00,82,1.366666666666667,2025-04-22T09:54:17.825+03:00,0.02225348692287972,0
2025-04-22T12:26:00.030+03:00,1745313958.242182,40.95219108736872,29.14026335014715,76.62879,-1,-1,-1,-1,30,21.38793351532817,-9999,30240.475141875,-0.5884552001953125,0.5797882080078125,-0.4598236083984375,30240.465065875,-0.8468117551756759,-1.18360239902659,-0.8109453749399435,-1.163653135299683,-0.834001362323761,1.347738862037659,0.08438575267791748,-0.1326383948326111,-0.2096974849700928,XArbitraryZVertical,-0.509083397165253,-0.3328498734424201,-0.112728420884347,0.7857081677155102,-0.6378220915794373,0.724938690662384,-0.2600901126861572,0,0,0,-1,-1,30235.1360655,unknown,2,2025-04-22T12:25:44.559+03:00,2025-04-21T17:08:51.449+03:00,7274,0.979095,0,0,6062.87,5,20,2025-04-22T12:23:51.056+03:00,767006736.9230493,0,-20.46,100.4482,1,0.85,2025-04-22T12:25:30.239+03:00,82,1.366666666666667,2025-04-22T09:54:17.825+03:00,0.02225348692287972,0
2025-04-22T12:26:00.040+03:00,1745313958.242182,40.95219108736872,29.14026335014715,76.62879,-1,-1,-1,-1,30,21.38793351532817,-9999,30240.485218875,-0.6077423095703125,0.601806640625,-0.420806884765625,30240.475141875,-0.856709319118669,-1.199651820481614,-0.8287802413934785,-1.392999172210693,-0.913047730922699,1.441949605941772,0.06663811206817627,-0.1569532752037048,-0.2307078540325165,XArbitraryZVertical,-0.516951279507888,-0.3319871974400283,-0.1070950132309737,0.7817138824188008,-0.6297637820243835,0.7371076345443726,-0.2450917512178421,0,0,0,-1,-1,30235.1360655,unknown,2,2025-04-22T12:25:44.559+03:00,2025-04-21T17:08:51.449+03:00,7274,0.979095,0,0,6062.87,5,20,2025-04-22T12:23:51.056+03:00,767006736.9230493,0,-20.46,100.4482,1,0.85,2025-04-22T12:25:30.239+03:00,82,1.366666666666667,2025-04-22T09:54:17.825+03:00,0.02225348692287972,0
2025-04-22T12:26:00.050+03:00,1745313958.242182,40.95219108736872,29.14026335014715,76.62879,-1,-1,-1,-1,30,21.38793351532817,-9999,30240.495294875,-0.6077728271484375,0.6299896240234375,-0.356475830078125,30240.485218875,-0.8700114702411397,-1.219046735443432,-0.848127837616846,-1.606329321861267,-0.9684990644454956,1.526028513908386,0.02962964773178101,-0.1698281764984131,-0.2283777594566345,XArbitraryZVertical,-0.5258326076527098,-0.3310021440704892,-0.1013042586648863,0.7769652693448876,-0.6208925247192383,0.750043511390686,-0.227875292301178,0,0,0,-1,-1,30235.1360655,unknown,2,2025-04-22T12:25:44.559+03:00,2025-04-21T17:08:51.449+03:00,7274,0.979095,0,0,6062.87,5,20,2025-04-22T12:23:51.056+03:00,767006736.9230493,0,-20.46,100.4482,1,0.85,2025-04-22T12:25:30.239+03:00,82,1.366666666666667,2025-04-22T09:54:17.825+03:00,0.02225348692287972,0
2025-04-22T12:26:00.060+03:00,1745313958.242182,40.95219108736872,29.14026335014715,76.62879,-1,-1,-1,-1,30,21.38793351532817,-9999,30240.505371875,-0.6007843017578125,0.6644134521484375,-0.266448974609375,30240.495294875,-0.8863439702183066,-1.241372985092334,-0.8686522791561176,-1.736382484436035,-1.008767604827881,1.604875087738037,0.003171682357788086,-0.1584025621414185,-0.2049924731254578,XArbitraryZVertical,-0.5354793750606061,-0.3298415782788469,-0.09534673091264462,0.7716056564155019,-0.6111276745796204,0.7634592056274414,-0.2089327424764633,0,0,0,-1,-1,30235.1360655,unknown,2,2025-04-22T12:25:44.559+03:00,2025-04-21T17:08:51.449+03:00,7274,0.979095,0,0,6062.87,5,20,2025-04-22T12:23:51.056+03:00,767006736.9230493,0,-20.46,100.4482,1,0.85,2025-04-22T12:25:30.239+03:00,82,1.366666666666667,2025-04-22T09:54:17.825+03:00,0.02225348692287972,0
2025-04-22T12:26:00.070+03:00,1745313958.242182,40.95219108736872,29.14026335014715,76.62879,-1,-1,-1,-1,30,21.38793351532817,-9999,30240.515447875,-0.599395751953125,0.7132415771484375,-0.196990966796875,30240.505371875,-0.9044219256244151,-1.265538927562515,-0.8897895422662837,-1.733826279640198,-1.018941640853882,1.667063117027283,-0.006738364696502686,-0.1434860229492188,-0.1565218567848206,XArbitraryZVertical,-0.5454104801996246,-0.3285141119145069,-0.08913187827007645,0.7659381838889845,-0.6004699468612671,0.7769392728805542,-0.1892117708921432,0,0,0,-1,-1,30235.1360655,unknown,2,2025-04-22T12:25:44.559+03:00,2025-04-21T17:08:51.449+03:00,7274,0.979095,0,0,6062.87,5,20,2025-04-22T12:23:51.056+03:00,767006736.9230493,0,-20.46,100.4482,1,0.85,2025-04-22T12:25:30.239+03:00,82,1.366666666666667,2025-04-22T09:54:17.825+03:00,0.02225348692287972,0
2025-04-22T12:26:00.080+03:00,1745313958.242182,40.95219108736872,29.14026335014715,76.62879,-1,-1,-1,-1,30,21.38793351532817,-9999,30240.525524875,-0.59588623046875,0.7628173828125,-0.1734161376953125,30240.515447875,-0.922614955120973,-1.290068584697942,-0.9108759809681729,-1.602833151817322,-1.017264127731323,1.684583783149719,-0.01186633110046387,-0.1204245090484619,-0.08449918031692505,XArbitraryZVertical,-0.5550784067139896,-0.327052204196903,-0.08262024863407683,0.760328022988812,-0.5890553593635559,0.7900410890579224,-0.1698496341705322,0,0,0,-1,-1,30235.1360655,unknown,2,2025-04-22T12:25:44.559+03:00,2025-04-21T17:08:51.449+03:00,7274,0.979095,0,0,6062.87,5,20,2025-04-22T12:23:51.056+03:00,767006736.9230493,0,-20.46,100.4482,1,0.85,2025-04-22T12:25:30.239+03:00,82,1.366666666666667,2025-04-22T09:54:17.825+03:00,0.02225348692287972,0
2025-04-22T12:26:00.090+03:00,1745313958.242182,40.95219108736872,29.14026335014715,76.62879,-1,-1,-1,-1,30,21.38793351532817,-9999,30240.535600875,-0.581146240234375,0.784698486328125,-0.1566162109375,30240.525524875,-0.9390993739612739,-1.313508310724167,-0.93138151461269,-1.389375686645508,-1.038605332374573,1.712937712669373,-0.02199149131774902,-0.08229142427444458,-0.03989982604980469,XArbitraryZVertical,-0.5639862678912501,-0.3255739849118796,-0.07570773832829336,0.7551088391937381,-0.5770838260650635,0.802445113658905,-0.1518421471118927,0,0,0,-1,-1,30235.1360655,unknown,2,2025-04-22T12:25:44.559+03:00,2025-04-21T17:08:51.449+03:00,7274,0.979095,0,0,6062.87,5,20,2025-04-22T12:23:51.056+03:00,767006736.9230493,0,-20.46,100.4482,1,0.85,2025-04-22T12:25:30.239+03:00,82,1.366666666666667,2025-04-22T09:54:17.825+03:00,0.02225348692287972,0
2025-04-22T12:26:00.100+03:00,1745313958.242182,40.95219108736872,29.14026335014715,76.62879,-1,-1,-1,-1,30,21.38793351532817,-9999,30240.545677875,-0.5492095947265625,0.810943603515625,-0.14263916015625,30240.535600875,-0.9535350817289913,-1.335888404835987,-0.9513497395396794,-1.220084428787231,-1.091066956520081,1.711972236633301,-0.03034675121307373,-0.04704916477203369,-0.03616213798522949,XArbitraryZVertical,-0.5721142553800225,-0.3242202214889092,-0.06828576893669885,0.7502689632910597,-0.5646392703056335,0.8141998648643494,-0.1351330578327179,0,0,0,-1,-1,30235.1360655,unknown,2,2025-04-22T12:25:44.559+03:00,2025-04-21T17:08:51.449+03:00,7274,0.979095,0,0,6062.87,5,20,2025-04-22T12:23:51.056+03:00,767006736.9230493,0,-20.46,100.4482,1,0.85,2025-04-22T12:25:30.239+03:00,82,1.366666666666667,2025-04-22T09:54:17.825+03:00,0.02225348692287972,0
2025-04-22T12:26:00.110+03:00,1745313958.242182,40.95219108736872,29.14026335014715,76.62879,-1,-1,-1,-1,30,21.38793351532817,-9999,30240.555753875,-0.5215606689453125,0.8653411865234375,-0.107635498046875,30240.545677875,-0.9668744909775614,-1.358065605695624,-0.9705733156451379,-1.117778062820435,-1.1406569480896,1.667470335960388,-0.0261378288269043,-0.0380699634552002,-0.03518252819776535,XArbitraryZVertical,-0.5796170882341298,-0.3231380296059091,-0.06056949868468497,0.7456252647516368,-0.5520939826965332,0.8252096772193909,-0.1192516908049583,0,0,0,-1,-1,30235.1360655,unknown,2,2025-04-22T12:25:44.559+03:00,2025-04-21T17:08:51.449+03:00,7274,0.979095,0,0,6062.87,5,20,2025-04-22T12:23:51.056+03:00,767006736.9230493,0,-20.46,100.4482,1,0.85,2025-04-22T12:25:30.239+03:00,82,1.366666666666667,2025-04-22T09:54:17.825+03:00,0.02225348692287972,0
2025-04-22T12:26:00.120+03:00,1745313958.242182,40.95219108736872,29.14026335014715,76.62879,-1,-1,-1,-1,30,21.38793351532817,-9999,30240.565830875,-0.501739501953125,0.9394989013671875,-0.0045318603515625,30240.555753875,-0.9801935211647759,-1.380792163413766,-0.9887307933605841,-1.048334240913391,-1.175230383872986,1.562301754951477,-0.004744946956634521,-0.01898396015167236,-0.03652290999889374,XArbitraryZVertical,-0.5866324160431555,-0.3224107410720986,-0.05286739809095577,0.7410253122908307,-0.539856493473053,0.8353288769721985,-0.1038274466991425,0,0,0,-1,-1,30235.1360655,unknown,2,2025-04-22T12:25:44.559+03:00,2025-04-21T17:08:51.449+03:00,7274,0.979095,0,0,6062.87,5,20,2025-04-22T12:23:51.056+03:00,767006736.9230493,0,-20.46,100.4482,1,0.85,2025-04-22T12:25:30.239+03:00,82,1.366666666666667,2025-04-22T09:54:17.825+03:00,0.02225348692287972,0
2025-04-22T12:26:00.130+03:00,1745313958.242182,40.95219108736872,29.14026335014715,76.62879,-1,-1,-1,-1,30,21.38793351532817,-9999,30240.575906875,-0.4877166748046875,1.00286865234375,0.150970458984375,30240.565830875,-0.9940341393348033,-1.404294008561013,-1.005280534410949,-0.9993754625320435,-1.175881505012512,1.398845553398132,0.009870767593383789,0.03019922971725464,-0.009274721145629883,XArbitraryZVertical,-0.5931492531048901,-0.3221328254276866,-0.04550473994837065,0.7364330824107783,-0.5284407734870911,0.844312310218811,-0.0888088122010231,0,0,0,-1,-1,30235.1360655,unknown,2,2025-04-22T12:25:44.559+03:00,2025-04-21T17:08:51.449+03:00,7274,0.979095,0,0,6062.87,5,20,2025-04-22T12:23:51.056+03:00,767006736.9230493,0,-20.46,100.4482,1,0.85,2025-04-22T12:25:30.239+03:00,82,1.366666666666667,2025-04-22T09:54:17.825+03:00,0.02225348692287972,0
2025-04-22T12:26:00.140+03:00,1745313958.242182,40.95219108736872,29.14026335014715,76.62879,-1,-1,-1,-1,30,21.38793351532817,-9999,30240.585983875,-0.4748992919921875,1.062118530273438,0.3199920654296875,30240.575906875,-1.007616495941325,-1.427390717202814,-1.019767659506093,-0.8409538865089417,-1.114092230796814,1.219555735588074,0.01881492137908936,0.09572160243988037,0.08742862939834595,XArbitraryZVertical,-0.5989505908816702,-0.3222510552934635,-0.03871300130944085,0.7320612286297044,-0.5181893706321716,0.8519864082336426,-0.07482489198446274,0,0,0,-1,-1,30235.1360655,unknown,2,2025-04-22T12:25:44.559+03:00,2025-04-21T17:08:51.449+03:00,7274,0.979095,0,0,6062.87,5,20,2025-04-22T12:23:51.056+03:00,767006760.1327982,0,-20.7,100.4525,1,0.85,2025-04-22T12:25:30.239+03:00,82,1.366666666666667,2025-04-22T09:54:17.825+03:00,0.02225348692287972,0
2025-04-22T12:26:00.151+03:00,1745313958.242182,40.95219108736872,29.14026335014715,76.62879,-1,-1,-1,-1,30,21.38793351532817,-9999,30240.596059875,-0.472808837890625,1.114410400390625,0.4537200927734375,30240.585983875,-1.018809521379618,-1.447595250143239,-1.031894821501397,-0.6029980182647705,-0.9880476593971252,1.009726524353027,0.02308207750320435,0.1522859930992126,0.2361007928848267,XArbitraryZVertical,-0.6036417019290636,-0.3226199394859743,-0.03259658158942994,0.7283340025802483,-0.5093034505844116,0.858272910118103,-0.06306613981723785,0,0,0,-1,-1,30240.486486875,unknown,2,2025-04-22T12:26:00.036+03:00,2025-04-21T17:08:51.449+03:00,7274,0.979095,0,0,6062.87,5,20,2025-04-22T12:23:51.056+03:00,767006760.1327982,0,-20.7,100.4525,1,0.85,2025-04-22T12:25:30.239+03:00,82,1.366666666666667,2025-04-22T09:54:17.825+03:00,0.02225348692287972,0
2025-04-22T12:26:00.161+03:00,1745313958.242182,40.95219108736872,29.14026335014715,76.62879,-1,-1,-1,-1,30,21.38793351532817,-9999,30240.606136875,-0.4846649169921875,1.15252685546875,0.500885009765625,30240.596059875,-1.025412702409984,-1.462349833778716,-1.041380650240852,-0.2702858448028564,-0.8125474452972412,0.7802941799163818,0.02847516536712646,0.2060351371765137,0.3948865532875061,XArbitraryZVertical,-0.6068481362465518,-0.3231171113969089,-0.02728378723967496,0.7256626350336383,-0.5020622611045837,0.8631023168563843,-0.0546613447368145,0,0,0,-1,-1,30240.486486875,unknown,2,2025-04-22T12:26:00.036+03:00,2025-04-21T17:08:51.449+03:00,7274,0.979095,0,0,6062.87,5,20,2025-04-22T12:23:51.056+03:00,767006760.1327982,0,-20.7,100.4525,1,0.85,2025-04-22T12:25:30.239+03:00,82,1.366666666666667,2025-04-22T09:54:17.825+03:00,0.02225348692287972,0
2025-04-22T12:26:00.171+03:00,1745313958.242182,40.95219108736872,29.14026335014715,76.62879,-1,-1,-1,-1,30,21.38793351532817,-9999,30240.616213875,-0.492279052734375,1.15283203125,0.4751739501953125,30240.606136875,-1.026165805996168,-1.470363547410028,-1.048106572693557,0.04775097966194153,-0.6502645611763,0.537787914276123,0.02263671159744263,0.2533933520317078,0.5150645971298218,XArbitraryZVertical,-0.6084062448602126,-0.3237519389870387,-0.02281076022143283,0.7242279478645449,-0.4966968297958374,0.8664795756340027,-0.05005304515361786,0,0,0,-1,-1,30240.486486875,unknown,2,2025-04-22T12:26:00.036+03:00,2025-04-21T17:08:51.449+03:00,7274,0.979095,0,0,6062.87,5,20,2025-04-22T12:23:51.056+03:00,767006760.1327982,0,-20.7,100.4525,1,0.85,2025-04-22T12:25:30.239+03:00,82,1.366666666666667,2025-04-22T09:54:17.825+03:00,0.02225348692287972,0
