loggingTime(txt),locationTimestamp_since1970(s),locationLatitude(WGS84),locationLongitude(WGS84),locationAltitude(m),locationSpeed(m/s),locationSpeedAccuracy(m/s),locationCourse(°),locationCourseAccuracy(°),locationVerticalAccuracy(m),locationHorizontalAccuracy(m),locationFloor(Z),accelerometerTimestamp_sinceReboot(s),accelerometerAccelerationX(G),accelerometerAccelerationY(G),accelerometerAccelerationZ(G),motionTimestamp_sinceReboot(s),motionYaw(rad),motionRoll(rad),motionPitch(rad),motionRotationRateX(rad/s),motionRotationRateY(rad/s),motionRotationRateZ(rad/s),motionUserAccelerationX(G),motionUserAccelerationY(G),motionUserAccelerationZ(G),motionAttitudeReferenceFrame(txt),motionQuaternionX(R),motionQuaternionY(R),motionQuaternionZ(R),motionQuaternionW(R),motionGravityX(G),motionGravityY(G),motionGravityZ(G),motionMagneticFieldX(µT),motionMagneticFieldY(µT),motionMagneticFieldZ(µT),motionHeading(°),motionMagneticFieldCalibrationAccuracy(Z),activityTimestamp_sinceReboot(s),activity(txt),activityActivityConfidence(Z),activityActivityStartDate(txt),pedometerStartDate(txt),pedometerNumberofSteps(N),pedometerAverageActivePace(s/m),pedometerCurrentPace(s/m),pedometerCurrentCadence(steps/s),pedometerDistance(m),pedometerFloorAscended(N),pedometerFloorDescended(N),pedometerEndDate(txt),altimeterTimestamp_sinceReboot(s),altimeterReset(bool),altimeterRelativeAltitude(m),altimeterPressure(kPa),batteryState(N),batteryLevel(R),heartRateBPMTimestamp(txt),heartRateBPM(N),heartRateBPS(R),heartRateVariabilityTimestamp(txt),heartRateVariability(ms),label
2025-04-22T17:17:43.336+03:00,1745331459.217669,40.95219958186703,29.14026822168964,76.1451,-1,-1,-1,-1,30,18.38710864918669,-9999,39270.69101754167,-0.7772979736328125,0.439849853515625,-0.3459320068359375,39270.68094154167,-2.773829746353874,-1.134773710442796,-0.5152293622294249,-0.02181548066437244,-0.02778409421443939,0.008705440908670425,-0.0645221471786499,-0.002591699361801147,-0.009489476680755615,XArbitraryZVertical,0.5502192272245439,-0.1162067533639962,0.7766955253011429,-0.2837231981493472,-0.7887645363807678,0.4927344620227814,-0.3675095736980438,0,0,0,-1,-1,39266.84337537501,unknown,2,2025-04-22T17:17:39.459+03:00,2025-04-21T17:08:51.449+03:00,9030,1.057261,0,0,7531.346,7,22,2025-04-22T17:16:53.031+03:00,767024262.1388104,0,-10.57,100.3307,1,0.4,2025-04-22T17:17:39.158+03:00,85,1.416666666666667,2025-04-22T14:20:19.516+03:00,0.02197104130929222,0
2025-04-22T17:17:43.337+03:00,1745331459.217669,40.95219958186703,29.14026822168964,76.1451,-1,-1,-1,-1,30,18.38710864918669,-9999,39270.70109254167,-0.8095855712890625,0.5187225341796875,-0.361419677734375,39270.69101754167,-2.774005158504764,-1.134926541862878,-0.515435027407649,-0.01000063493847847,0.01219714432954788,0.01111400313675404,0.01053065061569214,-0.06491971015930176,0.02297043800354004,XArbitraryZVertical,0.5502698676557929,-0.1163183553937613,0.7766468344651914,-0.2837124626884049,-0.7887287735939026,0.4929133951663971,-0.3673462271690369,0,0,0,-1,-1,39266.84337537501,unknown,2,2025-04-22T17:17:39.459+03:00,2025-04-21T17:08:51.449+03:00,9030,1.057261,0,0,7531.346,7,22,2025-04-22T17:16:53.031+03:00,767024262.1388104,0,-10.57,100.3307,1,0.4,2025-04-22T17:17:39.158+03:00,85,1.416666666666667,2025-04-22T14:20:19.516+03:00,0.02197104130929222,0
2025-04-22T17:17:43.338+03:00,1745331459.217669,40.95219958186703,29.14026822168964,76.1451,-1,-1,-1,-1,30,18.38710864918669,-9999,39270.71116854167,-0.791015625,0.5299224853515625,-0.3609161376953125,39270.70109254167,-2.773869196740985,-1.134695229093878,-0.5154515856534104,0.02759521082043648,0.01552769355475903,0.003561544930562377,0.005097687244415283,-0.0437244176864624,0.01895326375961304,XArbitraryZVertical,0.5501880659997608,-0.1163206086009615,0.7766886580856357,-0.2837557146371804,-0.7886363863945007,0.4929278194904327,-0.3675252199172974,0,0,0,-1,-1,39266.84337537501,unknown,2,2025-04-22T17:17:39.459+03:00,2025-04-21T17:08:51.449+03:00,9030,1.057261,0,0,7531.346,7,22,2025-04-22T17:16:53.031+03:00,767024262.1388104,0,-10.57,100.3307,1,0.4,2025-04-22T17:17:39.158+03:00,85,1.416666666666667,2025-04-22T14:20:19.516+03:00,0.02197104130929222,0
2025-04-22T17:17:43.345+03:00,1745331459.217669,40.95219958186703,29.14026822168964,76.1451,-1,-1,-1,-1,30,18.38710864918669,-9999,39270.72124454167,-0.7820281982421875,0.491851806640625,-0.35284423828125,39270.71116854167,-2.773514717154597,-1.134464025686553,-0.5153326354307594,0.03009898215532303,-0.000584297813475132,0.002457731170579791,-0.02070629596710205,0.03259670734405518,0.005610555410385132,XArbitraryZVertical,0.550118029805955,-0.1162067466312255,0.7767201110796954,-0.2838518833709933,-0.7886044383049011,0.4928243160247803,-0.3677322864532471,0,0,0,-1,-1,39266.84337537501,unknown,2,2025-04-22T17:17:39.459+03:00,2025-04-21T17:08:51.449+03:00,9030,1.057261,0,0,7531.346,7,22,2025-04-22T17:16:53.031+03:00,767024262.1388104,0,-10.57,100.3307,1,0.4,2025-04-22T17:17:39.158+03:00,85,1.416666666666667,2025-04-22T14:20:19.516+03:00,0.02197104130929222,0
2025-04-22T17:17:43.357+03:00,1745331459.217669,40.95219958186703,29.14026822168964,76.1451,-1,-1,-1,-1,30,18.38710864918669,-9999,39270.73131954167,-0.7867889404296875,0.4763641357421875,-0.348602294921875,39270.72124454167,-2.773325673145362,-1.134405353439339,-0.5152825786072095,0.005090034566819668,0.002103364560753107,0.006712397094815969,4.64320182800293e-05,0.03273186087608337,0.006994783878326416,XArbitraryZVertical,0.5501058513453965,-0.1161423748203747,0.7767171221141596,-0.2839100988088334,-0.788605272769928,0.4927807450294495,-0.3677890002727509,0,0,0,-1,-1,39266.84337537501,unknown,2,2025-04-22T17:17:39.459+03:00,2025-04-21T17:08:51.449+03:00,9030,1.057261,0,0,7531.346,7,22,2025-04-22T17:16:53.031+03:00,767024262.1388104,0,-10.57,100.3307,1,0.4,2025-04-22T17:17:39.158+03:00,85,1.416666666666667,2025-04-22T14:20:19.516+03:00,0.02197104130929222,0
2025-04-22T17:17:43.361+03:00,1745331459.217669,40.95219958186703,29.14026822168964,76.1451,-1,-1,-1,-1,30,18.38710864918669,-9999,39270.74139554167,-0.78802490234375,0.4870758056640625,-0.35675048828125,39270.73131954167,-2.773326064767531,-1.134352873378945,-0.5153405426910969,-0.00819834042340517,0.004189684987068176,0.007806557230651379,0.006013214588165283,-0.004641592502593994,0.01534008979797363,XArbitraryZVertical,0.5500858746279225,-0.1161738963774865,0.7767227318853116,-0.2839205607412871,-0.7885600924491882,0.4928312003612518,-0.3678183257579803,0,0,0,-1,-1,39266.84337537501,unknown,2,2025-04-22T17:17:39.459+03:00,2025-04-21T17:08:51.449+03:00,9030,1.057261,0,0,7531.346,7,22,2025-04-22T17:16:53.031+03:00,767024262.1388104,0,-10.57,100.3307,1,0.4,2025-04-22T17:17:39.158+03:00,85,1.416666666666667,2025-04-22T14:20:19.516+03:00,0.02197104130929222,0
2025-04-22T17:17:43.371+03:00,1745331459.217669,40.95219958186703,29.14026822168964,76.1451,-1,-1,-1,-1,30,18.38710864918669,-9999,39270.75147154167,-0.7818145751953125,0.500244140625,-0.3654022216796875,39270.74139554167,-2.773348985257293,-1.134312985808196,-0.5154574864007562,-0.002666155574843287,-0.003328684717416763,0.003468800336122513,0.0005599856376647949,-0.01638579368591309,0.01847520470619202,XArbitraryZVertical,0.5500699245760468,-0.1162342263692702,0.776718962275579,-0.283936891689694,-0.7884930968284607,0.4929329454898834,-0.3678253591060638,0,0,0,-1,-1,39266.84337537501,unknown,2,2025-04-22T17:17:39.459+03:00,2025-04-21T17:08:51.449+03:00,9030,1.057261,0,0,7531.346,7,22,2025-04-22T17:16:53.031+03:00,767024262.1388104,0,-10.57,100.3307,1,0.4,2025-04-22T17:17:39.158+03:00,85,1.416666666666667,2025-04-22T14:20:19.516+03:00,0.02197104130929222,0
2025-04-22T17:17:43.381+03:00,1745331459.217669,40.95219958186703,29.14026822168964,76.1451,-1,-1,-1,-1,30,18.38710864918669,-9999,39270.76154754167,-0.7821502685546875,0.49835205078125,-0.3652191162109375,39270.75147154167,-2.773281318658499,-1.134342691268221,-0.5155223576683456,0.007597733289003372,-0.007727894466370344,0.005598164163529873,0.0004655718803405762,-0.004693001508712769,0.00980183482170105,XArbitraryZVertical,0.5500858671256519,-0.1162382132896273,0.7766912644466931,-0.2839801882343732,-0.7884750962257385,0.4929893910884857,-0.3677884340286255,0,0,0,-1,-1,39266.84337537501,unknown,2,2025-04-22T17:17:39.459+03:00,2025-04-21T17:08:51.449+03:00,9030,1.057261,0,0,7531.346,7,22,2025-04-22T17:16:53.031+03:00,767024262.1388104,0,-10.57,100.3307,1,0.4,2025-04-22T17:17:39.158+03:00,85,1.416666666666667,2025-04-22T14:20:19.516+03:00,0.02197104130929222,0
2025-04-22T17:17:43.394+03:00,1745331459.217669,40.95219958186703,29.14026822168964,76.1451,-1,-1,-1,-1,30,18.38710864918669,-9999,39270.77162254167,-0.7861480712890625,0.491912841796875,-0.3628387451171875,39270.76154754167,-2.773104209088275,-1.134337995974757,-0.5155131731754198,0.02085415087640285,-0.003410111647099257,0.01028106641024351,0.007731139659881592,0.007293164730072021,0.001964390277862549,XArbitraryZVertical,0.5500942610091827,-0.1161863618278779,0.7766688524537054,-0.2840465358119453,-0.7884774804115295,0.4929814040660858,-0.3677940666675568,0,0,0,-1,-1,39266.84337537501,unknown,2,2025-04-22T17:17:39.459+03:00,2025-04-21T17:08:51.449+03:00,9030,1.057261,0,0,7531.346,7,22,2025-04-22T17:16:53.031+03:00,767024262.1388104,0,-10.57,100.3307,1,0.4,2025-04-22T17:17:39.158+03:00,85,1.416666666666667,2025-04-22T14:20:19.516+03:00,0.02197104130929222,0
2025-04-22T17:17:43.401+03:00,1745331459.217669,40.95219958186703,29.14026822168964,76.1451,-1,-1,-1,-1,30,18.38710864918669,-9999,39270.78169854167,-0.78765869140625,0.493438720703125,-0.3612823486328125,39270.77162254167,-2.77278399109681,-1.134180603057047,-0.5154632607897888,0.02952014282345772,0.002745585748925805,0.01025553420186043,0.005895018577575684,0.003720283508300781,0.002999186515808105,XArbitraryZVertical,0.5500513599604896,-0.1161000067182128,0.7766743327422682,-0.2841499911825965,-0.7884418964385986,0.4929379820823669,-0.3679285943508148,0,0,0,-1,-1,39266.84337537501,unknown,2,2025-04-22T17:17:39.459+03:00,2025-04-21T17:08:51.449+03:00,9030,1.057261,0,0,7531.346,7,22,2025-04-22T17:16:53.031+03:00,767024262.1388104,0,-10.57,100.3307,1,0.4,2025-04-22T17:17:39.158+03:00,85,1.416666666666667,2025-04-22T14:20:19.516+03:00,0.02197104130929222,0
2025-04-22T17:17:43.412+03:00,1745331459.217669,40.95219958186703,29.14026822168964,76.1451,-1,-1,-1,-1,30,18.38710864918669,-9999,39270.79177454167,-0.78619384765625,0.49298095703125,-0.3592529296875,39270.78169854167,-2.772413022903247,-1.133968665508044,-0.5153734292487302,0.03275881335139275,0.001327452715486288,0.006124704144895077,0.002439260482788086,-0.001999914646148682,0.005382299423217773,XArbitraryZVertical,0.5499898946491066,-0.1159909499843429,0.7766937339935164,-0.2842606040408021,-0.788404107093811,0.492859810590744,-0.3681144416332245,0,0,0,-1,-1,39266.84337537501,unknown,2,2025-04-22T17:17:39.459+03:00,2025-04-21T17:08:51.449+03:00,9030,1.057261,0,0,7531.346,7,22,2025-04-22T17:16:53.031+03:00,767024262.1388104,0,-10.57,100.3307,1,0.4,2025-04-22T17:17:39.158+03:00,85,1.416666666666667,2025-04-22T14:20:19.516+03:00,0.02197104130929222,0
2025-04-22T17:17:43.422+03:00,1745331459.217669,40.95219958186703,29.14026822168964,76.1451,-1,-1,-1,-1,30,18.38710864918669,-9999,39270.80184954167,-0.7883453369140625,0.485809326171875,-0.353546142578125,39270.79177454167,-2.772064126723443,-1.133769842862773,-0.5152940326273449,0.02825607359409332,0.004996889270842075,0.006974452640861273,0.001150190830230713,0.0004495084285736084,0.006761044263839722,XArbitraryZVertical,0.5499323233622497,-0.115890473654076,0.7767108422854622,-0.2843658520337257,-0.7883661985397339,0.4927907288074493,-0.3682876825332642,0,0,0,-1,-1,39266.84337537501,unknown,2,2025-04-22T17:17:39.459+03:00,2025-04-21T17:08:51.449+03:00,9030,1.057261,0,0,7531.346,7,22,2025-04-22T17:16:53.031+03:00,767024262.1388104,0,-10.57,100.3307,1,0.4,2025-04-22T17:17:39.158+03:00,85,1.416666666666667,2025-04-22T14:20:19.516+03:00,0.02197104130929222,0
2025-04-22T17:17:43.432+03:00,1745331459.217669,40.95219958186703,29.14026822168964,76.1451,-1,-1,-1,-1,30,18.38710864918669,-9999,39270.81192554167,-0.793060302734375,0.483642578125,-0.35321044921875,39270.80184954167,-2.771793764066388,-1.133563334811744,-0.5152802972231282,0.01432987116277218,0.008503207005560398,0.008945191279053688,0.001797378063201904,-0.0007287263870239258,0.01058879494667053,XArbitraryZVertical,0.5498676851256311,-0.1158398302233503,0.7767312521218966,-0.2844556481769709,-0.7882962226867676,0.4927787780761719,-0.368453323841095,0,0,0,-1,-1,39266.84337537501,unknown,2,2025-04-22T17:17:39.459+03:00,2025-04-21T17:08:51.449+03:00,9030,1.057261,0,0,7531.346,7,22,2025-04-22T17:16:53.031+03:00,767024262.1388104,0,-10.57,100.3307,1,0.4,2025-04-22T17:17:39.158+03:00,85,1.416666666666667,2025-04-22T14:20:19.516+03:00,0.02197104130929222,0
2025-04-22T17:17:43.442+03:00,1745331459.217669,40.95219958186703,29.14026822168964,76.1451,-1,-1,-1,-1,30,18.38710864918669,-9999,39270.82200154167,-0.79168701171875,0.4831695556640625,-0.358001708984375,39270.81192554167,-2.77165771743917,-1.133420013502569,-0.5153123250257886,0.003347394987940788,0.008561130613088608,0.007760550826787949,-0.0008789300918579102,-0.007272124290466309,0.01533374190330505,XArbitraryZVertical,0.5498201561335543,-0.11583606376635,0.7767463642471119,-0.2845077185307694,-0.7882291078567505,0.4928066432476044,-0.3685595989227295,0,0,0,-1,-1,39266.84337537501,unknown,2,2025-04-22T17:17:39.459+03:00,2025-04-21T17:08:51.449+03:00,9030,1.057261,0,0,7531.346,7,22,2025-04-22T17:16:53.031+03:00,767024262.1388104,0,-10.57,100.3307,1,0.4,2025-04-22T17:17:39.158+03:00,85,1.416666666666667,2025-04-22T14:20:19.516+03:00,0.02197104130929222,0
2025-04-22T17:17:43.452+03:00,1745331459.217669,40.95219958186703,29.14026822168964,76.1451,-1,-1,-1,-1,30,18.38710864918669,-9999,39270.83207654167,-0.78802490234375,0.4892120361328125,-0.360931396484375,39270.82200154167,-2.771611206946061,-1.133344983181947,-0.5153807896926389,-0.0008449529414065182,0.002279532607644796,0.008629807271063328,-0.005056977272033691,-0.008903294801712036,0.01505821943283081,XArbitraryZVertical,0.549794217029557,-0.1158622296708877,0.7767500421356894,-0.2845375765774423,-0.7881710529327393,0.4928662180900574,-0.3686045110225677,0,0,0,-1,-1,39266.84337537501,unknown,2,2025-04-22T17:17:39.459+03:00,2025-04-21T17:08:51.449+03:00,9030,1.057261,0,0,7531.346,7,22,2025-04-22T17:16:53.031+03:00,767024262.1388104,0,-10.57,100.3307,1,0.4,2025-04-22T17:17:39.158+03:00,85,1.416666666666667,2025-04-22T14:20:19.516+03:00,0.02197104130929222,0
2025-04-22T17:17:43.462+03:00,1745331459.217669,40.95219958186703,29.14026822168964,76.1451,-1,-1,-1,-1,30,18.38710864918669,-9999,39270.84215212501,-0.786590576171875,0.493927001953125,-0.3634796142578125,39270.83207654167,-2.771561530423709,-1.133337690071179,-0.5154242117601602,0.006556238047778606,-0.002606302499771118,0.004615358076989651,-0.003370106220245361,-0.008742719888687134,0.01006525754928589,XArbitraryZVertical,0.5497946092560864,-0.1158675788155392,0.7767382645044955,-0.284566657879528,-0.7881489396095276,0.492904007434845,-0.3686011731624603,0,0,0,-1,-1,39266.84337537501,unknown,2,2025-04-22T17:17:39.459+03:00,2025-04-21T17:08:51.449+03:00,9030,1.057261,0,0,7531.346,7,22,2025-04-22T17:16:53.031+03:00,767024262.1388104,0,-10.57,100.3307,1,0.4,2025-04-22T17:17:39.158+03:00,85,1.416666666666667,2025-04-22T14:20:19.516+03:00,0.02197104130929222,0
2025-04-22T17:17:43.472+03:00,1745331459.217669,40.95219958186703,29.14026822168964,76.1451,-1,-1,-1,-1,30,18.38710864918669,-9999,39270.852228125,-0.7864227294921875,0.4931640625,-0.36456298828125,39270.84215212501,-2.771474531466504,-1.133336276684131,-0.5154656980737151,0.007865980267524719,-0.00737043097615242,0.003522929036989808,1.353025436401367e-05,-0.002568483352661133,0.007128030061721802,XArbitraryZVertical,0.5497994352477091,-0.1158610346019508,0.7767198371957961,-0.2846101153677079,-0.7881298065185547,0.4929400980472565,-0.3685936033725739,0,0,0,-1,-1,39266.84337537501,unknown,2,2025-04-22T17:17:39.459+03:00,2025-04-21T17:08:51.449+03:00,9030,1.057261,0,0,7531.346,7,22,2025-04-22T17:16:53.031+03:00,767024262.1388104,0,-10.57,100.3307,1,0.4,2025-04-22T17:17:39.158+03:00,85,1.416666666666667,2025-04-22T14:20:19.516+03:00,0.02197104130929222,0
2025-04-22T17:17:43.482+03:00,1745331459.217669,40.95219958186703,29.14026822168964,76.1451,-1,-1,-1,-1,30,18.38710864918669,-9999,39270.862304125,-0.7899169921875,0.491790771484375,-0.3657684326171875,39270.852228125,-2.771312419627013,-1.133366794177621,-0.5154778782988912,0.01962536759674549,-0.01634215377271175,0.005097090266644955,0.001987755298614502,0.001311928033828735,0.00548398494720459,XArbitraryZVertical,0.549820751155482,-0.1158171364345378,0.7766866369190993,-0.2846777260940667,-0.7881357669830322,0.4929506778717041,-0.3685670793056488,0,0,0,-1,-1,39266.84337537501,unknown,2,2025-04-22T17:17:39.459+03:00,2025-04-21T17:08:51.449+03:00,9030,1.057261,0,0,7531.346,7,22,2025-04-22T17:16:53.031+03:00,767024262.1388104,0,-10.57,100.3307,1,0.4,2025-04-22T17:17:39.158+03:00,85,1.416666666666667,2025-04-22T14:20:19.516+03:00,0.02197104130929222,0
2025-04-22T17:17:43.492+03:00,1745331459.217669,40.95219958186703,29.14026822168964,76.1451,-1,-1,-1,-1,30,18.38710864918669,-9999,39270.872379125,-0.7919464111328125,0.49517822265625,-0.36297607421875,39270.862304125,-2.771051716537708,-1.133383530762977,-0.5154335392139261,0.02694586478173733,-0.009648298844695091,0.006299773696810007,0.001327097415924072,-0.0003737509250640869,0.003420114517211914,XArbitraryZVertical,0.5498419911905172,-0.1157247450402419,0.7766517352985021,-0.2847695025769965,-0.7881616950035095,0.4929121136665344,-0.3685631453990936,0,0,0,-1,-1,39266.84337537501,unknown,2,2025-04-22T17:17:39.459+03:00,2025-04-21T17:08:51.449+03:00,9030,1.057261,0,0,7531.346,7,22,2025-04-22T17:16:53.031+03:00,767024262.1388104,0,-10.57,100.3307,1,0.4,2025-04-22T17:17:39.158+03:00,85,1.416666666666667,2025-04-22T14:20:19.516+03:00,0.02197104130929222,0
2025-04-22T17:17:43.502+03:00,1745331459.217669,40.95219958186703,29.14026822168964,76.1451,-1,-1,-1,-1,30,18.38710864918669,-9999,39270.882455125,-0.793426513671875,0.4922637939453125,-0.35491943359375,39270.872379125,-2.770693831631638,-1.133282065359765,-0.5153253410572849,0.04149477928876877,-0.002814295701682568,-0.0004477109177969396,-0.001484930515289307,-0.0003406405448913574,0.003339558839797974,XArbitraryZVertical,0.5498224493221194,-0.1155960923495925,0.7766451244221195,-0.2848771292023627,-0.7881724834442139,0.4928179681301117,-0.3686656355857849,0,0,0,-1,-1,39266.84337537501,unknown,2,2025-04-22T17:17:39.459+03:00,2025-04-21T17:08:51.449+03:00,9030,1.057261,0,0,7531.346,7,22,2025-04-22T17:16:53.031+03:00,767024262.1388104,0,-10.57,100.3307,1,0.4,2025-04-22T17:17:39.158+03:00,85,1.416666666666667,2025-04-22T14:20:19.516+03:00,0.02197104130929222,0
2025-04-22T17:17:43.512+03:00,1745331459.217669,40.95219958186703,29.14026822168964,76.1451,-1,-1,-1,-1,30,18.38710864918669,-9999,39270.89253112501,-0.7926177978515625,0.4912109375,-0.3500518798828125,39270.882455125,-2.770273738171804,-1.133109900164926,-0.5151380917195671,0.04232648387551308,0.0009815078228712082,-0.002250937279313803,-0.0040740966796875,0.003301262855529785,0.007283300161361694,XArbitraryZVertical,0.5497783443849847,-0.1154276947619538,0.7766613656349489,-0.2849862728013034,-0.7881925702095032,0.4926550388336182,-0.3688404262065887,0,0,0,-1,-1,39266.84337537501,unknown,2,2025-04-22T17:17:39.459+03:00,2025-04-21T17:08:51.449+03:00,9030,1.057261,0,0,7531.346,7,22,2025-04-22T17:16:53.031+03:00,767024262.1388104,0,-10.57,100.3307,1,0.4,2025-04-22T17:17:39.158+03:00,85,1.416666666666667,2025-04-22T14:20:19.516+03:00,0.02197104130929222,0
2025-04-22T17:17:43.522+03:00,1745331459.217669,40.95219958186703,29.14026822168964,76.1451,-1,-1,-1,-1,30,18.38710864918669,-9999,39270.902606125,-0.78936767578125,0.493133544921875,-0.35595703125,39270.89253112501,-2.769904803151717,-1.132928552704181,-0.5149331657549664,0.03393646329641342,0.005805558059364557,-0.004902380518615246,-0.004751503467559814,-0.0008081197738647461,0.01497629284858704,XArbitraryZVertical,0.549727527243614,-0.1152673814125033,0.7766900610072477,-0.2850708833408366,-0.7882170677185059,0.4924766719341278,-0.3690261542797089,0,0,0,-1,-1,39266.84337537501,unknown,2,2025-04-22T17:17:39.459+03:00,2025-04-21T17:08:51.449+03:00,9030,1.057261,0,0,7531.346,7,22,2025-04-22T17:16:53.031+03:00,767024262.1388104,0,-10.57,100.3307,1,0.4,2025-04-22T17:17:39.158+03:00,85,1.416666666666667,2025-04-22T14:20:19.516+03:00,0.02197104130929222,0
2025-04-22T17:17:43.532+03:00,1745331459.217669,40.95219958186703,29.14026822168964,76.1451,-1,-1,-1,-1,30,18.38710864918669,-9999,39270.912682125,-0.78948974609375,0.4845428466796875,-0.3589019775390625,39270.902606125,-2.769652828184705,-1.132792843299541,-0.5147314833063087,0.02138365246355534,0.003275022143498063,-0.005301321856677532,-0.003658771514892578,-0.000846177339553833,0.01788726449012756,XArbitraryZVertical,0.5496876598012783,-0.1151340438612028,0.7767224512968162,-0.2851135040220302,-0.7882569432258606,0.4923011362552643,-0.3691752552986145,0,0,0,-1,-1,39266.84337537501,unknown,2,2025-04-22T17:17:39.459+03:00,2025-04-21T17:08:51.449+03:00,9030,1.057261,0,0,7531.346,7,22,2025-04-22T17:16:53.031+03:00,767024262.1388104,0,-10.57,100.3307,1,0.4,2025-04-22T17:17:39.158+03:00,85,1.416666666666667,2025-04-22T14:20:19.516+03:00,0.02197104130929222,0
2025-04-22T17:17:43.543+03:00,1745331459.217669,40.95219958186703,29.14026822168964,76.1451,-1,-1,-1,-1,30,18.38710864918669,-9999,39270.922758125,-0.787200927734375,0.4771728515625,-0.3601837158203125,39270.912682125,-2.769535314976107,-1.132739459856533,-0.5146299651483183,0.008440557867288589,0.001521463971585035,6.824033334851265e-06,-0.001130819320678711,-0.0002084672451019287,0.01267099380493164,XArbitraryZVertical,0.5496728347336441,-0.1150673567352477,0.776736005310135,-0.2851322085184628,-0.788282573223114,0.4922127723693848,-0.369238555431366,0,0,0,-1,-1,39266.84337537501,unknown,2,2025-04-22T17:17:39.459+03:00,2025-04-21T17:08:51.449+03:00,9030,1.057261,0,0,7531.346,7,22,2025-04-22T17:16:53.031+03:00,767024262.1388104,0,-10.57,100.3307,1,0.4,2025-04-22T17:17:39.158+03:00,85,1.416666666666667,2025-04-22T14:20:19.516+03:00,0.02197104130929222,0
2025-04-22T17:17:43.553+03:00,1745331459.217669,40.95219958186703,29.14026822168964,76.1451,-1,-1,-1,-1,30,18.38710864918669,-9999,39270.932834125,-0.7845306396484375,0.481414794921875,-0.3623046875,39270.922758125,-2.769534809504737,-1.132727922052016,-0.5146353811787767,-0.004115447867661715,0.001255680341273546,0.002278500469401479,-0.0009848475456237793,-0.009063303470611572,0.01045116782188416,XArbitraryZVertical,0.5496684315262345,-0.1150711071872499,0.7767382518622576,-0.2851330110525105,-0.7882758378982544,0.492217481136322,-0.3692465126514435,0,0,0,-1,-1,39266.84337537501,unknown,2,2025-04-22T17:17:39.459+03:00,2025-04-21T17:08:51.449+03:00,9030,1.057261,0,0,7531.346,7,22,2025-04-22T17:16:53.031+03:00,767024262.1388104,0,-10.57,100.3307,1,0.4,2025-04-22T17:17:39.158+03:00,85,1.416666666666667,2025-04-22T14:20:19.516+03:00,0.02197104130929222,0
2025-04-22T17:17:43.563+03:00,1745331459.217669,40.95219958186703,29.14026822168964,76.1451,-1,-1,-1,-1,30,18.38710864918669,-9999,39270.94290912501,-0.781829833984375,0.4835052490234375,-0.365478515625,39270.932834125,-2.769608108891437,-1.132801550596143,-0.514700873730361,-0.009122323244810104,-0.007327022030949593,0.003916144836694002,0.001393496990203857,-0.01481181383132935,0.008853614330291748,XArbitraryZVertical,0.5496933449328096,-0.1151078311801337,0.7767184798268063,-0.2851241907675356,-0.7882739305496216,0.4922744929790497,-0.3691748380661011,0,0,0,-1,-1,39266.84337537501,unknown,2,2025-04-22T17:17:39.459+03:00,2025-04-21T17:08:51.449+03:00,9030,1.057261,0,0,7531.346,7,22,2025-04-22T17:16:53.031+03:00,767024262.1388104,0,-10.57,100.3307,1,0.4,2025-04-22T17:17:39.158+03:00,85,1.416666666666667,2025-04-22T14:20:19.516+03:00,0.02197104130929222,0
2025-04-22T17:17:43.573+03:00,1745331459.217669,40.95219958186703,29.14026822168964,76.1451,-1,-1,-1,-1,30,18.38710864918669,-9999,39270.952985125,-0.78326416015625,0.4876251220703125,-0.3686370849609375,39270.94290912501,-2.769704187128969,-1.132972926568444,-0.5147898840264499,-0.01528833992779255,-0.01129246782511473,0.005047988146543503,0.003766894340515137,-0.009869158267974854,0.006075441837310791,XArbitraryZVertical,0.5497551118655793,-0.1151466275691953,0.7766713848563214,-0.2851176711274403,-0.7882974743843079,0.4923519790172577,-0.3690211474895477,0,0,0,-1,-1,39266.84337537501,unknown,2,2025-04-22T17:17:39.459+03:00,2025-04-21T17:08:51.449+03:00,9030,1.057261,0,0,7531.346,7,22,2025-04-22T17:16:53.031+03:00,767024262.1388104,0,-10.57,100.3307,1,0.4,2025-04-22T17:17:39.158+03:00,85,1.416666666666667,2025-04-22T14:20:19.516+03:00,0.02197104130929222,0
2025-04-22T17:17:43.583+03:00,1745331459.217669,40.95219958186703,29.14026822168964,76.1451,-1,-1,-1,-1,30,18.38710864918669,-9999,39270.963061125,-0.7882232666015625,0.4936065673828125,-0.3710479736328125,39270.952985125,-2.76985734250276,-1.133164811282269,-0.5148912591597001,-0.0128935594111681,-0.008040416985750198,0.002461692551150918,0.006325483322143555,-0.008202612400054932,0.003385305404663086,XArbitraryZVertical,0.5498216415097731,-0.115203299408662,0.7766249196421515,-0.2850930918342735,-0.7883230447769165,0.4924402236938477,-0.3688487112522125,0,0,0,-1,-1,39266.84337537501,unknown,2,2025-04-22T17:17:39.459+03:00,2025-04-21T17:08:51.449+03:00,9030,1.057261,0,0,7531.346,7,22,2025-04-22T17:16:53.031+03:00,767024262.1388104,0,-10.57,100.3307,1,0.4,2025-04-22T17:17:39.158+03:00,85,1.416666666666667,2025-04-22T14:20:19.516+03:00,0.02197104130929222,0
2025-04-22T17:17:43.593+03:00,1745331459.217669,40.95219958186703,29.14026822168964,76.1451,-1,-1,-1,-1,30,18.38710864918669,-9999,39270.973136125,-0.792572021484375,0.49658203125,-0.3693084716796875,39270.963061125,-2.769979320904635,-1.133311854285858,-0.5149862172285029,-0.007296926807612181,-0.004095742013305426,0.003885685000568628,0.005009829998016357,-0.004501104354858398,0.0003503561019897461,XArbitraryZVertical,0.5498724939539749,-0.1152551489419639,0.7765872829143965,-0.2850765327173954,-0.7883349061012268,0.4925228655338287,-0.368712991476059,0,0,0,-1,-1,39266.84337537501,unknown,2,2025-04-22T17:17:39.459+03:00,2025-04-21T17:08:51.449+03:00,9030,1.057261,0,0,7531.346,7,22,2025-04-22T17:16:53.031+03:00,767024262.1388104,0,-10.57,100.3307,1,0.4,2025-04-22T17:17:39.158+03:00,85,1.416666666666667,2025-04-22T14:20:19.516+03:00,0.02197104130929222,0
2025-04-22T17:17:43.603+03:00,1745331459.217669,40.95219958186703,29.14026822168964,76.1451,-1,-1,-1,-1,30,18.38710864918669,-9999,39270.983212125,-0.7911224365234375,0.4962005615234375,-0.3648529052734375,39270.973136125,-2.770012749332337,-1.133398298164491,-0.5150351499324251,0.002407965017482638,-0.003503122366964817,0.005180813372135162,-0.000595390796661377,0.001941293478012085,-0.003313809633255005,XArbitraryZVertical,0.5499045428136431,-0.1152722672840874,0.7765607025406204,-0.2850800360066352,-0.7883448600769043,0.4925654530525208,-0.3686345815658569,0,0,0,-1,-1,39266.84337537501,unknown,2,2025-04-22T17:17:39.459+03:00,2025-04-21T17:08:51.449+03:00,9030,1.057261,0,0,7531.346,7,22,2025-04-22T17:16:53.031+03:00,767024262.1388104,0,-10.57,100.3307,1,0.4,2025-04-22T17:17:39.158+03:00,85,1.416666666666667,2025-04-22T14:20:19.516+03:00,0.02197104130929222,0
2025-04-22T17:17:43.616+03:00,1745331459.217669,40.95219958186703,29.14026822168964,76.1451,-1,-1,-1,-1,30,18.38710864918669,-9999,39270.993288125,-0.788909912109375,0.4981231689453125,-0.3651275634765625,39270.983212125,-2.769960176249382,-1.133436021193094,-0.5150586969801679,0.008606206625699997,-0.001421329099684954,0.003698764368891716,-0.00433039665222168,0.003873944282531738,6.955862045288086e-05,XArbitraryZVertical,0.5499224029793395,-0.1152621603295095,0.7765392789584653,-0.2851081718952108,-0.7883483171463013,0.4925859272480011,-0.3685999810695648,0,0,0,-1,-1,39266.84337537501,unknown,2,2025-04-22T17:17:39.459+03:00,2025-04-21T17:08:51.449+03:00,9030,1.057261,0,0,7531.346,7,22,2025-04-22T17:16:53.031+03:00,767024262.1388104,0,-10.57,100.3307,1,0.4,2025-04-22T17:17:39.158+03:00,85,1.416666666666667,2025-04-22T14:20:19.516+03:00,0.02197104130929222,0
2025-04-22T17:17:43.623+03:00,1745331459.217669,40.95219958186703,29.14026822168964,76.1451,-1,-1,-1,-1,30,18.38710864918669,-9999,39271.003363125,-0.78778076171875,0.499176025390625,-0.3671112060546875,39270.993288125,-2.769839117308004,-1.133427822026746,-0.5150619225567341,0.01362812891602516,-0.005021656863391399,0.005788280628621578,-0.002107024192810059,0.004038959741592407,0.003859490156173706,XArbitraryZVertical,0.5499262248166524,-0.1152313804929931,0.7765237596390101,-0.2851554581973227,-0.7883438467979431,0.4925887286663055,-0.368605762720108,0,0,0,-1,-1,39266.84337537501,unknown,2,2025-04-22T17:17:39.459+03:00,2025-04-21T17:08:51.449+03:00,9030,1.057261,0,0,7531.346,7,22,2025-04-22T17:16:53.031+03:00,767024262.1388104,0,-10.57,100.3307,1,0.4,2025-04-22T17:17:39.158+03:00,85,1.416666666666667,2025-04-22T14:20:19.516+03:00,0.02197104130929222,0
2025-04-22T17:17:43.633+03:00,1745331459.217669,40.95219958186703,29.14026822168964,76.1451,-1,-1,-1,-1,30,18.38710864918669,-9999,39271.013439125,-0.7870941162109375,0.49383544921875,-0.365447998046875,39271.003363125,-2.769704611975461,-1.133470938851349,-0.5150327555267979,0.01289975363761187,-0.01151683926582336,0.004696917254477739,-0.00108635425567627,0.006582051515579224,0.002992361783981323,XArbitraryZVertical,0.5499504774789542,-0.1151761915475848,0.7764971777263837,-0.2852032984411065,-0.7883727550506592,0.4925633668899536,-0.3685778379440308,0,0,0,-1,-1,39266.84337537501,unknown,2,2025-04-22T17:17:39.459+03:00,2025-04-21T17:08:51.449+03:00,9030,1.057261,0,0,7531.346,7,22,2025-04-22T17:16:53.031+03:00,767024262.1388104,0,-10.57,100.3307,1,0.4,2025-04-22T17:17:39.158+03:00,85,1.416666666666667,2025-04-22T14:20:19.516+03:00,0.02197104130929222,0
2025-04-22T17:17:43.643+03:00,1745331459.217669,40.95219958186703,29.14026822168964,76.1451,-1,-1,-1,-1,30,18.38710864918669,-9999,39271.023515125,-0.7885589599609375,0.488677978515625,-0.3654327392578125,39271.013439125,-2.769570827922732,-1.133534493934786,-0.5150062965948183,0.01094379555433989,-0.008412792347371578,0.00806748028844595,0.0006273388862609863,0.005964219570159912,0.001864373683929443,XArbitraryZVertical,0.5499826305245572,-0.1151193900329888,0.7764647239864759,-0.2852526795190018,-0.7884079813957214,0.4925403296947479,-0.3685332536697388,0,0,0,-1,-1,39266.84337537501,unknown,2,2025-04-22T17:17:39.459+03:00,2025-04-21T17:08:51.449+03:00,9030,1.057261,0,0,7531.346,7,22,2025-04-22T17:16:53.031+03:00,767024262.1388104,0,-10.57,100.3307,1,0.4,2025-04-22T17:17:39.158+03:00,85,1.416666666666667,2025-04-22T14:20:19.516+03:00,0.02197104130929222,0
2025-04-22T17:17:43.654+03:00,1745331459.217669,40.95219958186703,29.14026822168964,76.1451,-1,-1,-1,-1,30,18.38710864918669,-9999,39271.033591125,-0.7904510498046875,0.4906463623046875,-0.364959716796875,39271.023515125,-2.769410981748869,-1.133504058504538,-0.5149989744552738,0.01245833560824394,-0.0003601927310228348,0.008456568233668804,0.000558316707611084,0.0005995631217956543,0.002286642789840698,XArbitraryZVertical,0.5499799433309915,-0.1150767346738917,0.7764514795109903,-0.2853112722814267,-0.7884001135826111,0.492533951997757,-0.3685588240623474,0,0,0,-1,-1,39266.84337537501,unknown,2,2025-04-22T17:17:39.459+03:00,2025-04-21T17:08:51.449+03:00,9030,1.057261,0,0,7531.346,7,22,2025-04-22T17:16:53.031+03:00,767024262.1388104,0,-10.57,100.3307,1,0.4,2025-04-22T17:17:39.158+03:00,85,1.416666666666667,2025-04-22T14:20:19.516+03:00,0.02197104130929222,0
2025-04-22T17:17:43.664+03:00,1745331459.217669,40.95219958186703,29.14026822168964,76.1451,-1,-1,-1,-1,30,18.38710864918669,-9999,39271.04366612501,-0.7899627685546875,0.4925689697265625,-0.3645782470703125,39271.033591125,-2.769230796486709,-1.133392924258401,-0.5150080056240203,0.01382486987859011,0.004676976706832647,0.009149422869086266,0.0002692937850952148,-0.003635048866271973,0.003394722938537598,XArbitraryZVertical,0.5499472415149872,-0.1150467802439887,0.7764549307960287,-0.2853769534388956,-0.7883551120758057,0.4925418198108673,-0.3686445355415344,0,0,0,-1,-1,39266.84337537501,unknown,2,2025-04-22T17:17:39.459+03:00,2025-04-21T17:08:51.449+03:00,9030,1.057261,0,0,7531.346,7,22,2025-04-22T17:16:53.031+03:00,767024262.1388104,0,-10.57,100.3307,1,0.4,2025-04-22T17:17:39.158+03:00,85,1.416666666666667,2025-04-22T14:20:19.516+03:00,0.02197104130929222,0
2025-04-22T17:17:43.674+03:00,1745331459.217669,40.95219958186703,29.14026822168964,76.1451,-1,-1,-1,-1,30,18.38710864918669,-9999,39271.053742125,-0.785919189453125,0.4901580810546875,-0.3635711669921875,39271.04366612501,-2.769004932526091,-1.133252241352647,-0.5150069020641969,0.01827447861433029,0.001013532280921936,0.007562178652733564,-0.002788066864013672,-0.002215027809143066,0.004009425640106201,XArbitraryZVertical,0.5499055981911328,-0.115004287156127,0.7764615947478765,-0.2854562969145459,-0.7883037328720093,0.4925408661365509,-0.3687556982040405,0,0,0,-1,-1,39266.84337537501,unknown,2,2025-04-22T17:17:39.459+03:00,2025-04-21T17:08:51.449+03:00,9030,1.057261,0,0,7531.346,7,22,2025-04-22T17:16:53.031+03:00,767024262.1388104,0,-10.57,100.3307,1,0.4,2025-04-22T17:17:39.158+03:00,85,1.416666666666667,2025-04-22T14:20:19.516+03:00,0.02197104130929222,0
2025-04-22T17:17:43.684+03:00,1745331459.217669,40.95219958186703,29.14026822168964,76.1451,-1,-1,-1,-1,30,18.38710864918669,-9999,39271.063818125,-0.7863311767578125,0.49053955078125,-0.361083984375,39271.053742125,-2.768766318223615,-1.133112187414567,-0.5150222467539571,0.01864299550652504,0.001362340059131384,0.008688796311616898,-0.001702189445495605,-0.0003210306167602539,0.004223406314849854,XArbitraryZVertical,0.5498650814476652,-0.1149650321179674,0.776463624659794,-0.2855444813668197,-0.7882452011108398,0.4925542175769806,-0.3688628673553467,0,0,0,-1,-1,39266.84337537501,unknown,2,2025-04-22T17:17:39.459+03:00,2025-04-21T17:08:51.449+03:00,9030,1.057261,0,0,7531.346,7,22,2025-04-22T17:16:53.031+03:00,767024262.1388104,0,-10.57,100.3307,1,0.4,2025-04-22T17:17:39.158+03:00,85,1.416666666666667,2025-04-22T14:20:19.516+03:00,0.02197104130929222,0
2025-04-22T17:17:43.694+03:00,1745331459.217669,40.95219958186703,29.14026822168964,76.1451,-1,-1,-1,-1,30,18.38710864918669,-9999,39271.073893125,-0.7867584228515625,0.49053955078125,-0.3601531982421875,39271.063818125,-2.768544932110871,-1.133002139885108,-0.5150509676591862,0.01937829330563545,-0.0002653840929269791,0.009668306447565556,0.002242147922515869,-0.002222836017608643,0.005875825881958008,XArbitraryZVertical,0.5498353257309776,-0.1149317606801079,0.7764578482360888,-0.2856308564553572,-0.7881917953491211,0.4925791919231415,-0.3689436018466949,0,0,0,-1,-1,39266.84337537501,unknown,2,2025-04-22T17:17:39.459+03:00,2025-04-21T17:08:51.449+03:00,9030,1.057261,0,0,7531.346,7,22,2025-04-22T17:16:53.031+03:00,767024262.1388104,0,-10.57,100.3307,1,0.4,2025-04-22T17:17:39.158+03:00,85,1.416666666666667,2025-04-22T14:20:19.516+03:00,0.02197104130929222,0
2025-04-22T17:17:43.704+03:00,1745331459.217669,40.95219958186703,29.14026822168964,76.1451,-1,-1,-1,-1,30,18.38710864918669,-9999,39271.083969125,-0.7850494384765625,0.490570068359375,-0.361175537109375,39271.073893125,-2.768363422405641,-1.132942189021108,-0.5150797991383979,0.01065684016793966,-0.005185973830521107,0.009079414419829845,0.002313971519470215,-0.002705633640289307,0.00808379054069519,XArbitraryZVertical,0.5498227207357278,-0.114902341085152,0.776444006455222,-0.2857046608862761,-0.7881568670272827,0.4926042854785919,-0.3689848482608795,0,0,0,-1,-1,39266.84337537501,unknown,2,2025-04-22T17:17:39.459+03:00,2025-04-21T17:08:51.449+03:00,9030,1.057261,0,0,7531.346,7,22,2025-04-22T17:16:53.031+03:00,767024262.1388104,0,-10.57,100.3307,1,0.4,2025-04-22T17:17:39.158+03:00,85,1.416666666666667,2025-04-22T14:20:19.516+03:00,0.02197104130929222,0
2025-04-22T17:17:43.714+03:00,1745331459.217669,40.95219958186703,29.14026822168964,76.1451,-1,-1,-1,-1,30,18.38710864918669,-9999,39271.094045125,-0.7847900390625,0.4901275634765625,-0.36053466796875,39271.083969125,-2.768222941122509,-1.132961311888336,-0.5151320194291051,0.009130316786468029,-0.009816944599151611,0.006767258513718843,0.001763641834259033,-0.002430647611618042,0.00871393084526062,XArbitraryZVertical,0.54983866119481,-0.1148825861016442,0.7764106486476381,-0.2857725693770067,-0.788140594959259,0.4926497340202332,-0.3689588904380798,0,0,0,-1,-1,39266.84337537501,unknown,2,2025-04-22T17:17:39.459+03:00,2025-04-21T17:08:51.449+03:00,9030,1.057261,0,0,7531.346,7,22,2025-04-22T17:16:53.031+03:00,767024262.1388104,0,-10.57,100.3307,1,0.4,2025-04-22T17:17:39.158+03:00,85,1.416666666666667,2025-04-22T14:20:19.516+03:00,0.02197104130929222,0
2025-04-22T17:17:43.724+03:00,1745331459.217669,40.95219958186703,29.14026822168964,76.1451,-1,-1,-1,-1,30,18.38710864918669,-9999,39271.104120125,-0.7860565185546875,0.492889404296875,-0.3596954345703125,39271.094045125,-2.768113217171702,-1.133027042006924,-0.5151947830619811,0.003973371349275112,-0.01415549963712692,0.008369415998458862,0.003636837005615234,-0.002607405185699463,0.007703006267547607,XArbitraryZVertical,0.5498710155687266,-0.1148689825273087,0.7763672555004228,-0.2858336915921848,-0.7881368398666382,0.4927043616771698,-0.3688939809799194,0,0,0,-1,-1,39266.84337537501,unknown,2,2025-04-22T17:17:39.459+03:00,2025-04-21T17:08:51.449+03:00,9030,1.057261,0,0,7531.346,7,22,2025-04-22T17:16:53.031+03:00,767024262.1388104,0,-10.57,100.3307,1,0.4,2025-04-22T17:17:39.158+03:00,85,1.416666666666667,2025-04-22T14:20:19.516+03:00,0.02197104130929222,0
2025-04-22T17:17:43.734+03:00,1745331459.217669,40.95219958186703,29.14026822168964,76.1451,-1,-1,-1,-1,30,18.38710864918669,-9999,39271.114196125,-0.7870330810546875,0.4930419921875,-0.3640899658203125,39271.104120125,-2.768037966660025,-1.133152432548263,-0.5152310440530817,0.006178202107548714,-0.01524633169174194,0.0038652119692415,0.003865242004394531,-0.002135396003723145,0.00866466760635376,XArbitraryZVertical,0.5499243295884306,-0.1148453783083779,0.776316390708934,-0.2858786161775677,-0.788166880607605,0.4927359223365784,-0.3687875270843506,0,0,0,-1,-1,39266.84337537501,unknown,2,2025-04-22T17:17:39.459+03:00,2025-04-21T17:08:51.449+03:00,9030,1.057261,0,0,7531.346,7,22,2025-04-22T17:16:53.031+03:00,767024262.1388104,0,-10.57,100.3307,1,0.4,2025-04-22T17:17:39.158+03:00,85,1.416666666666667,2025-04-22T14:20:19.516+03:00,0.02197104130929222,0
2025-04-22T17:17:43.745+03:00,1745331459.217669,40.95219958186703,29.14026822168964,76.1451,-1,-1,-1,-1,30,18.38710864918669,-9999,39271.124272125,-0.787994384765625,0.4906463623046875,-0.364501953125,39271.114196125,-2.767956342203163,-1.133301171892234,-0.5152308418733305,0.007679625879973173,-0.02014847844839096,0.001633183215744793,0.002027988433837891,0.0008249580860137939,0.008837401866912842,XArbitraryZVertical,0.5499867563025618,-0.1148016003857519,0.7762637910117598,-0.2859187800890031,-0.7882217168807983,0.492735743522644,-0.3686703145503998,0,0,0,-1,-1,39266.84337537501,unknown,2,2025-04-22T17:17:39.459+03:00,2025-04-21T17:08:51.449+03:00,9030,1.057261,0,0,7531.346,7,22,2025-04-22T17:16:53.031+03:00,767024262.1388104,0,-10.57,100.3307,1,0.4,2025-04-22T17:17:39.158+03:00,85,1.416666666666667,2025-04-22T14:20:19.516+03:00,0.02197104130929222,0
2025-04-22T17:17:43.754+03:00,1745331459.217669,40.95219958186703,29.14026822168964,76.1451,-1,-1,-1,-1,30,18.38710864918669,-9999,39271.134348125,-0.7891693115234375,0.491546630859375,-0.361846923828125,39271.124272125,-2.76790297692743,-1.133479192812384,-0.5152241760179538,0.003672633785754442,-0.02016525715589523,0.002224404830485582,0.001532018184661865,-0.0004814863204956055,0.004105567932128906,XArbitraryZVertical,0.5500588510431778,-0.1147587117022102,0.7762082538996082,-0.2859481456924111,-0.7882903814315796,0.4927299320697784,-0.3685314059257507,0,0,0,-1,-1,39266.84337537501,unknown,2,2025-04-22T17:17:39.459+03:00,2025-04-21T17:08:51.449+03:00,9030,1.057261,0,0,7531.346,7,22,2025-04-22T17:16:53.031+03:00,767024262.1388104,0,-10.57,100.3307,1,0.4,2025-04-22T17:17:39.158+03:00,85,1.416666666666667,2025-04-22T14:20:19.516+03:00,0.02197104130929222,0
2025-04-22T17:17:43.766+03:00,1745331459.217669,40.95219958186703,29.14026822168964,76.1451,-1,-1,-1,-1,30,18.38710864918669,-9999,39271.144423125,-0.78802490234375,0.4917144775390625,-0.3626556396484375,39271.134348125,-2.767859035093534,-1.133681990462428,-0.5152133312030442,0.00529856001958251,-0.02005253732204437,0.0009152283309958875,0.0003604292869567871,-0.002928704023361206,0.004359960556030273,XArbitraryZVertical,0.5501399723669946,-0.1147131317904495,0.7761479246595635,-0.2859742937110684,-0.7883699536323547,0.4927204847335815,-0.3683738112449646,0,0,0,-1,-1,39266.84337537501,unknown,2,2025-04-22T17:17:39.459+03:00,2025-04-21T17:08:51.449+03:00,9030,1.057261,0,0,7531.346,7,22,2025-04-22T17:16:53.031+03:00,767024262.1388104,0,-10.57,100.3307,1,0.4,2025-04-22T17:17:39.158+03:00,85,1.416666666666667,2025-04-22T14:20:19.516+03:00,0.02197104130929222,0
2025-04-22T17:17:43.775+03:00,1745331459.217669,40.95219958186703,29.14026822168964,76.1451,-1,-1,-1,-1,30,18.38710864918669,-9999,39271.154499125,-0.78729248046875,0.4910888671875,-0.3614044189453125,39271.144423125,-2.767806986230984,-1.133894849250315,-0.5152081250307731,0.003909188788384199,-0.02538951300084591,-0.000191847764654085,-0.000626981258392334,-0.001154154539108276,0.00579535961151123,XArbitraryZVertical,0.5502255218029797,-0.1146662334311607,0.7760826772616424,-0.2860054656954414,-0.7884506583213806,0.4927159547805786,-0.3682070672512054,0,0,0,-1,-1,39266.84337537501,unknown,2,2025-04-22T17:17:39.459+03:00,2025-04-21T17:08:51.449+03:00,9030,1.057261,0,0,7531.346,7,22,2025-04-22T17:16:53.031+03:00,767024262.1388104,0,-10.57,100.3307,1,0.4,2025-04-22T17:17:39.158+03:00,85,1.416666666666667,2025-04-22T14:20:19.516+03:00,0.02197104130929222,0
2025-04-22T17:17:43.790+03:00,1745331459.217669,40.95219958186703,29.14026822168964,76.1451,-1,-1,-1,-1,30,18.38710864918669,-9999,39271.164575125,-0.790771484375,0.488311767578125,-0.36083984375,39271.154499125,-2.767789476171633,-1.134141303035091,-0.5152069853452352,-0.001030109240673482,-0.02161547914147377,0.003024884732440114,0.0007612705230712891,-0.001061618328094482,0.004701018333435059,XArbitraryZVertical,0.5503221384595833,-0.1146256902366358,0.7760125864254552,-0.286026126899159,-0.7885419130325317,0.4927149713039398,-0.3680129945278168,0,0,0,-1,-1,39266.84337537501,unknown,2,2025-04-22T17:17:39.459+03:00,2025-04-21T17:08:51.449+03:00,9030,1.057261,0,0,7531.346,7,22,2025-04-22T17:16:53.031+03:00,767024262.1388104,0,-10.57,100.3307,1,0.4,2025-04-22T17:17:39.158+03:00,85,1.416666666666667,2025-04-22T14:20:19.516+03:00,0.02197104130929222,0
2025-04-22T17:17:43.796+03:00,1745331459.217669,40.95219958186703,29.14026822168964,76.1451,-1,-1,-1,-1,30,18.38710864918669,-9999,39271.174650125,-0.791412353515625,0.4904022216796875,-0.3603363037109375,39271.164575125,-2.767834095345048,-1.134358633280086,-0.5152459064357963,-0.005612078122794628,-0.01481376588344574,0.0008778441115282476,0.0007627606391906738,-0.002163559198379517,0.007024019956588745,XArbitraryZVertical,0.5504042289534549,-0.1146229695291345,0.7759532170974597,-0.2860304338535897,-0.7886045575141907,0.4927488565444946,-0.3678335249423981,0,0,0,-1,-1,39266.84337537501,unknown,2,2025-04-22T17:17:39.459+03:00,2025-04-21T17:08:51.449+03:00,9030,1.057261,0,0,7531.346,7,22,2025-04-22T17:16:53.031+03:00,767024262.1388104,0,-10.57,100.3307,1,0.4,2025-04-22T17:17:39.158+03:00,85,1.416666666666667,2025-04-22T14:20:19.516+03:00,0.02197104130929222,0
2025-04-22T17:17:43.805+03:00,1745331459.217669,40.95219958186703,29.14026822168964,76.1451,-1,-1,-1,-1,30,18.38710864918669,-9999,39271.184726125,-0.790985107421875,0.492431640625,-0.3624267578125,39271.174650125,-2.767904544290206,-1.134529857367419,-0.5152637875648832,-0.006406499072909355,-0.009877065196633339,-0.001911550760269165,-0.002218782901763916,-0.004452675580978394,0.006580084562301636,XArbitraryZVertical,0.5504667724771179,-0.1146252631121736,0.7759134183346451,-0.2860171227233284,-0.7886595129966736,0.492764413356781,-0.367694765329361,0,0,0,-1,-1,39266.84337537501,unknown,2,2025-04-22T17:17:39.459+03:00,2025-04-21T17:08:51.449+03:00,9030,1.057261,0,0,7531.346,7,22,2025-04-22T17:16:53.031+03:00,767024262.1388104,0,-10.57,100.3307,1,0.4,2025-04-22T17:17:39.158+03:00,85,1.416666666666667,2025-04-22T14:20:19.516+03:00,0.02197104130929222,0
2025-04-22T17:17:43.815+03:00,1745331459.217669,40.95219958186703,29.14026822168964,76.1451,-1,-1,-1,-1,30,18.38710864918669,-9999,39271.194802125,-0.790191650390625,0.4916534423828125,-0.3627166748046875,39271.184726125,-2.767982558394013,-1.134670996896449,-0.5152628749669349,-0.005362007301300764,-0.008470917120575905,-0.004438357893377542,-0.002654790878295898,-0.002330899238586426,0.006941944360733032,XArbitraryZVertical,0.5505170529671163,-0.1146261812844245,0.77588583884021,-0.2859947270036433,-0.7887117862701416,0.4927636086940765,-0.3675836324691772,0,0,0,-1,-1,39266.84337537501,unknown,2,2025-04-22T17:17:39.459+03:00,2025-04-21T17:08:51.449+03:00,9030,1.057261,0,0,7531.346,7,22,2025-04-22T17:16:53.031+03:00,767024262.1388104,0,-10.57,100.3307,1,0.4,2025-04-22T17:17:39.158+03:00,85,1.416666666666667,2025-04-22T14:20:19.516+03:00,0.02197104130929222,0
2025-04-22T17:17:43.825+03:00,1745331459.217669,40.95219958186703,29.14026822168964,76.1451,-1,-1,-1,-1,30,18.38710864918669,-9999,39271.204877125,-0.7928314208984375,0.48931884765625,-0.360992431640625,39271.194802125,-2.768069193165972,-1.134784526121291,-0.515239280855318,-0.002960102166980505,-0.001035104040056467,-0.006463825237005949,-0.001778483390808105,-0.0001894831657409668,0.004339605569839478,XArbitraryZVertical,0.550555949668232,-0.1146240672409082,0.7758704842747651,-0.2859620519869241,-0.7887639403343201,0.4927430748939514,-0.3674989342689514,0,0,0,-1,-1,39266.84337537501,unknown,2,2025-04-22T17:17:39.459+03:00,2025-04-21T17:08:51.449+03:00,9030,1.057261,0,0,7531.346,7,22,2025-04-22T17:16:53.031+03:00,767024262.1388104,0,-10.57,100.3307,1,0.4,2025-04-22T17:17:39.158+03:00,85,1.416666666666667,2025-04-22T14:20:19.516+03:00,0.02197104130929222,0
2025-04-22T17:17:43.835+03:00,1745331459.217669,40.95219958186703,29.14026822168964,76.1451,-1,-1,-1,-1,30,18.38710864918669,-9999,39271.214953125,-0.792572021484375,0.4918670654296875,-0.3616485595703125,39271.204877125,-2.768143885010565,-1.134825940118062,-0.5151740054681868,-0.0002205082855653018,0.003507183399051428,-0.01049212273210287,-0.001978218555450439,-0.00100243091583252,0.004549413919448853,XArbitraryZVertical,0.5505671847823653,-0.1146117251557648,0.7758798027433617,-0.2859200843799619,-0.7888083457946777,0.4926862716674805,-0.3674798607826233,0,0,0,-1,-1,39266.84337537501,unknown,2,2025-04-22T17:17:39.459+03:00,2025-04-21T17:08:51.449+03:00,9030,1.057261,0,0,7531.346,7,22,2025-04-22T17:16:53.031+03:00,767024262.1388104,0,-10.57,100.3307,1,0.4,2025-04-22T17:17:39.158+03:00,85,1.416666666666667,2025-04-22T14:20:19.516+03:00,0.02197104130929222,0
2025-04-22T17:17:43.845+03:00,1745331459.217669,40.95219958186703,29.14026822168964,76.1451,-1,-1,-1,-1,30,18.38710864918669,-9999,39271.225029125,-0.7898101806640625,0.4937744140625,-0.35894775390625,39271.214953125,-2.768176020224888,-1.134816837196319,-0.5150715084721001,0.004772452637553215,0.001560479402542114,-0.009721503593027592,-0.003766894340515137,-0.00294262170791626,0.005783379077911377,XArbitraryZVertical,0.5505609406143284,-0.1145794948251002,0.7759027118340825,-0.2858829752957293,-0.7888507843017578,0.4925970733165741,-0.3675083816051483,0,0,0,-1,-1,39266.84337537501,unknown,2,2025-04-22T17:17:39.459+03:00,2025-04-21T17:08:51.449+03:00,9030,1.057261,0,0,7531.346,7,22,2025-04-22T17:16:53.031+03:00,767024262.1388104,0,-10.57,100.3307,1,0.4,2025-04-22T17:17:39.158+03:00,85,1.416666666666667,2025-04-22T14:20:19.516+03:00,0.02197104130929222,0
2025-04-22T17:17:43.855+03:00,1745331459.217669,40.95219958186703,29.14026822168964,76.1451,-1,-1,-1,-1,30,18.38710864918669,-9999,39271.235105125,-0.791473388671875,0.493743896484375,-0.3582000732421875,39271.225029125,-2.768204671820203,-1.134811690660398,-0.5149857630047078,0.00222300854511559,0.005972804501652718,-0.006653008982539177,-0.003486335277557373,-0.0002282559871673584,0.006705522537231445,XArbitraryZVertical,0.5505565770986165,-0.1145526707088777,0.7759214219350538,-0.2858513815289889,-0.7888872027397156,0.4925224483013153,-0.3675302863121033,0,0,0,-1,-1,39266.84337537501,unknown,2,2025-04-22T17:17:39.459+03:00,2025-04-21T17:08:51.449+03:00,9030,1.057261,0,0,7531.346,7,22,2025-04-22T17:16:53.031+03:00,767024262.1388104,0,-10.57,100.3307,1,0.4,2025-04-22T17:17:39.158+03:00,85,1.416666666666667,2025-04-22T14:20:19.516+03:00,0.02197104130929222,0
2025-04-22T17:17:43.865+03:00,1745331459.217669,40.95219958186703,29.14026822168964,76.1451,-1,-1,-1,-1,30,18.38710864918669,-9999,39271.245180125,-0.79248046875,0.49420166015625,-0.3594818115234375,39271.235105125,-2.768212363254205,-1.134727192851668,-0.5149089600614735,0.006389257963746786,0.01010656356811523,-0.00688483752310276,-0.001224756240844727,0.00104406476020813,0.009214341640472412,XArbitraryZVertical,0.5505226961692905,-0.1145351043981698,0.7759576462007933,-0.2858254870840439,-0.7888904809951782,0.4924556016921997,-0.3676129281520844,0,0,0,-1,-1,39266.84337537501,unknown,2,2025-04-22T17:17:39.459+03:00,2025-04-21T17:08:51.449+03:00,9030,1.057261,0,0,7531.346,7,22,2025-04-22T17:16:53.031+03:00,767024262.1388104,0,-10.57,100.3307,1,0.4,2025-04-22T17:17:39.158+03:00,85,1.416666666666667,2025-04-22T14:20:19.516+03:00,0.02197104130929222,0
2025-04-22T17:17:43.875+03:00,1745331459.217669,40.95219958186703,29.14026822168964,76.1451,-1,-1,-1,-1,30,18.38710864918669,-9999,39271.255256125,-0.78936767578125,0.48956298828125,-0.3586883544921875,39271.245180125,-2.768234616440729,-1.134667114746202,-0.5148352253247265,-2.922673593275249e-05,0.006740593817085028,-0.006504804361611605,-0.002785563468933105,0.001199781894683838,0.009551703929901123,XArbitraryZVertical,0.5504974912031484,-0.1145193380787177,0.7759886806453862,-0.2857960527066457,-0.7889012694358826,0.492391437292099,-0.3676756620407104,0,0,0,-1,-1,39266.84337537501,unknown,2,2025-04-22T17:17:39.459+03:00,2025-04-21T17:08:51.449+03:00,9030,1.057261,0,0,7531.346,7,22,2025-04-22T17:16:53.031+03:00,767024262.1388104,0,-10.57,100.3307,1,0.4,2025-04-22T17:17:39.158+03:00,85,1.416666666666667,2025-04-22T14:20:19.516+03:00,0.02197104130929222,0
2025-04-22T17:17:43.886+03:00,1745331459.217669,40.95219958186703,29.14026822168964,76.1451,-1,-1,-1,-1,30,18.38710864918669,-9999,39271.265332125,-0.7873992919921875,0.487213134765625,-0.3590850830078125,39271.255256125,-2.768272310324222,-1.134674566555373,-0.5147430964619738,-0.0002498696267139167,0.002112419344484806,-0.007962020114064217,-0.002406060695648193,0.0009289979934692383,0.008756250143051147,XArbitraryZVertical,0.5504974508101769,-0.1144905720914912,0.7760061342796365,-0.2857601597629429,-0.7889451384544373,0.4923112392425537,-0.367688924074173,0,0,0,-1,-1,39266.84337537501,unknown,2,2025-04-22T17:17:39.459+03:00,2025-04-21T17:08:51.449+03:00,9030,1.057261,0,0,7531.346,7,22,2025-04-22T17:16:53.031+03:00,767024262.1388104,0,-10.57,100.3307,1,0.4,2025-04-22T17:17:39.158+03:00,85,1.416666666666667,2025-04-22T14:20:19.516+03:00,0.02197104130929222,0
2025-04-22T17:17:43.895+03:00,1745331459.217669,40.95219958186703,29.14026822168964,76.1451,-1,-1,-1,-1,30,18.38710864918669,-9999,39271.275407125,-0.788055419921875,0.4891357421875,-0.3618927001953125,39271.265332125,-2.768335873613143,-1.13471032089802,-0.5146513196965306,0.001303019584156573,-0.0004532700404524803,-0.01072584837675095,2.837181091308594e-05,-0.003812879323959351,0.008457213640213013,XArbitraryZVertical,0.5505069161041153,-0.1144650306603401,0.7760194277974674,-0.285715929061863,-0.7889991402626038,0.4922313690185547,-0.3676797747612,0,0,0,-1,-1,39266.84337537501,unknown,2,2025-04-22T17:17:39.459+03:00,2025-04-21T17:08:51.449+03:00,9030,1.057261,0,0,7531.346,7,22,2025-04-22T17:16:53.031+03:00,767024262.1388104,0,-10.57,100.3307,1,0.4,2025-04-22T17:17:39.158+03:00,85,1.416666666666667,2025-04-22T14:20:19.516+03:00,0.02197104130929222,0
2025-04-22T17:17:43.905+03:00,1745331459.217669,40.95219958186703,29.14026822168964,76.1451,-1,-1,-1,-1,30,18.38710864918669,-9999,39271.285483125,-0.789947509765625,0.490447998046875,-0.3599395751953125,39271.275407125,-2.768376147642008,-1.134758469759945,-0.5145483310532233,0.002885935828089714,-0.00218066293746233,-0.0108704911544919,0.001495838165283203,-0.004943996667861938,0.008303314447402954,XArbitraryZVertical,0.5505224294242851,-0.1144266743647989,0.7760277029781548,-0.2856788018681742,-0.7890627384185791,0.4921417236328125,-0.36766317486763,0,0,0,-1,-1,39266.84337537501,unknown,2,2025-04-22T17:17:39.459+03:00,2025-04-21T17:08:51.449+03:00,9030,1.057261,0,0,7531.346,7,22,2025-04-22T17:16:53.031+03:00,767024262.1388104,0,-10.57,100.3307,1,0.4,2025-04-22T17:17:39.158+03:00,85,1.416666666666667,2025-04-22T14:20:19.516+03:00,0.02197104130929222,0
2025-04-22T17:17:43.916+03:00,1745331459.217669,40.95219958186703,29.14026822168964,76.1451,-1,-1,-1,-1,30,18.38710864918669,-9999,39271.295559125,-0.789764404296875,0.4907989501953125,-0.35845947265625,39271.285483125,-2.768392900055465,-1.134817853443717,-0.514409224497873,0.004594886209815741,-0.004347676876932383,-0.01351660862565041,0.0009998679161071777,-0.002411961555480957,0.005721837282180786,XArbitraryZVertical,0.5505433318717278,-0.1143652966524326,0.7760351346633604,-0.2856429462586954,-0.7891466617584229,0.4920206069946289,-0.3676452338695526,0,0,0,-1,-1,39266.84337537501,unknown,2,2025-04-22T17:17:39.459+03:00,2025-04-21T17:08:51.449+03:00,9030,1.057261,0,0,7531.346,7,22,2025-04-22T17:16:53.031+03:00,767024262.1388104,0,-10.57,100.3307,1,0.4,2025-04-22T17:17:39.158+03:00,85,1.416666666666667,2025-04-22T14:20:19.516+03:00,0.02197104130929222,0
2025-04-22T17:17:43.926+03:00,1745331459.217669,40.95219958186703,29.14026822168964,76.1451,-1,-1,-1,-1,30,18.38710864918669,-9999,39271.30563512501,-0.789947509765625,0.4912261962890625,-0.357391357421875,39271.295559125,-2.768415164586039,-1.13486583389844,-0.5142480631285624,0.005345964804291725,-0.002220011316239834,-0.01571421511471272,-3.975629806518555e-05,-0.0008067786693572998,0.00852513313293457,XArbitraryZVertical,0.5505592887100611,-0.1142979261865504,0.7760499885809694,-0.2855991193810567,-0.789236307144165,0.4918802976608276,-0.3676409125328064,0,0,0,-1,-1,39266.84337537501,unknown,2,2025-04-22T17:17:39.459+03:00,2025-04-21T17:08:51.449+03:00,9030,1.057261,0,0,7531.346,7,22,2025-04-22T17:16:53.031+03:00,767024262.1388104,0,-10.57,100.3307,1,0.4,2025-04-22T17:17:39.158+03:00,85,1.416666666666667,2025-04-22T14:20:19.516+03:00,0.02197104130929222,0
2025-04-22T17:17:43.936+03:00,1745331459.217669,40.95219958186703,29.14026822168964,76.1451,-1,-1,-1,-1,30,18.38710864918669,-9999,39271.315710125,-0.7881011962890625,0.4930267333984375,-0.359375,39271.30563512501,-2.768469731497856,-1.134918905375981,-0.5140742580614154,0.0005879608215764165,0.0006772419437766075,-0.0179014690220356,-0.000644683837890625,-0.001586169004440308,0.00984683632850647,XArbitraryZVertical,0.5505752824329058,-0.1142335156889428,0.776069891592866,-0.28554005000482,-0.7893332839012146,0.4917289614677429,-0.3676351308822632,0,0,0,-1,-1,39266.84337537501,unknown,2,2025-04-22T17:17:39.459+03:00,2025-04-21T17:08:51.449+03:00,9030,1.057261,0,0,7531.346,7,22,2025-04-22T17:16:53.031+03:00,767024262.1388104,0,-10.57,100.3307,1,0.4,2025-04-22T17:17:39.158+03:00,85,1.416666666666667,2025-04-22T14:20:19.516+03:00,0.02197104130929222,0
2025-04-22T17:17:43.946+03:00,1745331459.217669,40.95219958186703,29.14026822168964,76.1451,-1,-1,-1,-1,30,18.38710864918669,-9999,39271.325786125,-0.78515625,0.4909515380859375,-0.36065673828125,39271.315710125,-2.768622719132738,-1.135004459740591,-0.5139256726737486,-0.009043560363352299,0.0006890264339745045,-0.02237674593925476,-0.0003790855407714844,0.0003284215927124023,0.01040524244308472,XArbitraryZVertical,0.5505984824843804,-0.1142019983791777,0.7760909846869463,-0.2854505714916679,-0.7894309759140015,0.4915995895862579,-0.3675984144210815,0,0,0,-1,-1,39266.84337537501,unknown,2,2025-04-22T17:17:39.459+03:00,2025-04-21T17:08:51.449+03:00,9030,1.057261,0,0,7531.346,7,22,2025-04-22T17:16:53.031+03:00,767024262.1388104,0,-10.57,100.3307,1,0.4,2025-04-22T17:17:39.158+03:00,85,1.416666666666667,2025-04-22T14:20:19.516+03:00,0.02197104130929222,0
2025-04-22T17:17:43.956+03:00,1745331459.217669,40.95219958186703,29.14026822168964,76.1451,-1,-1,-1,-1,30,18.38710864918669,-9999,39271.335862125,-0.78302001953125,0.4873809814453125,-0.3628692626953125,39271.325786125,-2.768940677860825,-1.135173110229844,-0.5138052158183807,-0.02282382175326347,0.0006765094585716724,-0.02412697486579418,0.001460731029510498,0.001379340887069702,0.008023530244827271,XArbitraryZVertical,0.550644770009703,-0.114215701612933,0.7761082938808301,-0.2853084204582282,-0.7895465493202209,0.4914946854114532,-0.3674902319908142,0,0,0,-1,-1,39266.84337537501,unknown,2,2025-04-22T17:17:39.459+03:00,2025-04-21T17:08:51.449+03:00,9030,1.057261,0,0,7531.346,7,22,2025-04-22T17:16:53.031+03:00,767024262.1388104,0,-10.57,100.3307,1,0.4,2025-04-22T17:17:39.158+03:00,85,1.416666666666667,2025-04-22T14:20:19.516+03:00,0.02197104130929222,0
2025-04-22T17:17:43.966+03:00,1745331459.217669,40.95219958186703,29.14026822168964,76.1451,-1,-1,-1,-1,30,18.38710864918669,-9999,39271.345937125,-0.78765869140625,0.48712158203125,-0.365936279296875,39271.335862125,-2.769349936199289,-1.135410154382778,-0.5137167917945777,-0.0312848836183548,-0.0006446181796491146,-0.02100451849400997,0.004730522632598877,-0.0008934736251831055,0.006160914897918701,XArbitraryZVertical,0.5507126361969792,-0.114258026970685,0.7761149766776154,-0.2851423088493418,-0.7896730303764343,0.4914176762104034,-0.3673214018344879,0,0,0,-1,-1,39266.84337537501,unknown,2,2025-04-22T17:17:39.459+03:00,2025-04-21T17:08:51.449+03:00,9030,1.057261,0,0,7531.346,7,22,2025-04-22T17:16:53.031+03:00,767024262.1388104,0,-10.57,100.3307,1,0.4,2025-04-22T17:17:39.158+03:00,85,1.416666666666667,2025-04-22T14:20:19.516+03:00,0.02197104130929222,0
2025-04-22T17:17:43.976+03:00,1745331459.217669,40.95219958186703,29.14026822168964,76.1451,-1,-1,-1,-1,30,18.38710864918669,-9999,39271.35601312501,-0.79278564453125,0.486358642578125,-0.36346435546875,39271.345937125,-2.769853073179589,-1.135650772560706,-0.5137030122229403,-0.03837767988443375,0.004435095004737377,-0.01716690324246883,0.006610274314880371,-0.004818201065063477,0.004081696271896362,XArbitraryZVertical,0.5507771317428179,-0.1143565764310492,0.7761225941037556,-0.2849575740060554,-0.7897676229476929,0.4914056658744812,-0.3671342432498932,0,0,0,-1,-1,39266.84337537501,unknown,2,2025-04-22T17:17:39.459+03:00,2025-04-21T17:08:51.449+03:00,9030,1.057261,0,0,7531.346,7,22,2025-04-22T17:16:53.031+03:00,767024262.1388104,0,-10.57,100.3307,1,0.4,2025-04-22T17:17:39.158+03:00,85,1.416666666666667,2025-04-22T14:20:19.516+03:00,0.02197104130929222,0
2025-04-22T17:17:43.986+03:00,1745331459.217669,40.95219958186703,29.14026822168964,76.1451,-1,-1,-1,-1,30,18.38710864918669,-9999,39271.366089125,-0.7943267822265625,0.4860687255859375,-0.36614990234375,39271.35601312501,-2.770374824600425,-1.135820058846103,-0.5137461797245936,-0.04202461242675781,0.01384004857391119,-0.01058916095644236,0.001999318599700928,-0.004260748624801636,0.00195544958114624,XArbitraryZVertical,0.5508133268404488,-0.1144939944069462,0.7761436723556906,-0.2847749660933249,-0.7898105382919312,0.4914432764053345,-0.3669916093349457,0,0,0,-1,-1,39266.84337537501,unknown,2,2025-04-22T17:17:39.459+03:00,2025-04-21T17:08:51.449+03:00,9030,1.057261,0,0,7531.346,7,22,2025-04-22T17:16:53.031+03:00,767024262.1388104,0,-10.57,100.3307,1,0.4,2025-04-22T17:17:39.158+03:00,85,1.416666666666667,2025-04-22T14:20:19.516+03:00,0.02197104130929222,0
2025-04-22T17:17:43.996+03:00,1745331459.217669,40.95219958186703,29.14026822168964,76.1451,-1,-1,-1,-1,30,18.38710864918669,-9999,39271.376164125,-0.791717529296875,0.489837646484375,-0.3639678955078125,39271.366089125,-2.770853810893645,-1.135900036481726,-0.5138452219989289,-0.03748498857021332,0.01783984899520874,-0.006503872107714415,-0.003401875495910645,-0.005506604909896851,0.003718048334121704,XArbitraryZVertical,0.5508177104396054,-0.1146554471980224,0.7761747100936232,-0.2846170366774196,-0.7897957563400269,0.4915295243263245,-0.3669079542160034,0,0,0,-1,-1,39266.84337537501,unknown,2,2025-04-22T17:17:39.459+03:00,2025-04-21T17:08:51.449+03:00,9030,1.057261,0,0,7531.346,7,22,2025-04-22T17:16:53.031+03:00,767024262.1388104,0,-10.57,100.3307,1,0.4,2025-04-22T17:17:39.158+03:00,85,1.416666666666667,2025-04-22T14:20:19.516+03:00,0.02197104130929222,0
2025-04-22T17:17:44.006+03:00,1745331459.217669,40.95219958186703,29.14026822168964,76.1451,-1,-1,-1,-1,30,18.38710864918669,-9999,39271.386240125,-0.7838897705078125,0.4952545166015625,-0.3564300537109375,39271.376164125,-2.771213864742919,-1.135922073744576,-0.513919787409295,-0.02384461089968681,0.01164793409407139,-0.005630788393318653,-0.004876554012298584,-0.005052804946899414,-8.374452590942383e-05,XArbitraryZVertical,0.550806210520805,-0.1147823010450545,0.776208385826893,-0.2844961489955135,-0.7897705435752869,0.4915944635868073,-0.3668750822544098,0,0,0,-1,-1,39266.84337537501,unknown,2,2025-04-22T17:17:39.459+03:00,2025-04-21T17:08:51.449+03:00,9030,1.057261,0,0,7531.346,7,22,2025-04-22T17:16:53.031+03:00,767024262.1388104,0,-10.57,100.3307,1,0.4,2025-04-22T17:17:39.158+03:00,85,1.416666666666667,2025-04-22T14:20:19.516+03:00,0.02197104130929222,0
2025-04-22T17:17:44.017+03:00,1745331459.217669,40.95219958186703,29.14026822168964,76.1451,-1,-1,-1,-1,30,18.38710864918669,-9999,39271.396316125,-0.7827911376953125,0.4954681396484375,-0.3544158935546875,39271.386240125,-2.771457309010672,-1.13596121056167,-0.5139478751917986,-0.01025769580155611,0.008490756154060364,-0.006814829539507627,-0.001014292240142822,-0.0012626051902771,0.003755301237106323,XArbitraryZVertical,0.5508076625827064,-0.1148554117440783,0.7762278124910639,-0.2844105223054572,-0.7897722721099854,0.4916189312934875,-0.3668383061885834,0,0,0,-1,-1,39266.84337537501,unknown,2,2025-04-22T17:17:39.459+03:00,2025-04-21T17:08:51.449+03:00,9030,1.057261,0,0,7531.346,7,22,2025-04-22T17:16:53.031+03:00,767024262.1388104,0,-10.57,100.3307,1,0.4,2025-04-22T17:17:39.158+03:00,85,1.416666666666667,2025-04-22T14:20:19.516+03:00,0.02197104130929222,0
2025-04-22T17:17:44.026+03:00,1745331459.217669,40.95219958186703,29.14026822168964,76.1451,-1,-1,-1,-1,30,18.38710864918669,-9999,39271.40639212501,-0.7840118408203125,0.49072265625,-0.35260009765625,39271.396316125,-2.771583349117233,-1.135960751631491,-0.5139217400445696,-0.006411558482795954,0.009831923991441727,-0.007736283354461193,0.006626605987548828,0.0038871169090271,0.01129886507987976,XArbitraryZVertical,0.5508000460508258,-0.1148793938178105,0.7762498333863481,-0.2843554051322991,-0.7897837162017822,0.4915961623191833,-0.3668440580368042,0,0,0,-1,-1,39266.84337537501,unknown,2,2025-04-22T17:17:39.459+03:00,2025-04-21T17:08:51.449+03:00,9030,1.057261,0,0,7531.346,7,22,2025-04-22T17:16:53.031+03:00,767024262.1388104,0,-10.57,100.3307,1,0.4,2025-04-22T17:17:39.158+03:00,85,1.416666666666667,2025-04-22T14:20:19.516+03:00,0.02197104130929222,0
2025-04-22T17:17:44.037+03:00,1745331459.217669,40.95219958186703,29.14026822168964,76.1451,-1,-1,-1,-1,30,18.38710864918669,-9999,39271.416467125,-0.783660888671875,0.4872283935546875,-0.3506317138671875,39271.40639212501,-2.771760488015994,-1.135959971669989,-0.5138895477500444,-0.01881230250000954,0.01068173907697201,-0.009985056705772877,0.006747424602508545,0.003396391868591309,0.01243531703948975,XArbitraryZVertical,0.5507893096700642,-0.1149149753184006,0.7762802026505435,-0.2842790164008916,-0.789797842502594,0.4915681183338165,-0.3668513596057892,0,0,0,-1,-1,39266.84337537501,unknown,2,2025-04-22T17:17:39.459+03:00,2025-04-21T17:08:51.449+03:00,9030,1.057261,0,0,7531.346,7,22,2025-04-22T17:16:53.031+03:00,767024262.1388104,0,-10.57,100.3307,1,0.4,2025-04-22T17:17:39.158+03:00,85,1.416666666666667,2025-04-22T14:20:19.516+03:00,0.02197104130929222,0
2025-04-22T17:17:44.047+03:00,1745331459.217669,40.95219958186703,29.14026822168964,76.1451,-1,-1,-1,-1,30,18.38710864918669,-9999,39271.426543125,-0.783447265625,0.4801483154296875,-0.3557586669921875,39271.416467125,-2.772132738319002,-1.136099475427163,-0.5139404372874008,-0.0467301532626152,-0.002412690781056881,-0.008417353965342045,0.005478978157043457,-0.00172916054725647,0.01393201947212219,XArbitraryZVertical,0.5508224558262107,-0.1150187059414924,0.7762868642880932,-0.2841545570288394,-0.7898262739181519,0.491612434387207,-0.3667306303977966,0,0,0,-1,-1,39266.84337537501,unknown,2,2025-04-22T17:17:39.459+03:00,2025-04-21T17:08:51.449+03:00,9030,1.057261,0,0,7531.346,7,22,2025-04-22T17:16:53.031+03:00,767024262.1388104,0,-10.57,100.3307,1,0.4,2025-04-22T17:17:39.158+03:00,85,1.416666666666667,2025-04-22T14:20:19.516+03:00,0.02197104130929222,0
2025-04-22T17:17:44.057+03:00,1745331459.217669,40.95219958186703,29.14026822168964,76.1451,-1,-1,-1,-1,30,18.38710864918669,-9999,39271.436619125,-0.78466796875,0.4739990234375,-0.3625946044921875,39271.426543125,-2.772848000536862,-1.136546463441672,-0.5141160107928718,-0.08055336773395538,-0.01559081021696329,-0.008998189121484756,0.006556272506713867,-0.005254209041595459,0.01554155349731445,XArbitraryZVertical,0.5509560899229728,-0.1152247720069023,0.7762385452466765,-0.2839441420513334,-0.7899119257926941,0.4917653203010559,-0.3663412630558014,0,0,0,-1,-1,39266.84337537501,unknown,2,2025-04-22T17:17:39.459+03:00,2025-04-21T17:08:51.449+03:00,9030,1.057261,0,0,7531.346,7,22,2025-04-22T17:16:53.031+03:00,767024262.1388104,0,-10.57,100.3307,1,0.4,2025-04-22T17:17:39.158+03:00,85,1.416666666666667,2025-04-22T14:20:19.516+03:00,0.02197104130929222,0
2025-04-22T17:17:44.067+03:00,1745331459.217669,40.95219958186703,29.14026822168964,76.1451,-1,-1,-1,-1,30,18.38710864918669,-9999,39271.446694125,-0.788970947265625,0.480682373046875,-0.3642425537109375,39271.436619125,-2.773791433774119,-1.137189875433222,-0.5143918675602106,-0.08720520883798599,-0.02003409527242184,-0.009443769231438637,0.006928145885467529,-0.01258969306945801,0.008887946605682373,XArbitraryZVertical,0.5511533937927122,-0.1155073785515244,0.7761529626702358,-0.2836802967486178,-0.7900243401527405,0.4920054972171783,-0.3657759726047516,0,0,0,-1,-1,39266.84337537501,unknown,2,2025-04-22T17:17:39.459+03:00,2025-04-21T17:08:51.449+03:00,9030,1.057261,0,0,7531.346,7,22,2025-04-22T17:16:53.031+03:00,767024262.1388104,0,-10.57,100.3307,1,0.4,2025-04-22T17:17:39.158+03:00,85,1.416666666666667,2025-04-22T14:20:19.516+03:00,0.02197104130929222,0
2025-04-22T17:17:44.077+03:00,1745331459.217669,40.95219958186703,29.14026822168964,76.1451,-1,-1,-1,-1,30,18.38710864918669,-9999,39271.45677012501,-0.79302978515625,0.4920501708984375,-0.370880126953125,39271.446694125,-2.77463606817648,-1.137822225164661,-0.5146209770066998,-0.05928010120987892,-0.02166075445711613,-0.008119379170238972,0.005805730819702148,-0.01794669032096863,0.002252727746963501,XArbitraryZVertical,0.5513515821615804,-0.1157451895874072,0.7760632742876193,-0.2834432521795829,-0.7901530265808105,0.4922049641609192,-0.3652289807796478,0,0,0,-1,-1,39266.84337537501,unknown,2,2025-04-22T17:17:39.459+03:00,2025-04-21T17:08:51.449+03:00,9030,1.057261,0,0,7531.346,7,22,2025-04-22T17:16:53.031+03:00,767024262.1388104,0,-10.57,100.3307,1,0.4,2025-04-22T17:17:39.158+03:00,85,1.416666666666667,2025-04-22T14:20:19.516+03:00,0.02197104130929222,0
2025-04-22T17:17:44.087+03:00,1745331459.217669,40.95219958186703,29.14026822168964,76.1451,-1,-1,-1,-1,30,18.38710864918669,-9999,39271.466846125,-0.7880401611328125,0.500396728515625,-0.392181396484375,39271.45677012501,-2.77501262037712,-1.138247872411057,-0.5146135512303069,-0.003809517249464989,-0.02689160220324993,-0.01449265610426664,-1.788139343261719e-06,-0.01002085208892822,5.635619163513184e-05,XArbitraryZVertical,0.5514948926657409,-0.1157856314146479,0.7760004110799328,-0.2833200250088418,-0.7903117537498474,0.4921984970569611,-0.3648941516876221,0,0,0,-1,-1,39266.84337537501,unknown,2,2025-04-22T17:17:39.459+03:00,2025-04-21T17:08:51.449+03:00,9030,1.057261,0,0,7531.346,7,22,2025-04-22T17:16:53.031+03:00,767024262.1388104,0,-10.57,100.3307,1,0.4,2025-04-22T17:17:39.158+03:00,85,1.416666666666667,2025-04-22T14:20:19.516+03:00,0.02197104130929222,0
2025-04-22T17:17:44.097+03:00,1745331459.217669,40.95219958186703,29.14026822168964,76.1451,-1,-1,-1,-1,30,18.38710864918669,-9999,39271.476921125,-0.7837677001953125,0.5114593505859375,-0.413726806640625,39271.466846125,-2.774753401962565,-1.138476762418261,-0.5142922590983683,0.06922740489244461,-0.04533905163407326,-0.02402570843696594,-0.002048313617706299,0.001001030206680298,-0.00808444619178772,XArbitraryZVertical,0.5515964828129979,-0.1155490256309478,0.77594970288309,-0.283357789166107,-0.7905388474464417,0.4919187724590302,-0.3647794723510742,0,0,0,-1,-1,39266.84337537501,unknown,2,2025-04-22T17:17:39.459+03:00,2025-04-21T17:08:51.449+03:00,9030,1.057261,0,0,7531.346,7,22,2025-04-22T17:16:53.031+03:00,767024262.1388104,0,-10.57,100.3307,1,0.4,2025-04-22T17:17:39.158+03:00,85,1.416666666666667,2025-04-22T14:20:19.516+03:00,0.02197104130929222,0
2025-04-22T17:17:44.107+03:00,1745331459.217669,40.95219958186703,29.14026822168964,76.1451,-1,-1,-1,-1,30,18.38710864918669,-9999,39271.486997125,-0.77764892578125,0.5164337158203125,-0.4144134521484375,39271.476921125,-2.774045694613282,-1.13878735294062,-0.5136792109414087,0.08742804825305939,-0.0830051451921463,-0.04274796321988106,0.003419876098632812,0.01040023565292358,-0.03060364723205566,XArbitraryZVertical,0.551753466039081,-0.115056607741394,0.7758575409244324,-0.2835051272107712,-0.790925920009613,0.4913849532604218,-0.3646601736545563,0,0,0,-1,-1,39266.84337537501,unknown,2,2025-04-22T17:17:39.459+03:00,2025-04-21T17:08:51.449+03:00,9030,1.057261,0,0,7531.346,7,22,2025-04-22T17:16:53.031+03:00,767024262.1388104,0,-10.57,100.3307,1,0.4,2025-04-22T17:17:39.158+03:00,85,1.416666666666667,2025-04-22T14:20:19.516+03:00,0.02197104130929222,0
2025-04-22T17:17:44.123+03:00,1745331459.217669,40.95219958186703,29.14026822168964,76.1451,-1,-1,-1,-1,30,18.38710864918669,-9999,39271.497073125,-0.782318115234375,0.49224853515625,-0.3856658935546875,39271.486997125,-2.774049355303269,-1.139787681236782,-0.5130898083801627,-0.05538662523031235,-0.108306497335434,-0.07035029679536819,0.008914828300476074,0.02157953381538391,-0.05132415890693665,XArbitraryZVertical,0.5521370901757013,-0.1146724929796558,0.7756719338116085,-0.2834215110646818,-0.7915531992912292,0.4908715188503265,-0.3639897108078003,0,0,0,-1,-1,39266.84337537501,unknown,2,2025-04-22T17:17:39.459+03:00,2025-04-21T17:08:51.449+03:00,9030,1.057261,0,0,7531.346,7,22,2025-04-22T17:16:53.031+03:00,767024262.1388104,0,-10.57,100.3307,1,0.4,2025-04-22T17:17:39.158+03:00,85,1.416666666666667,2025-04-22T14:20:19.516+03:00,0.02197104130929222,0
2025-04-22T17:17:44.128+03:00,1745331459.217669,40.95219958186703,29.14026822168964,76.1451,-1,-1,-1,-1,30,18.38710864918669,-9999,39271.50714912501,-0.7939605712890625,0.435333251953125,-0.3520965576171875,39271.497073125,-2.77612894097819,-1.141993717497074,-0.5131319469369309,-0.2917399108409882,-0.1265298426151276,-0.07541023939847946,0.01537328958511353,0.02544909715652466,-0.04992127418518066,XArbitraryZVertical,0.5528733895101715,-0.1149521130971679,0.7753504961160668,-0.2827517906531951,-0.7923355102539062,0.4909082353115082,-0.3622340559959412,0,0,0,-1,-1,39266.84337537501,unknown,2,2025-04-22T17:17:39.459+03:00,2025-04-21T17:08:51.449+03:00,9030,1.057261,0,0,7531.346,7,22,2025-04-22T17:16:53.031+03:00,767024262.1388104,0,-10.57,100.3307,1,0.4,2025-04-22T17:17:39.158+03:00,85,1.416666666666667,2025-04-22T14:20:19.516+03:00,0.02197104130929222,0
2025-04-22T17:17:44.137+03:00,1745331459.217669,40.95219958186703,29.14026822168964,76.1451,-1,-1,-1,-1,30,18.38710864918669,-9999,39271.517224125,-0.80987548828125,0.435272216796875,-0.3358917236328125,39271.50714912501,-2.781281092367989,-1.145886418946771,-0.5142900511578132,-0.6101237535476685,-0.1322026401758194,-0.08360371738672256,0.01018589735031128,-0.006489098072052002,-0.02173352241516113,XArbitraryZVertical,0.5540907661916344,-0.1163065943749247,0.7748233580944833,-0.2812560221405294,-0.7932210564613342,0.4919168651103973,-0.3589124083518982,0,0,0,-1,-1,39266.84337537501,unknown,2,2025-04-22T17:17:39.459+03:00,2025-04-21T17:08:51.449+03:00,9030,1.057261,0,0,7531.346,7,22,2025-04-22T17:16:53.031+03:00,767024262.1388104,0,-10.57,100.3307,1,0.4,2025-04-22T17:17:39.158+03:00,85,1.416666666666667,2025-04-22T14:20:19.516+03:00,0.02197104130929222,0
2025-04-22T17:17:44.147+03:00,1745331459.217669,40.95219958186703,29.14026822168964,76.1451,-1,-1,-1,-1,30,18.38710864918669,-9999,39271.527300125,-0.8257293701171875,0.4562530517578125,-0.351531982421875,39271.517224125,-2.789555532925043,-1.151216375080031,-0.516504650135268,-0.8480268716812134,-0.1169230192899704,-0.09369749575853348,-0.001177310943603516,-0.06279832124710083,0.004503190517425537,XArbitraryZVertical,0.5556768824035179,-0.118767792831926,0.7741671244277467,-0.2788954746673727,-0.7941259741783142,0.4938437640666962,-0.3542348146438599,0,0,0,-1,-1,39266.84337537501,unknown,2,2025-04-22T17:17:39.459+03:00,2025-04-21T17:08:51.449+03:00,9030,1.057261,0,0,7531.346,7,22,2025-04-22T17:16:53.031+03:00,767024262.1388104,0,-10.57,100.3307,1,0.4,2025-04-22T17:17:39.158+03:00,85,1.416666666666667,2025-04-22T14:20:19.516+03:00,0.02197104130929222,0
2025-04-22T17:17:44.157+03:00,1745331459.217669,40.95219958186703,29.14026822168964,76.1451,-1,-1,-1,-1,30,18.38710864918669,-9999,39271.537376125,-0.812896728515625,0.4523773193359375,-0.4132537841796875,39271.527300125,-2.799159313907911,-1.157210805284933,-0.5192052747749927,-0.8779237866401672,-0.1424369066953659,-0.08640842139720917,-0.01698535680770874,-0.05745440721511841,0.0136340856552124,XArbitraryZVertical,0.5574218986972512,-0.1217184790117743,0.7734233207105913,-0.2761915915692007,-0.7950109243392944,0.4961903095245361,-0.3489308655261993,0,0,0,-1,-1,39266.84337537501,unknown,2,2025-04-22T17:17:39.459+03:00,2025-04-21T17:08:51.449+03:00,9030,1.057261,0,0,7531.346,7,22,2025-04-22T17:16:53.031+03:00,767024262.1388104,0,-10.57,100.3307,1,0.4,2025-04-22T17:17:39.158+03:00,85,1.416666666666667,2025-04-22T14:20:19.516+03:00,0.02197104130929222,0
2025-04-22T17:17:44.168+03:00,1745331459.217669,40.95219958186703,29.14026822168964,76.1451,-1,-1,-1,-1,30,18.38710864918669,-9999,39271.547451125,-0.7962188720703125,0.483245849609375,-0.444580078125,39271.537376125,-2.808855923455341,-1.163695277616961,-0.5218207262288639,-0.8605955839157104,-0.1932121366262436,-0.09768261760473251,-0.02910232543945312,-0.04296937584877014,-0.01422980427742004,XArbitraryZVertical,0.5593266916006011,-0.1246074456303893,0.7725514593423354,-0.273478855188139,-0.7960622906684875,0.4984593689441681,-0.3432532846927643,0,0,0,-1,-1,39266.84337537501,unknown,2,2025-04-22T17:17:39.459+03:00,2025-04-21T17:08:51.449+03:00,9030,1.057261,0,0,7531.346,7,22,2025-04-22T17:16:53.031+03:00,767024262.1388104,0,-10.57,100.3307,1,0.4,2025-04-22T17:17:39.158+03:00,85,1.416666666666667,2025-04-22T14:20:19.516+03:00,0.02197104130929222,0
2025-04-22T17:17:44.178+03:00,1745331459.217669,40.95219958186703,29.14026822168964,76.1451,-1,-1,-1,-1,30,18.38710864918669,-9999,39271.55752712501,-0.78326416015625,0.5117034912109375,-0.4590911865234375,39271.547451125,-2.818267988882051,-1.170712767285002,-0.5242146334937101,-0.8078375458717346,-0.2673321664333344,-0.09946081042289734,-0.01385271549224854,-0.04670649766921997,-0.08286657929420471,XArbitraryZVertical,0.561432196454002,-0.1272693903741328,0.7715073157189968,-0.2708739578600543,-0.7973501682281494,0.5005332827568054,-0.3371927738189697,0,0,0,-1,-1,39266.84337537501,unknown,2,2025-04-22T17:17:39.459+03:00,2025-04-21T17:08:51.449+03:00,9030,1.057261,0,0,7531.346,7,22,2025-04-22T17:16:53.031+03:00,767024262.1388104,0,-10.57,100.3307,1,0.4,2025-04-22T17:17:39.158+03:00,85,1.416666666666667,2025-04-22T14:20:19.516+03:00,0.02197104130929222,0
2025-04-22T17:17:44.188+03:00,1745331459.217669,40.95219958186703,29.14026822168964,76.1451,-1,-1,-1,-1,30,18.38710864918669,-9999,39271.567603125,-0.774139404296875,0.496002197265625,-0.469818115234375,39271.55752712501,-2.827180955324835,-1.178273629013505,-0.5263847613458575,-0.7762852907180786,-0.3509147465229034,-0.09455636143684387,0.004071652889251709,-0.013336181640625,-0.1153373718261719,XArbitraryZVertical,0.563758389013723,-0.1296431685182879,0.7702584653198818,-0.2684601247072017,-0.7988712787628174,0.5024107694625854,-0.3307382464408875,0,0,0,-1,-1,39266.84337537501,unknown,2,2025-04-22T17:17:39.459+03:00,2025-04-21T17:08:51.449+03:00,9030,1.057261,0,0,7531.346,7,22,2025-04-22T17:16:53.031+03:00,767024262.1388104,0,-10.57,100.3307,1,0.4,2025-04-22T17:17:39.158+03:00,85,1.416666666666667,2025-04-22T14:20:19.516+03:00,0.02197104130929222,0
2025-04-22T17:17:44.198+03:00,1745331459.217669,40.95219958186703,29.14026822168964,76.1451,-1,-1,-1,-1,30,18.38710864918669,-9999,39271.577679125,-0.767120361328125,0.4705657958984375,-0.470916748046875,39271.567603125,-2.83603444043266,-1.186825154736377,-0.52855601897386,-0.8147628903388977,-0.4628268778324127,-0.08088023215532303,0.01849174499511719,0.007813155651092529,-0.1371014416217804,XArbitraryZVertical,0.5664481267036281,-0.1318858895424197,0.7687031511337519,-0.2661538855745127,-0.8006570339202881,0.5042869448661804,-0.323485255241394,0,0,0,-1,-1,39266.84337537501,unknown,2,2025-04-22T17:17:39.459+03:00,2025-04-21T17:08:51.449+03:00,9030,1.057261,0,0,7531.346,7,22,2025-04-22T17:16:53.031+03:00,767024262.1388104,0,-10.57,100.3307,1,0.4,2025-04-22T17:17:39.158+03:00,85,1.416666666666667,2025-04-22T14:20:19.516+03:00,0.02197104130929222,0
2025-04-22T17:17:44.208+03:00,1745331459.217669,40.95219958186703,29.14026822168964,76.1451,-1,-1,-1,-1,30,18.38710864918669,-9999,39271.587754125,-0.773529052734375,0.45318603515625,-0.456146240234375,39271.577679125,-2.845654133017958,-1.196833232753686,-0.5311265546728622,-0.9129459261894226,-0.5574237108230591,-0.05757850781083107,0.03018426895141602,-0.01390564441680908,-0.1560421288013458,XArbitraryZVertical,0.569616701608503,-0.1343355021580802,0.7667554318841189,-0.2637739261735129,-0.8026449680328369,0.506505012512207,-0.3149815797805786,0,0,0,-1,-1,39266.84337537501,unknown,2,2025-04-22T17:17:39.459+03:00,2025-04-21T17:08:51.449+03:00,9030,1.057261,0,0,7531.346,7,22,2025-04-22T17:16:53.031+03:00,767024262.1388104,0,-10.57,100.3307,1,0.4,2025-04-22T17:17:39.158+03:00,85,1.416666666666667,2025-04-22T14:20:19.516+03:00,0.02197104130929222,0
2025-04-22T17:17:44.218+03:00,1745331459.217669,40.95219958186703,29.14026822168964,76.1451,-1,-1,-1,-1,30,18.38710864918669,-9999,39271.597830125,-0.7872467041015625,0.4533843994140625,-0.4431610107421875,39271.587754125,-2.856625520161907,-1.208398095647731,-0.5342056562968672,-1.059074640274048,-0.6264845728874207,-0.04308106005191803,0.037727952003479,-0.04112482070922852,-0.164099246263504,XArbitraryZVertical,0.5732493928846013,-0.1371976217252866,0.7644386921747937,-0.2611421768218014,-0.8047718405723572,0.5091575384140015,-0.305123895406723,0,0,0,-1,-1,39266.84337537501,unknown,2,2025-04-22T17:17:39.459+03:00,2025-04-21T17:08:51.449+03:00,9030,1.057261,0,0,7531.346,7,22,2025-04-22T17:16:53.031+03:00,767024262.1388104,0,-10.57,100.3307,1,0.4,2025-04-22T17:17:39.158+03:00,85,1.416666666666667,2025-04-22T14:20:19.516+03:00,0.02197104130929222,0
2025-04-22T17:17:44.228+03:00,1745331459.217669,40.95219958186703,29.14026822168964,76.1451,-1,-1,-1,-1,30,18.38710864918669,-9999,39271.60790612501,-0.7928466796875,0.456390380859375,-0.42767333984375,39271.597830125,-2.869017255961261,-1.221344142879509,-0.5378011449126555,-1.142065525054932,-0.6909947395324707,-0.0269670020788908,0.03198128938674927,-0.05974948406219482,-0.1597452461719513,XArbitraryZVertical,0.577257431446333,-0.1405282753484076,0.7617994995956708,-0.2582383675300338,-0.8069292306900024,0.5122487545013428,-0.294051319360733,0,0,0,-1,-1,39266.84337537501,unknown,2,2025-04-22T17:17:39.459+03:00,2025-04-21T17:08:51.449+03:00,9030,1.057261,0,0,7531.346,7,22,2025-04-22T17:16:53.031+03:00,767024262.1388104,0,-10.57,100.3307,1,0.4,2025-04-22T17:17:39.158+03:00,85,1.416666666666667,2025-04-22T14:20:19.516+03:00,0.02197104130929222,0
2025-04-22T17:17:44.238+03:00,1745331459.217669,40.95219958186703,29.14026822168964,76.1451,-1,-1,-1,-1,30,18.38710864918669,-9999,39271.617981125,-0.7901763916015625,0.4492340087890625,-0.40869140625,39271.60790612501,-2.881375445307346,-1.235085773378623,-0.5414959758181266,-1.065060973167419,-0.7675219774246216,0.01648486778140068,0.02055758237838745,-0.06085926294326782,-0.1592490673065186,XArbitraryZVertical,0.5815150920644847,-0.1438236095460459,0.7588705844314481,-0.2554804837479742,-0.8091011643409729,0.515418529510498,-0.2823099195957184,0,0,0,-1,-1,39266.84337537501,unknown,2,2025-04-22T17:17:39.459+03:00,2025-04-21T17:08:51.449+03:00,9030,1.057261,0,0,7531.346,7,22,2025-04-22T17:16:53.031+03:00,767024262.1388104,0,-10.57,100.3307,1,0.4,2025-04-22T17:17:39.158+03:00,85,1.416666666666667,2025-04-22T14:20:19.516+03:00,0.02197104130929222,0
2025-04-22T17:17:44.248+03:00,1745331459.217669,40.95219958186703,29.14026822168964,76.1451,-1,-1,-1,-1,30,18.38710864918669,-9999,39271.628057125,-0.7866058349609375,0.498748779296875,-0.446990966796875,39271.617981125,-2.891340770771911,-1.248356738414203,-0.5449105129238596,-0.7190621495246887,-0.8573749661445618,0.06216111034154892,0.01769125461578369,-0.06314152479171753,-0.1541672050952911,XArbitraryZVertical,0.5857232495759819,-0.1464034985031284,0.7557749201659136,-0.2535714443779744,-0.8111023902893066,0.5183415412902832,-0.2709885835647583,0,0,0,-1,-1,39266.84337537501,unknown,2,2025-04-22T17:17:39.459+03:00,2025-04-21T17:08:51.449+03:00,9030,1.057261,0,0,7531.346,7,22,2025-04-22T17:16:53.031+03:00,767024262.1388104,0,-10.57,100.3307,1,0.4,2025-04-22T17:17:39.158+03:00,85,1.416666666666667,2025-04-22T14:20:19.516+03:00,0.02197104130929222,0
2025-04-22T17:17:44.258+03:00,1745331459.217669,40.95219958186703,29.14026822168964,76.1451,-1,-1,-1,-1,30,18.38710864918669,-9999,39271.638133125,-0.7981109619140625,0.5880279541015625,-0.526275634765625,39271.628057125,-2.896143761052048,-1.260030786153902,-0.5467443109799124,-0.1817435622215271,-0.9441221356391907,0.02500495128333569,0.0237688422203064,-0.06798940896987915,-0.1484882831573486,XArbitraryZVertical,0.5897178197313698,-0.1470635765601777,0.7526901722660895,-0.253106046194862,-0.8133042454719543,0.5199089050292969,-0.2612103819847107,0,0,0,-1,-1,39266.84337537501,unknown,2,2025-04-22T17:17:39.459+03:00,2025-04-21T17:08:51.449+03:00,9030,1.057261,0,0,7531.346,7,22,2025-04-22T17:16:53.031+03:00,767024262.1388104,0,-10.57,100.3307,1,0.4,2025-04-22T17:17:39.158+03:00,85,1.416666666666667,2025-04-22T14:20:19.516+03:00,0.02197104130929222,0
2025-04-22T17:17:44.269+03:00,1745331459.217669,40.95219958186703,29.14026822168964,76.1451,-1,-1,-1,-1,30,18.38710864918669,-9999,39271.648208125,-0.784698486328125,0.6185302734375,-0.5504302978515625,39271.638133125,-2.896115259409188,-1.269936725012029,-0.5468519188196056,0.1733042150735855,-1.03082013130188,0.009005977772176266,0.02777355909347534,-0.01061677932739258,-0.2044408917427063,XArbitraryZVertical,0.5934372576014919,-0.1458421477047619,0.749741082190239,-0.2538710906506895,-0.8157984018325806,0.5200008153915405,-0.2531245648860931,0,0,0,-1,-1,39266.84337537501,unknown,2,2025-04-22T17:17:39.459+03:00,2025-04-21T17:08:51.449+03:00,9030,1.057261,0,0,7531.346,7,22,2025-04-22T17:16:53.031+03:00,767024262.1388104,0,-10.57,100.3307,1,0.4,2025-04-22T17:17:39.158+03:00,85,1.416666666666667,2025-04-22T14:20:19.516+03:00,0.02197104130929222,0
2025-04-22T17:17:44.279+03:00,1745331459.217669,40.95219958186703,29.14026822168964,76.1451,-1,-1,-1,-1,30,18.38710864918669,-9999,39271.65828412501,-0.7460174560546875,0.5680389404296875,-0.5327606201171875,39271.648208125,-2.892885743786789,-1.279055486645042,-0.5461864722315148,0.3595151007175446,-1.118060708045959,0.02331114932894707,0.01991158723831177,0.07802551984786987,-0.287321925163269,XArbitraryZVertical,0.5971035662258752,-0.1434574484328145,0.7467108910963116,-0.2555585405227998,-0.8184038996696472,0.5194323062896729,-0.245774582028389,0,0,0,-1,-1,39266.84337537501,unknown,2,2025-04-22T17:17:39.459+03:00,2025-04-21T17:08:51.449+03:00,9030,1.057261,0,0,7531.346,7,22,2025-04-22T17:16:53.031+03:00,767024262.1388104,0,-10.57,100.3307,1,0.4,2025-04-22T17:17:39.158+03:00,85,1.416666666666667,2025-04-22T14:20:19.516+03:00,0.02197104130929222,0
2025-04-22T17:17:44.289+03:00,1745331459.217669,40.95219958186703,29.14026822168964,76.1451,-1,-1,-1,-1,30,18.38710864918669,-9999,39271.668360125,-0.71783447265625,0.514892578125,-0.5117645263671875,39271.65828412501,-2.888009951758313,-1.288185078862324,-0.5453334618716267,0.461325466632843,-1.189192175865173,0.06027908623218536,0.04007875919342041,0.09633272886276245,-0.3100916743278503,XArbitraryZVertical,0.6008779610679554,-0.1404904768044929,0.7434729435958698,-0.257790680821617,-0.8210387229919434,0.5187032222747803,-0.2384162098169327,0,0,0,-1,-1,39266.84337537501,unknown,2,2025-04-22T17:17:39.459+03:00,2025-04-21T17:08:51.449+03:00,9030,1.057261,0,0,7531.346,7,22,2025-04-22T17:16:53.031+03:00,767024262.1388104,0,-10.57,100.3307,1,0.4,2025-04-22T17:17:39.158+03:00,85,1.416666666666667,2025-04-22T14:20:19.516+03:00,0.02197104130929222,0
2025-04-22T17:17:44.299+03:00,1745331459.217669,40.95219958186703,29.14026822168964,76.1451,-1,-1,-1,-1,30,18.38710864918669,-9999,39271.678436125,-0.7115325927734375,0.498138427734375,-0.460601806640625,39271.668360125,-2.88310553994104,-1.29789117431468,-0.5451588897963001,0.3299463987350464,-1.25688099861145,0.1262226849794388,0.08237361907958984,0.04151982069015503,-0.2999199628829956,XArbitraryZVertical,0.6048240494256082,-0.1376867768867966,0.7399372454491736,-0.2602366807430841,-0.8234013915061951,0.5185539722442627,-0.2304604351520538,0,0,0,-1,-1,39266.84337537501,unknown,2,2025-04-22T17:17:39.459+03:00,2025-04-21T17:08:51.449+03:00,9030,1.057261,0,0,7531.346,7,22,2025-04-22T17:16:53.031+03:00,767024262.1388104,0,-10.57,100.3307,1,0.4,2025-04-22T17:17:39.158+03:00,85,1.416666666666667,2025-04-22T14:20:19.516+03:00,0.02197104130929222,0
2025-04-22T17:17:44.308+03:00,1745331459.217669,40.95219958186703,29.14026822168964,76.1451,-1,-1,-1,-1,30,18.38710864918669,-9999,39271.688511125,-0.7385711669921875,0.4857940673828125,-0.409759521484375,39271.678436125,-2.879672977364742,-1.309140034781636,-0.5458721462328857,0.205006942152977,-1.324974417686462,0.1661367118358612,0.1097180843353271,-0.007872343063354492,-0.2869841158390045,XArbitraryZVertical,0.6091866875411625,-0.1354533352423014,0.7359716983958959,-0.2624680196132931,-0.8255839943885803,0.5191636681556702,-0.2210879474878311,0,0,0,-1,-1,39266.84337537501,unknown,2,2025-04-22T17:17:39.459+03:00,2025-04-21T17:08:51.449+03:00,9030,1.057261,0,0,7531.346,7,22,2025-04-22T17:16:53.031+03:00,767024262.1388104,0,-10.57,100.3307,1,0.4,2025-04-22T17:17:39.158+03:00,85,1.416666666666667,2025-04-22T14:20:19.516+03:00,0.02197104130929222,0
2025-04-22T17:17:44.318+03:00,1745331459.217669,40.95219958186703,29.14026822168964,76.1451,-1,-1,-1,-1,30,18.38710864918669,-9999,39271.698587125,-0.76690673828125,0.506683349609375,-0.390411376953125,39271.688511125,-2.877269345754275,-1.321409028337226,-0.5473970767117267,0.1173798888921738,-1.356477737426758,0.22465780377388,0.1139348149299622,-0.02423542737960815,-0.2422715425491333,XArbitraryZVertical,0.6138016081437566,-0.1336943004002201,0.7316834248913738,-0.2645990115756551,-0.8274661898612976,0.5204663872718811,-0.2107468396425247,0,0,0,-1,-1,39266.84337537501,unknown,2,2025-04-22T17:17:39.459+03:00,2025-04-21T17:08:51.449+03:00,9030,1.057261,0,0,7531.346,7,22,2025-04-22T17:16:53.031+03:00,767024262.1388104,0,-10.57,100.3307,1,0.4,2025-04-22T17:17:39.158+03:00,85,1.416666666666667,2025-04-22T14:20:19.516+03:00,0.02197104130929222,0
2025-04-22T17:17:44.328+03:00,1745331459.217669,40.95219958186703,29.14026822168964,76.1451,-1,-1,-1,-1,30,18.38710864918669,-9999,39271.70866312501,-0.787200927734375,0.53497314453125,-0.3680877685546875,39271.698587125,-2.875511033636568,-1.334283612159053,-0.5496866778335967,0.08978734910488129,-1.382360339164734,0.2818464934825897,0.08697634935379028,-0.03600043058395386,-0.2068197429180145,XArbitraryZVertical,0.6185393932764249,-0.1323279502097308,0.7271516282988046,-0.2667373518215001,-0.8289502263069153,0.5224201083183289,-0.199796661734581,0,0,0,-1,-1,39266.84337537501,unknown,2,2025-04-22T17:17:39.459+03:00,2025-04-21T17:08:51.449+03:00,9030,1.057261,0,0,7531.346,7,22,2025-04-22T17:16:53.031+03:00,767024262.1388104,0,-10.57,100.3307,1,0.4,2025-04-22T17:17:39.158+03:00,85,1.416666666666667,2025-04-22T14:20:19.516+03:00,0.02197104130929222,0
2025-04-22T17:17:44.339+03:00,1745331459.217669,40.95219958186703,29.14026822168964,76.1451,-1,-1,-1,-1,30,18.38710864918669,-9999,39271.718738125,-0.804718017578125,0.51080322265625,-0.3403472900390625,39271.70866312501,-2.873352676541229,-1.347252049492256,-0.5524289633901592,0.1409775614738464,-1.413532376289368,0.3314401507377625,0.06040298938751221,-0.01364809274673462,-0.1984039545059204,XArbitraryZVertical,0.6232892154476031,-0.1309759979885022,0.7224374821043877,-0.2691467196413579,-0.8300714492797852,0.5247564315795898,-0.1887116879224777,0,0,0,-1,-1,39266.84337537501,unknown,2,2025-04-22T17:17:39.459+03:00,2025-04-21T17:08:51.449+03:00,9030,1.057261,0,0,7531.346,7,22,2025-04-22T17:16:53.031+03:00,767024262.1388104,0,-10.57,100.3307,1,0.4,2025-04-22T17:17:39.158+03:00,85,1.416666666666667,2025-04-22T14:20:19.516+03:00,0.02197104130929222,0
2025-04-22T17:17:44.349+03:00,1745331459.217669,40.95219958186703,29.14026822168964,76.1451,-1,-1,-1,-1,30,18.38710864918669,-9999,39271.728814125,-0.8112030029296875,0.4775390625,-0.3127593994140625,39271.718738125,-2.8709646952963,-1.360150087858566,-0.5558157906089263,0.1054004654288292,-1.398183703422546,0.4086348414421082,0.04160058498382568,0.007748603820800781,-0.1882581114768982,XArbitraryZVertical,0.6279713281578216,-0.1297819025499198,0.7175848905013994,-0.2718097034148791,-0.8306934833526611,0.5276364684104919,-0.1776173412799835,0,0,0,-1,-1,39266.84337537501,unknown,2,2025-04-22T17:17:39.459+03:00,2025-04-21T17:08:51.449+03:00,9030,1.057261,0,0,7531.346,7,22,2025-04-22T17:16:53.031+03:00,767024262.1388104,0,-10.57,100.3307,1,0.4,2025-04-22T17:17:39.158+03:00,85,1.416666666666667,2025-04-22T14:20:19.516+03:00,0.02197104130929222,0
2025-04-22T17:17:44.359+03:00,1745331459.217669,40.95219958186703,29.14026822168964,76.1451,-1,-1,-1,-1,30,18.38710864918669,-9999,39271.738890125,-0.7917938232421875,0.4830474853515625,-0.3029327392578125,39271.728814125,-2.869134651891872,-1.373423476946795,-0.5597741406784846,0.0267634391784668,-1.436300754547119,0.4188368618488312,0.02356559038162231,-0.02618831396102905,-0.1693148761987686,XArbitraryZVertical,0.6326942784269333,-0.128900828331456,0.7125704546595865,-0.2744556036389522,-0.8309233784675598,0.5309948325157166,-0.1661650538444519,0,0,0,-1,-1,39266.84337537501,unknown,2,2025-04-22T17:17:39.459+03:00,2025-04-21T17:08:51.449+03:00,9030,1.057261,0,0,7531.346,7,22,2025-04-22T17:16:53.031+03:00,767024262.1388104,0,-10.57,100.3307,1,0.4,2025-04-22T17:17:39.158+03:00,85,1.416666666666667,2025-04-22T14:20:19.516+03:00,0.02197104130929222,0
2025-04-22T17:17:44.369+03:00,1745331459.217669,40.95219958186703,29.14026822168964,76.1451,-1,-1,-1,-1,30,18.38710864918669,-9999,39271.748966125,-0.774017333984375,0.5439910888671875,-0.2747955322265625,39271.738890125,-2.868479140963775,-1.387819587704496,-0.5641307517112258,-0.08704615384340286,-1.495618343353271,0.4581876397132874,0.02097964286804199,-0.05918723344802856,-0.1580192893743515,XArbitraryZVertical,0.6376848551170062,-0.1283594494278332,0.7072651739590688,-0.276871182637212,-0.8309465050697327,0.5346814393997192,-0.1537637561559677,0,0,0,-1,-1,39266.84337537501,unknown,2,2025-04-22T17:17:39.459+03:00,2025-04-21T17:08:51.449+03:00,9030,1.057261,0,0,7531.346,7,22,2025-04-22T17:16:53.031+03:00,767024262.1388104,0,-10.57,100.3307,1,0.4,2025-04-22T17:17:39.158+03:00,85,1.416666666666667,2025-04-22T14:20:19.516+03:00,0.02197104130929222,0
2025-04-22T17:17:44.379+03:00,1745331459.217669,40.95219958186703,29.14026822168964,76.1451,-1,-1,-1,-1,30,18.38710864918669,-9999,39271.75904112501,-0.7885894775390625,0.6421661376953125,-0.2552032470703125,39271.748966125,-2.868613841739831,-1.403183609338207,-0.5688290286390097,-0.0757138654589653,-1.528919577598572,0.4464604258537292,0.04239481687545776,-0.05243992805480957,-0.1592308133840561,XArbitraryZVertical,0.642905323869944,-0.1280365107671084,0.7016695222309675,-0.2791757892335986,-0.8307247757911682,0.53864586353302,-0.1405587941408157,0,0,0,-1,-1,39266.84337537501,unknown,2,2025-04-22T17:17:39.459+03:00,2025-04-21T17:08:51.449+03:00,9030,1.057261,0,0,7531.346,7,22,2025-04-22T17:16:53.031+03:00,767024262.1388104,0,-10.57,100.3307,1,0.4,2025-04-22T17:17:39.158+03:00,85,1.416666666666667,2025-04-22T14:20:19.516+03:00,0.02197104130929222,0
2025-04-22T17:17:44.389+03:00,1745331459.217669,40.95219958186703,29.14026822168964,76.1451,-1,-1,-1,-1,30,18.38710864918669,-9999,39271.769117125,-0.8214874267578125,0.70562744140625,-0.23828125,39271.75904112501,-2.868005843749127,-1.418249618014118,-0.5731988998334822,0.03989049419760704,-1.529997944831848,0.4245684146881104,0.05670160055160522,0.01324993371963501,-0.1432818025350571,XArbitraryZVertical,0.6480309670323172,-0.1273636841844057,0.6960726527911413,-0.2816329030141921,-0.8304136395454407,0.5423224568367004,-0.127668708562851,0,0,0,-1,-1,39266.84337537501,unknown,2,2025-04-22T17:17:39.459+03:00,2025-04-21T17:08:51.449+03:00,9030,1.057261,0,0,7531.346,7,22,2025-04-22T17:16:53.031+03:00,767024262.1388104,0,-10.57,100.3307,1,0.4,2025-04-22T17:17:39.158+03:00,85,1.416666666666667,2025-04-22T14:20:19.516+03:00,0.02197104130929222,0
2025-04-22T17:17:44.399+03:00,1745331459.217669,40.95219958186703,29.14026822168964,76.1451,-1,-1,-1,-1,30,18.38710864918669,-9999,39271.779193125,-0.83367919921875,0.7138824462890625,-0.2064208984375,39271.769117125,-2.866456297791229,-1.432841428103949,-0.5771399339714168,0.1364556401968002,-1.53438675403595,0.3826702237129211,0.03770631551742554,0.1073551177978516,-0.1386324167251587,XArbitraryZVertical,0.6530209058891686,-0.1262614458264194,0.6905193087784072,-0.2842615177331891,-0.8300645351409912,0.5456293821334839,-0.11524348706007,0,0,0,-1,-1,39266.84337537501,unknown,2,2025-04-22T17:17:39.459+03:00,2025-04-21T17:08:51.449+03:00,9030,1.057261,0,0,7531.346,7,22,2025-04-22T17:16:53.031+03:00,767024262.1388104,0,-10.57,100.3307,1,0.4,2025-04-22T17:17:39.158+03:00,85,1.416666666666667,2025-04-22T14:20:19.516+03:00,0.02197104130929222,0
2025-04-22T17:17:44.409+03:00,1745331459.217669,40.95219958186703,29.14026822168964,76.1451,-1,-1,-1,-1,30,18.38710864918669,-9999,39271.789268125,-0.8251190185546875,0.658935546875,-0.198028564453125,39271.779193125,-2.863691651724566,-1.446788762751516,-0.580586417680382,0.2242356389760971,-1.541185736656189,0.3586493730545044,0.004799604415893555,0.1612175107002258,-0.1304799765348434,XArbitraryZVertical,0.6578406455658949,-0.1246377252469347,0.6850372468189339,-0.2871146631499429,-0.8297200798988342,0.5485143661499023,-0.1034222468733788,0,0,0,-1,-1,39266.84337537501,unknown,2,2025-04-22T17:17:39.459+03:00,2025-04-21T17:08:51.449+03:00,9030,1.057261,0,0,7531.346,7,22,2025-04-22T17:16:53.031+03:00,767024262.1388104,0,-10.57,100.3307,1,0.4,2025-04-22T17:17:39.158+03:00,85,1.416666666666667,2025-04-22T14:20:19.516+03:00,0.02197104130929222,0
2025-04-22T17:17:44.419+03:00,1745331459.217669,40.95219958186703,29.14026822168964,76.1451,-1,-1,-1,-1,30,18.38710864918669,-9999,39271.799344125,-0.8131561279296875,0.5982666015625,-0.175994873046875,39271.789268125,-2.860193600640615,-1.460496291637927,-0.5837685037672236,0.2740098237991333,-1.562711238861084,0.3307801783084869,-0.004617571830749512,0.1584681868553162,-0.1133534982800484,XArbitraryZVertical,0.6625914221860438,-0.1226749811366224,0.6795286447611915,-0.2901108513785002,-0.829321026802063,0.5511722564697266,-0.09184691309928894,0,0,0,-1,-1,39266.84337537501,unknown,2,2025-04-22T17:17:39.459+03:00,2025-04-21T17:08:51.449+03:00,9030,1.057261,0,0,7531.346,7,22,2025-04-22T17:16:53.031+03:00,767024262.1388104,0,-10.57,100.3307,1,0.4,2025-04-22T17:17:39.158+03:00,85,1.416666666666667,2025-04-22T14:20:19.516+03:00,0.02197104130929222,0
2025-04-22T17:17:44.430+03:00,1745331459.217669,40.95219958186703,29.14026822168964,76.1451,-1,-1,-1,-1,30,18.38710864918669,-9999,39271.80942012501,-0.8107452392578125,0.5568695068359375,-0.1638641357421875,39271.799344125,-2.856162845059468,-1.473969409891588,-0.5866179174143267,0.2872034907341003,-1.553566932678223,0.3113826811313629,0.005735456943511963,0.09763652086257935,-0.1153793409466743,XArbitraryZVertical,0.6672662814202863,-0.1204122184032541,0.6740303525117869,-0.293154747339473,-0.828916609287262,0.5535475611686707,-0.08051321655511856,0,0,0,-1,-1,39266.84337537501,unknown,2,2025-04-22T17:17:39.459+03:00,2025-04-21T17:08:51.449+03:00,9030,1.057261,0,0,7531.346,7,22,2025-04-22T17:16:53.031+03:00,767024262.1388104,0,-10.57,100.3307,1,0.4,2025-04-22T17:17:39.158+03:00,85,1.416666666666667,2025-04-22T14:20:19.516+03:00,0.02197104130929222,0
2025-04-22T17:17:44.440+03:00,1745331459.217669,40.95219958186703,29.14026822168964,76.1451,-1,-1,-1,-1,30,18.38710864918669,-9999,39271.819496125,-0.7975006103515625,0.583526611328125,-0.1206817626953125,39271.80942012501,-2.852956713432843,-1.487883025874886,-0.5894127503959822,0.1881101876497269,-1.565176248550415,0.2878589630126953,0.01676607131958008,0.03493195772171021,-0.1043433472514153,XArbitraryZVertical,0.6719982378801754,-0.1183059204751722,0.6684746329928484,-0.2959114484702163,-0.8284114003181458,0.5558729767799377,-0.06884415447711945,0,0,0,-1,-1,39266.84337537501,unknown,2,2025-04-22T17:17:39.459+03:00,2025-04-21T17:08:51.449+03:00,9030,1.057261,0,0,7531.346,7,22,2025-04-22T17:16:53.031+03:00,767024262.1388104,0,-10.57,100.3307,1,0.4,2025-04-22T17:17:39.158+03:00,85,1.416666666666667,2025-04-22T14:20:19.516+03:00,0.02197104130929222,0
2025-04-22T17:17:44.450+03:00,1745331459.217669,40.95219958186703,29.14026822168964,76.1451,-1,-1,-1,-1,30,18.38710864918669,-9999,39271.829571125,-0.795379638671875,0.637603759765625,-0.0795745849609375,39271.819496125,-2.850317771408669,-1.502419019091561,-0.5917056567362617,0.2223543077707291,-1.601622700691223,0.1996548920869827,0.01861792802810669,-0.0009081363677978516,-0.1038601398468018,XArbitraryZVertical,0.6768826270731446,-0.1160851587274873,0.6628308908173003,-0.2983440835954898,-0.8280507922172546,0.5577775239944458,-0.05670829117298126,0,0,0,-1,-1,39266.84337537501,unknown,2,2025-04-22T17:17:39.459+03:00,2025-04-21T17:08:51.449+03:00,9030,1.057261,0,0,7531.346,7,22,2025-04-22T17:16:53.031+03:00,767024262.1388104,0,-10.57,100.3307,1,0.4,2025-04-22T17:17:39.158+03:00,85,1.416666666666667,2025-04-22T14:20:19.516+03:00,0.02197104130929222,0
2025-04-22T17:17:44.460+03:00,1745331459.217669,40.95219958186703,29.14026822168964,76.1451,-1,-1,-1,-1,30,18.38710864918669,-9999,39271.839648,-0.8105926513671875,0.66387939453125,-0.0418701171875,39271.829571125,-2.847969839618112,-1.51737868922087,-0.5932764629750543,0.1366774886846542,-1.63883113861084,0.137713760137558,0.03227633237838745,0.03143453598022461,-0.06905901432037354,XArbitraryZVertical,0.6818784038478443,-0.1136122164558711,0.6571576101173757,-0.3004628908049308,-0.8279306292533875,0.5590806007385254,-0.04426821321249008,0,0,0,-1,-1,39266.84337537501,unknown,2,2025-04-22T17:17:39.459+03:00,2025-04-21T17:08:51.449+03:00,9030,1.057261,0,0,7531.346,7,22,2025-04-22T17:16:53.031+03:00,767024262.1388104,0,-10.57,100.3307,1,0.4,2025-04-22T17:17:39.158+03:00,85,1.416666666666667,2025-04-22T14:20:19.516+03:00,0.02197104130929222,0
2025-04-22T17:17:44.470+03:00,1745331459.217669,40.95219958186703,29.14026822168964,76.1451,-1,-1,-1,-1,30,18.38710864918669,-9999,39271.849724,-0.8282012939453125,0.6405487060546875,-0.028900146484375,39271.839648,-2.846590972281347,-1.533412347977132,-0.5942801078102431,0.1331358253955841,-1.681190013885498,0.0682779923081398,0.03022819757461548,0.08197897672653198,-0.044930100440979,XArbitraryZVertical,0.6871513059523485,-0.1110828893805514,0.6513086499741826,-0.3021270094675802,-0.8279728889465332,0.5599124431610107,-0.03096734918653965,0,0,0,-1,-1,39266.84337537501,unknown,2,2025-04-22T17:17:39.459+03:00,2025-04-21T17:08:51.449+03:00,9030,1.057261,0,0,7531.346,7,22,2025-04-22T17:16:53.031+03:00,767024262.1388104,0,-10.57,100.3307,1,0.4,2025-04-22T17:17:39.158+03:00,85,1.416666666666667,2025-04-22T14:20:19.516+03:00,0.02197104130929222,0
2025-04-22T17:17:44.480+03:00,1745331459.217669,40.95219958186703,29.14026822168964,76.1451,-1,-1,-1,-1,30,18.38710864918669,-9999,39271.85979900001,-0.8467864990234375,0.58050537109375,-0.036468505859375,39271.849724,-2.845786885739709,-1.550057483901221,-0.5947049153002907,-0.03430377691984177,-1.717008471488953,0.02767490409314632,0.01624614000320435,0.1046525835990906,-0.02054291963577271,XArbitraryZVertical,0.6925699222585358,-0.108436079851555,0.6453804690870079,-0.3034345605251746,-0.8281356692314148,0.5602643489837646,-0.0171770378947258,0,0,0,-1,-1,39266.84337537501,unknown,2,2025-04-22T17:17:39.459+03:00,2025-04-21T17:08:51.449+03:00,9030,1.057261,0,0,7531.346,7,22,2025-04-22T17:16:53.031+03:00,767024262.1388104,0,-10.57,100.3307,1,0.4,2025-04-22T17:17:39.158+03:00,85,1.416666666666667,2025-04-22T14:20:19.516+03:00,0.02197104130929222,0
2025-04-22T17:17:44.490+03:00,1745331459.217669,40.95219958186703,29.14026822168964,76.1451,-1,-1,-1,-1,30,18.38710864918669,-9999,39271.869875,-0.850341796875,0.553253173828125,-0.0012664794921875,39271.85979900001,-2.847130248444093,-1.568168307006914,-0.5948345964073005,-0.2022957801818848,-1.722434878349304,0.001562043558806181,-0.003457248210906982,0.07289838790893555,-0.02942454814910889,XArbitraryZVertical,0.6983076555726339,-0.1061984107750411,0.6392671278727327,-0.3040160440925404,-0.8282381892204285,0.5603717565536499,-0.002176631474867463,0,0,0,-1,-1,39266.84337537501,unknown,2,2025-04-22T17:17:39.459+03:00,2025-04-21T17:08:51.449+03:00,9030,1.057261,0,0,7531.346,7,22,2025-04-22T17:16:53.031+03:00,767024262.1388104,0,-10.57,100.3307,1,0.4,2025-04-22T17:17:39.158+03:00,85,1.416666666666667,2025-04-22T14:20:19.516+03:00,0.02197104130929222,0
2025-04-22T17:17:44.500+03:00,1745331459.217669,40.95219958186703,29.14026822168964,76.1451,-1,-1,-1,-1,30,18.38710864918669,-9999,39271.879951,-0.8436126708984375,0.54437255859375,0.0408477783203125,39271.869875,-2.851171246146731,-1.58772110464843,-0.5947739038014073,-0.4617907404899597,-1.709861040115356,-0.01479509193450212,-0.01946920156478882,0.0148431658744812,-0.04679381847381592,XArbitraryZVertical,0.7043172477002608,-0.1046234438322803,0.6330338900209093,-0.3037417648583853,-0.8281563520431519,0.5603215098381042,0.01401770114898682,0,0,0,-1,-1,39266.84337537501,unknown,2,2025-04-22T17:17:39.459+03:00,2025-04-21T17:08:51.449+03:00,9030,1.057261,0,0,7531.346,7,22,2025-04-22T17:16:53.031+03:00,767024262.1388104,0,-10.57,100.3307,1,0.4,2025-04-22T17:17:39.158+03:00,85,1.416666666666667,2025-04-22T14:20:19.516+03:00,0.02197104130929222,0
2025-04-22T17:17:44.510+03:00,1745331459.217669,40.95219958186703,29.14026822168964,76.1451,-1,-1,-1,-1,30,18.38710864918669,-9999,39271.890026,-0.827239990234375,0.567291259765625,0.08416748046875,39271.879951,-2.857600937969642,-1.608443001353753,-0.5942689727642894,-0.5834261775016785,-1.681157827377319,-0.05576878786087036,-0.02247774600982666,-0.008572757244110107,-0.02790463156998158,XArbitraryZVertical,0.7105373035893103,-0.1035822362075459,0.6267547263069152,-0.3026314672678863,-0.8279707431793213,0.5599032044410706,0.0311850793659687,0,0,0,-1,-1,39266.84337537501,unknown,2,2025-04-22T17:17:39.459+03:00,2025-04-21T17:08:51.449+03:00,9030,1.057261,0,0,7531.346,7,22,2025-04-22T17:16:53.031+03:00,767024262.1388104,0,-10.57,100.3307,1,0.4,2025-04-22T17:17:39.158+03:00,85,1.416666666666667,2025-04-22T14:20:19.516+03:00,0.02197104130929222,0
2025-04-22T17:17:44.520+03:00,1745331459.217669,40.95219958186703,29.14026822168964,76.1451,-1,-1,-1,-1,30,18.38710864918669,-9999,39271.900102,-0.816619873046875,0.6040191650390625,0.1292724609375,39271.890026,-2.865023324334769,-1.629412962290761,-0.5930016642825241,-0.6299140453338623,-1.660109519958496,-0.144686684012413,-0.0135575532913208,-0.01329010725021362,-0.002041943371295929,XArbitraryZVertical,0.7167683219492098,-0.102633659956618,0.6205799444597554,-0.3009814486212565,-0.8278424143791199,0.5588527321815491,0.04858098924160004,0,0,0,-1,-1,39266.84337537501,unknown,2,2025-04-22T17:17:39.459+03:00,2025-04-21T17:08:51.449+03:00,9030,1.057261,0,0,7531.346,7,22,2025-04-22T17:16:53.031+03:00,767024262.1388104,0,-10.57,100.3307,1,0.4,2025-04-22T17:17:39.158+03:00,85,1.416666666666667,2025-04-22T14:20:19.516+03:00,0.02197104130929222,0
2025-04-22T17:17:44.530+03:00,1745331459.217669,40.95219958186703,29.14026822168964,76.1451,-1,-1,-1,-1,30,18.38710864918669,-9999,39271.91017800001,-0.8139495849609375,0.638885498046875,0.16265869140625,39271.900102,-2.871967954935304,-1.649878127250391,-0.5905923953111141,-0.5334635972976685,-1.62071681022644,-0.2518064379692078,0.002712845802307129,0.01507669687271118,0.02355433255434036,XArbitraryZVertical,0.7228813837202561,-0.101249135659476,0.6146083169594209,-0.2990781465942453,-0.8280150294303894,0.556853175163269,0.06561776250600815,0,0,0,-1,-1,39266.84337537501,unknown,2,2025-04-22T17:17:39.459+03:00,2025-04-21T17:08:51.449+03:00,9030,1.057261,0,0,7531.346,7,22,2025-04-22T17:16:53.031+03:00,767024262.1388104,0,-10.57,100.3307,1,0.4,2025-04-22T17:17:39.158+03:00,85,1.416666666666667,2025-04-22T14:20:19.516+03:00,0.02197104130929222,0
2025-04-22T17:17:44.540+03:00,1745331459.217669,40.95219958186703,29.14026822168964,76.1451,-1,-1,-1,-1,30,18.38710864918669,-9999,39271.920254,-0.821502685546875,0.65838623046875,0.2006988525390625,39271.91017800001,-2.876832601330106,-1.668642695294603,-0.5871604775837752,-0.3199976682662964,-1.564723134040833,-0.3583230078220367,0.01273912191390991,0.05525350570678711,0.0527193546295166,XArbitraryZVertical,0.7285944242028094,-0.09906861035710059,0.6090190815503236,-0.2973739201722384,-0.8285349607467651,0.5539993047714233,0.08132884651422501,0,0,0,-1,-1,39266.84337537501,unknown,2,2025-04-22T17:17:39.459+03:00,2025-04-21T17:08:51.449+03:00,9030,1.057261,0,0,7531.346,7,22,2025-04-22T17:16:53.031+03:00,767024262.1388104,0,-10.57,100.3307,1,0.4,2025-04-22T17:17:39.158+03:00,85,1.416666666666667,2025-04-22T14:20:19.516+03:00,0.02197104130929222,0
2025-04-22T17:17:44.550+03:00,1745331459.217669,40.95219958186703,29.14026822168964,76.1451,-1,-1,-1,-1,30,18.38710864918669,-9999,39271.930329,-0.8277435302734375,0.6501312255859375,0.235809326171875,39271.920254,-2.878665530904537,-1.685229035243869,-0.5827834498356051,-0.08698596060276031,-1.522191524505615,-0.4742907583713531,0.01544731855392456,0.09306716918945312,0.07147347182035446,XArbitraryZVertical,0.7338152745575871,-0.09582702848862686,0.6038501845707493,-0.2961370116352701,-0.8294731378555298,0.5503500699996948,0.09533534944057465,0,0,0,-1,-1,39266.84337537501,unknown,2,2025-04-22T17:17:39.459+03:00,2025-04-21T17:08:51.449+03:00,9030,1.057261,0,0,7531.346,7,22,2025-04-22T17:16:53.031+03:00,767024262.1388104,0,-10.57,100.3307,1,0.4,2025-04-22T17:17:39.158+03:00,85,1.416666666666667,2025-04-22T14:20:19.516+03:00,0.02197104130929222,0
2025-04-22T17:17:44.561+03:00,1745331459.217669,40.95219958186703,29.14026822168964,76.1451,-1,-1,-1,-1,30,18.38710864918669,-9999,39271.940405,-0.83709716796875,0.6105499267578125,0.2401885986328125,39271.930329,-2.877783949169915,-1.699635182983991,-0.5776276256392934,0.1031296476721764,-1.425098896026611,-0.5501429438591003,0.008001863956451416,0.1134162545204163,0.09850835800170898,XArbitraryZVertical,0.7385216502772233,-0.09167676816411768,0.5991445995894553,-0.2953080066481586,-0.8308167457580566,0.5460379719734192,0.1076377183198929,0,0,0,-1,-1,39266.84337537501,unknown,2,2025-04-22T17:17:39.459+03:00,2025-04-21T17:08:51.449+03:00,9030,1.057261,0,0,7531.346,7,22,2025-04-22T17:16:53.031+03:00,767024262.1388104,0,-10.57,100.3307,1,0.4,2025-04-22T17:17:39.158+03:00,85,1.416666666666667,2025-04-22T14:20:19.516+03:00,0.02197104130929222,0
2025-04-22T17:17:44.571+03:00,1745331459.217669,40.95219958186703,29.14026822168964,76.1451,-1,-1,-1,-1,30,18.38710864918669,-9999,39271.950481,-0.824554443359375,0.583099365234375,0.254730224609375,39271.940405,-2.874977057498424,-1.711606795483435,-0.5727111235462437,0.2153964042663574,-1.273785948753357,-0.4782592356204987,0.00351870059967041,0.1042207479476929,0.119810938835144,XArbitraryZVertical,0.7425366198925041,-0.08726416378480518,0.5949871133416802,-0.294982390594799,-0.8321166634559631,0.5419125556945801,0.1179513335227966,0,0,0,-1,-1,39266.84337537501,unknown,2,2025-04-22T17:17:39.459+03:00,2025-04-21T17:08:51.449+03:00,9030,1.057261,0,0,7531.346,7,22,2025-04-22T17:16:53.031+03:00,767024262.1388104,0,-10.57,100.3307,1,0.4,2025-04-22T17:17:39.158+03:00,85,1.416666666666667,2025-04-22T14:20:19.516+03:00,0.02197104130929222,0
2025-04-22T17:17:44.581+03:00,1745331459.217669,40.95219958186703,29.14026822168964,76.1451,-1,-1,-1,-1,30,18.38710864918669,-9999,39271.96055600001,-0.799224853515625,0.6153564453125,0.2997589111328125,39271.950481,-2.871190515021367,-1.722034950666135,-0.5683081588093492,0.2834076583385468,-1.201986908912659,-0.5023711919784546,-0.004255890846252441,0.06613266468048096,0.1129332929849625,XArbitraryZVertical,0.7460698427648147,-0.08288564908488907,0.5911630982518107,-0.2950186530159302,-0.8331922888755798,0.538206934928894,0.1269804835319519,0,0,0,-1,-1,39266.84337537501,unknown,2,2025-04-22T17:17:39.459+03:00,2025-04-21T17:08:51.449+03:00,9030,1.057261,0,0,7531.346,7,22,2025-04-22T17:16:53.031+03:00,767024262.1388104,0,-10.57,100.3307,1,0.4,2025-04-22T17:17:39.158+03:00,85,1.416666666666667,2025-04-22T14:20:19.516+03:00,0.02197104130929222,0
2025-04-22T17:17:44.591+03:00,1745331459.217669,40.95219958186703,29.14026822168964,76.1451,-1,-1,-1,-1,30,18.38710864918669,-9999,39271.970632,-0.809906005859375,0.636749267578125,0.3321685791015625,39271.96055600001,-2.866154839462739,-1.730754025909042,-0.563586075514349,0.4099497199058533,-1.065068006515503,-0.5340409874916077,0.013569176197052,0.0510907769203186,0.1251828819513321,XArbitraryZVertical,0.7491383670247439,-0.07818862600183712,0.5878196614156317,-0.2952054606016885,-0.8345531225204468,0.5342211127281189,0.1346435099840164,0,0,0,-1,-1,39266.84337537501,unknown,2,2025-04-22T17:17:39.459+03:00,2025-04-21T17:08:51.449+03:00,9030,1.057261,0,0,7531.346,7,22,2025-04-22T17:16:53.031+03:00,767024262.1388104,0,-10.57,100.3307,1,0.4,2025-04-22T17:17:39.158+03:00,85,1.416666666666667,2025-04-22T14:20:19.516+03:00,0.02197104130929222,0
2025-04-22T17:17:44.601+03:00,1745331459.217669,40.95219958186703,29.14026822168964,76.1451,-1,-1,-1,-1,30,18.38710864918669,-9999,39271.980708,-0.81298828125,0.6316375732421875,0.377777099609375,39271.970632,-2.859800914922278,-1.737521058605908,-0.5591047266097228,0.483236700296402,-0.9420073628425598,-0.5155157446861267,0.03627747297286987,0.08962869644165039,0.1641713529825211,XArbitraryZVertical,0.7516383710341966,-0.07335954848391756,0.5849676617184508,-0.295754946953679,-0.8359754085540771,0.5304274559020996,0.140683725476265,0,0,0,-1,-1,39266.84337537501,unknown,2,2025-04-22T17:17:39.459+03:00,2025-04-21T17:08:51.449+03:00,9030,1.057261,0,0,7531.346,7,22,2025-04-22T17:16:53.031+03:00,767024262.1388104,0,-10.57,100.3307,1,0.4,2025-04-22T17:17:39.158+03:00,85,1.416666666666667,2025-04-22T14:20:19.516+03:00,0.02197104130929222,0
2025-04-22T17:17:44.613+03:00,1745331459.217669,40.95219958186703,29.14026822168964,76.1451,-1,-1,-1,-1,30,18.38710864918669,-9999,39271.990784,-0.8086700439453125,0.61590576171875,0.4181060791015625,39271.980708,-2.852970115130911,-1.742779724339167,-0.5548606322007069,0.5027931928634644,-0.8161934018135071,-0.5111308097839355,0.02656710147857666,0.1102600693702698,0.1916351467370987,XArbitraryZVertical,0.7536702208592347,-0.06864484161758534,0.5825713365214535,-0.2964451823304382,-0.8374344706535339,0.5268248319625854,0.1454618275165558,0,0,0,-1,-1,39266.84337537501,unknown,2,2025-04-22T17:17:39.459+03:00,2025-04-21T17:08:51.449+03:00,9030,1.057261,0,0,7531.346,7,22,2025-04-22T17:16:53.031+03:00,767024262.1388104,0,-10.57,100.3307,1,0.4,2025-04-22T17:17:39.158+03:00,85,1.416666666666667,2025-04-22T14:20:19.516+03:00,0.02197104130929222,0
2025-04-22T17:17:44.621+03:00,1745331459.217669,40.95219958186703,29.14026822168964,76.1451,-1,-1,-1,-1,30,18.38710864918669,-9999,39272.000859,-0.82080078125,0.5923309326171875,0.473114013671875,39271.990784,-2.84637258080575,-1.746824764032533,-0.5505527204696479,0.4511169791221619,-0.6700441837310791,-0.5244713425636292,0.0266420841217041,0.1065413355827332,0.233873263001442,XArbitraryZVertical,0.7553171575169281,-0.06417211138166988,0.5806712290576819,-0.2969828996873668,-0.8390658497810364,0.5231583714485168,0.1492441296577454,0,0,0,-1,-1,39266.84337537501,unknown,2,2025-04-22T17:17:39.459+03:00,2025-04-21T17:08:51.449+03:00,9030,1.057261,0,0,7531.346,7,22,2025-04-22T17:16:53.031+03:00,767024262.1388104,0,-10.57,100.3307,1,0.4,2025-04-22T17:17:39.158+03:00,85,1.416666666666667,2025-04-22T14:20:19.516+03:00,0.02197104130929222,0
2025-04-22T17:17:44.635+03:00,1745331459.217669,40.95219958186703,29.14026822168964,76.1451,-1,-1,-1,-1,30,18.38710864918669,-9999,39272.01093500001,-0.836669921875,0.546051025390625,0.52313232421875,39272.000859,-2.840292813246275,-1.749666022658533,-0.5460666999973711,0.3956315517425537,-0.5266492962837219,-0.5306971669197083,0.03112494945526123,0.09447002410888672,0.2711892127990723,XArbitraryZVertical,0.7565845961337313,-0.06001267272232155,0.5793254315098118,-0.2972544160470383,-0.8409393429756165,0.5193299651145935,0.1520435512065887,0,0,0,-1,-1,39266.84337537501,unknown,2,2025-04-22T17:17:39.459+03:00,2025-04-21T17:08:51.449+03:00,9030,1.057261,0,0,7531.346,7,22,2025-04-22T17:16:53.031+03:00,767024262.1388104,0,-10.57,100.3307,1,0.4,2025-04-22T17:17:39.158+03:00,85,1.416666666666667,2025-04-22T14:20:19.516+03:00,0.02197104130929222,0
2025-04-22T17:17:44.642+03:00,1745331459.217669,40.95219958186703,29.14026822168964,76.1451,-1,-1,-1,-1,30,18.38710864918669,-9999,39272.021011,-0.8314056396484375,0.5009307861328125,0.5255889892578125,39272.01093500001,-2.835273976355211,-1.751731656638329,-0.5414279197013521,0.2717085480690002,-0.3990535140037537,-0.526531994342804,0.01916217803955078,0.07253026962280273,0.325935959815979,XArbitraryZVertical,0.757584508837314,-0.05631850182142683,0.5784516965117559,-0.2971319602712612,-0.8429840207099915,0.5153601765632629,0.1542121171951294,0,0,0,-1,-1,39266.84337537501,unknown,2,2025-04-22T17:17:39.459+03:00,2025-04-21T17:08:51.449+03:00,9030,1.057261,0,0,7531.346,7,22,2025-04-22T17:16:53.031+03:00,767024262.1388104,0,-10.57,100.3307,1,0.4,2025-04-22T17:17:39.158+03:00,85,1.416666666666667,2025-04-22T14:20:19.516+03:00,0.02197104130929222,0
2025-04-22T17:17:44.651+03:00,1745331459.217669,40.95219958186703,29.14026822168964,76.1451,-1,-1,-1,-1,30,18.38710864918669,-9999,39272.031086,-0.812164306640625,0.4963226318359375,0.504425048828125,39272.021011,-2.832199728962131,-1.753518602319928,-0.5365321507077099,0.07701601833105087,-0.2664957344532013,-0.5268622040748596,0.008538901805877686,0.02811753749847412,0.3701310157775879,XArbitraryZVertical,0.7584487437978648,-0.05331919488181277,0.5780085371650884,-0.2963421099204031,-0.8451782464981079,0.5111585259437561,0.1561748683452606,0,0,0,-1,-1,39266.84337537501,unknown,2,2025-04-22T17:17:39.459+03:00,2025-04-21T17:08:51.449+03:00,9030,1.057261,0,0,7531.346,7,22,2025-04-22T17:16:53.031+03:00,767024262.1388104,0,-10.57,100.3307,1,0.4,2025-04-22T17:17:39.158+03:00,85,1.416666666666667,2025-04-22T14:20:19.516+03:00,0.02197104130929222,0
2025-04-22T17:17:44.661+03:00,1745331459.217669,40.95219958186703,29.14026822168964,76.1451,-1,-1,-1,-1,30,18.38710864918669,-9999,39272.041162,-0.798431396484375,0.510772705078125,0.5332794189453125,39272.031086,-2.830812061712623,-1.754732561791534,-0.5313665682060938,-0.02118218131363392,-0.1097751036286354,-0.5240603089332581,0.01851683855056763,-0.009122967720031738,0.3645654916763306,XArbitraryZVertical,0.7591073818256813,-0.05095853548702839,0.5780690229904478,-0.2949496096214684,-0.8475725054740906,0.5067119598388672,0.1576815843582153,0,0,0,-1,-1,39266.84337537501,unknown,2,2025-04-22T17:17:39.459+03:00,2025-04-21T17:08:51.449+03:00,9030,1.057261,0,0,7531.346,7,22,2025-04-22T17:16:53.031+03:00,767024262.1388104,0,-10.57,100.3307,1,0.4,2025-04-22T17:17:39.158+03:00,85,1.416666666666667,2025-04-22T14:20:19.516+03:00,0.02197104130929222,0
2025-04-22T17:17:44.671+03:00,1745331459.217669,40.95219958186703,29.14026822168964,76.1451,-1,-1,-1,-1,30,18.38710864918669,-9999,39272.051238,-0.7918701171875,0.5092620849609375,0.5910186767578125,39272.041162,-2.830111797797372,-1.754642509495083,-0.5260533768501672,-0.05149215459823608,0.06195271387696266,-0.5397953391075134,0.04014790058135986,-0.004153788089752197,0.3463143110275269,XArbitraryZVertical,0.7593722515048519,-0.04900393250510345,0.5787441102401497,-0.293270371102615,-0.8502216339111328,0.5021242499351501,0.1580952107906342,0,0,0,-1,-1,39266.84337537501,unknown,2,2025-04-22T17:17:39.459+03:00,2025-04-21T17:08:51.449+03:00,9030,1.057261,0,0,7531.346,7,22,2025-04-22T17:16:53.031+03:00,767024262.1388104,0,-10.57,100.3307,1,0.4,2025-04-22T17:17:39.158+03:00,85,1.416666666666667,2025-04-22T14:20:19.516+03:00,0.02197104130929222,0
2025-04-22T17:17:44.681+03:00,1745331459.217669,40.95219958186703,29.14026822168964,76.1451,-1,-1,-1,-1,30,18.38710864918669,-9999,39272.06131400001,-0.7933349609375,0.4766693115234375,0.6128692626953125,39272.051238,-2.829599248270899,-1.7528872847916,-0.5205407553670883,-0.05717294290661812,0.2367285341024399,-0.5494213104248047,0.05611860752105713,0.01475077867507935,0.3832119703292847,XArbitraryZVertical,0.7591532049820205,-0.04729867015123579,0.5801037481633534,-0.291425412204332,-0.8532071709632874,0.497349351644516,0.1571015119552612,0,0,0,-1,-1,39266.84337537501,unknown,2,2025-04-22T17:17:39.459+03:00,2025-04-21T17:08:51.449+03:00,9030,1.057261,0,0,7531.346,7,22,2025-04-22T17:16:53.031+03:00,767024262.1388104,0,-10.57,100.3307,1,0.4,2025-04-22T17:17:39.158+03:00,85,1.416666666666667,2025-04-22T14:20:19.516+03:00,0.02197104130929222,0
