loggingTime(txt),locationTimestamp_since1970(s),locationLatitude(WGS84),locationLongitude(WGS84),locationAltitude(m),locationSpeed(m/s),locationSpeedAccuracy(m/s),locationCourse(°),locationCourseAccuracy(°),locationVerticalAccuracy(m),locationHorizontalAccuracy(m),locationFloor(Z),accelerometerTimestamp_sinceReboot(s),accelerometerAccelerationX(G),accelerometerAccelerationY(G),accelerometerAccelerationZ(G),motionTimestamp_sinceReboot(s),motionYaw(rad),motionRoll(rad),motionPitch(rad),motionRotationRateX(rad/s),motionRotationRateY(rad/s),motionRotationRateZ(rad/s),motionUserAccelerationX(G),motionUserAccelerationY(G),motionUserAccelerationZ(G),motionAttitudeReferenceFrame(txt),motionQuaternionX(R),motionQuaternionY(R),motionQuaternionZ(R),motionQuaternionW(R),motionGravityX(G),motionGravityY(G),motionGravityZ(G),motionMagneticFieldX(µT),motionMagneticFieldY(µT),motionMagneticFieldZ(µT),motionHeading(°),motionMagneticFieldCalibrationAccuracy(Z),activityTimestamp_sinceReboot(s),activity(txt),activityActivityConfidence(Z),activityActivityStartDate(txt),pedometerStartDate(txt),pedometerNumberofSteps(N),pedometerAverageActivePace(s/m),pedometerCurrentPace(s/m),pedometerCurrentCadence(steps/s),pedometerDistance(m),pedometerFloorAscended(N),pedometerFloorDescended(N),pedometerEndDate(txt),altimeterTimestamp_sinceReboot(s),altimeterReset(bool),altimeterRelativeAltitude(m),altimeterPressure(kPa),batteryState(N),batteryLevel(R),heartRateBPMTimestamp(txt),heartRateBPM(N),heartRateBPS(R),heartRateVariabilityTimestamp(txt),heartRateVariability(ms),label
2025-04-22T15:44:16.271+03:00,1745325854.854241,40.95221216915948,29.14026661759164,76.43822,-1,-1,-1,-1,30,21.17508972138302,-9999,36137.03024504167,-0.8188323974609375,0.63006591796875,-0.322021484375,36137.02016904167,-2.565095549510444,-1.097456682073672,-0.7107550997230763,0.05073567107319832,-0.001797873992472887,-0.02960914932191372,0.07944959402084351,0.008512794971466064,0.03749975562095642,XArbitraryZVertical,-0.5532254946639885,0.145601887890421,-0.7152843208019312,0.4013849084044921,-0.674542248249054,0.6524062156677246,-0.345483273267746,0,0,0,-1,-1,36114.55714354167,unknown,2,2025-04-22T15:43:53.759+03:00,2025-04-21T17:08:51.449+03:00,8272,1.043277,0,0,6880.045,7,22,2025-04-22T15:44:14.394+03:00,767018651.9156554,0,-13.21,100.3623,1,0.5,2025-04-22T15:44:06.954+03:00,101,1.683333333333333,2025-04-22T14:20:19.516+03:00,0.02197104130929222,0
2025-04-22T15:44:16.273+03:00,1745325854.854241,40.95221216915948,29.14026661759164,76.43822,-1,-1,-1,-1,30,21.17508972138302,-9999,36137.04032104167,-0.781585693359375,0.6384429931640625,-0.3230438232421875,36137.03024504167,-2.564843759724473,-1.095861229265514,-0.7106979520775396,-0.01038867142051458,0.2381515949964523,0.03281854093074799,-0.08529961109161377,-0.01802462339401245,0.04001164436340332,XArbitraryZVertical,-0.5526715277256713,0.1458290256413458,-0.7156871104868805,0.4013478008466315,-0.674023449420929,0.6523628830909729,-0.3465761542320251,0,0,0,-1,-1,36114.55714354167,unknown,2,2025-04-22T15:43:53.759+03:00,2025-04-21T17:08:51.449+03:00,8272,1.043277,0,0,6880.045,7,22,2025-04-22T15:44:14.394+03:00,767018651.9156554,0,-13.21,100.3623,1,0.5,2025-04-22T15:44:06.954+03:00,101,1.683333333333333,2025-04-22T14:20:19.516+03:00,0.02197104130929222,0
2025-04-22T15:44:16.274+03:00,1745325854.854241,40.95221216915948,29.14026661759164,76.43822,-1,-1,-1,-1,30,21.17508972138302,-9999,36137.05039704167,-0.6373443603515625,0.63873291015625,-0.3317108154296875,36137.04032104167,-2.564866747251746,-1.093806139774552,-0.7110467016055735,-0.02370274625718594,0.1451653391122818,0.01742527261376381,-0.1526979804039001,-0.01868563890457153,0.02044808864593506,XArbitraryZVertical,-0.5519436140773065,0.1463905463459406,-0.7161853375682694,0.401256265495305,-0.6731076240539551,0.652627170085907,-0.3478561043739319,0,0,0,-1,-1,36114.55714354167,unknown,2,2025-04-22T15:43:53.759+03:00,2025-04-21T17:08:51.449+03:00,8272,1.043277,0,0,6880.045,7,22,2025-04-22T15:44:14.394+03:00,767018651.9156554,0,-13.21,100.3623,1,0.5,2025-04-22T15:44:06.954+03:00,101,1.683333333333333,2025-04-22T14:20:19.516+03:00,0.02197104130929222,0
2025-04-22T15:44:16.275+03:00,1745325854.854241,40.95221216915948,29.14026661759164,76.43822,-1,-1,-1,-1,30,21.17508972138302,-9999,36137.06047304167,-0.5946502685546875,0.6439971923828125,-0.351715087890625,36137.05039704167,-2.565088011606467,-1.093393865804016,-0.7112240923319529,-0.01897483691573143,-0.02422075904905796,-0.0049562007188797,-0.01160216331481934,-0.01241135597229004,0.02381569147109985,XArbitraryZVertical,-0.5517845671146473,0.1466069698876397,-0.7163058873961102,0.4011807709482922,-0.6728612780570984,0.6527615785598755,-0.3480803668498993,0,0,0,-1,-1,36114.55714354167,unknown,2,2025-04-22T15:43:53.759+03:00,2025-04-21T17:08:51.449+03:00,8272,1.043277,0,0,6880.045,7,22,2025-04-22T15:44:14.394+03:00,767018651.9156554,0,-13.21,100.3623,1,0.5,2025-04-22T15:44:06.954+03:00,101,1.683333333333333,2025-04-22T14:20:19.516+03:00,0.02197104130929222,0
2025-04-22T15:44:16.278+03:00,1745325854.854241,40.95221216915948,29.14026661759164,76.43822,-1,-1,-1,-1,30,21.17508972138302,-9999,36137.07054904167,-0.64715576171875,0.6563873291015625,-0.3571319580078125,36137.06047304167,-2.565301343798456,-1.093986278516863,-0.7112448010684846,-0.01167903933674097,-0.04309398308396339,-0.00749415997415781,0.07756590843200684,-0.01335775852203369,0.001895934343338013,XArbitraryZVertical,-0.5519816378674329,0.1465554717603643,-0.7161808769826834,0.4011517707006639,-0.6730554103851318,0.6527772545814514,-0.3476755321025848,0,0,0,-1,-1,36114.55714354167,unknown,2,2025-04-22T15:43:53.759+03:00,2025-04-21T17:08:51.449+03:00,8272,1.043277,0,0,6880.045,7,22,2025-04-22T15:44:14.394+03:00,767018651.9156554,0,-13.21,100.3623,1,0.5,2025-04-22T15:44:06.954+03:00,101,1.683333333333333,2025-04-22T14:20:19.516+03:00,0.02197104130929222,0
2025-04-22T15:44:16.290+03:00,1745325854.854241,40.95221216915948,29.14026661759164,76.43822,-1,-1,-1,-1,30,21.17508972138302,-9999,36137.08062504167,-0.69232177734375,0.663330078125,-0.35528564453125,36137.07054904167,-2.565423952182808,-1.094115723069147,-0.7112902091804386,-0.008236105553805828,0.03374434262514114,0.005652534775435925,0.05132412910461426,-0.0001323819160461426,-0.008763939142227173,XArbitraryZVertical,-0.5520202560324946,0.1465820064543361,-0.7161599430076008,0.4011259967857326,-0.6730738878250122,0.6528116464614868,-0.3475747108459473,0,0,0,-1,-1,36114.55714354167,unknown,2,2025-04-22T15:43:53.759+03:00,2025-04-21T17:08:51.449+03:00,8272,1.043277,0,0,6880.045,7,22,2025-04-22T15:44:14.394+03:00,767018651.9156554,0,-13.21,100.3623,1,0.5,2025-04-22T15:44:06.954+03:00,101,1.683333333333333,2025-04-22T14:20:19.516+03:00,0.02197104130929222,0
2025-04-22T15:44:16.298+03:00,1745325854.854241,40.95221216915948,29.14026661759164,76.43822,-1,-1,-1,-1,30,21.17508972138302,-9999,36137.09070104167,-0.6733856201171875,0.663604736328125,-0.3544464111328125,36137.08062504167,-2.565406354659387,-1.093596931595749,-0.7113865837012349,0.00102703517768532,0.05369874089956284,0.01018530130386353,-0.00973355770111084,0.008614242076873779,-0.008092701435089111,XArbitraryZVertical,-0.5518383290055673,0.1467206106635913,-0.7162793425384959,0.4011127606892786,-0.6728377938270569,0.6528846621513367,-0.3478950560092926,0,0,0,-1,-1,36114.55714354167,unknown,2,2025-04-22T15:43:53.759+03:00,2025-04-21T17:08:51.449+03:00,8272,1.043277,0,0,6880.045,7,22,2025-04-22T15:44:14.394+03:00,767018651.9156554,0,-13.21,100.3623,1,0.5,2025-04-22T15:44:06.954+03:00,101,1.683333333333333,2025-04-22T14:20:19.516+03:00,0.02197104130929222,0
2025-04-22T15:44:16.307+03:00,1745325854.854241,40.95221216915948,29.14026661759164,76.43822,-1,-1,-1,-1,30,21.17508972138302,-9999,36137.10077704167,-0.6390228271484375,0.6608428955078125,-0.35284423828125,36137.09070104167,-2.565314383030356,-1.093247099681103,-0.7114013603201141,0.01004796009510756,-0.0008385367691516876,-0.004375531803816557,-0.01351082324981689,0.01102912425994873,-0.005969732999801636,XArbitraryZVertical,-0.5517202107802278,0.1467715150298126,-0.7163540919131186,0.4011228059910123,-0.6727072596549988,0.6528958678245544,-0.3481258749961853,0,0,0,-1,-1,36114.55714354167,unknown,2,2025-04-22T15:43:53.759+03:00,2025-04-21T17:08:51.449+03:00,8272,1.043277,0,0,6880.045,7,22,2025-04-22T15:44:14.394+03:00,767018651.9156554,0,-13.21,100.3623,1,0.5,2025-04-22T15:44:06.954+03:00,101,1.683333333333333,2025-04-22T14:20:19.516+03:00,0.02197104130929222,0
2025-04-22T15:44:16.317+03:00,1745325854.854241,40.95221216915948,29.14026661759164,76.43822,-1,-1,-1,-1,30,21.17508972138302,-9999,36137.11085304167,-0.6431427001953125,0.65484619140625,-0.35101318359375,36137.10077704167,-2.565236841298379,-1.093417784269029,-0.7113012261481222,0.008833892643451691,-0.03442519158124924,-0.01333463937044144,0.0232582688331604,0.009640157222747803,-0.006008714437484741,XArbitraryZVertical,-0.551784324543227,0.1466748652919522,-0.7163126891478592,0.401143948043451,-0.6728247404098511,0.6528199911117554,-0.3480410873889923,0,0,0,-1,-1,36114.55714354167,unknown,2,2025-04-22T15:43:53.759+03:00,2025-04-21T17:08:51.449+03:00,8272,1.043277,0,0,6880.045,7,22,2025-04-22T15:44:14.394+03:00,767018651.9156554,0,-13.21,100.3623,1,0.5,2025-04-22T15:44:06.954+03:00,101,1.683333333333333,2025-04-22T14:20:19.516+03:00,0.02197104130929222,0
2025-04-22T15:44:16.327+03:00,1745325854.854241,40.95221216915948,29.14026661759164,76.43822,-1,-1,-1,-1,30,21.17508972138302,-9999,36137.12092804167,-0.670257568359375,0.64422607421875,-0.349884033203125,36137.11085304167,-2.565269802898844,-1.093701636963858,-0.7111832254317113,-0.004649958573281765,-0.009482825174927711,-0.007395789492875338,0.03667014837265015,0.004663705825805664,-0.002715855836868286,XArbitraryZVertical,-0.5518803556582629,0.1465786403011797,-0.7162661414841451,0.4011304160538954,-0.6729921102523804,0.6527306437492371,-0.3478855490684509,0,0,0,-1,-1,36114.55714354167,unknown,2,2025-04-22T15:43:53.759+03:00,2025-04-21T17:08:51.449+03:00,8272,1.043277,0,0,6880.045,7,22,2025-04-22T15:44:14.394+03:00,767018651.9156554,0,-13.21,100.3623,1,0.5,2025-04-22T15:44:06.954+03:00,101,1.683333333333333,2025-04-22T14:20:19.516+03:00,0.02197104130929222,0
2025-04-22T15:44:16.337+03:00,1745325854.854241,40.95221216915948,29.14026661759164,76.43822,-1,-1,-1,-1,30,21.17508972138302,-9999,36137.13100404167,-0.6798095703125,0.6386871337890625,-0.3492889404296875,36137.12092804167,-2.565470582376815,-1.093723073972303,-0.7112176088269989,-0.02555670589208603,0.03069908358156681,0.005179990082979202,0.01201474666595459,-0.004899144172668457,-0.002114951610565186,XArbitraryZVertical,-0.5518742480488865,0.1466438392059965,-0.7162931724170231,0.4010666521197481,-0.6729795932769775,0.6527566909790039,-0.3478607833385468,0,0,0,-1,-1,36114.55714354167,unknown,2,2025-04-22T15:43:53.759+03:00,2025-04-21T17:08:51.449+03:00,8272,1.043277,0,0,6880.045,7,22,2025-04-22T15:44:14.394+03:00,767018651.9156554,0,-13.21,100.3623,1,0.5,2025-04-22T15:44:06.954+03:00,101,1.683333333333333,2025-04-22T14:20:19.516+03:00,0.02197104130929222,0
2025-04-22T15:44:16.347+03:00,1745325854.854241,40.95221216915948,29.14026661759164,76.43822,-1,-1,-1,-1,30,21.17508972138302,-9999,36137.14108004167,-0.667938232421875,0.6424102783203125,-0.3488006591796875,36137.13100404167,-2.565842726534147,-1.093632104074885,-0.7114222600771128,-0.04102674126625061,0.03150016069412231,0.006866303738206625,-0.006705582141876221,-0.01343125104904175,-0.001352190971374512,XArbitraryZVertical,-0.5518198681294872,0.1468485897741023,-0.716349528546393,0.4009658664530277,-0.672829270362854,0.6529117226600647,-0.3478606641292572,0,0,0,-1,-1,36114.55714354167,unknown,2,2025-04-22T15:43:53.759+03:00,2025-04-21T17:08:51.449+03:00,8272,1.043277,0,0,6880.045,7,22,2025-04-22T15:44:14.394+03:00,767018651.9156554,0,-13.21,100.3623,1,0.5,2025-04-22T15:44:06.954+03:00,101,1.683333333333333,2025-04-22T14:20:19.516+03:00,0.02197104130929222,0
2025-04-22T15:44:16.357+03:00,1745325854.854241,40.95221216915948,29.14026661759164,76.43822,-1,-1,-1,-1,30,21.17508972138302,-9999,36137.15115604167,-0.654937744140625,0.65447998046875,-0.3506622314453125,36137.14108004167,-2.566280945194868,-1.093680690036825,-0.7116673074369076,-0.03757954761385918,0.0104870218783617,0.004107801709324121,-0.001673281192779541,-0.01262497901916504,-0.0008937716484069824,XArbitraryZVertical,-0.5518116302776405,0.1470601142125742,-0.7163720971527989,0.4008594035396705,-0.6727040410041809,0.6530972719192505,-0.3477545082569122,0,0,0,-1,-1,36114.55714354167,unknown,2,2025-04-22T15:43:53.759+03:00,2025-04-21T17:08:51.449+03:00,8272,1.043277,0,0,6880.045,7,22,2025-04-22T15:44:14.394+03:00,767018651.9156554,0,-13.21,100.3623,1,0.5,2025-04-22T15:44:06.954+03:00,101,1.683333333333333,2025-04-22T14:20:19.516+03:00,0.02197104130929222,0
2025-04-22T15:44:16.368+03:00,1745325854.854241,40.95221216915948,29.14026661759164,76.43822,-1,-1,-1,-1,30,21.17508972138302,-9999,36137.16123204167,-0.65673828125,0.6669158935546875,-0.3528289794921875,36137.15115604167,-2.566578233251717,-1.093794759293065,-0.7118044715006926,-0.01523828785866499,0.003798759309574962,4.648079629987478e-05,0.01476621627807617,-0.003970324993133545,-0.00157618522644043,XArbitraryZVertical,-0.5518342766180232,0.1471754519037345,-0.7163711673004514,0.4007875821001867,-0.6726641654968262,0.653201162815094,-0.3476366400718689,0,0,0,-1,-1,36114.55714354167,unknown,2,2025-04-22T15:43:53.759+03:00,2025-04-21T17:08:51.449+03:00,8272,1.043277,0,0,6880.045,7,22,2025-04-22T15:44:14.394+03:00,767018651.9156554,0,-13.21,100.3623,1,0.5,2025-04-22T15:44:06.954+03:00,101,1.683333333333333,2025-04-22T14:20:19.516+03:00,0.02197104130929222,0
2025-04-22T15:44:16.377+03:00,1745325854.854241,40.95221216915948,29.14026661759164,76.43822,-1,-1,-1,-1,30,21.17508972138302,-9999,36137.17130804167,-0.6660919189453125,0.6646728515625,-0.353240966796875,36137.16123204167,-2.566701435479988,-1.093799873207353,-0.7118097325360312,-0.0001805752399377525,0.01278659515082836,-0.005785209126770496,0.01804566383361816,0.01015537977218628,-0.003580093383789062,XArbitraryZVertical,-0.5518271750385347,0.1472105623181179,-0.716393368168437,0.4007448471924152,-0.6726629137992859,0.6532051563262939,-0.3476316332817078,0,0,0,-1,-1,36114.55714354167,unknown,2,2025-04-22T15:43:53.759+03:00,2025-04-21T17:08:51.449+03:00,8272,1.043277,0,0,6880.045,7,22,2025-04-22T15:44:14.394+03:00,767018651.9156554,0,-13.21,100.3623,1,0.5,2025-04-22T15:44:06.954+03:00,101,1.683333333333333,2025-04-22T14:20:19.516+03:00,0.02197104130929222,0
2025-04-22T15:44:16.389+03:00,1745325854.854241,40.95221216915948,29.14026661759164,76.43822,-1,-1,-1,-1,30,21.17508972138302,-9999,36137.18138404167,-0.665374755859375,0.6522979736328125,-0.350128173828125,36137.17130804167,-2.566739431864804,-1.093692648024892,-0.7117432697465839,0.0008420785889029503,0.01348381023854017,-0.01041724532842636,0.008861064910888672,0.01382201910018921,-0.005059719085693359,XArbitraryZVertical,-0.5517842190529375,0.1472153474041785,-0.7164445248092052,0.4007105809743652,-0.6726640462875366,0.6531547904014587,-0.3477236330509186,0,0,0,-1,-1,36114.55714354167,unknown,2,2025-04-22T15:43:53.759+03:00,2025-04-21T17:08:51.449+03:00,8272,1.043277,0,0,6880.045,7,22,2025-04-22T15:44:14.394+03:00,767018651.9156554,0,-13.21,100.3623,1,0.5,2025-04-22T15:44:06.954+03:00,101,1.683333333333333,2025-04-22T14:20:19.516+03:00,0.02197104130929222,0
2025-04-22T15:44:16.398+03:00,1745325854.854241,40.95221216915948,29.14026661759164,76.43822,-1,-1,-1,-1,30,21.17508972138302,-9999,36137.19146004167,-0.6627960205078125,0.643035888671875,-0.349609375,36137.18138404167,-2.566906058095973,-1.093699836540762,-0.711678364507787,-0.01492396742105484,0.00579353328794241,-0.01360218599438667,0.005529046058654785,0.004044473171234131,-0.003412425518035889,XArbitraryZVertical,-0.551772798015736,0.1472332855975217,-0.7164896915489944,0.4006389938269311,-0.67270427942276,0.6531056761741638,-0.3477382659912109,0,0,0,-1,-1,36114.55714354167,unknown,2,2025-04-22T15:43:53.759+03:00,2025-04-21T17:08:51.449+03:00,8272,1.043277,0,0,6880.045,7,22,2025-04-22T15:44:14.394+03:00,767018651.9156554,0,-13.21,100.3623,1,0.5,2025-04-22T15:44:06.954+03:00,101,1.683333333333333,2025-04-22T14:20:19.516+03:00,0.02197104130929222,0
2025-04-22T15:44:16.408+03:00,1745325854.854241,40.95221216915948,29.14026661759164,76.43822,-1,-1,-1,-1,30,21.17508972138302,-9999,36137.20153604167,-0.66436767578125,0.6388092041015625,-0.3510894775390625,36137.19146004167,-2.567311887578202,-1.093920877712147,-0.7117155910650268,-0.03884181752800941,0.002355392323806882,-0.01037496794015169,0.009749948978424072,-0.007687151432037354,-0.001512348651885986,XArbitraryZVertical,-0.5518230857263442,0.1473162212567073,-0.7165021289851532,0.4005170217512069,-0.6727595329284668,0.6531338691711426,-0.3475784361362457,0,0,0,-1,-1,36114.55714354167,unknown,2,2025-04-22T15:43:53.759+03:00,2025-04-21T17:08:51.449+03:00,8272,1.043277,0,0,6880.045,7,22,2025-04-22T15:44:14.394+03:00,767018651.9156554,0,-13.21,100.3623,1,0.5,2025-04-22T15:44:06.954+03:00,101,1.683333333333333,2025-04-22T14:20:19.516+03:00,0.02197104130929222,0
2025-04-22T15:44:16.418+03:00,1745325854.854241,40.95221216915948,29.14026661759164,76.43822,-1,-1,-1,-1,30,21.17508972138302,-9999,36137.21161204167,-0.6666107177734375,0.6391143798828125,-0.350799560546875,36137.20153604167,-2.567932293163989,-1.094272617923261,-0.7118555074844961,-0.05883323773741722,0.007618730887770653,-0.00918220542371273,0.008921265602111816,-0.012798011302948,-0.003194689750671387,XArbitraryZVertical,-0.5519070614988988,0.1474742799240978,-0.7164996970965931,0.400347514361331,-0.6728005409240723,0.6532397866249084,-0.3472998738288879,0,0,0,-1,-1,36114.55714354167,unknown,2,2025-04-22T15:43:53.759+03:00,2025-04-21T17:08:51.449+03:00,8272,1.043277,0,0,6880.045,7,22,2025-04-22T15:44:14.394+03:00,767018651.9156554,0,-13.21,100.3623,1,0.5,2025-04-22T15:44:06.954+03:00,101,1.683333333333333,2025-04-22T14:20:19.516+03:00,0.02197104130929222,0
2025-04-22T15:44:16.429+03:00,1745325854.854241,40.95221216915948,29.14026661759164,76.43822,-1,-1,-1,-1,30,21.17508972138302,-9999,36137.22168804167,-0.6655426025390625,0.6434783935546875,-0.34869384765625,36137.21161204167,-2.568739184192969,-1.0947191882816,-0.712075229800841,-0.07016871869564056,0.01094129122793674,-0.001121082343161106,0.006934523582458496,-0.01485645771026611,-0.004018723964691162,XArbitraryZVertical,-0.5520132516441242,0.14769757615168,-0.7164914228426245,0.4001335540226686,-0.6728280186653137,0.6534061431884766,-0.3469336032867432,0,0,0,-1,-1,36114.55714354167,unknown,2,2025-04-22T15:43:53.759+03:00,2025-04-21T17:08:51.449+03:00,8272,1.043277,0,0,6880.045,7,22,2025-04-22T15:44:14.394+03:00,767018651.9156554,0,-13.21,100.3623,1,0.5,2025-04-22T15:44:06.954+03:00,101,1.683333333333333,2025-04-22T14:20:19.516+03:00,0.02197104130929222,0
2025-04-22T15:44:16.438+03:00,1745325854.854241,40.95221216915948,29.14026661759164,76.43822,-1,-1,-1,-1,30,21.17508972138302,-9999,36137.23176404167,-0.66485595703125,0.65057373046875,-0.3487091064453125,36137.22168804167,-2.569625349278759,-1.095174769643558,-0.7123530766482017,-0.07555462419986725,0.01297814212739468,-0.004905001726001501,0.006976783275604248,-0.01207607984542847,-0.003554016351699829,XArbitraryZVertical,-0.5521181811035907,0.14796488070743,-0.7164839751150729,0.3999030748352835,-0.6728244423866272,0.6536164283752441,-0.3465438187122345,0,0,0,-1,-1,36114.55714354167,unknown,2,2025-04-22T15:43:53.759+03:00,2025-04-21T17:08:51.449+03:00,8272,1.043277,0,0,6880.045,7,22,2025-04-22T15:44:14.394+03:00,767018651.9156554,0,-13.21,100.3623,1,0.5,2025-04-22T15:44:06.954+03:00,101,1.683333333333333,2025-04-22T14:20:19.516+03:00,0.02197104130929222,0
2025-04-22T15:44:16.448+03:00,1745325854.854241,40.95221216915948,29.14026661759164,76.43822,-1,-1,-1,-1,30,21.17508972138302,-9999,36137.24184004167,-0.665496826171875,0.6513671875,-0.348785400390625,36137.23176404167,-2.570570687433972,-1.095607099385052,-0.712705995960464,-0.08440910279750824,0.01842270977795124,-0.002870612777769566,0.007546961307525635,-0.005720794200897217,-0.00242459774017334,XArbitraryZVertical,-0.5522120883759668,0.1482839365452564,-0.7164789354374667,0.3996642607865198,-0.6727690696716309,0.6538835167884827,-0.346147358417511,0,0,0,-1,-1,36114.55714354167,unknown,2,2025-04-22T15:43:53.759+03:00,2025-04-21T17:08:51.449+03:00,8272,1.043277,0,0,6880.045,7,22,2025-04-22T15:44:14.394+03:00,767018651.9156554,0,-13.21,100.3623,1,0.5,2025-04-22T15:44:06.954+03:00,101,1.683333333333333,2025-04-22T14:20:19.516+03:00,0.02197104130929222,0
2025-04-22T15:44:16.458+03:00,1745325854.854241,40.95221216915948,29.14026661759164,76.43822,-1,-1,-1,-1,30,21.17508972138302,-9999,36137.25191604167,-0.66973876953125,0.64764404296875,-0.3504791259765625,36137.24184004167,-2.571608354770459,-1.096055455537483,-0.713103991027472,-0.08861196786165237,0.02496915869414806,-0.0056647346355021,0.007287561893463135,-0.002466499805450439,-0.003211408853530884,XArbitraryZVertical,-0.5523057473994875,0.1486437999201865,-0.7164783128511851,0.3994023778349042,-0.6726928353309631,0.6541845798492432,-0.3457267582416534,0,0,0,-1,-1,36114.55714354167,unknown,2,2025-04-22T15:43:53.759+03:00,2025-04-21T17:08:51.449+03:00,8272,1.043277,0,0,6880.045,7,22,2025-04-22T15:44:14.394+03:00,767018651.9156554,0,-13.21,100.3623,1,0.5,2025-04-22T15:44:06.954+03:00,101,1.683333333333333,2025-04-22T14:20:19.516+03:00,0.02197104130929222,0
2025-04-22T15:44:16.468+03:00,1745325854.854241,40.95221216915948,29.14026661759164,76.43822,-1,-1,-1,-1,30,21.17508972138302,-9999,36137.26199204167,-0.66943359375,0.6484375,-0.3542022705078125,36137.25191604167,-2.572702402136206,-1.096474783854931,-0.7134785705422529,-0.09013716131448746,0.03013302758336067,-0.009803553111851215,0.00404059886932373,-0.005893111228942871,-0.004261612892150879,XArbitraryZVertical,-0.552383944681879,0.1490156016565346,-0.7165015596232575,0.3991137138401717,-0.6726195812225342,0.6544678211212158,-0.3453326523303986,0,0,0,-1,-1,36114.55714354167,unknown,2,2025-04-22T15:43:53.759+03:00,2025-04-21T17:08:51.449+03:00,8272,1.043277,0,0,6880.045,7,22,2025-04-22T15:44:14.394+03:00,767018651.9156554,0,-13.21,100.3623,1,0.5,2025-04-22T15:44:06.954+03:00,101,1.683333333333333,2025-04-22T14:20:19.516+03:00,0.02197104130929222,0
2025-04-22T15:44:16.478+03:00,1745325854.854241,40.95221216915948,29.14026661759164,76.43822,-1,-1,-1,-1,30,21.17508972138302,-9999,36137.27206804167,-0.6679840087890625,0.6563568115234375,-0.3548126220703125,36137.26199204167,-2.573782988823683,-1.096851709099188,-0.7137875827319987,-0.0810401439666748,0.03230929747223854,-0.01372628938406706,0.002556443214416504,-0.007820427417755127,-0.008193254470825195,XArbitraryZVertical,-0.5524460011223166,0.1493653365117793,-0.7165477101857314,0.3988142428039747,-0.6725698113441467,0.6547014713287354,-0.3449868261814117,0,0,0,-1,-1,36114.55714354167,unknown,2,2025-04-22T15:43:53.759+03:00,2025-04-21T17:08:51.449+03:00,8272,1.043277,0,0,6880.045,7,22,2025-04-22T15:44:14.394+03:00,767018651.9156554,0,-13.21,100.3623,1,0.5,2025-04-22T15:44:06.954+03:00,101,1.683333333333333,2025-04-22T14:20:19.516+03:00,0.02197104130929222,0
2025-04-22T15:44:16.488+03:00,1745325854.854241,40.95221216915948,29.14026661759164,76.43822,-1,-1,-1,-1,30,21.17508972138302,-9999,36137.28214304167,-0.6684722900390625,0.6573638916015625,-0.354461669921875,36137.27206804167,-2.57475714430708,-1.097168700763526,-0.7139961097699514,-0.07010280340909958,0.03123311325907707,-0.01524562295526266,0.004665195941925049,-0.001142144203186035,-0.009567379951477051,XArbitraryZVertical,-0.5524918439691534,0.1496565848772582,-0.7166102444625829,0.3985291156701884,-0.6725575923919678,0.6548590660095215,-0.3447113335132599,0,0,0,-1,-1,36114.55714354167,unknown,2,2025-04-22T15:43:53.759+03:00,2025-04-21T17:08:51.449+03:00,8272,1.043277,0,0,6880.045,7,22,2025-04-22T15:44:14.394+03:00,767018651.9156554,0,-13.21,100.3623,1,0.5,2025-04-22T15:44:06.954+03:00,101,1.683333333333333,2025-04-22T14:20:19.516+03:00,0.02197104130929222,0
2025-04-22T15:44:16.498+03:00,1745325854.854241,40.95221216915948,29.14026661759164,76.43822,-1,-1,-1,-1,30,21.17508972138302,-9999,36137.29221904167,-0.6708984375,0.6544647216796875,-0.35137939453125,36137.28214304167,-2.575686624746471,-1.097433625498289,-0.7141383733568109,-0.07469023019075394,0.03674013167619705,-0.01905414275825024,0.004398822784423828,0.00317537784576416,-0.01142081618309021,XArbitraryZVertical,-0.5525206272940892,0.1499188646447263,-0.7166919546187445,0.3982433007432822,-0.6725658178329468,0.6549665927886963,-0.3444905877113342,0,0,0,-1,-1,36114.55714354167,unknown,2,2025-04-22T15:43:53.759+03:00,2025-04-21T17:08:51.449+03:00,8272,1.043277,0,0,6880.045,7,22,2025-04-22T15:44:14.394+03:00,767018651.9156554,0,-13.21,100.3623,1,0.5,2025-04-22T15:44:06.954+03:00,101,1.683333333333333,2025-04-22T14:20:19.516+03:00,0.02197104130929222,0
2025-04-22T15:44:16.508+03:00,1745325854.854241,40.95221216915948,29.14026661759164,76.43822,-1,-1,-1,-1,30,21.17508972138302,-9999,36137.30229504167,-0.6726837158203125,0.647003173828125,-0.3560333251953125,36137.29221904167,-2.576868981501518,-1.097795800902515,-0.7143045494634397,-0.1089744344353676,0.04088267683982849,-0.02720315009355545,0.003282248973846436,0.001417100429534912,-0.007670432329177856,XArbitraryZVertical,-0.5525656667544123,0.1502414316570918,-0.7167921138037479,0.3978788476132543,-0.6725936532020569,0.6550921201705933,-0.3441973924636841,0,0,0,-1,-1,36114.55714354167,unknown,2,2025-04-22T15:43:53.759+03:00,2025-04-21T17:08:51.449+03:00,8272,1.043277,0,0,6880.045,7,22,2025-04-22T15:44:14.394+03:00,767018651.9156554,0,-13.21,100.3623,1,0.5,2025-04-22T15:44:06.954+03:00,101,1.683333333333333,2025-04-22T14:20:19.516+03:00,0.02197104130929222,0
2025-04-22T15:44:16.519+03:00,1745325854.854241,40.95221216915948,29.14026661759164,76.43822,-1,-1,-1,-1,30,21.17508972138302,-9999,36137.31237104167,-0.6666107177734375,0.627838134765625,-0.355194091796875,36137.30229504167,-2.578759916750607,-1.09864370180631,-0.7147214091252894,-0.1875701099634171,0.0328112356364727,-0.02446511946618557,-0.0009265542030334473,-0.004253566265106201,-0.01134049892425537,XArbitraryZVertical,-0.5527370426905588,0.1507659169719452,-0.7168457731595741,0.3973455500623157,-0.6726421117782593,0.6554070115089417,-0.3435027897357941,0,0,0,-1,-1,36114.55714354167,unknown,2,2025-04-22T15:43:53.759+03:00,2025-04-21T17:08:51.449+03:00,8272,1.043277,0,0,6880.045,7,22,2025-04-22T15:44:14.394+03:00,767018651.9156554,0,-13.21,100.3623,1,0.5,2025-04-22T15:44:06.954+03:00,101,1.683333333333333,2025-04-22T14:20:19.516+03:00,0.02197104130929222,0
2025-04-22T15:44:16.529+03:00,1745325854.854241,40.95221216915948,29.14026661759164,76.43822,-1,-1,-1,-1,30,21.17508972138302,-9999,36137.32244704167,-0.6596221923828125,0.6075897216796875,-0.3517608642578125,36137.31237104167,-2.581716256677994,-1.100304020093212,-0.7156392579928069,-0.2981634736061096,0.01891779154539108,-0.01502954121679068,0.002753257751464844,-0.01951867341995239,-0.01375293731689453,XArbitraryZVertical,-0.5531295067917171,0.1516291432996063,-0.7167797599634391,0.3965893835278989,-0.6726750731468201,0.6560999751091003,-0.3421126902103424,0,0,0,-1,-1,36114.55714354167,unknown,2,2025-04-22T15:43:53.759+03:00,2025-04-21T17:08:51.449+03:00,8272,1.043277,0,0,6880.045,7,22,2025-04-22T15:44:14.394+03:00,767018651.9156554,0,-13.21,100.3623,1,0.5,2025-04-22T15:44:06.954+03:00,101,1.683333333333333,2025-04-22T14:20:19.516+03:00,0.02197104130929222,0
2025-04-22T15:44:16.539+03:00,1745325854.854241,40.95221216915948,29.14026661759164,76.43822,-1,-1,-1,-1,30,21.17508972138302,-9999,36137.33252304167,-0.6581268310546875,0.599517822265625,-0.3339996337890625,36137.32244704167,-2.586067380197869,-1.103047584321852,-0.7172207500804628,-0.4301291406154633,0.005703784991055727,-0.001078138826414943,0.009964466094970703,-0.04379785060882568,-0.01445063948631287,XArbitraryZVertical,-0.5538154956513892,0.1529365118103627,-0.7165484161109016,0.3955467523615712,-0.6726841330528259,0.6572926640510559,-0.3397976458072662,0,0,0,-1,-1,36114.55714354167,unknown,2,2025-04-22T15:43:53.759+03:00,2025-04-21T17:08:51.449+03:00,8272,1.043277,0,0,6880.045,7,22,2025-04-22T15:44:14.394+03:00,767018651.9156554,0,-13.21,100.3623,1,0.5,2025-04-22T15:44:06.954+03:00,101,1.683333333333333,2025-04-22T14:20:19.516+03:00,0.02197104130929222,0
2025-04-22T15:44:16.549+03:00,1745325854.854241,40.95221216915948,29.14026661759164,76.43822,-1,-1,-1,-1,30,21.17508972138302,-9999,36137.34259904167,-0.6608734130859375,0.598846435546875,-0.3147430419921875,36137.33252304167,-2.59170466593257,-1.106711739719948,-0.7195174611679289,-0.5253792405128479,0.00171490223146975,0.02878069132566452,0.01424777507781982,-0.05745941400527954,-0.006882637739181519,XArbitraryZVertical,-0.5547402469174004,0.1547135588715397,-0.7161615133602118,0.394258420290746,-0.6725729703903198,0.65902179479599,-0.3366539478302002,0,0,0,-1,-1,36114.55714354167,unknown,2,2025-04-22T15:43:53.759+03:00,2025-04-21T17:08:51.449+03:00,8272,1.043277,0,0,6880.045,7,22,2025-04-22T15:44:14.394+03:00,767018651.9156554,0,-13.21,100.3623,1,0.5,2025-04-22T15:44:06.954+03:00,101,1.683333333333333,2025-04-22T14:20:19.516+03:00,0.02197104130929222,0
2025-04-22T15:44:16.560+03:00,1745325854.854241,40.95221216915948,29.14026661759164,76.43822,-1,-1,-1,-1,30,21.17508972138302,-9999,36137.35267504167,-0.6672515869140625,0.621246337890625,-0.318634033203125,36137.34259904167,-2.598081925984259,-1.11078193939773,-0.7222974323562501,-0.5690634846687317,0.0220906138420105,0.03959132358431816,0.01334261894226074,-0.06290465593338013,0.01393073797225952,XArbitraryZVertical,-0.5557506208767345,0.1568176218642774,-0.7157001467535354,0.3928392940232114,-0.6722933650016785,0.6611101627349854,-0.3330989480018616,0,0,0,-1,-1,36114.55714354167,unknown,2,2025-04-22T15:43:53.759+03:00,2025-04-21T17:08:51.449+03:00,8272,1.043277,0,0,6880.045,7,22,2025-04-22T15:44:14.394+03:00,767018651.9156554,0,-13.21,100.3623,1,0.5,2025-04-22T15:44:06.954+03:00,101,1.683333333333333,2025-04-22T14:20:19.516+03:00,0.02197104130929222,0
2025-04-22T15:44:16.569+03:00,1745325854.854241,40.95221216915948,29.14026661759164,76.43822,-1,-1,-1,-1,30,21.17508972138302,-9999,36137.36275104167,-0.6715240478515625,0.661163330078125,-0.33319091796875,36137.35267504167,-2.604524382049611,-1.114687092222908,-0.7251594116767844,-0.5441192388534546,0.04312825575470924,0.04853928089141846,0.007214903831481934,-0.05449020862579346,0.01367238163948059,XArbitraryZVertical,-0.5566844314522147,0.1590102931957402,-0.7152741094013368,0.3914092414491172,-0.6718876957893372,0.6632547378540039,-0.3296363353729248,0,0,0,-1,-1,36114.55714354167,unknown,2,2025-04-22T15:43:53.759+03:00,2025-04-21T17:08:51.449+03:00,8272,1.043277,0,0,6880.045,7,22,2025-04-22T15:44:14.394+03:00,767018651.9156554,0,-13.21,100.3623,1,0.5,2025-04-22T15:44:06.954+03:00,101,1.683333333333333,2025-04-22T14:20:19.516+03:00,0.02197104130929222,0
2025-04-22T15:44:16.579+03:00,1745325854.854241,40.95221216915948,29.14026661759164,76.43822,-1,-1,-1,-1,30,21.17508972138302,-9999,36137.37282704167,-0.665771484375,0.69189453125,-0.33636474609375,36137.36275104167,-2.610384533209986,-1.118015123463544,-0.7278619608668421,-0.4747356474399567,0.05987714231014252,0.0458497554063797,0.0006818771362304688,-0.01845502853393555,-0.0002761781215667725,XArbitraryZVertical,-0.5574428969683212,0.1610928783536484,-0.7149225368378447,0.3901180226988828,-0.6713665127754211,0.6652749180793762,-0.3266130089759827,0,0,0,-1,-1,36114.55714354167,unknown,2,2025-04-22T15:43:53.759+03:00,2025-04-21T17:08:51.449+03:00,8272,1.043277,0,0,6880.045,7,22,2025-04-22T15:44:14.394+03:00,767018651.9156554,0,-13.21,100.3623,1,0.5,2025-04-22T15:44:06.954+03:00,101,1.683333333333333,2025-04-22T14:20:19.516+03:00,0.02197104130929222,0
2025-04-22T15:44:16.589+03:00,1745325854.854241,40.95221216915948,29.14026661759164,76.43822,-1,-1,-1,-1,30,21.17508972138302,-9999,36137.38290304167,-0.6616363525390625,0.707183837890625,-0.32586669921875,36137.37282704167,-2.615224278808566,-1.120621203966125,-0.729960155567646,-0.3621563613414764,0.0536261685192585,0.01961042918264866,0.002698659896850586,0.01576179265975952,-0.01287367939949036,XArbitraryZVertical,-0.5580078854942335,0.1627885329980988,-0.7146966722424331,0.3890187836797466,-0.6709571480751038,0.6668399572372437,-0.324254184961319,0,0,0,-1,-1,36114.55714354167,unknown,2,2025-04-22T15:43:53.759+03:00,2025-04-21T17:08:51.449+03:00,8272,1.043277,0,0,6880.045,7,22,2025-04-22T15:44:14.394+03:00,767018651.9156554,0,-13.21,100.3623,1,0.5,2025-04-22T15:44:06.954+03:00,101,1.683333333333333,2025-04-22T14:20:19.516+03:00,0.02197104130929222,0
2025-04-22T15:44:16.599+03:00,1745325854.854241,40.95221216915948,29.14026661759164,76.43822,-1,-1,-1,-1,30,21.17508972138302,-9999,36137.39297904167,-0.661163330078125,0.717041015625,-0.313232421875,36137.38290304167,-2.618873632804562,-1.122508677315266,-0.731348661667213,-0.2533529102802277,0.05069482699036598,-0.002548936055973172,0.007418155670166016,0.03447264432907104,-0.008576095104217529,XArbitraryZVertical,-0.5583991474110718,0.1640049029048899,-0.7145866317407904,0.3881476145410375,-0.6707329154014587,0.6678740382194519,-0.3225855827331543,0,0,0,-1,-1,36114.55714354167,unknown,2,2025-04-22T15:43:53.759+03:00,2025-04-21T17:08:51.449+03:00,8272,1.043277,0,0,6880.045,7,22,2025-04-22T15:44:14.394+03:00,767018651.9156554,0,-13.21,100.3623,1,0.5,2025-04-22T15:44:06.954+03:00,101,1.683333333333333,2025-04-22T14:20:19.516+03:00,0.02197104130929222,0
2025-04-22T15:44:16.609+03:00,1745325854.854241,40.95221216915948,29.14026661759164,76.43822,-1,-1,-1,-1,30,21.17508972138302,-9999,36137.40305504167,-0.671478271484375,0.71435546875,-0.3196563720703125,36137.39297904167,-2.62153325992885,-1.123732408879987,-0.7321254505670491,-0.1727334409952164,0.06147397309541702,-0.02618049457669258,0.01050299406051636,0.04593390226364136,0.004340231418609619,XArbitraryZVertical,-0.5586253725075941,0.1648260224127759,-0.7145971899516864,0.3874542361236566,-0.6706591844558716,0.6684519648551941,-0.3215401470661163,0,0,0,-1,-1,36114.55714354167,unknown,2,2025-04-22T15:43:53.759+03:00,2025-04-21T17:08:51.449+03:00,8272,1.043277,0,0,6880.045,7,22,2025-04-22T15:44:14.394+03:00,767018651.9156554,0,-13.21,100.3623,1,0.5,2025-04-22T15:44:06.954+03:00,101,1.683333333333333,2025-04-22T14:20:19.516+03:00,0.02197104130929222,0
2025-04-22T15:44:16.620+03:00,1745325854.854241,40.95221216915948,29.14026661759164,76.43822,-1,-1,-1,-1,30,21.17508972138302,-9999,36137.41313104167,-0.6744842529296875,0.6973876953125,-0.3306884765625,36137.40305504167,-2.623541592950167,-1.124378855318385,-0.7324837384687469,-0.128713384270668,0.07336192578077316,-0.03779993206262589,0.003643572330474854,0.04818516969680786,0.005649566650390625,XArbitraryZVertical,-0.5586938396380854,0.1654074158816806,-0.7147301420173626,0.3868622062113801,-0.6706508994102478,0.6687183976173401,-0.3210031688213348,0,0,0,-1,-1,36114.55714354167,unknown,2,2025-04-22T15:43:53.759+03:00,2025-04-21T17:08:51.449+03:00,8272,1.043277,0,0,6880.045,7,22,2025-04-22T15:44:14.394+03:00,767018651.9156554,0,-13.21,100.3623,1,0.5,2025-04-22T15:44:06.954+03:00,101,1.683333333333333,2025-04-22T14:20:19.516+03:00,0.02197104130929222,0
2025-04-22T15:44:16.629+03:00,1745325854.854241,40.95221216915948,29.14026661759164,76.43822,-1,-1,-1,-1,30,21.17508972138302,-9999,36137.42320704167,-0.6689453125,0.6763153076171875,-0.330474853515625,36137.41313104167,-2.625302379756825,-1.124820284665371,-0.7326704399571216,-0.1272446513175964,0.06901537626981735,-0.04386235773563385,-0.003651678562164307,0.03648024797439575,-0.007288813591003418,XArbitraryZVertical,-0.558707393122218,0.1658898002246242,-0.7149079862499397,0.3863071418152157,-0.6706799268722534,0.668857216835022,-0.3206532597541809,0,0,0,-1,-1,36114.55714354167,unknown,2,2025-04-22T15:43:53.759+03:00,2025-04-21T17:08:51.449+03:00,8272,1.043277,0,0,6880.045,7,22,2025-04-22T15:44:14.394+03:00,767018651.9156554,0,-13.21,100.3623,1,0.5,2025-04-22T15:44:06.954+03:00,101,1.683333333333333,2025-04-22T14:20:19.516+03:00,0.02197104130929222,0
2025-04-22T15:44:16.639+03:00,1745325854.854241,40.95221216915948,29.14026661759164,76.43822,-1,-1,-1,-1,30,21.17508972138302,-9999,36137.43328304167,-0.6643524169921875,0.65863037109375,-0.3259735107421875,36137.42320704167,-2.627260374837112,-1.125535934271165,-0.7328486804571056,-0.1490030735731125,0.05280777812004089,-0.0492076501250267,-0.000813901424407959,0.01474130153656006,-0.0116196870803833,XArbitraryZVertical,-0.5588020545632627,0.1663710910488514,-0.7150485378923841,0.3857026613900156,-0.6708016395568848,0.6689897179603577,-0.3201218545436859,0,0,0,-1,-1,36114.55714354167,unknown,2,2025-04-22T15:43:53.759+03:00,2025-04-21T17:08:51.449+03:00,8272,1.043277,0,0,6880.045,7,22,2025-04-22T15:44:14.394+03:00,767018651.9156554,0,-13.21,100.3623,1,0.5,2025-04-22T15:44:06.954+03:00,101,1.683333333333333,2025-04-22T14:20:19.516+03:00,0.02197104130929222,0
2025-04-22T15:44:16.650+03:00,1745325854.854241,40.95221216915948,29.14026661759164,76.43822,-1,-1,-1,-1,30,21.17508972138302,-9999,36137.44335804167,-0.6629638671875,0.6516265869140625,-0.32330322265625,36137.43328304167,-2.629730062971879,-1.126722963562696,-0.7331725273809571,-0.2093804031610489,0.04289522767066956,-0.0525674968957901,0.00512242317199707,-0.005518972873687744,-0.008267372846603394,XArbitraryZVertical,-0.5590231609952478,0.1669641126189414,-0.7151245514043657,0.3849841285617907,-0.6709852814674377,0.6692303419113159,-0.3192321956157684,0,0,0,-1,-1,36114.55714354167,unknown,2,2025-04-22T15:43:53.759+03:00,2025-04-21T17:08:51.449+03:00,8272,1.043277,0,0,6880.045,7,22,2025-04-22T15:44:14.394+03:00,767018651.9156554,0,-13.21,100.3623,1,0.5,2025-04-22T15:44:06.954+03:00,101,1.683333333333333,2025-04-22T14:20:19.516+03:00,0.02197104130929222,0
2025-04-22T15:44:16.660+03:00,1745325854.854241,40.95221216915948,29.14026661759164,76.43822,-1,-1,-1,-1,30,21.17508972138302,-9999,36137.45343404167,-0.6647186279296875,0.6470947265625,-0.325653076171875,36137.44335804167,-2.633079067920268,-1.128531186174996,-0.7337474849346058,-0.2847060263156891,0.04367526993155479,-0.05784521624445915,0.008066713809967041,-0.01671880483627319,-0.006517857313156128,XArbitraryZVertical,-0.5593933885676301,0.167786257691392,-0.7151423120296806,0.3840547456911433,-0.6712135672569275,0.6696574687957764,-0.3178536295890808,0,0,0,-1,-1,36114.55714354167,unknown,2,2025-04-22T15:43:53.759+03:00,2025-04-21T17:08:51.449+03:00,8272,1.043277,0,0,6880.045,7,22,2025-04-22T15:44:14.394+03:00,767018651.9156554,0,-13.21,100.3623,1,0.5,2025-04-22T15:44:06.954+03:00,101,1.683333333333333,2025-04-22T14:20:19.516+03:00,0.02197104130929222,0
2025-04-22T15:44:16.670+03:00,1745325854.854241,40.95221216915948,29.14026661759164,76.43822,-1,-1,-1,-1,30,21.17508972138302,-9999,36137.46351004167,-0.6616363525390625,0.651641845703125,-0.3313140869140625,36137.45343404167,-2.637161273789755,-1.130834695614536,-0.7347020743438956,-0.3401336073875427,0.03740725293755531,-0.02604254335165024,0.00721132755279541,-0.02267646789550781,-0.008138865232467651,XArbitraryZVertical,-0.5598789438334936,0.1688740801225618,-0.7150807206499272,0.3829836095496742,-0.6713652610778809,0.670366108417511,-0.3160342276096344,0,0,0,-1,-1,36114.55714354167,unknown,2,2025-04-22T15:43:53.759+03:00,2025-04-21T17:08:51.449+03:00,8272,1.043277,0,0,6880.045,7,22,2025-04-22T15:44:14.394+03:00,767018651.9156554,0,-13.21,100.3623,1,0.5,2025-04-22T15:44:06.954+03:00,101,1.683333333333333,2025-04-22T14:20:19.516+03:00,0.02197104130929222,0
2025-04-22T15:44:16.682+03:00,1745325854.854241,40.95221216915948,29.14026661759164,76.43822,-1,-1,-1,-1,30,21.17508972138302,-9999,36137.47358604167,-0.6570587158203125,0.6652374267578125,-0.3382568359375,36137.46351004167,-2.641746716470637,-1.133611134619084,-0.7359735660556277,-0.3750991225242615,0.02051661908626556,-0.03375163301825523,0.00737464427947998,-0.02352774143218994,-0.01524803042411804,XArbitraryZVertical,-0.5604885247735282,0.1701429424179201,-0.7149141844773124,0.3818399790514591,-0.671467661857605,0.6713090538978577,-0.3138079941272736,0,0,0,-1,-1,36114.55714354167,unknown,2,2025-04-22T15:43:53.759+03:00,2025-04-21T17:08:51.449+03:00,8272,1.043277,0,0,6880.045,7,22,2025-04-22T15:44:14.394+03:00,767018651.9156554,0,-13.21,100.3623,1,0.5,2025-04-22T15:44:06.954+03:00,101,1.683333333333333,2025-04-22T14:20:19.516+03:00,0.02197104130929222,0
2025-04-22T15:44:16.690+03:00,1745325854.854241,40.95221216915948,29.14026661759164,76.43822,-1,-1,-1,-1,30,21.17508972138302,-9999,36137.48366204167,-0.6582183837890625,0.6800079345703125,-0.34112548828125,36137.47358604167,-2.646609862719326,-1.136720383940618,-0.7372824260758772,-0.375548928976059,0.009680483490228653,-0.0287368968129158,0.01388174295425415,-0.01293110847473145,-0.02478715777397156,XArbitraryZVertical,-0.5611884393133648,0.1714441490388038,-0.7146958810388679,0.380636607155361,-0.6716423034667969,0.6722785830497742,-0.3113488852977753,0,0,0,-1,-1,36114.55714354167,unknown,2,2025-04-22T15:43:53.759+03:00,2025-04-21T17:08:51.449+03:00,8272,1.043277,0,0,6880.045,7,22,2025-04-22T15:44:14.394+03:00,767018651.9156554,0,-13.21,100.3623,1,0.5,2025-04-22T15:44:06.954+03:00,101,1.683333333333333,2025-04-22T14:20:19.516+03:00,0.02197104130929222,0
2025-04-22T15:44:16.700+03:00,1745325854.854241,40.95221216915948,29.14026661759164,76.43822,-1,-1,-1,-1,30,21.17508972138302,-9999,36137.49373804167,-0.66180419921875,0.6849212646484375,-0.34149169921875,36137.48366204167,-2.651421981061426,-1.139908529143793,-0.7385843932907765,-0.3797436654567719,0.0009943176992237568,-0.03430436924099922,0.01354098320007324,0.001974642276763916,-0.03111061453819275,XArbitraryZVertical,-0.5619154889616702,0.1727163683537242,-0.7144434110383717,0.3794607205119808,-0.6718354821205139,0.6732418537139893,-0.3088400661945343,0,0,0,-1,-1,36114.55714354167,unknown,2,2025-04-22T15:43:53.759+03:00,2025-04-21T17:08:51.449+03:00,8272,1.043277,0,0,6880.045,7,22,2025-04-22T15:44:14.394+03:00,767018651.9156554,0,-13.21,100.3623,1,0.5,2025-04-22T15:44:06.954+03:00,101,1.683333333333333,2025-04-22T14:20:19.516+03:00,0.02197104130929222,0
2025-04-22T15:44:16.719+03:00,1745325854.854241,40.95221216915948,29.14026661759164,76.43822,-1,-1,-1,-1,30,21.17508972138302,-9999,36137.50381404167,-0.6702423095703125,0.67425537109375,-0.3340606689453125,36137.49373804167,-2.656647041948025,-1.143358964202212,-0.7399068355103803,-0.44073486328125,0.01840766333043575,-0.03819817677140236,0.01307463645935059,0.01123607158660889,-0.03637868165969849,XArbitraryZVertical,-0.5626948146910846,0.1740664784867525,-0.7141875748725435,0.3781684727405186,-0.6720863580703735,0.6742191314697266,-0.3061508238315582,0,0,0,-1,-1,36114.55714354167,unknown,2,2025-04-22T15:43:53.759+03:00,2025-04-21T17:08:51.449+03:00,8272,1.043277,0,0,6880.045,7,22,2025-04-22T15:44:14.394+03:00,767018651.9156554,0,-13.21,100.3623,1,0.5,2025-04-22T15:44:06.954+03:00,101,1.683333333333333,2025-04-22T14:20:19.516+03:00,0.02197104130929222,0
2025-04-22T15:44:16.721+03:00,1745325854.854241,40.95221216915948,29.14026661759164,76.43822,-1,-1,-1,-1,30,21.17508972138302,-9999,36137.51389004167,-0.673065185546875,0.651947021484375,-0.3341827392578125,36137.50381404167,-2.663005575853577,-1.147422664066624,-0.7416262887906984,-0.5442901253700256,0.02839365042746067,-0.0286979153752327,0.004038989543914795,0.004031598567962646,-0.03418746590614319,XArbitraryZVertical,-0.5635864052038557,0.175784375571638,-0.7138856385186391,0.3766131477285745,-0.6722670793533325,0.6754879951477051,-0.3029404282569885,0,0,0,-1,-1,36114.55714354167,unknown,2,2025-04-22T15:43:53.759+03:00,2025-04-21T17:08:51.449+03:00,8272,1.043277,0,0,6880.045,7,22,2025-04-22T15:44:14.394+03:00,767018651.9156554,0,-13.21,100.3623,1,0.5,2025-04-22T15:44:06.954+03:00,101,1.683333333333333,2025-04-22T14:20:19.516+03:00,0.02197104130929222,0
2025-04-22T15:44:16.737+03:00,1745325854.854241,40.95221216915948,29.14026661759164,76.43822,-1,-1,-1,-1,30,21.17508972138302,-9999,36137.52396604167,-0.66278076171875,0.6326141357421875,-0.359466552734375,36137.51389004167,-2.670897353494755,-1.15241922093156,-0.7441518112203561,-0.7323665022850037,0.03731684014201164,0.01578939147293568,-0.00129622220993042,-0.01589494943618774,-0.03214073181152344,XArbitraryZVertical,-0.5646610447068822,0.1780901335501619,-0.7134344841238663,0.374770663036313,-0.6722114086151123,0.6773480772972107,-0.2988836169242859,0,0,0,-1,-1,36114.55714354167,unknown,2,2025-04-22T15:43:53.759+03:00,2025-04-21T17:08:51.449+03:00,8272,1.043277,0,0,6880.045,7,22,2025-04-22T15:44:14.394+03:00,767018651.9156554,0,-13.21,100.3623,1,0.5,2025-04-22T15:44:06.954+03:00,101,1.683333333333333,2025-04-22T14:20:19.516+03:00,0.02197104130929222,0
2025-04-22T15:44:16.740+03:00,1745325854.854241,40.95221216915948,29.14026661759164,76.43822,-1,-1,-1,-1,30,21.17508972138302,-9999,36137.53404204167,-0.6368408203125,0.6179351806640625,-0.378204345703125,36137.52396604167,-2.681448955775169,-1.159413839546521,-0.7480802483418267,-0.9829367995262146,-0.003672539722174406,0.07888919860124588,0.003125011920928955,-0.0410880446434021,-0.05607414245605469,XArbitraryZVertical,-0.5661793175534292,0.1813474655546435,-0.712614227524701,0.3724714614785403,-0.6718413829803467,0.68023282289505,-0.2931081652641296,0,0,0,-1,-1,36114.55714354167,unknown,2,2025-04-22T15:43:53.759+03:00,2025-04-21T17:08:51.449+03:00,8272,1.043277,0,0,6880.045,7,22,2025-04-22T15:44:14.394+03:00,767018651.9156554,0,-13.21,100.3623,1,0.5,2025-04-22T15:44:06.954+03:00,101,1.683333333333333,2025-04-22T14:20:19.516+03:00,0.02197104130929222,0
2025-04-22T15:44:16.750+03:00,1745325854.854241,40.95221216915948,29.14026661759164,76.43822,-1,-1,-1,-1,30,21.17508972138302,-9999,36137.54411804167,-0.611083984375,0.6092681884765625,-0.4092864990234375,36137.53404204167,-2.694364598689424,-1.168713124340018,-0.7534288632443025,-1.152431845664978,-0.09756415337324142,0.1515069454908371,0.02385663986206055,-0.05976933240890503,-0.08532297611236572,XArbitraryZVertical,-0.5682475864800511,0.1854310443031072,-0.7112681359006324,0.3698750621150659,-0.6711801886558533,0.684143602848053,-0.2854200303554535,0,0,0,-1,-1,36114.55714354167,unknown,2,2025-04-22T15:43:53.759+03:00,2025-04-21T17:08:51.449+03:00,8272,1.043277,0,0,6880.045,7,22,2025-04-22T15:44:14.394+03:00,767018651.9156554,0,-13.21,100.3623,1,0.5,2025-04-22T15:44:06.954+03:00,101,1.683333333333333,2025-04-22T14:20:19.516+03:00,0.02197104130929222,0
2025-04-22T15:44:16.760+03:00,1745325854.854241,40.95221216915948,29.14026661759164,76.43822,-1,-1,-1,-1,30,21.17508972138302,-9999,36137.55419404167,-0.605010986328125,0.6327056884765625,-0.4168548583984375,36137.54411804167,-2.708731238742935,-1.180117938624239,-0.7597396121442538,-1.224086403846741,-0.2117957174777985,0.1999472826719284,0.05141341686248779,-0.07876265048980713,-0.1214858889579773,XArbitraryZVertical,-0.5708525812274864,0.1899439184371665,-0.7093663369986437,0.3672165579488317,-0.6703860759735107,0.6887326836585999,-0.2760972678661346,0,0,0,-1,-1,36114.55714354167,unknown,2,2025-04-22T15:43:53.759+03:00,2025-04-21T17:08:51.449+03:00,8272,1.043277,0,0,6880.045,7,22,2025-04-22T15:44:14.394+03:00,767018651.9156554,0,-13.21,100.3623,1,0.5,2025-04-22T15:44:06.954+03:00,101,1.683333333333333,2025-04-22T14:20:19.516+03:00,0.02197104130929222,0
2025-04-22T15:44:16.771+03:00,1745325854.854241,40.95221216915948,29.14026661759164,76.43822,-1,-1,-1,-1,30,21.17508972138302,-9999,36137.56427004167,-0.6289215087890625,0.66455078125,-0.408477783203125,36137.55419404167,-2.72304837819993,-1.192508528962486,-0.7661209426253358,-1.12692391872406,-0.2698694169521332,0.2026794254779816,0.06603521108627319,-0.07251089811325073,-0.1526669859886169,XArbitraryZVertical,-0.5737347735135244,0.194313735273306,-0.7071282868614513,0.3647466855626083,-0.6696575880050659,0.6933451890945435,-0.2661411762237549,0,0,0,-1,-1,36114.55714354167,unknown,2,2025-04-22T15:43:53.759+03:00,2025-04-21T17:08:51.449+03:00,8272,1.043277,0,0,6880.045,7,22,2025-04-22T15:44:14.394+03:00,767018651.9156554,0,-13.21,100.3623,1,0.5,2025-04-22T15:44:06.954+03:00,101,1.683333333333333,2025-04-22T14:20:19.516+03:00,0.02197104130929222,0
2025-04-22T15:44:16.781+03:00,1745325854.854241,40.95221216915948,29.14026661759164,76.43822,-1,-1,-1,-1,30,21.17508972138302,-9999,36137.57434604167,-0.665496826171875,0.6890106201171875,-0.4027862548828125,36137.56427004167,-2.735308096758346,-1.203698574627234,-0.7717855797268544,-0.9126960039138794,-0.2713599801063538,0.2039183229207993,0.05241632461547852,-0.04376012086868286,-0.1528017222881317,XArbitraryZVertical,-0.5763402799736052,0.1980484781853334,-0.7049788008926128,0.3627857293102416,-0.6689170598983765,0.6974160075187683,-0.2572173774242401,0,0,0,-1,-1,36114.55714354167,unknown,2,2025-04-22T15:43:53.759+03:00,2025-04-21T17:08:51.449+03:00,8272,1.043277,0,0,6880.045,7,22,2025-04-22T15:44:14.394+03:00,767018651.9156554,0,-13.21,100.3623,1,0.5,2025-04-22T15:44:06.954+03:00,101,1.683333333333333,2025-04-22T14:20:19.516+03:00,0.02197104130929222,0
2025-04-22T15:44:16.791+03:00,1745325854.854241,40.95221216915948,29.14026661759164,76.43822,-1,-1,-1,-1,30,21.17508972138302,-9999,36137.58442204167,-0.70037841796875,0.69232177734375,-0.3696136474609375,36137.57434604167,-2.745046067665615,-1.21359485591305,-0.7765325326143736,-0.7173590064048767,-0.3216548264026642,0.196412205696106,0.01638877391815186,-0.01929175853729248,-0.1574816554784775,XArbitraryZVertical,-0.5787138873955241,0.2009425460424943,-0.7029126303510408,0.3614221368207666,-0.6683204174041748,0.7008101344108582,-0.2494246661663055,0,0,0,-1,-1,36114.55714354167,unknown,2,2025-04-22T15:43:53.759+03:00,2025-04-21T17:08:51.449+03:00,8272,1.043277,0,0,6880.045,7,22,2025-04-22T15:44:14.394+03:00,767018651.9156554,0,-13.21,100.3623,1,0.5,2025-04-22T15:44:06.954+03:00,101,1.683333333333333,2025-04-22T14:20:19.516+03:00,0.02197104130929222,0
2025-04-22T15:44:16.801+03:00,1745325854.854241,40.95221216915948,29.14026661759164,76.43822,-1,-1,-1,-1,30,21.17508972138302,-9999,36137.59449804167,-0.7171783447265625,0.6729888916015625,-0.3396759033203125,36137.58442204167,-2.752177337330509,-1.221764365270661,-0.7805919238199142,-0.5232737064361572,-0.3186129927635193,0.21103136241436,-0.02059066295623779,-0.00928807258605957,-0.1407313048839569,XArbitraryZVertical,-0.5807294844997906,0.2031316312505038,-0.7010025140649779,0.3606744150444887,-0.6676568984985352,0.7037001252174377,-0.2429816126823425,0,0,0,-1,-1,36114.55714354167,unknown,2,2025-04-22T15:43:53.759+03:00,2025-04-21T17:08:51.449+03:00,8272,1.043277,0,0,6880.045,7,22,2025-04-22T15:44:14.394+03:00,767018651.9156554,0,-13.21,100.3623,1,0.5,2025-04-22T15:44:06.954+03:00,101,1.683333333333333,2025-04-22T14:20:19.516+03:00,0.02197104130929222,0
2025-04-22T15:44:16.811+03:00,1745325854.854241,40.95221216915948,29.14026661759164,76.43822,-1,-1,-1,-1,30,21.17508972138302,-9999,36137.60457404167,-0.720947265625,0.669921875,-0.3013153076171875,36137.59449804167,-2.757921396230252,-1.229012231709338,-0.7843680253408818,-0.5072915554046631,-0.3154659271240234,0.2177433222532272,-0.046303391456604,-0.02551567554473877,-0.1136321276426315,XArbitraryZVertical,-0.582548399043826,0.2049766002407278,-0.6991592555039369,0.3602751417509752,-0.6668922901153564,0.7063779830932617,-0.2372439056634903,0,0,0,-1,-1,36114.55714354167,unknown,2,2025-04-22T15:43:53.759+03:00,2025-04-21T17:08:51.449+03:00,8272,1.043277,0,0,6880.045,7,22,2025-04-22T15:44:14.394+03:00,767018651.9156554,0,-13.21,100.3623,1,0.5,2025-04-22T15:44:06.954+03:00,101,1.683333333333333,2025-04-22T14:20:19.516+03:00,0.02197104130929222,0
2025-04-22T15:44:16.821+03:00,1745325854.854241,40.95221216915948,29.14026661759164,76.43822,-1,-1,-1,-1,30,21.17508972138302,-9999,36137.61465004167,-0.7188262939453125,0.6763763427734375,-0.28253173828125,36137.60457404167,-2.763958180547335,-1.236541485209093,-0.7881056351918844,-0.5433236956596375,-0.3320420980453491,0.1993710398674011,-0.05425220727920532,-0.04118740558624268,-0.08498190343379974,XArbitraryZVertical,-0.5844155355378603,0.2068437896638691,-0.6972870015886877,0.3598122067844048,-0.6661608815193176,0.7090186476707458,-0.2313482612371445,0,0,0,-1,-1,36114.55714354167,unknown,2,2025-04-22T15:43:53.759+03:00,2025-04-21T17:08:51.449+03:00,8272,1.043277,0,0,6880.045,7,22,2025-04-22T15:44:14.394+03:00,767018651.9156554,0,-13.21,100.3623,1,0.5,2025-04-22T15:44:06.954+03:00,101,1.683333333333333,2025-04-22T14:20:19.516+03:00,0.02197104130929222,0
2025-04-22T15:44:16.831+03:00,1745325854.854241,40.95221216915948,29.14026661759164,76.43822,-1,-1,-1,-1,30,21.17508972138302,-9999,36137.62472604167,-0.70819091796875,0.6888275146484375,-0.2807464599609375,36137.61465004167,-2.770972217611274,-1.244891408425985,-0.7918674266554823,-0.6440141201019287,-0.3355239033699036,0.1973574161529541,-0.05421900749206543,-0.03811299800872803,-0.05998995900154114,XArbitraryZVertical,-0.5864429562716286,0.2088623115381469,-0.6953373164670629,0.3591200897035211,-0.6655380129814148,0.7116664052009583,-0.224922388792038,0,0,0,-1,-1,36114.55714354167,unknown,2,2025-04-22T15:43:53.759+03:00,2025-04-21T17:08:51.449+03:00,8272,1.043277,0,0,6880.045,7,22,2025-04-22T15:44:14.394+03:00,767018651.9156554,0,-13.21,100.3623,1,0.5,2025-04-22T15:44:06.954+03:00,101,1.683333333333333,2025-04-22T14:20:19.516+03:00,0.02197104130929222,0
2025-04-22T15:44:16.841+03:00,1745325854.854241,40.95221216915948,29.14026661759164,76.43822,-1,-1,-1,-1,30,21.17508972138302,-9999,36137.63480104167,-0.6892852783203125,0.7106170654296875,-0.2657470703125,36137.62472604167,-2.780213459681764,-1.254845646907597,-0.7961413571475642,-0.8509128093719482,-0.3349607884883881,0.1955388188362122,-0.04914247989654541,-0.03276258707046509,-0.06520788371562958,XArbitraryZVertical,-0.5887429026729623,0.2114524504232804,-0.6932006470716956,0.3579698897265812,-0.6648467183113098,0.7146624326705933,-0.2173393070697784,0,0,0,-1,-1,36114.55714354167,unknown,2,2025-04-22T15:43:53.759+03:00,2025-04-21T17:08:51.449+03:00,8272,1.043277,0,0,6880.045,7,22,2025-04-22T15:44:14.394+03:00,767018651.9156554,0,-13.21,100.3623,1,0.5,2025-04-22T15:44:06.954+03:00,101,1.683333333333333,2025-04-22T14:20:19.516+03:00,0.02197104130929222,0
2025-04-22T15:44:16.851+03:00,1745325854.854241,40.95221216915948,29.14026661759164,76.43822,-1,-1,-1,-1,30,21.17508972138302,-9999,36137.64487704167,-0.6817779541015625,0.71649169921875,-0.265472412109375,36137.63480104167,-2.792387994791774,-1.267038761960105,-0.8007484108904624,-1.023159980773926,-0.3655780851840973,0.1563424170017242,-0.03115123510360718,-0.01521015167236328,-0.06355994939804077,XArbitraryZVertical,-0.5914483809615111,0.2146483311899365,-0.6908437231281763,0.3561599133869777,-0.6642985343933105,0.7178773283958435,-0.2082298099994659,0,0,0,-1,-1,36114.55714354167,unknown,2,2025-04-22T15:43:53.759+03:00,2025-04-21T17:08:51.449+03:00,8272,1.043277,0,0,6880.045,7,22,2025-04-22T15:44:14.394+03:00,767018651.9156554,0,-13.21,100.3623,1,0.5,2025-04-22T15:44:06.954+03:00,101,1.683333333333333,2025-04-22T14:20:19.516+03:00,0.02197104130929222,0
2025-04-22T15:44:16.861+03:00,1745325854.854241,40.95221216915948,29.14026661759164,76.43822,-1,-1,-1,-1,30,21.17508972138302,-9999,36137.65495304167,-0.677886962890625,0.7193145751953125,-0.2686309814453125,36137.64487704167,-2.806668848609057,-1.281168098312801,-0.8052981414344496,-1.113343000411987,-0.3899759650230408,0.1401914805173874,-0.01984643936157227,-0.004240512847900391,-0.06499026715755463,XArbitraryZVertical,-0.594540220702134,0.2181232653722203,-0.6882729449665074,0.3538705684144818,-0.6640371084213257,0.7210372686386108,-0.1978883296251297,0,0,0,-1,-1,36114.55714354167,unknown,2,2025-04-22T15:43:53.759+03:00,2025-04-21T17:08:51.449+03:00,8272,1.043277,0,0,6880.045,7,22,2025-04-22T15:44:14.394+03:00,767018651.9156554,0,-13.21,100.3623,1,0.5,2025-04-22T15:44:06.954+03:00,101,1.683333333333333,2025-04-22T14:20:19.516+03:00,0.02197104130929222,0
2025-04-22T15:44:16.871+03:00,1745325854.854241,40.95221216915948,29.14026661759164,76.43822,-1,-1,-1,-1,30,21.17508972138302,-9999,36137.66502904167,-0.68011474609375,0.7393798828125,-0.2550506591796875,36137.65495304167,-2.821820288368298,-1.296186999942493,-0.8098871497484726,-1.132787704467773,-0.4124431908130646,0.1558524668216705,-0.0157313346862793,-0.007458329200744629,-0.08166760206222534,XArbitraryZVertical,-0.5977730111786075,0.2217439363827517,-0.6855502391358841,0.3514512487190216,-0.6637424826622009,0.7242093682289124,-0.1869941055774689,0,0,0,-1,-1,36114.55714354167,unknown,2,2025-04-22T15:43:53.759+03:00,2025-04-21T17:08:51.449+03:00,8272,1.043277,0,0,6880.045,7,22,2025-04-22T15:44:14.394+03:00,767018651.9156554,0,-13.21,100.3623,1,0.5,2025-04-22T15:44:06.954+03:00,101,1.683333333333333,2025-04-22T14:20:19.516+03:00,0.02197104130929222,0
2025-04-22T15:44:16.882+03:00,1745325854.854241,40.95221216915948,29.14026661759164,76.43822,-1,-1,-1,-1,30,21.17508972138302,-9999,36137.67510504167,-0.699920654296875,0.772003173828125,-0.25238037109375,36137.66502904167,-2.836876152959107,-1.311264078739299,-0.8142770779566054,-1.064577341079712,-0.4101731777191162,0.135436624288559,-0.01336610317230225,0.002430319786071777,-0.08485351502895355,XArbitraryZVertical,-0.6009778521291909,0.2252808973719371,-0.6827973081883408,0.3490870728359251,-0.6634068489074707,0.7272295951843262,-0.1761482805013657,0,0,0,-1,-1,36114.55714354167,unknown,2,2025-04-22T15:43:53.759+03:00,2025-04-21T17:08:51.449+03:00,8272,1.043277,0,0,6880.045,7,22,2025-04-22T15:44:14.394+03:00,767018651.9156554,0,-13.21,100.3623,1,0.5,2025-04-22T15:44:06.954+03:00,101,1.683333333333333,2025-04-22T14:20:19.516+03:00,0.02197104130929222,0
2025-04-22T15:44:16.892+03:00,1745325854.854241,40.95221216915948,29.14026661759164,76.43822,-1,-1,-1,-1,30,21.17508972138302,-9999,36137.68518104167,-0.7170257568359375,0.8116455078125,-0.259521484375,36137.67510504167,-2.850820051239839,-1.325593624208101,-0.8178631358185605,-0.9419683218002319,-0.4163794219493866,0.08250044286251068,-0.02818429470062256,0.0293925404548645,-0.08433055877685547,XArbitraryZVertical,-0.6040413657502164,0.2283396267019385,-0.6802008942177545,0.3468741833963441,-0.6633287072181702,0.7296863198280334,-0.1659900844097137,0,0,0,-1,-1,36114.55714354167,unknown,2,2025-04-22T15:43:53.759+03:00,2025-04-21T17:08:51.449+03:00,8272,1.043277,0,0,6880.045,7,22,2025-04-22T15:44:14.394+03:00,767018651.9156554,0,-13.21,100.3623,1,0.5,2025-04-22T15:44:06.954+03:00,101,1.683333333333333,2025-04-22T14:20:19.516+03:00,0.02197104130929222,0
2025-04-22T15:44:16.902+03:00,1745325854.854241,40.95221216915948,29.14026661759164,76.43822,-1,-1,-1,-1,30,21.17508972138302,-9999,36137.69525704167,-0.7223358154296875,0.84088134765625,-0.2569580078125,36137.68518104167,-2.863052971144922,-1.338707038534247,-0.8204476035450292,-0.7850044369697571,-0.4078622162342072,0.02403533831238747,-0.04769283533096313,0.06524062156677246,-0.1006337255239487,XArbitraryZVertical,-0.6069070085155481,0.2307428372711167,-0.6778420687118148,0.3448936253156923,-0.6636107563972473,0.7314510941505432,-0.1568432450294495,0,0,0,-1,-1,36114.55714354167,unknown,2,2025-04-22T15:43:53.759+03:00,2025-04-21T17:08:51.449+03:00,8272,1.043277,0,0,6880.045,7,22,2025-04-22T15:44:14.394+03:00,767018651.9156554,0,-13.21,100.3623,1,0.5,2025-04-22T15:44:06.954+03:00,101,1.683333333333333,2025-04-22T14:20:19.516+03:00,0.02197104130929222,0
2025-04-22T15:44:16.912+03:00,1745325854.854241,40.95221216915948,29.14026661759164,76.43822,-1,-1,-1,-1,30,21.17508972138302,-9999,36137.70533304167,-0.7205657958984375,0.8447418212890625,-0.25677490234375,36137.69525704167,-2.87308327371135,-1.35010507578496,-0.8220916410377093,-0.6145256161689758,-0.405482679605484,-0.00808052159845829,-0.05734598636627197,0.1006501317024231,-0.1085473895072937,XArbitraryZVertical,-0.6094806885370875,0.232444243221525,-0.6757831707988731,0.3432490837086011,-0.6641810536384583,0.7325711846351624,-0.1490059345960617,0,0,0,-1,-1,36114.55714354167,unknown,2,2025-04-22T15:43:53.759+03:00,2025-04-21T17:08:51.449+03:00,8272,1.043277,0,0,6880.045,7,22,2025-04-22T15:44:14.394+03:00,767018651.9156554,0,-13.21,100.3623,1,0.5,2025-04-22T15:44:06.954+03:00,101,1.683333333333333,2025-04-22T14:20:19.516+03:00,0.02197104130929222,0
2025-04-22T15:44:16.922+03:00,1745325854.854241,40.95221216915948,29.14026661759164,76.43822,-1,-1,-1,-1,30,21.17508972138302,-9999,36137.71540991667,-0.71875,0.829498291015625,-0.2484130859375,36137.70533304167,-2.881436143097366,-1.360471994376047,-0.8230772876102177,-0.5450849533081055,-0.4405916035175323,-0.04447498172521591,-0.05698591470718384,0.112156093120575,-0.1150575280189514,XArbitraryZVertical,-0.6119293641521699,0.2335842270243952,-0.6738588834263215,0.3418990549520013,-0.6649836301803589,0.7332417368888855,-0.1419617235660553,0,0,0,-1,-1,36114.55714354167,unknown,2,2025-04-22T15:43:53.759+03:00,2025-04-21T17:08:51.449+03:00,8272,1.043277,0,0,6880.045,7,22,2025-04-22T15:44:14.394+03:00,767018651.9156554,0,-13.21,100.3623,1,0.5,2025-04-22T15:44:06.954+03:00,101,1.683333333333333,2025-04-22T14:20:19.516+03:00,0.02197104130929222,0
2025-04-22T15:44:16.932+03:00,1745325854.854241,40.95221216915948,29.14026661759164,76.43822,-1,-1,-1,-1,30,21.17508972138302,-9999,36137.72548591667,-0.7169647216796875,0.7926788330078125,-0.2366180419921875,36137.71540991667,-2.889697803355666,-1.371109237522433,-0.8236079257244916,-0.5781118869781494,-0.4640061259269714,-0.07059340178966522,-0.05296516418457031,0.1033420562744141,-0.1176385432481766,XArbitraryZVertical,-0.6144990301157752,0.2344982156966252,-0.6719056795498827,0.3405059102416535,-0.6660746932029724,0.7336024641990662,-0.1348030567169189,0,0,0,-1,-1,36114.55714354167,unknown,2,2025-04-22T15:43:53.759+03:00,2025-04-21T17:08:51.449+03:00,8272,1.043277,0,0,6880.045,7,22,2025-04-22T15:44:14.394+03:00,767018651.9156554,0,-13.21,100.3623,1,0.5,2025-04-22T15:44:06.954+03:00,101,1.683333333333333,2025-04-22T14:20:19.516+03:00,0.02197104130929222,0
2025-04-22T15:44:16.942+03:00,1745325854.854241,40.95221216915948,29.14026661759164,76.43822,-1,-1,-1,-1,30,21.17508972138302,-9999,36137.73556191667,-0.714141845703125,0.7478485107421875,-0.2279815673828125,36137.72548591667,-2.89912488746926,-1.382930520263253,-0.8241134002195679,-0.689994215965271,-0.4950681328773499,-0.06868524849414825,-0.05079084634780884,0.07440358400344849,-0.1140095442533493,XArbitraryZVertical,-0.6173145196107804,0.2355789854946925,-0.6697705443031509,0.3388695237163155,-0.6672570705413818,0.733945906162262,-0.1268506497144699,0,0,0,-1,-1,36114.55714354167,unknown,2,2025-04-22T15:43:53.759+03:00,2025-04-21T17:08:51.449+03:00,8272,1.043277,0,0,6880.045,7,22,2025-04-22T15:44:14.394+03:00,767018651.9156554,0,-13.21,100.3623,1,0.5,2025-04-22T15:44:06.954+03:00,101,1.683333333333333,2025-04-22T14:20:19.516+03:00,0.02197104130929222,0
2025-04-22T15:44:16.952+03:00,1745325854.854241,40.95221216915948,29.14026661759164,76.43822,-1,-1,-1,-1,30,21.17508972138302,-9999,36137.74563791667,-0.7139129638671875,0.708984375,-0.209808349609375,36137.73556191667,-2.909764370890186,-1.396002404870652,-0.8247883590692457,-0.7248690724372864,-0.5452077388763428,-0.05586238950490952,-0.04569512605667114,0.02914553880691528,-0.1136428043246269,XArbitraryZVertical,-0.6203697635300421,0.2369083334524791,-0.6673971578082745,0.3370411350924721,-0.6683703064918518,0.7344041466712952,-0.1180315986275673,0,0,0,-1,-1,36114.55714354167,unknown,2,2025-04-22T15:43:53.759+03:00,2025-04-21T17:08:51.449+03:00,8272,1.043277,0,0,6880.045,7,22,2025-04-22T15:44:14.394+03:00,767018651.9156554,0,-13.21,100.3623,1,0.5,2025-04-22T15:44:06.954+03:00,101,1.683333333333333,2025-04-22T14:20:19.516+03:00,0.02197104130929222,0
2025-04-22T15:44:16.962+03:00,1745325854.854241,40.95221216915948,29.14026661759164,76.43822,-1,-1,-1,-1,30,21.17508972138302,-9999,36137.75571391667,-0.712799072265625,0.6949920654296875,-0.171844482421875,36137.74563791667,-2.920498465017681,-1.409453834072188,-0.8257073720710006,-0.7364675402641296,-0.554861843585968,-0.002245002891868353,-0.04442238807678223,-0.0113644003868103,-0.1100416705012321,XArbitraryZVertical,-0.6234928572589868,0.2383182065468699,-0.664847905094644,0.3353180915166233,-0.6692310571670532,0.7350276112556458,-0.1089221760630608,0,0,0,-1,-1,36114.55714354167,unknown,2,2025-04-22T15:43:53.759+03:00,2025-04-21T17:08:51.449+03:00,8272,1.043277,0,0,6880.045,7,22,2025-04-22T15:44:14.394+03:00,767018651.9156554,0,-13.21,100.3623,1,0.5,2025-04-22T15:44:06.954+03:00,101,1.683333333333333,2025-04-22T14:20:19.516+03:00,0.02197104130929222,0
2025-04-22T15:44:16.972+03:00,1745325854.854241,40.95221216915948,29.14026661759164,76.43822,-1,-1,-1,-1,30,21.17508972138302,-9999,36137.76578991667,-0.7163543701171875,0.7393341064453125,-0.157684326171875,36137.75571391667,-2.931633276554261,-1.423169263455041,-0.8271490881750115,-0.7944560050964355,-0.5676167607307434,0.03631224110722542,-0.04376572370529175,-0.04198896884918213,-0.08738869428634644,XArbitraryZVertical,-0.6265781923858192,0.2400229998189855,-0.6621590524993413,0.3336675010370496,-0.6696131229400635,0.7360043525695801,-0.09957745671272278,0,0,0,-1,-1,36114.55714354167,unknown,2,2025-04-22T15:43:53.759+03:00,2025-04-21T17:08:51.449+03:00,8272,1.043277,0,0,6880.045,7,22,2025-04-22T15:44:14.394+03:00,767018651.9156554,0,-13.21,100.3623,1,0.5,2025-04-22T15:44:06.954+03:00,101,1.683333333333333,2025-04-22T14:20:19.516+03:00,0.02197104130929222,0
2025-04-22T15:44:16.982+03:00,1745325854.854241,40.95221216915948,29.14026661759164,76.43822,-1,-1,-1,-1,30,21.17508972138302,-9999,36137.77586591667,-0.725006103515625,0.7931671142578125,-0.16796875,36137.76578991667,-2.942762505819089,-1.436817109412746,-0.8284241888256153,-0.7020814418792725,-0.5314447283744812,0.007441113702952862,-0.04399490356445312,-0.02002447843551636,-0.06747185438871384,XArbitraryZVertical,-0.6296250806508308,0.2417025801456794,-0.6594932608536008,0.3319948219594165,-0.6699789762496948,0.7368669509887695,-0.09030424058437347,0,0,0,-1,-1,36114.55714354167,unknown,2,2025-04-22T15:43:53.759+03:00,2025-04-21T17:08:51.449+03:00,8272,1.043277,0,0,6880.045,7,22,2025-04-22T15:44:14.394+03:00,767018651.9156554,0,-13.21,100.3623,1,0.5,2025-04-22T15:44:06.954+03:00,101,1.683333333333333,2025-04-22T14:20:19.516+03:00,0.02197104130929222,0
2025-04-22T15:44:16.992+03:00,1745325854.854241,40.95221216915948,29.14026661759164,76.43822,-1,-1,-1,-1,30,21.17508972138302,-9999,36137.78594191667,-0.7124176025390625,0.832000732421875,-0.1755523681640625,36137.77586591667,-2.952197233202366,-1.449199855102709,-0.8292810632793907,-0.5781469941139221,-0.546100378036499,-0.001805381616577506,-0.05217617750167847,0.03727316856384277,-0.08084101229906082,XArbitraryZVertical,-0.6324725532697367,0.2429322777059094,-0.6569952256314295,0.3306351335780698,-0.6704189777374268,0.7374460101127625,-0.08192475885152817,0,0,0,-1,-1,36114.55714354167,unknown,2,2025-04-22T15:43:53.759+03:00,2025-04-21T17:08:51.449+03:00,8272,1.043277,0,0,6880.045,7,22,2025-04-22T15:44:14.394+03:00,767018651.9156554,0,-13.21,100.3623,1,0.5,2025-04-22T15:44:06.954+03:00,101,1.683333333333333,2025-04-22T14:20:19.516+03:00,0.02197104130929222,0
2025-04-22T15:44:17.002+03:00,1745325854.854241,40.95221216915948,29.14026661759164,76.43822,-1,-1,-1,-1,30,21.17508972138302,-9999,36137.79601791667,-0.699554443359375,0.8400726318359375,-0.1612396240234375,36137.78594191667,-2.960153802414185,-1.460699714153526,-0.8298504720460613,-0.4940052032470703,-0.570605993270874,-0.007220653351396322,-0.04769802093505859,0.08113914728164673,-0.1014804840087891,XArbitraryZVertical,-0.6352172039405121,0.2437566107080923,-0.6545625803940045,0.3295900483215304,-0.6708993315696716,0.7378304600715637,-0.07416363805532455,0,0,0,-1,-1,36114.55714354167,unknown,2,2025-04-22T15:43:53.759+03:00,2025-04-21T17:08:51.449+03:00,8272,1.043277,0,0,6880.045,7,22,2025-04-22T15:44:14.394+03:00,767018651.9156554,0,-13.21,100.3623,1,0.5,2025-04-22T15:44:06.954+03:00,101,1.683333333333333,2025-04-22T14:20:19.516+03:00,0.02197104130929222,0
2025-04-22T15:44:17.012+03:00,1745325854.854241,40.95221216915948,29.14026661759164,76.43822,-1,-1,-1,-1,30,21.17508972138302,-9999,36137.80609391667,-0.685638427734375,0.79730224609375,-0.1414947509765625,36137.79601791667,-2.967122123101466,-1.471623222611103,-0.8302955898077059,-0.4556173384189606,-0.5751392245292664,0.002491628983989358,-0.03132468461990356,0.104901909828186,-0.1002551913261414,XArbitraryZVertical,-0.6378890437197327,0.2443326434277442,-0.6521542282590301,0.328776372920047,-0.6713424921035767,0.7381308078765869,-0.06679825484752655,0,0,0,-1,-1,36114.55714354167,unknown,2,2025-04-22T15:43:53.759+03:00,2025-04-21T17:08:51.449+03:00,8272,1.043277,0,0,6880.045,7,22,2025-04-22T15:44:14.394+03:00,767018651.9156554,0,-13.21,100.3623,1,0.5,2025-04-22T15:44:06.954+03:00,101,1.683333333333333,2025-04-22T14:20:19.516+03:00,0.02197104130929222,0
2025-04-22T15:44:17.023+03:00,1745325854.854241,40.95221216915948,29.14026661759164,76.43822,-1,-1,-1,-1,30,21.17508972138302,-9999,36137.81616991667,-0.6680145263671875,0.7513580322265625,-0.1121673583984375,36137.80609391667,-2.974339284143634,-1.482746731641533,-0.8309757025269939,-0.5283176302909851,-0.5795036554336548,0.04400524869561195,-0.01963347196578979,0.07810664176940918,-0.09078801423311234,XArbitraryZVertical,-0.64055386000586,0.2450500557925162,-0.6496651528272269,0.3279884488081944,-0.6715438961982727,0.7385895252227783,-0.05928244441747665,0,0,0,-1,-1,36114.55714354167,unknown,2,2025-04-22T15:43:53.759+03:00,2025-04-21T17:08:51.449+03:00,8272,1.043277,0,0,6880.045,7,22,2025-04-22T15:44:14.394+03:00,767018651.9156554,0,-13.21,100.3623,1,0.5,2025-04-22T15:44:06.954+03:00,101,1.683333333333333,2025-04-22T14:20:19.516+03:00,0.02197104130929222,0
2025-04-22T15:44:17.033+03:00,1745325854.854241,40.95221216915948,29.14026661759164,76.43822,-1,-1,-1,-1,30,21.17508972138302,-9999,36137.82624591667,-0.6508026123046875,0.724029541015625,-0.0776824951171875,36137.81616991667,-2.982434668046058,-1.494529864161124,-0.832088484935111,-0.5585293769836426,-0.5668714642524719,0.08511300384998322,-0.002757489681243896,0.02648407220840454,-0.07233923673629761,XArbitraryZVertical,-0.6432583785155788,0.2461039997039698,-0.6470162520256145,0.3271412139068987,-0.6713757514953613,0.7393392324447632,-0.0513029582798481,0,0,0,-1,-1,36114.55714354167,unknown,2,2025-04-22T15:43:53.759+03:00,2025-04-21T17:08:51.449+03:00,8272,1.043277,0,0,6880.045,7,22,2025-04-22T15:44:14.394+03:00,767018651.9156554,0,-13.21,100.3623,1,0.5,2025-04-22T15:44:06.954+03:00,101,1.683333333333333,2025-04-22T14:20:19.516+03:00,0.02197104130929222,0
2025-04-22T15:44:17.043+03:00,1745325854.854241,40.95221216915948,29.14026661759164,76.43822,-1,-1,-1,-1,30,21.17508972138302,-9999,36137.83632191667,-0.6417236328125,0.711181640625,-0.0323486328125,36137.82624591667,-2.990539095335168,-1.506049951538064,-0.8336144935542615,-0.5325179696083069,-0.5317020416259766,0.1411333978176117,0.01428616046905518,-0.007440567016601562,-0.04899138212203979,XArbitraryZVertical,-0.6458075674933752,0.2473588546469796,-0.6443658279096095,0.3264027199451628,-0.6707954406738281,0.7403658628463745,-0.04349236562848091,0,0,0,-1,-1,36114.55714354167,unknown,2,2025-04-22T15:43:53.759+03:00,2025-04-21T17:08:51.449+03:00,8272,1.043277,0,0,6880.045,7,22,2025-04-22T15:44:14.394+03:00,767018651.9156554,0,-13.21,100.3623,1,0.5,2025-04-22T15:44:06.954+03:00,101,1.683333333333333,2025-04-22T14:20:19.516+03:00,0.02197104130929222,0
2025-04-22T15:44:17.053+03:00,1745325854.854241,40.95221216915948,29.14026661759164,76.43822,-1,-1,-1,-1,30,21.17508972138302,-9999,36137.84639691667,-0.6428070068359375,0.7062530517578125,0.011749267578125,36137.83632191667,-2.997632721167639,-1.51652250963377,-0.835620857308273,-0.4286717474460602,-0.5040855407714844,0.1968238204717636,0.02596122026443481,-0.02726614475250244,-0.01226067170500755,XArbitraryZVertical,-0.6480664479991098,0.2486315060695415,-0.6417937778236683,0.3260258022696952,-0.669729471206665,0.7417130470275879,-0.03638450801372528,0,0,0,-1,-1,36114.55714354167,unknown,2,2025-04-22T15:43:53.759+03:00,2025-04-21T17:08:51.449+03:00,8272,1.043277,0,0,6880.045,7,22,2025-04-22T15:44:14.394+03:00,767018651.9156554,0,-13.21,100.3623,1,0.5,2025-04-22T15:44:06.954+03:00,101,1.683333333333333,2025-04-22T14:20:19.516+03:00,0.02197104130929222,0
2025-04-22T15:44:17.063+03:00,1745325854.854241,40.95221216915948,29.14026661759164,76.43822,-1,-1,-1,-1,30,21.17508972138302,-9999,36137.85647291667,-0.650848388671875,0.7223052978515625,0.068206787109375,36137.84639691667,-3.003184595439759,-1.52551793686102,-0.8379454943454637,-0.3391871452331543,-0.4624049663543701,0.2210098505020142,0.02726864814758301,-0.03530830144882202,0.02500075101852417,XArbitraryZVertical,-0.6499854674672141,0.2497571707218478,-0.6393869268045554,0.3260744468646579,-0.6683055758476257,0.743270218372345,-0.03028049506247044,0,0,0,-1,-1,36114.55714354167,unknown,2,2025-04-22T15:43:53.759+03:00,2025-04-21T17:08:51.449+03:00,8272,1.043277,0,0,6880.045,7,22,2025-04-22T15:44:14.394+03:00,767018651.9156554,0,-13.21,100.3623,1,0.5,2025-04-22T15:44:06.954+03:00,101,1.683333333333333,2025-04-22T14:20:19.516+03:00,0.02197104130929222,0
2025-04-22T15:44:17.073+03:00,1745325854.854241,40.95221216915948,29.14026661759164,76.43822,-1,-1,-1,-1,30,21.17508972138302,-9999,36137.86654891667,-0.662811279296875,0.7570953369140625,0.109954833984375,36137.85647291667,-3.007604056963618,-1.533242159058848,-0.8401852189467124,-0.2659614086151123,-0.4184785187244415,0.1951015591621399,0.0188593864440918,-0.03282225131988525,0.07136517763137817,XArbitraryZVertical,-0.6516328804744883,0.2506932775459925,-0.6372176791767317,0.3263143786138013,-0.6668543219566345,0.7447667121887207,-0.0250549390912056,0,0,0,-1,-1,36114.55714354167,unknown,2,2025-04-22T15:43:53.759+03:00,2025-04-21T17:08:51.449+03:00,8272,1.043277,0,0,6880.045,7,22,2025-04-22T15:44:14.394+03:00,767018651.9156554,0,-13.21,100.3623,1,0.5,2025-04-22T15:44:06.954+03:00,101,1.683333333333333,2025-04-22T14:20:19.516+03:00,0.02197104130929222,0
2025-04-22T15:44:17.083+03:00,1745325854.854241,40.95221216915948,29.14026661759164,76.43822,-1,-1,-1,-1,30,21.17508972138302,-9999,36137.87662491667,-0.6486663818359375,0.7748565673828125,0.12628173828125,36137.86654891667,-3.010967134869472,-1.539258350977221,-0.8429619069221731,-0.2633914351463318,-0.3484235405921936,0.2549276053905487,0.006811976432800293,-0.001255512237548828,0.1184350252151489,XArbitraryZVertical,-0.6527915260327446,0.2517430720800167,-0.6353397838435708,0.3268516965165456,-0.6649235486984253,0.7466168403625488,-0.02097729779779911,0,0,0,-1,-1,36114.55714354167,unknown,2,2025-04-22T15:43:53.759+03:00,2025-04-21T17:08:51.449+03:00,8272,1.043277,0,0,6880.045,7,22,2025-04-22T15:44:14.394+03:00,767018651.9156554,0,-13.21,100.3623,1,0.5,2025-04-22T15:44:06.954+03:00,101,1.683333333333333,2025-04-22T14:20:19.516+03:00,0.02197104130929222,0
2025-04-22T15:44:17.093+03:00,1745325854.854241,40.95221216915948,29.14026661759164,76.43822,-1,-1,-1,-1,30,21.17508972138302,-9999,36137.88670091667,-0.6751556396484375,0.7455291748046875,0.1377410888671875,36137.87662491667,-3.014981178828178,-1.545135279346971,-0.8452796784975339,-0.2871868312358856,-0.2134207785129547,0.2012355774641037,0.006656885147094727,0.02315974235534668,0.1359058022499084,XArbitraryZVertical,-0.6538681964079447,0.2528714704772903,-0.6336890501782504,0.3270329959071544,-0.6633036136627197,0.748156726360321,-0.017024802044034,0,0,0,-1,-1,36114.55714354167,unknown,2,2025-04-22T15:43:53.759+03:00,2025-04-21T17:08:51.449+03:00,8272,1.043277,0,0,6880.045,7,22,2025-04-22T15:44:16.974+03:00,767018657.0756632,0,-13.4,100.3628,1,0.5,2025-04-22T15:44:06.954+03:00,101,1.683333333333333,2025-04-22T14:20:19.516+03:00,0.02197104130929222,0
2025-04-22T15:44:17.103+03:00,1745325854.854241,40.95221216915948,29.14026661759164,76.43822,-1,-1,-1,-1,30,21.17508972138302,-9999,36137.89677691667,-0.663818359375,0.718902587890625,0.1182861328125,36137.88670091667,-3.020096219368171,-1.550550030707478,-0.8474144542028136,-0.4026945531368256,-0.1031142398715019,0.2152335643768311,0.001829802989959717,0.01078915596008301,0.1533387303352356,XArbitraryZVertical,-0.6546708054753416,0.2543734394371281,-0.6323986293194037,0.3267601417174813,-0.6617876291275024,0.7495715022087097,-0.01340057980269194,0,0,0,-1,-1,36137.77209591667,unknown,2,2025-04-22T15:44:16.974+03:00,2025-04-21T17:08:51.449+03:00,8272,1.043277,0,0,6880.045,7,22,2025-04-22T15:44:16.974+03:00,767018657.0756632,0,-13.4,100.3628,1,0.5,2025-04-22T15:44:06.954+03:00,101,1.683333333333333,2025-04-22T14:20:19.516+03:00,0.02197104130929222,0
2025-04-22T15:44:17.113+03:00,1745325854.854241,40.95221216915948,29.14026661759164,76.43822,-1,-1,-1,-1,30,21.17508972138302,-9999,36137.90685291667,-0.627044677734375,0.7152557373046875,0.115203857421875,36137.89677691667,-3.026530172422717,-1.556291297195616,-0.8497369710699887,-0.4345102608203888,-0.07671912014484406,0.2245799154043198,-0.0174248218536377,-0.026009202003479,0.1307759284973145,XArbitraryZVertical,-0.6553731189188455,0.256316744629813,-0.6311842969578219,0.3261810437718022,-0.660111129283905,0.7511067986488342,-0.009575602598488331,0,0,0,-1,-1,36137.77209591667,unknown,2,2025-04-22T15:44:16.974+03:00,2025-04-21T17:08:51.449+03:00,8272,1.043277,0,0,6880.045,7,22,2025-04-22T15:44:16.974+03:00,767018657.0756632,0,-13.4,100.3628,1,0.5,2025-04-22T15:44:06.954+03:00,101,1.683333333333333,2025-04-22T14:20:19.516+03:00,0.02197104130929222,0
2025-04-22T15:44:17.123+03:00,1745325854.854241,40.95221216915948,29.14026661759164,76.43822,-1,-1,-1,-1,30,21.17508972138302,-9999,36137.91692891667,-0.6240081787109375,0.7253875732421875,0.1197662353515625,36137.90685291667,-3.0328175389625,-1.561689265750331,-0.8518208073753476,-0.3843578696250916,-0.04908855631947517,0.1835174411535263,0.02214270830154419,-0.03727096319198608,0.1251841187477112,XArbitraryZVertical,-0.6560024774460208,0.2581894111795909,-0.6300963854911947,0.3255417825795368,-0.6585866808891296,0.7524808645248413,-0.005997954867780209,0,0,0,-1,-1,36137.77209591667,unknown,2,2025-04-22T15:44:16.974+03:00,2025-04-21T17:08:51.449+03:00,8272,1.043277,0,0,6880.045,7,22,2025-04-22T15:44:16.974+03:00,767018657.0756632,0,-13.4,100.3628,1,0.5,2025-04-22T15:44:06.954+03:00,101,1.683333333333333,2025-04-22T14:20:19.516+03:00,0.02197104130929222,0
2025-04-22T15:44:17.133+03:00,1745325854.854241,40.95221216915948,29.14026661759164,76.43822,-1,-1,-1,-1,30,21.17508972138302,-9999,36137.92700491667,-0.635284423828125,0.74609375,0.17535400390625,36137.91692891667,-3.037708985897772,-1.565564906926321,-0.8534658680880426,-0.2580585181713104,0.01830193400382996,0.1442989408969879,0.03445661067962646,-0.03331810235977173,0.1150720715522766,XArbitraryZVertical,-0.656378382179111,0.2597073829735941,-0.6293511604132545,0.3250175727202312,-0.6573660373687744,0.7535632848739624,-0.003438989166170359,0,0,0,-1,-1,36137.77209591667,unknown,2,2025-04-22T15:44:16.974+03:00,2025-04-21T17:08:51.449+03:00,8272,1.043277,0,0,6880.045,7,22,2025-04-22T15:44:16.974+03:00,767018657.0756632,0,-13.4,100.3628,1,0.5,2025-04-22T15:44:06.954+03:00,101,1.683333333333333,2025-04-22T14:20:19.516+03:00,0.02197104130929222,0
2025-04-22T15:44:17.144+03:00,1745325854.854241,40.95221216915948,29.14026661759164,76.43822,-1,-1,-1,-1,30,21.17508972138302,-9999,36137.93708091667,-0.6592254638671875,0.7563018798828125,0.2464599609375,36137.92700491667,-3.040775923174524,-1.567096847991449,-0.8547171034885255,-0.1515326797962189,0.1419766843318939,0.1054693460464478,0.02758210897445679,-0.01521909236907959,0.1531240344047546,XArbitraryZVertical,-0.6562992832811742,0.2608774153653163,-0.6291426579804545,0.3246438277862612,-0.656427264213562,0.754385232925415,-0.002428449923172593,0,0,0,-1,-1,36137.77209591667,unknown,2,2025-04-22T15:44:16.974+03:00,2025-04-21T17:08:51.449+03:00,8272,1.043277,0,0,6880.045,7,22,2025-04-22T15:44:16.974+03:00,767018657.0756632,0,-13.4,100.3628,1,0.5,2025-04-22T15:44:06.954+03:00,101,1.683333333333333,2025-04-22T14:20:19.516+03:00,0.02197104130929222,0
2025-04-22T15:44:17.154+03:00,1745325854.854241,40.95221216915948,29.14026661759164,76.43822,-1,-1,-1,-1,30,21.17508972138302,-9999,36137.94715691667,-0.669708251953125,0.749603271484375,0.2984161376953125,36137.93708091667,-3.042839798258571,-1.566372311752436,-0.855607276364561,-0.1270180195569992,0.3085813522338867,0.07263869047164917,0.005683541297912598,-0.0001475811004638672,0.2225663661956787,XArbitraryZVertical,-0.6556857503337453,0.261964988887217,-0.6295702607690585,0.3241785794608352,-0.6557536125183105,0.7549692988395691,-0.00290108285844326,0,0,0,-1,-1,36137.77209591667,unknown,2,2025-04-22T15:44:16.974+03:00,2025-04-21T17:08:51.449+03:00,8272,1.043277,0,0,6880.045,7,22,2025-04-22T15:44:16.974+03:00,767018657.0756632,0,-13.4,100.3628,1,0.5,2025-04-22T15:44:06.954+03:00,101,1.683333333333333,2025-04-22T14:20:19.516+03:00,0.02197104130929222,0
2025-04-22T15:44:17.164+03:00,1745325854.854241,40.95221216915948,29.14026661759164,76.43822,-1,-1,-1,-1,30,21.17508972138302,-9999,36137.95723291667,-0.658599853515625,0.7362060546875,0.3076171875,36137.94715691667,-3.044762911380888,-1.563882309023334,-0.8562142684207323,-0.1232906505465508,0.469498872756958,0.04786223918199539,-0.01376610994338989,-0.00127798318862915,0.2880388498306274,XArbitraryZVertical,-0.6545696721639315,0.2631979843252165,-0.630598479290993,0.3234359196087914,-0.6552858948707581,0.7553671598434448,-0.004530730657279491,0,0,0,-1,-1,36137.77209591667,unknown,2,2025-04-22T15:44:16.974+03:00,2025-04-21T17:08:51.449+03:00,8272,1.043277,0,0,6880.045,7,22,2025-04-22T15:44:16.974+03:00,767018657.0756632,0,-13.4,100.3628,1,0.5,2025-04-22T15:44:06.954+03:00,101,1.683333333333333,2025-04-22T14:20:19.516+03:00,0.02197104130929222,0
2025-04-22T15:44:17.174+03:00,1745325854.854241,40.95221216915948,29.14026661759164,76.43822,-1,-1,-1,-1,30,21.17508972138302,-9999,36137.96730891667,-0.6423187255859375,0.7249603271484375,0.2861175537109375,36137.95723291667,-3.046629714863912,-1.559792030215043,-0.856530855160353,-0.1221936941146851,0.6232247948646545,0.01196229550987482,-0.009192287921905518,-0.01436382532119751,0.31600022315979,XArbitraryZVertical,-0.6529907630279052,0.264573025881669,-0.6321854334923692,0.322405924237003,-0.6550226807594299,0.7555745840072632,-0.007208354771137238,0,0,0,-1,-1,36137.77209591667,unknown,2,2025-04-22T15:44:16.974+03:00,2025-04-21T17:08:51.449+03:00,8272,1.043277,0,0,6880.045,7,22,2025-04-22T15:44:16.974+03:00,767018657.0756632,0,-13.4,100.3628,1,0.5,2025-04-22T15:44:06.954+03:00,101,1.683333333333333,2025-04-22T14:20:19.516+03:00,0.02197104130929222,0
2025-04-22T15:44:17.184+03:00,1745325854.854241,40.95221216915948,29.14026661759164,76.43822,-1,-1,-1,-1,30,21.17508972138302,-9999,36137.97738491667,-0.62890625,0.713043212890625,0.231689453125,36137.96730891667,-3.048151513010008,-1.554005840050777,-0.8565218771060124,-0.05886319652199745,0.7385583519935608,-0.01399979647248983,0.008309364318847656,-0.02665656805038452,0.3093532919883728,XArbitraryZVertical,-0.6509580185098998,0.265997091578745,-0.6343178932321356,0.3211538105990738,-0.6549766659736633,0.7555687427520752,-0.01099841110408306,0,0,0,-1,-1,36137.77209591667,unknown,2,2025-04-22T15:44:16.974+03:00,2025-04-21T17:08:51.449+03:00,8272,1.043277,0,0,6880.045,7,22,2025-04-22T15:44:16.974+03:00,767018657.0756632,0,-13.4,100.3628,1,0.5,2025-04-22T15:44:06.954+03:00,101,1.683333333333333,2025-04-22T14:20:19.516+03:00,0.02197104130929222,0
2025-04-22T15:44:17.194+03:00,1745325854.854241,40.95221216915948,29.14026661759164,76.43822,-1,-1,-1,-1,30,21.17508972138302,-9999,36137.98746091667,-0.6133270263671875,0.715850830078125,0.2132568359375,36137.97738491667,-3.048099049948576,-1.546302993796781,-0.8562030815943719,0.06800979375839233,0.7844539284706116,-0.05360659584403038,0.02022576332092285,-0.03827327489852905,0.2699093818664551,XArbitraryZVertical,-0.6485585023045168,0.2671091729444405,-0.6368639480011659,0.3200447206671658,-0.6551132798194885,0.7553598284721375,-0.01604911684989929,0,0,0,-1,-1,36137.77209591667,unknown,2,2025-04-22T15:44:16.974+03:00,2025-04-21T17:08:51.449+03:00,8272,1.043277,0,0,6880.045,7,22,2025-04-22T15:44:16.974+03:00,767018657.0756632,0,-13.4,100.3628,1,0.5,2025-04-22T15:44:06.954+03:00,101,1.683333333333333,2025-04-22T14:20:19.516+03:00,0.02197104130929222,0
2025-04-22T15:44:17.204+03:00,1745325854.854241,40.95221216915948,29.14026661759164,76.43822,-1,-1,-1,-1,30,21.17508972138302,-9999,36137.99753691667,-0.615692138671875,0.727020263671875,0.2453155517578125,36137.98746091667,-3.045738935698576,-1.536091632940928,-0.8552949561398026,0.2489220499992371,0.8963383436203003,-0.1195244938135147,0.03743678331375122,-0.04301828145980835,0.2341718673706055,XArbitraryZVertical,-0.6457316248624207,0.2676749648089966,-0.6399397402696031,0.3191517406023776,-0.6556007862091064,0.7547644376754761,-0.02276156283915043,0,0,0,-1,-1,36137.77209591667,unknown,2,2025-04-22T15:44:16.974+03:00,2025-04-21T17:08:51.449+03:00,8272,1.043277,0,0,6880.045,7,22,2025-04-22T15:44:16.974+03:00,767018657.0756632,0,-13.4,100.3628,1,0.5,2025-04-22T15:44:06.954+03:00,101,1.683333333333333,2025-04-22T14:20:19.516+03:00,0.02197104130929222,0
2025-04-22T15:44:17.214+03:00,1745325854.854241,40.95221216915948,29.14026661759164,76.43822,-1,-1,-1,-1,30,21.17508972138302,-9999,36138.00761291667,-0.6238555908203125,0.7288055419921875,0.308380126953125,36137.99753691667,-3.040366993453073,-1.522304053137187,-0.8536624145647153,0.4625275433063507,1.033434987068176,-0.1770895272493362,0.04341745376586914,-0.0296783447265625,0.2631657123565674,XArbitraryZVertical,-0.6422330361213034,0.2675962541228093,-0.6437919106699412,0.3185291495374953,-0.6564544439315796,0.7536925077438354,-0.03185794502496719,0,0,0,-1,-1,36137.77209591667,unknown,2,2025-04-22T15:44:16.974+03:00,2025-04-21T17:08:51.449+03:00,8272,1.043277,0,0,6880.045,7,22,2025-04-22T15:44:16.974+03:00,767018657.0756632,0,-13.4,100.3628,1,0.5,2025-04-22T15:44:06.954+03:00,101,1.683333333333333,2025-04-22T14:20:19.516+03:00,0.02197104130929222,0
2025-04-22T15:44:17.224+03:00,1745325854.854241,40.95221216915948,29.14026661759164,76.43822,-1,-1,-1,-1,30,21.17508972138302,-9999,36138.01768891667,-0.6198577880859375,0.713623046875,0.4505462646484375,36138.00761291667,-3.032146800824601,-1.504720447771503,-0.8512348956187129,0.6284878253936768,1.248070001602173,-0.2490994930267334,0.03504282236099243,-0.02260273694992065,0.3215461373329163,XArbitraryZVertical,-0.6379524048672826,0.2669433586539794,-0.6485155923122471,0.3180965998328176,-0.6576166152954102,0.7520948648452759,-0.04351594299077988,0,0,0,-1,-1,36137.77209591667,unknown,2,2025-04-22T15:44:16.974+03:00,2025-04-21T17:08:51.449+03:00,8272,1.043277,0,0,6880.045,7,22,2025-04-22T15:44:16.974+03:00,767018657.0756632,0,-13.4,100.3628,1,0.5,2025-04-22T15:44:06.954+03:00,101,1.683333333333333,2025-04-22T14:20:19.516+03:00,0.02197104130929222,0
2025-04-22T15:44:17.243+03:00,1745325854.854241,40.95221216915948,29.14026661759164,76.43822,-1,-1,-1,-1,30,21.17508972138302,-9999,36138.02776491667,-0.6137542724609375,0.68389892578125,0.606231689453125,36138.01768891667,-3.023033542851158,-1.483697265322586,-0.8478766400807924,0.579679012298584,1.572595596313477,-0.3283530473709106,0.03684592247009277,-0.0290522575378418,0.445962131023407,XArbitraryZVertical,-0.6327252410475465,0.2662401822115824,-0.654312487659254,0.3172536457227473,-0.6590687036514282,0.7498773336410522,-0.05754986777901649,0,0,0,-1,-1,36137.77209591667,unknown,2,2025-04-22T15:44:16.974+03:00,2025-04-21T17:08:51.449+03:00,8272,1.043277,0,0,6880.045,7,22,2025-04-22T15:44:16.974+03:00,767018657.0756632,0,-13.4,100.3628,1,0.5,2025-04-22T15:44:06.954+03:00,101,1.683333333333333,2025-04-22T14:20:19.516+03:00,0.02197104130929222,0
2025-04-22T15:44:17.246+03:00,1745325854.854241,40.95221216915948,29.14026661759164,76.43822,-1,-1,-1,-1,30,21.17508972138302,-9999,36138.03784091667,-0.6041717529296875,0.6463623046875,0.70782470703125,36138.02776491667,-3.016742138510577,-1.461523476314774,-0.8436589166752851,0.2984991073608398,1.88947582244873,-0.4258672893047333,0.04463440179824829,-0.05192047357559204,0.627195417881012,XArbitraryZVertical,-0.6267648113387486,0.2663070347866062,-0.6610185898836288,0.3151202113652334,-0.6607689261436462,0.7470803260803223,-0.07249286770820618,0,0,0,-1,-1,36137.77209591667,unknown,2,2025-04-22T15:44:16.974+03:00,2025-04-21T17:08:51.449+03:00,8272,1.043277,0,0,6880.045,7,22,2025-04-22T15:44:16.974+03:00,767018657.0756632,0,-13.4,100.3628,1,0.5,2025-04-22T15:44:06.954+03:00,101,1.683333333333333,2025-04-22T14:20:19.516+03:00,0.02197104130929222,0
2025-04-22T15:44:17.255+03:00,1745325854.854241,40.95221216915948,29.14026661759164,76.43822,-1,-1,-1,-1,30,21.17508972138302,-9999,36138.04791691667,-0.597198486328125,0.6124725341796875,0.7880706787109375,36138.03784091667,-3.016060619837675,-1.440113210815653,-0.8387308949367501,-0.09712729603052139,2.265191555023193,-0.53532475233078,0.05464506149291992,-0.08330357074737549,0.7589454054832458,XArbitraryZVertical,-0.620300656187515,0.2677247384856354,-0.668431644765508,0.3110459916857879,-0.6627077460289001,0.7437954545021057,-0.08710112422704697,0,0,0,-1,-1,36137.77209591667,unknown,2,2025-04-22T15:44:16.974+03:00,2025-04-21T17:08:51.449+03:00,8272,1.043277,0,0,6880.045,7,22,2025-04-22T15:44:16.974+03:00,767018657.0756632,0,-13.4,100.3628,1,0.5,2025-04-22T15:44:06.954+03:00,101,1.683333333333333,2025-04-22T14:20:19.516+03:00,0.02197104130929222,0
2025-04-22T15:44:17.264+03:00,1745325854.854241,40.95221216915948,29.14026661759164,76.43822,-1,-1,-1,-1,30,21.17508972138302,-9999,36138.05799291667,-0.6003265380859375,0.5847930908203125,0.7974395751953125,36138.04791691667,-3.02146047485927,-1.419116070760341,-0.8332806488431838,-0.4561516344547272,2.71782660484314,-0.6352876424789429,0.06693696975708008,-0.1168199777603149,0.8657211065292358,XArbitraryZVertical,-0.6131211565895675,0.2707009271693722,-0.676671840744117,0.3048255904216904,-0.6647304892539978,0.7401414513587952,-0.1016069129109383,0,0,0,-1,-1,36137.77209591667,unknown,2,2025-04-22T15:44:16.974+03:00,2025-04-21T17:08:51.449+03:00,8272,1.043277,0,0,6880.045,7,22,2025-04-22T15:44:16.974+03:00,767018657.0756632,0,-13.4,100.3628,1,0.5,2025-04-22T15:44:06.954+03:00,101,1.683333333333333,2025-04-22T14:20:19.516+03:00,0.02197104130929222,0
2025-04-22T15:44:17.275+03:00,1745325854.854241,40.95221216915948,29.14026661759164,76.43822,-1,-1,-1,-1,30,21.17508972138302,-9999,36138.06806891667,-0.576446533203125,0.5251617431640625,0.7170562744140625,36138.05799291667,-3.031570202519105,-1.397024068934166,-0.8277460476566261,-0.6555965542793274,3.118055105209351,-0.6506609916687012,0.06783759593963623,-0.138828456401825,0.9206528067588806,XArbitraryZVertical,-0.6048265918842072,0.2751335752623349,-0.6858630070232414,0.296779674069619,-0.6663482785224915,0.7364083528518677,-0.1169726178050041,0,0,0,-1,-1,36137.77209591667,unknown,2,2025-04-22T15:44:16.974+03:00,2025-04-21T17:08:51.449+03:00,8272,1.043277,0,0,6880.045,7,22,2025-04-22T15:44:16.974+03:00,767018657.0756632,0,-13.4,100.3628,1,0.5,2025-04-22T15:44:06.954+03:00,101,1.683333333333333,2025-04-22T14:20:19.516+03:00,0.02197104130929222,0
2025-04-22T15:44:17.285+03:00,1745325854.854241,40.95221216915948,29.14026661759164,76.43822,-1,-1,-1,-1,30,21.17508972138302,-9999,36138.07814491667,-0.4876556396484375,0.4860382080078125,0.67657470703125,36138.06806891667,-3.04187919928569,-1.371866343741367,-0.8227693228127625,-0.4797509610652924,3.376110315322876,-0.5732938051223755,0.07450956106185913,-0.1817628741264343,0.8877617120742798,XArbitraryZVertical,-0.5952497342294739,0.2801207470763421,-0.6957623240325378,0.2883137704266112,-0.6667793393135071,0.7330322861671448,-0.134420245885849,0,0,0,-1,-1,36137.77209591667,unknown,2,2025-04-22T15:44:16.974+03:00,2025-04-21T17:08:51.449+03:00,8272,1.043277,0,0,6880.045,7,22,2025-04-22T15:44:16.974+03:00,767018657.0756632,0,-13.4,100.3628,1,0.5,2025-04-22T15:44:06.954+03:00,101,1.683333333333333,2025-04-22T14:20:19.516+03:00,0.02197104130929222,0
2025-04-22T15:44:17.295+03:00,1745325854.854241,40.95221216915948,29.14026661759164,76.43822,-1,-1,-1,-1,30,21.17508972138302,-9999,36138.08822091667,-0.4115447998046875,0.489593505859375,0.7194671630859375,36138.07814491667,-3.047300402738184,-1.340388511006531,-0.8178372087779526,-0.01714551076292992,3.666653633117676,-0.5534143447875977,0.13927161693573,-0.2371608018875122,0.8355600833892822,XArbitraryZVertical,-0.5839788498935863,0.2844069936603589,-0.7066472102715934,0.2805904713564431,-0.6657302379608154,0.7296686172485352,-0.1561627238988876,0,0,0,-1,-1,36137.77209591667,unknown,2,2025-04-22T15:44:16.974+03:00,2025-04-21T17:08:51.449+03:00,8272,1.043277,0,0,6880.045,7,22,2025-04-22T15:44:16.974+03:00,767018657.0756632,0,-13.4,100.3628,1,0.5,2025-04-22T15:44:06.954+03:00,101,1.683333333333333,2025-04-22T14:20:19.516+03:00,0.02197104130929222,0
2025-04-22T15:44:17.305+03:00,1745325854.854241,40.95221216915948,29.14026661759164,76.43822,-1,-1,-1,-1,30,21.17508972138302,-9999,36138.09829691667,-0.3912200927734375,0.43841552734375,0.786712646484375,36138.08822091667,-3.046729360432505,-1.30100630818649,-0.811497390009821,0.3759945631027222,4.083125591278076,-0.6495660543441772,0.2314279079437256,-0.2355117797851562,0.8805338740348816,XArbitraryZVertical,-0.5706844465867144,0.2873642920174698,-0.7190118467323307,0.2734279437170166,-0.6635109186172485,0.7253187894821167,-0.1834820508956909,0,0,0,-1,-1,36137.77209591667,unknown,2,2025-04-22T15:44:16.974+03:00,2025-04-21T17:08:51.449+03:00,8272,1.043277,0,0,6880.045,7,22,2025-04-22T15:44:16.974+03:00,767018657.0756632,0,-13.4,100.3628,1,0.5,2025-04-22T15:44:06.954+03:00,101,1.683333333333333,2025-04-22T14:20:19.516+03:00,0.02197104130929222,0
2025-04-22T15:44:17.315+03:00,1745325854.854241,40.95221216915948,29.14026661759164,76.43822,-1,-1,-1,-1,30,21.17508972138302,-9999,36138.10837191667,-0.3901824951171875,0.3134765625,0.829803466796875,36138.09829691667,-3.043109702903853,-1.254694010802314,-0.8038981415583389,0.49080690741539,4.6025710105896,-0.6195120215415955,0.2652683854103088,-0.2510420083999634,0.9802517294883728,XArbitraryZVertical,-0.5551500445854132,0.2897469356813832,-0.7328571092992134,0.2660364477751733,-0.6595247983932495,0.7200664877891541,-0.2157102823257446,0,0,0,-1,-1,36137.77209591667,unknown,2,2025-04-22T15:44:16.974+03:00,2025-04-21T17:08:51.449+03:00,8272,1.043277,0,0,6880.045,7,22,2025-04-22T15:44:16.974+03:00,767018657.0756632,0,-13.4,100.3628,1,0.5,2025-04-22T15:44:06.954+03:00,101,1.683333333333333,2025-04-22T14:20:19.516+03:00,0.02197104130929222,0
2025-04-22T15:44:17.325+03:00,1745325854.854241,40.95221216915948,29.14026661759164,76.43822,-1,-1,-1,-1,30,21.17508972138302,-9999,36138.11844791667,-0.3881988525390625,0.2142486572265625,0.825836181640625,36138.10837191667,-3.040985550616654,-1.203846902930733,-0.7978798605520152,0.1220639050006866,5.195827007293701,-0.4008049368858337,0.2609954476356506,-0.3529623746871948,1.066175937652588,XArbitraryZVertical,-0.537203831095864,0.2935317755203375,-0.7475023105302889,0.2578592961424929,-0.6517423987388611,0.71587735414505,-0.2505022883415222,0,0,0,-1,-1,36137.77209591667,unknown,2,2025-04-22T15:44:16.974+03:00,2025-04-21T17:08:51.449+03:00,8272,1.043277,0,0,6880.045,7,22,2025-04-22T15:44:16.974+03:00,767018657.0756632,0,-13.4,100.3628,1,0.5,2025-04-22T15:44:06.954+03:00,101,1.683333333333333,2025-04-22T14:20:19.516+03:00,0.02197104130929222,0
2025-04-22T15:44:17.335+03:00,1745325854.854241,40.95221216915948,29.14026661759164,76.43822,-1,-1,-1,-1,30,21.17508972138302,-9999,36138.12852391667,-0.34796142578125,0.163421630859375,0.5617523193359375,36138.11844791667,-3.043982397228288,-1.15059053197114,-0.796144324794738,-0.2983568012714386,5.752823829650879,-0.05117369443178177,0.249869167804718,-0.4693642854690552,1.123542189598083,XArbitraryZVertical,-0.516810817498375,0.3003885722237485,-0.7622174798171623,0.2483903596066409,-0.638617217540741,0.7146645188331604,-0.2853465676307678,0,0,0,-1,-1,36137.77209591667,unknown,2,2025-04-22T15:44:16.974+03:00,2025-04-21T17:08:51.449+03:00,8272,1.043277,0,0,6880.045,7,22,2025-04-22T15:44:16.974+03:00,767018657.0756632,0,-13.4,100.3628,1,0.5,2025-04-22T15:44:06.954+03:00,101,1.683333333333333,2025-04-22T14:20:19.516+03:00,0.02197104130929222,0
2025-04-22T15:44:17.345+03:00,1745325854.854241,40.95221216915948,29.14026661759164,76.43822,-1,-1,-1,-1,30,21.17508972138302,-9999,36138.13859991667,0.0158538818359375,0.541656494140625,-1.392440795898438,36138.12852391667,-3.033468008019339,-1.075448458621751,-0.799482884163028,1.800912857055664,7.664466857910156,1.332825779914856,0.23470538854599,-0.5462957620620728,1.060793399810791,XArbitraryZVertical,-0.4891757347587405,0.3082750401422688,-0.779236999058127,0.2417915135503305,-0.6132910847663879,0.7169957160949707,-0.3313471972942352,0,0,0,-1,-1,36137.77209591667,unknown,2,2025-04-22T15:44:16.974+03:00,2025-04-21T17:08:51.449+03:00,8272,1.043277,0,0,6880.045,7,22,2025-04-22T15:44:16.974+03:00,767018657.0756632,0,-13.4,100.3628,1,0.5,2025-04-22T15:44:06.954+03:00,101,1.683333333333333,2025-04-22T14:20:19.516+03:00,0.02197104130929222,0
2025-04-22T15:44:17.355+03:00,1745325854.854241,40.95221216915948,29.14026661759164,76.43822,-1,-1,-1,-1,30,21.17508972138302,-9999,36138.14867591667,0.4330902099609375,2.102127075195312,-5.672134399414062,36138.13859991667,-3.005816267140214,-1.011858764913187,-0.8026636998845935,1.210658669471741,-1.010127186775208,1.288689255714417,0.4144070744514465,-0.4272630214691162,0.1041566431522369,XArbitraryZVertical,-0.4682657751440142,0.3106567736000913,-0.7905230394861347,0.2435013401136281,-0.5890591144561768,0.7192093729972839,-0.3684390783309937,0,0,0,-1,-1,36137.77209591667,unknown,2,2025-04-22T15:44:16.974+03:00,2025-04-21T17:08:51.449+03:00,8272,1.043277,0,0,6880.045,7,22,2025-04-22T15:44:16.974+03:00,767018657.0756632,0,-13.4,100.3628,1,0.5,2025-04-22T15:44:06.954+03:00,101,1.683333333333333,2025-04-22T14:20:19.516+03:00,0.02197104130929222,0
2025-04-22T15:44:17.365+03:00,1745325854.854241,40.95221216915948,29.14026661759164,76.43822,-1,-1,-1,-1,30,21.17508972138302,-9999,36138.15875191667,0.6263275146484375,2.78350830078125,-3.864501953125,36138.14867591667,-2.972146341843175,-0.9948513254377009,-0.7822509100681079,4.221214294433594,-0.6342770457267761,-2.679866313934326,0.9082072377204895,0.695955216884613,-3.860140085220337,XArbitraryZVertical,-0.4678980908700903,0.2964985323638098,-0.7941387477709796,0.2500073165761971,-0.5948984026908875,0.7048778533935547,-0.3863199949264526,0,0,0,-1,-1,36137.77209591667,unknown,2,2025-04-22T15:44:16.974+03:00,2025-04-21T17:08:51.449+03:00,8272,1.043277,0,0,6880.045,7,22,2025-04-22T15:44:16.974+03:00,767018657.0756632,0,-13.4,100.3628,1,0.5,2025-04-22T15:44:06.954+03:00,101,1.683333333333333,2025-04-22T14:20:19.516+03:00,0.02197104130929222,0
2025-04-22T15:44:17.375+03:00,1745325854.854241,40.95221216915948,29.14026661759164,76.43822,-1,-1,-1,-1,30,21.17508972138302,-9999,36138.16882791667,0.1055145263671875,1.383102416992188,-0.7518310546875,36138.15875191667,-2.939485586588995,-1.001046548611283,-0.728221860543061,5.182838439941406,-3.606700658798218,-2.588260889053345,1.232129454612732,2.203871726989746,-5.060594081878662,XArbitraryZVertical,-0.4776550225076408,0.2656025245905367,-0.7983916947179793,0.2527282731391189,-0.6284610629081726,0.6655435562133789,-0.402601957321167,0,0,0,-1,-1,36137.77209591667,unknown,2,2025-04-22T15:44:16.974+03:00,2025-04-21T17:08:51.449+03:00,8272,1.043277,0,0,6880.045,7,22,2025-04-22T15:44:16.974+03:00,767018657.0756632,0,-13.4,100.3628,1,0.5,2025-04-22T15:44:06.954+03:00,101,1.683333333333333,2025-04-22T14:20:19.516+03:00,0.02197104130929222,0
2025-04-22T15:44:17.385+03:00,1745325854.854241,40.95221216915948,29.14026661759164,76.43822,-1,-1,-1,-1,30,21.17508972138302,-9999,36138.17890391667,-1.538330078125,-0.4468536376953125,-0.1915283203125,36138.16882791667,-2.918129898372969,-1.009709500929475,-0.6994789864368436,-0.08712419867515564,-0.04810891300439835,-0.8547990322113037,1.049164772033691,1.336710572242737,-0.8949527740478516,XArbitraryZVertical,-0.4850050662279332,0.2473701921045235,-0.7986526741446612,0.2563822453883243,-0.6478585600852966,0.6438190937042236,-0.4071561396121979,0,0,0,-1,-1,36137.77209591667,unknown,2,2025-04-22T15:44:16.974+03:00,2025-04-21T17:08:51.449+03:00,8272,1.043277,0,0,6880.045,7,22,2025-04-22T15:44:16.974+03:00,767018657.0756632,0,-13.4,100.3628,1,0.5,2025-04-22T15:44:06.954+03:00,101,1.683333333333333,2025-04-22T14:20:19.516+03:00,0.02197104130929222,0
2025-04-22T15:44:17.395+03:00,1745325854.854241,40.95221216915948,29.14026661759164,76.43822,-1,-1,-1,-1,30,21.17508972138302,-9999,36138.18897991667,-0.88018798828125,-1.053131103515625,-0.130706787109375,36138.17890391667,-2.941974653935014,-1.017650778554392,-0.7011521810030198,-1.983375072479248,0.674394965171814,-0.5048506259918213,-0.2102737426757812,-0.3772763013839722,-0.1550866961479187,XArbitraryZVertical,-0.4851299506184196,0.2528495555154575,-0.7994448100517214,0.2482015035420557,-0.6501539349555969,0.6450985074043274,-0.401432067155838,0,0,0,-1,-1,36137.77209591667,unknown,2,2025-04-22T15:44:16.974+03:00,2025-04-21T17:08:51.449+03:00,8272,1.043277,0,0,6880.045,7,22,2025-04-22T15:44:16.974+03:00,767018657.0756632,0,-13.4,100.3628,1,0.5,2025-04-22T15:44:06.954+03:00,101,1.683333333333333,2025-04-22T14:20:19.516+03:00,0.02197104130929222,0
2025-04-22T15:44:17.406+03:00,1745325854.854241,40.95221216915948,29.14026661759164,76.43822,-1,-1,-1,-1,30,21.17508972138302,-9999,36138.19905591667,0.6941070556640625,0.22894287109375,-0.8171234130859375,36138.18897991667,-2.959410734814808,-1.032395638813607,-0.7106513928695726,-1.449635624885559,-1.101252794265747,0.5657920241355896,-0.9800713658332825,-1.800429582595825,0.5943003296852112,XArbitraryZVertical,-0.4883492054018513,0.2592176705987003,-0.7963741679467997,0.24517200815058,-0.6507115364074707,0.6523275971412659,-0.3886425197124481,0,0,0,-1,-1,36137.77209591667,unknown,2,2025-04-22T15:44:16.974+03:00,2025-04-21T17:08:51.449+03:00,8272,1.043277,0,0,6880.045,7,22,2025-04-22T15:44:16.974+03:00,767018657.0756632,0,-13.4,100.3628,1,0.5,2025-04-22T15:44:06.954+03:00,101,1.683333333333333,2025-04-22T14:20:19.516+03:00,0.02197104130929222,0
2025-04-22T15:44:17.416+03:00,1745325854.854241,40.95221216915948,29.14026661759164,76.43822,-1,-1,-1,-1,30,21.17508972138302,-9999,36138.20913191667,-0.5412445068359375,1.157516479492188,-0.1153106689453125,36138.19905591667,-2.969801579684574,-1.050009806565741,-0.7235204169326925,-1.136563658714294,-0.8789502382278442,0.7756776213645935,1.134113311767578,-0.9605655670166016,-0.4769712090492249,XArbitraryZVertical,-0.4933215116248761,0.264910148316305,-0.7911115605606261,0.2461683534277869,-0.6501197218894958,0.6620272397994995,-0.3729130029678345,0,0,0,-1,-1,36137.77209591667,unknown,2,2025-04-22T15:44:16.974+03:00,2025-04-21T17:08:51.449+03:00,8272,1.043277,0,0,6880.045,7,22,2025-04-22T15:44:16.974+03:00,767018657.0756632,0,-13.4,100.3628,1,0.5,2025-04-22T15:44:06.954+03:00,101,1.683333333333333,2025-04-22T14:20:19.516+03:00,0.02197104130929222,0
2025-04-22T15:44:17.426+03:00,1745325854.854241,40.95221216915948,29.14026661759164,76.43822,-1,-1,-1,-1,30,21.17508972138302,-9999,36138.21920791667,-1.191070556640625,1.418869018554688,-0.4261322021484375,36138.20913191667,-2.977042787559635,-1.061173987078115,-0.7328338415357966,-0.6652011871337891,-0.5054309964179993,0.1138060316443443,0.6663185358047485,0.234555184841156,0.08268547058105469,XArbitraryZVertical,-0.4962445894384838,0.2691416744024276,-0.7876306187020113,0.2468643677022386,-0.6488319039344788,0.6689786314964294,-0.3626081347465515,0,0,0,-1,-1,36137.77209591667,unknown,2,2025-04-22T15:44:16.974+03:00,2025-04-21T17:08:51.449+03:00,8272,1.043277,0,0,6880.045,7,22,2025-04-22T15:44:16.974+03:00,767018657.0756632,0,-13.4,100.3628,1,0.5,2025-04-22T15:44:06.954+03:00,101,1.683333333333333,2025-04-22T14:20:19.516+03:00,0.02197104130929222,0
2025-04-22T15:44:17.436+03:00,1745325854.854241,40.95221216915948,29.14026661759164,76.43822,-1,-1,-1,-1,30,21.17508972138302,-9999,36138.22928391667,-1.09423828125,1.351394653320312,-0.619110107421875,36138.21920791667,-2.980043119722242,-1.064784233705545,-0.732956166201886,0.2550013959407806,0.1414654701948166,-0.1925480365753174,-0.4407550692558289,0.7096839547157288,0.08953258395195007,XArbitraryZVertical,-0.4972547978339141,0.2694918430437914,-0.7870824961354093,0.2461966715704542,-0.6500651240348816,0.6690695881843567,-0.3602236211299896,0,0,0,-1,-1,36137.77209591667,unknown,2,2025-04-22T15:44:16.974+03:00,2025-04-21T17:08:51.449+03:00,8272,1.043277,0,0,6880.045,7,22,2025-04-22T15:44:16.974+03:00,767018657.0756632,0,-13.4,100.3628,1,0.5,2025-04-22T15:44:06.954+03:00,101,1.683333333333333,2025-04-22T14:20:19.516+03:00,0.02197104130929222,0
2025-04-22T15:44:17.446+03:00,1745325854.854241,40.95221216915948,29.14026661759164,76.43822,-1,-1,-1,-1,30,21.17508972138302,-9999,36138.23935991667,-0.8531341552734375,1.125961303710938,-0.5761260986328125,36138.22928391667,-2.97443324543405,-1.057765057354383,-0.7285098240913215,0.8386014699935913,0.4587204158306122,-0.2573761641979218,-0.5210973024368286,0.7277045249938965,-0.2138288915157318,XArbitraryZVertical,-0.4954955270743043,0.2671462432515559,-0.7889025826281666,0.2464742043185787,-0.6501060724258423,0.6657584309577942,-0.3662341237068176,0,0,0,-1,-1,36137.77209591667,unknown,2,2025-04-22T15:44:16.974+03:00,2025-04-21T17:08:51.449+03:00,8272,1.043277,0,0,6880.045,7,22,2025-04-22T15:44:16.974+03:00,767018657.0756632,0,-13.4,100.3628,1,0.5,2025-04-22T15:44:06.954+03:00,101,1.683333333333333,2025-04-22T14:20:19.516+03:00,0.02197104130929222,0
2025-04-22T15:44:17.456+03:00,1745325854.854241,40.95221216915948,29.14026661759164,76.43822,-1,-1,-1,-1,30,21.17508972138302,-9999,36138.24943591667,-0.74432373046875,0.7405242919921875,-0.426727294921875,36138.23935991667,-2.967265817969936,-1.048193047141472,-0.7210902881975779,0.7364543080329895,0.4758889973163605,-0.4685816168785095,-0.2786098122596741,0.5767039060592651,-0.2412698864936829,XArbitraryZVertical,-0.4930667917001235,0.2635097766564171,-0.7916668670811831,0.2463966852323751,-0.6508334279060364,0.6602039933204651,-0.3748954832553864,0,0,0,-1,-1,36137.77209591667,unknown,2,2025-04-22T15:44:16.974+03:00,2025-04-21T17:08:51.449+03:00,8272,1.043277,0,0,6880.045,7,22,2025-04-22T15:44:16.974+03:00,767018657.0756632,0,-13.4,100.3628,1,0.5,2025-04-22T15:44:06.954+03:00,101,1.683333333333333,2025-04-22T14:20:19.516+03:00,0.02197104130929222,0
2025-04-22T15:44:17.466+03:00,1745325854.854241,40.95221216915948,29.14026661759164,76.43822,-1,-1,-1,-1,30,21.17508972138302,-9999,36138.25951191667,-0.667510986328125,0.5356903076171875,-0.3748321533203125,36138.24943591667,-2.96282922906322,-1.040993461094425,-0.7140335350131228,0.5601874589920044,0.3758780658245087,-0.3869188129901886,-0.1272058486938477,0.2273452281951904,-0.09662991762161255,XArbitraryZVertical,-0.4911569063656298,0.2603972084249143,-0.7941074008072242,0.2456655252048051,-0.6521214246749878,0.654887318611145,-0.3819163739681244,0,0,0,-1,-1,36137.77209591667,unknown,2,2025-04-22T15:44:16.974+03:00,2025-04-21T17:08:51.449+03:00,8272,1.043277,0,0,6880.045,7,22,2025-04-22T15:44:16.974+03:00,767018657.0756632,0,-13.4,100.3628,1,0.5,2025-04-22T15:44:06.954+03:00,101,1.683333333333333,2025-04-22T14:20:19.516+03:00,0.02197104130929222,0
2025-04-22T15:44:17.476+03:00,1745325854.854241,40.95221216915948,29.14026661759164,76.43822,-1,-1,-1,-1,30,21.17508972138302,-9999,36138.26958791667,-0.7555084228515625,0.49542236328125,-0.3176116943359375,36138.25951191667,-2.959416211728426,-1.03468639805633,-0.7090090404448928,0.367707222700119,0.4652515947818756,-0.2236326783895493,-0.03148531913757324,-0.06906610727310181,0.006639689207077026,XArbitraryZVertical,-0.4893400107446829,0.2582587392750895,-0.7960965537792061,0.24510989827,-0.6525202393531799,0.651081919670105,-0.3876975476741791,0,0,0,-1,-1,36137.77209591667,unknown,2,2025-04-22T15:44:16.974+03:00,2025-04-21T17:08:51.449+03:00,8272,1.043277,0,0,6880.045,7,22,2025-04-22T15:44:16.974+03:00,767018657.0756632,0,-13.4,100.3628,1,0.5,2025-04-22T15:44:06.954+03:00,101,1.683333333333333,2025-04-22T14:20:19.516+03:00,0.02197104130929222,0
2025-04-22T15:44:17.486+03:00,1745325854.854241,40.95221216915948,29.14026661759164,76.43822,-1,-1,-1,-1,30,21.17508972138302,-9999,36138.27966391667,-0.81146240234375,0.5125885009765625,-0.2415771484375,36138.26958791667,-2.957720726465104,-1.028065129464053,-0.7063519015861738,0.1381165683269501,0.6118516325950623,-0.09819250553846359,-0.05405658483505249,-0.1460111737251282,0.04109489917755127,XArbitraryZVertical,-0.4870469454313923,0.2575546752386133,-0.7979604025724883,0.2443563176593399,-0.651418149471283,0.6490628719329834,-0.3929017186164856,0,0,0,-1,-1,36137.77209591667,unknown,2,2025-04-22T15:44:16.974+03:00,2025-04-21T17:08:51.449+03:00,8272,1.043277,0,0,6880.045,7,22,2025-04-22T15:44:16.974+03:00,767018657.0756632,0,-13.4,100.3628,1,0.5,2025-04-22T15:44:06.954+03:00,101,1.683333333333333,2025-04-22T14:20:19.516+03:00,0.02197104130929222,0
2025-04-22T15:44:17.496+03:00,1745325854.854241,40.95221216915948,29.14026661759164,76.43822,-1,-1,-1,-1,30,21.17508972138302,-9999,36138.28973991667,-0.62310791015625,0.565765380859375,-0.3166656494140625,36138.27966391667,-2.957740836257517,-1.022069267714139,-0.7055660376720649,-0.05579856410622597,0.5486260056495667,-0.05308547988533974,-0.1689804792404175,-0.1504332423210144,0.1425191164016724,XArbitraryZVertical,-0.4846865659680969,0.2579646137953098,-0.7995539234282781,0.2434063629606721,-0.6494856476783752,0.6484647989273071,-0.3970663845539093,0,0,0,-1,-1,36137.77209591667,unknown,2,2025-04-22T15:44:16.974+03:00,2025-04-21T17:08:51.449+03:00,8272,1.043277,0,0,6880.045,7,22,2025-04-22T15:44:16.974+03:00,767018657.0756632,0,-13.4,100.3628,1,0.5,2025-04-22T15:44:06.954+03:00,101,1.683333333333333,2025-04-22T14:20:19.516+03:00,0.02197104130929222,0
2025-04-22T15:44:17.506+03:00,1745325854.854241,40.95221216915948,29.14026661759164,76.43822,-1,-1,-1,-1,30,21.17508972138302,-9999,36138.29981591667,-0.436614990234375,0.576446533203125,-0.4156036376953125,36138.28973991667,-2.959714187017243,-1.019105498077795,-0.7055934185454319,-0.1867165714502335,0.2714389860630035,-0.1024187728762627,-0.06438601016998291,-0.09999334812164307,0.1223687827587128,XArbitraryZVertical,-0.4832447888825216,0.2588133409174141,-0.8005060147608606,0.242239960992755,-0.6482908725738525,0.6484856605529785,-0.3989802598953247,0,0,0,-1,-1,36137.77209591667,unknown,2,2025-04-22T15:44:16.974+03:00,2025-04-21T17:08:51.449+03:00,8272,1.043277,0,0,6880.045,7,22,2025-04-22T15:44:16.974+03:00,767018657.0756632,0,-13.4,100.3628,1,0.5,2025-04-22T15:44:06.954+03:00,101,1.683333333333333,2025-04-22T14:20:19.516+03:00,0.02197104130929222,0
2025-04-22T15:44:17.516+03:00,1745325854.854241,40.95221216915948,29.14026661759164,76.43822,-1,-1,-1,-1,30,21.17508972138302,-9999,36138.30989191667,-0.4289398193359375,0.585174560546875,-0.4465484619140625,36138.29981591667,-2.962871745541561,-1.019758860876365,-0.7056398541398776,-0.2141239643096924,0.02786414697766304,-0.1372888833284378,0.1614042520523071,-0.07002991437911987,0.01417171955108643,XArbitraryZVertical,-0.4830949971908684,0.2595165227096845,-0.8007216848825305,0.2410706008822093,-0.6485256552696228,0.6485210061073303,-0.3985407948493958,0,0,0,-1,-1,36137.77209591667,unknown,2,2025-04-22T15:44:16.974+03:00,2025-04-21T17:08:51.449+03:00,8272,1.043277,0,0,6880.045,7,22,2025-04-22T15:44:16.974+03:00,767018657.0756632,0,-13.4,100.3628,1,0.5,2025-04-22T15:44:06.954+03:00,101,1.683333333333333,2025-04-22T14:20:19.516+03:00,0.02197104130929222,0
2025-04-22T15:44:17.526+03:00,1745325854.854241,40.95221216915948,29.14026661759164,76.43822,-1,-1,-1,-1,30,21.17508972138302,-9999,36138.31996791667,-0.5159912109375,0.65411376953125,-0.4181060791015625,36138.30989191667,-2.966285634685568,-1.021990100471971,-0.7055149404439277,-0.2060654908418655,-0.008587602525949478,-0.1531057804822922,0.2361983060836792,-0.07341378927230835,-0.04715520143508911,XArbitraryZVertical,-0.483550787419856,0.2600213063868704,-0.8006144453710515,0.2399668310276853,-0.6494824886322021,0.6484259366989136,-0.3971351087093353,0,0,0,-1,-1,36137.77209591667,unknown,2,2025-04-22T15:44:16.974+03:00,2025-04-21T17:08:51.449+03:00,8272,1.043277,0,0,6880.045,7,22,2025-04-22T15:44:16.974+03:00,767018657.0756632,0,-13.4,100.3628,1,0.5,2025-04-22T15:44:06.954+03:00,101,1.683333333333333,2025-04-22T14:20:19.516+03:00,0.02197104130929222,0
2025-04-22T15:44:17.536+03:00,1745325854.854241,40.95221216915948,29.14026661759164,76.43822,-1,-1,-1,-1,30,21.17508972138302,-9999,36138.33004391667,-0.5662384033203125,0.7083587646484375,-0.3928985595703125,36138.31996791667,-2.969606412131963,-1.023991581676587,-0.7051671888725471,-0.1914780288934708,0.03801771625876427,-0.1664455533027649,0.168001115322113,-0.02374106645584106,-0.03626900911331177,XArbitraryZVertical,-0.4839368410615897,0.2604406298850289,-0.8005869524730425,0.2388229139447402,-0.650468647480011,0.6481611728668213,-0.3959516286849976,0,0,0,-1,-1,36137.77209591667,unknown,2,2025-04-22T15:44:16.974+03:00,2025-04-21T17:08:51.449+03:00,8272,1.043277,0,0,6880.045,7,22,2025-04-22T15:44:16.974+03:00,767018657.0756632,0,-13.4,100.3628,1,0.5,2025-04-22T15:44:06.954+03:00,101,1.683333333333333,2025-04-22T14:20:19.516+03:00,0.02197104130929222,0
2025-04-22T15:44:17.547+03:00,1745325854.854241,40.95221216915948,29.14026661759164,76.43822,-1,-1,-1,-1,30,21.17508972138302,-9999,36138.34011991667,-0.5771636962890625,0.700653076171875,-0.3881683349609375,36138.33004391667,-2.972723043820213,-1.025545755533428,-0.7046137134041383,-0.1491508781909943,0.05067671835422516,-0.1679707765579224,0.09651929140090942,0.04755759239196777,-0.004227042198181152,XArbitraryZVertical,-0.4841803111682508,0.2607803031031159,-0.8006756930358442,0.2376580332961361,-0.6513897180557251,0.647739589214325,-0.3951261341571808,0,0,0,-1,-1,36137.77209591667,unknown,2,2025-04-22T15:44:16.974+03:00,2025-04-21T17:08:51.449+03:00,8272,1.043277,0,0,6880.045,7,22,2025-04-22T15:44:16.974+03:00,767018657.0756632,0,-13.4,100.3628,1,0.5,2025-04-22T15:44:06.954+03:00,101,1.683333333333333,2025-04-22T14:20:19.516+03:00,0.02197104130929222,0
2025-04-22T15:44:17.557+03:00,1745325854.854241,40.95221216915948,29.14026661759164,76.43822,-1,-1,-1,-1,30,21.17508972138302,-9999,36138.35019591667,-0.59442138671875,0.6674041748046875,-0.3846893310546875,36138.34011991667,-2.975267909972116,-1.026724719654607,-0.7038493113712927,-0.1010781601071358,0.03960835561156273,-0.1617349833250046,0.07845675945281982,0.06188827753067017,0.004934936761856079,XArbitraryZVertical,-0.484358726297384,0.2609398357527291,-0.8008211425544846,0.2366270448893851,-0.6522786021232605,0.6471570134162903,-0.394614040851593,0,0,0,-1,-1,36137.77209591667,unknown,2,2025-04-22T15:44:16.974+03:00,2025-04-21T17:08:51.449+03:00,8272,1.043277,0,0,6880.045,7,22,2025-04-22T15:44:16.974+03:00,767018657.0756632,0,-13.4,100.3628,1,0.5,2025-04-22T15:44:06.954+03:00,101,1.683333333333333,2025-04-22T14:20:19.516+03:00,0.02197104130929222,0
2025-04-22T15:44:17.567+03:00,1745325854.854241,40.95221216915948,29.14026661759164,76.43822,-1,-1,-1,-1,30,21.17508972138302,-9999,36138.36027191667,-0.617095947265625,0.642547607421875,-0.3755035400390625,36138.35019591667,-2.977360754807985,-1.027938587956271,-0.7028374108698021,-0.07043643295764923,-0.01421685889363289,-0.176517441868782,0.06702911853790283,0.03444647789001465,0.008768677711486816,XArbitraryZVertical,-0.4846229961884717,0.260884141381683,-0.8009446967794281,0.2357272822039473,-0.653317391872406,0.6463852524757385,-0.3941600322723389,0,0,0,-1,-1,36137.77209591667,unknown,2,2025-04-22T15:44:16.974+03:00,2025-04-21T17:08:51.449+03:00,8272,1.043277,0,0,6880.045,7,22,2025-04-22T15:44:16.974+03:00,767018657.0756632,0,-13.4,100.3628,1,0.5,2025-04-22T15:44:06.954+03:00,101,1.683333333333333,2025-04-22T14:20:19.516+03:00,0.02197104130929222,0
2025-04-22T15:44:17.577+03:00,1745325854.854241,40.95221216915948,29.14026661759164,76.43822,-1,-1,-1,-1,30,21.17508972138302,-9999,36138.37034791667,-0.647125244140625,0.6302642822265625,-0.3696441650390625,36138.36027191667,-2.979455630582863,-1.02971545836643,-0.7015605488527694,-0.07415926456451416,-0.07045909762382507,-0.2042177766561508,0.0464475154876709,0.003744065761566162,0.01383030414581299,XArbitraryZVertical,-0.4851265779059922,0.2606539917750112,-0.8009750517015054,0.2348415828119348,-0.6547237634658813,0.6454104781150818,-0.3934234082698822,0,0,0,-1,-1,36137.77209591667,unknown,2,2025-04-22T15:44:16.974+03:00,2025-04-21T17:08:51.449+03:00,8272,1.043277,0,0,6880.045,7,22,2025-04-22T15:44:16.974+03:00,767018657.0756632,0,-13.4,100.3628,1,0.5,2025-04-22T15:44:06.954+03:00,101,1.683333333333333,2025-04-22T14:20:19.516+03:00,0.02197104130929222,0
2025-04-22T15:44:17.587+03:00,1745325854.854241,40.95221216915948,29.14026661759164,76.43822,-1,-1,-1,-1,30,21.17508972138302,-9999,36138.38042391667,-0.662506103515625,0.6145172119140625,-0.371917724609375,36138.37034791667,-2.981886056600183,-1.032312793005477,-0.700099377533317,-0.09745199978351593,-0.1351565271615982,-0.2330487221479416,0.02097815275192261,-0.01026058197021484,0.0216907262802124,XArbitraryZVertical,-0.4859254031858553,0.2603346203597618,-0.8008740557861549,0.2338869342475199,-0.6565523743629456,0.6442936658859253,-0.392204761505127,0,0,0,-1,-1,36137.77209591667,unknown,2,2025-04-22T15:44:16.974+03:00,2025-04-21T17:08:51.449+03:00,8272,1.043277,0,0,6880.045,7,22,2025-04-22T15:44:16.974+03:00,767018657.0756632,0,-13.4,100.3628,1,0.5,2025-04-22T15:44:06.954+03:00,101,1.683333333333333,2025-04-22T14:20:19.516+03:00,0.02197104130929222,0
2025-04-22T15:44:17.597+03:00,1745325854.854241,40.95221216915948,29.14026661759164,76.43822,-1,-1,-1,-1,30,21.17508972138302,-9999,36138.39049991667,-0.6623077392578125,0.604583740234375,-0.3735504150390625,36138.38042391667,-2.984865838160048,-1.035914976163194,-0.6985867007503513,-0.1340611428022385,-0.19191674888134,-0.2522171139717102,-0.0006860494613647461,-0.02167618274688721,0.01896500587463379,XArbitraryZVertical,-0.4870588366641931,0.2600132598860679,-0.8005978605253785,0.2328301604490143,-0.6587986946105957,0.6431360840797424,-0.3903335928916931,0,0,0,-1,-1,36137.77209591667,unknown,2,2025-04-22T15:44:16.974+03:00,2025-04-21T17:08:51.449+03:00,8272,1.043277,0,0,6880.045,7,22,2025-04-22T15:44:16.974+03:00,767018657.0756632,0,-13.4,100.3628,1,0.5,2025-04-22T15:44:06.954+03:00,101,1.683333333333333,2025-04-22T14:20:19.516+03:00,0.02197104130929222,0
