loggingTime(txt),locationTimestamp_since1970(s),locationLatitude(WGS84),locationLongitude(WGS84),locationAltitude(m),locationSpeed(m/s),locationSpeedAccuracy(m/s),locationCourse(°),locationCourseAccuracy(°),locationVerticalAccuracy(m),locationHorizontalAccuracy(m),locationFloor(Z),accelerometerTimestamp_sinceReboot(s),accelerometerAccelerationX(G),accelerometerAccelerationY(G),accelerometerAccelerationZ(G),motionTimestamp_sinceReboot(s),motionYaw(rad),motionRoll(rad),motionPitch(rad),motionRotationRateX(rad/s),motionRotationRateY(rad/s),motionRotationRateZ(rad/s),motionUserAccelerationX(G),motionUserAccelerationY(G),motionUserAccelerationZ(G),motionAttitudeReferenceFrame(txt),motionQuaternionX(R),motionQuaternionY(R),motionQuaternionZ(R),motionQuaternionW(R),motionGravityX(G),motionGravityY(G),motionGravityZ(G),motionMagneticFieldX(µT),motionMagneticFieldY(µT),motionMagneticFieldZ(µT),motionHeading(°),motionMagneticFieldCalibrationAccuracy(Z),activityTimestamp_sinceReboot(s),activity(txt),activityActivityConfidence(Z),activityActivityStartDate(txt),pedometerStartDate(txt),pedometerNumberofSteps(N),pedometerAverageActivePace(s/m),pedometerCurrentPace(s/m),pedometerCurrentCadence(steps/s),pedometerDistance(m),pedometerFloorAscended(N),pedometerFloorDescended(N),pedometerEndDate(txt),altimeterTimestamp_sinceReboot(s),altimeterReset(bool),altimeterRelativeAltitude(m),altimeterPressure(kPa),batteryState(N),batteryLevel(R),heartRateBPMTimestamp(txt),heartRateBPM(N),heartRateBPS(R),heartRateVariabilityTimestamp(txt),heartRateVariability(ms),label
2025-04-22T15:24:02.447+03:00,1745324637.109606,40.95225259131825,29.14030486462699,76.43298,-1,-1,-1,-1,30,27.21703004273423,-9999,35305.4064995,-0.70501708984375,0.615234375,-0.338592529296875,35305.4014605,-2.573684492107661,-1.119719987521658,-0.6810655121888349,-0.07236206531524658,0.04097388312220573,0.02327343448996544,-0.004234790802001953,-0.05186253786087036,0.008661210536956787,XArbitraryZVertical,0.5598098708174706,-0.1314293028238803,0.7169993718380847,-0.3940192447445842,-0.6991953253746033,0.6296212077140808,-0.3386784791946411,0,0,0,-1,-1,35287.42123979167,unknown,2,2025-04-22T15:22:54.949+03:00,2025-04-21T17:08:51.449+03:00,8236,1.039424,0,0,6852.579,7,22,2025-04-22T15:22:29.153+03:00,767017442.1177073,0,-15.45,100.3885,1,0.55,2025-04-22T15:22:53.954+03:00,108,1.8,2025-04-22T14:20:19.516+03:00,0.02197104130929222,0
2025-04-22T15:24:02.450+03:00,1745324637.109606,40.95225259131825,29.14030486462699,76.43298,-1,-1,-1,-1,30,27.21703004273423,-9999,35305.4165755,-0.7078704833984375,0.6839599609375,-0.346466064453125,35305.4115375,-2.573778537578302,-1.119123930265205,-0.6811552847772951,0.005831546150147915,0.0613984614610672,0.003583885729312897,-0.005693137645721436,-0.03841292858123779,0.004338294267654419,XArbitraryZVertical,0.5595923763812731,-0.1316096876040015,0.7171662218064518,-0.3939643353894192,-0.6989424824714661,0.629690945148468,-0.3390705287456512,0,0,0,-1,-1,35287.42123979167,unknown,2,2025-04-22T15:22:54.949+03:00,2025-04-21T17:08:51.449+03:00,8236,1.039424,0,0,6852.579,7,22,2025-04-22T15:22:29.153+03:00,767017442.1177073,0,-15.45,100.3885,1,0.55,2025-04-22T15:22:53.954+03:00,108,1.8,2025-04-22T14:20:19.516+03:00,0.02197104130929222,0
2025-04-22T15:24:02.453+03:00,1745324637.109606,40.95225259131825,29.14030486462699,76.43298,-1,-1,-1,-1,30,27.21703004273423,-9999,35305.42665250001,-0.694061279296875,0.653533935546875,-0.3383941650390625,35305.4216135,-2.573845606849265,-1.118895198937067,-0.6812886673022467,-0.02680935338139534,-0.0005910051986575127,-0.007244061212986708,-0.007158517837524414,0.03120088577270508,-0.004052966833114624,XArbitraryZVertical,0.5595095080279737,-0.1317279595764512,0.7172159621663918,-0.3939519680213086,-0.6987892985343933,0.6297945380210876,-0.3391937017440796,0,0,0,-1,-1,35287.42123979167,unknown,2,2025-04-22T15:22:54.949+03:00,2025-04-21T17:08:51.449+03:00,8236,1.039424,0,0,6852.579,7,22,2025-04-22T15:22:29.153+03:00,767017442.1177073,0,-15.45,100.3885,1,0.55,2025-04-22T15:22:53.954+03:00,108,1.8,2025-04-22T14:20:19.516+03:00,0.02197104130929222,0
2025-04-22T15:24:02.455+03:00,1745324637.109606,40.95225259131825,29.14030486462699,76.43298,-1,-1,-1,-1,30,27.21703004273423,-9999,35305.4367285,-0.6712799072265625,0.6044464111328125,-0.33575439453125,35305.4316905,-2.574096148934058,-1.118987015354354,-0.6814040748481862,-0.01723156124353409,0.02086102217435837,-0.005569465458393097,-0.008505105972290039,0.05174106359481812,-0.004347264766693115,XArbitraryZVertical,0.5595290283702457,-0.1318271207863239,0.7172157378916955,-0.3938912731779581,-0.6987549662590027,0.6298841834068298,-0.3390977680683136,0,0,0,-1,-1,35287.42123979167,unknown,2,2025-04-22T15:22:54.949+03:00,2025-04-21T17:08:51.449+03:00,8236,1.039424,0,0,6852.579,7,22,2025-04-22T15:22:29.153+03:00,767017442.1177073,0,-15.45,100.3885,1,0.55,2025-04-22T15:22:53.954+03:00,108,1.8,2025-04-22T14:20:19.516+03:00,0.02197104130929222,0
2025-04-22T15:24:02.459+03:00,1745324637.109606,40.95225259131825,29.14030486462699,76.43298,-1,-1,-1,-1,30,27.21703004273423,-9999,35305.4468045,-0.7068023681640625,0.6446533203125,-0.34619140625,35305.4417665,-2.574167413745483,-1.118781240968751,-0.6813461494423434,0.01089994143694639,0.02137128636240959,-0.004394479095935822,0.03055095672607422,-0.02133411169052124,0.006600469350814819,XArbitraryZVertical,0.5594489918293107,-0.1318639400291713,0.7172992392054898,-0.3938405303908325,-0.6987179517745972,0.6298391819000244,-0.3392574489116669,0,0,0,-1,-1,35287.42123979167,unknown,2,2025-04-22T15:22:54.949+03:00,2025-04-21T17:08:51.449+03:00,8236,1.039424,0,0,6852.579,7,22,2025-04-22T15:22:29.153+03:00,767017442.1177073,0,-15.45,100.3885,1,0.55,2025-04-22T15:22:53.954+03:00,108,1.8,2025-04-22T14:20:19.516+03:00,0.02197104130929222,0
2025-04-22T15:24:02.460+03:00,1745324637.109606,40.95225259131825,29.14030486462699,76.43298,-1,-1,-1,-1,30,27.21703004273423,-9999,35305.4568815,-0.6887969970703125,0.6480255126953125,-0.340118408203125,35305.4518435,-2.574041514489707,-1.118464018642378,-0.6813017706840732,0.007253807969391346,0.01902450807392597,-0.002706034807488322,0.0006375312805175781,-0.001524269580841064,-0.004625052213668823,XArbitraryZVertical,0.5593423221671977,-0.1318730610126254,0.7173723564871735,-0.3938558891319225,-0.698635458946228,0.6298047304153442,-0.3394913375377655,0,0,0,-1,-1,35287.42123979167,unknown,2,2025-04-22T15:22:54.949+03:00,2025-04-21T17:08:51.449+03:00,8236,1.039424,0,0,6852.579,7,22,2025-04-22T15:22:29.153+03:00,767017442.1177073,0,-15.45,100.3885,1,0.55,2025-04-22T15:22:53.954+03:00,108,1.8,2025-04-22T14:20:19.516+03:00,0.02197104130929222,0
2025-04-22T15:24:02.470+03:00,1745324637.109606,40.95225259131825,29.14030486462699,76.43298,-1,-1,-1,-1,30,27.21703004273423,-9999,35305.4669575,-0.6916961669921875,0.6188507080078125,-0.339263916015625,35305.46191950001,-2.574009325679797,-1.118168111330132,-0.6813508963434624,-0.01237495429813862,0.02639194205403328,-0.003760879626497626,0.0008906126022338867,0.02462166547775269,-0.003195911645889282,XArbitraryZVertical,0.5592396284418818,-0.1319424131191345,0.7174385826259482,-0.3938577418121313,-0.6985070705413818,0.6298428773880005,-0.3396844863891602,0,0,0,-1,-1,35287.42123979167,unknown,2,2025-04-22T15:22:54.949+03:00,2025-04-21T17:08:51.449+03:00,8236,1.039424,0,0,6852.579,7,22,2025-04-22T15:22:29.153+03:00,767017442.1177073,0,-15.45,100.3885,1,0.55,2025-04-22T15:22:53.954+03:00,108,1.8,2025-04-22T14:20:19.516+03:00,0.02197104130929222,0
2025-04-22T15:24:02.494+03:00,1745324637.109606,40.95225259131825,29.14030486462699,76.43298,-1,-1,-1,-1,30,27.21703004273423,-9999,35305.4770345,-0.700408935546875,0.6160888671875,-0.3384246826171875,35305.4719965,-2.574169445757211,-1.118019376250622,-0.6813404333070681,-0.01311717741191387,0.02291358821094036,-0.00343916960991919,0.01264113187789917,-0.001554250717163086,0.001564770936965942,XArbitraryZVertical,0.5591754213673086,-0.1320121906308644,0.7175138776580925,-0.3937883969484356,-0.6984624862670898,0.629834771156311,-0.3397912681102753,0,0,0,-1,-1,35287.42123979167,unknown,2,2025-04-22T15:22:54.949+03:00,2025-04-21T17:08:51.449+03:00,8236,1.039424,0,0,6852.579,7,22,2025-04-22T15:22:29.153+03:00,767017442.1177073,0,-15.45,100.3885,1,0.55,2025-04-22T15:22:53.954+03:00,108,1.8,2025-04-22T14:20:19.516+03:00,0.02197104130929222,0
2025-04-22T15:24:02.495+03:00,1745324637.109606,40.95225259131825,29.14030486462699,76.43298,-1,-1,-1,-1,30,27.21703004273423,-9999,35305.48711050001,-0.695831298828125,0.6306304931640625,-0.33587646484375,35305.4820725,-2.574384355227422,-1.117974976257457,-0.6811301605031975,-0.01166695263236761,0.0225073229521513,-0.001179277896881104,-0.0006826519966125488,-0.01681751012802124,0.001211225986480713,XArbitraryZVertical,0.5591396677098609,-0.1319951277639222,0.7176119542597348,-0.3936662577239557,-0.6985665559768677,0.6296713948249817,-0.3398802280426025,0,0,0,-1,-1,35287.42123979167,unknown,2,2025-04-22T15:22:54.949+03:00,2025-04-21T17:08:51.449+03:00,8236,1.039424,0,0,6852.579,7,22,2025-04-22T15:22:29.153+03:00,767017442.1177073,0,-15.45,100.3885,1,0.55,2025-04-22T15:22:53.954+03:00,108,1.8,2025-04-22T14:20:19.516+03:00,0.02197104130929222,0
2025-04-22T15:24:02.499+03:00,1745324637.109606,40.95225259131825,29.14030486462699,76.43298,-1,-1,-1,-1,30,27.21703004273423,-9999,35305.4971875,-0.6978912353515625,0.63128662109375,-0.3398284912109375,35305.4921495,-2.574546721152261,-1.117880170509018,-0.6809190784660256,-0.007975279353559017,0.02373823709785938,-0.000529466662555933,0.001327335834503174,-0.004003942012786865,0.004509478807449341,XArbitraryZVertical,0.5590892680633112,-0.1319729449799309,0.717713953639698,-0.3935594775244346,-0.6986539363861084,0.6295074224472046,-0.3400046527385712,0,0,0,-1,-1,35287.42123979167,unknown,2,2025-04-22T15:22:54.949+03:00,2025-04-21T17:08:51.449+03:00,8236,1.039424,0,0,6852.579,7,22,2025-04-22T15:22:29.153+03:00,767017442.1177073,0,-15.45,100.3885,1,0.55,2025-04-22T15:22:53.954+03:00,108,1.8,2025-04-22T14:20:19.516+03:00,0.02197104130929222,0
2025-04-22T15:24:02.509+03:00,1745324637.109606,40.95225259131825,29.14030486462699,76.43298,-1,-1,-1,-1,30,27.21703004273423,-9999,35305.5072635,-0.69683837890625,0.6308135986328125,-0.3430938720703125,35305.5022255,-2.574595287828759,-1.117686649960963,-0.6810369208131339,0.002951670670881867,0.02122634276747704,-0.004415018483996391,0.002507030963897705,0.003488063812255859,0.002536952495574951,XArbitraryZVertical,0.5590197786492801,-0.1320727481578138,0.7177532881250648,-0.3935528629312283,-0.6985213756561279,0.6295989751815796,-0.3401073515415192,0,0,0,-1,-1,35287.42123979167,unknown,2,2025-04-22T15:22:54.949+03:00,2025-04-21T17:08:51.449+03:00,8236,1.039424,0,0,6852.579,7,22,2025-04-22T15:22:29.153+03:00,767017442.1177073,0,-15.45,100.3885,1,0.55,2025-04-22T15:22:53.954+03:00,108,1.8,2025-04-22T14:20:19.516+03:00,0.02197104130929222,0
2025-04-22T15:24:02.519+03:00,1745324637.109606,40.95225259131825,29.14030486462699,76.43298,-1,-1,-1,-1,30,27.21703004273423,-9999,35305.5173405,-0.6939849853515625,0.6355438232421875,-0.3415374755859375,35305.5123015,-2.574608951130182,-1.117471785910237,-0.6812176906482647,0.00316126155667007,0.02425995096564293,-0.008028395473957062,0.0001495480537414551,-2.455711364746094e-05,-0.002230346202850342,XArbitraryZVertical,0.5589466059627766,-0.1321926825864072,0.7177788029361102,-0.3935699626883109,-0.6983458995819092,0.6297394037246704,-0.340207576751709,0,0,0,-1,-1,35287.42123979167,unknown,2,2025-04-22T15:22:54.949+03:00,2025-04-21T17:08:51.449+03:00,8236,1.039424,0,0,6852.579,7,22,2025-04-22T15:22:29.153+03:00,767017442.1177073,0,-15.45,100.3885,1,0.55,2025-04-22T15:22:53.954+03:00,108,1.8,2025-04-22T14:20:19.516+03:00,0.02197104130929222,0
2025-04-22T15:24:02.529+03:00,1745324637.109606,40.95225259131825,29.14030486462699,76.43298,-1,-1,-1,-1,30,27.21703004273423,-9999,35305.5274165,-0.693145751953125,0.6292724609375,-0.340362548828125,35305.52237850001,-2.574627963157366,-1.117203620273846,-0.6811749912092796,-0.008141460828483105,0.02173074521124363,-0.006960734259337187,0.003241121768951416,0.005211889743804932,-0.002489030361175537,XArbitraryZVertical,0.5588479523525953,-0.1322333123775419,0.7178663087158866,-0.393536872880235,-0.6982788443565369,0.6297062039375305,-0.3404066264629364,0,0,0,-1,-1,35287.42123979167,unknown,2,2025-04-22T15:22:54.949+03:00,2025-04-21T17:08:51.449+03:00,8236,1.039424,0,0,6852.579,7,22,2025-04-22T15:22:29.153+03:00,767017442.1177073,0,-15.45,100.3885,1,0.55,2025-04-22T15:22:53.954+03:00,108,1.8,2025-04-22T14:20:19.516+03:00,0.02197104130929222,0
2025-04-22T15:24:02.539+03:00,1745324637.109606,40.95225259131825,29.14030486462699,76.43298,-1,-1,-1,-1,30,27.21703004273423,-9999,35305.5374935,-0.6912078857421875,0.622589111328125,-0.344512939453125,35305.5324545,-2.574724247908266,-1.116984847913313,-0.6811478207790915,-0.008373422548174858,0.03003980778157711,-0.0009145596995949745,0.004265248775482178,0.003111958503723145,0.0003261864185333252,XArbitraryZVertical,0.5587623504760718,-0.1322922082325584,0.7179518250999842,-0.3934823621012714,-0.6982195973396301,0.62968510389328,-0.3405668139457703,0,0,0,-1,-1,35287.42123979167,unknown,2,2025-04-22T15:22:54.949+03:00,2025-04-21T17:08:51.449+03:00,8236,1.039424,0,0,6852.579,7,22,2025-04-22T15:22:29.153+03:00,767017442.1177073,0,-15.45,100.3885,1,0.55,2025-04-22T15:22:53.954+03:00,108,1.8,2025-04-22T14:20:19.516+03:00,0.02197104130929222,0
2025-04-22T15:24:02.553+03:00,1745324637.109606,40.95225259131825,29.14030486462699,76.43298,-1,-1,-1,-1,30,27.21703004273423,-9999,35305.5475695,-0.692626953125,0.6226654052734375,-0.3438873291015625,35305.5425315,-2.574818214072307,-1.116758539862551,-0.6813142092309996,-0.01060694921761751,0.02327864244580269,-0.001422524335794151,0.00652015209197998,-0.005119740962982178,-0.00166746973991394,XArbitraryZVertical,0.5586793477167272,-0.1324309498151044,0.7179992826864512,-0.3934669518497679,-0.6980483531951904,0.6298143863677979,-0.340678870677948,0,0,0,-1,-1,35287.42123979167,unknown,2,2025-04-22T15:22:54.949+03:00,2025-04-21T17:08:51.449+03:00,8236,1.039424,0,0,6852.579,7,22,2025-04-22T15:22:29.153+03:00,767017442.1177073,0,-15.45,100.3885,1,0.55,2025-04-22T15:22:53.954+03:00,108,1.8,2025-04-22T14:20:19.516+03:00,0.02197104130929222,0
2025-04-22T15:24:02.560+03:00,1745324637.109606,40.95225259131825,29.14030486462699,76.43298,-1,-1,-1,-1,30,27.21703004273423,-9999,35305.5576465,-0.6880035400390625,0.626556396484375,-0.3325653076171875,35305.5526075,-2.574982074652905,-1.116651476428362,-0.6814159135855399,-0.01612342149019241,0.01445851847529411,-0.0006568655371665955,0.005495369434356689,-0.00770103931427002,-0.00412324070930481,XArbitraryZVertical,0.5586327540744157,-0.1325392790522419,0.718040641511179,-0.3934214275864803,-0.6979544758796692,0.6298933625221252,-0.3407255709171295,0,0,0,-1,-1,35287.42123979167,unknown,2,2025-04-22T15:22:54.949+03:00,2025-04-21T17:08:51.449+03:00,8236,1.039424,0,0,6852.579,7,22,2025-04-22T15:22:29.153+03:00,767017442.1177073,0,-15.45,100.3885,1,0.55,2025-04-22T15:22:53.954+03:00,108,1.8,2025-04-22T14:20:19.516+03:00,0.02197104130929222,0
2025-04-22T15:24:02.570+03:00,1745324637.109606,40.95225259131825,29.14030486462699,76.43298,-1,-1,-1,-1,30,27.21703004273423,-9999,35305.5677225,-0.690155029296875,0.626556396484375,-0.3273468017578125,35305.5626845,-2.575183111564441,-1.11664104585753,-0.6813367419015458,-0.01408310607075691,0.01916332542896271,-0.001812644070014358,0.008466362953186035,-0.004694640636444092,0.002543509006500244,XArbitraryZVertical,0.5586135673602253,-0.132565136973271,0.7180994026612832,-0.3933327171799126,-0.6979957222938538,0.629831850528717,-0.3407547473907471,0,0,0,-1,-1,35287.42123979167,unknown,2,2025-04-22T15:22:54.949+03:00,2025-04-21T17:08:51.449+03:00,8236,1.039424,0,0,6852.579,7,22,2025-04-22T15:22:29.153+03:00,767017442.1177073,0,-15.45,100.3885,1,0.55,2025-04-22T15:22:53.954+03:00,108,1.8,2025-04-22T14:20:19.516+03:00,0.02197104130929222,0
2025-04-22T15:24:02.580+03:00,1745324637.109606,40.95225259131825,29.14030486462699,76.43298,-1,-1,-1,-1,30,27.21703004273423,-9999,35305.5777985,-0.69482421875,0.628173828125,-0.340179443359375,35305.5727605,-2.575325437498924,-1.116587111441179,-0.6813481548323428,-0.003514884039759636,0.01600002311170101,-0.001016891561448574,0.01033365726470947,-0.002567291259765625,0.0138695240020752,XArbitraryZVertical,0.5585850662820516,-0.1326201481105103,0.7181401349546216,-0.3932803301542849,-0.6979709267616272,0.6298407316207886,-0.3407892286777496,0,0,0,-1,-1,35287.42123979167,unknown,2,2025-04-22T15:22:54.949+03:00,2025-04-21T17:08:51.449+03:00,8236,1.039424,0,0,6852.579,7,22,2025-04-22T15:22:29.153+03:00,767017442.1177073,0,-15.45,100.3885,1,0.55,2025-04-22T15:22:53.954+03:00,108,1.8,2025-04-22T14:20:19.516+03:00,0.02197104130929222,0
2025-04-22T15:24:02.590+03:00,1745324637.109606,40.95225259131825,29.14030486462699,76.43298,-1,-1,-1,-1,30,27.21703004273423,-9999,35305.5878755,-0.689361572265625,0.6344757080078125,-0.338653564453125,35305.58283750001,-2.57540868185135,-1.116543209923298,-0.6813987162404024,-0.007171270903199911,0.01241687219589949,-0.002439086092635989,0.002996325492858887,-0.003216862678527832,0.005936354398727417,XArbitraryZVertical,0.5585651272151434,-0.1326726787501509,0.7181583790607604,-0.3932576515497751,-0.6979273557662964,0.6298800110816956,-0.3408059179782867,0,0,0,-1,-1,35287.42123979167,unknown,2,2025-04-22T15:22:54.949+03:00,2025-04-21T17:08:51.449+03:00,8236,1.039424,0,0,6852.579,7,22,2025-04-22T15:22:29.153+03:00,767017442.1177073,0,-15.45,100.3885,1,0.55,2025-04-22T15:22:53.954+03:00,108,1.8,2025-04-22T14:20:19.516+03:00,0.02197104130929222,0
2025-04-22T15:24:02.601+03:00,1745324637.109606,40.95225259131825,29.14030486462699,76.43298,-1,-1,-1,-1,30,27.21703004273423,-9999,35305.5979515,-0.6910552978515625,0.62664794921875,-0.334442138671875,35305.5929135,-2.575591031357931,-1.116501925803904,-0.681442060311215,-0.0277713555842638,0.01352288387715816,0.0002568317577242851,0.006665587425231934,0.002944409847259521,-0.0009591281414031982,XArbitraryZVertical,0.5585393868004732,-0.1327494884107335,0.7181966565264084,-0.3931980532644286,-0.6978885531425476,0.6299136877059937,-0.3408226668834686,0,0,0,-1,-1,35287.42123979167,unknown,2,2025-04-22T15:22:54.949+03:00,2025-04-21T17:08:51.449+03:00,8236,1.039424,0,0,6852.579,7,22,2025-04-22T15:22:29.153+03:00,767017442.1177073,0,-15.45,100.3885,1,0.55,2025-04-22T15:22:53.954+03:00,108,1.8,2025-04-22T14:20:19.516+03:00,0.02197104130929222,0
2025-04-22T15:24:02.610+03:00,1745324637.109606,40.95225259131825,29.14030486462699,76.43298,-1,-1,-1,-1,30,27.21703004273423,-9999,35305.6080285,-0.6916961669921875,0.6217193603515625,-0.3390655517578125,35305.6029905,-2.575973267210804,-1.116634246484835,-0.6816305965283626,-0.03977721557021141,0.003179365070536733,-0.003060701303184032,0.00852656364440918,0.0009212493896484375,0.006235897541046143,XArbitraryZVertical,0.5585665144833146,-0.1329072220511815,0.7181961217389468,-0.393107338747871,-0.6978269815444946,0.630060076713562,-0.3406782448291779,0,0,0,-1,-1,35287.42123979167,unknown,2,2025-04-22T15:22:54.949+03:00,2025-04-21T17:08:51.449+03:00,8236,1.039424,0,0,6852.579,7,22,2025-04-22T15:22:29.153+03:00,767017442.1177073,0,-15.45,100.3885,1,0.55,2025-04-22T15:22:53.954+03:00,108,1.8,2025-04-22T14:20:19.516+03:00,0.02197104130929222,0
2025-04-22T15:24:02.620+03:00,1745324637.109606,40.95225259131825,29.14030486462699,76.43298,-1,-1,-1,-1,30,27.21703004273423,-9999,35305.6181045,-0.6915283203125,0.624114990234375,-0.3397216796875,35305.6130665,-2.576410269189608,-1.11685524300285,-0.6817952317975214,-0.03256111592054367,0.005044110585004091,-0.004844220355153084,0.005639910697937012,-0.007919371128082275,0.002602994441986084,XArbitraryZVertical,0.5586211762984908,-0.1330531084472976,0.7181863679482994,-0.3929980588928198,-0.6978089809417725,0.6301879286766052,-0.3404785096645355,0,0,0,-1,-1,35287.42123979167,unknown,2,2025-04-22T15:22:54.949+03:00,2025-04-21T17:08:51.449+03:00,8236,1.039424,0,0,6852.579,7,22,2025-04-22T15:22:29.153+03:00,767017442.1177073,0,-15.45,100.3885,1,0.55,2025-04-22T15:22:53.954+03:00,108,1.8,2025-04-22T14:20:19.516+03:00,0.02197104130929222,0
2025-04-22T15:24:02.630+03:00,1745324637.109606,40.95225259131825,29.14030486462699,76.43298,-1,-1,-1,-1,30,27.21703004273423,-9999,35305.6281815,-0.698028564453125,0.636077880859375,-0.3403472900390625,35305.6231435,-2.576651653646802,-1.116862847739168,-0.6818261404584106,-0.01106028538197279,0.01721908524632454,-0.005529418587684631,0.007578074932098389,-0.007775545120239258,0.000986933708190918,XArbitraryZVertical,0.5586086647573985,-0.1331316736679086,0.7182252706444796,-0.3929180612265198,-0.6977940201759338,0.6302119493484497,-0.3404646217823029,0,0,0,-1,-1,35287.42123979167,unknown,2,2025-04-22T15:22:54.949+03:00,2025-04-21T17:08:51.449+03:00,8236,1.039424,0,0,6852.579,7,22,2025-04-22T15:22:29.153+03:00,767017442.1177073,0,-15.45,100.3885,1,0.55,2025-04-22T15:22:53.954+03:00,108,1.8,2025-04-22T14:20:19.516+03:00,0.02197104130929222,0
2025-04-22T15:24:02.640+03:00,1745324637.109606,40.95225259131825,29.14030486462699,76.43298,-1,-1,-1,-1,30,27.21703004273423,-9999,35305.6382575,-0.6940765380859375,0.6412811279296875,-0.3422393798828125,35305.6332195,-2.576700507727209,-1.116675740353441,-0.681736505153444,0.0009993072599172592,0.01283339038491249,-0.009769969619810581,0.0009122490882873535,0.001144111156463623,0.0009438693523406982,XArbitraryZVertical,0.5585358645997435,-0.1331454766807545,0.7183055092859002,-0.3928700941776685,-0.6977810263633728,0.6301423311233521,-0.3406199514865875,0,0,0,-1,-1,35287.42123979167,unknown,2,2025-04-22T15:22:54.949+03:00,2025-04-21T17:08:51.449+03:00,8236,1.039424,0,0,6852.579,7,22,2025-04-22T15:22:29.153+03:00,767017442.1177073,0,-15.45,100.3885,1,0.55,2025-04-22T15:22:53.954+03:00,108,1.8,2025-04-22T14:20:19.516+03:00,0.02197104130929222,0
2025-04-22T15:24:02.651+03:00,1745324637.109606,40.95225259131825,29.14030486462699,76.43298,-1,-1,-1,-1,30,27.21703004273423,-9999,35305.6483345,-0.688720703125,0.6318817138671875,-0.3417816162109375,35305.64329550001,-2.576742972008691,-1.116589124940363,-0.6816668184374156,0.001742262626066804,0.007334162946790457,-0.009620599448680878,0.001319050788879395,0.01088768243789673,-0.0003344118595123291,XArbitraryZVertical,0.5585000635089382,-0.1331458213865609,0.7183525574976647,-0.3928351745357668,-0.6977911591529846,0.630088210105896,-0.3406997323036194,0,0,0,-1,-1,35287.42123979167,unknown,2,2025-04-22T15:22:54.949+03:00,2025-04-21T17:08:51.449+03:00,8236,1.039424,0,0,6852.579,7,22,2025-04-22T15:22:29.153+03:00,767017442.1177073,0,-15.45,100.3885,1,0.55,2025-04-22T15:22:53.954+03:00,108,1.8,2025-04-22T14:20:19.516+03:00,0.02197104130929222,0
2025-04-22T15:24:02.660+03:00,1745324637.109606,40.95225259131825,29.14030486462699,76.43298,-1,-1,-1,-1,30,27.21703004273423,-9999,35305.6584105,-0.6888885498046875,0.6255340576171875,-0.3408050537109375,35305.6533725,-2.57691962632197,-1.116755482587953,-0.681690977068264,-0.00531431520357728,-0.00391476321965456,-0.009215000085532665,0.007770717144012451,0.005848705768585205,-0.001830399036407471,XArbitraryZVertical,0.5585486911725072,-0.1331723543772996,0.7183358125247711,-0.392787635350026,-0.6978341341018677,0.6301069855690002,-0.3405769765377045,0,0,0,-1,-1,35287.42123979167,unknown,2,2025-04-22T15:22:54.949+03:00,2025-04-21T17:08:51.449+03:00,8236,1.039424,0,0,6852.579,7,22,2025-04-22T15:22:29.153+03:00,767017442.1177073,0,-15.45,100.3885,1,0.55,2025-04-22T15:22:53.954+03:00,108,1.8,2025-04-22T14:20:19.516+03:00,0.02197104130929222,0
2025-04-22T15:24:02.670+03:00,1745324637.109606,40.95225259131825,29.14030486462699,76.43298,-1,-1,-1,-1,30,27.21703004273423,-9999,35305.6684875,-0.6877899169921875,0.6269378662109375,-0.3406524658203125,35305.6634485,-2.57710090403429,-1.116975118327439,-0.6816628504037531,-0.00889407005161047,-0.012452257797122,-0.006490286905318499,0.009448409080505371,-0.002826929092407227,-0.0001448988914489746,XArbitraryZVertical,0.5586147661067898,-0.1331683602347476,0.7183158597873697,-0.3927315186315957,-0.6979248523712158,0.6300851702690125,-0.3404314517974854,0,0,0,-1,-1,35287.42123979167,unknown,2,2025-04-22T15:22:54.949+03:00,2025-04-21T17:08:51.449+03:00,8236,1.039424,0,0,6852.579,7,22,2025-04-22T15:22:29.153+03:00,767017442.1177073,0,-15.45,100.3885,1,0.55,2025-04-22T15:22:53.954+03:00,108,1.8,2025-04-22T14:20:19.516+03:00,0.02197104130929222,0
2025-04-22T15:24:02.680+03:00,1745324637.109606,40.95225259131825,29.14030486462699,76.43298,-1,-1,-1,-1,30,27.21703004273423,-9999,35305.67856350001,-0.6907806396484375,0.628753662109375,-0.336212158203125,35305.6735255,-2.577219045917302,-1.117138343909427,-0.6816946809852971,-0.01000700518488884,-0.01073984615504742,-0.009170758537948132,0.009623229503631592,-0.004118084907531738,-0.0008474290370941162,XArbitraryZVertical,0.5586663567487538,-0.1331823115449121,0.7182869174212932,-0.3927063343176103,-0.6979624032974243,0.6301098465919495,-0.3403087556362152,0,0,0,-1,-1,35287.42123979167,unknown,2,2025-04-22T15:22:54.949+03:00,2025-04-21T17:08:51.449+03:00,8236,1.039424,0,0,6852.579,7,22,2025-04-22T15:22:29.153+03:00,767017442.1177073,0,-15.45,100.3885,1,0.55,2025-04-22T15:22:53.954+03:00,108,1.8,2025-04-22T14:20:19.516+03:00,0.02197104130929222,0
2025-04-22T15:24:02.691+03:00,1745324637.109606,40.95225259131825,29.14030486462699,76.43298,-1,-1,-1,-1,30,27.21703004273423,-9999,35305.6886405,-0.697296142578125,0.6266632080078125,-0.33636474609375,35305.6836015,-2.577450335160084,-1.117384214893154,-0.6817460161282743,-0.01309327501803637,-0.005929045844823122,-0.009627191349864006,0.009631991386413574,-0.00127410888671875,0.002461016178131104,XArbitraryZVertical,0.5587406029151946,-0.1332196303504008,0.7182530446593808,-0.3926499227654016,-0.6980169415473938,0.6301497220993042,-0.3401229381561279,0,0,0,-1,-1,35287.42123979167,unknown,2,2025-04-22T15:22:54.949+03:00,2025-04-21T17:08:51.449+03:00,8236,1.039424,0,0,6852.579,7,22,2025-04-22T15:22:29.153+03:00,767017442.1177073,0,-15.45,100.3885,1,0.55,2025-04-22T15:22:53.954+03:00,108,1.8,2025-04-22T14:20:19.516+03:00,0.02197104130929222,0
2025-04-22T15:24:02.701+03:00,1745324637.109606,40.95225259131825,29.14030486462699,76.43298,-1,-1,-1,-1,30,27.21703004273423,-9999,35305.6987165,-0.698272705078125,0.6307373046875,-0.3399810791015625,35305.6936785,-2.577665019998929,-1.117562004600287,-0.6816805922828992,-0.01226822845637798,-0.003162820357829332,-0.01025782711803913,0.002557933330535889,-0.003466308116912842,0.004414945840835571,XArbitraryZVertical,0.5587884289462586,-0.1332179529552509,0.7182590752027208,-0.3925715781040993,-0.6981145739555359,0.6300989389419556,-0.3400169312953949,0,0,0,-1,-1,35287.42123979167,unknown,2,2025-04-22T15:22:54.949+03:00,2025-04-21T17:08:51.449+03:00,8236,1.039424,0,0,6852.579,7,22,2025-04-22T15:22:29.153+03:00,767017442.1177073,0,-15.45,100.3885,1,0.55,2025-04-22T15:22:53.954+03:00,108,1.8,2025-04-22T14:20:19.516+03:00,0.02197104130929222,0
2025-04-22T15:24:02.711+03:00,1745324637.109606,40.95225259131825,29.14030486462699,76.43298,-1,-1,-1,-1,30,27.21703004273423,-9999,35305.7087925,-0.698699951171875,0.6301422119140625,-0.3430938720703125,35305.70375450001,-2.577794399102762,-1.117611440727322,-0.6816111819693065,-0.006130307912826538,0.003322376869618893,-0.01200253143906593,-0.0004072785377502441,-0.001276254653930664,0.002049714326858521,XArbitraryZVertical,0.558795785706288,-0.1332161071128509,0.7182847455224105,-0.3925144341668051,-0.6981704831123352,0.6300449967384338,-0.3400014638900757,0,0,0,-1,-1,35287.42123979167,unknown,2,2025-04-22T15:22:54.949+03:00,2025-04-21T17:08:51.449+03:00,8236,1.039424,0,0,6852.579,7,22,2025-04-22T15:22:29.153+03:00,767017442.1177073,0,-15.45,100.3885,1,0.55,2025-04-22T15:22:53.954+03:00,108,1.8,2025-04-22T14:20:19.516+03:00,0.02197104130929222,0
2025-04-22T15:24:02.721+03:00,1745324637.109606,40.95225259131825,29.14030486462699,76.43298,-1,-1,-1,-1,30,27.21703004273423,-9999,35305.7188695,-0.696868896484375,0.628021240234375,-0.345001220703125,35305.7138315,-2.57787217780021,-1.117614056795028,-0.6815649991631338,0.001353973755612969,0.005579672288149595,-0.006833868101239204,-5.97834587097168e-05,0.001796126365661621,-0.001433700323104858,XArbitraryZVertical,0.5587903449658164,-0.1332184679989402,0.7183087548731599,-0.3924774061969566,-0.6981975436210632,0.6300091743469238,-0.3400123715400696,0,0,0,-1,-1,35287.42123979167,unknown,2,2025-04-22T15:22:54.949+03:00,2025-04-21T17:08:51.449+03:00,8236,1.039424,0,0,6852.579,7,22,2025-04-22T15:22:29.153+03:00,767017442.1177073,0,-15.45,100.3885,1,0.55,2025-04-22T15:22:53.954+03:00,108,1.8,2025-04-22T14:20:19.516+03:00,0.02197104130929222,0
2025-04-22T15:24:02.731+03:00,1745324637.109606,40.95225259131825,29.14030486462699,76.43298,-1,-1,-1,-1,30,27.21703004273423,-9999,35305.7289455,-0.6953125,0.6319122314453125,-0.3448486328125,35305.7239075,-2.577843069668337,-1.117514114574969,-0.6815852278626311,0.01032682880759239,0.008778528310358524,-0.005372791085392237,-0.0006240010261535645,-0.001912236213684082,-0.004344910383224487,XArbitraryZVertical,0.5587569117501706,-0.1332382027086435,0.7183268308631631,-0.3924852671642436,-0.6981521248817444,0.6300248503684998,-0.3400765955448151,0,0,0,-1,-1,35287.42123979167,unknown,2,2025-04-22T15:22:54.949+03:00,2025-04-21T17:08:51.449+03:00,8236,1.039424,0,0,6852.579,7,22,2025-04-22T15:22:29.153+03:00,767017442.1177073,0,-15.45,100.3885,1,0.55,2025-04-22T15:22:53.954+03:00,108,1.8,2025-04-22T14:20:19.516+03:00,0.02197104130929222,0
2025-04-22T15:24:02.741+03:00,1745324637.109606,40.95225259131825,29.14030486462699,76.43298,-1,-1,-1,-1,30,27.21703004273423,-9999,35305.73902250001,-0.6949920654296875,0.6303863525390625,-0.3428192138671875,35305.7339845,-2.577650752431593,-1.117262633716645,-0.6815719206997072,0.01352475211024284,0.008626195602118969,-0.003586342791095376,0.003280520439147949,0.0003258585929870605,-0.003997892141342163,XArbitraryZVertical,0.5586790557979608,-0.1332284054053377,0.7183620482029177,-0.3925349128366031,-0.6980740427970886,0.6300145387649536,-0.3402557969093323,0,0,0,-1,-1,35287.42123979167,unknown,2,2025-04-22T15:22:54.949+03:00,2025-04-21T17:08:51.449+03:00,8236,1.039424,0,0,6852.579,7,22,2025-04-22T15:22:29.153+03:00,767017442.1177073,0,-15.45,100.3885,1,0.55,2025-04-22T15:22:53.954+03:00,108,1.8,2025-04-22T14:20:19.516+03:00,0.02197104130929222,0
2025-04-22T15:24:02.751+03:00,1745324637.109606,40.95225259131825,29.14030486462699,76.43298,-1,-1,-1,-1,30,27.21703004273423,-9999,35305.7490985,-0.693389892578125,0.633941650390625,-0.338226318359375,35305.7440605,-2.57743810696837,-1.117015904364652,-0.6814698375244453,0.01805518940091133,0.006629223935306072,-0.006654770113527775,0.002598285675048828,0.001244485378265381,-0.003644824028015137,XArbitraryZVertical,0.5586018997421501,-0.1331756857920717,0.7184103762268796,-0.3925744444048251,-0.6980480551719666,0.6299352645874023,-0.3404563069343567,0,0,0,-1,-1,35287.42123979167,unknown,2,2025-04-22T15:22:54.949+03:00,2025-04-21T17:08:51.449+03:00,8236,1.039424,0,0,6852.579,7,22,2025-04-22T15:22:29.153+03:00,767017442.1177073,0,-15.45,100.3885,1,0.55,2025-04-22T15:22:53.954+03:00,108,1.8,2025-04-22T14:20:19.516+03:00,0.02197104130929222,0
2025-04-22T15:24:02.761+03:00,1745324637.109606,40.95225259131825,29.14030486462699,76.43298,-1,-1,-1,-1,30,27.21703004273423,-9999,35305.7591755,-0.6937255859375,0.6375885009765625,-0.338165283203125,35305.7541375,-2.577157542227065,-1.116715334305631,-0.6813191213152159,0.02403265424072742,0.01076564565300941,-0.006873149424791336,0.004168093204498291,0.001331031322479248,0.001214772462844849,XArbitraryZVertical,0.5585086451006545,-0.1330947546685592,0.7184702571617263,-0.3926250273949376,-0.6980310082435608,0.6298182010650635,-0.3407077491283417,0,0,0,-1,-1,35287.42123979167,unknown,2,2025-04-22T15:22:54.949+03:00,2025-04-21T17:08:51.449+03:00,8236,1.039424,0,0,6852.579,7,22,2025-04-22T15:22:29.153+03:00,767017442.1177073,0,-15.45,100.3885,1,0.55,2025-04-22T15:22:53.954+03:00,108,1.8,2025-04-22T14:20:19.516+03:00,0.02197104130929222,0
2025-04-22T15:24:02.771+03:00,1745324637.109606,40.95225259131825,29.14030486462699,76.43298,-1,-1,-1,-1,30,27.21703004273423,-9999,35305.7692515,-0.6975555419921875,0.629852294921875,-0.3394317626953125,35305.7642135,-2.576949572633835,-1.116446626157556,-0.6812249064364437,0.01564083434641361,0.01284031476825476,-0.006743020843714476,0.00589984655380249,0.008590996265411377,0.003122061491012573,XArbitraryZVertical,0.5584234930162401,-0.1330509979728746,0.7185236678518758,-0.3926629423941111,-0.6979926228523254,0.6297450065612793,-0.3409212827682495,0,0,0,-1,-1,35287.42123979167,unknown,2,2025-04-22T15:22:54.949+03:00,2025-04-21T17:08:51.449+03:00,8236,1.039424,0,0,6852.579,7,22,2025-04-22T15:22:29.153+03:00,767017442.1177073,0,-15.45,100.3885,1,0.55,2025-04-22T15:22:53.954+03:00,108,1.8,2025-04-22T14:20:19.516+03:00,0.02197104130929222,0
2025-04-22T15:24:02.781+03:00,1745324637.109606,40.95225259131825,29.14030486462699,76.43298,-1,-1,-1,-1,30,27.21703004273423,-9999,35305.7793285,-0.697662353515625,0.6209869384765625,-0.3389434814453125,35305.7742895,-2.576898930913615,-1.116327299364256,-0.6811335270922412,0.007626849692314863,0.01339638233184814,-0.003709414042532444,0.001531600952148438,0.004740476608276367,0.0009112656116485596,XArbitraryZVertical,0.5583815768987109,-0.1330229500481807,0.7185658348679804,-0.3926549007304627,-0.6980036497116089,0.6296740174293518,-0.3410298228263855,0,0,0,-1,-1,35287.42123979167,unknown,2,2025-04-22T15:22:54.949+03:00,2025-04-21T17:08:51.449+03:00,8236,1.039424,0,0,6852.579,7,22,2025-04-22T15:22:29.153+03:00,767017442.1177073,0,-15.45,100.3885,1,0.55,2025-04-22T15:22:53.954+03:00,108,1.8,2025-04-22T14:20:19.516+03:00,0.02197104130929222,0
2025-04-22T15:24:02.792+03:00,1745324637.109606,40.95225259131825,29.14030486462699,76.43298,-1,-1,-1,-1,30,27.21703004273423,-9999,35305.7894045,-0.696624755859375,0.6189422607421875,-0.3411865234375,35305.7843665,-2.576933401131698,-1.116259106311737,-0.6810707661228962,-0.002270055934786797,0.01119681168347597,-0.005905623082071543,0.0003842711448669434,-0.006425857543945312,0.002853065729141235,XArbitraryZVertical,0.5583531007800709,-0.1330202703543544,0.7186046931951271,-0.3926254552634565,-0.6980160474777222,0.6296252608299255,-0.3410948514938354,0,0,0,-1,-1,35287.42123979167,unknown,2,2025-04-22T15:22:54.949+03:00,2025-04-21T17:08:51.449+03:00,8236,1.039424,0,0,6852.579,7,22,2025-04-22T15:22:29.153+03:00,767017442.1177073,0,-15.45,100.3885,1,0.55,2025-04-22T15:22:53.954+03:00,108,1.8,2025-04-22T14:20:19.516+03:00,0.02197104130929222,0
2025-04-22T15:24:02.802+03:00,1745324637.109606,40.95225259131825,29.14030486462699,76.43298,-1,-1,-1,-1,30,27.21703004273423,-9999,35305.79948150001,-0.700592041015625,0.62005615234375,-0.34197998046875,35305.7944425,-2.576975607470278,-1.116136787806562,-0.6810673355130012,-0.0004074409662280232,0.0178600400686264,-0.002659495919942856,0.001290380954742432,-0.01045161485671997,0.000787883996963501,XArbitraryZVertical,0.5583062808868242,-0.1330547225620423,0.7186476463640378,-0.3926014136590761,-0.6979760527610779,0.6296225786209106,-0.3411810696125031,0,0,0,-1,-1,35287.42123979167,unknown,2,2025-04-22T15:22:54.949+03:00,2025-04-21T17:08:51.449+03:00,8236,1.039424,0,0,6852.579,7,22,2025-04-22T15:22:29.153+03:00,767017442.1177073,0,-15.45,100.3885,1,0.55,2025-04-22T15:22:53.954+03:00,108,1.8,2025-04-22T14:20:19.516+03:00,0.02197104130929222,0
2025-04-22T15:24:02.812+03:00,1745324637.109606,40.95225259131825,29.14030486462699,76.43298,-1,-1,-1,-1,30,27.21703004273423,-9999,35305.8095575,-0.699554443359375,0.620758056640625,-0.3457794189453125,35305.8045195,-2.576966351533337,-1.115914763116126,-0.6810218343177752,0.001123410649597645,0.01969342678785324,-0.002152263885363936,-0.001216232776641846,-0.009226024150848389,-0.0001279115676879883,XArbitraryZVertical,0.5582258858848467,-0.1330770790058605,0.7187173138499939,-0.3925809028742993,-0.6979261636734009,0.6295872330665588,-0.3413487076759338,0,0,0,-1,-1,35287.42123979167,unknown,2,2025-04-22T15:22:54.949+03:00,2025-04-21T17:08:51.449+03:00,8236,1.039424,0,0,6852.579,7,22,2025-04-22T15:22:29.153+03:00,767017442.1177073,0,-15.45,100.3885,1,0.55,2025-04-22T15:22:53.954+03:00,108,1.8,2025-04-22T14:20:19.516+03:00,0.02197104130929222,0
2025-04-22T15:24:02.822+03:00,1745324637.109606,40.95225259131825,29.14030486462699,76.43298,-1,-1,-1,-1,30,27.21703004273423,-9999,35305.8196345,-0.692138671875,0.6282806396484375,-0.3458404541015625,35305.8145955,-2.576898612877336,-1.115684312840653,-0.6809739968904122,0.01311376038938761,0.01269757002592087,-0.006586160510778427,-0.003144681453704834,-0.00917363166809082,-0.002700448036193848,XArbitraryZVertical,0.5581463154078845,-0.1330838758806297,0.7187781218902051,-0.3925803236839485,-0.6978744864463806,0.6295500993728638,-0.341522753238678,0,0,0,-1,-1,35287.42123979167,unknown,2,2025-04-22T15:22:54.949+03:00,2025-04-21T17:08:51.449+03:00,8236,1.039424,0,0,6852.579,7,22,2025-04-22T15:22:29.153+03:00,767017442.1177073,0,-15.45,100.3885,1,0.55,2025-04-22T15:22:53.954+03:00,108,1.8,2025-04-22T14:20:19.516+03:00,0.02197104130929222,0
2025-04-22T15:24:02.832+03:00,1745324637.109606,40.95225259131825,29.14030486462699,76.43298,-1,-1,-1,-1,30,27.21703004273423,-9999,35305.8297105,-0.689483642578125,0.6376800537109375,-0.3441162109375,35305.8246725,-2.576733324725585,-1.115420184524969,-0.6808695470070889,0.01703526638448238,0.01360251195728779,-0.007611744105815887,0.002576708793640137,-0.005140423774719238,-0.004730224609375,XArbitraryZVertical,0.5580596047199883,-0.1330469038408933,0.7188408876316468,-0.3926012648391677,-0.6978433728218079,0.6294689178466797,-0.3417359888553619,0,0,0,-1,-1,35287.42123979167,unknown,2,2025-04-22T15:22:54.949+03:00,2025-04-21T17:08:51.449+03:00,8236,1.039424,0,0,6852.579,7,22,2025-04-22T15:22:29.153+03:00,767017442.1177073,0,-15.45,100.3885,1,0.55,2025-04-22T15:22:53.954+03:00,108,1.8,2025-04-22T14:20:19.516+03:00,0.02197104130929222,0
2025-04-22T15:24:02.842+03:00,1745324637.109606,40.95225259131825,29.14030486462699,76.43298,-1,-1,-1,-1,30,27.21703004273423,-9999,35305.8397865,-0.69903564453125,0.632110595703125,-0.340576171875,35305.8347485,-2.5765999091263,-1.115147236232267,-0.6807880726061809,0.01475133839994669,0.02039863169193268,-0.007456748280674219,0.008846521377563477,0.006702601909637451,-0.002762526273727417,XArbitraryZVertical,0.5579682219017268,-0.1330300030607447,0.7189074769322922,-0.3926147292481316,-0.6977959871292114,0.6294056177139282,-0.3419489562511444,0,0,0,-1,-1,35287.42123979167,unknown,2,2025-04-22T15:22:54.949+03:00,2025-04-21T17:08:51.449+03:00,8236,1.039424,0,0,6852.579,7,22,2025-04-22T15:22:29.153+03:00,767017442.1177073,0,-15.45,100.3885,1,0.55,2025-04-22T15:22:53.954+03:00,108,1.8,2025-04-22T14:20:19.516+03:00,0.02197104130929222,0
2025-04-22T15:24:02.852+03:00,1745324637.109606,40.95225259131825,29.14030486462699,76.43298,-1,-1,-1,-1,30,27.21703004273423,-9999,35305.8498635,-0.6961669921875,0.6235198974609375,-0.337493896484375,35305.8448255,-2.576545151266975,-1.1149491488271,-0.6807908373057971,0.007169851567596197,0.01399665884673595,-0.008372874930500984,0.001224219799041748,0.005342483520507812,-0.0002293586730957031,XArbitraryZVertical,0.5579007089254264,-0.1330546949058345,0.7189515705239629,-0.3926218322475831,-0.697726845741272,0.6294077634811401,-0.3420864939689636,0,0,0,-1,-1,35287.42123979167,unknown,2,2025-04-22T15:22:54.949+03:00,2025-04-21T17:08:51.449+03:00,8236,1.039424,0,0,6852.579,7,22,2025-04-22T15:22:29.153+03:00,767017442.1177073,0,-15.45,100.3885,1,0.55,2025-04-22T15:22:53.954+03:00,108,1.8,2025-04-22T14:20:19.516+03:00,0.02197104130929222,0
2025-04-22T15:24:02.862+03:00,1745324637.109606,40.95225259131825,29.14030486462699,76.43298,-1,-1,-1,-1,30,27.21703004273423,-9999,35305.859938625,-0.69439697265625,0.624908447265625,-0.3402252197265625,35305.854900625,-2.576516450229321,-1.114800670880205,-0.6807459222772192,0.0064635812304914,0.0137585736811161,-0.005262569524347782,-0.0003728866577148438,-0.003838896751403809,0.003747165203094482,XArbitraryZVertical,0.5578480428421569,-0.1330574780404193,0.7189965868585861,-0.3926132916785448,-0.6977013945579529,0.6293728351593018,-0.3422025442123413,0,0,0,-1,-1,35287.42123979167,unknown,2,2025-04-22T15:22:54.949+03:00,2025-04-21T17:08:51.449+03:00,8236,1.039424,0,0,6852.579,7,22,2025-04-22T15:22:29.153+03:00,767017442.1177073,0,-15.45,100.3885,1,0.55,2025-04-22T15:22:53.954+03:00,108,1.8,2025-04-22T14:20:19.516+03:00,0.02197104130929222,0
2025-04-22T15:24:02.873+03:00,1745324637.109606,40.95225259131825,29.14030486462699,76.43298,-1,-1,-1,-1,30,27.21703004273423,-9999,35305.87001562501,-0.6945648193359375,0.62237548828125,-0.3419342041015625,35305.864977625,-2.576599861188078,-1.114794393135399,-0.6806546977618718,-0.008690071292221546,0.007274041883647442,-0.004971752408891916,0.00326228141784668,-0.004973411560058594,0.003105431795120239,XArbitraryZVertical,0.5578378038290266,-0.1330446962996819,0.7190334374889714,-0.3925646403801411,-0.6977508068084717,0.6293019652366638,-0.3422321975231171,0,0,0,-1,-1,35287.42123979167,unknown,2,2025-04-22T15:22:54.949+03:00,2025-04-21T17:08:51.449+03:00,8236,1.039424,0,0,6852.579,7,22,2025-04-22T15:22:29.153+03:00,767017442.1177073,0,-15.45,100.3885,1,0.55,2025-04-22T15:22:53.954+03:00,108,1.8,2025-04-22T14:20:19.516+03:00,0.02197104130929222,0
2025-04-22T15:24:02.882+03:00,1745324637.109606,40.95225259131825,29.14030486462699,76.43298,-1,-1,-1,-1,30,27.21703004273423,-9999,35305.880091625,-0.6933746337890625,0.6143798828125,-0.3369140625,35305.875053625,-2.576816653739384,-1.114871771731186,-0.6806274053908282,-0.01954305171966553,0.007413791492581367,-0.0005836950149387121,0.002037763595581055,-0.00406724214553833,-0.0001147985458374023,XArbitraryZVertical,0.5578504701408384,-0.1330788198272539,0.7190600207443593,-0.3924863911487897,-0.6977927088737488,0.6292807459831238,-0.342185765504837,0,0,0,-1,-1,35287.42123979167,unknown,2,2025-04-22T15:22:54.949+03:00,2025-04-21T17:08:51.449+03:00,8236,1.039424,0,0,6852.579,7,22,2025-04-22T15:22:29.153+03:00,767017442.1177073,0,-15.45,100.3885,1,0.55,2025-04-22T15:22:53.954+03:00,108,1.8,2025-04-22T14:20:19.516+03:00,0.02197104130929222,0
2025-04-22T15:24:02.892+03:00,1745324637.109606,40.95225259131825,29.14030486462699,76.43298,-1,-1,-1,-1,30,27.21703004273423,-9999,35305.890168625,-0.6951141357421875,0.6185455322265625,-0.3389739990234375,35305.885130625,-2.577065853505716,-1.114960129458776,-0.6806302357432672,-0.01855355501174927,0.008966813795268536,-0.003042924450710416,0.004080533981323242,-0.01272112131118774,0.002889722585678101,XArbitraryZVertical,0.5578657236423985,-0.133132138287837,0.7190837222349137,-0.3924032500797836,-0.6978213787078857,0.6292829513549805,-0.3421233296394348,0,0,0,-1,-1,35287.42123979167,unknown,2,2025-04-22T15:22:54.949+03:00,2025-04-21T17:08:51.449+03:00,8236,1.039424,0,0,6852.579,7,22,2025-04-22T15:22:29.153+03:00,767017442.1177073,0,-15.45,100.3885,1,0.55,2025-04-22T15:22:53.954+03:00,108,1.8,2025-04-22T14:20:19.516+03:00,0.02197104130929222,0
2025-04-22T15:24:02.903+03:00,1745324637.109606,40.95225259131825,29.14030486462699,76.43298,-1,-1,-1,-1,30,27.21703004273423,-9999,35305.900244625,-0.6954193115234375,0.6259765625,-0.3458404541015625,35305.895206625,-2.577219783402026,-1.114950191977591,-0.6805677031828189,-0.009415715932846069,0.01264543831348419,-0.00169456610456109,0.003380060195922852,-0.0135117769241333,0.005660563707351685,XArbitraryZVertical,0.5578502411523413,-0.1331514656751656,0.7191295368278974,-0.3923347318037432,-0.6978532671928406,0.6292343735694885,-0.3421475887298584,0,0,0,-1,-1,35287.42123979167,unknown,2,2025-04-22T15:22:54.949+03:00,2025-04-21T17:08:51.449+03:00,8236,1.039424,0,0,6852.579,7,22,2025-04-22T15:22:29.153+03:00,767017442.1177073,0,-15.45,100.3885,1,0.55,2025-04-22T15:22:53.954+03:00,108,1.8,2025-04-22T14:20:19.516+03:00,0.02197104130929222,0
2025-04-22T15:24:02.912+03:00,1745324637.109606,40.95225259131825,29.14030486462699,76.43298,-1,-1,-1,-1,30,27.21703004273423,-9999,35305.910321625,-0.6962127685546875,0.632354736328125,-0.343536376953125,35305.905283625,-2.577238880763933,-1.114783986924473,-0.6805258410470584,0.002151723718270659,0.01299058273434639,-0.003968239761888981,0.003438413143157959,-0.005193710327148438,-0.002314209938049316,XArbitraryZVertical,0.5577880942985851,-0.1331722876483054,0.7191882286965839,-0.3923084212998876,-0.6978200674057007,0.6292018294334412,-0.3422751724720001,0,0,0,-1,-1,35287.42123979167,unknown,2,2025-04-22T15:22:54.949+03:00,2025-04-21T17:08:51.449+03:00,8236,1.039424,0,0,6852.579,7,22,2025-04-22T15:22:29.153+03:00,767017442.1177073,0,-15.45,100.3885,1,0.55,2025-04-22T15:22:53.954+03:00,108,1.8,2025-04-22T14:20:19.516+03:00,0.02197104130929222,0
2025-04-22T15:24:02.922+03:00,1745324637.109606,40.95225259131825,29.14030486462699,76.43298,-1,-1,-1,-1,30,27.21703004273423,-9999,35305.920397625,-0.695068359375,0.6324615478515625,-0.345306396484375,35305.915359625,-2.577182015179171,-1.114557640276073,-0.6805816755741058,0.003677981207147241,0.01497996412217617,-0.003857985138893127,0.001513481140136719,0.001385152339935303,-0.001927673816680908,XArbitraryZVertical,0.5577119868790921,-0.1332236821229552,0.7192286322976575,-0.392324936172272,-0.6977109313011169,0.6292452216148376,-0.3424175679683685,0,0,0,-1,-1,35287.42123979167,unknown,2,2025-04-22T15:22:54.949+03:00,2025-04-21T17:08:51.449+03:00,8236,1.039424,0,0,6852.579,7,22,2025-04-22T15:22:29.153+03:00,767017442.1177073,0,-15.45,100.3885,1,0.55,2025-04-22T15:22:53.954+03:00,108,1.8,2025-04-22T14:20:19.516+03:00,0.02197104130929222,0
2025-04-22T15:24:02.932+03:00,1745324637.109606,40.95225259131825,29.14030486462699,76.43298,-1,-1,-1,-1,30,27.21703004273423,-9999,35305.93047462501,-0.6989898681640625,0.6258544921875,-0.34332275390625,35305.925435625,-2.577119315473194,-1.1143429779108,-0.6805872936844796,0.005178939085453749,0.02056301571428776,-0.000251132994890213,0.003206849098205566,0.004371464252471924,-0.001977831125259399,XArbitraryZVertical,0.5576391195693879,-0.1332506134496223,0.7192750079083535,-0.392334299781367,-0.697634220123291,0.6292495727539062,-0.3425657749176025,0,0,0,-1,-1,35287.42123979167,unknown,2,2025-04-22T15:22:54.949+03:00,2025-04-21T17:08:51.449+03:00,8236,1.039424,0,0,6852.579,7,22,2025-04-22T15:22:29.153+03:00,767017442.1177073,0,-15.45,100.3885,1,0.55,2025-04-22T15:22:53.954+03:00,108,1.8,2025-04-22T14:20:19.516+03:00,0.02197104130929222,0
2025-04-22T15:24:02.942+03:00,1745324637.109606,40.95225259131825,29.14030486462699,76.43298,-1,-1,-1,-1,30,27.21703004273423,-9999,35305.940550625,-0.6988525390625,0.6269073486328125,-0.3433837890625,35305.935512625,-2.577137757120611,-1.11421309113142,-0.6805294589487996,0.003135229228064418,0.01441963575780392,-0.004497809335589409,-0.0001314878463745117,-0.001839697360992432,-0.001123517751693726,XArbitraryZVertical,0.5575896409788107,-0.1332576039647534,0.7193266803379317,-0.392307439708048,-0.6976222991943359,0.6292046308517456,-0.3426724076271057,0,0,0,-1,-1,35287.42123979167,unknown,2,2025-04-22T15:22:54.949+03:00,2025-04-21T17:08:51.449+03:00,8236,1.039424,0,0,6852.579,7,22,2025-04-22T15:22:29.153+03:00,767017442.1177073,0,-15.45,100.3885,1,0.55,2025-04-22T15:22:53.954+03:00,108,1.8,2025-04-22T14:20:19.516+03:00,0.02197104130929222,0
2025-04-22T15:24:02.953+03:00,1745324637.109606,40.95225259131825,29.14030486462699,76.43298,-1,-1,-1,-1,30,27.21703004273423,-9999,35305.950627625,-0.6943206787109375,0.6260528564453125,-0.3436431884765625,35305.945588625,-2.577170712494561,-1.114139189951206,-0.6804580883774956,0.0008426468702964485,0.008260676637291908,-0.006940660532563925,-0.002206861972808838,-0.003371059894561768,0.0005958080291748047,XArbitraryZVertical,0.5575589400010096,-0.1332520677846082,0.7193685391007624,-0.392276433041388,-0.6976374387741089,0.6291491389274597,-0.342743843793869,0,0,0,-1,-1,35287.42123979167,unknown,2,2025-04-22T15:22:54.949+03:00,2025-04-21T17:08:51.449+03:00,8236,1.039424,0,0,6852.579,7,22,2025-04-22T15:22:29.153+03:00,767017442.1177073,0,-15.45,100.3885,1,0.55,2025-04-22T15:22:53.954+03:00,108,1.8,2025-04-22T14:20:19.516+03:00,0.02197104130929222,0
2025-04-22T15:24:02.963+03:00,1745324637.109606,40.95225259131825,29.14030486462699,76.43298,-1,-1,-1,-1,30,27.21703004273423,-9999,35305.960703625,-0.6919403076171875,0.6272430419921875,-0.340606689453125,35305.955665625,-2.577194973072545,-1.114050647115879,-0.6804044330573567,-0.002037561731413007,0.01127723976969719,-0.002899846294894814,0.002096056938171387,-0.001940786838531494,-0.002165645360946655,XArbitraryZVertical,0.5575240386271825,-0.1332542526704059,0.7194090295149616,-0.3922510898270048,-0.6976373791694641,0.6291074752807617,-0.3428204953670502,0,0,0,-1,-1,35287.42123979167,unknown,2,2025-04-22T15:22:54.949+03:00,2025-04-21T17:08:51.449+03:00,8236,1.039424,0,0,6852.579,7,22,2025-04-22T15:22:29.153+03:00,767017442.1177073,0,-15.45,100.3885,1,0.55,2025-04-22T15:22:53.954+03:00,108,1.8,2025-04-22T14:20:19.516+03:00,0.02197104130929222,0
2025-04-22T15:24:02.973+03:00,1745324637.109606,40.95225259131825,29.14030486462699,76.43298,-1,-1,-1,-1,30,27.21703004273423,-9999,35305.970780625,-0.6942596435546875,0.626922607421875,-0.3388671875,35305.965741625,-2.577245767494549,-1.113942281519593,-0.6803382475276614,0.000507820921484381,0.01810711622238159,-0.002641020342707634,0.005407452583312988,-0.002774357795715332,0.001697242259979248,XArbitraryZVertical,0.5574799052221521,-0.1332626039810177,0.7194627955030006,-0.3922123692745121,-0.6976376175880432,0.6290559768676758,-0.3429144620895386,0,0,0,-1,-1,35287.42123979167,unknown,2,2025-04-22T15:22:54.949+03:00,2025-04-21T17:08:51.449+03:00,8236,1.039424,0,0,6852.579,7,22,2025-04-22T15:22:29.153+03:00,767017442.1177073,0,-15.45,100.3885,1,0.55,2025-04-22T15:22:53.954+03:00,108,1.8,2025-04-22T14:20:19.516+03:00,0.02197104130929222,0
2025-04-22T15:24:02.983+03:00,1745324637.109606,40.95225259131825,29.14030486462699,76.43298,-1,-1,-1,-1,30,27.21703004273423,-9999,35305.980856625,-0.6959075927734375,0.6243438720703125,-0.340728759765625,35305.975818625,-2.577362728377585,-1.113891954920849,-0.680255336336212,-0.009823646396398544,0.01719231903553009,-0.003962214570492506,0.004307806491851807,-0.002130091190338135,0.003159165382385254,XArbitraryZVertical,0.5574518008628514,-0.133271192143999,0.7195167343190486,-0.3921503522910947,-0.697667121887207,0.6289915442466736,-0.3429725468158722,0,0,0,-1,-1,35287.42123979167,unknown,2,2025-04-22T15:22:54.949+03:00,2025-04-21T17:08:51.449+03:00,8236,1.039424,0,0,6852.579,7,22,2025-04-22T15:22:29.153+03:00,767017442.1177073,0,-15.45,100.3885,1,0.55,2025-04-22T15:22:53.954+03:00,108,1.8,2025-04-22T14:20:19.516+03:00,0.02197104130929222,0
2025-04-22T15:24:02.993+03:00,1745324637.109606,40.95225259131825,29.14030486462699,76.43298,-1,-1,-1,-1,30,27.21703004273423,-9999,35305.99093362501,-0.697235107421875,0.6252288818359375,-0.3469390869140625,35305.985894625,-2.577415138413535,-1.113737050605121,-0.6802270189732994,-0.001690551871433854,0.0179953295737505,-0.002086117397993803,0.001569867134094238,-0.004366397857666016,0.004495799541473389,XArbitraryZVertical,0.5573918184091813,-0.1333045871152117,0.7195760174511706,-0.3921155184990683,-0.697629988193512,0.6289695501327515,-0.3430885076522827,0,0,0,-1,-1,35287.42123979167,unknown,2,2025-04-22T15:22:54.949+03:00,2025-04-21T17:08:51.449+03:00,8236,1.039424,0,0,6852.579,7,22,2025-04-22T15:22:29.153+03:00,767017442.1177073,0,-15.45,100.3885,1,0.55,2025-04-22T15:22:53.954+03:00,108,1.8,2025-04-22T14:20:19.516+03:00,0.02197104130929222,0
2025-04-22T15:24:03.003+03:00,1745324637.109606,40.95225259131825,29.14030486462699,76.43298,-1,-1,-1,-1,30,27.21703004273423,-9999,35306.001009625,-0.701080322265625,0.62420654296875,-0.3470458984375,35305.995971625,-2.577399028451429,-1.11350507644458,-0.680251239045659,-0.001829568878747523,0.02321911975741386,0.0003485444467514753,0.001110374927520752,-0.003927469253540039,-0.002398639917373657,XArbitraryZVertical,0.5573100811170304,-0.1333554936279772,0.719632491050557,-0.3921106790080017,-0.6975366473197937,0.6289883852005005,-0.3432435691356659,0,0,0,-1,-1,35287.42123979167,unknown,2,2025-04-22T15:22:54.949+03:00,2025-04-21T17:08:51.449+03:00,8236,1.039424,0,0,6852.579,7,22,2025-04-22T15:22:29.153+03:00,767017442.1177073,0,-15.45,100.3885,1,0.55,2025-04-22T15:22:53.954+03:00,108,1.8,2025-04-22T14:20:19.516+03:00,0.02197104130929222,0
2025-04-22T15:24:03.013+03:00,1745324637.109606,40.95225259131825,29.14030486462699,76.43298,-1,-1,-1,-1,30,27.21703004273423,-9999,35306.011085625,-0.69964599609375,0.625091552734375,-0.3480682373046875,35306.006047625,-2.577377867282745,-1.113251018801795,-0.6803121704068101,-0.002163729164749384,0.01982125826179981,0.001017297385260463,-0.002551257610321045,-0.004066348075866699,-0.00371849536895752,XArbitraryZVertical,0.5572217016205008,-0.1334243156871975,0.7196866377228022,-0.3921135277061166,-0.6974150538444519,0.6290357112884521,-0.3434038460254669,0,0,0,-1,-1,35287.42123979167,unknown,2,2025-04-22T15:22:54.949+03:00,2025-04-21T17:08:51.449+03:00,8236,1.039424,0,0,6852.579,7,22,2025-04-22T15:22:29.153+03:00,767017442.1177073,0,-15.45,100.3885,1,0.55,2025-04-22T15:22:53.954+03:00,108,1.8,2025-04-22T14:20:19.516+03:00,0.02197104130929222,0
2025-04-22T15:24:03.023+03:00,1745324637.109606,40.95225259131825,29.14030486462699,76.43298,-1,-1,-1,-1,30,27.21703004273423,-9999,35306.021162625,-0.693359375,0.623687744140625,-0.34564208984375,35306.016124625,-2.577428003321758,-1.113090986518457,-0.6803184146096959,-0.00832308828830719,0.01876611448824406,0.002862868132069707,-0.004242420196533203,-0.004544198513031006,-0.003837555646896362,XArbitraryZVertical,0.5571609274686702,-0.1334721961894134,0.7197398150859777,-0.3920860684076218,-0.697356641292572,0.6290405988693237,-0.3435137569904327,0,0,0,-1,-1,35287.42123979167,unknown,2,2025-04-22T15:22:54.949+03:00,2025-04-21T17:08:51.449+03:00,8236,1.039424,0,0,6852.579,7,22,2025-04-22T15:22:29.153+03:00,767017442.1177073,0,-15.45,100.3885,1,0.55,2025-04-22T15:22:53.954+03:00,108,1.8,2025-04-22T14:20:19.516+03:00,0.02197104130929222,0
2025-04-22T15:24:03.033+03:00,1745324637.109606,40.95225259131825,29.14030486462699,76.43298,-1,-1,-1,-1,30,27.21703004273423,-9999,35306.031238625,-0.6929779052734375,0.6241302490234375,-0.34423828125,35306.02620062501,-2.577503884566629,-1.112936499580606,-0.6803530274485363,-0.005647676531225443,0.02488579228520393,0.004783806391060352,0.001056015491485596,-0.004250764846801758,-0.003419011831283569,XArbitraryZVertical,0.5571012136872804,-0.1335378191389152,0.7197904755499335,-0.3920553195064447,-0.6972838640213013,0.6290674805641174,-0.3436117768287659,0,0,0,-1,-1,35287.42123979167,unknown,2,2025-04-22T15:22:54.949+03:00,2025-04-21T17:08:51.449+03:00,8236,1.039424,0,0,6852.579,7,22,2025-04-22T15:22:29.153+03:00,767017442.1177073,0,-15.45,100.3885,1,0.55,2025-04-22T15:22:53.954+03:00,108,1.8,2025-04-22T14:20:19.516+03:00,0.02197104130929222,0
2025-04-22T15:24:03.057+03:00,1745324637.109606,40.95225259131825,29.14030486462699,76.43298,-1,-1,-1,-1,30,27.21703004273423,-9999,35306.041315625,-0.6934051513671875,0.6302337646484375,-0.343292236328125,35306.036277625,-2.577499085513821,-1.112655516053588,-0.680392966914432,0.001582539640367031,0.0280778557062149,0.00286579760722816,0.00513303279876709,-0.006662189960479736,-0.001021653413772583,XArbitraryZVertical,0.5570014701193968,-0.1336078882431455,0.7198596181775253,-0.3920462623613337,-0.69716477394104,0.6290985345840454,-0.343796581029892,0,0,0,-1,-1,35287.42123979167,unknown,2,2025-04-22T15:22:54.949+03:00,2025-04-21T17:08:51.449+03:00,8236,1.039424,0,0,6852.579,7,22,2025-04-22T15:22:29.153+03:00,767017442.1177073,0,-15.45,100.3885,1,0.55,2025-04-22T15:22:53.954+03:00,108,1.8,2025-04-22T14:20:19.516+03:00,0.02197104130929222,0
2025-04-22T15:24:03.060+03:00,1745324637.109606,40.95225259131825,29.14030486462699,76.43298,-1,-1,-1,-1,30,27.21703004273423,-9999,35306.05139162501,-0.6939697265625,0.63580322265625,-0.342010498046875,35306.046353625,-2.577468242751543,-1.11232613659252,-0.6804116471984716,0.001916366862133145,0.03305410593748093,0.002054665237665176,0.003086686134338379,-0.0009241104125976562,-3.814697265625e-06,XArbitraryZVertical,0.5568854582811505,-0.1336714779544987,0.7199415424589072,-0.3920391077100606,-0.6970410346984863,0.6291130781173706,-0.3440210521221161,0,0,0,-1,-1,35287.42123979167,unknown,2,2025-04-22T15:22:54.949+03:00,2025-04-21T17:08:51.449+03:00,8236,1.039424,0,0,6852.579,7,22,2025-04-22T15:22:29.153+03:00,767017442.1177073,0,-15.45,100.3885,1,0.55,2025-04-22T15:22:53.954+03:00,108,1.8,2025-04-22T14:20:19.516+03:00,0.02197104130929222,0
2025-04-22T15:24:03.064+03:00,1745324637.109606,40.95225259131825,29.14030486462699,76.43298,-1,-1,-1,-1,30,27.21703004273423,-9999,35306.061468625,-0.69390869140625,0.6302490234375,-0.3433074951171875,35306.056430625,-2.577459700824453,-1.111989433228703,-0.680446883265758,-0.00350849237293005,0.03694578260183334,0.00407813536003232,0.003271341323852539,0.005548775196075439,0.001960575580596924,XArbitraryZVertical,0.5567657618451013,-0.1337495061290441,0.7200263909600175,-0.3920267076302955,-0.6969053149223328,0.6291404366493225,-0.3442459106445312,0,0,0,-1,-1,35287.42123979167,unknown,2,2025-04-22T15:22:54.949+03:00,2025-04-21T17:08:51.449+03:00,8236,1.039424,0,0,6852.579,7,22,2025-04-22T15:22:29.153+03:00,767017442.1177073,0,-15.45,100.3885,1,0.55,2025-04-22T15:22:53.954+03:00,108,1.8,2025-04-22T14:20:19.516+03:00,0.02197104130929222,0
2025-04-22T15:24:03.074+03:00,1745324637.109606,40.95225259131825,29.14030486462699,76.43298,-1,-1,-1,-1,30,27.21703004273423,-9999,35306.071544625,-0.691680908203125,0.6217498779296875,-0.3436126708984375,35306.066506625,-2.577536224914926,-1.111719284648811,-0.6804852118137281,-0.006334039382636547,0.035303745418787,0.005244100000709295,0.002164900302886963,0.00477135181427002,0.0011005699634552,XArbitraryZVertical,0.5566644028013666,-0.1338394223650658,0.7201087578568157,-0.3919887412190687,-0.6967907547950745,0.6291702389717102,-0.3444235026836395,0,0,0,-1,-1,35287.42123979167,unknown,2,2025-04-22T15:22:54.949+03:00,2025-04-21T17:08:51.449+03:00,8236,1.039424,0,0,6852.579,7,22,2025-04-22T15:22:29.153+03:00,767017442.1177073,0,-15.45,100.3885,1,0.55,2025-04-22T15:22:53.954+03:00,108,1.8,2025-04-22T14:20:19.516+03:00,0.02197104130929222,0
2025-04-22T15:24:03.084+03:00,1745324637.109606,40.95225259131825,29.14030486462699,76.43298,-1,-1,-1,-1,30,27.21703004273423,-9999,35306.081621625,-0.690093994140625,0.62249755859375,-0.3421173095703125,35306.076582625,-2.577615455411553,-1.111413531459859,-0.6805592265200019,-0.01650571636855602,0.03367415815591812,0.007970377802848816,0.003894686698913574,-0.004395663738250732,0.0009114444255828857,XArbitraryZVertical,0.5565509906233598,-0.1339516700955637,0.7201941893293451,-0.3919545049794613,-0.6966436505317688,0.6292277574539185,-0.3446158766746521,0,0,0,-1,-1,35287.42123979167,unknown,2,2025-04-22T15:22:54.949+03:00,2025-04-21T17:08:51.449+03:00,8236,1.039424,0,0,6852.579,7,22,2025-04-22T15:22:29.153+03:00,767017442.1177073,0,-15.45,100.3885,1,0.55,2025-04-22T15:22:53.954+03:00,108,1.8,2025-04-22T14:20:19.516+03:00,0.02197104130929222,0
2025-04-22T15:24:03.094+03:00,1745324637.109606,40.95225259131825,29.14030486462699,76.43298,-1,-1,-1,-1,30,27.21703004273423,-9999,35306.091697625,-0.6929931640625,0.6238861083984375,-0.3408203125,35306.08665962501,-2.577701780156895,-1.111109984132204,-0.680636004583892,-0.01071673724800348,0.03520926833152771,0.01007284410297871,0.005944013595581055,-0.007201969623565674,0.001650810241699219,XArbitraryZVertical,0.5564379675565688,-0.1340666090483934,0.7202797279615341,-0.391918363471538,-0.6964956521987915,0.6292874217033386,-0.3448058664798737,0,0,0,-1,-1,35287.42123979167,unknown,2,2025-04-22T15:22:54.949+03:00,2025-04-21T17:08:51.449+03:00,8236,1.039424,0,0,6852.579,7,22,2025-04-22T15:22:29.153+03:00,767017442.1177073,0,-15.45,100.3885,1,0.55,2025-04-22T15:22:53.954+03:00,108,1.8,2025-04-22T14:20:19.516+03:00,0.02197104130929222,0
2025-04-22T15:24:03.104+03:00,1745324637.109606,40.95225259131825,29.14030486462699,76.43298,-1,-1,-1,-1,30,27.21703004273423,-9999,35306.101774625,-0.6922760009765625,0.6309967041015625,-0.34857177734375,35306.096735625,-2.577716074225408,-1.110775441432212,-0.6806506708149704,0.001521286903880537,0.03210482373833656,0.0042575653642416,0.004294455051422119,-0.005611181259155273,0.003848075866699219,XArbitraryZVertical,0.5563169088108334,-0.1341421312653421,0.7203726122175556,-0.3918937145614587,-0.6963720321655273,0.6292988061904907,-0.3450347781181335,0,0,0,-1,-1,35287.42123979167,unknown,2,2025-04-22T15:22:54.949+03:00,2025-04-21T17:08:51.449+03:00,8236,1.039424,0,0,6852.579,7,22,2025-04-22T15:22:29.153+03:00,767017442.1177073,0,-15.45,100.3885,1,0.55,2025-04-22T15:22:53.954+03:00,108,1.8,2025-04-22T14:20:19.516+03:00,0.02197104130929222,0
2025-04-22T15:24:03.114+03:00,1745324637.109606,40.95225259131825,29.14030486462699,76.43298,-1,-1,-1,-1,30,27.21703004273423,-9999,35306.111850625,-0.69500732421875,0.64019775390625,-0.3514404296875,35306.106812625,-2.577617890648209,-1.110345448207681,-0.680590161047346,0.01085653156042099,0.03395552188158035,-9.12100076675415e-05,0.003813862800598145,-0.002466678619384766,1.39772891998291e-05,XArbitraryZVertical,0.5561669975459244,-0.1341743654743175,0.7204852500134635,-0.3918881442407247,-0.6962575316429138,0.6292517781257629,-0.3453510105609894,0,0,0,-1,-1,35287.42123979167,unknown,2,2025-04-22T15:22:54.949+03:00,2025-04-21T17:08:51.449+03:00,8236,1.039424,0,0,6852.579,7,22,2025-04-22T15:22:29.153+03:00,767017442.1177073,0,-15.45,100.3885,1,0.55,2025-04-22T15:22:53.954+03:00,108,1.8,2025-04-22T14:20:19.516+03:00,0.02197104130929222,0
2025-04-22T15:24:03.124+03:00,1745324637.109606,40.95225259131825,29.14030486462699,76.43298,-1,-1,-1,-1,30,27.21703004273423,-9999,35306.121927625,-0.691314697265625,0.63861083984375,-0.35260009765625,35306.116888625,-2.577500366590417,-1.10990585982349,-0.6804910598698894,0.008313212543725967,0.03270995989441872,-0.007103046402335167,0.00245136022567749,0.008367836475372314,-0.005313277244567871,XArbitraryZVertical,0.5560138225592864,-0.1341872451454664,0.7206048691411027,-0.3918812813725855,-0.6961615681648254,0.6291747689247131,-0.345684826374054,0,0,0,-1,-1,35287.42123979167,unknown,2,2025-04-22T15:22:54.949+03:00,2025-04-21T17:08:51.449+03:00,8236,1.039424,0,0,6852.579,7,22,2025-04-22T15:22:29.153+03:00,767017442.1177073,0,-15.45,100.3885,1,0.55,2025-04-22T15:22:53.954+03:00,108,1.8,2025-04-22T14:20:19.516+03:00,0.02197104130929222,0
2025-04-22T15:24:03.134+03:00,1745324637.109606,40.95225259131825,29.14030486462699,76.43298,-1,-1,-1,-1,30,27.21703004273423,-9999,35306.132003625,-0.6911468505859375,0.6317901611328125,-0.355621337890625,35306.126965625,-2.577643125865981,-1.109671614448618,-0.6804689584900013,-0.02113429084420204,0.03385045751929283,-0.007820302620530128,0.003069460391998291,0.01187926530838013,-0.005586504936218262,XArbitraryZVertical,0.5559192353309713,-0.1342637715803143,0.7207025153745708,-0.3918097276557189,-0.6960930824279785,0.6291576027870178,-0.3458540737628937,0,0,0,-1,-1,35287.42123979167,unknown,2,2025-04-22T15:22:54.949+03:00,2025-04-21T17:08:51.449+03:00,8236,1.039424,0,0,6852.579,7,22,2025-04-22T15:22:29.153+03:00,767017442.1177073,0,-15.45,100.3885,1,0.55,2025-04-22T15:22:53.954+03:00,108,1.8,2025-04-22T14:20:19.516+03:00,0.02197104130929222,0
2025-04-22T15:24:03.144+03:00,1745324637.109606,40.95225259131825,29.14030486462699,76.43298,-1,-1,-1,-1,30,27.21703004273423,-9999,35306.142080625,-0.6903228759765625,0.623748779296875,-0.3555908203125,35306.137041625,-2.57821710944521,-1.109712011157733,-0.6806334369619215,-0.06377123296260834,0.03413541615009308,-0.01407367177307606,0.004287779331207275,0.005693733692169189,-0.009383827447891235,XArbitraryZVertical,0.5558996569924617,-0.1344826979766466,0.7207699982904711,-0.3916383538634028,-0.696014404296875,0.629285454750061,-0.3457799553871155,0,0,0,-1,-1,35287.42123979167,unknown,2,2025-04-22T15:22:54.949+03:00,2025-04-21T17:08:51.449+03:00,8236,1.039424,0,0,6852.579,7,22,2025-04-22T15:22:29.153+03:00,767017442.1177073,0,-15.45,100.3885,1,0.55,2025-04-22T15:22:53.954+03:00,108,1.8,2025-04-22T14:20:19.516+03:00,0.02197104130929222,0
2025-04-22T15:24:03.154+03:00,1745324637.109606,40.95225259131825,29.14030486462699,76.43298,-1,-1,-1,-1,30,27.21703004273423,-9999,35306.152156625,-0.69049072265625,0.6172637939453125,-0.3590850830078125,35306.14711862501,-2.579716765122935,-1.110253057173527,-0.6810830652349434,-0.1931175142526627,0.04981344565749168,-0.02130708284676075,0.005731821060180664,-0.00251394510269165,-0.009367465972900391,XArbitraryZVertical,0.5560056385614716,-0.1349777082628112,0.7208207361777887,-0.3912238696777735,-0.6959477663040161,0.6296347975730896,-0.3452774882316589,0,0,0,-1,-1,35287.42123979167,unknown,2,2025-04-22T15:22:54.949+03:00,2025-04-21T17:08:51.449+03:00,8236,1.039424,0,0,6852.579,7,22,2025-04-22T15:22:29.153+03:00,767017442.1177073,0,-15.45,100.3885,1,0.55,2025-04-22T15:22:53.954+03:00,108,1.8,2025-04-22T14:20:19.516+03:00,0.02197104130929222,0
2025-04-22T15:24:03.164+03:00,1745324637.109606,40.95225259131825,29.14030486462699,76.43298,-1,-1,-1,-1,30,27.21703004273423,-9999,35306.162233625,-0.68743896484375,0.6129608154296875,-0.3485565185546875,35306.157194625,-2.582445272767808,-1.111631219559388,-0.6819067153794629,-0.2498527020215988,0.01975674368441105,-0.01783298887312412,0.00566565990447998,-0.01143914461135864,-0.01453936100006104,XArbitraryZVertical,0.556339090531752,-0.1358041061959017,0.7208018115221516,-0.3904981744513559,-0.6959579586982727,0.6302744746208191,-0.3440881073474884,0,0,0,-1,-1,35287.42123979167,unknown,2,2025-04-22T15:22:54.949+03:00,2025-04-21T17:08:51.449+03:00,8236,1.039424,0,0,6852.579,7,22,2025-04-22T15:22:29.153+03:00,767017442.1177073,0,-15.45,100.3885,1,0.55,2025-04-22T15:22:53.954+03:00,108,1.8,2025-04-22T14:20:19.516+03:00,0.02197104130929222,0
2025-04-22T15:24:03.175+03:00,1745324637.109606,40.95225259131825,29.14030486462699,76.43298,-1,-1,-1,-1,30,27.21703004273423,-9999,35306.172309625,-0.6819305419921875,0.5949859619140625,-0.343231201171875,35306.167271625,-2.585632184561081,-1.113555028374418,-0.6829314221568186,-0.2674103081226349,-0.002666739746928215,-0.01575515791773796,0.007638454437255859,-0.0148283839225769,-0.01089996099472046,XArbitraryZVertical,0.5568410342335954,-0.1367348931756095,0.720677833040608,-0.3896858109032723,-0.6960386633872986,0.6310697197914124,-0.3424632549285889,0,0,0,-1,-1,35287.42123979167,unknown,2,2025-04-22T15:22:54.949+03:00,2025-04-21T17:08:51.449+03:00,8236,1.039424,0,0,6852.579,7,22,2025-04-22T15:22:29.153+03:00,767017442.1177073,0,-15.45,100.3885,1,0.55,2025-04-22T15:22:53.954+03:00,108,1.8,2025-04-22T14:20:19.516+03:00,0.02197104130929222,0
2025-04-22T15:24:03.185+03:00,1745324637.109606,40.95225259131825,29.14030486462699,76.43298,-1,-1,-1,-1,30,27.21703004273423,-9999,35306.182385625,-0.6880340576171875,0.604644775390625,-0.344146728515625,35306.177347625,-2.588491677303503,-1.11543955865661,-0.6838091846701175,-0.2025871127843857,-0.01744541898369789,-0.01381051819771528,0.01268297433853149,-0.03087460994720459,-0.004323065280914307,XArbitraryZVertical,0.5573452348668322,-0.1375233807934239,0.7205296485921957,-0.3889609164005671,-0.6961851119995117,0.6317503452301025,-0.3409072160720825,0,0,0,-1,-1,35287.42123979167,unknown,2,2025-04-22T15:22:54.949+03:00,2025-04-21T17:08:51.449+03:00,8236,1.039424,0,0,6852.579,7,22,2025-04-22T15:22:29.153+03:00,767017442.1177073,0,-15.45,100.3885,1,0.55,2025-04-22T15:22:53.954+03:00,108,1.8,2025-04-22T14:20:19.516+03:00,0.02197104130929222,0
2025-04-22T15:24:03.195+03:00,1745324637.109606,40.95225259131825,29.14030486462699,76.43298,-1,-1,-1,-1,30,27.21703004273423,-9999,35306.192462625,-0.6859588623046875,0.63629150390625,-0.3515777587890625,35306.187424625,-2.590409652628984,-1.116949186091599,-0.6843537316714199,-0.1206799894571304,-0.05433686077594757,-0.01831578649580479,0.01194143295288086,-0.03555393218994141,-0.002397269010543823,XArbitraryZVertical,0.5577697292579389,-0.1379872197636877,0.7203699016244898,-0.3884835392998265,-0.6963894963264465,0.6321724057197571,-0.3397049009799957,0,0,0,-1,-1,35287.42123979167,unknown,2,2025-04-22T15:22:54.949+03:00,2025-04-21T17:08:51.449+03:00,8236,1.039424,0,0,6852.579,7,22,2025-04-22T15:22:29.153+03:00,767017442.1177073,0,-15.45,100.3885,1,0.55,2025-04-22T15:22:53.954+03:00,108,1.8,2025-04-22T14:20:19.516+03:00,0.02197104130929222,0
2025-04-22T15:24:03.205+03:00,1745324637.109606,40.95225259131825,29.14030486462699,76.43298,-1,-1,-1,-1,30,27.21703004273423,-9999,35306.202538625,-0.675567626953125,0.6423797607421875,-0.353668212890625,35306.197500625,-2.591405436282705,-1.118176567908039,-0.6845793319178017,-0.05586104467511177,-0.08627854287624359,-0.02295288257300854,0.007957100868225098,-0.006798028945922852,-0.01103565096855164,XArbitraryZVertical,0.5581482068300063,-0.1381188559639907,0.7201746097900367,-0.3882551179692201,-0.6966776251792908,0.6323471665382385,-0.3387875258922577,0,0,0,-1,-1,35287.42123979167,unknown,2,2025-04-22T15:22:54.949+03:00,2025-04-21T17:08:51.449+03:00,8236,1.039424,0,0,6852.579,7,22,2025-04-22T15:22:29.153+03:00,767017442.1177073,0,-15.45,100.3885,1,0.55,2025-04-22T15:22:53.954+03:00,108,1.8,2025-04-22T14:20:19.516+03:00,0.02197104130929222,0
2025-04-22T15:24:03.215+03:00,1745324637.109606,40.95225259131825,29.14030486462699,76.43298,-1,-1,-1,-1,30,27.21703004273423,-9999,35306.212615625,-0.6740264892578125,0.6322174072265625,-0.3613128662109375,35306.207577625,-2.592150511170271,-1.119546588376688,-0.6846067359784512,-0.07858146727085114,-0.114032082259655,-0.04117526113986969,0.01868951320648193,0.01205593347549438,-0.01508015394210815,XArbitraryZVertical,0.5585905987933778,-0.1380721051963034,0.7199312905879055,-0.3880870485576642,-0.6971257328987122,0.6323683857917786,-0.3378252685070038,0,0,0,-1,-1,35287.42123979167,unknown,2,2025-04-22T15:22:54.949+03:00,2025-04-21T17:08:51.449+03:00,8236,1.039424,0,0,6852.579,7,22,2025-04-22T15:22:29.153+03:00,767017442.1177073,0,-15.45,100.3885,1,0.55,2025-04-22T15:22:53.954+03:00,108,1.8,2025-04-22T14:20:19.516+03:00,0.02197104130929222,0
2025-04-22T15:24:03.225+03:00,1745324637.109606,40.95225259131825,29.14030486462699,76.43298,-1,-1,-1,-1,30,27.21703004273423,-9999,35306.222691625,-0.6708984375,0.620330810546875,-0.3681793212890625,35306.217653625,-2.5937923924786,-1.121708291084679,-0.6847239438840157,-0.2005044519901276,-0.1422525197267532,-0.05550200492143631,0.02344071865081787,0.003481268882751465,-0.02180811762809753,XArbitraryZVertical,0.5592577866907645,-0.1381595526278163,0.7196216242978858,-0.387669167303819,-0.6977875828742981,0.6324592232704163,-0.3362853229045868,0,0,0,-1,-1,35287.42123979167,unknown,2,2025-04-22T15:22:54.949+03:00,2025-04-21T17:08:51.449+03:00,8236,1.039424,0,0,6852.579,7,22,2025-04-22T15:22:29.153+03:00,767017442.1177073,0,-15.45,100.3885,1,0.55,2025-04-22T15:22:53.954+03:00,108,1.8,2025-04-22T14:20:19.516+03:00,0.02197104130929222,0
2025-04-22T15:24:03.235+03:00,1745324637.109606,40.95225259131825,29.14030486462699,76.43298,-1,-1,-1,-1,30,27.21703004273423,-9999,35306.232768625,-0.6707763671875,0.600128173828125,-0.371490478515625,35306.227730625,-2.597732828316391,-1.125452478332151,-0.6855309013680342,-0.4522346258163452,-0.1427797675132751,-0.06546991318464279,0.0262024998664856,-0.00721442699432373,-0.03137218952178955,XArbitraryZVertical,0.5603488337710465,-0.138866854192752,0.7191713877394851,-0.3866751386535474,-0.6985809803009033,0.6330840587615967,-0.3334503769874573,0,0,0,-1,-1,35287.42123979167,unknown,2,2025-04-22T15:22:54.949+03:00,2025-04-21T17:08:51.449+03:00,8236,1.039424,0,0,6852.579,7,22,2025-04-22T15:22:29.153+03:00,767017442.1177073,0,-15.45,100.3885,1,0.55,2025-04-22T15:22:53.954+03:00,108,1.8,2025-04-22T14:20:19.516+03:00,0.02197104130929222,0
2025-04-22T15:24:03.246+03:00,1745324637.109606,40.95225259131825,29.14030486462699,76.43298,-1,-1,-1,-1,30,27.21703004273423,-9999,35306.24284462501,-0.674285888671875,0.565704345703125,-0.380523681640625,35306.237806625,-2.604820865684536,-1.131167341228996,-0.6872351588154937,-0.7184444665908813,-0.1441044211387634,-0.09011001139879227,0.03026258945465088,-0.0244477391242981,-0.04254350066184998,XArbitraryZVertical,0.5619412689150098,-0.1404476873329409,0.7185870173629658,-0.384875282965173,-0.6994976997375488,0.6344023942947388,-0.3289929032325745,0,0,0,-1,-1,35287.42123979167,unknown,2,2025-04-22T15:22:54.949+03:00,2025-04-21T17:08:51.449+03:00,8236,1.039424,0,0,6852.579,7,22,2025-04-22T15:22:29.153+03:00,767017442.1177073,0,-15.45,100.3885,1,0.55,2025-04-22T15:22:53.954+03:00,108,1.8,2025-04-22T14:20:19.516+03:00,0.02197104130929222,0
2025-04-22T15:24:03.255+03:00,1745324637.109606,40.95225259131825,29.14030486462699,76.43298,-1,-1,-1,-1,30,27.21703004273423,-9999,35306.252921625,-0.6663818359375,0.5418701171875,-0.4040069580078125,35306.247882625,-2.614384127202022,-1.138307254466915,-0.689237346993855,-0.7949718832969666,-0.1253087669610977,-0.138028085231781,0.02712094783782959,-0.05733561515808105,-0.05197018384933472,XArbitraryZVertical,0.5638626665175938,-0.1425842648148701,0.7180039552610223,-0.3823596573102656,-0.700674295425415,0.6359487771987915,-0.3234572410583496,0,0,0,-1,-1,35287.42123979167,unknown,2,2025-04-22T15:22:54.949+03:00,2025-04-21T17:08:51.449+03:00,8236,1.039424,0,0,6852.579,7,22,2025-04-22T15:22:29.153+03:00,767017442.1177073,0,-15.45,100.3885,1,0.55,2025-04-22T15:22:53.954+03:00,108,1.8,2025-04-22T14:20:19.516+03:00,0.02197104130929222,0
2025-04-22T15:24:03.265+03:00,1745324637.109606,40.95225259131825,29.14030486462699,76.43298,-1,-1,-1,-1,30,27.21703004273423,-9999,35306.262997625,-0.649932861328125,0.5487518310546875,-0.4347076416015625,35306.257959625,-2.624612414064024,-1.146537723931254,-0.6918663997076698,-0.9102923274040222,-0.282139390707016,0.01002104580402374,0.03142231702804565,-0.08974260091781616,-0.0762290358543396,XArbitraryZVertical,0.5661164326389112,-0.1449728216262611,0.7170936601544593,-0.3798311784388547,-0.7017866373062134,0.6379755139350891,-0.3169901371002197,0,0,0,-1,-1,35287.42123979167,unknown,2,2025-04-22T15:22:54.949+03:00,2025-04-21T17:08:51.449+03:00,8236,1.039424,0,0,6852.579,7,22,2025-04-22T15:22:29.153+03:00,767017442.1177073,0,-15.45,100.3885,1,0.55,2025-04-22T15:22:53.954+03:00,108,1.8,2025-04-22T14:20:19.516+03:00,0.02197104130929222,0
2025-04-22T15:24:03.275+03:00,1745324637.109606,40.95225259131825,29.14030486462699,76.43298,-1,-1,-1,-1,30,27.21703004273423,-9999,35306.273074625,-0.64501953125,0.5619354248046875,-0.436126708984375,35306.26803562501,-2.635472792709974,-1.156254491833215,-0.6958850855449272,-0.9384238123893738,-0.3064310848712921,0.02532107196748257,0.04548358917236328,-0.09930181503295898,-0.1169655919075012,XArbitraryZVertical,0.5688428224905709,-0.1478422433512639,0.7155780925014944,-0.3775029093123569,-0.7024811506271362,0.6410650014877319,-0.3091210424900055,0,0,0,-1,-1,35287.42123979167,unknown,2,2025-04-22T15:22:54.949+03:00,2025-04-21T17:08:51.449+03:00,8236,1.039424,0,0,6852.579,7,22,2025-04-22T15:22:29.153+03:00,767017442.1177073,0,-15.45,100.3885,1,0.55,2025-04-22T15:22:53.954+03:00,108,1.8,2025-04-22T14:20:19.516+03:00,0.02197104130929222,0
2025-04-22T15:24:03.285+03:00,1745324637.109606,40.95225259131825,29.14030486462699,76.43298,-1,-1,-1,-1,30,27.21703004273423,-9999,35306.283150625,-0.665313720703125,0.5609588623046875,-0.477996826171875,35306.278112625,-2.646138953576337,-1.166482897432898,-0.6999731750500259,-0.8730748891830444,-0.3976542055606842,0.06593720614910126,0.06140619516372681,-0.08212453126907349,-0.1329671144485474,XArbitraryZVertical,0.5717286668895524,-0.1506095075532209,0.7138416873593769,-0.3753305588812601,-0.703190803527832,0.6441971659660339,-0.3008862137794495,0,0,0,-1,-1,35287.42123979167,unknown,2,2025-04-22T15:22:54.949+03:00,2025-04-21T17:08:51.449+03:00,8236,1.039424,0,0,6852.579,7,22,2025-04-22T15:22:29.153+03:00,767017442.1177073,0,-15.45,100.3885,1,0.55,2025-04-22T15:22:53.954+03:00,108,1.8,2025-04-22T14:20:19.516+03:00,0.02197104130929222,0
2025-04-22T15:24:03.295+03:00,1745324637.109606,40.95225259131825,29.14030486462699,76.43298,-1,-1,-1,-1,30,27.21703004273423,-9999,35306.293227625,-0.6385040283203125,0.6057891845703125,-0.4943389892578125,35306.288188625,-2.656107998320922,-1.177846410811634,-0.7040135398348446,-0.8360019326210022,-0.5744296312332153,0.08217430114746094,0.0427316427230835,-0.09108418226242065,-0.1680838465690613,XArbitraryZVertical,0.5750327067384302,-0.1529665845360718,0.7116340946999872,-0.3735176591288659,-0.7041543126106262,0.6472822427749634,-0.2918772101402283,0,0,0,-1,-1,35287.42123979167,unknown,2,2025-04-22T15:22:54.949+03:00,2025-04-21T17:08:51.449+03:00,8236,1.039424,0,0,6852.579,7,22,2025-04-22T15:22:29.153+03:00,767017442.1177073,0,-15.45,100.3885,1,0.55,2025-04-22T15:22:53.954+03:00,108,1.8,2025-04-22T14:20:19.516+03:00,0.02197104130929222,0
2025-04-22T15:24:03.305+03:00,1745324637.109606,40.95225259131825,29.14030486462699,76.43298,-1,-1,-1,-1,30,27.21703004273423,-9999,35306.30330362501,-0.6262969970703125,0.6256561279296875,-0.4911346435546875,35306.298265625,-2.666185663019206,-1.191040534520485,-0.7082010103219215,-0.9066193699836731,-0.7364760637283325,0.1181991472840309,0.05496883392333984,-0.06251692771911621,-0.2121594250202179,XArbitraryZVertical,0.5789374679825287,-0.1550946250638455,0.7088612407254665,-0.3718772051325414,-0.7054203748703003,0.6504684090614319,-0.2815541326999664,0,0,0,-1,-1,35287.42123979167,unknown,2,2025-04-22T15:22:54.949+03:00,2025-04-21T17:08:51.449+03:00,8236,1.039424,0,0,6852.579,7,22,2025-04-22T15:22:29.153+03:00,767017442.1177073,0,-15.45,100.3885,1,0.55,2025-04-22T15:22:53.954+03:00,108,1.8,2025-04-22T14:20:19.516+03:00,0.02197104130929222,0
2025-04-22T15:24:03.315+03:00,1745324637.109606,40.95225259131825,29.14030486462699,76.43298,-1,-1,-1,-1,30,27.21703004273423,-9999,35306.313380625,-0.630645751953125,0.6180267333984375,-0.48992919921875,35306.308341625,-2.677943441059022,-1.206953522371716,-0.7131489175726288,-1.117685079574585,-0.8904390931129456,0.1511651873588562,0.07978075742721558,-0.03170585632324219,-0.2224628031253815,XArbitraryZVertical,0.5836180473139253,-0.157535665301929,0.7054216668637548,-0.3700711562980458,-0.706794798374176,0.6542185544967651,-0.2691449820995331,0,0,0,-1,-1,35287.42123979167,unknown,2,2025-04-22T15:22:54.949+03:00,2025-04-21T17:08:51.449+03:00,8236,1.039424,0,0,6852.579,7,22,2025-04-22T15:22:29.153+03:00,767017442.1177073,0,-15.45,100.3885,1,0.55,2025-04-22T15:22:53.954+03:00,108,1.8,2025-04-22T14:20:19.516+03:00,0.02197104130929222,0
2025-04-22T15:24:03.325+03:00,1745324643.297376,40.95224128656097,29.14028767538967,76.203,-1,-1,-1,-1,30,20.9253452552625,-9999,35306.323456625,-0.6433563232421875,0.607940673828125,-0.4642486572265625,35306.318418625,-2.692928855276193,-1.226290372803459,-0.7190636829080559,-1.373278498649597,-1.003313183784485,0.1846517771482468,0.08002328872680664,-0.0369306206703186,-0.2375060617923737,XArbitraryZVertical,0.5891633657159031,-0.1607109210574888,0.7013297531772158,-0.3676889794053437,-0.7082123160362244,0.6586804389953613,-0.2541170418262482,0,0,0,-1,-1,35287.42123979167,unknown,2,2025-04-22T15:22:54.949+03:00,2025-04-21T17:08:51.449+03:00,8236,1.039424,0,0,6852.579,7,22,2025-04-22T15:22:29.153+03:00,767017442.1177073,0,-15.45,100.3885,1,0.55,2025-04-22T15:22:53.954+03:00,108,1.8,2025-04-22T14:20:19.516+03:00,0.02197104130929222,0
2025-04-22T15:24:03.336+03:00,1745324643.297376,40.95224128656097,29.14028767538967,76.203,-1,-1,-1,-1,30,20.9253452552625,-9999,35306.333533625,-0.6449737548828125,0.60089111328125,-0.4366912841796875,35306.328494625,-2.710220515876919,-1.248599540951737,-0.7258943203212679,-1.484487533569336,-1.151583194732666,0.2527783811092377,0.07094699144363403,-0.05259859561920166,-0.2409581542015076,XArbitraryZVertical,0.5954389249604005,-0.1644380003385602,0.6965262282188233,-0.3650532381238342,-0.709420382976532,0.6638045907020569,-0.2368252575397491,0,0,0,-1,-1,35287.42123979167,unknown,2,2025-04-22T15:22:54.949+03:00,2025-04-21T17:08:51.449+03:00,8236,1.039424,0,0,6852.579,7,22,2025-04-22T15:22:29.153+03:00,767017442.1177073,0,-15.45,100.3885,1,0.55,2025-04-22T15:22:53.954+03:00,108,1.8,2025-04-22T14:20:19.516+03:00,0.02197104130929222,0
2025-04-22T15:24:03.346+03:00,1745324643.297376,40.95224128656097,29.14028767538967,76.203,-1,-1,-1,-1,30,20.9253452552625,-9999,35306.343609625,-0.6488494873046875,0.6056976318359375,-0.4257354736328125,35306.338571625,-2.728244556306958,-1.272833284347646,-0.733128475026803,-1.481031775474548,-1.270660638809204,0.2993173897266388,0.06431490182876587,-0.06585001945495605,-0.227132186293602,XArbitraryZVertical,0.6021754360930651,-0.1682550837688378,0.6911120924624713,-0.3625449952572454,-0.7103413939476013,0.6691976189613342,-0.2181499451398849,0,0,0,-1,-1,35287.42123979167,unknown,2,2025-04-22T15:22:54.949+03:00,2025-04-21T17:08:51.449+03:00,8236,1.039424,0,0,6852.579,7,22,2025-04-22T15:22:29.153+03:00,767017442.1177073,0,-15.45,100.3885,1,0.55,2025-04-22T15:22:53.954+03:00,108,1.8,2025-04-22T14:20:19.516+03:00,0.02197104130929222,0
2025-04-22T15:24:03.356+03:00,1745324643.297376,40.95224128656097,29.14028767538967,76.203,-1,-1,-1,-1,30,20.9253452552625,-9999,35306.353685625,-0.6691131591796875,0.6388092041015625,-0.4179840087890625,35306.348647625,-2.746030564038894,-1.29816018813561,-0.7402453043028909,-1.406765460968018,-1.384185433387756,0.3198036551475525,0.06599855422973633,-0.0736849308013916,-0.229617565870285,XArbitraryZVertical,0.6091595874745778,-0.1718219198349458,0.6852518139160141,-0.3603214046084676,-0.7110331654548645,0.6744690537452698,-0.198803648352623,0,0,0,-1,-1,35287.42123979167,unknown,2,2025-04-22T15:22:54.949+03:00,2025-04-21T17:08:51.449+03:00,8236,1.039424,0,0,6852.579,7,22,2025-04-22T15:22:29.153+03:00,767017442.1177073,0,-15.45,100.3885,1,0.55,2025-04-22T15:22:53.954+03:00,108,1.8,2025-04-22T14:20:19.516+03:00,0.02197104130929222,0
2025-04-22T15:24:03.366+03:00,1745324643.297376,40.95224128656097,29.14028767538967,76.203,-1,-1,-1,-1,30,20.9253452552625,-9999,35306.36376262501,-0.686431884765625,0.6794281005859375,-0.407135009765625,35306.358724625,-2.762346218825543,-1.323623042923677,-0.7467666995868131,-1.226293206214905,-1.47922956943512,0.3218819797039032,0.05115360021591187,-0.05506300926208496,-0.2407777309417725,XArbitraryZVertical,0.6161863901290283,-0.1747460841814127,0.6791060571809914,-0.3585986235890908,-0.7115843892097473,0.6792694330215454,-0.179556280374527,0,0,0,-1,-1,35287.42123979167,unknown,2,2025-04-22T15:22:54.949+03:00,2025-04-21T17:08:51.449+03:00,8236,1.039424,0,0,6852.579,7,22,2025-04-22T15:22:29.153+03:00,767017442.1177073,0,-15.45,100.3885,1,0.55,2025-04-22T15:22:53.954+03:00,108,1.8,2025-04-22T14:20:19.516+03:00,0.02197104130929222,0
2025-04-22T15:24:03.376+03:00,1745324643.297376,40.95224128656097,29.14028767538967,76.203,-1,-1,-1,-1,30,20.9253452552625,-9999,35306.373838625,-0.683563232421875,0.7132720947265625,-0.38214111328125,35306.368800625,-2.776811929459598,-1.34886307448627,-0.7526289572855374,-1.101686239242554,-1.570240259170532,0.3211405575275421,0.03023004531860352,-0.0191618800163269,-0.2508531808853149,XArbitraryZVertical,0.6231873950657286,-0.1769373265673838,0.6727345367921433,-0.3574336417224447,-0.7119926810264587,0.6835599541664124,-0.1606613099575043,0,0,0,-1,-1,35287.42123979167,unknown,2,2025-04-22T15:22:54.949+03:00,2025-04-21T17:08:51.449+03:00,8236,1.039424,0,0,6852.579,7,22,2025-04-22T15:22:29.153+03:00,767017442.1177073,0,-15.45,100.3885,1,0.55,2025-04-22T15:22:53.954+03:00,108,1.8,2025-04-22T14:20:19.516+03:00,0.02197104130929222,0
2025-04-22T15:24:03.386+03:00,1745324643.297376,40.95224128656097,29.14028767538967,76.203,-1,-1,-1,-1,30,20.9253452552625,-9999,35306.383915625,-0.66461181640625,0.7269439697265625,-0.3580474853515625,35306.378877625,-2.789822112201127,-1.373948913241002,-0.7580483146500842,-0.9420226812362671,-1.636767506599426,0.3487732410430908,0.0245634913444519,0.01398664712905884,-0.2509805560112,XArbitraryZVertical,0.630157953085091,-0.178573306548761,0.6661502685946884,-0.3567297434438021,-0.7121549844741821,0.6875054836273193,-0.1420250535011292,0,0,0,-1,-1,35287.42123979167,unknown,2,2025-04-22T15:22:54.949+03:00,2025-04-21T17:08:51.449+03:00,8236,1.039424,0,0,6852.579,7,22,2025-04-22T15:22:29.153+03:00,767017442.1177073,0,-15.45,100.3885,1,0.55,2025-04-22T15:22:53.954+03:00,108,1.8,2025-04-22T14:20:19.516+03:00,0.02197104130929222,0
2025-04-22T15:24:03.396+03:00,1745324643.297376,40.95224128656097,29.14028767538967,76.203,-1,-1,-1,-1,30,20.9253452552625,-9999,35306.393991625,-0.64495849609375,0.69464111328125,-0.311279296875,35306.388953625,-2.800670923112818,-1.398300243460244,-0.7632656373466752,-0.8168574571609497,-1.707140445709229,0.3766875863075256,0.03952604532241821,0.03544539213180542,-0.2424451112747192,XArbitraryZVertical,0.6369677548434317,-0.1796089352321665,0.6593707515111522,-0.3567111979619476,-0.7118587493896484,0.6912848353385925,-0.1240254193544388,0,0,0,-1,-1,35287.42123979167,unknown,2,2025-04-22T15:22:54.949+03:00,2025-04-21T17:08:51.449+03:00,8236,1.039424,0,0,6852.579,7,22,2025-04-22T15:22:29.153+03:00,767017442.1177073,0,-15.45,100.3885,1,0.55,2025-04-22T15:22:53.954+03:00,108,1.8,2025-04-22T14:20:19.516+03:00,0.02197104130929222,0
2025-04-22T15:24:03.406+03:00,1745324643.297376,40.95224128656097,29.14028767538967,76.203,-1,-1,-1,-1,30,20.9253452552625,-9999,35306.404068625,-0.6426849365234375,0.660675048828125,-0.2291259765625,35306.39903062501,-2.811161851379904,-1.422865925382902,-0.7683698002060776,-0.83133864402771,-1.723306179046631,0.3863247632980347,0.05983936786651611,0.01583611965179443,-0.2278509885072708,XArbitraryZVertical,0.6437713024452727,-0.1804660650173923,0.6524044485643531,-0.3568738209538797,-0.7111912965774536,0.6949639916419983,-0.1059810221195221,0,0,0,-1,-1,35287.42123979167,unknown,2,2025-04-22T15:22:54.949+03:00,2025-04-21T17:08:51.449+03:00,8236,1.039424,0,0,6852.579,7,22,2025-04-22T15:22:29.153+03:00,767017442.1177073,0,-15.45,100.3885,1,0.55,2025-04-22T15:22:53.954+03:00,108,1.8,2025-04-22T14:20:19.516+03:00,0.02197104130929222,0
2025-04-22T15:24:03.416+03:00,1745324643.297376,40.95224128656097,29.14028767538967,76.203,-1,-1,-1,-1,30,20.9253452552625,-9999,35306.414144625,-0.6552886962890625,0.667144775390625,-0.1519775390625,35306.409106625,-2.822105797318518,-1.447829409619505,-0.773520616593093,-0.8514785766601562,-1.718087673187256,0.4188580513000488,0.0691685676574707,-0.0291638970375061,-0.174176812171936,XArbitraryZVertical,0.6505424894241534,-0.1814292681375743,0.645306014437164,-0.3570125081155239,-0.7100529074668884,0.6986584067344666,-0.08775577694177628,0,0,0,-1,-1,35287.42123979167,unknown,2,2025-04-22T15:22:54.949+03:00,2025-04-21T17:08:51.449+03:00,8236,1.039424,0,0,6852.579,7,22,2025-04-22T15:22:29.153+03:00,767017442.1177073,0,-15.45,100.3885,1,0.55,2025-04-22T15:22:53.954+03:00,108,1.8,2025-04-22T14:20:19.516+03:00,0.02197104130929222,0
2025-04-22T15:24:03.426+03:00,1745324643.297376,40.95224128656097,29.14028767538967,76.203,-1,-1,-1,-1,30,20.9253452552625,-9999,35306.424221625,-0.6504058837890625,0.719390869140625,-0.1163177490234375,35306.419183625,-2.833385908691369,-1.473038262547002,-0.7786341082499286,-0.8288995027542114,-1.719008803367615,0.4118070602416992,0.05751925706863403,-0.04108351469039917,-0.1076589152216911,XArbitraryZVertical,0.657243025683432,-0.1824591111807173,0.6381191440870929,-0.3571330622507647,-0.708474338054657,0.7023077607154846,-0.06948055326938629,0,0,0,-1,-1,35287.42123979167,unknown,2,2025-04-22T15:22:54.949+03:00,2025-04-21T17:08:51.449+03:00,8236,1.039424,0,0,6852.579,7,22,2025-04-22T15:22:29.153+03:00,767017442.1177073,0,-15.45,100.3885,1,0.55,2025-04-22T15:22:53.954+03:00,108,1.8,2025-04-22T14:20:19.516+03:00,0.02197104130929222,0
2025-04-22T15:24:03.436+03:00,1745324643.297376,40.95224128656097,29.14028767538967,76.203,-1,-1,-1,-1,30,20.9253452552625,-9999,35306.434297625,-0.6327362060546875,0.7918243408203125,-0.102783203125,35306.429259625,-2.843295782357151,-1.497477493923089,-0.7834732243794826,-0.628731369972229,-1.745827555656433,0.4253724813461304,0.05226624011993408,-0.01163738965988159,-0.07410990446805954,XArbitraryZVertical,0.6637243160011477,-0.1830883141414342,0.6309196884132382,-0.3576155633267725,-0.7065629959106445,0.7057443261146545,-0.05189740285277367,0,0,0,-1,-1,35287.42123979167,unknown,2,2025-04-22T15:22:54.949+03:00,2025-04-21T17:08:51.449+03:00,8236,1.039424,0,0,6852.579,7,22,2025-04-22T15:22:29.153+03:00,767017442.1177073,0,-15.45,100.3885,1,0.55,2025-04-22T15:22:53.954+03:00,108,1.8,2025-04-22T14:20:19.516+03:00,0.02197104130929222,0
2025-04-22T15:24:03.447+03:00,1745324643.297376,40.95224128656097,29.14028767538967,76.203,-1,-1,-1,-1,30,20.9253452552625,-9999,35306.444374625,-0.608642578125,0.827667236328125,-0.11065673828125,35306.439335625,-2.850406266869708,-1.520214631021403,-0.7879928397450993,-0.4341195225715637,-1.773061513900757,0.3985462188720703,0.06259828805923462,0.05766236782073975,-0.07052761316299438,XArbitraryZVertical,0.6698429977011719,-0.1829784028080364,0.6237793195497147,-0.35878767605537,-0.7043676376342773,0.7089391350746155,-0.03565852344036102,0,0,0,-1,-1,35287.42123979167,unknown,2,2025-04-22T15:22:54.949+03:00,2025-04-21T17:08:51.449+03:00,8236,1.039424,0,0,6852.579,7,22,2025-04-22T15:22:29.153+03:00,767017442.1177073,0,-15.45,100.3885,1,0.55,2025-04-22T15:22:53.954+03:00,108,1.8,2025-04-22T14:20:19.516+03:00,0.02197104130929222,0
2025-04-22T15:24:03.457+03:00,1745324643.297376,40.95224128656097,29.14028767538967,76.203,-1,-1,-1,-1,30,20.9253452552625,-9999,35306.454450625,-0.63055419921875,0.82952880859375,-0.0984649658203125,35306.449412625,-2.855983267839005,-1.542178357817183,-0.7919448225069068,-0.4052384197711945,-1.790562272071838,0.3558065891265869,0.08643686771392822,0.107248842716217,-0.08616209030151367,XArbitraryZVertical,0.6758125232210351,-0.1822835221378353,0.6166686684595248,-0.3602357842461553,-0.7021747231483459,0.7117207646369934,-0.0201003011316061,0,0,0,-1,-1,35287.42123979167,unknown,2,2025-04-22T15:22:54.949+03:00,2025-04-21T17:08:51.449+03:00,8236,1.039424,0,0,6852.579,7,22,2025-04-22T15:22:29.153+03:00,767017442.1177073,0,-15.45,100.3885,1,0.55,2025-04-22T15:22:53.954+03:00,108,1.8,2025-04-22T14:20:19.516+03:00,0.02197104130929222,0
2025-04-22T15:24:03.467+03:00,1745324643.297376,40.95224128656097,29.14028767538967,76.203,-1,-1,-1,-1,30,20.9253452552625,-9999,35306.464527625,-0.6961669921875,0.7938385009765625,-0.0496063232421875,35306.45948862501,-2.862196025621679,-1.564321600071114,-0.7953518351968392,-0.4596246778964996,-1.715028643608093,0.3102588057518005,0.08460122346878052,0.1193097233772278,-0.1040950417518616,XArbitraryZVertical,0.6817370448437206,-0.1815719012251513,0.6096541941107413,-0.3613693924014216,-0.7000186443328857,0.7141099572181702,-0.004532492719590664,0,0,0,-1,-1,35287.42123979167,unknown,2,2025-04-22T15:22:54.949+03:00,2025-04-21T17:08:51.449+03:00,8236,1.039424,0,0,6852.579,7,22,2025-04-22T15:22:29.153+03:00,767017442.1177073,0,-15.45,100.3885,1,0.55,2025-04-22T15:22:53.954+03:00,108,1.8,2025-04-22T14:20:19.516+03:00,0.02197104130929222,0
2025-04-22T15:24:03.477+03:00,1745324643.297376,40.95224128656097,29.14028767538967,76.203,-1,-1,-1,-1,30,20.9253452552625,-9999,35306.474603625,-0.7620391845703125,0.721588134765625,0.041168212890625,35306.469565625,-2.869366359515488,-1.586183956288879,-0.7983317990980824,-0.5511587262153625,-1.602652072906494,0.2842593491077423,0.02931684255599976,0.09601706266403198,-0.08285188674926758,XArbitraryZVertical,0.6874419075681034,-0.1810882149508017,0.6029298200339591,-0.3620857786913532,-0.6978195309638977,0.7161928415298462,0.01073863543570042,0,0,0,-1,-1,35287.42123979167,unknown,2,2025-04-22T15:22:54.949+03:00,2025-04-21T17:08:51.449+03:00,8236,1.039424,0,0,6852.579,7,22,2025-04-22T15:22:29.153+03:00,767017442.1177073,0,-15.45,100.3885,1,0.55,2025-04-22T15:22:53.954+03:00,108,1.8,2025-04-22T14:20:19.516+03:00,0.02197104130929222,0
2025-04-22T15:24:03.487+03:00,1745324643.297376,40.95224128656097,29.14028767538967,76.203,-1,-1,-1,-1,30,20.9253452552625,-9999,35306.484680625,-0.77423095703125,0.677642822265625,0.1342315673828125,35306.479641625,-2.878787733582047,-1.608444732811066,-0.8007071939451871,-0.7423766255378723,-1.473674416542053,0.2182217538356781,-0.04610025882720947,0.03430271148681641,-0.02432799525558949,XArbitraryZVertical,0.693037676578302,-0.1811106706750257,0.5965285150420347,-0.3620100871333156,-0.6957057118415833,0.7178485989570618,0.02620459161698818,0,0,0,-1,-1,35287.42123979167,unknown,2,2025-04-22T15:22:54.949+03:00,2025-04-21T17:08:51.449+03:00,8236,1.039424,0,0,6852.579,7,22,2025-04-22T15:22:29.153+03:00,767017442.1177073,0,-15.45,100.3885,1,0.55,2025-04-22T15:22:53.954+03:00,108,1.8,2025-04-22T14:20:19.516+03:00,0.02197104130929222,0
2025-04-22T15:24:03.497+03:00,1745324643.297376,40.95224128656097,29.14028767538967,76.203,-1,-1,-1,-1,30,20.9253452552625,-9999,35306.494756625,-0.7537689208984375,0.7348785400390625,0.180206298828125,35306.489718625,-2.890259871744519,-1.631002644957891,-0.8021193913803734,-0.7935084700584412,-1.377173185348511,0.1491288691759109,-0.08186221122741699,-0.03706842660903931,0.06322729587554932,XArbitraryZVertical,0.6985517067834537,-0.1814941570631445,0.5905058402257547,-0.3610930647994894,-0.693925142288208,0.7188310623168945,0.04182923212647438,0,0,0,-1,-1,35287.42123979167,unknown,2,2025-04-22T15:22:54.949+03:00,2025-04-21T17:08:51.449+03:00,8236,1.039424,0,0,6852.579,7,22,2025-04-22T15:22:29.153+03:00,767017442.1177073,0,-15.45,100.3885,1,0.55,2025-04-22T15:22:53.954+03:00,108,1.8,2025-04-22T14:20:19.516+03:00,0.02197104130929222,0
2025-04-22T15:24:03.507+03:00,1745324643.297376,40.95224128656097,29.14028767538967,76.203,-1,-1,-1,-1,30,20.9253452552625,-9999,35306.504833625,-0.723663330078125,0.8099212646484375,0.1612091064453125,35306.499794625,-2.901216336475977,-1.652340885343917,-0.8028066369342275,-0.7037343382835388,-1.298633337020874,0.09355135262012482,-0.07081669569015503,-0.01336085796356201,0.1128631830215454,XArbitraryZVertical,0.7037560585575501,-0.1817144612518004,0.5848811151307214,-0.36002954866801,-0.6923820972442627,0.7193086743354797,0.05658547207713127,0,0,0,-1,-1,35287.42123979167,unknown,2,2025-04-22T15:22:54.949+03:00,2025-04-21T17:08:51.449+03:00,8236,1.039424,0,0,6852.579,7,22,2025-04-22T15:22:29.153+03:00,767017442.1177073,0,-15.45,100.3885,1,0.55,2025-04-22T15:22:53.954+03:00,108,1.8,2025-04-22T14:20:19.516+03:00,0.02197104130929222,0
2025-04-22T15:24:03.517+03:00,1745324643.297376,40.95224128656097,29.14028767538967,76.203,-1,-1,-1,-1,30,20.9253452552625,-9999,35306.514909625,-0.706298828125,0.85443115234375,0.116485595703125,35306.509871625,-2.910522837089961,-1.671780382799515,-0.8029096981661186,-0.5635864734649658,-1.242333173751831,0.05127600580453873,-0.043587327003479,0.06508922576904297,0.1065331622958183,XArbitraryZVertical,0.7085595263772714,-0.1815389720484135,0.5796728826722548,-0.3591186062353985,-0.6910774707794189,0.719380259513855,0.07002600282430649,0,0,0,-1,-1,35287.42123979167,unknown,2,2025-04-22T15:22:54.949+03:00,2025-04-21T17:08:51.449+03:00,8236,1.039424,0,0,6852.579,7,22,2025-04-22T15:22:29.153+03:00,767017442.1177073,0,-15.45,100.3885,1,0.55,2025-04-22T15:22:53.954+03:00,108,1.8,2025-04-22T14:20:19.516+03:00,0.02197104130929222,0
2025-04-22T15:24:03.527+03:00,1745324643.297376,40.95224128656097,29.14028767538967,76.203,-1,-1,-1,-1,30,20.9253452552625,-9999,35306.524986625,-0.6897125244140625,0.846710205078125,0.0880126953125,35306.51994762501,-2.918233214598614,-1.689711960856288,-0.8026103916739935,-0.5054744482040405,-1.211574673652649,0.0144833717495203,-0.02153164148330688,0.1236467957496643,0.04801547527313232,XArbitraryZVertical,0.7130687439746708,-0.1809664002715121,0.5747334249826347,-0.3584208734390691,-0.6899245977401733,0.7191722989082336,0.08243174105882645,0,0,0,-1,-1,35287.42123979167,unknown,2,2025-04-22T15:22:54.949+03:00,2025-04-21T17:08:51.449+03:00,8236,1.039424,0,0,6852.579,7,22,2025-04-22T15:22:29.153+03:00,767017442.1177073,0,-15.45,100.3885,1,0.55,2025-04-22T15:22:53.954+03:00,108,1.8,2025-04-22T14:20:19.516+03:00,0.02197104130929222,0
2025-04-22T15:24:03.538+03:00,1745324643.297376,40.95224128656097,29.14028767538967,76.203,-1,-1,-1,-1,30,20.9253452552625,-9999,35306.535062625,-0.6749420166015625,0.8174591064453125,0.078369140625,35306.530024625,-2.924837951631691,-1.706455951164474,-0.8021085851671073,-0.3985547721385956,-1.16455066204071,0.004374878015369177,-0.008414566516876221,0.1357905864715576,0.004642605781555176,XArbitraryZVertical,0.7173207211052802,-0.1801700653441528,0.5700119290304042,-0.3578771478419839,-0.6888052225112915,0.7188235521316528,0.0940205380320549,0,0,0,-1,-1,35287.42123979167,unknown,2,2025-04-22T15:22:54.949+03:00,2025-04-21T17:08:51.449+03:00,8236,1.039424,0,0,6852.579,7,22,2025-04-22T15:22:29.153+03:00,767017442.1177073,0,-15.45,100.3885,1,0.55,2025-04-22T15:22:53.954+03:00,108,1.8,2025-04-22T14:20:19.516+03:00,0.02197104130929222,0
2025-04-22T15:24:03.558+03:00,1745324643.297376,40.95224128656097,29.14028767538967,76.203,-1,-1,-1,-1,30,20.9253452552625,-9999,35306.545138625,-0.678466796875,0.7673492431640625,0.148834228515625,35306.540100625,-2.930197036298457,-1.721825948464372,-0.8015402267237136,-0.3881580531597137,-1.120983719825745,-0.01322435587644577,0.008269906044006348,0.1102001070976257,-0.03005743026733398,XArbitraryZVertical,0.7212677147575977,-0.1791691670394169,0.5655359971130697,-0.3575476125273609,-0.6876826882362366,0.7184283137321472,0.1046574115753174,0,0,0,-1,-1,35287.42123979167,unknown,2,2025-04-22T15:22:54.949+03:00,2025-04-21T17:08:51.449+03:00,8236,1.039424,0,0,6852.579,7,22,2025-04-22T15:22:29.153+03:00,767017442.1177073,0,-15.45,100.3885,1,0.55,2025-04-22T15:22:53.954+03:00,108,1.8,2025-04-22T14:20:19.516+03:00,0.02197104130929222,0
2025-04-22T15:24:03.561+03:00,1745324643.297376,40.95224128656097,29.14028767538967,76.203,-1,-1,-1,-1,30,20.9253452552625,-9999,35306.55521562501,-0.6853790283203125,0.7352752685546875,0.21875,35306.550177625,-2.936794061560236,-1.737491515227823,-0.8002833603182413,-0.543220043182373,-1.048112988471985,-0.08657792955636978,0.01129639148712158,0.07121902704238892,-0.0005004405975341797,XArbitraryZVertical,0.7252374466694594,-0.178364908728177,0.5612525923883304,-0.3566679772801314,-0.6868487000465393,0.7175534963607788,0.1155667901039124,0,0,0,-1,-1,35287.42123979167,unknown,2,2025-04-22T15:22:54.949+03:00,2025-04-21T17:08:51.449+03:00,8236,1.039424,0,0,6852.579,7,22,2025-04-22T15:22:29.153+03:00,767017442.1177073,0,-15.45,100.3885,1,0.55,2025-04-22T15:22:53.954+03:00,108,1.8,2025-04-22T14:20:19.516+03:00,0.02197104130929222,0
2025-04-22T15:24:03.568+03:00,1745324643.297376,40.95224128656097,29.14028767538967,76.203,-1,-1,-1,-1,30,20.9253452552625,-9999,35306.565291625,-0.6941375732421875,0.7781524658203125,0.2466888427734375,35306.560253625,-2.944963766660256,-1.753728951078295,-0.7980310767919849,-0.6481949090957642,-1.010797739028931,-0.1560153216123581,0.003470540046691895,0.02408349514007568,0.07277047634124756,XArbitraryZVertical,0.7293173507205163,-0.177749549678972,0.5571614472667503,-0.3550666565746565,-0.6864691376686096,0.7159829139709473,0.1269973963499069,0,0,0,-1,-1,35287.42123979167,unknown,2,2025-04-22T15:22:54.949+03:00,2025-04-21T17:08:51.449+03:00,8236,1.039424,0,0,6852.579,7,22,2025-04-22T15:22:29.153+03:00,767017442.1177073,0,-15.45,100.3885,1,0.55,2025-04-22T15:22:53.954+03:00,108,1.8,2025-04-22T14:20:19.516+03:00,0.02197104130929222,0
2025-04-22T15:24:03.578+03:00,1745324643.297376,40.95224128656097,29.14028767538967,76.203,-1,-1,-1,-1,30,20.9253452552625,-9999,35306.575368625,-0.7086334228515625,0.845001220703125,0.2548980712890625,35306.570330625,-2.953701328664062,-1.769889361274937,-0.7948572113143569,-0.6515575051307678,-0.9555844068527222,-0.2272959351539612,-0.003420412540435791,0.04107338190078735,0.09908689558506012,XArbitraryZVertical,0.7334117205597562,-0.1771118717072581,0.5532967507661295,-0.352989149291255,-0.6865515112876892,0.7137635946273804,0.1385227292776108,0,0,0,-1,-1,35287.42123979167,unknown,2,2025-04-22T15:22:54.949+03:00,2025-04-21T17:08:51.449+03:00,8236,1.039424,0,0,6852.579,7,22,2025-04-22T15:22:29.153+03:00,767017442.1177073,0,-15.45,100.3885,1,0.55,2025-04-22T15:22:53.954+03:00,108,1.8,2025-04-22T14:20:19.516+03:00,0.02197104130929222,0
2025-04-22T15:24:03.588+03:00,1745324643.297376,40.95224128656097,29.14028767538967,76.203,-1,-1,-1,-1,30,20.9253452552625,-9999,35306.585444625,-0.73309326171875,0.858428955078125,0.2271881103515625,35306.58040662501,-2.96218476562357,-1.785345912350293,-0.7908354879368495,-0.6764602065086365,-0.9157768487930298,-0.3069183230400085,-0.01502078771591187,0.1123925447463989,0.1069251298904419,XArbitraryZVertical,0.7374174785791077,-0.176292870125754,0.549724888506701,-0.3506262985113284,-0.6871276497840881,0.7109410762786865,0.1497274339199066,0,0,0,-1,-1,35287.42123979167,unknown,2,2025-04-22T15:22:54.949+03:00,2025-04-21T17:08:51.449+03:00,8236,1.039424,0,0,6852.579,7,22,2025-04-22T15:22:29.153+03:00,767017442.1177073,0,-15.45,100.3885,1,0.55,2025-04-22T15:22:53.954+03:00,108,1.8,2025-04-22T14:20:19.516+03:00,0.02197104130929222,0
2025-04-22T15:24:03.598+03:00,1745324643.297376,40.95224128656097,29.14028767538967,76.203,-1,-1,-1,-1,30,20.9253452552625,-9999,35306.595521625,-0.741668701171875,0.8220672607421875,0.186126708984375,35306.590483625,-2.970833062099752,-1.800547660238032,-0.7861400515431282,-0.7066836357116699,-0.8882656693458557,-0.3287972807884216,-0.03589236736297607,0.1522472500801086,0.07837438583374023,XArbitraryZVertical,0.7414059301001618,-0.1754254904302326,0.5463239946336532,-0.3479557219265235,-0.6880151033401489,0.7076311707496643,0.1609137058258057,0,0,0,-1,-1,35287.42123979167,unknown,2,2025-04-22T15:22:54.949+03:00,2025-04-21T17:08:51.449+03:00,8236,1.039424,0,0,6852.579,7,22,2025-04-22T15:22:29.153+03:00,767017442.1177073,0,-15.45,100.3885,1,0.55,2025-04-22T15:22:53.954+03:00,108,1.8,2025-04-22T14:20:19.516+03:00,0.02197104130929222,0
2025-04-22T15:24:03.608+03:00,1745324643.297376,40.95224128656097,29.14028767538967,76.203,-1,-1,-1,-1,30,20.9253452552625,-9999,35306.605597625,-0.721038818359375,0.7596435546875,0.12860107421875,35306.600559625,-2.979601152195916,-1.815657883314262,-0.7810639002600238,-0.7286770939826965,-0.8820993900299072,-0.3617323338985443,-0.05354189872741699,0.1365101933479309,0.03282678127288818,XArbitraryZVertical,0.7453921454410665,-0.1745575726910389,0.5429771983195772,-0.3451027769453587,-0.688981294631958,0.7040353417396545,0.1721595972776413,0,0,0,-1,-1,35287.42123979167,unknown,2,2025-04-22T15:22:54.949+03:00,2025-04-21T17:08:51.449+03:00,8236,1.039424,0,0,6852.579,7,22,2025-04-22T15:22:29.153+03:00,767017442.1177073,0,-15.45,100.3885,1,0.55,2025-04-22T15:22:53.954+03:00,108,1.8,2025-04-22T14:20:19.516+03:00,0.02197104130929222,0
2025-04-22T15:24:03.618+03:00,1745324643.297376,40.95224128656097,29.14028767538967,76.203,-1,-1,-1,-1,30,20.9253452552625,-9999,35306.61567462501,-0.703521728515625,0.74273681640625,0.1285552978515625,35306.610636625,-2.988377758826896,-1.830554348361739,-0.7754423205898545,-0.7249025702476501,-0.848426878452301,-0.4003492295742035,-0.04040580987930298,0.08187401294708252,-0.03606331348419189,XArbitraryZVertical,0.7493752563470096,-0.1736240157395542,0.5397311121687535,-0.3420258671809112,-0.690154492855072,0.7000319957733154,0.1834171414375305,0,0,0,-1,-1,35287.42123979167,unknown,2,2025-04-22T15:22:54.949+03:00,2025-04-21T17:08:51.449+03:00,8236,1.039424,0,0,6852.579,7,22,2025-04-22T15:22:29.153+03:00,767017442.1177073,0,-15.45,100.3885,1,0.55,2025-04-22T15:22:53.954+03:00,108,1.8,2025-04-22T14:20:19.516+03:00,0.02197104130929222,0
2025-04-22T15:24:03.628+03:00,1745324643.297376,40.95224128656097,29.14028767538967,76.203,-1,-1,-1,-1,30,20.9253452552625,-9999,35306.625750625,-0.68951416015625,0.7390899658203125,0.210418701171875,35306.620712625,-2.995249760186731,-1.843509676494228,-0.7700089402154199,-0.4785156846046448,-0.7696489691734314,-0.3822258710861206,-0.01785528659820557,0.04674768447875977,-0.07298791408538818,XArbitraryZVertical,0.7529644869755187,-0.1724141162250495,0.5368051346182464,-0.339349398261623,-0.6913731694221497,0.6961416602134705,0.193364292383194,0,0,0,-1,-1,35287.42123979167,unknown,2,2025-04-22T15:22:54.949+03:00,2025-04-21T17:08:51.449+03:00,8236,1.039424,0,0,6852.579,7,22,2025-04-22T15:22:29.153+03:00,767017442.1177073,0,-15.45,100.3885,1,0.55,2025-04-22T15:22:53.954+03:00,108,1.8,2025-04-22T14:20:19.516+03:00,0.02197104130929222,0
2025-04-22T15:24:03.638+03:00,1745324643.297376,40.95224128656097,29.14028767538967,76.203,-1,-1,-1,-1,30,20.9253452552625,-9999,35306.635827625,-0.6955108642578125,0.7053375244140625,0.3826904296875,35306.630789625,-2.998707512585763,-1.853089426376748,-0.7651162844888151,-0.3017849922180176,-0.6520417928695679,-0.4249342381954193,-0.001797616481781006,0.05180948972702026,-0.03211714327335358,XArbitraryZVertical,0.7558639090808965,-0.1706814773833664,0.5344578283801831,-0.3374792537626925,-0.6927518248558044,0.6926208734512329,0.2009248286485672,0,0,0,-1,-1,35287.42123979167,unknown,2,2025-04-22T15:22:54.949+03:00,2025-04-21T17:08:51.449+03:00,8236,1.039424,0,0,6852.579,7,22,2025-04-22T15:22:29.153+03:00,767017442.1177073,0,-15.45,100.3885,1,0.55,2025-04-22T15:22:53.954+03:00,108,1.8,2025-04-22T14:20:19.516+03:00,0.02197104130929222,0
2025-04-22T15:24:03.648+03:00,1745324643.297376,40.95224128656097,29.14028767538967,76.203,-1,-1,-1,-1,30,20.9253452552625,-9999,35306.645903625,-0.7080078125,0.6754913330078125,0.52142333984375,35306.640865625,-3.001506404310904,-1.860961150054121,-0.7596077370693846,-0.4234656393527985,-0.5250108242034912,-0.5072725415229797,0.004806995391845703,0.03151655197143555,0.1042461097240448,XArbitraryZVertical,0.7584366030821788,-0.168831259418994,0.5327055310789169,-0.3354020443681375,-0.6947940587997437,0.6886370778083801,0.2074601501226425,0,0,0,-1,-1,35287.42123979167,unknown,2,2025-04-22T15:22:54.949+03:00,2025-04-21T17:08:51.449+03:00,8236,1.039424,0,0,6852.579,7,22,2025-04-22T15:22:29.153+03:00,767017442.1177073,0,-15.45,100.3885,1,0.55,2025-04-22T15:22:53.954+03:00,108,1.8,2025-04-22T14:20:19.516+03:00,0.02197104130929222,0
2025-04-22T15:24:03.658+03:00,1745324643.297376,40.95224128656097,29.14028767538967,76.203,-1,-1,-1,-1,30,20.9253452552625,-9999,35306.655980625,-0.6893157958984375,0.688018798828125,0.5262298583984375,35306.650942625,-3.00634835392775,-1.869069628199164,-0.7529067813151067,-0.6131743192672729,-0.4324105978012085,-0.5483758449554443,-0.00802081823348999,-0.0003826618194580078,0.269646555185318,XArbitraryZVertical,0.7610500482725583,-0.167397756768629,0.531341083064252,-0.3323514184326162,-0.69748455286026,0.6837627291679382,0.2144383639097214,0,0,0,-1,-1,35287.42123979167,unknown,2,2025-04-22T15:22:54.949+03:00,2025-04-21T17:08:51.449+03:00,8236,1.039424,0,0,6852.579,7,22,2025-04-22T15:22:29.153+03:00,767017442.1177073,0,-15.45,100.3885,1,0.55,2025-04-22T15:22:53.954+03:00,108,1.8,2025-04-22T14:20:19.516+03:00,0.02197104130929222,0
2025-04-22T15:24:03.668+03:00,1745324643.297376,40.95224128656097,29.14028767538967,76.203,-1,-1,-1,-1,30,20.9253452552625,-9999,35306.666056625,-0.6653289794921875,0.6981353759765625,0.4537200927734375,35306.661018625,-3.012581775190487,-1.877299350164691,-0.7457412390941512,-0.6572989225387573,-0.3585997521877289,-0.5432578325271606,0.001619100570678711,0.001201510429382324,0.3159841597080231,XArbitraryZVertical,0.7636374176314562,-0.1663725031840138,0.5301869533582162,-0.3287551312190625,-0.7003495693206787,0.6785165071487427,0.2216438353061676,0,0,0,-1,-1,35287.42123979167,unknown,2,2025-04-22T15:22:54.949+03:00,2025-04-21T17:08:51.449+03:00,8236,1.039424,0,0,6852.579,7,22,2025-04-22T15:22:29.153+03:00,767017442.1177073,0,-15.45,100.3885,1,0.55,2025-04-22T15:22:53.954+03:00,108,1.8,2025-04-22T14:20:19.516+03:00,0.02197104130929222,0
2025-04-22T15:24:03.678+03:00,1745324643.297376,40.95224128656097,29.14028767538967,76.203,-1,-1,-1,-1,30,20.9253452552625,-9999,35306.67613362501,-0.6752777099609375,0.6760406494140625,0.4035186767578125,35306.671094625,-3.018424530855394,-1.884330469245616,-0.7382328563119677,-0.5990336537361145,-0.2514306008815765,-0.6151590347290039,0.03196930885314941,0.02573329210281372,0.2571629583835602,XArbitraryZVertical,0.7659828135114265,-0.1653300481101808,0.5294318755187967,-0.3250202718253136,-0.7036002278327942,0.672981858253479,0.2281273901462555,0,0,0,-1,-1,35287.42123979167,unknown,2,2025-04-22T15:22:54.949+03:00,2025-04-21T17:08:51.449+03:00,8236,1.039424,0,0,6852.579,7,22,2025-04-22T15:22:29.153+03:00,767017442.1177073,0,-15.45,100.3885,1,0.55,2025-04-22T15:22:53.954+03:00,108,1.8,2025-04-22T14:20:19.516+03:00,0.02197104130929222,0
2025-04-22T15:24:03.688+03:00,1745324643.297376,40.95224128656097,29.14028767538967,76.203,-1,-1,-1,-1,30,20.9253452552625,-9999,35306.686209625,-0.6982574462890625,0.6433258056640625,0.4845123291015625,35306.681171625,-3.022657553260776,-1.888934361248112,-0.7302267542321134,-0.4792137742042542,-0.0871356874704361,-0.6980153322219849,0.04116392135620117,0.01969832181930542,0.1770070642232895,XArbitraryZVertical,0.767881259804204,-0.1639494097656701,0.5293752229765591,-0.3213107966262483,-0.7076371908187866,0.6670385599136353,0.2330420762300491,0,0,0,-1,-1,35287.42123979167,unknown,2,2025-04-22T15:22:54.949+03:00,2025-04-21T17:08:51.449+03:00,8236,1.039424,0,0,6852.579,7,22,2025-04-22T15:22:29.153+03:00,767017442.1177073,0,-15.45,100.3885,1,0.55,2025-04-22T15:22:53.954+03:00,108,1.8,2025-04-22T14:20:19.516+03:00,0.02197104130929222,0
2025-04-22T15:24:03.698+03:00,1745324643.297376,40.95224128656097,29.14028767538967,76.203,-1,-1,-1,-1,30,20.9253452552625,-9999,35306.696286625,-0.683685302734375,0.6243743896484375,0.61273193359375,35306.691247625,-3.024350151632465,-1.889818454594766,-0.7218072110944777,-0.2733578681945801,0.1345516294240952,-0.8095941543579102,0.01944029331207275,-0.005011200904846191,0.2057258784770966,XArbitraryZVertical,0.769050616854616,-0.1620848991430991,0.5303685718852217,-0.3178027443379052,-0.7127385139465332,0.6607422828674316,0.2354207336902618,0,0,0,-1,-1,35287.42123979167,unknown,2,2025-04-22T15:22:54.949+03:00,2025-04-21T17:08:51.449+03:00,8236,1.039424,0,0,6852.579,7,22,2025-04-22T15:22:29.153+03:00,767017442.1177073,0,-15.45,100.3885,1,0.55,2025-04-22T15:22:53.954+03:00,108,1.8,2025-04-22T14:20:19.516+03:00,0.02197104130929222,0
2025-04-22T15:24:03.709+03:00,1745324643.297376,40.95224128656097,29.14028767538967,76.203,-1,-1,-1,-1,30,20.9253452552625,-9999,35306.706362625,-0.6587677001953125,0.635406494140625,0.7376861572265625,35306.701324625,-3.022473718383039,-1.885996954023873,-0.713075597716175,0.02285487204790115,0.3894545137882233,-0.9122944474220276,0.02571636438369751,-0.0271032452583313,0.3311222791671753,XArbitraryZVertical,0.7692834832129515,-0.1595005174717191,0.5326346460582674,-0.3147422944093268,-0.7190909385681152,0.654163122177124,0.2344749867916107,0,0,0,-1,-1,35287.42123979167,unknown,2,2025-04-22T15:22:54.949+03:00,2025-04-21T17:08:51.449+03:00,8236,1.039424,0,0,6852.579,7,22,2025-04-22T15:22:29.153+03:00,767017442.1177073,0,-15.45,100.3885,1,0.55,2025-04-22T15:22:53.954+03:00,108,1.8,2025-04-22T14:20:19.516+03:00,0.02197104130929222,0
2025-04-22T15:24:03.719+03:00,1745324643.297376,40.95224128656097,29.14028767538967,76.203,-1,-1,-1,-1,30,20.9253452552625,-9999,35306.716439625,-0.6652679443359375,0.6329345703125,0.864471435546875,35306.711400625,-3.015866589636929,-1.876152766336298,-0.7046704946546262,0.4037996232509613,0.7149991393089294,-0.9818959832191467,0.06099432706832886,-0.01788491010665894,0.461857408285141,XArbitraryZVertical,0.7682077948972532,-0.1561142598442047,0.5364349714259216,-0.3126058765843652,-0.7265825867652893,0.6477828621864319,0.2290297597646713,0,0,0,-1,-1,35287.42123979167,unknown,2,2025-04-22T15:22:54.949+03:00,2025-04-21T17:08:51.449+03:00,8236,1.039424,0,0,6852.579,7,22,2025-04-22T15:22:29.153+03:00,767017442.1177073,0,-15.45,100.3885,1,0.55,2025-04-22T15:22:53.954+03:00,108,1.8,2025-04-22T14:20:19.516+03:00,0.02197104130929222,0
2025-04-22T15:24:03.729+03:00,1745324643.297376,40.95224128656097,29.14028767538967,76.203,-1,-1,-1,-1,30,20.9253452552625,-9999,35306.726515625,-0.70562744140625,0.604949951171875,0.988677978515625,35306.721477625,-3.004552966262753,-1.859660847841224,-0.6965768840149107,0.7760951519012451,1.120393514633179,-1.044674396514893,0.07747161388397217,-0.004510819911956787,0.5972164869308472,XArbitraryZVertical,0.7655987110231041,-0.1520199211243923,0.5420188515829755,-0.3113905767203925,-0.7352627515792847,0.6415957808494568,0.2185028791427612,0,0,0,-1,-1,35287.42123979167,unknown,2,2025-04-22T15:22:54.949+03:00,2025-04-21T17:08:51.449+03:00,8236,1.039424,0,0,6852.579,7,22,2025-04-22T15:22:29.153+03:00,767017442.1177073,0,-15.45,100.3885,1,0.55,2025-04-22T15:22:53.954+03:00,108,1.8,2025-04-22T14:20:19.516+03:00,0.02197104130929222,0
2025-04-22T15:24:03.739+03:00,1745324643.297376,40.95224128656097,29.14028767538967,76.203,-1,-1,-1,-1,30,20.9253452552625,-9999,35306.736592625,-0.731781005859375,0.5573883056640625,1.151397705078125,35306.731553625,-2.98806608858362,-1.835299948982672,-0.6893395568566647,1.265565037727356,1.647414445877075,-1.004698991775513,0.05600202083587646,-0.01911485195159912,0.7421106100082397,XArbitraryZVertical,0.7610130259337435,-0.1474028378608494,0.5496854428882609,-0.3114120749023502,-0.744829535484314,0.6360276937484741,0.2017368376255035,0,0,0,-1,-1,35287.42123979167,unknown,2,2025-04-22T15:22:54.949+03:00,2025-04-21T17:08:51.449+03:00,8236,1.039424,0,0,6852.579,7,22,2025-04-22T15:22:29.153+03:00,767017442.1177073,0,-15.45,100.3885,1,0.55,2025-04-22T15:22:53.954+03:00,108,1.8,2025-04-22T14:20:19.516+03:00,0.02197104130929222,0
2025-04-22T15:24:03.749+03:00,1745324643.297376,40.95224128656097,29.14028767538967,76.203,-1,-1,-1,-1,30,20.9253452552625,-9999,35306.746668625,-0.74066162109375,0.4349212646484375,1.424102783203125,35306.741630625,-2.967338782698594,-1.802106989178516,-0.6835286145893281,1.455357074737549,2.357646465301514,-0.8901084065437317,0.02929610013961792,-0.05122596025466919,0.8993967771530151,XArbitraryZVertical,0.7539421950668317,-0.1429926170268856,0.5597988338625048,-0.3126490735887283,-0.7546989321708679,0.6315328478813171,0.177751436829567,0,0,0,-1,-1,35287.42123979167,unknown,2,2025-04-22T15:22:54.949+03:00,2025-04-21T17:08:51.449+03:00,8236,1.039424,0,0,6852.579,7,22,2025-04-22T15:22:29.153+03:00,767017442.1177073,0,-15.45,100.3885,1,0.55,2025-04-22T15:22:53.954+03:00,108,1.8,2025-04-22T14:20:19.516+03:00,0.02197104130929222,0
2025-04-22T15:24:03.759+03:00,1745324643.297376,40.95224128656097,29.14028767538967,76.203,-1,-1,-1,-1,30,20.9253452552625,-9999,35306.756745625,-0.7310943603515625,0.18096923828125,1.729385375976562,35306.751706625,-2.948574377842664,-1.761952632073633,-0.6786296724122476,1.135271310806274,3.293293952941895,-0.642163097858429,0.02611058950424194,-0.1336627006530762,1.167348504066467,XArbitraryZVertical,0.74440585401558,-0.1407439634932779,0.5725807250224123,-0.3133722960366581,-0.7642543911933899,0.6277269124984741,0.1478978842496872,0,0,0,-1,-1,35287.42123979167,unknown,2,2025-04-22T15:22:54.949+03:00,2025-04-21T17:08:51.449+03:00,8236,1.039424,0,0,6852.579,7,22,2025-04-22T15:22:29.153+03:00,767017442.1177073,0,-15.45,100.3885,1,0.55,2025-04-22T15:22:53.954+03:00,108,1.8,2025-04-22T14:20:19.516+03:00,0.02197104130929222,0
2025-04-22T15:24:03.769+03:00,1745324643.297376,40.95224128656097,29.14028767538967,76.203,-1,-1,-1,-1,30,20.9253452552625,-9999,35306.766821625,-0.6464996337890625,-0.146728515625,2.05859375,35306.761783625,-2.937773342928841,-1.716683477818479,-0.6749527020823162,0.3186894655227661,4.368222236633301,-0.3638579547405243,0.03275781869888306,-0.3331582546234131,1.497603178024292,XArbitraryZVertical,0.7323878362014008,-0.1426743022492864,0.5881290309151882,-0.3120195130146851,-0.7724427580833435,0.624860405921936,0.113495796918869,0,0,0,-1,-1,35287.42123979167,unknown,2,2025-04-22T15:22:54.949+03:00,2025-04-21T17:08:51.449+03:00,8236,1.039424,0,0,6852.579,7,22,2025-04-22T15:22:29.153+03:00,767017442.1177073,0,-15.45,100.3885,1,0.55,2025-04-22T15:22:53.954+03:00,108,1.8,2025-04-22T14:20:19.516+03:00,0.02197104130929222,0
2025-04-22T15:24:03.779+03:00,1745324643.297376,40.95224128656097,29.14028767538967,76.203,-1,-1,-1,-1,30,20.9253452552625,-9999,35306.776898625,-0.4786834716796875,-0.32098388671875,2.268310546875,35306.77185962501,-2.939066088501531,-1.667926510658803,-0.6727408881260745,-0.5368442535400391,5.460695266723633,-0.04215670377016068,0.08934319019317627,-0.6511320471763611,1.860858559608459,XArbitraryZVertical,0.7179351543834515,-0.1499765698183041,0.6063287618138208,-0.3073131332434844,-0.7784299254417419,0.6231319904327393,0.07584771513938904,0,0,0,-1,-1,35287.42123979167,unknown,2,2025-04-22T15:22:54.949+03:00,2025-04-21T17:08:51.449+03:00,8236,1.039424,0,0,6852.579,7,22,2025-04-22T15:22:29.153+03:00,767017442.1177073,0,-15.45,100.3885,1,0.55,2025-04-22T15:22:53.954+03:00,108,1.8,2025-04-22T14:20:19.516+03:00,0.02197104130929222,0
2025-04-22T15:24:03.789+03:00,1745324643.297376,40.95224128656097,29.14028767538967,76.203,-1,-1,-1,-1,30,20.9253452552625,-9999,35306.786974625,-0.2697906494140625,-0.32275390625,2.216171264648438,35306.781936625,-2.950582637175864,-1.614952446516229,-0.6732369162268317,-1.188614010810852,6.465367794036865,0.2757080793380737,0.2309203147888184,-0.9075012803077698,2.18675708770752,XArbitraryZVertical,0.7006601038230785,-0.1622670670533385,0.626793204613762,-0.2997916552068966,-0.7810453772544861,0.6235198974609375,0.03451036289334297,0,0,0,-1,-1,35287.42123979167,unknown,2,2025-04-22T15:22:54.949+03:00,2025-04-21T17:08:51.449+03:00,8236,1.039424,0,0,6852.579,7,22,2025-04-22T15:22:29.153+03:00,767017442.1177073,0,-15.45,100.3885,1,0.55,2025-04-22T15:22:53.954+03:00,108,1.8,2025-04-22T14:20:19.516+03:00,0.02197104130929222,0
2025-04-22T15:24:03.799+03:00,1745324643.297376,40.95224128656097,29.14028767538967,76.203,-1,-1,-1,-1,30,20.9253452552625,-9999,35306.797051625,-0.0866241455078125,-0.2991943359375,1.949142456054688,35306.792012625,-2.96341666712491,-1.553537253918283,-0.6783408761134403,-0.5242369174957275,7.27894926071167,0.8163849711418152,0.4318192601203918,-0.9584042429924011,2.271280288696289,XArbitraryZVertical,0.6795337429279809,-0.1775250429600968,0.6491363422413285,-0.2921313030793148,-0.7784988284111023,0.6275020837783813,-0.01343750301748514,0,0,0,-1,-1,35287.42123979167,unknown,2,2025-04-22T15:22:54.949+03:00,2025-04-21T17:08:51.449+03:00,8236,1.039424,0,0,6852.579,7,22,2025-04-22T15:22:29.153+03:00,767017442.1177073,0,-15.45,100.3885,1,0.55,2025-04-22T15:22:53.954+03:00,108,1.8,2025-04-22T14:20:19.516+03:00,0.02197104130929222,0
