loggingTime(txt),locationTimestamp_since1970(s),locationLatitude(WGS84),locationLongitude(WGS84),locationAltitude(m),locationSpeed(m/s),locationSpeedAccuracy(m/s),locationCourse(°),locationCourseAccuracy(°),locationVerticalAccuracy(m),locationHorizontalAccuracy(m),locationFloor(Z),accelerometerTimestamp_sinceReboot(s),accelerometerAccelerationX(G),accelerometerAccelerationY(G),accelerometerAccelerationZ(G),motionTimestamp_sinceReboot(s),motionYaw(rad),motionRoll(rad),motionPitch(rad),motionRotationRateX(rad/s),motionRotationRateY(rad/s),motionRotationRateZ(rad/s),motionUserAccelerationX(G),motionUserAccelerationY(G),motionUserAccelerationZ(G),motionAttitudeReferenceFrame(txt),motionQuaternionX(R),motionQuaternionY(R),motionQuaternionZ(R),motionQuaternionW(R),motionGravityX(G),motionGravityY(G),motionGravityZ(G),motionMagneticFieldX(µT),motionMagneticFieldY(µT),motionMagneticFieldZ(µT),motionHeading(°),motionMagneticFieldCalibrationAccuracy(Z),activityTimestamp_sinceReboot(s),activity(txt),activityActivityConfidence(Z),activityActivityStartDate(txt),pedometerStartDate(txt),pedometerNumberofSteps(N),pedometerAverageActivePace(s/m),pedometerCurrentPace(s/m),pedometerCurrentCadence(steps/s),pedometerDistance(m),pedometerFloorAscended(N),pedometerFloorDescended(N),pedometerEndDate(txt),altimeterTimestamp_sinceReboot(s),altimeterReset(bool),altimeterRelativeAltitude(m),altimeterPressure(kPa),batteryState(N),batteryLevel(R),heartRateBPMTimestamp(txt),heartRateBPM(N),heartRateBPS(R),heartRateVariabilityTimestamp(txt),heartRateVariability(ms),label
2025-04-30T12:20:05.816+03:00,1746004804.93202,40.95222111515021,29.14027566195204,76.19596,-1,-1,-1,-1,30,20.79919806636867,-9999,12408.40448591667,-0.66754150390625,0.67364501953125,-0.3628082275390625,12408.39440991667,2.798274824163973,-1.057406575782754,-0.730164107147146,-0.006138593424111605,0.044382244348526,-0.00141445582266897,0.003323793411254883,-0.05915796756744385,0.02196225523948669,XArbitraryZVertical,-0.4115862709123406,0.3842314145473572,-0.825463220139132,0.03966861301584011,-0.6490148305892944,0.6669918894767761,-0.3659259378910065,0,0,0,-1,-1,12397.10866675,unknown,2,2025-04-30T12:19:54.497+03:00,2025-04-30T12:00:08.093+03:00,150,1.37288,0,0,123.4218,0,0,2025-04-30T12:20:04.815+03:00,767697604.9175572,0,2.11,100.9393,1,0.8,2025-04-30T12:20:01.402+03:00,86,1.433333333333333,2025-04-22T14:20:19.516+03:00,0.02197104130929222,0
2025-04-30T12:20:05.818+03:00,1746004804.93202,40.95222111515021,29.14027566195204,76.19596,-1,-1,-1,-1,30,20.79919806636867,-9999,12408.41456291667,-0.6044158935546875,0.6374359130859375,-0.3587493896484375,12408.40448591667,2.797962948226246,-1.057557018457389,-0.7301812473414441,-0.03492989391088486,-0.01378239225596189,0.003684765426442027,-0.07902848720550537,0.03674602508544922,0.01621332764625549,XArbitraryZVertical,-0.4115857149103017,0.3842991591451669,-0.8254366072312991,0.03957316249739881,-0.6490599513053894,0.6670047044754028,-0.3658227026462555,0,0,0,-1,-1,12397.10866675,unknown,2,2025-04-30T12:19:54.497+03:00,2025-04-30T12:00:08.093+03:00,150,1.37288,0,0,123.4218,0,0,2025-04-30T12:20:04.815+03:00,767697604.9175572,0,2.11,100.9393,1,0.8,2025-04-30T12:20:01.402+03:00,86,1.433333333333333,2025-04-22T14:20:19.516+03:00,0.02197104130929222,0
2025-04-30T12:20:05.818+03:00,1746004804.93202,40.95222111515021,29.14027566195204,76.19596,-1,-1,-1,-1,30,20.79919806636867,-9999,12408.42463891667,-0.645904541015625,0.6612701416015625,-0.35943603515625,12408.41456291667,2.79758228881134,-1.057840697537082,-0.7304385317445832,-0.03624975681304932,0.01053759548813105,0.001834401162341237,-0.01852750778198242,0.006448626518249512,0.002746075391769409,XArbitraryZVertical,-0.4115890901205301,0.3844701438182642,-0.8253568997962907,0.03953722577940525,-0.6490139961242676,0.6671963334083557,-0.3655542731285095,0,0,0,-1,-1,12397.10866675,unknown,2,2025-04-30T12:19:54.497+03:00,2025-04-30T12:00:08.093+03:00,150,1.37288,0,0,123.4218,0,0,2025-04-30T12:20:04.815+03:00,767697604.9175572,0,2.11,100.9393,1,0.8,2025-04-30T12:20:01.402+03:00,86,1.433333333333333,2025-04-22T14:20:19.516+03:00,0.02197104130929222,0
2025-04-30T12:20:05.827+03:00,1746004804.93202,40.95222111515021,29.14027566195204,76.19596,-1,-1,-1,-1,30,20.79919806636867,-9999,12408.43471591667,-0.6613006591796875,0.684722900390625,-0.3628997802734375,12408.42463891667,2.797283904960362,-1.057750799093256,-0.7306811059850638,-0.0178181529045105,0.03227498009800911,-0.003598247654736042,0.04442429542541504,-0.02994102239608765,0.006783783435821533,XArbitraryZVertical,-0.4114563082710662,0.3846259296402266,-0.8253543128396179,0.03945945493829454,-0.6488401889801025,0.6673769950866699,-0.3655332028865814,0,0,0,-1,-1,12397.10866675,unknown,2,2025-04-30T12:19:54.497+03:00,2025-04-30T12:00:08.093+03:00,150,1.37288,0,0,123.4218,0,0,2025-04-30T12:20:04.815+03:00,767697604.9175572,0,2.11,100.9393,1,0.8,2025-04-30T12:20:01.402+03:00,86,1.433333333333333,2025-04-22T14:20:19.516+03:00,0.02197104130929222,0
2025-04-30T12:20:05.837+03:00,1746004804.93202,40.95222111515021,29.14027566195204,76.19596,-1,-1,-1,-1,30,20.79919806636867,-9999,12408.44479291667,-0.634979248046875,0.68963623046875,-0.3614349365234375,12408.43471591667,2.79719389053821,-1.057520418293131,-0.7306851187677892,0.003295920789241791,0.01768485270440578,-0.008025486022233963,0.002848982810974121,-0.006109893321990967,0.006245285272598267,XArbitraryZVertical,-0.4113433287772222,0.3846505246395995,-0.8254028875839419,0.03937915320247552,-0.6487535238265991,0.6673800349235535,-0.3656812906265259,0,0,0,-1,-1,12397.10866675,unknown,2,2025-04-30T12:19:54.497+03:00,2025-04-30T12:00:08.093+03:00,150,1.37288,0,0,123.4218,0,0,2025-04-30T12:20:04.815+03:00,767697604.9175572,0,2.11,100.9393,1,0.8,2025-04-30T12:20:01.402+03:00,86,1.433333333333333,2025-04-22T14:20:19.516+03:00,0.02197104130929222,0
2025-04-30T12:20:05.849+03:00,1746004804.93202,40.95222111515021,29.14027566195204,76.19596,-1,-1,-1,-1,30,20.79919806636867,-9999,12408.45486891667,-0.63311767578125,0.685638427734375,-0.3656463623046875,12408.44479291667,2.797283490088167,-1.057305956917805,-0.7305555507134104,0.02410459704697132,0.01226458884775639,-0.00837938766926527,-0.01255029439926147,0.01743942499160767,0.002963125705718994,XArbitraryZVertical,-0.4112924957889356,0.3845868429352582,-0.8254597057697262,0.03934138131609788,-0.6487504243850708,0.6672835350036621,-0.3658628761768341,0,0,0,-1,-1,12397.10866675,unknown,2,2025-04-30T12:19:54.497+03:00,2025-04-30T12:00:08.093+03:00,150,1.37288,0,0,123.4218,0,0,2025-04-30T12:20:04.815+03:00,767697604.9175572,0,2.11,100.9393,1,0.8,2025-04-30T12:20:01.402+03:00,86,1.433333333333333,2025-04-22T14:20:19.516+03:00,0.02197104130929222,0
2025-04-30T12:20:05.857+03:00,1746004804.93202,40.95222111515021,29.14027566195204,76.19596,-1,-1,-1,-1,30,20.79919806636867,-9999,12408.46494591667,-0.6424560546875,0.672760009765625,-0.3653564453125,12408.45486891667,2.797524357980895,-1.056986840251554,-0.7303507706627781,0.02805512957274914,0.01606012508273125,-0.01315203867852688,0.01377338171005249,0.02250528335571289,0.004702150821685791,XArbitraryZVertical,-0.4112393878902202,0.3844653796177128,-0.8255434919272002,0.03932648016522519,-0.6487526893615723,0.6671310067176819,-0.3661370873451233,0,0,0,-1,-1,12397.10866675,unknown,2,2025-04-30T12:19:54.497+03:00,2025-04-30T12:00:08.093+03:00,150,1.37288,0,0,123.4218,0,0,2025-04-30T12:20:04.815+03:00,767697604.9175572,0,2.11,100.9393,1,0.8,2025-04-30T12:20:01.402+03:00,86,1.433333333333333,2025-04-22T14:20:19.516+03:00,0.02197104130929222,0
2025-04-30T12:20:05.867+03:00,1746004804.93202,40.95222111515021,29.14027566195204,76.19596,-1,-1,-1,-1,30,20.79919806636867,-9999,12408.47502191667,-0.6395416259765625,0.6634674072265625,-0.361297607421875,12408.46494591667,2.797795606853209,-1.056666039905557,-0.7301002808842799,0.02651182748377323,0.008168380707502365,-0.01146971993148327,0.01566290855407715,0.01869410276412964,0.0007809996604919434,XArbitraryZVertical,-0.4111986065791521,0.384320231749691,-0.8256320487544797,0.03931209547723244,-0.6487806439399719,0.6669443845748901,-0.3664273321628571,0,0,0,-1,-1,12397.10866675,unknown,2,2025-04-30T12:19:54.497+03:00,2025-04-30T12:00:08.093+03:00,150,1.37288,0,0,123.4218,0,0,2025-04-30T12:20:04.815+03:00,767697604.9175572,0,2.11,100.9393,1,0.8,2025-04-30T12:20:01.402+03:00,86,1.433333333333333,2025-04-22T14:20:19.516+03:00,0.02197104130929222,0
2025-04-30T12:20:05.877+03:00,1746004804.93202,40.95222111515021,29.14027566195204,76.19596,-1,-1,-1,-1,30,20.79919806636867,-9999,12408.48509891667,-0.639678955078125,0.6615142822265625,-0.360137939453125,12408.47502191667,2.797992444158914,-1.056494061397467,-0.7298881083602192,0.01933061517775059,0.001883053919300437,-0.008313873782753944,0.006384730339050293,0.005973756313323975,0.001252084970474243,XArbitraryZVertical,-0.4111988692457559,0.3842020791315918,-0.825687219563509,0.03930550583161778,-0.6488407850265503,0.666786253452301,-0.3666085004806519,0,0,0,-1,-1,12397.10866675,unknown,2,2025-04-30T12:19:54.497+03:00,2025-04-30T12:00:08.093+03:00,150,1.37288,0,0,123.4218,0,0,2025-04-30T12:20:04.815+03:00,767697604.9175572,0,2.11,100.9393,1,0.8,2025-04-30T12:20:01.402+03:00,86,1.433333333333333,2025-04-22T14:20:19.516+03:00,0.02197104130929222,0
2025-04-30T12:20:05.888+03:00,1746004804.93202,40.95222111515021,29.14027566195204,76.19596,-1,-1,-1,-1,30,20.79919806636867,-9999,12408.49517491667,-0.644775390625,0.6666259765625,-0.3642120361328125,12408.48509891667,2.798085724232494,-1.056456689359172,-0.7297274162383927,0.009640635922551155,0.00202120584435761,-0.008521366864442825,0.009378731250762939,-0.003199100494384766,0.005387872457504272,XArbitraryZVertical,-0.4112266849519136,0.384122234450612,-0.8257109762894128,0.03929535524686823,-0.6489203572273254,0.6666665077209473,-0.3666854500770569,0,0,0,-1,-1,12397.10866675,unknown,2,2025-04-30T12:19:54.497+03:00,2025-04-30T12:00:08.093+03:00,150,1.37288,0,0,123.4218,0,0,2025-04-30T12:20:04.815+03:00,767697604.9175572,0,2.11,100.9393,1,0.8,2025-04-30T12:20:01.402+03:00,86,1.433333333333333,2025-04-22T14:20:19.516+03:00,0.02197104130929222,0
2025-04-30T12:20:05.897+03:00,1746004804.93202,40.95222111515021,29.14027566195204,76.19596,-1,-1,-1,-1,30,20.79919806636867,-9999,12408.50525191667,-0.645843505859375,0.6652984619140625,-0.3671112060546875,12408.49517491667,2.798152286192269,-1.056430176912713,-0.7295933920374978,0.01220499351620674,-0.002846520394086838,-0.007370082661509514,0.00930941104888916,-0.005052328109741211,0.006608694791793823,XArbitraryZVertical,-0.4112496358069657,0.3840578543498012,-0.8257300723176233,0.03928313065078564,-0.6489883661270142,0.6665666103363037,-0.3667466044425964,0,0,0,-1,-1,12397.10866675,unknown,2,2025-04-30T12:19:54.497+03:00,2025-04-30T12:00:08.093+03:00,150,1.37288,0,0,123.4218,0,0,2025-04-30T12:20:04.815+03:00,767697604.9175572,0,2.11,100.9393,1,0.8,2025-04-30T12:20:01.402+03:00,86,1.433333333333333,2025-04-22T14:20:19.516+03:00,0.02197104130929222,0
2025-04-30T12:20:05.908+03:00,1746004804.93202,40.95222111515021,29.14027566195204,76.19596,-1,-1,-1,-1,30,20.79919806636867,-9999,12408.51532791667,-0.64422607421875,0.661773681640625,-0.3673248291015625,12408.50525191667,2.798244478626526,-1.056377476899409,-0.7295093291173645,0.006457825656980276,-0.002324873115867376,-0.005377405788749456,0.004242479801177979,0.0001220107078552246,0.002596348524093628,XArbitraryZVertical,-0.4112588179921842,0.3840078071557019,-0.8257484848417496,0.03928935756916796,-0.649017870426178,0.66650390625,-0.3668083846569061,0,0,0,-1,-1,12397.10866675,unknown,2,2025-04-30T12:19:54.497+03:00,2025-04-30T12:00:08.093+03:00,150,1.37288,0,0,123.4218,0,0,2025-04-30T12:20:04.815+03:00,767697604.9175572,0,2.11,100.9393,1,0.8,2025-04-30T12:20:01.402+03:00,86,1.433333333333333,2025-04-22T14:20:19.516+03:00,0.02197104130929222,0
2025-04-30T12:20:05.917+03:00,1746004804.93202,40.95222111515021,29.14027566195204,76.19596,-1,-1,-1,-1,30,20.79919806636867,-9999,12408.52540491667,-0.647369384765625,0.6673583984375,-0.3669891357421875,12408.51532791667,2.7982746444131,-1.056413970598757,-0.7294375506398392,0.006324933841824532,-0.006304434966295958,-0.002914514392614365,0.003229379653930664,-0.001151978969573975,-0.0003029406070709229,XArbitraryZVertical,-0.4112909851865668,0.3839734564576403,-0.8257483811687709,0.03929029285691472,-0.6490728855133057,0.6664503812789917,-0.3668082058429718,0,0,0,-1,-1,12397.10866675,unknown,2,2025-04-30T12:19:54.497+03:00,2025-04-30T12:00:08.093+03:00,150,1.37288,0,0,123.4218,0,0,2025-04-30T12:20:04.815+03:00,767697604.9175572,0,2.11,100.9393,1,0.8,2025-04-30T12:20:01.402+03:00,86,1.433333333333333,2025-04-22T14:20:19.516+03:00,0.02197104130929222,0
2025-04-30T12:20:05.928+03:00,1746004804.93202,40.95222111515021,29.14027566195204,76.19596,-1,-1,-1,-1,30,20.79919806636867,-9999,12408.53548191667,-0.64801025390625,0.6732635498046875,-0.3684844970703125,12408.52540491667,2.798308032632974,-1.056443037066671,-0.7293758921747797,0.007803787011653185,-0.0007136608473956585,-0.005575545132160187,0.004893243312835693,-0.004630804061889648,-0.0005152523517608643,XArbitraryZVertical,-0.4113191069352891,0.3839424552993208,-0.8257486203428973,0.03929373803436783,-0.6491193175315857,0.6664044260978699,-0.3668095767498016,0,0,0,-1,-1,12397.10866675,unknown,2,2025-04-30T12:19:54.497+03:00,2025-04-30T12:00:08.093+03:00,150,1.37288,0,0,123.4218,0,0,2025-04-30T12:20:04.815+03:00,767697604.9175572,0,2.11,100.9393,1,0.8,2025-04-30T12:20:01.402+03:00,86,1.433333333333333,2025-04-22T14:20:19.516+03:00,0.02197104130929222,0
2025-04-30T12:20:05.938+03:00,1746004804.93202,40.95222111515021,29.14027566195204,76.19596,-1,-1,-1,-1,30,20.79919806636867,-9999,12408.54555791667,-0.6461181640625,0.6712188720703125,-0.3710174560546875,12408.53548191667,2.798377004074394,-1.056414238248351,-0.7293520142373467,0.01252876687794924,-0.00300903944298625,-0.008037637919187546,0.00175321102142334,0.0009717941284179688,-0.0001530051231384277,XArbitraryZVertical,-0.4113242035236234,0.383919708910392,-0.8257558958640624,0.03931048308152942,-0.6491226553916931,0.666386604309082,-0.3668361008167267,0,0,0,-1,-1,12397.10866675,unknown,2,2025-04-30T12:19:54.497+03:00,2025-04-30T12:00:08.093+03:00,150,1.37288,0,0,123.4218,0,0,2025-04-30T12:20:04.815+03:00,767697604.9175572,0,2.11,100.9393,1,0.8,2025-04-30T12:20:01.402+03:00,86,1.433333333333333,2025-04-22T14:20:19.516+03:00,0.02197104130929222,0
2025-04-30T12:20:05.948+03:00,1746004804.93202,40.95222111515021,29.14027566195204,76.19596,-1,-1,-1,-1,30,20.79919806636867,-9999,12408.55563491667,-0.6486663818359375,0.66778564453125,-0.3703460693359375,12408.54555791667,2.798497174311436,-1.056314424956508,-0.7293502261912116,0.01381966844201088,0.002537592779844999,-0.007788731716573238,0.001076817512512207,0.006878256797790527,-0.001582950353622437,XArbitraryZVertical,-0.4113063328503951,0.3838962729572207,-0.8257742878235627,0.03934045511402687,-0.6490870714187622,0.666385293006897,-0.3669015169143677,0,0,0,-1,-1,12397.10866675,unknown,2,2025-04-30T12:19:54.497+03:00,2025-04-30T12:00:08.093+03:00,150,1.37288,0,0,123.4218,0,0,2025-04-30T12:20:04.815+03:00,767697604.9175572,0,2.11,100.9393,1,0.8,2025-04-30T12:20:01.402+03:00,86,1.433333333333333,2025-04-22T14:20:19.516+03:00,0.02197104130929222,0
2025-04-30T12:20:05.958+03:00,1746004804.93202,40.95222111515021,29.14027566195204,76.19596,-1,-1,-1,-1,30,20.79919806636867,-9999,12408.56571091667,-0.6508941650390625,0.67218017578125,-0.3698577880859375,12408.55563491667,2.798616741281004,-1.056187021159497,-0.7292573409569125,0.01807939447462559,0.004652408882975578,-0.01000501494854689,0.002976059913635254,0.004902899265289307,-0.004002809524536133,XArbitraryZVertical,-0.4112912908787509,0.3838386862453711,-0.8258085234668484,0.03934136691529437,-0.6490942239761353,0.666316032409668,-0.3670146763324738,0,0,0,-1,-1,12397.10866675,unknown,2,2025-04-30T12:19:54.497+03:00,2025-04-30T12:00:08.093+03:00,150,1.37288,0,0,123.4218,0,0,2025-04-30T12:20:04.815+03:00,767697604.9175572,0,2.11,100.9393,1,0.8,2025-04-30T12:20:01.402+03:00,86,1.433333333333333,2025-04-22T14:20:19.516+03:00,0.02197104130929222,0
2025-04-30T12:20:05.968+03:00,1746004804.93202,40.95222111515021,29.14027566195204,76.19596,-1,-1,-1,-1,30,20.79919806636867,-9999,12408.57578791667,-0.6470794677734375,0.676513671875,-0.36810302734375,12408.56571091667,2.798830770104402,-1.055972159972473,-0.7291100143201877,0.02793289162218571,0.009087437763810158,-0.009265554137527943,0.0004343390464782715,0.001579463481903076,-0.003143608570098877,XArbitraryZVertical,-0.4112668267480271,0.3837425823622723,-0.8258649255001488,0.03935048482663162,-0.6491007804870605,0.6662061810493469,-0.3672024607658386,0,0,0,-1,-1,12397.10866675,unknown,2,2025-04-30T12:19:54.497+03:00,2025-04-30T12:00:08.093+03:00,150,1.37288,0,0,123.4218,0,0,2025-04-30T12:20:04.815+03:00,767697604.9175572,0,2.11,100.9393,1,0.8,2025-04-30T12:20:01.402+03:00,86,1.433333333333333,2025-04-22T14:20:19.516+03:00,0.02197104130929222,0
2025-04-30T12:20:05.978+03:00,1746004804.93202,40.95222111515021,29.14027566195204,76.19596,-1,-1,-1,-1,30,20.79919806636867,-9999,12408.58586391667,-0.64422607421875,0.6725921630859375,-0.3654327392578125,12408.57578791667,2.799129551241971,-1.055672092734147,-0.7289072575952409,0.03376441448926926,0.01102462038397789,-0.008148624561727047,-0.001786112785339355,0.006125271320343018,-0.002394020557403564,XArbitraryZVertical,-0.4112321170419171,0.3836095283049702,-0.8259433786793889,0.03936396526714565,-0.6491081118583679,0.6660549640655518,-0.3674637377262115,0,0,0,-1,-1,12397.10866675,unknown,2,2025-04-30T12:19:54.497+03:00,2025-04-30T12:00:08.093+03:00,150,1.37288,0,0,123.4218,0,0,2025-04-30T12:20:04.815+03:00,767697604.9175572,0,2.11,100.9393,1,0.8,2025-04-30T12:20:01.402+03:00,86,1.433333333333333,2025-04-22T14:20:19.516+03:00,0.02197104130929222,0
2025-04-30T12:20:05.988+03:00,1746004804.93202,40.95222111515021,29.14027566195204,76.19596,-1,-1,-1,-1,30,20.79919806636867,-9999,12408.59594091667,-0.6485443115234375,0.669677734375,-0.3652496337890625,12408.58586391667,2.799481458728515,-1.055288578192449,-0.7286599072888643,0.03946610912680626,0.0202890932559967,-0.01089134812355042,0.00203096866607666,0.01064330339431763,-0.0003091096878051758,XArbitraryZVertical,-0.4111800667081725,0.3834501268538406,-0.8260429757851331,0.03937188185617332,-0.6491104960441589,0.6658704280853271,-0.3677939176559448,0,0,0,-1,-1,12397.10866675,unknown,2,2025-04-30T12:19:54.497+03:00,2025-04-30T12:00:08.093+03:00,150,1.37288,0,0,123.4218,0,0,2025-04-30T12:20:04.815+03:00,767697604.9175572,0,2.11,100.9393,1,0.8,2025-04-30T12:20:01.402+03:00,86,1.433333333333333,2025-04-22T14:20:19.516+03:00,0.02197104130929222,0
2025-04-30T12:20:05.998+03:00,1746004804.93202,40.95222111515021,29.14027566195204,76.19596,-1,-1,-1,-1,30,20.79919806636867,-9999,12408.60601691667,-0.6482696533203125,0.67144775390625,-0.3665313720703125,12408.59594091667,2.799917374982059,-1.054775416155187,-0.728339695995049,0.04843749850988388,0.02077645063400269,-0.01623178459703922,0.004880964756011963,0.006960749626159668,0.002799391746520996,XArbitraryZVertical,-0.4111019356768929,0.383248120524297,-0.8261756553276529,0.03937097264012619,-0.6491070985794067,0.6656314730644226,-0.3682321608066559,0,0,0,-1,-1,12397.10866675,unknown,2,2025-04-30T12:19:54.497+03:00,2025-04-30T12:00:08.093+03:00,150,1.37288,0,0,123.4218,0,0,2025-04-30T12:20:04.815+03:00,767697604.9175572,0,2.11,100.9393,1,0.8,2025-04-30T12:20:01.402+03:00,86,1.433333333333333,2025-04-22T14:20:19.516+03:00,0.02197104130929222,0
2025-04-30T12:20:06.008+03:00,1746004804.93202,40.95222111515021,29.14027566195204,76.19596,-1,-1,-1,-1,30,20.79919806636867,-9999,12408.61609391667,-0.6477813720703125,0.66876220703125,-0.3647613525390625,12408.60601691667,2.800350232942717,-1.054290659750439,-0.727970945863842,0.04507925361394882,0.01670101657509804,-0.01678052917122841,0.000597536563873291,0.004321575164794922,0.003418296575546265,XArbitraryZVertical,-0.41104244657602,0.3830275812340387,-0.8263079525912506,0.03936186088036053,-0.6491419076919556,0.6653562784194946,-0.3686679601669312,0,0,0,-1,-1,12397.10866675,unknown,2,2025-04-30T12:19:54.497+03:00,2025-04-30T12:00:08.093+03:00,150,1.37288,0,0,123.4218,0,0,2025-04-30T12:20:04.815+03:00,767697604.9175572,0,2.11,100.9393,1,0.8,2025-04-30T12:20:01.402+03:00,86,1.433333333333333,2025-04-22T14:20:19.516+03:00,0.02197104130929222,0
2025-04-30T12:20:06.018+03:00,1746004804.93202,40.95222111515021,29.14027566195204,76.19596,-1,-1,-1,-1,30,20.79919806636867,-9999,12408.62617091667,-0.6478424072265625,0.6633148193359375,-0.3669891357421875,12408.61609391667,2.800702567343752,-1.053899346355027,-0.7276430234866431,0.03526230901479721,0.01516596972942352,-0.0167339239269495,0.0009175539016723633,0.006336390972137451,0.002498388290405273,XArbitraryZVertical,-0.4109996244654813,0.3828373441950791,-0.8264180684241674,0.03934800274362082,-0.6491872668266296,0.6651114225387573,-0.3690297603607178,0,0,0,-1,-1,12397.10866675,unknown,2,2025-04-30T12:19:54.497+03:00,2025-04-30T12:00:08.093+03:00,150,1.37288,0,0,123.4218,0,0,2025-04-30T12:20:04.815+03:00,767697604.9175572,0,2.11,100.9393,1,0.8,2025-04-30T12:20:01.402+03:00,86,1.433333333333333,2025-04-22T14:20:19.516+03:00,0.02197104130929222,0
2025-04-30T12:20:06.029+03:00,1746004804.93202,40.95222111515021,29.14027566195204,76.19596,-1,-1,-1,-1,30,20.79919806636867,-9999,12408.63624691667,-0.647186279296875,0.657806396484375,-0.36944580078125,12408.62617091667,2.800976336604889,-1.053586369160429,-0.7273790242371545,0.03009064868092537,0.01028805784881115,-0.01671411655843258,0.001442849636077881,0.003847956657409668,0.004558295011520386,XArbitraryZVertical,-0.4109640832653886,0.3826861655572243,-0.8265063368767368,0.03933334108576288,-0.6492241621017456,0.6649142503738403,-0.3693196475505829,0,0,0,-1,-1,12397.10866675,unknown,2,2025-04-30T12:19:54.497+03:00,2025-04-30T12:00:08.093+03:00,150,1.37288,0,0,123.4218,0,0,2025-04-30T12:20:04.815+03:00,767697604.9175572,0,2.11,100.9393,1,0.8,2025-04-30T12:20:01.402+03:00,86,1.433333333333333,2025-04-22T14:20:19.516+03:00,0.02197104130929222,0
2025-04-30T12:20:06.039+03:00,1746004804.93202,40.95222111515021,29.14027566195204,76.19596,-1,-1,-1,-1,30,20.79919806636867,-9999,12408.64632391667,-0.64892578125,0.65673828125,-0.3659210205078125,12408.63624691667,2.801168463582088,-1.053369751663352,-0.7271488680578119,0.0230865366756916,0.0063170175999403,-0.01587601937353611,0.001434862613677979,-0.00142747163772583,0.002546906471252441,XArbitraryZVertical,-0.4109473048502095,0.3825627957920616,-0.8265729341461058,0.03931189140258753,-0.6492773294448853,0.6647423505783081,-0.3695360422134399,0,0,0,-1,-1,12397.10866675,unknown,2,2025-04-30T12:19:54.497+03:00,2025-04-30T12:00:08.093+03:00,150,1.37288,0,0,123.4218,0,0,2025-04-30T12:20:04.815+03:00,767697604.9175572,0,2.11,100.9393,1,0.8,2025-04-30T12:20:01.402+03:00,86,1.433333333333333,2025-04-22T14:20:19.516+03:00,0.02197104130929222,0
2025-04-30T12:20:06.049+03:00,1746004804.93202,40.95222111515021,29.14027566195204,76.19596,-1,-1,-1,-1,30,20.79919806636867,-9999,12408.65639991667,-0.6529541015625,0.661834716796875,-0.368255615234375,12408.64632391667,2.801332716348913,-1.053159547031857,-0.726925869343316,0.01930251717567444,0.01311640068888664,-0.01450712233781815,0.002141952514648438,-0.006769359111785889,0.0003000199794769287,XArbitraryZVertical,-0.4109267855979038,0.382447768192854,-0.8266376371257796,0.03928228381893979,-0.6493282318115234,0.6645756959915161,-0.3697457611560822,0,0,0,-1,-1,12397.10866675,unknown,2,2025-04-30T12:19:54.497+03:00,2025-04-30T12:00:08.093+03:00,150,1.37288,0,0,123.4218,0,0,2025-04-30T12:20:04.815+03:00,767697604.9175572,0,2.11,100.9393,1,0.8,2025-04-30T12:20:01.402+03:00,86,1.433333333333333,2025-04-22T14:20:19.516+03:00,0.02197104130929222,0
2025-04-30T12:20:06.059+03:00,1746004804.93202,40.95222111515021,29.14027566195204,76.19596,-1,-1,-1,-1,30,20.79919806636867,-9999,12408.66647691667,-0.6473388671875,0.666961669921875,-0.36834716796875,12408.65639991667,2.801424838557969,-1.052980142703857,-0.7267285237453255,0.01665240526199341,0.01094219647347927,-0.01612472534179688,0.0004500746726989746,-0.007689952850341797,0.00400620698928833,XArbitraryZVertical,-0.4109010969838214,0.3823567580568639,-0.8266947951627027,0.03923519195043731,-0.6493759155273438,0.6644282341003418,-0.3699271976947784,0,0,0,-1,-1,12397.10866675,unknown,2,2025-04-30T12:19:54.497+03:00,2025-04-30T12:00:08.093+03:00,150,1.37288,0,0,123.4218,0,0,2025-04-30T12:20:04.815+03:00,767697604.9175572,0,2.11,100.9393,1,0.8,2025-04-30T12:20:01.402+03:00,86,1.433333333333333,2025-04-22T14:20:19.516+03:00,0.02197104130929222,0
2025-04-30T12:20:06.072+03:00,1746004804.93202,40.95222111515021,29.14027566195204,76.19596,-1,-1,-1,-1,30,20.79919806636867,-9999,12408.67655291667,-0.6475982666015625,0.6651763916015625,-0.3675689697265625,12408.66647691667,2.801507527832196,-1.052831337619725,-0.7265541402061458,0.01688370294868946,0.009199822321534157,-0.01959995180368423,-0.003532648086547852,-0.002463221549987793,0.001825600862503052,XArbitraryZVertical,-0.4108826790378795,0.3822758769849063,-0.8267431685374368,0.03919607280119331,-0.6494214534759521,0.6642979383468628,-0.3700811564922333,0,0,0,-1,-1,12397.10866675,unknown,2,2025-04-30T12:19:54.497+03:00,2025-04-30T12:00:08.093+03:00,150,1.37288,0,0,123.4218,0,0,2025-04-30T12:20:04.815+03:00,767697604.9175572,0,2.11,100.9393,1,0.8,2025-04-30T12:20:01.402+03:00,86,1.433333333333333,2025-04-22T14:20:19.516+03:00,0.02197104130929222,0
2025-04-30T12:20:06.086+03:00,1746004804.93202,40.95222111515021,29.14027566195204,76.19596,-1,-1,-1,-1,30,20.79919806636867,-9999,12408.68662991667,-0.6497802734375,0.6675872802734375,-0.36944580078125,12408.67655291667,2.801587386432276,-1.05264753538979,-0.7263468844391728,0.02370592206716537,0.01535571925342083,-0.02151955664157867,0.002134144306182861,0.002818644046783447,0.001921564340591431,XArbitraryZVertical,-0.4108543661081213,0.3821836544794777,-0.8268024908699774,0.03914061861430652,-0.6494730114936829,0.6641429662704468,-0.370268702507019,0,0,0,-1,-1,12397.10866675,unknown,2,2025-04-30T12:19:54.497+03:00,2025-04-30T12:00:08.093+03:00,150,1.37288,0,0,123.4218,0,0,2025-04-30T12:20:04.815+03:00,767697604.9175572,0,2.11,100.9393,1,0.8,2025-04-30T12:20:01.402+03:00,86,1.433333333333333,2025-04-22T14:20:19.516+03:00,0.02197104130929222,0
2025-04-30T12:20:06.091+03:00,1746004804.93202,40.95222111515021,29.14027566195204,76.19596,-1,-1,-1,-1,30,20.79919806636867,-9999,12408.69670591667,-0.64520263671875,0.66943359375,-0.3670654296875,12408.68662991667,2.801747380600495,-1.05240996617191,-0.7260471033979361,0.03418739140033722,0.01457148417830467,-0.02405472099781036,0.001959741115570068,0.001257598400115967,0.002952694892883301,XArbitraryZVertical,-0.4108335368329241,0.3820405398578556,-0.8268817336589231,0.03908413571248048,-0.6495580673217773,0.6639188528060913,-0.3705216646194458,0,0,0,-1,-1,12397.10866675,unknown,2,2025-04-30T12:19:54.497+03:00,2025-04-30T12:00:08.093+03:00,150,1.37288,0,0,123.4218,0,0,2025-04-30T12:20:04.815+03:00,767697604.9175572,0,2.11,100.9393,1,0.8,2025-04-30T12:20:01.402+03:00,86,1.433333333333333,2025-04-22T14:20:19.516+03:00,0.02197104130929222,0
2025-04-30T12:20:06.099+03:00,1746004804.93202,40.95222111515021,29.14027566195204,76.19596,-1,-1,-1,-1,30,20.79919806636867,-9999,12408.70678291667,-0.64508056640625,0.66900634765625,-0.36065673828125,12408.69670591667,2.801950244967671,-1.052128997043485,-0.725723925866938,0.02926853112876415,0.01839019171893597,-0.02440226264297962,-0.0001401305198669434,0.003910183906555176,0.001364707946777344,XArbitraryZVertical,-0.4108065925108971,0.3818804760349319,-0.8269715442341974,0.0390312054021868,-0.6496402025222778,0.6636771559715271,-0.370810478925705,0,0,0,-1,-1,12397.10866675,unknown,2,2025-04-30T12:19:54.497+03:00,2025-04-30T12:00:08.093+03:00,150,1.37288,0,0,123.4218,0,0,2025-04-30T12:20:04.815+03:00,767697604.9175572,0,2.11,100.9393,1,0.8,2025-04-30T12:20:01.402+03:00,86,1.433333333333333,2025-04-22T14:20:19.516+03:00,0.02197104130929222,0
2025-04-30T12:20:06.110+03:00,1746004804.93202,40.95222111515021,29.14027566195204,76.19596,-1,-1,-1,-1,30,20.79919806636867,-9999,12408.71685991667,-0.6468658447265625,0.653076171875,-0.365264892578125,12408.70678291667,2.802071983488979,-1.051894271392108,-0.7254180392593872,0.02601128630340099,0.01950718834996223,-0.02608055248856544,0.004526734352111816,0.005985379219055176,0.00399819016456604,XArbitraryZVertical,-0.4107805168251006,0.3817427699245911,-0.8270515528049163,0.03895801318126711,-0.6497294306755066,0.6634482741355896,-0.3710636496543884,0,0,0,-1,-1,12397.10866675,unknown,2,2025-04-30T12:19:54.497+03:00,2025-04-30T12:00:08.093+03:00,150,1.37288,0,0,123.4218,0,0,2025-04-30T12:20:04.815+03:00,767697604.9175572,0,2.11,100.9393,1,0.8,2025-04-30T12:20:01.402+03:00,86,1.433333333333333,2025-04-22T14:20:19.516+03:00,0.02197104130929222,0
2025-04-30T12:20:06.119+03:00,1746004804.93202,40.95222111515021,29.14027566195204,76.19596,-1,-1,-1,-1,30,20.79919806636867,-9999,12408.72693591667,-0.6418304443359375,0.6512908935546875,-0.358489990234375,12408.71685991667,2.802228950398227,-1.051614249313005,-0.7251117466143464,0.02752262912690639,0.01887601986527443,-0.01741249673068523,0.004721283912658691,0.005787372589111328,0.01068964600563049,XArbitraryZVertical,-0.4107424509027225,0.381598525198666,-0.8271402289606514,0.03889066947070471,-0.6498019695281982,0.6632190942764282,-0.3713464140892029,0,0,0,-1,-1,12397.10866675,unknown,2,2025-04-30T12:19:54.497+03:00,2025-04-30T12:00:08.093+03:00,150,1.37288,0,0,123.4218,0,0,2025-04-30T12:20:04.815+03:00,767697604.9175572,0,2.11,100.9393,1,0.8,2025-04-30T12:20:01.402+03:00,86,1.433333333333333,2025-04-22T14:20:19.516+03:00,0.02197104130929222,0
2025-04-30T12:20:06.129+03:00,1746004804.93202,40.95222111515021,29.14027566195204,76.19596,-1,-1,-1,-1,30,20.79919806636867,-9999,12408.73701291667,-0.639617919921875,0.660400390625,-0.3531341552734375,12408.72693591667,2.802337734083789,-1.051332973111383,-0.7248909150930565,0.008370774798095226,0.02213306538760662,-0.01191306952387094,0.002958595752716064,-0.009977638721466064,0.006336897611618042,XArbitraryZVertical,-0.4106813628894586,0.3814969599324201,-0.82722034913995,0.03882534591002966,-0.6498244404792786,0.6630538105964661,-0.371601790189743,0,0,0,-1,-1,12397.10866675,unknown,2,2025-04-30T12:19:54.497+03:00,2025-04-30T12:00:08.093+03:00,150,1.37288,0,0,123.4218,0,0,2025-04-30T12:20:04.815+03:00,767697604.9175572,0,2.11,100.9393,1,0.8,2025-04-30T12:20:01.402+03:00,86,1.433333333333333,2025-04-22T14:20:19.516+03:00,0.02197104130929222,0
2025-04-30T12:20:06.139+03:00,1746004804.93202,40.95222111515021,29.14027566195204,76.19596,-1,-1,-1,-1,30,20.79919806636867,-9999,12408.74708891667,-0.6408233642578125,0.6515960693359375,-0.3619384765625,12408.73701291667,2.802310888317192,-1.051135704596197,-0.7247719957016272,-0.0008363065426237881,0.02476773038506508,-0.007158528082072735,0.007989108562469482,-0.01167386770248413,0.01327913999557495,XArbitraryZVertical,-0.4106131795656591,0.3814606790590963,-0.8272746791820563,0.03874600737087368,-0.6498196125030518,0.6629647612571716,-0.37176913022995,0,0,0,-1,-1,12397.10866675,unknown,2,2025-04-30T12:19:54.497+03:00,2025-04-30T12:00:08.093+03:00,150,1.37288,0,0,123.4218,0,0,2025-04-30T12:20:04.815+03:00,767697604.9175572,0,2.11,100.9393,1,0.8,2025-04-30T12:20:01.402+03:00,86,1.433333333333333,2025-04-22T14:20:19.516+03:00,0.02197104130929222,0
2025-04-30T12:20:06.149+03:00,1746004804.93202,40.95222111515021,29.14027566195204,76.19596,-1,-1,-1,-1,30,20.79919806636867,-9999,12408.75716591667,-0.645294189453125,0.650970458984375,-0.36700439453125,12408.74708891667,2.802199318760486,-1.050960950279773,-0.724726668710601,-0.006212562788277864,0.02862118929624557,-0.003013783833011985,0.01016277074813843,-0.002530395984649658,0.01876348257064819,XArbitraryZVertical,-0.4105266839937562,0.3814695763517779,-0.8273177568817306,0.03865488209151756,-0.6497806906700134,0.6629308462142944,-0.3718976080417633,0,0,0,-1,-1,12397.10866675,unknown,2,2025-04-30T12:19:54.497+03:00,2025-04-30T12:00:08.093+03:00,150,1.37288,0,0,123.4218,0,0,2025-04-30T12:20:04.815+03:00,767697604.9175572,0,2.11,100.9393,1,0.8,2025-04-30T12:20:01.402+03:00,86,1.433333333333333,2025-04-22T14:20:19.516+03:00,0.02197104130929222,0
2025-04-30T12:20:06.160+03:00,1746004804.93202,40.95222111515021,29.14027566195204,76.19596,-1,-1,-1,-1,30,20.79919806636867,-9999,12408.76724191667,-0.6446533203125,0.660919189453125,-0.3704376220703125,12408.75716591667,2.802005441246836,-1.050812811608582,-0.724766155566554,-0.01713338680565357,0.02590130642056465,-0.007329436484724283,0.008879542350769043,-0.01136428117752075,0.01004236936569214,XArbitraryZVertical,-0.4104222535560523,0.3815273733620795,-0.827347534783745,0.03855654539806781,-0.6497029066085815,0.662960410118103,-0.3719808757305145,0,0,0,-1,-1,12397.10866675,unknown,2,2025-04-30T12:19:54.497+03:00,2025-04-30T12:00:08.093+03:00,150,1.37288,0,0,123.4218,0,0,2025-04-30T12:20:04.815+03:00,767697604.9175572,0,2.11,100.9393,1,0.8,2025-04-30T12:20:01.402+03:00,86,1.433333333333333,2025-04-22T14:20:19.516+03:00,0.02197104130929222,0
2025-04-30T12:20:06.170+03:00,1746004804.93202,40.95222111515021,29.14027566195204,76.19596,-1,-1,-1,-1,30,20.79919806636867,-9999,12408.77731891667,-0.6409912109375,0.6569061279296875,-0.3750457763671875,12408.76724191667,2.801682555904952,-1.050840825389677,-0.7248497860512029,-0.02524897083640099,0.01382746547460556,-0.009879213757812977,0.004370987415313721,-0.01205247640609741,0.004930734634399414,XArbitraryZVertical,-0.4103591985807816,0.3816251710947322,-0.8273386564354568,0.03844983566416871,-0.6496651768684387,0.6630229949951172,-0.371935099363327,0,0,0,-1,-1,12397.10866675,unknown,2,2025-04-30T12:19:54.497+03:00,2025-04-30T12:00:08.093+03:00,150,1.37288,0,0,123.4218,0,0,2025-04-30T12:20:04.815+03:00,767697604.9175572,0,2.11,100.9393,1,0.8,2025-04-30T12:20:01.402+03:00,86,1.433333333333333,2025-04-22T14:20:19.516+03:00,0.02197104130929222,0
2025-04-30T12:20:06.180+03:00,1746004804.93202,40.95222111515021,29.14027566195204,76.19596,-1,-1,-1,-1,30,20.79919806636867,-9999,12408.78739491667,-0.6418914794921875,0.658966064453125,-0.3767242431640625,12408.77731891667,2.801339200927457,-1.050955449616849,-0.7249061491140835,-0.01695562154054642,0.01080530975013971,-0.009641925804316998,0.005022048950195312,-0.002145946025848389,0.001404464244842529,XArbitraryZVertical,-0.4103322836137749,0.38171503518989,-0.8273154800909183,0.03834414019282503,-0.6496754288673401,0.6630651950836182,-0.371842086315155,0,0,0,-1,-1,12397.10866675,unknown,2,2025-04-30T12:19:54.497+03:00,2025-04-30T12:00:08.093+03:00,150,1.37288,0,0,123.4218,0,0,2025-04-30T12:20:04.815+03:00,767697604.9175572,0,2.11,100.9393,1,0.8,2025-04-30T12:20:01.402+03:00,86,1.433333333333333,2025-04-22T14:20:19.516+03:00,0.02197104130929222,0
2025-04-30T12:20:06.190+03:00,1746004804.93202,40.95222111515021,29.14027566195204,76.19596,-1,-1,-1,-1,30,20.79919806636867,-9999,12408.79747191667,-0.643310546875,0.66754150390625,-0.3743743896484375,12408.78739491667,2.801097771289303,-1.051049393287151,-0.7249373178264839,-0.009208086878061295,0.004453803412616253,-0.01128569524735212,0.008701145648956299,-0.006182372570037842,-0.003274977207183838,XArbitraryZVertical,-0.410320201599832,0.3817747234860422,-0.8272973330264731,0.03827023694384564,-0.6496924161911011,0.6630885004997253,-0.3717707991600037,0,0,0,-1,-1,12397.10866675,unknown,2,2025-04-30T12:19:54.497+03:00,2025-04-30T12:00:08.093+03:00,150,1.37288,0,0,123.4218,0,0,2025-04-30T12:20:04.815+03:00,767697604.9175572,0,2.11,100.9393,1,0.8,2025-04-30T12:20:01.402+03:00,86,1.433333333333333,2025-04-22T14:20:19.516+03:00,0.02197104130929222,0
2025-04-30T12:20:06.200+03:00,1746004804.93202,40.95222111515021,29.14027566195204,76.19596,-1,-1,-1,-1,30,20.79919806636867,-9999,12408.80754891667,-0.6477203369140625,0.663970947265625,-0.371673583984375,12408.79747191667,2.800905362677001,-1.051206306777013,-0.7249676692831587,-0.006190725136548281,0.00350971263833344,-0.008274991996586323,0.007841765880584717,-0.004145145416259766,-0.005065381526947021,XArbitraryZVertical,-0.4103436260969802,0.3818228362617175,-0.827265471608128,0.0382283815039527,-0.649733304977417,0.6631112694740295,-0.3716588616371155,0,0,0,-1,-1,12397.10866675,unknown,2,2025-04-30T12:19:54.497+03:00,2025-04-30T12:00:08.093+03:00,150,1.37288,0,0,123.4218,0,0,2025-04-30T12:20:04.815+03:00,767697604.9175572,0,2.11,100.9393,1,0.8,2025-04-30T12:20:01.402+03:00,86,1.433333333333333,2025-04-22T14:20:19.516+03:00,0.02197104130929222,0
2025-04-30T12:20:06.210+03:00,1746004804.93202,40.95222111515021,29.14027566195204,76.19596,-1,-1,-1,-1,30,20.79919806636867,-9999,12408.81762491667,-0.6535491943359375,0.6633148193359375,-0.3751068115234375,12408.80754891667,2.800785648028535,-1.051258051864713,-0.7248480050884236,0.0001512602029833943,0.008604273200035095,-0.0134439542889595,0.006510794162750244,0.004519879817962646,-0.002709746360778809,XArbitraryZVertical,-0.4103608737843116,0.3818005235318067,-0.8272704563870985,0.03815797533219752,-0.649821400642395,0.6630216836929321,-0.3716646134853363,0,0,0,-1,-1,12397.10866675,unknown,2,2025-04-30T12:19:54.497+03:00,2025-04-30T12:00:08.093+03:00,150,1.37288,0,0,123.4218,0,0,2025-04-30T12:20:04.815+03:00,767697604.9175572,0,2.11,100.9393,1,0.8,2025-04-30T12:20:01.402+03:00,86,1.433333333333333,2025-04-22T14:20:19.516+03:00,0.02197104130929222,0
2025-04-30T12:20:06.220+03:00,1746004804.93202,40.95222111515021,29.14027566195204,76.19596,-1,-1,-1,-1,30,20.79919806636867,-9999,12408.82770191667,-0.6507110595703125,0.6660308837890625,-0.3768768310546875,12408.81762491667,2.80067275906733,-1.051271305200001,-0.7247161316632773,0.003203242784366012,0.01127808727324009,-0.01564772054553032,0.002181828022003174,0.001048028469085693,2.586841583251953e-05,XArbitraryZVertical,-0.4103654096459566,0.381772864188193,-0.8272845711175355,0.03807989111532988,-0.6499022245407104,0.6629229187965393,-0.3716994225978851,0,0,0,-1,-1,12397.10866675,unknown,2,2025-04-30T12:19:54.497+03:00,2025-04-30T12:00:08.093+03:00,150,1.37288,0,0,123.4218,0,0,2025-04-30T12:20:04.815+03:00,767697604.9175572,0,2.11,100.9393,1,0.8,2025-04-30T12:20:01.402+03:00,86,1.433333333333333,2025-04-22T14:20:19.516+03:00,0.02197104130929222,0
2025-04-30T12:20:06.230+03:00,1746004804.93202,40.95222111515021,29.14027566195204,76.19596,-1,-1,-1,-1,30,20.79919806636867,-9999,12408.83777791667,-0.6455230712890625,0.663116455078125,-0.37548828125,12408.82770191667,2.800555802177602,-1.051338926484854,-0.7246331773919888,0.008470975793898106,0.00332562206313014,-0.01495702937245369,-0.003574192523956299,0.0004540085792541504,-0.00342404842376709,XArbitraryZVertical,-0.4103840214816331,0.381763766287515,-0.8272821386549167,0.03802309524726274,-0.649975061416626,0.6628608107566833,-0.3716827630996704,0,0,0,-1,-1,12397.10866675,unknown,2,2025-04-30T12:19:54.497+03:00,2025-04-30T12:00:08.093+03:00,150,1.37288,0,0,123.4218,0,0,2025-04-30T12:20:04.815+03:00,767697604.9175572,0,2.11,100.9393,1,0.8,2025-04-30T12:20:01.402+03:00,86,1.433333333333333,2025-04-22T14:20:19.516+03:00,0.02197104130929222,0
2025-04-30T12:20:06.240+03:00,1746004804.93202,40.95222111515021,29.14027566195204,76.19596,-1,-1,-1,-1,30,20.79919806636867,-9999,12408.84785491667,-0.6473236083984375,0.6560821533203125,-0.3757476806640625,12408.83777791667,2.800519263456466,-1.05135562155791,-0.7244735496915717,0.004152925685048103,0.003086203942075372,-0.01477859728038311,-0.0006380081176757812,0.003289639949798584,-0.005152404308319092,XArbitraryZVertical,-0.4104089126917952,0.3817097376381203,-0.8272971093496949,0.03797015239547394,-0.6500730514526367,0.6627413034439087,-0.371724396944046,0,0,0,-1,-1,12397.10866675,unknown,2,2025-04-30T12:19:54.497+03:00,2025-04-30T12:00:08.093+03:00,150,1.37288,0,0,123.4218,0,0,2025-04-30T12:20:04.815+03:00,767697604.9175572,0,2.11,100.9393,1,0.8,2025-04-30T12:20:01.402+03:00,86,1.433333333333333,2025-04-22T14:20:19.516+03:00,0.02197104130929222,0
2025-04-30T12:20:06.250+03:00,1746004804.93202,40.95222111515021,29.14027566195204,76.19596,-1,-1,-1,-1,30,20.79919806636867,-9999,12408.85793091667,-0.6463165283203125,0.658843994140625,-0.372650146484375,12408.84785491667,2.800457494611413,-1.051342129798904,-0.7242882945984518,0.009006470441818237,0.007622033357620239,-0.01330350525677204,0.00465160608291626,0.000513911247253418,-0.003694117069244385,XArbitraryZVertical,-0.4104204539581796,0.3816516220445355,-0.8273217741067633,0.03789427317554058,-0.6501747369766235,0.6626025438308716,-0.371794193983078,0,0,0,-1,-1,12397.10866675,unknown,2,2025-04-30T12:19:54.497+03:00,2025-04-30T12:00:08.093+03:00,150,1.37288,0,0,123.4218,0,0,2025-04-30T12:20:04.815+03:00,767697604.9175572,0,2.11,100.9393,1,0.8,2025-04-30T12:20:01.402+03:00,86,1.433333333333333,2025-04-22T14:20:19.516+03:00,0.02197104130929222,0
2025-04-30T12:20:06.260+03:00,1746004804.93202,40.95222111515021,29.14027566195204,76.19596,-1,-1,-1,-1,30,20.79919806636867,-9999,12408.86800791667,-0.6440887451171875,0.65692138671875,-0.3753662109375,12408.85793091667,2.800482352505082,-1.051253136825219,-0.7241457202027303,0.007545993197709322,0.004228367004543543,-0.01142144948244095,0.00289994478225708,-0.006413519382476807,-0.003848761320114136,XArbitraryZVertical,-0.410410653775883,0.3815935283742107,-0.8273554319085751,0.0378508885936513,-0.6502236723899841,0.6624957919120789,-0.3718989491462708,0,0,0,-1,-1,12397.10866675,unknown,2,2025-04-30T12:19:54.497+03:00,2025-04-30T12:00:08.093+03:00,150,1.37288,0,0,123.4218,0,0,2025-04-30T12:20:04.815+03:00,767697604.9175572,0,2.11,100.9393,1,0.8,2025-04-30T12:20:01.402+03:00,86,1.433333333333333,2025-04-22T14:20:19.516+03:00,0.02197104130929222,0
2025-04-30T12:20:06.270+03:00,1746004804.93202,40.95222111515021,29.14027566195204,76.19596,-1,-1,-1,-1,30,20.79919806636867,-9999,12408.87808391667,-0.6452178955078125,0.65338134765625,-0.374725341796875,12408.86800791667,2.800476870344853,-1.051166240371548,-0.7240370088406227,-0.002646656706929207,0.004478503949940205,-0.01206243969500065,0.003937125205993652,-0.003570318222045898,-0.0006589889526367188,XArbitraryZVertical,-0.410390682323382,0.3815546098612374,-0.8273853136588135,0.03780419145601285,-0.6502537131309509,0.6624143123626709,-0.3719911277294159,0,0,0,-1,-1,12397.10866675,unknown,2,2025-04-30T12:19:54.497+03:00,2025-04-30T12:00:08.093+03:00,150,1.37288,0,0,123.4218,0,0,2025-04-30T12:20:04.815+03:00,767697604.9175572,0,2.11,100.9393,1,0.8,2025-04-30T12:20:01.402+03:00,86,1.433333333333333,2025-04-22T14:20:19.516+03:00,0.02197104130929222,0
2025-04-30T12:20:06.280+03:00,1746004804.93202,40.95222111515021,29.14027566195204,76.19596,-1,-1,-1,-1,30,20.79919806636867,-9999,12408.88816091667,-0.648162841796875,0.651214599609375,-0.3701019287109375,12408.87808391667,2.800410584999754,-1.051125060863558,-0.7239401131092235,-0.003238943871110678,0.004131227731704712,-0.01370001770555973,0.006205320358276367,-0.005420327186584473,-0.003316402435302734,XArbitraryZVertical,-0.410376135394262,0.3815318253889829,-0.8274057889062177,0.03774398775585249,-0.6502941250801086,0.6623417735099792,-0.3720497786998749,0,0,0,-1,-1,12397.10866675,unknown,2,2025-04-30T12:19:54.497+03:00,2025-04-30T12:00:08.093+03:00,150,1.37288,0,0,123.4218,0,0,2025-04-30T12:20:04.815+03:00,767697604.9175572,0,2.11,100.9393,1,0.8,2025-04-30T12:20:01.402+03:00,86,1.433333333333333,2025-04-22T14:20:19.516+03:00,0.02197104130929222,0
2025-04-30T12:20:06.290+03:00,1746004804.93202,40.95222111515021,29.14027566195204,76.19596,-1,-1,-1,-1,30,20.79919806636867,-9999,12408.89823791667,-0.6495361328125,0.6566619873046875,-0.3715362548828125,12408.88816091667,2.800260313781084,-1.051123868767533,-0.7239006036396779,-0.01154947094619274,0.0113147059455514,-0.01435056049376726,0.005098462104797363,-0.008930742740631104,-0.002661764621734619,XArbitraryZVertical,-0.4103531485133004,0.3815475276619316,-0.8274132518847404,0.03767143425307633,-0.6503163576126099,0.6623121500015259,-0.372063547372818,0,0,0,-1,-1,12397.10866675,unknown,2,2025-04-30T12:19:54.497+03:00,2025-04-30T12:00:08.093+03:00,150,1.37288,0,0,123.4218,0,0,2025-04-30T12:20:04.815+03:00,767697604.9175572,0,2.11,100.9393,1,0.8,2025-04-30T12:20:01.402+03:00,86,1.433333333333333,2025-04-22T14:20:19.516+03:00,0.02197104130929222,0
2025-04-30T12:20:06.301+03:00,1746004804.93202,40.95222111515021,29.14027566195204,76.19596,-1,-1,-1,-1,30,20.79919806636867,-9999,12408.90831391667,-0.6481170654296875,0.660888671875,-0.3741455078125,12408.89823791667,2.800029561878413,-1.051147616747667,-0.7238779045090534,-0.01250820886343718,0.01142948865890503,-0.01111615169793367,0.002175390720367432,-0.01108050346374512,0.001953661441802979,XArbitraryZVertical,-0.4103224874866573,0.3815857169478666,-0.8274152723064373,0.03757463785676443,-0.6503382921218872,0.6622951626777649,-0.3720555901527405,0,0,0,-1,-1,12397.10866675,unknown,2,2025-04-30T12:19:54.497+03:00,2025-04-30T12:00:08.093+03:00,150,1.37288,0,0,123.4218,0,0,2025-04-30T12:20:04.815+03:00,767697604.9175572,0,2.11,100.9393,1,0.8,2025-04-30T12:20:01.402+03:00,86,1.433333333333333,2025-04-22T14:20:19.516+03:00,0.02197104130929222,0
2025-04-30T12:20:06.311+03:00,1746004804.93202,40.95222111515021,29.14027566195204,76.19596,-1,-1,-1,-1,30,20.79919806636867,-9999,12408.91839091667,-0.6515655517578125,0.6561126708984375,-0.3751220703125,12408.90831391667,2.799815034814414,-1.051139649035295,-0.7238354353282711,-0.01234043017029762,0.01686446741223335,-0.009880178608000278,0.0008236169815063477,-0.005601286888122559,0.0005385279655456543,XArbitraryZVertical,-0.4102848707231021,0.3816135855719824,-0.8274257379420072,0.03747336801094975,-0.6503598093986511,0.6622633337974548,-0.3720747828483582,0,0,0,-1,-1,12397.10866675,unknown,2,2025-04-30T12:19:54.497+03:00,2025-04-30T12:00:08.093+03:00,150,1.37288,0,0,123.4218,0,0,2025-04-30T12:20:04.815+03:00,767697604.9175572,0,2.11,100.9393,1,0.8,2025-04-30T12:20:01.402+03:00,86,1.433333333333333,2025-04-22T14:20:19.516+03:00,0.02197104130929222,0
2025-04-30T12:20:06.321+03:00,1746004804.93202,40.95222111515021,29.14027566195204,76.19596,-1,-1,-1,-1,30,20.79919806636867,-9999,12408.92846691667,-0.6523895263671875,0.659210205078125,-0.375946044921875,12408.91839091667,2.799611938968818,-1.051053662450002,-0.7238035172278828,-0.01355776097625494,0.02164803817868233,-0.01138326618820429,0.002229034900665283,-0.001350641250610352,-0.002004295587539673,XArbitraryZVertical,-0.4102155274962707,0.3816446129313869,-0.8274507359343392,0.03736471174947675,-0.6503462195396423,0.6622393727302551,-0.3721412122249603,0,0,0,-1,-1,12397.10866675,unknown,2,2025-04-30T12:19:54.497+03:00,2025-04-30T12:00:08.093+03:00,150,1.37288,0,0,123.4218,0,0,2025-04-30T12:20:04.815+03:00,767697604.9175572,0,2.11,100.9393,1,0.8,2025-04-30T12:20:01.402+03:00,86,1.433333333333333,2025-04-22T14:20:19.516+03:00,0.02197104130929222,0
2025-04-30T12:20:06.331+03:00,1746004804.93202,40.95222111515021,29.14027566195204,76.19596,-1,-1,-1,-1,30,20.79919806636867,-9999,12408.93854391667,-0.649139404296875,0.6644744873046875,-0.37384033203125,12408.92846691667,2.799433993686774,-1.050938358491191,-0.7237719804560084,-0.01035577617585659,0.02239591814577579,-0.0123456995934248,-0.001244246959686279,-0.006103038787841797,-0.002895504236221313,XArbitraryZVertical,-0.4101387995509647,0.3816711646696193,-0.8274811921638748,0.03726098370056889,-0.6503214240074158,0.6622157692909241,-0.3722265660762787,0,0,0,-1,-1,12397.10866675,unknown,2,2025-04-30T12:19:54.497+03:00,2025-04-30T12:00:08.093+03:00,150,1.37288,0,0,123.4218,0,0,2025-04-30T12:20:04.815+03:00,767697604.9175572,0,2.11,100.9393,1,0.8,2025-04-30T12:20:01.402+03:00,86,1.433333333333333,2025-04-22T14:20:19.516+03:00,0.02197104130929222,0
2025-04-30T12:20:06.341+03:00,1746004804.93202,40.95222111515021,29.14027566195204,76.19596,-1,-1,-1,-1,30,20.79919806636867,-9999,12408.94861991667,-0.649169921875,0.66485595703125,-0.3747100830078125,12408.93854391667,2.799212622327807,-1.050831314179455,-0.7236890759138558,-0.01643204502761364,0.02132932282984257,-0.0152373593300581,-0.002060413360595703,-0.002943336963653564,-0.003622561693191528,XArbitraryZVertical,-0.4100652149493276,0.3816867511205987,-0.8275165032446673,0.03712760173626936,-0.6503292322158813,0.6621536612510681,-0.3723234832286835,0,0,0,-1,-1,12397.10866675,unknown,2,2025-04-30T12:19:54.497+03:00,2025-04-30T12:00:08.093+03:00,150,1.37288,0,0,123.4218,0,0,2025-04-30T12:20:04.815+03:00,767697604.9175572,0,2.11,100.9393,1,0.8,2025-04-30T12:20:01.402+03:00,86,1.433333333333333,2025-04-22T14:20:19.516+03:00,0.02197104130929222,0
2025-04-30T12:20:06.351+03:00,1746004804.93202,40.95222111515021,29.14027566195204,76.19596,-1,-1,-1,-1,30,20.79919806636867,-9999,12408.95869691667,-0.6481475830078125,0.6569976806640625,-0.375701904296875,12408.94861991667,2.798953175567454,-1.050818449618126,-0.7236168347119482,-0.0137915862724185,0.01541783846914768,-0.01453844644129276,0.001226365566253662,0.002375006675720215,-0.001484811305999756,XArbitraryZVertical,-0.4100217215927399,0.3817124839774338,-0.8275318067623278,0.03699934123053032,-0.6503658294677734,0.6620994806289673,-0.3723555207252502,0,0,0,-1,-1,12397.10866675,unknown,2,2025-04-30T12:19:54.497+03:00,2025-04-30T12:00:08.093+03:00,150,1.37288,0,0,123.4218,0,0,2025-04-30T12:20:04.815+03:00,767697604.9175572,0,2.11,100.9393,1,0.8,2025-04-30T12:20:01.402+03:00,86,1.433333333333333,2025-04-22T14:20:19.516+03:00,0.02197104130929222,0
2025-04-30T12:20:06.361+03:00,1746004804.93202,40.95222111515021,29.14027566195204,76.19596,-1,-1,-1,-1,30,20.79919806636867,-9999,12408.96877291667,-0.6504669189453125,0.6568450927734375,-0.3730926513671875,12408.95869691667,2.798740517677163,-1.050787243749888,-0.723533956152888,-0.01337133906781673,0.01683969981968403,-0.01630944944918156,0.001231849193572998,0.002818584442138672,-0.002306997776031494,XArbitraryZVertical,-0.409981193344358,0.3817248725379999,-0.8275513034500399,0.03688408917989739,-0.650401771068573,0.6620373725891113,-0.372403085231781,0,0,0,-1,-1,12397.10866675,unknown,2,2025-04-30T12:19:54.497+03:00,2025-04-30T12:00:08.093+03:00,150,1.37288,0,0,123.4218,0,0,2025-04-30T12:20:04.815+03:00,767697604.9175572,0,2.11,100.9393,1,0.8,2025-04-30T12:20:01.402+03:00,86,1.433333333333333,2025-04-22T14:20:19.516+03:00,0.02197104130929222,0
2025-04-30T12:20:06.371+03:00,1746004804.93202,40.95222111515021,29.14027566195204,76.19596,-1,-1,-1,-1,30,20.79919806636867,-9999,12408.97884991667,-0.650482177734375,0.6610870361328125,-0.3731842041015625,12408.96877291667,2.798514811635573,-1.050736807923585,-0.7234144238921144,-0.01327573135495186,0.0146883986890316,-0.01836274564266205,0.002304136753082275,-0.004950106143951416,-0.003226637840270996,XArbitraryZVertical,-0.4099359201759837,0.3817262215119252,-0.8275791442469471,0.03675024049899873,-0.6504517793655396,0.6619477868080139,-0.372475266456604,0,0,0,-1,-1,12397.10866675,unknown,2,2025-04-30T12:19:54.497+03:00,2025-04-30T12:00:08.093+03:00,150,1.37288,0,0,123.4218,0,0,2025-04-30T12:20:04.815+03:00,767697604.9175572,0,2.11,100.9393,1,0.8,2025-04-30T12:20:01.402+03:00,86,1.433333333333333,2025-04-22T14:20:19.516+03:00,0.02197104130929222,0
2025-04-30T12:20:06.381+03:00,1746004804.93202,40.95222111515021,29.14027566195204,76.19596,-1,-1,-1,-1,30,20.79919806636867,-9999,12408.98892591667,-0.646331787109375,0.655303955078125,-0.370819091796875,12408.97884991667,2.798271588873437,-1.050760440733183,-0.7232760692839586,-0.003728566225618124,0.01174986641854048,-0.01792785152792931,7.307529449462891e-05,-0.004998922348022461,-0.0005872249603271484,XArbitraryZVertical,-0.4099209304592689,0.3817225822279983,-0.827594090335073,0.03661851363328707,-0.6505400538444519,0.6618440747261047,-0.372505396604538,0,0,0,-1,-1,12397.10866675,unknown,2,2025-04-30T12:19:54.497+03:00,2025-04-30T12:00:08.093+03:00,150,1.37288,0,0,123.4218,0,0,2025-04-30T12:20:04.815+03:00,767697604.9175572,0,2.11,100.9393,1,0.8,2025-04-30T12:20:01.402+03:00,86,1.433333333333333,2025-04-22T14:20:19.516+03:00,0.02197104130929222,0
2025-04-30T12:20:06.391+03:00,1746004804.93202,40.95222111515021,29.14027566195204,76.19596,-1,-1,-1,-1,30,20.79919806636867,-9999,12408.99900291667,-0.6462249755859375,0.6586456298828125,-0.3685150146484375,12408.98892591667,2.798057014756033,-1.050745487440608,-0.7231324167353206,-0.01089493278414011,0.01919626444578171,-0.01721722260117531,0.0001347064971923828,-0.0006492733955383301,-0.0006218254566192627,XArbitraryZVertical,-0.4098962732515142,0.3817117442188788,-0.8276169937414666,0.03648990185765045,-0.6506170034408569,0.6617364287376404,-0.3725623786449432,0,0,0,-1,-1,12397.10866675,unknown,2,2025-04-30T12:19:54.497+03:00,2025-04-30T12:00:08.093+03:00,150,1.37288,0,0,123.4218,0,0,2025-04-30T12:20:04.815+03:00,767697604.9175572,0,2.11,100.9393,1,0.8,2025-04-30T12:20:01.402+03:00,86,1.433333333333333,2025-04-22T14:20:19.516+03:00,0.02197104130929222,0
2025-04-30T12:20:06.401+03:00,1746004804.93202,40.95222111515021,29.14027566195204,76.19596,-1,-1,-1,-1,30,20.79919806636867,-9999,12409.00907991667,-0.6433868408203125,0.6554718017578125,-0.3751983642578125,12408.99900291667,2.79781191582612,-1.05069996636871,-0.7229949806728837,-0.01230054907500744,0.01682791486382484,-0.02322051674127579,0.004347085952758789,-0.006329357624053955,0.001818060874938965,XArbitraryZVertical,-0.4098521915985069,0.3817101008335332,-0.8276459394762725,0.03634447431600393,-0.6506788730621338,0.6616333723068237,-0.372637152671814,0,0,0,-1,-1,12397.10866675,unknown,2,2025-04-30T12:19:54.497+03:00,2025-04-30T12:00:08.093+03:00,150,1.37288,0,0,123.4218,0,0,2025-04-30T12:20:04.815+03:00,767697604.9175572,0,2.11,100.9393,1,0.8,2025-04-30T12:20:01.402+03:00,86,1.433333333333333,2025-04-22T14:20:19.516+03:00,0.02197104130929222,0
2025-04-30T12:20:06.411+03:00,1746004804.93202,40.95222111515021,29.14027566195204,76.19596,-1,-1,-1,-1,30,20.79919806636867,-9999,12409.01915591667,-0.6456451416015625,0.6457672119140625,-0.37420654296875,12409.00907991667,2.797529812501022,-1.050748149600202,-0.722832842726582,-0.009668547660112381,0.01214261539280415,-0.02116202749311924,0.004564940929412842,-0.002866029739379883,0.004144102334976196,XArbitraryZVertical,-0.4098436629372637,0.3817048574651052,-0.8276591780864143,0.03619515954089304,-0.6507899761199951,0.6615117788314819,-0.3726591467857361,0,0,0,-1,-1,12397.10866675,unknown,2,2025-04-30T12:19:54.497+03:00,2025-04-30T12:00:08.093+03:00,150,1.37288,0,0,123.4218,0,0,2025-04-30T12:20:04.815+03:00,767697604.9175572,0,2.11,100.9393,1,0.8,2025-04-30T12:20:01.402+03:00,86,1.433333333333333,2025-04-22T14:20:19.516+03:00,0.02197104130929222,0
2025-04-30T12:20:06.421+03:00,1746004804.93202,40.95222111515021,29.14027566195204,76.19596,-1,-1,-1,-1,30,20.79919806636867,-9999,12409.02923291667,-0.6538848876953125,0.652801513671875,-0.37060546875,12409.01915591667,2.79721925280037,-1.050775162545855,-0.722710979023352,-0.0223569106310606,0.02166048809885979,-0.01978384144604206,0.007483124732971191,-0.005948543548583984,-0.002516746520996094,XArbitraryZVertical,-0.4098146570647625,0.3817212772499173,-0.8276727269801725,0.0360404325586175,-0.6508700251579285,0.6614204049110413,-0.3726816177368164,0,0,0,-1,-1,12397.10866675,unknown,2,2025-04-30T12:19:54.497+03:00,2025-04-30T12:00:08.093+03:00,150,1.37288,0,0,123.4218,0,0,2025-04-30T12:20:04.815+03:00,767697604.9175572,0,2.11,100.9393,1,0.8,2025-04-30T12:20:01.402+03:00,86,1.433333333333333,2025-04-22T14:20:19.516+03:00,0.02197104130929222,0
2025-04-30T12:20:06.432+03:00,1746004804.93202,40.95222111515021,29.14027566195204,76.19596,-1,-1,-1,-1,30,20.79919806636867,-9999,12409.03930891667,-0.6501922607421875,0.650970458984375,-0.3756256103515625,12409.02923291667,2.796853976889529,-1.050781284325233,-0.7226429322958603,-0.01576445624232292,0.01823412999510765,-0.02088449336588383,0.005266189575195312,-0.01560205221176147,-0.001506507396697998,XArbitraryZVertical,-0.4097581269912619,0.38176991680669,-0.8276855746961974,0.03587290946308218,-0.6509113907814026,0.6613693237304688,-0.3727000057697296,0,0,0,-1,-1,12397.10866675,unknown,2,2025-04-30T12:19:54.497+03:00,2025-04-30T12:00:08.093+03:00,150,1.37288,0,0,123.4218,0,0,2025-04-30T12:20:04.815+03:00,767697604.9175572,0,2.11,100.9393,1,0.8,2025-04-30T12:20:01.402+03:00,86,1.433333333333333,2025-04-22T14:20:19.516+03:00,0.02197104130929222,0
2025-04-30T12:20:06.442+03:00,1746004804.93202,40.95222111515021,29.14027566195204,76.19596,-1,-1,-1,-1,30,20.79919806636867,-9999,12409.04938591667,-0.644927978515625,0.6466064453125,-0.375091552734375,12409.03930891667,2.796509662997673,-1.050859711208217,-0.7225606523931992,-0.02093924582004547,0.01085557695478201,-0.02327707782387733,-0.002897262573242188,-0.008506119251251221,0.002070426940917969,XArbitraryZVertical,-0.409737799654298,0.3818075133318872,-0.8276845994056345,0.03572433860834103,-0.6509876847267151,0.6613076329231262,-0.3726759254932404,0,0,0,-1,-1,12397.10866675,unknown,2,2025-04-30T12:19:54.497+03:00,2025-04-30T12:00:08.093+03:00,150,1.37288,0,0,123.4218,0,0,2025-04-30T12:20:04.815+03:00,767697604.9175572,0,2.11,100.9393,1,0.8,2025-04-30T12:20:01.402+03:00,86,1.433333333333333,2025-04-22T14:20:19.516+03:00,0.02197104130929222,0
2025-04-30T12:20:06.452+03:00,1746004804.93202,40.95222111515021,29.14027566195204,76.19596,-1,-1,-1,-1,30,20.79919806636867,-9999,12409.05946191667,-0.6475830078125,0.652099609375,-0.3705291748046875,12409.04938591667,2.796106966963791,-1.051010695377208,-0.7224437066978497,-0.0236329659819603,0.009934988804161549,-0.02434497140347958,0.0009188055992126465,-0.01024943590164185,-0.003009587526321411,XArbitraryZVertical,-0.4097417506261172,0.3818424889811762,-0.8276737228636347,0.03555642690246785,-0.6511110663414001,0.6612198948860168,-0.3726160228252411,0,0,0,-1,-1,12397.10866675,unknown,2,2025-04-30T12:19:54.497+03:00,2025-04-30T12:00:08.093+03:00,150,1.37288,0,0,123.4218,0,0,2025-04-30T12:20:04.815+03:00,767697604.9175572,0,2.11,100.9393,1,0.8,2025-04-30T12:20:01.402+03:00,86,1.433333333333333,2025-04-22T14:20:19.516+03:00,0.02197104130929222,0
2025-04-30T12:20:06.463+03:00,1746004804.93202,40.95222111515021,29.14027566195204,76.19596,-1,-1,-1,-1,30,20.79919806636867,-9999,12409.06953891667,-0.65155029296875,0.6546630859375,-0.3746185302734375,12409.05946191667,2.795625582956274,-1.051223444460891,-0.7223331802565405,-0.02863278426229954,0.009315004572272301,-0.02639933302998543,0.006325721740722656,-0.01453053951263428,-0.002577751874923706,XArbitraryZVertical,-0.4097552365155151,0.3818949729879537,-0.8276508101761471,0.03536941536591112,-0.6512537002563477,0.6611369848251343,-0.3725137412548065,0,0,0,-1,-1,12397.10866675,unknown,2,2025-04-30T12:19:54.497+03:00,2025-04-30T12:00:08.093+03:00,150,1.37288,0,0,123.4218,0,0,2025-04-30T12:20:04.815+03:00,767697604.9175572,0,2.11,100.9393,1,0.8,2025-04-30T12:20:01.402+03:00,86,1.433333333333333,2025-04-22T14:20:19.516+03:00,0.02197104130929222,0
2025-04-30T12:20:06.472+03:00,1746004804.93202,40.95222111515021,29.14027566195204,76.19596,-1,-1,-1,-1,30,20.79919806636867,-9999,12409.07961491667,-0.6496429443359375,0.6566314697265625,-0.3756256103515625,12409.06953891667,2.79513249230748,-1.05146019442863,-0.7222171912852238,-0.02272256277501583,0.003801861777901649,-0.03045685961842537,0.003825485706329346,-0.008950352668762207,0.001868516206741333,XArbitraryZVertical,-0.4097772455815429,0.3819473650038959,-0.8276238185907434,0.03518066685122283,-0.6514084935188293,0.6610499620437622,-0.3723976314067841,0,0,0,-1,-1,12397.10866675,unknown,2,2025-04-30T12:19:54.497+03:00,2025-04-30T12:00:08.093+03:00,150,1.37288,0,0,123.4218,0,0,2025-04-30T12:20:04.815+03:00,767697604.9175572,0,2.11,100.9393,1,0.8,2025-04-30T12:20:01.402+03:00,86,1.433333333333333,2025-04-22T14:20:19.516+03:00,0.02197104130929222,0
2025-04-30T12:20:06.482+03:00,1746004804.93202,40.95222111515021,29.14027566195204,76.19596,-1,-1,-1,-1,30,20.79919806636867,-9999,12409.08969191667,-0.6456146240234375,0.657501220703125,-0.372283935546875,12409.07961491667,2.794616227308832,-1.051759978044014,-0.7220666747240545,-0.02720359899103642,0.003275887342169881,-0.03272853419184685,5.620718002319336e-05,-0.006273925304412842,-0.002366811037063599,XArbitraryZVertical,-0.4098263403498711,0.3819902079353554,-0.8275880253338681,0.03498549752988111,-0.6516065001487732,0.6609370112419128,-0.3722516894340515,0,0,0,-1,-1,12397.10866675,unknown,2,2025-04-30T12:19:54.497+03:00,2025-04-30T12:00:08.093+03:00,150,1.37288,0,0,123.4218,0,0,2025-04-30T12:20:04.815+03:00,767697604.9175572,0,2.11,100.9393,1,0.8,2025-04-30T12:20:01.402+03:00,86,1.433333333333333,2025-04-22T14:20:19.516+03:00,0.02197104130929222,0
2025-04-30T12:20:06.492+03:00,1746004804.93202,40.95222111515021,29.14027566195204,76.19596,-1,-1,-1,-1,30,20.79919806636867,-9999,12409.09976891667,-0.645294189453125,0.656524658203125,-0.3760833740234375,12409.08969191667,2.794051829654947,-1.05212689202516,-0.7219161299679643,-0.03033480979502201,-0.0005240440368652344,-0.03651681542396545,0.00218653678894043,-0.004192471504211426,-0.003563642501831055,XArbitraryZVertical,-0.4098940076771301,0.3820417866186374,-0.8275392826189687,0.03478319456128662,-0.6518295407295227,0.6608240008354187,-0.3720619380474091,0,0,0,-1,-1,12397.10866675,unknown,2,2025-04-30T12:19:54.497+03:00,2025-04-30T12:00:08.093+03:00,150,1.37288,0,0,123.4218,0,0,2025-04-30T12:20:04.815+03:00,767697604.9175572,0,2.11,100.9393,1,0.8,2025-04-30T12:20:01.402+03:00,86,1.433333333333333,2025-04-22T14:20:19.516+03:00,0.02197104130929222,0
2025-04-30T12:20:06.502+03:00,1746004804.93202,40.95222111515021,29.14027566195204,76.19596,-1,-1,-1,-1,30,20.79919806636867,-9999,12409.10984491667,-0.645538330078125,0.653076171875,-0.3763275146484375,12409.09976891667,2.79348640527907,-1.052516256357167,-0.7217475184340493,-0.03375670686364174,-0.007962519302964211,-0.0378103144466877,0.006456434726715088,-0.003196179866790771,-0.0004206299781799316,XArbitraryZVertical,-0.4099736278331716,0.3820863388035267,-0.8274877681687051,0.03458016984356615,-0.6520711183547974,0.6606974601745605,-0.3718633055686951,0,0,0,-1,-1,12397.10866675,unknown,2,2025-04-30T12:19:54.497+03:00,2025-04-30T12:00:08.093+03:00,150,1.37288,0,0,123.4218,0,0,2025-04-30T12:20:04.815+03:00,767697604.9175572,0,2.11,100.9393,1,0.8,2025-04-30T12:20:01.402+03:00,86,1.433333333333333,2025-04-22T14:20:19.516+03:00,0.02197104130929222,0
2025-04-30T12:20:06.512+03:00,1746004804.93202,40.95222111515021,29.14027566195204,76.19596,-1,-1,-1,-1,30,20.79919806636867,-9999,12409.11992191667,-0.6481781005859375,0.64727783203125,-0.3740997314453125,12409.10984491667,2.792811408933771,-1.05305548508123,-0.721563793843507,-0.04059676826000214,-0.01190825924277306,-0.03794626891613007,0.007082819938659668,-0.004034817218780518,-0.004511654376983643,XArbitraryZVertical,-0.4100966714725949,0.3821450674248532,-0.8274090290896373,0.03435650415879264,-0.6523770689964294,0.6605595350265503,-0.3715717494487762,0,0,0,-1,-1,12397.10866675,unknown,2,2025-04-30T12:19:54.497+03:00,2025-04-30T12:00:08.093+03:00,150,1.37288,0,0,123.4218,0,0,2025-04-30T12:20:04.815+03:00,767697604.9175572,0,2.11,100.9393,1,0.8,2025-04-30T12:20:01.402+03:00,86,1.433333333333333,2025-04-22T14:20:19.516+03:00,0.02197104130929222,0
2025-04-30T12:20:06.522+03:00,1746004804.93202,40.95222111515021,29.14027566195204,76.19596,-1,-1,-1,-1,30,20.79919806636867,-9999,12409.12999791667,-0.6572418212890625,0.646942138671875,-0.374908447265625,12409.11992191667,2.792012703220304,-1.053687476296013,-0.7214187259938584,-0.04854550585150719,-0.005879661068320274,-0.04111303389072418,0.007156610488891602,-0.007374465465545654,-0.005120843648910522,XArbitraryZVertical,-0.4102283885287987,0.3822425149163801,-0.8273088230665449,0.03410954098300602,-0.6526948809623718,0.6604506373405457,-0.371206670999527,0,0,0,-1,-1,12397.10866675,unknown,2,2025-04-30T12:19:54.497+03:00,2025-04-30T12:00:08.093+03:00,150,1.37288,0,0,123.4218,0,0,2025-04-30T12:20:04.815+03:00,767697604.9175572,0,2.11,100.9393,1,0.8,2025-04-30T12:20:01.402+03:00,86,1.433333333333333,2025-04-22T14:20:19.516+03:00,0.02197104130929222,0
2025-04-30T12:20:06.532+03:00,1746004804.93202,40.95222111515021,29.14027566195204,76.19596,-1,-1,-1,-1,30,20.79919806636867,-9999,12409.14007491667,-0.6576385498046875,0.6528167724609375,-0.376220703125,12409.12999791667,2.791210401871871,-1.054229792194023,-0.7212504137614384,-0.04639041051268578,-0.00210669357329607,-0.04209490492939949,0.004814624786376953,-0.01304638385772705,-0.00319218635559082,XArbitraryZVertical,-0.4103259062766511,0.3823334659187103,-0.8272296008560766,0.03383786306733429,-0.6529927849769592,0.6603242158889771,-0.3709075450897217,0,0,0,-1,-1,12397.10866675,unknown,2,2025-04-30T12:19:54.497+03:00,2025-04-30T12:00:08.093+03:00,150,1.37288,0,0,123.4218,0,0,2025-04-30T12:20:04.815+03:00,767697604.9175572,0,2.11,100.9393,1,0.8,2025-04-30T12:20:01.402+03:00,86,1.433333333333333,2025-04-22T14:20:19.516+03:00,0.02197104130929222,0
2025-04-30T12:20:06.542+03:00,1746004804.93202,40.95222111515021,29.14027566195204,76.19596,-1,-1,-1,-1,30,20.79919806636867,-9999,12409.15015091667,-0.65240478515625,0.667755126953125,-0.3769073486328125,12409.14007491667,2.790429636810709,-1.054730926142313,-0.7210421057793408,-0.04470090195536613,-0.00328008271753788,-0.04894375801086426,-0.00394362211227417,-0.01322555541992188,-0.004260271787643433,XArbitraryZVertical,-0.4104167639456337,0.3824055149192855,-0.8271627829764768,0.03355681031038434,-0.6532983183860779,0.6601677536964417,-0.370648205280304,0,0,0,-1,-1,12397.10866675,unknown,2,2025-04-30T12:19:54.497+03:00,2025-04-30T12:00:08.093+03:00,150,1.37288,0,0,123.4218,0,0,2025-04-30T12:20:04.815+03:00,767697604.9175572,0,2.11,100.9393,1,0.8,2025-04-30T12:20:01.402+03:00,86,1.433333333333333,2025-04-22T14:20:19.516+03:00,0.02197104130929222,0
2025-04-30T12:20:06.552+03:00,1746004804.93202,40.95222111515021,29.14027566195204,76.19596,-1,-1,-1,-1,30,20.79919806636867,-9999,12409.16022754167,-0.65106201171875,0.6680450439453125,-0.3771820068359375,12409.15015091667,2.789621527658084,-1.055297508586339,-0.7207368864568283,-0.03649383783340454,-0.007432483602315187,-0.0611218623816967,-0.003955185413360596,-0.007121741771697998,-0.005843430757522583,XArbitraryZVertical,-0.4105448584955173,0.3824451630395832,-0.8270930710429306,0.03325215136056033,-0.6536833643913269,0.6599385142326355,-0.370377242565155,0,0,0,-1,-1,12397.10866675,unknown,2,2025-04-30T12:19:54.497+03:00,2025-04-30T12:00:08.093+03:00,150,1.37288,0,0,123.4218,0,0,2025-04-30T12:20:04.815+03:00,767697604.9175572,0,2.11,100.9393,1,0.8,2025-04-30T12:20:01.402+03:00,86,1.433333333333333,2025-04-22T14:20:19.516+03:00,0.02197104130929222,0
2025-04-30T12:20:06.563+03:00,1746004804.93202,40.95222111515021,29.14027566195204,76.19596,-1,-1,-1,-1,30,20.79919806636867,-9999,12409.17030354167,-0.6543426513671875,0.6546783447265625,-0.374664306640625,12409.16022754167,2.788762895458074,-1.055888856288078,-0.7203302204645361,-0.04061774164438248,-0.001410810276865959,-0.06879016757011414,0.001731038093566895,0.008122265338897705,-0.006784558296203613,XArbitraryZVertical,-0.4106895369880642,0.382456150606005,-0.8270301206979568,0.03290488608023679,-0.6541358828544617,0.6596329212188721,-0.3701227903366089,0,0,0,-1,-1,12397.10866675,unknown,2,2025-04-30T12:19:54.497+03:00,2025-04-30T12:00:08.093+03:00,150,1.37288,0,0,123.4218,0,0,2025-04-30T12:20:04.815+03:00,767697604.9175572,0,2.11,100.9393,1,0.8,2025-04-30T12:20:01.402+03:00,86,1.433333333333333,2025-04-22T14:20:19.516+03:00,0.02197104130929222,0
2025-04-30T12:20:06.573+03:00,1746004804.93202,40.95222111515021,29.14027566195204,76.19596,-1,-1,-1,-1,30,20.79919806636867,-9999,12409.18038054167,-0.653717041015625,0.656097412109375,-0.3760528564453125,12409.17030354167,2.787835105998393,-1.056499484861301,-0.7198808679237927,-0.04031427577137947,-0.005935919936746359,-0.07601525634527206,0.003557682037353516,0.008749961853027344,-0.007312953472137451,XArbitraryZVertical,-0.4108358059943254,0.3824649268146087,-0.8269685342392555,0.03252173115589185,-0.6546197533607483,0.6592950820922852,-0.3698690533638,0,0,0,-1,-1,12397.10866675,unknown,2,2025-04-30T12:19:54.497+03:00,2025-04-30T12:00:08.093+03:00,150,1.37288,0,0,123.4218,0,0,2025-04-30T12:20:04.815+03:00,767697604.9175572,0,2.11,100.9393,1,0.8,2025-04-30T12:20:01.402+03:00,86,1.433333333333333,2025-04-22T14:20:19.516+03:00,0.02197104130929222,0
2025-04-30T12:20:06.583+03:00,1746004804.93202,40.95222111515021,29.14027566195204,76.19596,-1,-1,-1,-1,30,20.79919806636867,-9999,12409.19045754167,-0.6482086181640625,0.6642913818359375,-0.37738037109375,12409.18038054167,2.786800216876519,-1.057259289638016,-0.7193940096356325,-0.04867793247103691,-0.01562157087028027,-0.08807804435491562,0.0008373260498046875,-0.004250586032867432,-0.005135118961334229,XArbitraryZVertical,-0.4110292646284832,0.3824792173123674,-0.8268817452992735,0.03211303995658395,-0.655180037021637,0.6589289903640747,-0.3695291876792908,0,0,0,-1,-1,12397.10866675,unknown,2,2025-04-30T12:19:54.497+03:00,2025-04-30T12:00:08.093+03:00,150,1.37288,0,0,123.4218,0,0,2025-04-30T12:20:04.815+03:00,767697604.9175572,0,2.11,100.9393,1,0.8,2025-04-30T12:20:01.402+03:00,86,1.433333333333333,2025-04-22T14:20:19.516+03:00,0.02197104130929222,0
2025-04-30T12:20:06.593+03:00,1746004804.93202,40.95222111515021,29.14027566195204,76.19596,-1,-1,-1,-1,30,20.79919806636867,-9999,12409.20053354167,-0.647308349609375,0.6591339111328125,-0.379638671875,12409.19045754167,2.785687242512754,-1.058126907639675,-0.7188036735852967,-0.04493652284145355,-0.0224774144589901,-0.1006031930446625,0.002122223377227783,-0.002387344837188721,-0.00690150260925293,XArbitraryZVertical,-0.4112688289290614,0.3824686477395777,-0.8267848077211207,0.03166573623547025,-0.6558393239974976,0.6584848165512085,-0.3691513538360596,0,0,0,-1,-1,12397.10866675,unknown,2,2025-04-30T12:19:54.497+03:00,2025-04-30T12:00:08.093+03:00,150,1.37288,0,0,123.4218,0,0,2025-04-30T12:20:04.815+03:00,767697604.9175572,0,2.11,100.9393,1,0.8,2025-04-30T12:20:01.402+03:00,86,1.433333333333333,2025-04-22T14:20:19.516+03:00,0.02197104130929222,0
2025-04-30T12:20:06.616+03:00,1746004804.93202,40.95222111515021,29.14027566195204,76.19596,-1,-1,-1,-1,30,20.79919806636867,-9999,12409.21061054167,-0.650787353515625,0.6514434814453125,-0.3757781982421875,12409.20053354167,2.784541781014008,-1.059032594477822,-0.7181051818378201,-0.04521402716636658,-0.0178363211452961,-0.1069750711321831,0.00836557149887085,0.0063323974609375,-0.008597999811172485,XArbitraryZVertical,-0.4115352434172301,0.3824232902874832,-0.8266914550025855,0.03118423249200826,-0.6565741896629333,0.6579589247703552,-0.3687823414802551,0,0,0,-1,-1,12397.10866675,unknown,2,2025-04-30T12:19:54.497+03:00,2025-04-30T12:00:08.093+03:00,150,1.37288,0,0,123.4218,0,0,2025-04-30T12:20:04.815+03:00,767697604.9175572,0,2.11,100.9393,1,0.8,2025-04-30T12:20:01.402+03:00,86,1.433333333333333,2025-04-22T14:20:19.516+03:00,0.02197104130929222,0
2025-04-30T12:20:06.618+03:00,1746004804.93202,40.95222111515021,29.14027566195204,76.19596,-1,-1,-1,-1,30,20.79919806636867,-9999,12409.22068654167,-0.6514892578125,0.655426025390625,-0.3684844970703125,12409.21061054167,2.783308793520314,-1.059970264866518,-0.7173136430320878,-0.04726552218198776,-0.01843373477458954,-0.117656908929348,0.01006549596786499,0.001771271228790283,-0.01121759414672852,XArbitraryZVertical,-0.4118130306247526,0.3823604126564211,-0.8266023282048562,0.03064820696069456,-0.6573739051818848,0.657362699508667,-0.3684210777282715,0,0,0,-1,-1,12397.10866675,unknown,2,2025-04-30T12:19:54.497+03:00,2025-04-30T12:00:08.093+03:00,150,1.37288,0,0,123.4218,0,0,2025-04-30T12:20:04.815+03:00,767697604.9175572,0,2.11,100.9393,1,0.8,2025-04-30T12:20:01.402+03:00,86,1.433333333333333,2025-04-22T14:20:19.516+03:00,0.02197104130929222,0
2025-04-30T12:20:06.624+03:00,1746004804.93202,40.95222111515021,29.14027566195204,76.19596,-1,-1,-1,-1,30,20.79919806636867,-9999,12409.23076354167,-0.64459228515625,0.656890869140625,-0.3709869384765625,12409.22068654167,2.782064532317445,-1.06095574958272,-0.7163718409194019,-0.03890665993094444,-0.02289799228310585,-0.1339133828878403,0.007489323616027832,-0.005209147930145264,-0.007703125476837158,XArbitraryZVertical,-0.4121325771044078,0.382242347894358,-0.826518623933954,0.03007749187425592,-0.6582767367362976,0.6566526889801025,-0.368075042963028,0,0,0,-1,-1,12397.10866675,unknown,2,2025-04-30T12:19:54.497+03:00,2025-04-30T12:00:08.093+03:00,150,1.37288,0,0,123.4218,0,0,2025-04-30T12:20:04.815+03:00,767697604.9175572,0,2.11,100.9393,1,0.8,2025-04-30T12:20:01.402+03:00,86,1.433333333333333,2025-04-22T14:20:19.516+03:00,0.02197104130929222,0
2025-04-30T12:20:06.633+03:00,1746004804.93202,40.95222111515021,29.14027566195204,76.19596,-1,-1,-1,-1,30,20.79919806636867,-9999,12409.24083954167,-0.6377716064453125,0.657745361328125,-0.3669586181640625,12409.23076354167,2.780684983815794,-1.062165036685926,-0.7152766040978272,-0.03669270873069763,-0.04783177003264427,-0.1501558274030685,0.00785982608795166,-0.0004001855850219727,-0.0008556842803955078,XArbitraryZVertical,-0.4125434476784505,0.3820909750279896,-0.8264061526403541,0.02945336833300863,-0.6593491435050964,0.6558262705802917,-0.3676287829875946,0,0,0,-1,-1,12397.10866675,unknown,2,2025-04-30T12:19:54.497+03:00,2025-04-30T12:00:08.093+03:00,150,1.37288,0,0,123.4218,0,0,2025-04-30T12:20:04.815+03:00,767697604.9175572,0,2.11,100.9393,1,0.8,2025-04-30T12:20:01.402+03:00,86,1.433333333333333,2025-04-22T14:20:19.516+03:00,0.02197104130929222,0
2025-04-30T12:20:06.643+03:00,1746004804.93202,40.95222111515021,29.14027566195204,76.19596,-1,-1,-1,-1,30,20.79919806636867,-9999,12409.25091654167,-0.640045166015625,0.6557464599609375,-0.36627197265625,12409.24083954167,2.779297358974884,-1.063621066771749,-0.714090483865495,-0.0313408188521862,-0.06764090061187744,-0.1693098098039627,0.01597082614898682,0.001960575580596924,-0.003941059112548828,XArbitraryZVertical,-0.413069557664228,0.3819039109388294,-0.826251055515449,0.02884908444175395,-0.6605631709098816,0.6549303531646729,-0.3670458793640137,0,0,0,-1,-1,12397.10866675,unknown,2,2025-04-30T12:19:54.497+03:00,2025-04-30T12:00:08.093+03:00,150,1.37288,0,0,123.4218,0,0,2025-04-30T12:20:04.815+03:00,767697604.9175572,0,2.11,100.9393,1,0.8,2025-04-30T12:20:01.402+03:00,86,1.433333333333333,2025-04-22T14:20:19.516+03:00,0.02197104130929222,0
2025-04-30T12:20:06.654+03:00,1746004804.93202,40.95222111515021,29.14027566195204,76.19596,-1,-1,-1,-1,30,20.79919806636867,-9999,12409.26099254167,-0.65069580078125,0.6436767578125,-0.367889404296875,12409.25091654167,2.777886094335968,-1.065251404780044,-0.7127481284563777,-0.03376396372914314,-0.0823952704668045,-0.1810103803873062,0.02415758371353149,0.003830015659332275,-0.0005647540092468262,XArbitraryZVertical,-0.4136884312994449,0.3816607751376615,-0.8260752151019654,0.02822700280706473,-0.6619292497634888,0.6539154052734375,-0.3663938641548157,0,0,0,-1,-1,12397.10866675,unknown,2,2025-04-30T12:19:54.497+03:00,2025-04-30T12:00:08.093+03:00,150,1.37288,0,0,123.4218,0,0,2025-04-30T12:20:04.815+03:00,767697604.9175572,0,2.11,100.9393,1,0.8,2025-04-30T12:20:01.402+03:00,86,1.433333333333333,2025-04-22T14:20:19.516+03:00,0.02197104130929222,0
2025-04-30T12:20:06.663+03:00,1746004804.93202,40.95222111515021,29.14027566195204,76.19596,-1,-1,-1,-1,30,20.79919806636867,-9999,12409.27106954167,-0.6532745361328125,0.636810302734375,-0.363677978515625,12409.26099254167,2.776216664277328,-1.067196393337137,-0.7112943766769275,-0.05113842710852623,-0.09935108572244644,-0.1990239918231964,0.02342730760574341,0.002931654453277588,-0.0007078945636749268,XArbitraryZVertical,-0.414406186201198,0.3814255820946517,-0.8258475882518308,0.02752859060340262,-0.6634724736213684,0.6528148055076599,-0.3655640780925751,0,0,0,-1,-1,12397.10866675,unknown,2,2025-04-30T12:19:54.497+03:00,2025-04-30T12:00:08.093+03:00,150,1.37288,0,0,123.4218,0,0,2025-04-30T12:20:04.815+03:00,767697604.9175572,0,2.11,100.9393,1,0.8,2025-04-30T12:20:01.402+03:00,86,1.433333333333333,2025-04-22T14:20:19.516+03:00,0.02197104130929222,0
2025-04-30T12:20:06.673+03:00,1746004804.93202,40.95222111515021,29.14027566195204,76.19596,-1,-1,-1,-1,30,20.79919806636867,-9999,12409.28114654167,-0.6545562744140625,0.63995361328125,-0.363525390625,12409.27106954167,2.774396240313421,-1.069445514703051,-0.709732392583231,-0.05063781887292862,-0.1225842982530594,-0.2123804688453674,0.01449060440063477,-0.007954061031341553,-0.003328830003738403,XArbitraryZVertical,-0.4152384441363117,0.3811781166069349,-0.8255678370670747,0.02679667334094818,-0.6651864051818848,0.6516308188438416,-0.3645605444908142,0,0,0,-1,-1,12397.10866675,unknown,2,2025-04-30T12:19:54.497+03:00,2025-04-30T12:00:08.093+03:00,150,1.37288,0,0,123.4218,0,0,2025-04-30T12:20:04.815+03:00,767697604.9175572,0,2.11,100.9393,1,0.8,2025-04-30T12:20:01.402+03:00,86,1.433333333333333,2025-04-22T14:20:19.516+03:00,0.02197104130929222,0
2025-04-30T12:20:06.683+03:00,1746004804.93202,40.95222111515021,29.14027566195204,76.19596,-1,-1,-1,-1,30,20.79919806636867,-9999,12409.29122254167,-0.6597137451171875,0.6432952880859375,-0.362518310546875,12409.28114654167,2.772451188800424,-1.07191725178642,-0.708128577368336,-0.05329485237598419,-0.1336886137723923,-0.229568749666214,0.01372784376144409,-0.0136030912399292,-0.0002630949020385742,XArbitraryZVertical,-0.4161458988869879,0.3809398127968397,-0.8252450467648933,0.02604378373636051,-0.6670024394989014,0.6504133939743042,-0.3634149134159088,0,0,0,-1,-1,12397.10866675,unknown,2,2025-04-30T12:19:54.497+03:00,2025-04-30T12:00:08.093+03:00,150,1.37288,0,0,123.4218,0,0,2025-04-30T12:20:04.815+03:00,767697604.9175572,0,2.11,100.9393,1,0.8,2025-04-30T12:20:01.402+03:00,86,1.433333333333333,2025-04-22T14:20:19.516+03:00,0.02197104130929222,0
2025-04-30T12:20:06.694+03:00,1746004804.93202,40.95222111515021,29.14027566195204,76.19596,-1,-1,-1,-1,30,20.79919806636867,-9999,12409.30129954167,-0.663330078125,0.6503143310546875,-0.3628082275390625,12409.29122254167,2.770512606256647,-1.074500099522756,-0.7063255612026353,-0.04519125074148178,-0.1476660817861557,-0.2451093047857285,0.01441270112991333,-0.009089112281799316,-0.001276642084121704,XArbitraryZVertical,-0.4171329374476109,0.3806254422690264,-0.8249160719211097,0.02526141107402602,-0.6689690351486206,0.6490428447723389,-0.3622487783432007,0,0,0,-1,-1,12397.10866675,unknown,2,2025-04-30T12:19:54.497+03:00,2025-04-30T12:00:08.093+03:00,150,1.37288,0,0,123.4218,0,0,2025-04-30T12:20:04.815+03:00,767697604.9175572,0,2.11,100.9393,1,0.8,2025-04-30T12:20:01.402+03:00,86,1.433333333333333,2025-04-22T14:20:19.516+03:00,0.02197104130929222,0
2025-04-30T12:20:06.704+03:00,1746004804.93202,40.95222111515021,29.14027566195204,76.19596,-1,-1,-1,-1,30,20.79919806636867,-9999,12409.31137554167,-0.664642333984375,0.6501617431640625,-0.3614044189453125,12409.30129954167,2.768611572408753,-1.077149814951041,-0.7043309975616647,-0.03415857627987862,-0.1549058854579926,-0.2581303119659424,0.01135122776031494,-0.004228889942169189,-0.001430809497833252,XArbitraryZVertical,-0.4181861636581291,0.3802322745248998,-0.8245881680364883,0.02445572927789186,-0.6710650324821472,0.6475241780281067,-0.3610875010490417,0,0,0,-1,-1,12397.10866675,unknown,2,2025-04-30T12:19:54.497+03:00,2025-04-30T12:00:08.093+03:00,150,1.37288,0,0,123.4218,0,0,2025-04-30T12:20:04.815+03:00,767697604.9175572,0,2.11,100.9393,1,0.8,2025-04-30T12:20:01.402+03:00,86,1.433333333333333,2025-04-22T14:20:19.516+03:00,0.02197104130929222,0
2025-04-30T12:20:06.714+03:00,1746004804.93202,40.95222111515021,29.14027566195204,76.19596,-1,-1,-1,-1,30,20.79919806636867,-9999,12409.32145254167,-0.6660919189453125,0.6458587646484375,-0.3612518310546875,12409.31137554167,2.766727551058985,-1.079937810282906,-0.7022006097087174,-0.02296970412135124,-0.1727119088172913,-0.2709699869155884,0.009954094886779785,0.00441509485244751,-0.002943575382232666,XArbitraryZVertical,-0.4193220259246156,0.3797850930552634,-0.8242410087444496,0.02364572752421069,-0.6732842326164246,0.64589923620224,-0.3598646521568298,0,0,0,-1,-1,12397.10866675,unknown,2,2025-04-30T12:19:54.497+03:00,2025-04-30T12:00:08.093+03:00,150,1.37288,0,0,123.4218,0,0,2025-04-30T12:20:04.815+03:00,767697604.9175572,0,2.11,100.9393,1,0.8,2025-04-30T12:20:01.402+03:00,86,1.433333333333333,2025-04-22T14:20:19.516+03:00,0.02197104130929222,0
2025-04-30T12:20:06.724+03:00,1746004804.93202,40.95222111515021,29.14027566195204,76.19596,-1,-1,-1,-1,30,20.79919806636867,-9999,12409.33152854167,-0.6689910888671875,0.6523590087890625,-0.3636474609375,12409.32145254167,2.764993108035533,-1.082743941854858,-0.6999173408042565,-0.0003083348274230957,-0.1837850660085678,-0.2852349579334259,0.01094985008239746,0.006007254123687744,-0.002739936113357544,XArbitraryZVertical,-0.4205190601414127,0.3792512176828201,-0.823899072522944,0.02285866755511487,-0.6755921840667725,0.6441544890403748,-0.3586644530296326,0,0,0,-1,-1,12397.10866675,unknown,2,2025-04-30T12:19:54.497+03:00,2025-04-30T12:00:08.093+03:00,150,1.37288,0,0,123.4218,0,0,2025-04-30T12:20:04.815+03:00,767697604.9175572,0,2.11,100.9393,1,0.8,2025-04-30T12:20:01.402+03:00,86,1.433333333333333,2025-04-22T14:20:19.516+03:00,0.02197104130929222,0
2025-04-30T12:20:06.734+03:00,1746004804.93202,40.95222111515021,29.14027566195204,76.19596,-1,-1,-1,-1,30,20.79919806636867,-9999,12409.34160554167,-0.674713134765625,0.6558074951171875,-0.3632049560546875,12409.33152854167,2.763475587777053,-1.08544308231377,-0.6974251472432732,0.02572412975132465,-0.1842947453260422,-0.2994058728218079,0.01188379526138306,0.00361257791519165,-0.003664284944534302,XArbitraryZVertical,-0.4217474801825921,0.3785964995241928,-0.8235934383374269,0.02208313406225909,-0.6779757142066956,0.6422461867332458,-0.3575875163078308,0,0,0,-1,-1,12397.10866675,unknown,2,2025-04-30T12:19:54.497+03:00,2025-04-30T12:00:08.093+03:00,150,1.37288,0,0,123.4218,0,0,2025-04-30T12:20:04.815+03:00,767697604.9175572,0,2.11,100.9393,1,0.8,2025-04-30T12:20:01.402+03:00,86,1.433333333333333,2025-04-22T14:20:19.516+03:00,0.02197104130929222,0
2025-04-30T12:20:06.744+03:00,1746004804.93202,40.95222111515021,29.14027566195204,76.19596,-1,-1,-1,-1,30,20.79919806636867,-9999,12409.35168154167,-0.67401123046875,0.6555938720703125,-0.3644866943359375,12409.34160554167,2.762213737467809,-1.08804615522622,-0.6946926200590479,0.05242205411195755,-0.1963814944028854,-0.3081679344177246,0.01146495342254639,0.01220965385437012,-0.007012635469436646,XArbitraryZVertical,-0.4230242060970233,0.3778003819450028,-0.8233240155009841,0.02132864937651474,-0.6804560422897339,0.6401492953300476,-0.356634795665741,0,0,0,-1,-1,12397.10866675,unknown,2,2025-04-30T12:19:54.497+03:00,2025-04-30T12:00:08.093+03:00,150,1.37288,0,0,123.4218,0,0,2025-04-30T12:20:04.815+03:00,767697604.9175572,0,2.11,100.9393,1,0.8,2025-04-30T12:20:01.402+03:00,86,1.433333333333333,2025-04-22T14:20:19.516+03:00,0.02197104130929222,0
2025-04-30T12:20:06.754+03:00,1746004804.93202,40.95222111515021,29.14027566195204,76.19596,-1,-1,-1,-1,30,20.79919806636867,-9999,12409.36175854167,-0.673492431640625,0.6468963623046875,-0.3636627197265625,12409.35168154167,2.761195248739734,-1.090630971398315,-0.6916628799818861,0.07858534902334213,-0.2090359032154083,-0.3192785978317261,0.008379518985748291,0.01798868179321289,-0.007435888051986694,XArbitraryZVertical,-0.4243878775276465,0.3768426993441741,-0.8230799332147215,0.02058902295743196,-0.6830926537513733,0.6378188133239746,-0.355769008398056,0,0,0,-1,-1,12397.10866675,unknown,2,2025-04-30T12:19:54.497+03:00,2025-04-30T12:00:08.093+03:00,150,1.37288,0,0,123.4218,0,0,2025-04-30T12:20:04.815+03:00,767697604.9175572,0,2.11,100.9393,1,0.8,2025-04-30T12:20:01.402+03:00,86,1.433333333333333,2025-04-22T14:20:19.516+03:00,0.02197104130929222,0
2025-04-30T12:20:06.764+03:00,1746004804.93202,40.95222111515021,29.14027566195204,76.19596,-1,-1,-1,-1,30,20.79919806636867,-9999,12409.37183454167,-0.6762542724609375,0.6381378173828125,-0.358001708984375,12409.36175854167,2.760393627667129,-1.093196721902694,-0.6884716155932862,0.09393154829740524,-0.2168741226196289,-0.3207124173641205,0.01179623603820801,0.02023625373840332,-0.009537637233734131,XArbitraryZVertical,-0.4258108086903379,0.3757800350632923,-0.822848135139935,0.01988896986718578,-0.6858075261116028,0.635357677936554,-0.354949027299881,0,0,0,-1,-1,12397.10866675,unknown,2,2025-04-30T12:19:54.497+03:00,2025-04-30T12:00:08.093+03:00,150,1.37288,0,0,123.4218,0,0,2025-04-30T12:20:04.815+03:00,767697604.9175572,0,2.11,100.9393,1,0.8,2025-04-30T12:20:01.402+03:00,86,1.433333333333333,2025-04-22T14:20:19.516+03:00,0.02197104130929222,0
2025-04-30T12:20:06.774+03:00,1746004804.93202,40.95222111515021,29.14027566195204,76.19596,-1,-1,-1,-1,30,20.79919806636867,-9999,12409.38191154167,-0.6822357177734375,0.631378173828125,-0.3549041748046875,12409.37183454167,2.759616374004629,-1.095953559412915,-0.6851318403528089,0.1024135202169418,-0.2299850583076477,-0.3218269348144531,0.01517432928085327,0.01412129402160645,-0.00963747501373291,XArbitraryZVertical,-0.4273409288566432,0.3746560003223269,-0.8225839778405598,0.0191920062605489,-0.688666820526123,0.6327751278877258,-0.3540252149105072,0,0,0,-1,-1,12397.10866675,unknown,2,2025-04-30T12:19:54.497+03:00,2025-04-30T12:00:08.093+03:00,150,1.37288,0,0,123.4218,0,0,2025-04-30T12:20:04.815+03:00,767697604.9175572,0,2.11,100.9393,1,0.8,2025-04-30T12:20:01.402+03:00,86,1.433333333333333,2025-04-22T14:20:19.516+03:00,0.02197104130929222,0
2025-04-30T12:20:06.784+03:00,1746004804.93202,40.95222111515021,29.14027566195204,76.19596,-1,-1,-1,-1,30,20.79919806636867,-9999,12409.39198854167,-0.6856842041015625,0.6223907470703125,-0.35308837890625,12409.38191154167,2.75891638550294,-1.09875278458651,-0.681794104103611,0.1019024550914764,-0.2397247701883316,-0.3151684999465942,0.01527804136276245,0.007950782775878906,-0.004947185516357422,XArbitraryZVertical,-0.4289023579225519,0.3735177320161275,-0.8223041238741815,0.01853185771282568,-0.6915323734283447,0.6301870346069336,-0.35305455327034,0,0,0,-1,-1,12397.10866675,unknown,2,2025-04-30T12:19:54.497+03:00,2025-04-30T12:00:08.093+03:00,150,1.37288,0,0,123.4218,0,0,2025-04-30T12:20:04.815+03:00,767697604.9175572,0,2.11,100.9393,1,0.8,2025-04-30T12:20:01.402+03:00,86,1.433333333333333,2025-04-22T14:20:19.516+03:00,0.02197104130929222,0
2025-04-30T12:20:06.794+03:00,1746004804.93202,40.95222111515021,29.14027566195204,76.19596,-1,-1,-1,-1,30,20.79919806636867,-9999,12409.40206454167,-0.6905059814453125,0.6133575439453125,-0.356414794921875,12409.39198854167,2.758243789405368,-1.101659834718622,-0.6785439236586261,0.09589050710201263,-0.2537879943847656,-0.3043147027492523,0.01214319467544556,0.003717958927154541,-0.002937346696853638,XArbitraryZVertical,-0.4304987759169527,0.3724075622175906,-0.8219867125669457,0.0179234156605065,-0.6943789124488831,0.6276601552963257,-0.3519668281078339,0,0,0,-1,-1,12397.10866675,unknown,2,2025-04-30T12:19:54.497+03:00,2025-04-30T12:00:08.093+03:00,150,1.37288,0,0,123.4218,0,0,2025-04-30T12:20:04.815+03:00,767697604.9175572,0,2.11,100.9393,1,0.8,2025-04-30T12:20:01.402+03:00,86,1.433333333333333,2025-04-22T14:20:19.516+03:00,0.02197104130929222,0
2025-04-30T12:20:06.804+03:00,1746004804.93202,40.95222111515021,29.14027566195204,76.19596,-1,-1,-1,-1,30,20.79919806636867,-9999,12409.41214154167,-0.692413330078125,0.609893798828125,-0.35418701171875,12409.40206454167,2.757571517307197,-1.104724558544788,-0.6754838214625524,0.08583254367113113,-0.270459920167923,-0.286146879196167,0.01148277521133423,-0.002884209156036377,-0.002389729022979736,XArbitraryZVertical,-0.4321287740627079,0.3713696244398761,-0.8216124498399898,0.01739198288877881,-0.6971670389175415,0.6252749562263489,-0.3506986498832703,0,0,0,-1,-1,12397.10866675,unknown,2,2025-04-30T12:19:54.497+03:00,2025-04-30T12:00:08.093+03:00,150,1.37288,0,0,123.4218,0,0,2025-04-30T12:20:04.815+03:00,767697604.9175572,0,2.11,100.9393,1,0.8,2025-04-30T12:20:01.402+03:00,86,1.433333333333333,2025-04-22T14:20:19.516+03:00,0.02197104130929222,0
2025-04-30T12:20:06.814+03:00,1746004804.93202,40.95222111515021,29.14027566195204,76.19596,-1,-1,-1,-1,30,20.79919806636867,-9999,12409.42221754167,-0.6936798095703125,0.6082611083984375,-0.3466339111328125,12409.41214154167,2.756957251921566,-1.10786682828837,-0.6726281895524658,0.08274313807487488,-0.2764955759048462,-0.2626317739486694,0.009354293346405029,-0.009686291217803955,-0.007112622261047363,XArbitraryZVertical,-0.4337678688826924,0.3703975522133728,-0.821196628347881,0.0169508058219173,-0.6998603343963623,0.6230438947677612,-0.3493021726608276,0,0,0,-1,-1,12397.10866675,unknown,2,2025-04-30T12:19:54.497+03:00,2025-04-30T12:00:08.093+03:00,150,1.37288,0,0,123.4218,0,0,2025-04-30T12:20:04.815+03:00,767697604.9175572,0,2.11,100.9393,1,0.8,2025-04-30T12:20:01.402+03:00,86,1.433333333333333,2025-04-22T14:20:19.516+03:00,0.02197104130929222,0
2025-04-30T12:20:06.824+03:00,1746004804.93202,40.95222111515021,29.14027566195204,76.19596,-1,-1,-1,-1,30,20.79919806636867,-9999,12409.43229454167,-0.694915771484375,0.608367919921875,-0.3410491943359375,12409.42221754167,2.75647139808591,-1.110947828361104,-0.6700049676183994,0.08246856927871704,-0.2725836634635925,-0.2367866039276123,0.009982049465179443,-0.01109611988067627,-0.006318598985671997,XArbitraryZVertical,-0.4353674231726565,0.3694874987694289,-0.8207669232226472,0.01661084973009032,-0.7023953795433044,0.6209898591041565,-0.3478683829307556,0,0,0,-1,-1,12397.10866675,unknown,2,2025-04-30T12:19:54.497+03:00,2025-04-30T12:00:08.093+03:00,150,1.37288,0,0,123.4218,0,0,2025-04-30T12:20:04.815+03:00,767697604.9175572,0,2.11,100.9393,1,0.8,2025-04-30T12:20:01.402+03:00,86,1.433333333333333,2025-04-22T14:20:19.516+03:00,0.02197104130929222,0
2025-04-30T12:20:06.834+03:00,1746004804.93202,40.95222111515021,29.14027566195204,76.19596,-1,-1,-1,-1,30,20.79919806636867,-9999,12409.44237054167,-0.69842529296875,0.60382080078125,-0.341522216796875,12409.43229454167,2.756135667192615,-1.113869795112657,-0.667621485962912,0.08269074559211731,-0.2625895440578461,-0.2117258161306381,0.01105523109436035,-0.01085877418518066,-0.0001673400402069092,XArbitraryZVertical,-0.4368900293870228,0.3686378045412254,-0.8203447142217035,0.01636539129084157,-0.7047350406646729,0.6191198825836182,-0.3464665412902832,0,0,0,-1,-1,12397.10866675,unknown,2,2025-04-30T12:19:54.497+03:00,2025-04-30T12:00:08.093+03:00,150,1.37288,0,0,123.4218,0,0,2025-04-30T12:20:04.815+03:00,767697604.9175572,0,2.11,100.9393,1,0.8,2025-04-30T12:20:01.402+03:00,86,1.433333333333333,2025-04-22T14:20:19.516+03:00,0.02197104130929222,0
2025-04-30T12:20:06.845+03:00,1746004804.93202,40.95222111515021,29.14027566195204,76.19596,-1,-1,-1,-1,30,20.79919806636867,-9999,12409.45244754167,-0.71197509765625,0.598480224609375,-0.34222412109375,12409.44237054167,2.755935063871084,-1.116534101203439,-0.6654573666381595,0.08048085123300552,-0.2395156621932983,-0.1873040944337845,0.01194220781326294,-0.009051024913787842,0.004125654697418213,XArbitraryZVertical,-0.4382956999803263,0.3678443353706735,-0.8199546325209449,0.01618501390001665,-0.7068580389022827,0.6174190044403076,-0.3451748490333557,0,0,0,-1,-1,12397.10866675,unknown,2,2025-04-30T12:19:54.497+03:00,2025-04-30T12:00:08.093+03:00,150,1.37288,0,0,123.4218,0,0,2025-04-30T12:20:04.815+03:00,767697604.9175572,0,2.11,100.9393,1,0.8,2025-04-30T12:20:01.402+03:00,86,1.433333333333333,2025-04-22T14:20:19.516+03:00,0.02197104130929222,0
2025-04-30T12:20:06.855+03:00,1746004804.93202,40.95222111515021,29.14027566195204,76.19596,-1,-1,-1,-1,30,20.79919806636867,-9999,12409.46252354167,-0.7188720703125,0.58831787109375,-0.345947265625,12409.45244754167,2.755921896351698,-1.118833528472609,-0.6635537097353165,0.08191296458244324,-0.2155531942844391,-0.154123842716217,0.0102805495262146,-0.01209956407546997,0.00253903865814209,XArbitraryZVertical,-0.4395435687013133,0.3671114701191369,-0.819616991233674,0.01608348012011533,-0.7087059020996094,0.61592036485672,-0.3440612256526947,0,0,0,-1,-1,12397.10866675,unknown,2,2025-04-30T12:19:54.497+03:00,2025-04-30T12:00:08.093+03:00,150,1.37288,0,0,123.4218,0,0,2025-04-30T12:20:04.815+03:00,767697604.9175572,0,2.11,100.9393,1,0.8,2025-04-30T12:20:01.402+03:00,86,1.433333333333333,2025-04-22T14:20:19.516+03:00,0.02197104130929222,0
2025-04-30T12:20:06.865+03:00,1746004804.93202,40.95222111515021,29.14027566195204,76.19596,-1,-1,-1,-1,30,20.79919806636867,-9999,12409.47260054167,-0.7235565185546875,0.5791168212890625,-0.34710693359375,12409.46252354167,2.75601989429823,-1.120845196341429,-0.6619408640033687,0.07544174790382385,-0.1941877156496048,-0.1258392035961151,-0.001684904098510742,-0.01616871356964111,0.0008423328399658203,XArbitraryZVertical,-0.4406463420911254,0.3664663110557229,-0.8193141688545211,0.01605242145694436,-0.710290253162384,0.6146489381790161,-0.3430664837360382,0,0,0,-1,-1,12397.10866675,unknown,2,2025-04-30T12:19:54.497+03:00,2025-04-30T12:00:08.093+03:00,150,1.37288,0,0,123.4218,0,0,2025-04-30T12:20:04.815+03:00,767697604.9175572,0,2.11,100.9393,1,0.8,2025-04-30T12:20:01.402+03:00,86,1.433333333333333,2025-04-22T14:20:19.516+03:00,0.02197104130929222,0
2025-04-30T12:20:06.875+03:00,1746004804.93202,40.95222111515021,29.14027566195204,76.19596,-1,-1,-1,-1,30,20.79919806636867,-9999,12409.48267754167,-0.7281951904296875,0.5705108642578125,-0.3471527099609375,12409.47260054167,2.756195035450618,-1.122607113077472,-0.6606420565773078,0.05748805031180382,-0.1754180192947388,-0.09448141604661942,-0.007259726524353027,-0.0253061056137085,-0.003787130117416382,XArbitraryZVertical,-0.4416097937644271,0.3659245090988349,-0.8190366993424826,0.01609196760494812,-0.711612343788147,0.6136239171028137,-0.3421600759029388,0,0,0,-1,-1,12397.10866675,unknown,2,2025-04-30T12:19:54.497+03:00,2025-04-30T12:00:08.093+03:00,150,1.37288,0,0,123.4218,0,0,2025-04-30T12:20:04.815+03:00,767697604.9175572,0,2.11,100.9393,1,0.8,2025-04-30T12:20:01.402+03:00,86,1.433333333333333,2025-04-22T14:20:19.516+03:00,0.02197104130929222,0
2025-04-30T12:20:06.885+03:00,1746004804.93202,40.95222111515021,29.14027566195204,76.19596,-1,-1,-1,-1,30,20.79919806636867,-9999,12409.49275354167,-0.7425079345703125,0.565826416015625,-0.3336181640625,12409.48267754167,2.756212272539401,-1.124248950929417,-0.6597666389999355,0.01960378885269165,-0.1499113291501999,-0.06178845092654228,-0.01089900732040405,-0.03381562232971191,-0.005883753299713135,XArbitraryZVertical,-0.4424264327576396,0.3655779697879043,-0.8187494670464266,0.01615968779138311,-0.7126575708389282,0.6129325032234192,-0.3412232100963593,0,0,0,-1,-1,12397.10866675,unknown,2,2025-04-30T12:19:54.497+03:00,2025-04-30T12:00:08.093+03:00,150,1.37288,0,0,123.4218,0,0,2025-04-30T12:20:04.815+03:00,767697604.9175572,0,2.11,100.9393,1,0.8,2025-04-30T12:20:01.402+03:00,86,1.433333333333333,2025-04-22T14:20:19.516+03:00,0.02197104130929222,0
2025-04-30T12:20:06.895+03:00,1746004804.93202,40.95222111515021,29.14027566195204,76.19596,-1,-1,-1,-1,30,20.79919806636867,-9999,12409.50283054167,-0.7628936767578125,0.559539794921875,-0.3322906494140625,12409.49275354167,2.756015099196286,-1.125674890295744,-0.6592823555594781,-0.003803001483902335,-0.1054421365261078,-0.0378747284412384,-0.01478409767150879,-0.04203879833221436,-0.006818324327468872,XArbitraryZVertical,-0.4430522146187171,0.365427878357979,-0.8184770789878963,0.01620697878845486,-0.7134112119674683,0.6125497817993164,-0.340334415435791,0,0,0,-1,-1,12397.10866675,unknown,2,2025-04-30T12:19:54.497+03:00,2025-04-30T12:00:08.093+03:00,150,1.37288,0,0,123.4218,0,0,2025-04-30T12:20:04.815+03:00,767697604.9175572,0,2.11,100.9393,1,0.8,2025-04-30T12:20:01.402+03:00,86,1.433333333333333,2025-04-22T14:20:19.516+03:00,0.02197104130929222,0
2025-04-30T12:20:06.905+03:00,1746004804.93202,40.95222111515021,29.14027566195204,76.19596,-1,-1,-1,-1,30,20.79919806636867,-9999,12409.51290654167,-0.763092041015625,0.57403564453125,-0.3344573974609375,12409.50283054167,2.755768045797926,-1.126715054445771,-0.6590672981603849,-0.01363725587725639,-0.07031078636646271,-0.01560564246028662,-0.02862423658370972,-0.04655331373214722,0.00603058934211731,XArbitraryZVertical,-0.4434674307232684,0.365393318272233,-0.8182669850422158,0.01623702147597448,-0.7138836979866028,0.6123797297477722,-0.3396487236022949,0,0,0,-1,-1,12397.10866675,unknown,2,2025-04-30T12:19:54.497+03:00,2025-04-30T12:00:08.093+03:00,150,1.37288,0,0,123.4218,0,0,2025-04-30T12:20:04.815+03:00,767697604.9175572,0,2.11,100.9393,1,0.8,2025-04-30T12:20:01.402+03:00,86,1.433333333333333,2025-04-22T14:20:19.516+03:00,0.02197104130929222,0
2025-04-30T12:20:06.915+03:00,1746004804.93202,40.95222111515021,29.14027566195204,76.19596,-1,-1,-1,-1,30,20.79919806636867,-9999,12409.52298354167,-0.751007080078125,0.591094970703125,-0.3327178955078125,12409.51290654167,2.755593074598743,-1.127430735279238,-0.6591073394916177,-0.01330442819744349,-0.04962394759058952,0.008111504837870598,-0.04878926277160645,-0.05287152528762817,0.006836563348770142,XArbitraryZVertical,-0.4437217618835655,0.3654413573106928,-0.8181062825590475,0.01630714731485216,-0.7141045331954956,0.6124114394187927,-0.3391272127628326,0,0,0,-1,-1,12397.10866675,unknown,2,2025-04-30T12:19:54.497+03:00,2025-04-30T12:00:08.093+03:00,150,1.37288,0,0,123.4218,0,0,2025-04-30T12:20:04.815+03:00,767697604.9175572,0,2.11,100.9393,1,0.8,2025-04-30T12:20:01.402+03:00,86,1.433333333333333,2025-04-22T14:20:19.516+03:00,0.02197104130929222,0
2025-04-30T12:20:06.925+03:00,1746004804.93202,40.95222111515021,29.14027566195204,76.19596,-1,-1,-1,-1,30,20.79919806636867,-9999,12409.53305954167,-0.7494659423828125,0.587493896484375,-0.3381500244140625,12409.52298354167,2.755530310674497,-1.127888018256783,-0.6593009635477246,-0.01283890753984451,-0.03089180216193199,0.02463988214731216,-0.04893970489501953,-0.03852874040603638,0.004292428493499756,XArbitraryZVertical,-0.4438660442117347,0.3655243156433383,-0.8179887287475111,0.0164181609321962,-0.7141523957252502,0.6125644445419312,-0.3387498259544373,0,0,0,-1,-1,12397.10866675,unknown,2,2025-04-30T12:19:54.497+03:00,2025-04-30T12:00:08.093+03:00,150,1.37288,0,0,123.4218,0,0,2025-04-30T12:20:04.815+03:00,767697604.9175572,0,2.11,100.9393,1,0.8,2025-04-30T12:20:01.402+03:00,86,1.433333333333333,2025-04-22T14:20:19.516+03:00,0.02197104130929222,0
2025-04-30T12:20:06.935+03:00,1746004804.93202,40.95222111515021,29.14027566195204,76.19596,-1,-1,-1,-1,30,20.79919806636867,-9999,12409.54313654167,-0.74969482421875,0.5837249755859375,-0.33428955078125,12409.53305954167,2.755551282015777,-1.128131630154571,-0.6596253897956484,-0.009681396186351776,-0.01897222734987736,0.03591933473944664,-0.03695189952850342,-0.02172577381134033,0.005772799253463745,XArbitraryZVertical,-0.4439170623533977,0.3656395626129124,-0.8179066935973875,0.01656027628301178,-0.7140552997589111,0.6128208637237549,-0.3384906947612762,0,0,0,-1,-1,12397.10866675,unknown,2,2025-04-30T12:19:54.497+03:00,2025-04-30T12:00:08.093+03:00,150,1.37288,0,0,123.4218,0,0,2025-04-30T12:20:04.815+03:00,767697604.9175572,0,2.11,100.9393,1,0.8,2025-04-30T12:20:01.402+03:00,86,1.433333333333333,2025-04-22T14:20:19.516+03:00,0.02197104130929222,0
2025-04-30T12:20:06.946+03:00,1746004804.93202,40.95222111515021,29.14027566195204,76.19596,-1,-1,-1,-1,30,20.79919806636867,-9999,12409.55321254167,-0.744598388671875,0.5866851806640625,-0.33148193359375,12409.54313654167,2.755660824100864,-1.128229454814532,-0.6599998771889597,-0.01448094565421343,-0.01845903508365154,0.04393118992447853,-0.03558504581451416,-0.02562278509140015,0.0001724958419799805,XArbitraryZVertical,-0.4439165594888451,0.3657551370183764,-0.8178519097434208,0.01672575624670197,-0.7138809561729431,0.6131167411804199,-0.3383225500583649,0,0,0,-1,-1,12397.10866675,unknown,2,2025-04-30T12:19:54.497+03:00,2025-04-30T12:00:08.093+03:00,150,1.37288,0,0,123.4218,0,0,2025-04-30T12:20:04.815+03:00,767697604.9175572,0,2.11,100.9393,1,0.8,2025-04-30T12:20:01.402+03:00,86,1.433333333333333,2025-04-22T14:20:19.516+03:00,0.02197104130929222,0
2025-04-30T12:20:06.956+03:00,1746004804.93202,40.95222111515021,29.14027566195204,76.19596,-1,-1,-1,-1,30,20.79919806636867,-9999,12409.56328954167,-0.7387237548828125,0.5916595458984375,-0.334228515625,12409.55321254167,2.755782473259967,-1.128375813665878,-0.6604081513001336,-0.01219635270535946,-0.02679006941616535,0.05090394243597984,-0.03599071502685547,-0.02971416711807251,0.003821283578872681,XArbitraryZVertical,-0.4439326422233926,0.3658802837310489,-0.817783325179406,0.01691433083466079,-0.7137041687965393,0.6134392619132996,-0.3381108641624451,0,0,0,-1,-1,12397.10866675,unknown,2,2025-04-30T12:19:54.497+03:00,2025-04-30T12:00:08.093+03:00,150,1.37288,0,0,123.4218,0,0,2025-04-30T12:20:04.815+03:00,767697604.9175572,0,2.11,100.9393,1,0.8,2025-04-30T12:20:01.402+03:00,86,1.433333333333333,2025-04-22T14:20:19.516+03:00,0.02197104130929222,0
2025-04-30T12:20:06.966+03:00,1746004804.93202,40.95222111515021,29.14027566195204,76.19596,-1,-1,-1,-1,30,20.79919806636867,-9999,12409.57336654167,-0.736724853515625,0.593231201171875,-0.330657958984375,12409.56328954167,2.755923376103846,-1.128620587416211,-0.6607963718648903,-0.01478680968284607,-0.04146568477153778,0.05154097080230713,-0.03102684020996094,-0.02706050872802734,0.006352275609970093,XArbitraryZVertical,-0.4439957161055181,0.3659927480848578,-0.8176944187300801,0.01712328487734887,-0.7135716676712036,0.6137458086013794,-0.3378342390060425,0,0,0,-1,-1,12397.10866675,unknown,2,2025-04-30T12:19:54.497+03:00,2025-04-30T12:00:08.093+03:00,150,1.37288,0,0,123.4218,0,0,2025-04-30T12:20:04.815+03:00,767697604.9175572,0,2.11,100.9393,1,0.8,2025-04-30T12:20:01.402+03:00,86,1.433333333333333,2025-04-22T14:20:19.516+03:00,0.02197104130929222,0
2025-04-30T12:20:06.976+03:00,1746004804.93202,40.95222111515021,29.14027566195204,76.19596,-1,-1,-1,-1,30,20.79919806636867,-9999,12409.58344254167,-0.7362213134765625,0.5955963134765625,-0.3160552978515625,12409.57336654167,2.75605272070728,-1.128990415543631,-0.6611656399775632,-0.01800117827951908,-0.05133875459432602,0.06058656424283981,-0.02523231506347656,-0.02237772941589355,0.00324481725692749,XArbitraryZVertical,-0.4441108904630675,0.366099523735285,-0.8175792748575446,0.01734534754090759,-0.7134914994239807,0.6140372753143311,-0.3374733030796051,0,0,0,-1,-1,12397.10866675,unknown,2,2025-04-30T12:19:54.497+03:00,2025-04-30T12:00:08.093+03:00,150,1.37288,0,0,123.4218,0,0,2025-04-30T12:20:04.815+03:00,767697604.9175572,0,2.11,100.9393,1,0.8,2025-04-30T12:20:01.402+03:00,86,1.433333333333333,2025-04-22T14:20:19.516+03:00,0.02197104130929222,0
2025-04-30T12:20:06.986+03:00,1746004804.93202,40.95222111515021,29.14027566195204,76.19596,-1,-1,-1,-1,30,20.79919806636867,-9999,12409.59351954167,-0.736297607421875,0.595916748046875,-0.3093414306640625,12409.58344254167,2.756048009797114,-1.129577209730709,-0.6615874317990202,-0.0331692136824131,-0.05286288261413574,0.06943412125110626,-0.02326971292495728,-0.02113890647888184,0.006286025047302246,XArbitraryZVertical,-0.4442816071220443,0.3662538158312412,-0.8174127516155381,0.01756662745044744,-0.7134552001953125,0.6143701672554016,-0.3369439840316772,0,0,0,-1,-1,12397.10866675,unknown,2,2025-04-30T12:19:54.497+03:00,2025-04-30T12:00:08.093+03:00,150,1.37288,0,0,123.4218,0,0,2025-04-30T12:20:04.815+03:00,767697604.9175572,0,2.11,100.9393,1,0.8,2025-04-30T12:20:01.402+03:00,86,1.433333333333333,2025-04-22T14:20:19.516+03:00,0.02197104130929222,0
2025-04-30T12:20:06.996+03:00,1746004804.93202,40.95222111515021,29.14027566195204,76.19596,-1,-1,-1,-1,30,20.79919806636867,-9999,12409.60359554167,-0.7338714599609375,0.5947418212890625,-0.3116302490234375,12409.59351954167,2.755861676354525,-1.13037921177052,-0.6620224015718555,-0.05011463910341263,-0.0590941458940506,0.08180316537618637,-0.02273803949356079,-0.01911699771881104,0.02020242810249329,XArbitraryZVertical,-0.4445048314730345,0.3664513873298615,-0.8171985965458738,0.01775701700424464,-0.7134832739830017,0.6147132515907288,-0.336257666349411,0,0,0,-1,-1,12397.10866675,unknown,2,2025-04-30T12:19:54.497+03:00,2025-04-30T12:00:08.093+03:00,150,1.37288,0,0,123.4218,0,0,2025-04-30T12:20:04.815+03:00,767697604.9175572,0,2.11,100.9393,1,0.8,2025-04-30T12:20:01.402+03:00,86,1.433333333333333,2025-04-22T14:20:19.516+03:00,0.02197104130929222,0
2025-04-30T12:20:07.006+03:00,1746004804.93202,40.95222111515021,29.14027566195204,76.19596,-1,-1,-1,-1,30,20.79919806636867,-9999,12409.61367254167,-0.7312469482421875,0.5992889404296875,-0.3162689208984375,12409.60359554167,2.755605838514432,-1.131302521990791,-0.6626615544345094,-0.05202199518680573,-0.06812518835067749,0.08951009064912796,-0.02285987138748169,-0.01930058002471924,0.0260901153087616,XArbitraryZVertical,-0.4447315872312058,0.3667397764804127,-0.8169405173043013,0.0179975070697346,-0.7134376764297485,0.6152172684669495,-0.3354315161705017,0,0,0,-1,-1,12397.10866675,unknown,2,2025-04-30T12:19:54.497+03:00,2025-04-30T12:00:08.093+03:00,150,1.37288,0,0,123.4218,0,0,2025-04-30T12:20:04.815+03:00,767697604.9175572,0,2.11,100.9393,1,0.8,2025-04-30T12:20:01.402+03:00,86,1.433333333333333,2025-04-22T14:20:19.516+03:00,0.02197104130929222,0
2025-04-30T12:20:07.016+03:00,1746004804.93202,40.95222111515021,29.14027566195204,76.19596,-1,-1,-1,-1,30,20.79919806636867,-9999,12409.62374854167,-0.73541259765625,0.610321044921875,-0.3178253173828125,12409.61367254167,2.755455516239218,-1.13218964272101,-0.6635041911406993,-0.04612269252538681,-0.06949232518672943,0.1018523126840591,-0.02060598134994507,-0.02113950252532959,0.02294802665710449,XArbitraryZVertical,-0.4449296095032037,0.3670810798802015,-0.8166720473385858,0.01833059804552449,-0.7132655382156372,0.6158813834190369,-0.3345782458782196,0,0,0,-1,-1,12397.10866675,unknown,2,2025-04-30T12:19:54.497+03:00,2025-04-30T12:00:08.093+03:00,150,1.37288,0,0,123.4218,0,0,2025-04-30T12:20:04.815+03:00,767697604.9175572,0,2.11,100.9393,1,0.8,2025-04-30T12:20:01.402+03:00,86,1.433333333333333,2025-04-22T14:20:19.516+03:00,0.02197104130929222,0
2025-04-30T12:20:07.026+03:00,1746004804.93202,40.95222111515021,29.14027566195204,76.19596,-1,-1,-1,-1,30,20.79919806636867,-9999,12409.63382554167,-0.7335968017578125,0.616943359375,-0.3193511962890625,12409.62374854167,2.755551016609465,-1.132852083227415,-0.6643430862640085,-0.02912560105323792,-0.06086847558617592,0.1080897003412247,-0.01822817325592041,-0.01725310087203979,0.01761752367019653,XArbitraryZVertical,-0.4450814267852146,0.3673680609311769,-0.8164513784987725,0.01872212886026628,-0.7130188941955566,0.6165420413017273,-0.3338864743709564,0,0,0,-1,-1,12397.10866675,unknown,2,2025-04-30T12:19:54.497+03:00,2025-04-30T12:00:08.093+03:00,150,1.37288,0,0,123.4218,0,0,2025-04-30T12:20:04.815+03:00,767697604.9175572,0,2.11,100.9393,1,0.8,2025-04-30T12:20:01.402+03:00,86,1.433333333333333,2025-04-22T14:20:19.516+03:00,0.02197104130929222,0
2025-04-30T12:20:07.036+03:00,1746004804.93202,40.95222111515021,29.14027566195204,76.19596,-1,-1,-1,-1,30,20.79919806636867,-9999,12409.64390154167,-0.7238006591796875,0.613494873046875,-0.321136474609375,12409.63382554167,2.755795515530965,-1.133305513606583,-0.6652077070657738,-0.02000680565834045,-0.04700685665011406,0.1203818544745445,-0.02272558212280273,-0.00690150260925293,0.01551187038421631,XArbitraryZVertical,-0.4451709994572078,0.3676332370755706,-0.816273424076556,0.01914330128135001,-0.712687075138092,0.6172225475311279,-0.3333371579647064,0,0,0,-1,-1,12397.10866675,unknown,2,2025-04-30T12:19:54.497+03:00,2025-04-30T12:00:08.093+03:00,150,1.37288,0,0,123.4218,0,0,2025-04-30T12:20:04.815+03:00,767697604.9175572,0,2.11,100.9393,1,0.8,2025-04-30T12:20:01.402+03:00,86,1.433333333333333,2025-04-22T14:20:19.516+03:00,0.02197104130929222,0
2025-04-30T12:20:07.046+03:00,1746004804.93202,40.95222111515021,29.14027566195204,76.19596,-1,-1,-1,-1,30,20.79919806636867,-9999,12409.65397854167,-0.7139129638671875,0.6113739013671875,-0.3384246826171875,12409.64390154167,2.756155018125215,-1.133644047992115,-0.6661500169545784,-0.02094876579940319,-0.04664360359311104,0.1225968077778816,-0.02132415771484375,-0.001020252704620361,0.01349830627441406,XArbitraryZVertical,-0.445222146851933,0.3679028130453383,-0.8161129712777466,0.01961175613426518,-0.7122727036476135,0.6179636716842651,-0.332849532365799,0,0,0,-1,-1,12397.10866675,unknown,2,2025-04-30T12:19:54.497+03:00,2025-04-30T12:00:08.093+03:00,150,1.37288,0,0,123.4218,0,0,2025-04-30T12:20:04.815+03:00,767697604.9175572,0,2.11,100.9393,1,0.8,2025-04-30T12:20:01.402+03:00,86,1.433333333333333,2025-04-22T14:20:19.516+03:00,0.02197104130929222,0
2025-04-30T12:20:07.056+03:00,1746004804.93202,40.95222111515021,29.14027566195204,76.19596,-1,-1,-1,-1,30,20.79919806636867,-9999,12409.66405454167,-0.7066650390625,0.612152099609375,-0.34783935546875,12409.65397854167,2.756577257574143,-1.133903937282588,-0.6672044295668521,-0.01887236535549164,-0.04717789962887764,0.1376522928476334,-0.01203238964080811,-0.005297422409057617,0.01125198602676392,XArbitraryZVertical,-0.4452345315910166,0.368200988618494,-0.8159592644369492,0.02012233744410303,-0.7117683291435242,0.6187923550605774,-0.3323884904384613,0,0,0,-1,-1,12397.10866675,unknown,2,2025-04-30T12:19:54.497+03:00,2025-04-30T12:00:08.093+03:00,150,1.37288,0,0,123.4218,0,0,2025-04-30T12:20:04.815+03:00,767697604.9175572,0,2.11,100.9393,1,0.8,2025-04-30T12:20:01.402+03:00,86,1.433333333333333,2025-04-22T14:20:19.516+03:00,0.02197104130929222,0
2025-04-30T12:20:07.066+03:00,1746004804.93202,40.95222111515021,29.14027566195204,76.19596,-1,-1,-1,-1,30,20.79919806636867,-9999,12409.67413154167,-0.706268310546875,0.610748291015625,-0.3494415283203125,12409.66405454167,2.757004199627364,-1.134146813917331,-0.6684044803394493,-0.02791832573711872,-0.0405287854373455,0.1463847905397415,-0.002737343311309814,-0.008360624313354492,-0.006523311138153076,XArbitraryZVertical,-0.4452171349730714,0.3685526228770291,-0.8157962701487266,0.02067180554519344,-0.7111756801605225,0.6197345852851868,-0.331901341676712,0,0,0,-1,-1,12397.10866675,unknown,2,2025-04-30T12:19:54.497+03:00,2025-04-30T12:00:08.093+03:00,150,1.37288,0,0,123.4218,0,0,2025-04-30T12:20:04.815+03:00,767697604.9175572,0,2.11,100.9393,1,0.8,2025-04-30T12:20:01.402+03:00,86,1.433333333333333,2025-04-22T14:20:19.516+03:00,0.02197104130929222,0
2025-04-30T12:20:07.076+03:00,1746004804.93202,40.95222111515021,29.14027566195204,76.19596,-1,-1,-1,-1,30,20.79919806636867,-9999,12409.68420854167,-0.707550048828125,0.6109619140625,-0.3423919677734375,12409.67413154167,2.757296163260304,-1.134417773780223,-0.6697691620553511,-0.04599366337060928,-0.02334360592067242,0.1585739850997925,0.003833293914794922,-0.008652925491333008,-0.01648849248886108,XArbitraryZVertical,-0.4451594877804428,0.3689953981036068,-0.815613565136895,0.02121681206017623,-0.7104983925819397,0.620805025100708,-0.3313508629798889,0,0,0,-1,-1,12397.10866675,unknown,2,2025-04-30T12:19:54.497+03:00,2025-04-30T12:00:08.093+03:00,150,1.37288,0,0,123.4218,0,0,2025-04-30T12:20:04.815+03:00,767697604.9175572,0,2.11,100.9393,1,0.8,2025-04-30T12:20:01.402+03:00,86,1.433333333333333,2025-04-22T14:20:19.516+03:00,0.02197104130929222,0
2025-04-30T12:20:07.086+03:00,1746004804.93202,40.95222111515021,29.14027566195204,76.19596,-1,-1,-1,-1,30,20.79919806636867,-9999,12409.69428454167,-0.7076568603515625,0.6117095947265625,-0.3293914794921875,12409.68420854167,2.757368648606872,-1.134636089034263,-0.6713438341760958,-0.06916609406471252,0.004146075341850519,0.1695326268672943,0.003415405750274658,-0.01129043102264404,-0.01865923404693604,XArbitraryZVertical,-0.4450055397612094,0.3695658508136984,-0.8154259518903622,0.02172060710122202,-0.7096837162971497,0.6220387816429138,-0.3307822942733765,0,0,0,-1,-1,12397.10866675,unknown,2,2025-04-30T12:19:54.497+03:00,2025-04-30T12:00:08.093+03:00,150,1.37288,0,0,123.4218,0,0,2025-04-30T12:20:04.815+03:00,767697604.9175572,0,2.11,100.9393,1,0.8,2025-04-30T12:20:01.402+03:00,86,1.433333333333333,2025-04-22T14:20:19.516+03:00,0.02197104130929222,0
2025-04-30T12:20:07.097+03:00,1746004804.93202,40.95222111515021,29.14027566195204,76.19596,-1,-1,-1,-1,30,20.79919806636867,-9999,12409.70436154167,-0.70782470703125,0.6162872314453125,-0.320220947265625,12409.69428454167,2.757198179642072,-1.134666891323525,-0.6731123560522064,-0.09750919044017792,0.04101181402802467,0.1773778200149536,0.001145601272583008,-0.01246058940887451,-0.01209676265716553,XArbitraryZVertical,-0.4446982884571714,0.3702645466343344,-0.8152651773398822,0.02214414300339698,-0.708695650100708,0.6234225034713745,-0.330295205116272,0,0,0,-1,-1,12397.10866675,unknown,2,2025-04-30T12:19:54.497+03:00,2025-04-30T12:00:08.093+03:00,150,1.37288,0,0,123.4218,0,0,2025-04-30T12:20:04.815+03:00,767697604.9175572,0,2.11,100.9393,1,0.8,2025-04-30T12:20:01.402+03:00,86,1.433333333333333,2025-04-22T14:20:19.516+03:00,0.02197104130929222,0
2025-04-30T12:20:07.113+03:00,1746004804.93202,40.95222111515021,29.14027566195204,76.19596,-1,-1,-1,-1,30,20.79919806636867,-9999,12409.71443754167,-0.7053375244140625,0.6280517578125,-0.31878662109375,12409.70436154167,2.756823308422695,-1.134423632907546,-0.6750551103385543,-0.1124939993023872,0.07494368404150009,0.1857076585292816,-0.0001405477523803711,-0.01323074102401733,0.0005636215209960938,XArbitraryZVertical,-0.4442124634227364,0.3710764687845058,-0.8151516853569297,0.02248149770184382,-0.7075163722038269,0.6249403357505798,-0.3299550712108612,0,0,0,-1,-1,12397.10866675,unknown,2,2025-04-30T12:19:54.497+03:00,2025-04-30T12:00:08.093+03:00,150,1.37288,0,0,123.4218,0,0,2025-04-30T12:20:04.815+03:00,767697604.9175572,0,2.11,100.9393,1,0.8,2025-04-30T12:20:01.402+03:00,86,1.433333333333333,2025-04-22T14:20:19.516+03:00,0.02197104130929222,0
2025-04-30T12:20:07.117+03:00,1746004804.93202,40.95222111515021,29.14027566195204,76.19596,-1,-1,-1,-1,30,20.79919806636867,-9999,12409.72451454167,-0.6965484619140625,0.6380767822265625,-0.3251953125,12409.71443754167,2.756398870869919,-1.133914582311866,-0.6770969098828901,-0.1114448383450508,0.0987495481967926,0.1873504966497421,-0.001634061336517334,-0.01024574041366577,0.009553670883178711,XArbitraryZVertical,-0.4435922266236694,0.3719390035945326,-0.8150881722212824,0.02277637811866794,-0.7061907052993774,0.626533031463623,-0.3297746181488037,0,0,0,-1,-1,12397.10866675,unknown,2,2025-04-30T12:19:54.497+03:00,2025-04-30T12:00:08.093+03:00,150,1.37288,0,0,123.4218,0,0,2025-04-30T12:20:04.815+03:00,767697604.9175572,0,2.11,100.9393,1,0.8,2025-04-30T12:20:01.402+03:00,86,1.433333333333333,2025-04-22T14:20:19.516+03:00,0.02197104130929222,0
2025-04-30T12:20:07.128+03:00,1746004804.93202,40.95222111515021,29.14027566195204,76.19596,-1,-1,-1,-1,30,20.79919806636867,-9999,12409.73459054167,-0.6877899169921875,0.6456756591796875,-0.3290863037109375,12409.72451454167,2.755999096259568,-1.133191068349869,-0.6791828658323401,-0.1126291453838348,0.1119212731719017,0.1885771453380585,-0.0005710721015930176,-0.0001056790351867676,0.01094427704811096,XArbitraryZVertical,-0.4428812521050897,0.3728146579075633,-0.815066841060608,0.02305324710296116,-0.7047664523124695,0.6281574368476868,-0.3297308683395386,0,0,0,-1,-1,12397.10866675,unknown,2,2025-04-30T12:19:54.497+03:00,2025-04-30T12:00:08.093+03:00,150,1.37288,0,0,123.4218,0,0,2025-04-30T12:20:04.815+03:00,767697604.9175572,0,2.11,100.9393,1,0.8,2025-04-30T12:20:01.402+03:00,86,1.433333333333333,2025-04-22T14:20:19.516+03:00,0.02197104130929222,0
2025-04-30T12:20:07.137+03:00,1746004804.93202,40.95222111515021,29.14027566195204,76.19596,-1,-1,-1,-1,30,20.79919806636867,-9999,12409.74466754167,-0.6869354248046875,0.64007568359375,-0.3323516845703125,12409.73459054167,2.755603219943322,-1.132354320684183,-0.6813028220567552,-0.1241146996617317,0.1239908486604691,0.1941140592098236,0.006734609603881836,0.008271336555480957,0.004559099674224854,XArbitraryZVertical,-0.4421184664578348,0.3737031518510023,-0.8150666004921685,0.02331910494672258,-0.7032831311225891,0.6298055052757263,-0.3297544419765472,0,0,0,-1,-1,12397.10866675,unknown,2,2025-04-30T12:19:54.497+03:00,2025-04-30T12:00:08.093+03:00,150,1.37288,0,0,123.4218,0,0,2025-04-30T12:20:04.815+03:00,767697604.9175572,0,2.11,100.9393,1,0.8,2025-04-30T12:20:01.402+03:00,86,1.433333333333333,2025-04-22T14:20:19.516+03:00,0.02197104130929222,0
2025-04-30T12:20:07.147+03:00,1746004804.93202,40.95222111515021,29.14027566195204,76.19596,-1,-1,-1,-1,30,20.79919806636867,-9999,12409.75474354167,-0.6934814453125,0.624053955078125,-0.3380584716796875,12409.74466754167,2.755224859229592,-1.131221572926097,-0.6835063632539112,-0.1289898902177811,0.1440601795911789,0.2015107274055481,0.01386165618896484,0.01416009664535522,0.0008732080459594727,XArbitraryZVertical,-0.4412238518323175,0.3746221666836082,-0.8151226201875563,0.02355901795487993,-0.7016516327857971,0.6315156221389771,-0.3299594819545746,0,0,0,-1,-1,12397.10866675,unknown,2,2025-04-30T12:19:54.497+03:00,2025-04-30T12:00:08.093+03:00,150,1.37288,0,0,123.4218,0,0,2025-04-30T12:20:04.815+03:00,767697604.9175572,0,2.11,100.9393,1,0.8,2025-04-30T12:20:01.402+03:00,86,1.433333333333333,2025-04-22T14:20:19.516+03:00,0.02197104130929222,0
2025-04-30T12:20:07.157+03:00,1746004804.93202,40.95222111515021,29.14027566195204,76.19596,-1,-1,-1,-1,30,20.79919806636867,-9999,12409.76482054167,-0.69110107421875,0.6173248291015625,-0.3309326171875,12409.75474354167,2.754854068203874,-1.129859518336402,-0.6858071778061307,-0.1394318640232086,0.1517156958580017,0.2061964273452759,0.01295012235641479,0.006777822971343994,-0.002057850360870361,XArbitraryZVertical,-0.4402204068761929,0.3755783122809609,-0.8152185663218089,0.02378475909539298,-0.6998856067657471,0.6332979202270508,-0.3302938640117645,0,0,0,-1,-1,12397.10866675,unknown,2,2025-04-30T12:19:54.497+03:00,2025-04-30T12:00:08.093+03:00,150,1.37288,0,0,123.4218,0,0,2025-04-30T12:20:04.815+03:00,767697604.9175572,0,2.11,100.9393,1,0.8,2025-04-30T12:20:01.402+03:00,86,1.433333333333333,2025-04-22T14:20:19.516+03:00,0.02197104130929222,0
2025-04-30T12:20:07.167+03:00,1746004804.93202,40.95222111515021,29.14027566195204,76.19596,-1,-1,-1,-1,30,20.79919806636867,-9999,12409.77489754167,-0.6756439208984375,0.619964599609375,-0.330657958984375,12409.76482054167,2.754410742602444,-1.128720425072393,-0.6880988104917318,-0.1482362747192383,0.1152508929371834,0.2013936787843704,0.004713833332061768,-0.01101583242416382,-0.007589370012283325,XArbitraryZVertical,-0.4392948728775288,0.3765441173428928,-0.8152653783955351,0.02401915498169101,-0.6981952786445618,0.635069727897644,-0.3304690718650818,0,0,0,-1,-1,12397.10866675,unknown,2,2025-04-30T12:19:54.497+03:00,2025-04-30T12:00:08.093+03:00,150,1.37288,0,0,123.4218,0,0,2025-04-30T12:20:04.815+03:00,767697604.9175572,0,2.11,100.9393,1,0.8,2025-04-30T12:20:01.402+03:00,86,1.433333333333333,2025-04-22T14:20:19.516+03:00,0.02197104130929222,0
