loggingTime(txt),locationTimestamp_since1970(s),locationLatitude(WGS84),locationLongitude(WGS84),locationAltitude(m),locationSpeed(m/s),locationSpeedAccuracy(m/s),locationCourse(°),locationCourseAccuracy(°),locationVerticalAccuracy(m),locationHorizontalAccuracy(m),locationFloor(Z),accelerometerTimestamp_sinceReboot(s),accelerometerAccelerationX(G),accelerometerAccelerationY(G),accelerometerAccelerationZ(G),motionTimestamp_sinceReboot(s),motionYaw(rad),motionRoll(rad),motionPitch(rad),motionRotationRateX(rad/s),motionRotationRateY(rad/s),motionRotationRateZ(rad/s),motionUserAccelerationX(G),motionUserAccelerationY(G),motionUserAccelerationZ(G),motionAttitudeReferenceFrame(txt),motionQuaternionX(R),motionQuaternionY(R),motionQuaternionZ(R),motionQuaternionW(R),motionGravityX(G),motionGravityY(G),motionGravityZ(G),motionMagneticFieldX(µT),motionMagneticFieldY(µT),motionMagneticFieldZ(µT),motionHeading(°),motionMagneticFieldCalibrationAccuracy(Z),activityTimestamp_sinceReboot(s),activity(txt),activityActivityConfidence(Z),activityActivityStartDate(txt),pedometerStartDate(txt),pedometerNumberofSteps(N),pedometerAverageActivePace(s/m),pedometerCurrentPace(s/m),pedometerCurrentCadence(steps/s),pedometerDistance(m),pedometerFloorAscended(N),pedometerFloorDescended(N),pedometerEndDate(txt),altimeterTimestamp_sinceReboot(s),altimeterReset(bool),altimeterRelativeAltitude(m),altimeterPressure(kPa),batteryState(N),batteryLevel(R),heartRateBPMTimestamp(txt),heartRateBPM(N),heartRateBPS(R),heartRateVariabilityTimestamp(txt),heartRateVariability(ms),label
2025-04-30T11:59:08.824+03:00,1746003548.420814,40.95221689146929,29.14029829636424,76.58913,-1,-1,-1,-1,30,26.98434767089239,-9999,11309.07329225,-0.650482177734375,0.5816192626953125,-0.5015869140625,11309.06825425,-0.993699510710622,-0.9125050307327655,-0.6366800726314443,0.01152661722153425,-0.003209300339221954,0.007532450370490551,0.007910370826721191,-0.03964340686798096,0.004356354475021362,XArbitraryZVertical,-0.4464595231650207,-0.2339258961561459,-0.2851758501106729,0.8152466800536832,-0.6360535621643066,0.5945292711257935,-0.491905152797699,0,0,0,-1,-1,11301.05267954167,unknown,2,2025-04-30T11:58:37.789+03:00,2025-04-28T22:17:59.397+03:00,6826,0.8224723,0,0,5720.054,11,14,2025-04-30T11:57:17.800+03:00,767696299.8231213,0,-13.87,100.9634,1,0.85,2025-04-30T11:45:49.339+03:00,87,1.45,2025-04-22T14:20:19.516+03:00,0.02197104130929222,0
2025-04-30T11:59:08.828+03:00,1746003548.420814,40.95221689146929,29.14029829636424,76.58913,-1,-1,-1,-1,30,26.98434767089239,-9999,11309.08336725,-0.6054534912109375,0.5791015625,-0.4997711181640625,11309.07832925,-0.9935329119195957,-0.9124097690700932,-0.6366466849293274,0.006226927042007446,0.004719195887446404,0.003056209301576018,-0.04390907287597656,-0.02222150564193726,-0.008601844310760498,XArbitraryZVertical,-0.4464149676890384,-0.2339330951464334,-0.2851376096629074,0.8152825384364994,-0.6360225081443787,0.5945023894309998,-0.4919779598712921,0,0,0,-1,-1,11301.05267954167,unknown,2,2025-04-30T11:58:37.789+03:00,2025-04-28T22:17:59.397+03:00,6826,0.8224723,0,0,5720.054,11,14,2025-04-30T11:57:17.800+03:00,767696299.8231213,0,-13.87,100.9634,1,0.85,2025-04-30T11:45:49.339+03:00,87,1.45,2025-04-22T14:20:19.516+03:00,0.02197104130929222,0
2025-04-30T11:59:08.829+03:00,1746003548.420814,40.95221689146929,29.14029829636424,76.58913,-1,-1,-1,-1,30,26.98434767089239,-9999,11309.09344225,-0.6442108154296875,0.5722198486328125,-0.5050048828125,11309.08840525,-0.9934821642473971,-0.9122240409402267,-0.6365616612697735,0.004607724957168102,0.01900039613246918,-0.004100237041711807,0.02224737405776978,-0.01060223579406738,-0.007277846336364746,XArbitraryZVertical,-0.4463534938125447,-0.2338911288346823,-0.2851796970258533,0.8153134818276002,-0.6359710693359375,0.5944340229034424,-0.492127001285553,0,0,0,-1,-1,11301.05267954167,unknown,2,2025-04-30T11:58:37.789+03:00,2025-04-28T22:17:59.397+03:00,6826,0.8224723,0,0,5720.054,11,14,2025-04-30T11:57:17.800+03:00,767696299.8231213,0,-13.87,100.9634,1,0.85,2025-04-30T11:45:49.339+03:00,87,1.45,2025-04-22T14:20:19.516+03:00,0.02197104130929222,0
2025-04-30T11:59:08.837+03:00,1746003548.420814,40.95221689146929,29.14029829636424,76.58913,-1,-1,-1,-1,30,26.98434767089239,-9999,11309.10351825,-0.6332855224609375,0.58123779296875,-0.50299072265625,11309.09848025,-0.9935015757895765,-0.9121752407460171,-0.6363964889502173,0.006548902951180935,0.005147965159267187,0.00113367335870862,0.01216912269592285,-0.02028077840805054,-0.01072680950164795,XArbitraryZVertical,-0.4462923278687277,-0.233910465155234,-0.2852399259540291,0.8153203308621838,-0.6360247135162354,0.5943012237548828,-0.4922181069850922,0,0,0,-1,-1,11301.05267954167,unknown,2,2025-04-30T11:58:37.789+03:00,2025-04-28T22:17:59.397+03:00,6826,0.8224723,0,0,5720.054,11,14,2025-04-30T11:57:17.800+03:00,767696299.8231213,0,-13.87,100.9634,1,0.85,2025-04-30T11:45:49.339+03:00,87,1.45,2025-04-22T14:20:19.516+03:00,0.02197104130929222,0
2025-04-30T11:59:08.845+03:00,1746003548.420814,40.95221689146929,29.14029829636424,76.58913,-1,-1,-1,-1,30,26.98434767089239,-9999,11309.11359325,-0.6223602294921875,0.586639404296875,-0.5054779052734375,11309.10855525,-0.9933111789235008,-0.9118989074107089,-0.6362806472944165,0.01677910424768925,0.0154026672244072,0.001256678136996925,-0.01006829738616943,-0.01904326677322388,-0.0117143988609314,XArbitraryZVertical,-0.4461910769725925,-0.2338708206590575,-0.2852529926803213,0.815382446087373,-0.6359429955482483,0.5942080616950989,-0.4924359321594238,0,0,0,-1,-1,11301.05267954167,unknown,2,2025-04-30T11:58:37.789+03:00,2025-04-28T22:17:59.397+03:00,6826,0.8224723,0,0,5720.054,11,14,2025-04-30T11:57:17.800+03:00,767696299.8231213,0,-13.87,100.9634,1,0.85,2025-04-30T11:45:49.339+03:00,87,1.45,2025-04-22T14:20:19.516+03:00,0.02197104130929222,0
2025-04-30T11:59:08.852+03:00,1746003548.420814,40.95221689146929,29.14029829636424,76.58913,-1,-1,-1,-1,30,26.98434767089239,-9999,11309.12366825,-0.6317901611328125,0.5838165283203125,-0.505767822265625,11309.11863125,-0.9930566424490263,-0.9114937878373852,-0.6362738616477738,0.01578394696116447,0.01250388287007809,-0.001238271011970937,0.01257783174514771,-0.008661866188049316,-0.01102706789970398,XArbitraryZVertical,-0.4461012076638165,-0.2337642232953067,-0.2852412921224126,0.8154662983030948,-0.6357466578483582,0.5942025780677795,-0.4926959872245789,0,0,0,-1,-1,11301.05267954167,unknown,2,2025-04-30T11:58:37.789+03:00,2025-04-28T22:17:59.397+03:00,6826,0.8224723,0,0,5720.054,11,14,2025-04-30T11:57:17.800+03:00,767696299.8231213,0,-13.87,100.9634,1,0.85,2025-04-30T11:45:49.339+03:00,87,1.45,2025-04-22T14:20:19.516+03:00,0.02197104130929222,0
2025-04-30T11:59:08.862+03:00,1746003548.420814,40.95221689146929,29.14029829636424,76.58913,-1,-1,-1,-1,30,26.98434767089239,-9999,11309.13374425,-0.6289215087890625,0.577178955078125,-0.5019073486328125,11309.12870625,-0.9928977315329889,-0.9112278385785623,-0.6362093994820945,0.005352344829589128,0.01283571217209101,-0.0005658228183165193,0.007273733615875244,-0.008060634136199951,-0.01399314403533936,XArbitraryZVertical,-0.4460226298973157,-0.2337082296536207,-0.285251976959906,0.8155216281907746,-0.6356459259986877,0.594150722026825,-0.4928885400295258,0,0,0,-1,-1,11301.05267954167,unknown,2,2025-04-30T11:58:37.789+03:00,2025-04-28T22:17:59.397+03:00,6826,0.8224723,0,0,5720.054,11,14,2025-04-30T11:57:17.800+03:00,767696299.8231213,0,-13.87,100.9634,1,0.85,2025-04-30T11:45:49.339+03:00,87,1.45,2025-04-22T14:20:19.516+03:00,0.02197104130929222,0
2025-04-30T11:59:08.872+03:00,1746003548.420814,40.95221689146929,29.14029829636424,76.58913,-1,-1,-1,-1,30,26.98434767089239,-9999,11309.14381925,-0.629058837890625,0.5741424560546875,-0.501556396484375,11309.13878125,-0.9928163801620253,-0.9110165632716832,-0.6361730991128119,0.001815866795368493,0.01127343531697989,-0.0002187130739912391,0.004287481307983398,-0.01370769739151001,-0.01022928953170776,XArbitraryZVertical,-0.4459705665020849,-0.2336497891052449,-0.2852750158631509,0.8155587880725436,-0.6355587840080261,0.594121515750885,-0.4930360615253448,0,0,0,-1,-1,11301.05267954167,unknown,2,2025-04-30T11:58:37.789+03:00,2025-04-28T22:17:59.397+03:00,6826,0.8224723,0,0,5720.054,11,14,2025-04-30T11:57:17.800+03:00,767696299.8231213,0,-13.87,100.9634,1,0.85,2025-04-30T11:45:49.339+03:00,87,1.45,2025-04-22T14:20:19.516+03:00,0.02197104130929222,0
2025-04-30T11:59:08.883+03:00,1746003548.420814,40.95221689146929,29.14029829636424,76.58913,-1,-1,-1,-1,30,26.98434767089239,-9999,11309.15389425,-0.6302947998046875,0.5753326416015625,-0.5043182373046875,11309.14885725,-0.9928508164823426,-0.910938766983951,-0.636110379569532,-0.00677948584780097,0.008617464452981949,-0.00167865795083344,0.007193028926849365,-0.01983708143234253,-0.008341163396835327,XArbitraryZVertical,-0.4459420124410171,-0.2336269269969786,-0.2853221270496912,0.8155644981407634,-0.6355499029159546,0.594071090221405,-0.4931083619594574,0,0,0,-1,-1,11301.05267954167,unknown,2,2025-04-30T11:58:37.789+03:00,2025-04-28T22:17:59.397+03:00,6826,0.8224723,0,0,5720.054,11,14,2025-04-30T11:57:17.800+03:00,767696299.8231213,0,-13.87,100.9634,1,0.85,2025-04-30T11:45:49.339+03:00,87,1.45,2025-04-22T14:20:19.516+03:00,0.02197104130929222,0
2025-04-30T11:59:08.892+03:00,1746003548.420814,40.95221689146929,29.14029829636424,76.58913,-1,-1,-1,-1,30,26.98434767089239,-9999,11309.16397025,-0.629119873046875,0.5764007568359375,-0.50408935546875,11309.15893225,-0.9929918569676428,-0.9109823403219426,-0.6360454655719663,-0.009206291288137436,0.01163868792355061,-0.002035454846918583,0.005093514919281006,-0.01882356405258179,-0.009993195533752441,XArbitraryZVertical,-0.445942473415659,-0.2336303673288889,-0.2853861962740659,0.815540873393533,-0.6356018781661987,0.5940188765525818,-0.4931043088436127,0,0,0,-1,-1,11301.05267954167,unknown,2,2025-04-30T11:58:37.789+03:00,2025-04-28T22:17:59.397+03:00,6826,0.8224723,0,0,5720.054,11,14,2025-04-30T11:57:17.800+03:00,767696299.8231213,0,-13.87,100.9634,1,0.85,2025-04-30T11:45:49.339+03:00,87,1.45,2025-04-22T14:20:19.516+03:00,0.02197104130929222,0
2025-04-30T11:59:08.903+03:00,1746003548.420814,40.95221689146929,29.14029829636424,76.58913,-1,-1,-1,-1,30,26.98434767089239,-9999,11309.17404525,-0.628814697265625,0.57965087890625,-0.50677490234375,11309.16900725,-0.9930860946269841,-0.9108909968398635,-0.6360977004628309,-0.01107955910265446,0.01267439126968384,-0.002720420015975833,0.00549691915512085,-0.01851463317871094,-0.01148003339767456,XArbitraryZVertical,-0.4459583345934475,-0.2335583298820151,-0.2854318969689922,0.8155368139313529,-0.6355323195457458,0.5940608978271484,-0.4931433498859406,0,0,0,-1,-1,11301.05267954167,unknown,2,2025-04-30T11:58:37.789+03:00,2025-04-28T22:17:59.397+03:00,6826,0.8224723,0,0,5720.054,11,14,2025-04-30T11:57:17.800+03:00,767696299.8231213,0,-13.87,100.9634,1,0.85,2025-04-30T11:45:49.339+03:00,87,1.45,2025-04-22T14:20:19.516+03:00,0.02197104130929222,0
2025-04-30T11:59:08.913+03:00,1746003548.420814,40.95221689146929,29.14029829636424,76.58913,-1,-1,-1,-1,30,26.98434767089239,-9999,11309.18412025,-0.6314544677734375,0.581207275390625,-0.5074615478515625,11309.17908325,-0.9931652992405958,-0.9107731838776679,-0.6360739983148901,-0.006940340157598257,0.01195893250405788,-0.003712380770593882,0.006716430187225342,-0.01623719930648804,-0.01193058490753174,XArbitraryZVertical,-0.4459426560325936,-0.2334988776714916,-0.2854964019461836,0.8155398309129942,-0.6354852914810181,0.5940418243408203,-0.4932268559932709,0,0,0,-1,-1,11301.05267954167,unknown,2,2025-04-30T11:58:37.789+03:00,2025-04-28T22:17:59.397+03:00,6826,0.8224723,0,0,5720.054,11,14,2025-04-30T11:57:17.800+03:00,767696299.8231213,0,-13.87,100.9634,1,0.85,2025-04-30T11:45:49.339+03:00,87,1.45,2025-04-22T14:20:19.516+03:00,0.02197104130929222,0
2025-04-30T11:59:08.923+03:00,1746003548.420814,40.95221689146929,29.14029829636424,76.58913,-1,-1,-1,-1,30,26.98434767089239,-9999,11309.19419625,-0.630828857421875,0.582183837890625,-0.50506591796875,11309.18915825,-0.9932945650365443,-0.910699177052287,-0.6360206739945948,-0.01202058605849743,0.02052365802228451,-0.006508167367428541,0.004675567150115967,-0.01280689239501953,-0.01429027318954468,XArbitraryZVertical,-0.4459289138553158,-0.2334539463688402,-0.2855789802276709,0.8155313304969221,-0.6354738473892212,0.593998908996582,-0.4932933151721954,0,0,0,-1,-1,11301.05267954167,unknown,2,2025-04-30T11:58:37.789+03:00,2025-04-28T22:17:59.397+03:00,6826,0.8224723,0,0,5720.054,11,14,2025-04-30T11:57:17.800+03:00,767696348.8307848,0,-13.3,100.9576,1,0.85,2025-04-30T11:45:49.339+03:00,87,1.45,2025-04-22T14:20:19.516+03:00,0.02197104130929222,0
2025-04-30T11:59:08.933+03:00,1746003548.420814,40.95221689146929,29.14029829636424,76.58913,-1,-1,-1,-1,30,26.98434767089239,-9999,11309.20427125,-0.6317901611328125,0.5834808349609375,-0.504302978515625,11309.19923325,-0.9933809941510602,-0.9105126588849809,-0.6359978223344561,-0.003569178050383925,0.02141328901052475,-0.007662048563361168,0.004212737083435059,-0.01199513673782349,-0.01298853754997253,XArbitraryZVertical,-0.4459045907543656,-0.2333646223015813,-0.2856615136687375,0.8155411886431413,-0.6353924870491028,0.5939805507659912,-0.4934200942516327,0,0,0,-1,-1,11301.05267954167,unknown,2,2025-04-30T11:58:37.789+03:00,2025-04-28T22:17:59.397+03:00,6826,0.8224723,0,0,5720.054,11,14,2025-04-30T11:57:17.800+03:00,767696348.8307848,0,-13.3,100.9576,1,0.85,2025-04-30T11:45:49.339+03:00,87,1.45,2025-04-22T14:20:19.516+03:00,0.02197104130929222,0
2025-04-30T11:59:08.943+03:00,1746003548.420814,40.95221689146929,29.14029829636424,76.58913,-1,-1,-1,-1,30,26.98434767089239,-9999,11309.21434625,-0.6323699951171875,0.580718994140625,-0.5064239501953125,11309.20930925,-0.9934442367360625,-0.91033276767646,-0.6359580893935939,-0.002844265662133694,0.01757780276238918,-0.007684951648116112,0.004417240619659424,-0.0108187198638916,-0.0105709433555603,XArbitraryZVertical,-0.4458726881807076,-0.2332876373972276,-0.2857373537144445,0.8155540541604338,-0.6353223323822021,0.5939485430717468,-0.4935488402843475,0,0,0,-1,-1,11301.05267954167,unknown,2,2025-04-30T11:58:37.789+03:00,2025-04-28T22:17:59.397+03:00,6826,0.8224723,0,0,5720.054,11,14,2025-04-30T11:57:17.800+03:00,767696348.8307848,0,-13.3,100.9576,1,0.85,2025-04-30T11:45:49.339+03:00,87,1.45,2025-04-22T14:20:19.516+03:00,0.02197104130929222,0
2025-04-30T11:59:08.953+03:00,1746003548.420814,40.95221689146929,29.14029829636424,76.58913,-1,-1,-1,-1,30,26.98434767089239,-9999,11309.22442225,-0.6307373046875,0.5803680419921875,-0.5064697265625,11309.21938425,-0.9935181999683992,-0.9101665132993769,-0.6359022753664364,-0.004866071045398712,0.01993396878242493,-0.006338557228446007,0.001813173294067383,-0.01104843616485596,-0.01125365495681763,XArbitraryZVertical,-0.4458384017594006,-0.233218097890017,-0.2858185775535869,0.8155643348482364,-0.6352665424346924,0.593903660774231,-0.4936748743057251,0,0,0,-1,-1,11301.05267954167,unknown,2,2025-04-30T11:58:37.789+03:00,2025-04-28T22:17:59.397+03:00,6826,0.8224723,0,0,5720.054,11,14,2025-04-30T11:57:17.800+03:00,767696348.8307848,0,-13.3,100.9576,1,0.85,2025-04-30T11:45:49.339+03:00,87,1.45,2025-04-22T14:20:19.516+03:00,0.02197104130929222,0
2025-04-30T11:59:08.963+03:00,1746003548.420814,40.95221689146929,29.14029829636424,76.58913,-1,-1,-1,-1,30,26.98434767089239,-9999,11309.23449725,-0.6293182373046875,0.582550048828125,-0.5075531005859375,11309.22945925,-0.9935871183699315,-0.9100018540160343,-0.6358442317342935,-0.005560090765357018,0.01844046637415886,-0.005932158790528774,0.003895342350006104,-0.01452648639678955,-0.01292842626571655,XArbitraryZVertical,-0.4458030221380679,-0.2331509023125705,-0.285897925793372,0.8155750999749586,-0.6352124810218811,0.5938569903373718,-0.4938006401062012,0,0,0,-1,-1,11301.05267954167,unknown,2,2025-04-30T11:58:37.789+03:00,2025-04-28T22:17:59.397+03:00,6826,0.8224723,0,0,5720.054,11,14,2025-04-30T11:57:17.800+03:00,767696348.8307848,0,-13.3,100.9576,1,0.85,2025-04-30T11:45:49.339+03:00,87,1.45,2025-04-22T14:20:19.516+03:00,0.02197104130929222,0
2025-04-30T11:59:08.973+03:00,1746003548.420814,40.95221689146929,29.14029829636424,76.58913,-1,-1,-1,-1,30,26.98434767089239,-9999,11309.24457225,-0.62982177734375,0.5802764892578125,-0.50860595703125,11309.23953525,-0.9936759644487481,-0.909861023953169,-0.6357707118623415,-0.002996931318193674,0.01769065484404564,-0.01046785525977612,0.004577457904815674,-0.01136982440948486,-0.01301056146621704,XArbitraryZVertical,-0.4457680678509462,-0.2330930630182743,-0.2859839582527162,0.8155805927733023,-0.6351773738861084,0.5937978029251099,-0.4939168989658356,0,0,0,-1,-1,11301.05267954167,unknown,2,2025-04-30T11:58:37.789+03:00,2025-04-28T22:17:59.397+03:00,6826,0.8224723,0,0,5720.054,11,14,2025-04-30T11:57:17.800+03:00,767696348.8307848,0,-13.3,100.9576,1,0.85,2025-04-30T11:45:49.339+03:00,87,1.45,2025-04-22T14:20:19.516+03:00,0.02197104130929222,0
2025-04-30T11:59:08.983+03:00,1746003548.420814,40.95221689146929,29.14029829636424,76.58913,-1,-1,-1,-1,30,26.98434767089239,-9999,11309.25464825,-0.6305389404296875,0.581512451171875,-0.50775146484375,11309.24961025,-0.9937505475793688,-0.9097303416974458,-0.6356733086034622,-0.004738638643175364,0.01599927991628647,-0.007355685345828533,0.0062369704246521,-0.01243585348129272,-0.01420432329177856,XArbitraryZVertical,-0.4457247345657956,-0.2330488327349143,-0.2860678803174475,0.8155874650391054,-0.6351584792137146,0.5937194228172302,-0.494035392999649,0,0,0,-1,-1,11301.05267954167,unknown,2,2025-04-30T11:58:37.789+03:00,2025-04-28T22:17:59.397+03:00,6826,0.8224723,0,0,5720.054,11,14,2025-04-30T11:57:17.800+03:00,767696348.8307848,0,-13.3,100.9576,1,0.85,2025-04-30T11:45:49.339+03:00,87,1.45,2025-04-22T14:20:19.516+03:00,0.02197104130929222,0
2025-04-30T11:59:08.993+03:00,1746003548.420814,40.95221689146929,29.14029829636424,76.58913,-1,-1,-1,-1,30,26.98434767089239,-9999,11309.26472325,-0.630279541015625,0.57928466796875,-0.5080413818359375,11309.25968525,-0.9938113805948975,-0.9095989154029499,-0.635583289877737,-0.002817034721374512,0.01450404897332191,-0.008572417311370373,0.0048866868019104,-0.01338577270507812,-0.01410329341888428,XArbitraryZVertical,-0.4456822092566214,-0.2330054187488131,-0.2861445083581188,0.8155962146110491,-0.6351357102394104,0.5936470031738281,-0.4941516816616058,0,0,0,-1,-1,11301.05267954167,unknown,2,2025-04-30T11:58:37.789+03:00,2025-04-28T22:17:59.397+03:00,6826,0.8224723,0,0,5720.054,11,14,2025-04-30T11:57:17.800+03:00,767696348.8307848,0,-13.3,100.9576,1,0.85,2025-04-30T11:45:49.339+03:00,87,1.45,2025-04-22T14:20:19.516+03:00,0.02197104130929222,0
2025-04-30T11:59:09.004+03:00,1746003548.420814,40.95221689146929,29.14029829636424,76.58913,-1,-1,-1,-1,30,26.98434767089239,-9999,11309.27479825,-0.6309356689453125,0.579864501953125,-0.506378173828125,11309.26976125,-0.9939238444897572,-0.90950269040899,-0.6355068393024941,-0.004990973044186831,0.01391895301640034,-0.01128404773771763,0.004752933979034424,-0.01326322555541992,-0.01354128122329712,XArbitraryZVertical,-0.4456553571837594,-0.2329612856167341,-0.2862309533209083,0.8155931822043134,-0.6351239681243896,0.5935854911804199,-0.4942406713962555,0,0,0,-1,-1,11301.05267954167,unknown,2,2025-04-30T11:58:37.789+03:00,2025-04-28T22:17:59.397+03:00,6826,0.8224723,0,0,5720.054,11,14,2025-04-30T11:57:17.800+03:00,767696348.8307848,0,-13.3,100.9576,1,0.85,2025-04-30T11:45:49.339+03:00,87,1.45,2025-04-22T14:20:19.516+03:00,0.02197104130929222,0
2025-04-30T11:59:09.014+03:00,1746003548.420814,40.95221689146929,29.14029829636424,76.58913,-1,-1,-1,-1,30,26.98434767089239,-9999,11309.28487425,-0.631195068359375,0.58453369140625,-0.5091552734375,11309.27983625,-0.9939942978846651,-0.9093466103937584,-0.6354181890379702,0.0005429423181340098,0.01696654036641121,-0.009519238024950027,0.00500720739364624,-0.014382004737854,-0.01327246427536011,XArbitraryZVertical,-0.4456108736566554,-0.2329053177817888,-0.286316647229763,0.8156033851799411,-0.635088324546814,0.5935141444206238,-0.4943721294403076,0,0,0,-1,-1,11301.05267954167,unknown,2,2025-04-30T11:58:37.789+03:00,2025-04-28T22:17:59.397+03:00,6826,0.8224723,0,0,5720.054,11,14,2025-04-30T11:57:17.800+03:00,767696348.8307848,0,-13.3,100.9576,1,0.85,2025-04-30T11:45:49.339+03:00,87,1.45,2025-04-22T14:20:19.516+03:00,0.02197104130929222,0
2025-04-30T11:59:09.024+03:00,1746003548.420814,40.95221689146929,29.14029829636424,76.58913,-1,-1,-1,-1,30,26.98434767089239,-9999,11309.29494925,-0.6296234130859375,0.5824432373046875,-0.511383056640625,11309.28991125,-0.9940373048473803,-0.9091955972772272,-0.6353094925305981,0.002685721730813384,0.01576492190361023,-0.008532535284757614,0.003839015960693359,-0.01014411449432373,-0.01252663135528564,XArbitraryZVertical,-0.445557056861464,-0.2328628138103233,-0.2863950250384387,0.8156173729159364,-0.6350645422935486,0.5934266448020935,-0.4945076406002045,0,0,0,-1,-1,11301.05267954167,unknown,2,2025-04-30T11:58:37.789+03:00,2025-04-28T22:17:59.397+03:00,6826,0.8224723,0,0,5720.054,11,14,2025-04-30T11:57:17.800+03:00,767696348.8307848,0,-13.3,100.9576,1,0.85,2025-04-30T11:45:49.339+03:00,87,1.45,2025-04-22T14:20:19.516+03:00,0.02197104130929222,0
2025-04-30T11:59:09.034+03:00,1746003548.420814,40.95221689146929,29.14029829636424,76.58913,-1,-1,-1,-1,30,26.98434767089239,-9999,11309.30502425,-0.62799072265625,0.5790863037109375,-0.5129852294921875,11309.29998725,-0.9940603066316528,-0.9090686296795039,-0.6351813179623897,0.001534170820377767,0.01255847699940205,-0.01231662184000015,0.005301058292388916,-0.009506881237030029,-0.01563411951065063,XArbitraryZVertical,-0.4454976562024843,-0.2328397190272581,-0.286464762417064,0.8156319320997467,-0.6350618004798889,0.5933234691619873,-0.4946350157260895,0,0,0,-1,-1,11301.05267954167,unknown,2,2025-04-30T11:58:37.789+03:00,2025-04-28T22:17:59.397+03:00,6826,0.8224723,0,0,5720.054,11,14,2025-04-30T11:57:17.800+03:00,767696348.8307848,0,-13.3,100.9576,1,0.85,2025-04-30T11:45:49.339+03:00,87,1.45,2025-04-22T14:20:19.516+03:00,0.02197104130929222,0
2025-04-30T11:59:09.044+03:00,1746003548.420814,40.95221689146929,29.14029829636424,76.58913,-1,-1,-1,-1,30,26.98434767089239,-9999,11309.31510025,-0.6297149658203125,0.581085205078125,-0.514190673828125,11309.31006225,-0.9941194395901236,-0.9089819186384274,-0.6350410712547612,0.002136311726644635,0.009139777161180973,-0.01481679640710354,0.006346166133880615,-0.01316297054290771,-0.01798456907272339,XArbitraryZVertical,-0.4454440840474739,-0.232828178931187,-0.2865432825783158,0.8156369188844754,-0.6350845098495483,0.5932105779647827,-0.4947412014007568,0,0,0,-1,-1,11301.05267954167,unknown,2,2025-04-30T11:58:37.789+03:00,2025-04-28T22:17:59.397+03:00,6826,0.8224723,0,0,5720.054,11,14,2025-04-30T11:57:17.800+03:00,767696348.8307848,0,-13.3,100.9576,1,0.85,2025-04-30T11:45:49.339+03:00,87,1.45,2025-04-22T14:20:19.516+03:00,0.02197104130929222,0
2025-04-30T11:59:09.054+03:00,1746003548.420814,40.95221689146929,29.14029829636424,76.58913,-1,-1,-1,-1,30,26.98434767089239,-9999,11309.32517525,-0.6304168701171875,0.5849761962890625,-0.5162811279296875,11309.32013725,-0.9941410454369475,-0.9088661018220617,-0.6348813688644543,0.01187748927623034,0.01099000871181488,-0.01003595720976591,0.006592512130737305,-0.01423978805541992,-0.01910400390625,XArbitraryZVertical,-0.4453752893693636,-0.2328182651338533,-0.286617846685793,0.8156511604907685,-0.6351019740104675,0.5930820107460022,-0.4948730170726776,0,0,0,-1,-1,11301.05267954167,unknown,2,2025-04-30T11:58:37.789+03:00,2025-04-28T22:17:59.397+03:00,6826,0.8224723,0,0,5720.054,11,14,2025-04-30T11:57:17.800+03:00,767696348.8307848,0,-13.3,100.9576,1,0.85,2025-04-30T11:45:49.339+03:00,87,1.45,2025-04-22T14:20:19.516+03:00,0.02197104130929222,0
2025-04-30T11:59:09.064+03:00,1746003548.420814,40.95221689146929,29.14029829636424,76.58913,-1,-1,-1,-1,30,26.98434767089239,-9999,11309.33525025,-0.629638671875,0.586181640625,-0.5124664306640625,11309.33021325,-0.9940570468728095,-0.9086730376861883,-0.6346564923408947,0.0143092218786478,0.01125659048557281,-0.01445494033396244,0.003809690475463867,-0.008992910385131836,-0.02044060826301575,XArbitraryZVertical,-0.4452608742478609,-0.2328175067101999,-0.2866827984146156,0.8156908924289186,-0.6351115107536316,0.5929009318351746,-0.495077520608902,0,0,0,-1,-1,11301.05267954167,unknown,2,2025-04-30T11:58:37.789+03:00,2025-04-28T22:17:59.397+03:00,6826,0.8224723,0,0,5720.054,11,14,2025-04-30T11:57:17.800+03:00,767696348.8307848,0,-13.3,100.9576,1,0.85,2025-04-30T11:45:49.339+03:00,87,1.45,2025-04-22T14:20:19.516+03:00,0.02197104130929222,0
2025-04-30T11:59:09.074+03:00,1746003548.420814,40.95221689146929,29.14029829636424,76.58913,-1,-1,-1,-1,30,26.98434767089239,-9999,11309.34532625,-0.6332550048828125,0.58428955078125,-0.5048828125,11309.34028825,-0.9940333017354743,-0.9084880517793551,-0.6344486103854436,0.008484887890517712,0.01751954667270184,-0.01479356177151203,0.005264878273010254,-0.007269024848937988,-0.02036938071250916,XArbitraryZVertical,-0.4451603774474397,-0.232802163155241,-0.2867662772404475,0.815720774073971,-0.6351171135902405,0.5927335023880005,-0.4952707886695862,0,0,0,-1,-1,11301.05267954167,unknown,2,2025-04-30T11:58:37.789+03:00,2025-04-28T22:17:59.397+03:00,6826,0.8224723,0,0,5720.054,11,14,2025-04-30T11:57:17.800+03:00,767696348.8307848,0,-13.3,100.9576,1,0.85,2025-04-30T11:45:49.339+03:00,87,1.45,2025-04-22T14:20:19.516+03:00,0.02197104130929222,0
2025-04-30T11:59:09.094+03:00,1746003548.420814,40.95221689146929,29.14029829636424,76.58913,-1,-1,-1,-1,30,26.98434767089239,-9999,11309.35540125,-0.628753662109375,0.5809783935546875,-0.5081634521484375,11309.35036325,-0.9939998341858082,-0.9082983586917085,-0.6342684244250499,0.01651112362742424,0.01099400315433741,-0.007367336191236973,0.00417172908782959,-0.006727218627929688,-0.01188245415687561,XArbitraryZVertical,-0.445067541091991,-0.232779755162871,-0.2868398966493322,0.8157519473655113,-0.6351073384284973,0.5925883650779724,-0.4954569339752197,0,0,0,-1,-1,11301.05267954167,unknown,2,2025-04-30T11:58:37.789+03:00,2025-04-28T22:17:59.397+03:00,6826,0.8224723,0,0,5720.054,11,14,2025-04-30T11:57:17.800+03:00,767696348.8307848,0,-13.3,100.9576,1,0.85,2025-04-30T11:45:49.339+03:00,87,1.45,2025-04-22T14:20:19.516+03:00,0.02197104130929222,0
2025-04-30T11:59:09.095+03:00,1746003548.420814,40.95221689146929,29.14029829636424,76.58913,-1,-1,-1,-1,30,26.98434767089239,-9999,11309.36547625,-0.622650146484375,0.5834808349609375,-0.504913330078125,11309.36043925,-0.9938308571493581,-0.908027939932612,-0.6340997271676262,0.01667044498026371,0.01888288557529449,-0.003370830556377769,0.002529561519622803,-0.009887158870697021,-0.009970784187316895,XArbitraryZVertical,-0.444951286142891,-0.2327515262245538,-0.2868733087775873,0.815811655574937,-0.6350520849227905,0.5924524664878845,-0.4956901669502258,0,0,0,-1,-1,11301.05267954167,unknown,2,2025-04-30T11:58:37.789+03:00,2025-04-28T22:17:59.397+03:00,6826,0.8224723,0,0,5720.054,11,14,2025-04-30T11:57:17.800+03:00,767696348.8307848,0,-13.3,100.9576,1,0.85,2025-04-30T11:45:49.339+03:00,87,1.45,2025-04-22T14:20:19.516+03:00,0.02197104130929222,0
2025-04-30T11:59:09.104+03:00,1746003548.420814,40.95221689146929,29.14029829636424,76.58913,-1,-1,-1,-1,30,26.98434767089239,-9999,11309.37555225,-0.625823974609375,0.5829315185546875,-0.50396728515625,11309.37051425,-0.9936743210200663,-0.9077164409840267,-0.6339550947029853,0.01373537722975016,0.01838114485144615,-1.231807982549071e-05,0.01034671068191528,-0.01062512397766113,-0.01171916723251343,XArbitraryZVertical,-0.4448388006755964,-0.2326974133894363,-0.2869148968167872,0.8158738340799929,-0.6349652409553528,0.5923359394073486,-0.4959407150745392,0,0,0,-1,-1,11301.05267954167,unknown,2,2025-04-30T11:58:37.789+03:00,2025-04-28T22:17:59.397+03:00,6826,0.8224723,0,0,5720.054,11,14,2025-04-30T11:57:17.800+03:00,767696348.8307848,0,-13.3,100.9576,1,0.85,2025-04-30T11:45:49.339+03:00,87,1.45,2025-04-22T14:20:19.516+03:00,0.02197104130929222,0
2025-04-30T11:59:09.114+03:00,1746003548.420814,40.95221689146929,29.14029829636424,76.58913,-1,-1,-1,-1,30,26.98434767089239,-9999,11309.38562725,-0.6222686767578125,0.574981689453125,-0.5104827880859375,11309.38058925,-0.9935396385926675,-0.9074715101153501,-0.633895757138519,0.005354874767363071,0.01117376610636711,0.003440170548856258,0.01093959808349609,-0.00760185718536377,-0.006491363048553467,XArbitraryZVertical,-0.4447676505073793,-0.2326430884060973,-0.2869292524839935,0.8159230693738805,-0.6348714232444763,0.5922881364822388,-0.4961178600788116,0,0,0,-1,-1,11301.05267954167,unknown,2,2025-04-30T11:58:37.789+03:00,2025-04-28T22:17:59.397+03:00,6826,0.8224723,0,0,5720.054,11,14,2025-04-30T11:57:17.800+03:00,767696348.8307848,0,-13.3,100.9576,1,0.85,2025-04-30T11:45:49.339+03:00,87,1.45,2025-04-22T14:20:19.516+03:00,0.02197104130929222,0
2025-04-30T11:59:09.124+03:00,1746003548.420814,40.95221689146929,29.14029829636424,76.58913,-1,-1,-1,-1,30,26.98434767089239,-9999,11309.39570225,-0.6228179931640625,0.5762786865234375,-0.506378173828125,11309.39066525,-0.9934399629232882,-0.9072635262989964,-0.6338569732645845,0.005546089727431536,0.01393200270831585,0.002821251982823014,0.009572744369506836,-0.01285022497177124,-0.01188412308692932,XArbitraryZVertical,-0.4447129290699944,-0.2325906191379749,-0.2869445219784696,0.8159624661185035,-0.6347863078117371,0.5922569036483765,-0.4962640404701233,0,0,0,-1,-1,11301.05267954167,unknown,2,2025-04-30T11:58:37.789+03:00,2025-04-28T22:17:59.397+03:00,6826,0.8224723,0,0,5720.054,11,14,2025-04-30T11:57:17.800+03:00,767696348.8307848,0,-13.3,100.9576,1,0.85,2025-04-30T11:45:49.339+03:00,87,1.45,2025-04-22T14:20:19.516+03:00,0.02197104130929222,0
2025-04-30T11:59:09.134+03:00,1746003548.420814,40.95221689146929,29.14029829636424,76.58913,-1,-1,-1,-1,30,26.98434767089239,-9999,11309.40577825,-0.6297607421875,0.583984375,-0.5094757080078125,11309.40074025,-0.9933691288460765,-0.9070624349398566,-0.6338175663076635,-0.0009843804873526096,0.01032594963908195,-0.001502722967416048,0.01408421993255615,-0.01855576038360596,-0.01215407252311707,XArbitraryZVertical,-0.4446623362380095,-0.2325347058508204,-0.2869701725992258,0.8159969331895895,-0.6347048878669739,0.5922251343727112,-0.4964060485363007,0,0,0,-1,-1,11301.05267954167,unknown,2,2025-04-30T11:58:37.789+03:00,2025-04-28T22:17:59.397+03:00,6826,0.8224723,0,0,5720.054,11,14,2025-04-30T11:57:17.800+03:00,767696348.8307848,0,-13.3,100.9576,1,0.85,2025-04-30T11:45:49.339+03:00,87,1.45,2025-04-22T14:20:19.516+03:00,0.02197104130929222,0
2025-04-30T11:59:09.144+03:00,1746003548.420814,40.95221689146929,29.14029829636424,76.58913,-1,-1,-1,-1,30,26.98434767089239,-9999,11309.41585325,-0.6292266845703125,0.5810089111328125,-0.511810302734375,11309.41081525,-0.9933954516899021,-0.90696480132749,-0.6337659597318848,-0.005265145562589169,0.007268640212714672,-0.008360895328223705,0.007986843585968018,-0.01123571395874023,-0.01092883944511414,XArbitraryZVertical,-0.4446336852088129,-0.2325026202410103,-0.2870155082168016,0.8160057499171616,-0.634680449962616,0.5921835899353027,-0.4964868426322937,0,0,0,-1,-1,11301.05267954167,unknown,2,2025-04-30T11:58:37.789+03:00,2025-04-28T22:17:59.397+03:00,6826,0.8224723,0,0,5720.054,11,14,2025-04-30T11:57:17.800+03:00,767696348.8307848,0,-13.3,100.9576,1,0.85,2025-04-30T11:45:49.339+03:00,87,1.45,2025-04-22T14:20:19.516+03:00,0.02197104130929222,0
2025-04-30T11:59:09.154+03:00,1746003548.420814,40.95221689146929,29.14029829636424,76.58913,-1,-1,-1,-1,30,26.98434767089239,-9999,11309.42592825,-0.6268768310546875,0.58111572265625,-0.51220703125,11309.42089125,-0.9934407849231818,-0.9069278194836047,-0.6337193639503541,-0.003253194037824869,0.002463698387145996,-0.004276172257959843,0.004572272300720215,-0.008497297763824463,-0.01435214281082153,XArbitraryZVertical,-0.4446175993578944,-0.2324897659916152,-0.2870538901540787,0.8160048195711312,-0.6346839666366577,0.5921460390090942,-0.4965274035930634,0,0,0,-1,-1,11301.05267954167,unknown,2,2025-04-30T11:58:37.789+03:00,2025-04-28T22:17:59.397+03:00,6826,0.8224723,0,0,5720.054,11,14,2025-04-30T11:57:17.800+03:00,767696348.8307848,0,-13.3,100.9576,1,0.85,2025-04-30T11:45:49.339+03:00,87,1.45,2025-04-22T14:20:19.516+03:00,0.02197104130929222,0
2025-04-30T11:59:09.165+03:00,1746003548.420814,40.95221689146929,29.14029829636424,76.58913,-1,-1,-1,-1,30,26.98434767089239,-9999,11309.43600425,-0.6272735595703125,0.58416748046875,-0.508026123046875,11309.43096625,-0.9935088855915087,-0.9069331406781596,-0.6336788786301115,-0.001729333307594061,0.001489514019340277,-0.007229351438581944,0.006348550319671631,-0.01162326335906982,-0.01536303758621216,XArbitraryZVertical,-0.4446124043800815,-0.2324874624371577,-0.2870905984494907,0.8159953724705501,-0.6347054839134216,0.5921133756637573,-0.4965387880802155,0,0,0,-1,-1,11301.05267954167,unknown,2,2025-04-30T11:58:37.789+03:00,2025-04-28T22:17:59.397+03:00,6826,0.8224723,0,0,5720.054,11,14,2025-04-30T11:57:17.800+03:00,767696348.8307848,0,-13.3,100.9576,1,0.85,2025-04-30T11:45:49.339+03:00,87,1.45,2025-04-22T14:20:19.516+03:00,0.02197104130929222,0
2025-04-30T11:59:09.175+03:00,1746003548.420814,40.95221689146929,29.14029829636424,76.58913,-1,-1,-1,-1,30,26.98434767089239,-9999,11309.44607925,-0.625457763671875,0.58050537109375,-0.5077362060546875,11309.44104225,-0.9935841066680454,-0.9070012831544046,-0.6336342021555474,-0.007454796694219112,-0.01081129349768162,-0.005418102256953716,0.007959604263305664,-0.009588360786437988,-0.01319277286529541,XArbitraryZVertical,-0.4446156261931166,-0.232510307955611,-0.2871172894866718,0.8159776808350364,-0.6347600817680359,0.592077374458313,-0.4965118169784546,0,0,0,-1,-1,11301.05267954167,unknown,2,2025-04-30T11:58:37.789+03:00,2025-04-28T22:17:59.397+03:00,6826,0.8224723,0,0,5720.054,11,14,2025-04-30T11:57:17.800+03:00,767696348.8307848,0,-13.3,100.9576,1,0.85,2025-04-30T11:45:49.339+03:00,87,1.45,2025-04-22T14:20:19.516+03:00,0.02197104130929222,0
2025-04-30T11:59:09.185+03:00,1746003548.420814,40.95221689146929,29.14029829636424,76.58913,-1,-1,-1,-1,30,26.98434767089239,-9999,11309.45615525,-0.62457275390625,0.581573486328125,-0.506134033203125,11309.45111725,-0.9936757608918912,-0.9071166862576949,-0.6336195710232498,-0.006672360002994537,-0.007653584238141775,-0.006985638756304979,0.007703244686126709,-0.01011061668395996,-0.01077347993850708,XArbitraryZVertical,-0.4446378336960677,-0.2325408699364377,-0.2871326805696278,0.8159514518343086,-0.6348242163658142,0.5920656323432922,-0.4964438676834106,0,0,0,-1,-1,11301.05267954167,unknown,2,2025-04-30T11:58:37.789+03:00,2025-04-28T22:17:59.397+03:00,6826,0.8224723,0,0,5720.054,11,14,2025-04-30T11:57:17.800+03:00,767696348.8307848,0,-13.3,100.9576,1,0.85,2025-04-30T11:45:49.339+03:00,87,1.45,2025-04-22T14:20:19.516+03:00,0.02197104130929222,0
2025-04-30T11:59:09.195+03:00,1746003548.420814,40.95221689146929,29.14029829636424,76.58913,-1,-1,-1,-1,30,26.98434767089239,-9999,11309.46623025,-0.6280975341796875,0.57891845703125,-0.5079345703125,11309.46119225,-0.993803409587796,-0.9072498497950439,-0.633598510008796,-0.01272466033697128,-0.009506611153483391,-0.008902049623429775,0.01086145639419556,-0.01262658834457397,-0.01043838262557983,XArbitraryZVertical,-0.4446645749777877,-0.2325723672342687,-0.2871604110236486,0.8159181394427434,-0.6349001526832581,0.5920486450195312,-0.4963670074939728,0,0,0,-1,-1,11301.05267954167,unknown,2,2025-04-30T11:58:37.789+03:00,2025-04-28T22:17:59.397+03:00,6826,0.8224723,0,0,5720.054,11,14,2025-04-30T11:57:17.800+03:00,767696348.8307848,0,-13.3,100.9576,1,0.85,2025-04-30T11:45:49.339+03:00,87,1.45,2025-04-22T14:20:19.516+03:00,0.02197104130929222,0
2025-04-30T11:59:09.205+03:00,1746003548.420814,40.95221689146929,29.14029829636424,76.58913,-1,-1,-1,-1,30,26.98434767089239,-9999,11309.47630525,-0.62750244140625,0.5734405517578125,-0.5092315673828125,11309.47126825,-0.9939758679373627,-0.9074294794237036,-0.6335883597273829,-0.01369271893054247,-0.01126136817038059,-0.01024641375988722,0.008910715579986572,-0.01061952114105225,-0.009678959846496582,XArbitraryZVertical,-0.4447069277956761,-0.2326099853248226,-0.2871933676723922,0.8158727656433108,-0.6349940896034241,0.592040479183197,-0.4962566792964935,0,0,0,-1,-1,11301.05267954167,unknown,2,2025-04-30T11:58:37.789+03:00,2025-04-28T22:17:59.397+03:00,6826,0.8224723,0,0,5720.054,11,14,2025-04-30T11:57:17.800+03:00,767696348.8307848,0,-13.3,100.9576,1,0.85,2025-04-30T11:45:49.339+03:00,87,1.45,2025-04-22T14:20:19.516+03:00,0.02197104130929222,0
2025-04-30T11:59:09.215+03:00,1746003548.420814,40.95221689146929,29.14029829636424,76.58913,-1,-1,-1,-1,30,26.98434767089239,-9999,11309.48638125,-0.6296234130859375,0.5776824951171875,-0.5063629150390625,11309.48134325,-0.9941271917929742,-0.9075469306616365,-0.6335657742914542,-0.01098281890153885,-0.001731912139803171,-0.007864815182983875,0.007041633129119873,-0.01681166887283325,-0.01333111524581909,XArbitraryZVertical,-0.44473365318555,-0.2326302024162837,-0.2872346222336959,0.8158379083390526,-0.6350628733634949,0.5920222401618958,-0.4961903393268585,0,0,0,-1,-1,11301.05267954167,unknown,2,2025-04-30T11:58:37.789+03:00,2025-04-28T22:17:59.397+03:00,6826,0.8224723,0,0,5720.054,11,14,2025-04-30T11:57:17.800+03:00,767696348.8307848,0,-13.3,100.9576,1,0.85,2025-04-30T11:45:49.339+03:00,87,1.45,2025-04-22T14:20:19.516+03:00,0.02197104130929222,0
2025-04-30T11:59:09.225+03:00,1746003548.420814,40.95221689146929,29.14029829636424,76.58913,-1,-1,-1,-1,30,26.98434767089239,-9999,11309.49645625,-0.6318359375,0.580474853515625,-0.5080413818359375,11309.49141825,-0.9942720464200402,-0.9076229756408611,-0.6335195202273387,-0.007465050090104342,-0.002199030481278896,-0.01220630016177893,0.006521165370941162,-0.01671332120895386,-0.01115000247955322,XArbitraryZVertical,-0.4447455592003993,-0.2326412109412679,-0.287288359898743,0.8158093782171534,-0.6351221799850464,0.5919849872589111,-0.4961588978767395,0,0,0,-1,-1,11301.05267954167,unknown,2,2025-04-30T11:58:37.789+03:00,2025-04-28T22:17:59.397+03:00,6826,0.8224723,0,0,5720.054,11,14,2025-04-30T11:57:17.800+03:00,767696348.8307848,0,-13.3,100.9576,1,0.85,2025-04-30T11:45:49.339+03:00,87,1.45,2025-04-22T14:20:19.516+03:00,0.02197104130929222,0
2025-04-30T11:59:09.235+03:00,1746003548.420814,40.95221689146929,29.14029829636424,76.58913,-1,-1,-1,-1,30,26.98434767089239,-9999,11309.50653125,-0.62994384765625,0.57733154296875,-0.5116424560546875,11309.50149425,-0.9944339973574099,-0.9077380036003767,-0.6334490587484271,-0.01039732340723276,-0.005044218618422747,-0.01616622135043144,0.003498196601867676,-0.01305550336837769,-0.01049554347991943,XArbitraryZVertical,-0.444756824693341,-0.232670669849647,-0.2873464221070475,0.8157742740128334,-0.6352120637893677,0.5919281840324402,-0.4961114525794983,0,0,0,-1,-1,11301.05267954167,unknown,2,2025-04-30T11:58:37.789+03:00,2025-04-28T22:17:59.397+03:00,6826,0.8224723,0,0,5720.054,11,14,2025-04-30T11:57:17.800+03:00,767696348.8307848,0,-13.3,100.9576,1,0.85,2025-04-30T11:45:49.339+03:00,87,1.45,2025-04-22T14:20:19.516+03:00,0.02197104130929222,0
2025-04-30T11:59:09.245+03:00,1746003548.420814,40.95221689146929,29.14029829636424,76.58913,-1,-1,-1,-1,30,26.98434767089239,-9999,11309.51660725,-0.6282501220703125,0.5749969482421875,-0.510589599609375,11309.51156925,-0.9946561932973232,-0.9079102048089477,-0.6333709502384098,-0.01530979108065367,-0.007241593208163977,-0.01774520985782146,0.003971099853515625,-0.0120464563369751,-0.01494050025939941,XArbitraryZVertical,-0.4447806259683216,-0.2327121033135469,-0.2874182819185987,0.8157242126329248,-0.6353339552879333,0.5918652415275574,-0.4960305392742157,0,0,0,-1,-1,11301.05267954167,unknown,2,2025-04-30T11:58:37.789+03:00,2025-04-28T22:17:59.397+03:00,6826,0.8224723,0,0,5720.054,11,14,2025-04-30T11:57:17.800+03:00,767696348.8307848,0,-13.3,100.9576,1,0.85,2025-04-30T11:45:49.339+03:00,87,1.45,2025-04-22T14:20:19.516+03:00,0.02197104130929222,0
2025-04-30T11:59:09.255+03:00,1746003548.420814,40.95221689146929,29.14029829636424,76.58913,-1,-1,-1,-1,30,26.98434767089239,-9999,11309.52668225,-0.628082275390625,0.5784149169921875,-0.5093841552734375,11309.52164425,-0.9949129890728857,-0.9081295085170004,-0.6332985440481935,-0.01177424378693104,-0.01072693802416325,-0.01802301034331322,0.007363736629486084,-0.01650470495223999,-0.01566380262374878,XArbitraryZVertical,-0.4448172232159145,-0.232763528407803,-0.2874923336661865,0.8156634730547072,-0.6354764699935913,0.5918068885803223,-0.4959175586700439,0,0,0,-1,-1,11301.05267954167,unknown,2,2025-04-30T11:58:37.789+03:00,2025-04-28T22:17:59.397+03:00,6826,0.8224723,0,0,5720.054,11,14,2025-04-30T11:57:17.800+03:00,767696348.8307848,0,-13.3,100.9576,1,0.85,2025-04-30T11:45:49.339+03:00,87,1.45,2025-04-22T14:20:19.516+03:00,0.02197104130929222,0
2025-04-30T11:59:09.265+03:00,1746003548.420814,40.95221689146929,29.14029829636424,76.58913,-1,-1,-1,-1,30,26.98434767089239,-9999,11309.53675725,-0.628875732421875,0.5785980224609375,-0.511260986328125,11309.53172025,-0.9951997199758721,-0.9083651755670782,-0.6332189840994631,-0.01685955002903938,-0.009795098565518856,-0.0212414413690567,0.006693720817565918,-0.01450270414352417,-0.01366370916366577,XArbitraryZVertical,-0.4448572256265277,-0.2328168470729519,-0.2875767321502611,0.8155966714448405,-0.6356304883956909,0.5917427539825439,-0.4957967400550842,0,0,0,-1,-1,11301.05267954167,unknown,2,2025-04-30T11:58:37.789+03:00,2025-04-28T22:17:59.397+03:00,6826,0.8224723,0,0,5720.054,11,14,2025-04-30T11:57:17.800+03:00,767696348.8307848,0,-13.3,100.9576,1,0.85,2025-04-30T11:45:49.339+03:00,87,1.45,2025-04-22T14:20:19.516+03:00,0.02197104130929222,0
2025-04-30T11:59:09.276+03:00,1746003548.420814,40.95221689146929,29.14029829636424,76.58913,-1,-1,-1,-1,30,26.98434767089239,-9999,11309.54683325,-0.6328887939453125,0.5794525146484375,-0.51348876953125,11309.54179525,-0.9954531316504373,-0.9085853930394423,-0.6331133197463479,-0.008255476132035255,-0.01030009984970093,-0.02317599393427372,0.008011877536773682,-0.01309007406234741,-0.01381096243858337,XArbitraryZVertical,-0.4448822101009972,-0.2328781540560075,-0.2876574939524736,0.8155370371832449,-0.6357889175415039,0.5916575193405151,-0.495695173740387,0,0,0,-1,-1,11301.05267954167,unknown,2,2025-04-30T11:58:37.789+03:00,2025-04-28T22:17:59.397+03:00,6826,0.8224723,0,0,5720.054,11,14,2025-04-30T11:57:17.800+03:00,767696348.8307848,0,-13.3,100.9576,1,0.85,2025-04-30T11:45:49.339+03:00,87,1.45,2025-04-22T14:20:19.516+03:00,0.02197104130929222,0
2025-04-30T11:59:09.286+03:00,1746003548.420814,40.95221689146929,29.14029829636424,76.58913,-1,-1,-1,-1,30,26.98434767089239,-9999,11309.55690825,-0.6363372802734375,0.58245849609375,-0.5142822265625,11309.55187025,-0.9956378112818757,-0.9087093805815429,-0.6329295261574901,0.004371102899312973,0.00273420917801559,-0.02597417682409286,0.005046308040618896,-0.01181274652481079,-0.016813725233078,XArbitraryZVertical,-0.4448586028849769,-0.2329361262732579,-0.2877511636060869,0.8155002986116462,-0.6359361410140991,0.5915093421936035,-0.4956831634044647,0,0,0,-1,-1,11301.05267954167,unknown,2,2025-04-30T11:58:37.789+03:00,2025-04-28T22:17:59.397+03:00,6826,0.8224723,0,0,5720.054,11,14,2025-04-30T11:57:17.800+03:00,767696348.8307848,0,-13.3,100.9576,1,0.85,2025-04-30T11:45:49.339+03:00,87,1.45,2025-04-22T14:20:19.516+03:00,0.02197104130929222,0
2025-04-30T11:59:09.296+03:00,1746003548.420814,40.95221689146929,29.14029829636424,76.58913,-1,-1,-1,-1,30,26.98434767089239,-9999,11309.56698325,-0.638702392578125,0.5856475830078125,-0.5208587646484375,11309.56194625,-0.995668422327196,-0.9086372501372001,-0.6325789658234657,0.02901133522391319,0.007880368269979954,-0.03106966987252235,0.001679778099060059,-0.01049238443374634,-0.01854771375656128,XArbitraryZVertical,-0.4447316931607091,-0.2329924158737162,-0.287867323685033,0.8155124643574609,-0.6360638737678528,0.5912266969680786,-0.4958565235137939,0,0,0,-1,-1,11301.05267954167,unknown,2,2025-04-30T11:58:37.789+03:00,2025-04-28T22:17:59.397+03:00,6826,0.8224723,0,0,5720.054,11,14,2025-04-30T11:57:17.800+03:00,767696348.8307848,0,-13.3,100.9576,1,0.85,2025-04-30T11:45:49.339+03:00,87,1.45,2025-04-22T14:20:19.516+03:00,0.02197104130929222,0
2025-04-30T11:59:09.306+03:00,1746003548.420814,40.95221689146929,29.14029829636424,76.58913,-1,-1,-1,-1,30,26.98434767089239,-9999,11309.57705925,-0.632354736328125,0.5824432373046875,-0.52789306640625,11309.57202125,-0.9955166903646889,-0.9084452762225164,-0.6320701885659944,0.04717409610748291,0.006325880996882915,-0.02873887121677399,-0.002374470233917236,-0.007075965404510498,-0.02020907402038574,XArbitraryZVertical,-0.4445120539278394,-0.233082102350757,-0.2879752868444022,0.8155684730842728,-0.636205792427063,0.5908162593841553,-0.496163547039032,0,0,0,-1,-1,11301.05267954167,unknown,2,2025-04-30T11:58:37.789+03:00,2025-04-28T22:17:59.397+03:00,6826,0.8224723,0,0,5720.054,11,14,2025-04-30T11:57:17.800+03:00,767696348.8307848,0,-13.3,100.9576,1,0.85,2025-04-30T11:45:49.339+03:00,87,1.45,2025-04-22T14:20:19.516+03:00,0.02197104130929222,0
2025-04-30T11:59:09.330+03:00,1746003548.420814,40.95221689146929,29.14029829636424,76.58913,-1,-1,-1,-1,30,26.98434767089239,-9999,11309.58713425,-0.62982177734375,0.5784454345703125,-0.5300140380859375,11309.58209725,-0.9951775996141613,-0.908192308463949,-0.6314063762916525,0.07100725173950195,0.0006493530236184597,-0.03983200341463089,0.0002657175064086914,-0.005014479160308838,-0.02850452065467834,XArbitraryZVertical,-0.4442085748869269,-0.2332293642779348,-0.2880590538177185,0.8156621310638882,-0.6363893151283264,0.5902805924415588,-0.4965656101703644,0,0,0,-1,-1,11301.05267954167,unknown,2,2025-04-30T11:58:37.789+03:00,2025-04-28T22:17:59.397+03:00,6826,0.8224723,0,0,5720.054,11,14,2025-04-30T11:57:17.800+03:00,767696348.8307848,0,-13.3,100.9576,1,0.85,2025-04-30T11:45:49.339+03:00,87,1.45,2025-04-22T14:20:19.516+03:00,0.02197104130929222,0
2025-04-30T11:59:09.331+03:00,1746003548.420814,40.95221689146929,29.14029829636424,76.58913,-1,-1,-1,-1,30,26.98434767089239,-9999,11309.59721025,-0.6310882568359375,0.5814361572265625,-0.539093017578125,11309.59217225,-0.9944698732213532,-0.907868078397033,-0.6304065988803881,0.1400566250085831,-0.02825260162353516,-0.0456123948097229,0.006291627883911133,-0.01099729537963867,-0.03112435340881348,XArbitraryZVertical,-0.4437363891427715,-0.2335177989062422,-0.2880920494261113,0.815825017462934,-0.6366931796073914,0.5894732475280762,-0.4971349239349365,0,0,0,-1,-1,11301.05267954167,unknown,2,2025-04-30T11:58:37.789+03:00,2025-04-28T22:17:59.397+03:00,6826,0.8224723,0,0,5720.054,11,14,2025-04-30T11:57:17.800+03:00,767696348.8307848,0,-13.3,100.9576,1,0.85,2025-04-30T11:45:49.339+03:00,87,1.45,2025-04-22T14:20:19.516+03:00,0.02197104130929222,0
2025-04-30T11:59:09.336+03:00,1746003548.420814,40.95221689146929,29.14029829636424,76.58913,-1,-1,-1,-1,30,26.98434767089239,-9999,11309.60728525,-0.6286163330078125,0.577362060546875,-0.5438385009765625,11309.60224725,-0.9935867014098281,-0.9076490671062536,-0.629205817794199,0.1007656157016754,-0.03611991554498672,-0.05555120855569839,0.006221234798431396,-0.007326006889343262,-0.03521871566772461,XArbitraryZVertical,-0.4431894961704427,-0.2339405881036906,-0.2880800247486948,0.8160054313309699,-0.6371416449546814,0.588502824306488,-0.4977097511291504,0,0,0,-1,-1,11301.05267954167,unknown,2,2025-04-30T11:58:37.789+03:00,2025-04-28T22:17:59.397+03:00,6826,0.8224723,0,0,5720.054,11,14,2025-04-30T11:57:17.800+03:00,767696348.8307848,0,-13.3,100.9576,1,0.85,2025-04-30T11:45:49.339+03:00,87,1.45,2025-04-22T14:20:19.516+03:00,0.02197104130929222,0
2025-04-30T11:59:09.346+03:00,1746003548.420814,40.95221689146929,29.14029829636424,76.58913,-1,-1,-1,-1,30,26.98434767089239,-9999,11309.61736025,-0.6327972412109375,0.58416748046875,-0.5363006591796875,11309.61232325,-0.9930646309047834,-0.9077498972381113,-0.6280965156493191,0.09369492530822754,-0.04943785071372986,-0.06432046741247177,0.00872337818145752,-0.009160161018371582,-0.04576092958450317,XArbitraryZVertical,-0.4427619484483899,-0.2343893436312091,-0.2881214219539033,0.8160940753067119,-0.63770592212677,0.5876055955886841,-0.4980469942092896,0,0,0,-1,-1,11301.05267954167,unknown,2,2025-04-30T11:58:37.789+03:00,2025-04-28T22:17:59.397+03:00,6826,0.8224723,0,0,5720.054,11,14,2025-04-30T11:57:17.800+03:00,767696348.8307848,0,-13.3,100.9576,1,0.85,2025-04-30T11:45:49.339+03:00,87,1.45,2025-04-22T14:20:19.516+03:00,0.02197104130929222,0
2025-04-30T11:59:09.356+03:00,1746003548.420814,40.95221689146929,29.14029829636424,76.58913,-1,-1,-1,-1,30,26.98434767089239,-9999,11309.62743625,-0.6308135986328125,0.5928802490234375,-0.561279296875,11309.62239825,-0.9931645178801435,-0.9083952099057414,-0.6273665392477052,0.009542030282318592,-0.07311221957206726,-0.06898748874664307,0.007780551910400391,-0.00692141056060791,-0.04050725698471069,XArbitraryZVertical,-0.4426158531333365,-0.2348226389053864,-0.2882014718403261,0.8160205559446098,-0.6383652687072754,0.5870147943496704,-0.497899055480957,0,0,0,-1,-1,11301.05267954167,unknown,2,2025-04-30T11:58:37.789+03:00,2025-04-28T22:17:59.397+03:00,6826,0.8224723,0,0,5720.054,11,14,2025-04-30T11:57:17.800+03:00,767696348.8307848,0,-13.3,100.9576,1,0.85,2025-04-30T11:45:49.339+03:00,87,1.45,2025-04-22T14:20:19.516+03:00,0.02197104130929222,0
2025-04-30T11:59:09.366+03:00,1746003548.420814,40.95221689146929,29.14029829636424,76.58913,-1,-1,-1,-1,30,26.98434767089239,-9999,11309.63751125,-0.628692626953125,0.58099365234375,-0.566436767578125,11309.63247325,-0.9933899437254912,-0.9094173659027927,-0.6265938954361755,0.0437772311270237,-0.106934629380703,-0.06786417216062546,0.005549371242523193,0.001776218414306641,-0.04999113082885742,XArbitraryZVertical,-0.4425242857941703,-0.2353930733219723,-0.2882600813378107,0.8158851340963194,-0.6392315626144409,0.5863891243934631,-0.4975247085094452,0,0,0,-1,-1,11301.05267954167,unknown,2,2025-04-30T11:58:37.789+03:00,2025-04-28T22:17:59.397+03:00,6826,0.8224723,0,0,5720.054,11,14,2025-04-30T11:57:17.800+03:00,767696348.8307848,0,-13.3,100.9576,1,0.85,2025-04-30T11:45:49.339+03:00,87,1.45,2025-04-22T14:20:19.516+03:00,0.02197104130929222,0
2025-04-30T11:59:09.376+03:00,1746003548.420814,40.95221689146929,29.14029829636424,76.58913,-1,-1,-1,-1,30,26.98434767089239,-9999,11309.64758625,-0.63641357421875,0.5626068115234375,-0.579010009765625,11309.64254925,-0.9935582286854673,-0.9106946245589731,-0.6257718197086188,0.03040902875363827,-0.1298486739397049,-0.08229673653841019,0.0126531720161438,0.007126748561859131,-0.07071518898010254,XArbitraryZVertical,-0.4424459097269235,-0.23609315506825,-0.2882514295438528,0.8157284076571536,-0.640247106552124,0.5857230424880981,-0.4970032870769501,0,0,0,-1,-1,11301.05267954167,unknown,2,2025-04-30T11:58:37.789+03:00,2025-04-28T22:17:59.397+03:00,6826,0.8224723,0,0,5720.054,11,14,2025-04-30T11:57:17.800+03:00,767696348.8307848,0,-13.3,100.9576,1,0.85,2025-04-30T11:45:49.339+03:00,87,1.45,2025-04-22T14:20:19.516+03:00,0.02197104130929222,0
2025-04-30T11:59:09.386+03:00,1746003548.420814,40.95221689146929,29.14029829636424,76.58913,-1,-1,-1,-1,30,26.98434767089239,-9999,11309.65766225,-0.642242431640625,0.56683349609375,-0.5821380615234375,11309.65262425,-0.9942104114204079,-0.9124002556230657,-0.6249895711541422,-0.02770247682929039,-0.1391912996768951,-0.1053147092461586,0.008979320526123047,-0.01872831583023071,-0.07352668046951294,XArbitraryZVertical,-0.4425003861380946,-0.2368502772110739,-0.2883355354085879,0.8154495917848887,-0.6414560675621033,0.5850887894630432,-0.4961906969547272,0,0,0,-1,-1,11301.05267954167,unknown,2,2025-04-30T11:58:37.789+03:00,2025-04-28T22:17:59.397+03:00,6826,0.8224723,0,0,5720.054,11,14,2025-04-30T11:57:17.800+03:00,767696348.8307848,0,-13.3,100.9576,1,0.85,2025-04-30T11:45:49.339+03:00,87,1.45,2025-04-22T14:20:19.516+03:00,0.02197104130929222,0
2025-04-30T11:59:09.396+03:00,1746003548.420814,40.95221689146929,29.14029829636424,76.58913,-1,-1,-1,-1,30,26.98434767089239,-9999,11309.66773725,-0.6438751220703125,0.5402374267578125,-0.5598602294921875,11309.66269925,-0.9957494157860871,-0.9146354997766016,-0.6245167170968313,-0.1172033995389938,-0.1357883960008621,-0.1188377365469933,0.002707064151763916,-0.01944339275360107,-0.09035694599151611,XArbitraryZVertical,-0.4428431592532306,-0.2375452554634726,-0.2885864177105246,0.81497244969356,-0.6427827477455139,0.5847052931785583,-0.4949243664741516,0,0,0,-1,-1,11301.05267954167,unknown,2,2025-04-30T11:58:37.789+03:00,2025-04-28T22:17:59.397+03:00,6826,0.8224723,0,0,5720.054,11,14,2025-04-30T11:57:17.800+03:00,767696348.8307848,0,-13.3,100.9576,1,0.85,2025-04-30T11:45:49.339+03:00,87,1.45,2025-04-22T14:20:19.516+03:00,0.02197104130929222,0
2025-04-30T11:59:09.407+03:00,1746003548.420814,40.95221689146929,29.14029829636424,76.58913,-1,-1,-1,-1,30,26.98434767089239,-9999,11309.67781325,-0.644317626953125,0.5187835693359375,-0.5614471435546875,11309.67277525,-0.9978580282163668,-0.917245970150032,-0.6243716819554848,-0.1249124482274055,-0.1454700380563736,-0.1154706999659538,0.00142437219619751,-0.02701616287231445,-0.07788598537445068,XArbitraryZVertical,-0.4434211866881057,-0.2381796160007234,-0.2889032730585862,0.8143604519556465,-0.6441397666931152,0.5845876336097717,-0.4932962357997894,0,0,0,-1,-1,11301.05267954167,unknown,2,2025-04-30T11:58:37.789+03:00,2025-04-28T22:17:59.397+03:00,6826,0.8224723,0,0,5720.054,11,14,2025-04-30T11:57:17.800+03:00,767696348.8307848,0,-13.3,100.9576,1,0.85,2025-04-30T11:45:49.339+03:00,87,1.45,2025-04-22T14:20:19.516+03:00,0.02197104130929222,0
2025-04-30T11:59:09.417+03:00,1746003548.420814,40.95221689146929,29.14029829636424,76.58913,-1,-1,-1,-1,30,26.98434767089239,-9999,11309.68788825,-0.64276123046875,0.5508575439453125,-0.5840606689453125,11309.68285025,-0.9997369227176244,-0.9197168034556864,-0.6239979132278356,-0.07325371354818344,-0.1353747248649597,-0.1299806386232376,0.0004041790962219238,-0.06112152338027954,-0.06367585062980652,XArbitraryZVertical,-0.4438745869656276,-0.2388672468274804,-0.2892138171227968,0.8138016475675967,-0.6455304622650146,0.5842843055725098,-0.4918355643749237,0,0,0,-1,-1,11301.05267954167,unknown,2,2025-04-30T11:58:37.789+03:00,2025-04-28T22:17:59.397+03:00,6826,0.8224723,0,0,5720.054,11,14,2025-04-30T11:57:17.800+03:00,767696348.8307848,0,-13.3,100.9576,1,0.85,2025-04-30T11:45:49.339+03:00,87,1.45,2025-04-22T14:20:19.516+03:00,0.02197104130929222,0
2025-04-30T11:59:09.427+03:00,1746003548.420814,40.95221689146929,29.14029829636424,76.58913,-1,-1,-1,-1,30,26.98434767089239,-9999,11309.69796325,-0.641876220703125,0.6038360595703125,-0.579620361328125,11309.69292625,-1.00133036191778,-0.9217622613627225,-0.623314284470176,-0.05488856136798859,-0.09766969084739685,-0.1386569440364838,0.003084957599639893,-0.05441725254058838,-0.08384469151496887,XArbitraryZVertical,-0.4441277470242628,-0.239526243864622,-0.2895797982216229,0.8133395365649011,-0.6468531489372253,0.5837293863296509,-0.4907554388046265,0,0,0,-1,-1,11301.05267954167,unknown,2,2025-04-30T11:58:37.789+03:00,2025-04-28T22:17:59.397+03:00,6826,0.8224723,0,0,5720.054,11,14,2025-04-30T11:57:17.800+03:00,767696348.8307848,0,-13.3,100.9576,1,0.85,2025-04-30T11:45:49.339+03:00,87,1.45,2025-04-22T14:20:19.516+03:00,0.02197104130929222,0
2025-04-30T11:59:09.437+03:00,1746003548.420814,40.95221689146929,29.14029829636424,76.58913,-1,-1,-1,-1,30,26.98434767089239,-9999,11309.70803925,-0.641845703125,0.643310546875,-0.5720977783203125,11309.70300125,-1.002465742732053,-0.9230467090065143,-0.6223749100573069,0.0321977399289608,-0.03240693360567093,-0.1196967735886574,0.005784451961517334,-0.006016373634338379,-0.09462973475456238,XArbitraryZVertical,-0.4441295497148918,-0.240044831036848,-0.2899926259070863,0.8130385272898908,-0.6479199528694153,0.5829663872718811,-0.4902548491954803,0,0,0,-1,-1,11301.05267954167,unknown,2,2025-04-30T11:58:37.789+03:00,2025-04-28T22:17:59.397+03:00,6826,0.8224723,0,0,5720.054,11,14,2025-04-30T11:57:17.800+03:00,767696348.8307848,0,-13.3,100.9576,1,0.85,2025-04-30T11:45:49.339+03:00,87,1.45,2025-04-22T14:20:19.516+03:00,0.02197104130929222,0
2025-04-30T11:59:09.447+03:00,1746003548.420814,40.95221689146929,29.14029829636424,76.58913,-1,-1,-1,-1,30,26.98434767089239,-9999,11309.71811425,-0.6317901611328125,0.63494873046875,-0.60089111328125,11309.71307625,-1.002095235003014,-0.9228541958973248,-0.6209235010456903,0.1793126165866852,0.01811882480978966,-0.07685556262731552,0.006333470344543457,0.04690611362457275,-0.0818336009979248,XArbitraryZVertical,-0.4435619813213852,-0.2404327008852388,-0.290250032468429,0.813141972396984,-0.648499608039856,0.5817865133285522,-0.4908897578716278,0,0,0,-1,-1,11301.05267954167,unknown,2,2025-04-30T11:58:37.789+03:00,2025-04-28T22:17:59.397+03:00,6826,0.8224723,0,0,5720.054,11,14,2025-04-30T11:57:17.800+03:00,767696348.8307848,0,-13.3,100.9576,1,0.85,2025-04-30T11:45:49.339+03:00,87,1.45,2025-04-22T14:20:19.516+03:00,0.02197104130929222,0
2025-04-30T11:59:09.457+03:00,1746003548.420814,40.95221689146929,29.14029829636424,76.58913,-1,-1,-1,-1,30,26.98434767089239,-9999,11309.72818925,-0.6262969970703125,0.5972442626953125,-0.6097564697265625,11309.72315225,-1.000853512301643,-0.9219570552038738,-0.6192690986171869,0.1569743007421494,0.0079018734395504,-0.07010325789451599,0.01096177101135254,0.06485402584075928,-0.09118437767028809,XArbitraryZVertical,-0.4427174729358316,-0.2407801924963183,-0.2903598917303362,0.8134600572383063,-0.64882493019104,0.5804401636123657,-0.492052286863327,0,0,0,-1,-1,11301.05267954167,unknown,2,2025-04-30T11:58:37.789+03:00,2025-04-28T22:17:59.397+03:00,6826,0.8224723,0,0,5720.054,11,14,2025-04-30T11:57:17.800+03:00,767696348.8307848,0,-13.3,100.9576,1,0.85,2025-04-30T11:45:49.339+03:00,87,1.45,2025-04-22T14:20:19.516+03:00,0.02197104130929222,0
2025-04-30T11:59:09.467+03:00,1746003548.420814,40.95221689146929,29.14029829636424,76.58913,-1,-1,-1,-1,30,26.98434767089239,-9999,11309.73826525,-0.643157958984375,0.54766845703125,-0.590911865234375,11309.73322725,-1.000287949043615,-0.921665429653663,-0.6180994169965758,0.03471123427152634,-0.03683710470795631,-0.06185917183756828,0.02289426326751709,0.03852421045303345,-0.1196683645248413,XArbitraryZVertical,-0.4422071891580344,-0.241095499459083,-0.2904882453634014,0.813598357673603,-0.6492217779159546,0.5794872641563416,-0.4926515221595764,0,0,0,-1,-1,11301.05267954167,unknown,2,2025-04-30T11:58:37.789+03:00,2025-04-28T22:17:59.397+03:00,6826,0.8224723,0,0,5720.054,11,14,2025-04-30T11:57:17.800+03:00,767696348.8307848,0,-13.3,100.9576,1,0.85,2025-04-30T11:45:49.339+03:00,87,1.45,2025-04-22T14:20:19.516+03:00,0.02197104130929222,0
2025-04-30T11:59:09.477+03:00,1746003548.420814,40.95221689146929,29.14029829636424,76.58913,-1,-1,-1,-1,30,26.98434767089239,-9999,11309.74834025,-0.654052734375,0.52130126953125,-0.5951080322265625,11309.74330225,-1.001239020796346,-0.9225289768807754,-0.6180245882534093,-0.1575474888086319,-0.04308467730879784,-0.03617541491985321,0.01604515314102173,-0.007420003414154053,-0.1058291792869568,XArbitraryZVertical,-0.442421733043316,-0.2412561751938448,-0.2907029208735696,0.8133574581787661,-0.6496816277503967,0.5794262886047363,-0.4921169281005859,0,0,0,-1,-1,11301.05267954167,unknown,2,2025-04-30T11:58:37.789+03:00,2025-04-28T22:17:59.397+03:00,6826,0.8224723,0,0,5720.054,11,14,2025-04-30T11:57:17.800+03:00,767696348.8307848,0,-13.3,100.9576,1,0.85,2025-04-30T11:45:49.339+03:00,87,1.45,2025-04-22T14:20:19.516+03:00,0.02197104130929222,0
2025-04-30T11:59:09.487+03:00,1746003548.420814,40.95221689146929,29.14029829636424,76.58913,-1,-1,-1,-1,30,26.98434767089239,-9999,11309.75841625,-0.6526641845703125,0.535064697265625,-0.596954345703125,11309.75337825,-1.003914984425369,-0.924742264713832,-0.6193775756868555,-0.358212411403656,-0.08945777267217636,-0.01127352844923735,-0.000202178955078125,-0.05182665586471558,-0.1018203496932983,XArbitraryZVertical,-0.4435281566263761,-0.2412054992697205,-0.2909601049689632,0.8126776330697895,-0.6501426100730896,0.5805284976959229,-0.4902053773403168,0,0,0,-1,-1,11301.05267954167,unknown,2,2025-04-30T11:58:37.789+03:00,2025-04-28T22:17:59.397+03:00,6826,0.8224723,0,0,5720.054,11,14,2025-04-30T11:57:17.800+03:00,767696348.8307848,0,-13.3,100.9576,1,0.85,2025-04-30T11:45:49.339+03:00,87,1.45,2025-04-22T14:20:19.516+03:00,0.02197104130929222,0
2025-04-30T11:59:09.497+03:00,1746003548.420814,40.95221689146929,29.14029829636424,76.58913,-1,-1,-1,-1,30,26.98434767089239,-9999,11309.76849125,-0.6529541015625,0.5609893798828125,-0.5994415283203125,11309.76345325,-1.008412751139076,-0.9284273798032711,-0.6221556958323285,-0.5465824604034424,-0.1315560936927795,0.01433935761451721,-0.002852559089660645,-0.05842000246047974,-0.1101314723491669,XArbitraryZVertical,-0.4455520006383765,-0.2409655264334056,-0.291266480248657,0.8115311388890987,-0.6506507992744446,0.5827882885932922,-0.4868380725383759,0,0,0,-1,-1,11301.05267954167,unknown,2,2025-04-30T11:58:37.789+03:00,2025-04-28T22:17:59.397+03:00,6826,0.8224723,0,0,5720.054,11,14,2025-04-30T11:57:17.800+03:00,767696348.8307848,0,-13.3,100.9576,1,0.85,2025-04-30T11:45:49.339+03:00,87,1.45,2025-04-22T14:20:19.516+03:00,0.02197104130929222,0
2025-04-30T11:59:09.507+03:00,1746003548.420814,40.95221689146929,29.14029829636424,76.58913,-1,-1,-1,-1,30,26.98434767089239,-9999,11309.77856625,-0.66009521484375,0.58233642578125,-0.605621337890625,11309.77352925,-1.014250546672503,-0.9333335939929903,-0.6260489649391685,-0.6739510297775269,-0.1687974631786346,0.04588956013321877,-0.0007895231246948242,-0.03757727146148682,-0.1154617965221405,XArbitraryZVertical,-0.4482881184954586,-0.2406133524673667,-0.2915505982255242,0.8100254351016128,-0.6512032151222229,0.5859476327896118,-0.4822859466075897,0,0,0,-1,-1,11301.05267954167,unknown,2,2025-04-30T11:58:37.789+03:00,2025-04-28T22:17:59.397+03:00,6826,0.8224723,0,0,5720.054,11,14,2025-04-30T11:57:17.800+03:00,767696348.8307848,0,-13.3,100.9576,1,0.85,2025-04-30T11:45:49.339+03:00,87,1.45,2025-04-22T14:20:19.516+03:00,0.02197104130929222,0
2025-04-30T11:59:09.517+03:00,1746003548.420814,40.95221689146929,29.14029829636424,76.58913,-1,-1,-1,-1,30,26.98434767089239,-9999,11309.78864225,-0.6642913818359375,0.5944671630859375,-0.6004791259765625,11309.78360425,-1.021210004626897,-0.9392699975602694,-0.6309220472180096,-0.7996677756309509,-0.2058029621839523,0.07113176584243774,-0.005224764347076416,-0.01739501953125,-0.1261849403381348,XArbitraryZVertical,-0.4516306354751899,-0.2401450252762487,-0.2917899882688721,0.8082195026076692,-0.6517423987388611,0.5898895263671875,-0.4767202734947205,0,0,0,-1,-1,11301.05267954167,unknown,2,2025-04-30T11:58:37.789+03:00,2025-04-28T22:17:59.397+03:00,6826,0.8224723,0,0,5720.054,11,14,2025-04-30T11:57:17.800+03:00,767696348.8307848,0,-13.3,100.9576,1,0.85,2025-04-30T11:45:49.339+03:00,87,1.45,2025-04-22T14:20:19.516+03:00,0.02197104130929222,0
2025-04-30T11:59:09.527+03:00,1746003548.420814,40.95221689146929,29.14029829636424,76.58913,-1,-1,-1,-1,30,26.98434767089239,-9999,11309.79871725,-0.6683197021484375,0.589599609375,-0.5926361083984375,11309.79367925,-1.028980538474755,-0.9462033071582792,-0.6365440676048664,-0.8574772477149963,-0.2560924887657166,0.0997903123497963,-0.009976387023925781,-0.00419461727142334,-0.1351185441017151,XArbitraryZVertical,-0.4554534430042818,-0.2396674657671237,-0.291914093057803,0.8061685831634281,-0.6523312926292419,0.5944198966026306,-0.4702433347702026,0,0,0,-1,-1,11301.05267954167,unknown,2,2025-04-30T11:58:37.789+03:00,2025-04-28T22:17:59.397+03:00,6826,0.8224723,0,0,5720.054,11,14,2025-04-30T11:57:17.800+03:00,767696348.8307848,0,-13.3,100.9576,1,0.85,2025-04-30T11:45:49.339+03:00,87,1.45,2025-04-22T14:20:19.516+03:00,0.02197104130929222,0
2025-04-30T11:59:09.538+03:00,1746003548.420814,40.95221689146929,29.14029829636424,76.58913,-1,-1,-1,-1,30,26.98434767089239,-9999,11309.80879225,-0.6627960205078125,0.5824127197265625,-0.5958099365234375,11309.80375525,-1.037065948175395,-0.9538621710026439,-0.6426831420350416,-0.8937100768089294,-0.3070275187492371,0.1363426297903061,-0.01354849338531494,-0.00478672981262207,-0.1321165263652802,XArbitraryZVertical,-0.4595745279831357,-0.2392373506611064,-0.2918341027743683,0.8039834848432036,-0.6529247760772705,0.5993454456329346,-0.4631134867668152,0,0,0,-1,-1,11301.05267954167,unknown,2,2025-04-30T11:58:37.789+03:00,2025-04-28T22:17:59.397+03:00,6826,0.8224723,0,0,5720.054,11,14,2025-04-30T11:57:17.800+03:00,767696348.8307848,0,-13.3,100.9576,1,0.85,2025-04-30T11:45:49.339+03:00,87,1.45,2025-04-22T14:20:19.516+03:00,0.02197104130929222,0
2025-04-30T11:59:09.547+03:00,1746003548.420814,40.95221689146929,29.14029829636424,76.58913,-1,-1,-1,-1,30,26.98434767089239,-9999,11309.81886825,-0.6548004150390625,0.5848846435546875,-0.5927734375,11309.81383025,-1.044857411916128,-0.9620576213922368,-0.6489177022566814,-0.8230462670326233,-0.3896291851997375,0.1671750992536545,-0.01305156946182251,-0.01991289854049683,-0.137980729341507,XArbitraryZVertical,-0.4637506015519736,-0.2390286544769924,-0.2914515852849742,0.8017833398172611,-0.6536200642585754,0.6043244600296021,-0.4556013643741608,0,0,0,-1,-1,11301.05267954167,unknown,2,2025-04-30T11:58:37.789+03:00,2025-04-28T22:17:59.397+03:00,6826,0.8224723,0,0,5720.054,11,14,2025-04-30T11:57:17.800+03:00,767696348.8307848,0,-13.3,100.9576,1,0.85,2025-04-30T11:45:49.339+03:00,87,1.45,2025-04-22T14:20:19.516+03:00,0.02197104130929222,0
2025-04-30T11:59:09.558+03:00,1746003548.420814,40.95221689146929,29.14029829636424,76.58913,-1,-1,-1,-1,30,26.98434767089239,-9999,11309.82894325,-0.645965576171875,0.5959014892578125,-0.5860443115234375,11309.82390625,-1.051702007396752,-0.9704524282217983,-0.6548271380022649,-0.7415273785591125,-0.4480263590812683,0.1813122630119324,-0.004868686199188232,-0.02560228109359741,-0.147416353225708,XArbitraryZVertical,-0.4677166632828746,-0.2391747889844578,-0.2906920389725106,0.7997091180058187,-0.654463529586792,0.6090221405029297,-0.4480730891227722,0,0,0,-1,-1,11301.05267954167,unknown,2,2025-04-30T11:58:37.789+03:00,2025-04-28T22:17:59.397+03:00,6826,0.8224723,0,0,5720.054,11,14,2025-04-30T11:57:17.800+03:00,767696348.8307848,0,-13.3,100.9576,1,0.85,2025-04-30T11:45:49.339+03:00,87,1.45,2025-04-22T14:20:19.516+03:00,0.02197104130929222,0
2025-04-30T11:59:09.568+03:00,1746003548.420814,40.95221689146929,29.14029829636424,76.58913,-1,-1,-1,-1,30,26.98434767089239,-9999,11309.83901925,-0.6449737548828125,0.613037109375,-0.56658935546875,11309.83398125,-1.05792229578077,-0.9790619233314117,-0.6602610673589568,-0.6788767576217651,-0.5116450190544128,0.16712985932827,0.005210936069488525,-0.02515780925750732,-0.1496710181236267,XArbitraryZVertical,-0.4714671116632257,-0.2396540210084596,-0.2897239492290224,0.7977121547667864,-0.6555404663085938,0.6133230924606323,-0.4405694305896759,0,0,0,-1,-1,11301.05267954167,unknown,2,2025-04-30T11:58:37.789+03:00,2025-04-28T22:17:59.397+03:00,6826,0.8224723,0,0,5720.054,11,14,2025-04-30T11:57:17.800+03:00,767696348.8307848,0,-13.3,100.9576,1,0.85,2025-04-30T11:45:49.339+03:00,87,1.45,2025-04-22T14:20:19.516+03:00,0.02197104130929222,0
2025-04-30T11:59:09.578+03:00,1746003548.420814,40.95221689146929,29.14029829636424,76.58913,-1,-1,-1,-1,30,26.98434767089239,-9999,11309.84909425,-0.644561767578125,0.619537353515625,-0.5420989990234375,11309.84405625,-1.06377012192769,-0.9880223591695341,-0.6653143000019812,-0.6429799795150757,-0.5463001132011414,0.1598296463489532,0.01183104515075684,-0.0119139552116394,-0.1449751257896423,XArbitraryZVertical,-0.4750847187028983,-0.2404394611673598,-0.2885934342207945,0.7957369497154934,-0.6568657755851746,0.6173064112663269,-0.4329667389392853,0,0,0,-1,-1,11301.05267954167,unknown,2,2025-04-30T11:58:37.789+03:00,2025-04-28T22:17:59.397+03:00,6826,0.8224723,0,0,5720.054,11,14,2025-04-30T11:57:17.800+03:00,767696348.8307848,0,-13.3,100.9576,1,0.85,2025-04-30T11:45:49.339+03:00,87,1.45,2025-04-22T14:20:19.516+03:00,0.02197104130929222,0
2025-04-30T11:59:09.588+03:00,1746003548.420814,40.95221689146929,29.14029829636424,76.58913,-1,-1,-1,-1,30,26.98434767089239,-9999,11309.85916925,-0.644927978515625,0.612152099609375,-0.5101165771484375,11309.85413225,-1.069434691280889,-0.9972031082033848,-0.6700473017432224,-0.6129294037818909,-0.5835137963294983,0.1431076526641846,0.01224863529205322,-0.003194630146026611,-0.1291765570640564,XArbitraryZVertical,-0.4785944544287323,-0.2414196361250736,-0.2873920497626776,0.7937693631843294,-0.6583514809608459,0.6210230588912964,-0.4253278076648712,0,0,0,-1,-1,11301.05267954167,unknown,2,2025-04-30T11:58:37.789+03:00,2025-04-28T22:17:59.397+03:00,6826,0.8224723,0,0,5720.054,11,14,2025-04-30T11:57:17.800+03:00,767696348.8307848,0,-13.3,100.9576,1,0.85,2025-04-30T11:45:49.339+03:00,87,1.45,2025-04-22T14:20:19.516+03:00,0.02197104130929222,0
2025-04-30T11:59:09.598+03:00,1746003548.420814,40.95221689146929,29.14029829636424,76.58913,-1,-1,-1,-1,30,26.98434767089239,-9999,11309.86924525,-0.6473236083984375,0.60333251953125,-0.4766845703125,11309.86420725,-1.075183182169856,-1.006703872835701,-0.6745325323691853,-0.6205168962478638,-0.5908446311950684,0.1258518695831299,0.01606589555740356,-0.006612420082092285,-0.1097375452518463,XArbitraryZVertical,-0.4820673106066456,-0.242550910474667,-0.2861832716274259,0.7917569835476979,-0.6600019335746765,0.6245322823524475,-0.417560338973999,0,0,0,-1,-1,11301.05267954167,unknown,2,2025-04-30T11:58:37.789+03:00,2025-04-28T22:17:59.397+03:00,6826,0.8224723,0,0,5720.054,11,14,2025-04-30T11:57:17.800+03:00,767696348.8307848,0,-13.3,100.9576,1,0.85,2025-04-30T11:45:49.339+03:00,87,1.45,2025-04-22T14:20:19.516+03:00,0.02197104130929222,0
2025-04-30T11:59:09.608+03:00,1746003548.420814,40.95221689146929,29.14029829636424,76.58913,-1,-1,-1,-1,30,26.98434767089239,-9999,11309.87932025,-0.6524658203125,0.6052703857421875,-0.444244384765625,11309.87428225,-1.081305472180658,-1.016438255964873,-0.6789975904462184,-0.653603732585907,-0.5702219009399414,0.1185641288757324,0.01518881320953369,-0.0220409631729126,-0.08315378427505493,XArbitraryZVertical,-0.4855981803467798,-0.2436645004206302,-0.2850404601537165,0.789667028830203,-0.6616579294204712,0.6280132532119751,-0.4096440374851227,0,0,0,-1,-1,11301.05267954167,unknown,2,2025-04-30T11:58:37.789+03:00,2025-04-28T22:17:59.397+03:00,6826,0.8224723,0,0,5720.054,11,14,2025-04-30T11:57:17.800+03:00,767696348.8307848,0,-13.3,100.9576,1,0.85,2025-04-30T11:45:49.339+03:00,87,1.45,2025-04-22T14:20:19.516+03:00,0.02197104130929222,0
2025-04-30T11:59:09.618+03:00,1746003548.420814,40.95221689146929,29.14029829636424,76.58913,-1,-1,-1,-1,30,26.98434767089239,-9999,11309.88939625,-0.6619415283203125,0.589508056640625,-0.4033966064453125,11309.88435825,-1.087637259172319,-1.026039984651095,-0.6834033187752662,-0.6434609889984131,-0.5544827580451965,0.1228247210383415,0.01394164562225342,-0.02752333879470825,-0.05978965759277344,XArbitraryZVertical,-0.4891031695008135,-0.2446647815436058,-0.2839969430322919,0.7875677907202469,-0.6631878018379211,0.6314356923103333,-0.4018344581127167,0,0,0,-1,-1,11301.05267954167,unknown,2,2025-04-30T11:58:37.789+03:00,2025-04-28T22:17:59.397+03:00,6826,0.8224723,0,0,5720.054,11,14,2025-04-30T11:57:17.800+03:00,767696348.8307848,0,-13.3,100.9576,1,0.85,2025-04-30T11:45:49.339+03:00,87,1.45,2025-04-22T14:20:19.516+03:00,0.02197104130929222,0
2025-04-30T11:59:09.628+03:00,1746003548.420814,40.95221689146929,29.14029829636424,76.58913,-1,-1,-1,-1,30,26.98434767089239,-9999,11309.89947125,-0.66510009765625,0.5759735107421875,-0.378570556640625,11309.89443325,-1.094015902220878,-1.035579599838215,-0.6877893018859452,-0.6484863758087158,-0.5352851152420044,0.1139385476708412,0.007574141025543213,-0.03442776203155518,-0.02832037210464478,XArbitraryZVertical,-0.4925850390509255,-0.2456079800978111,-0.2829611377869065,0.7854741838583656,-0.6646022796630859,0.63483065366745,-0.3940733969211578,0,0,0,-1,-1,11301.05267954167,unknown,2,2025-04-30T11:58:37.789+03:00,2025-04-28T22:17:59.397+03:00,6826,0.8224723,0,0,5720.054,11,14,2025-04-30T11:57:17.800+03:00,767696348.8307848,0,-13.3,100.9576,1,0.85,2025-04-30T11:45:49.339+03:00,87,1.45,2025-04-22T14:20:19.516+03:00,0.02197104130929222,0
2025-04-30T11:59:09.638+03:00,1746003548.420814,40.95221689146929,29.14029829636424,76.58913,-1,-1,-1,-1,30,26.98434767089239,-9999,11309.90954625,-0.677215576171875,0.58734130859375,-0.3594207763671875,11309.90450925,-1.100798167337087,-1.045117483101837,-0.6920314517449926,-0.6657606363296509,-0.5004122853279114,0.0842742994427681,0.001444458961486816,-0.05863487720489502,-0.003362894058227539,XArbitraryZVertical,-0.4960586313904322,-0.2464648443523166,-0.2820926447900125,0.783329234874979,-0.6659952402114868,0.6381025910377502,-0.386361837387085,0,0,0,-1,-1,11301.05267954167,unknown,2,2025-04-30T11:58:37.789+03:00,2025-04-28T22:17:59.397+03:00,6826,0.8224723,0,0,5720.054,11,14,2025-04-30T11:57:17.800+03:00,767696348.8307848,0,-13.3,100.9576,1,0.85,2025-04-30T11:45:49.339+03:00,87,1.45,2025-04-22T14:20:19.516+03:00,0.02197104130929222,0
2025-04-30T11:59:09.648+03:00,1746003548.420814,40.95221689146929,29.14029829636424,76.58913,-1,-1,-1,-1,30,26.98434767089239,-9999,11309.91962225,-0.6938018798828125,0.6007080078125,-0.353240966796875,11309.91458425,-1.107768163549179,-1.054447756102225,-0.6959940540406384,-0.6490817666053772,-0.4679640531539917,0.07178060710430145,-0.002219319343566895,-0.06068909168243408,0.01108202338218689,XArbitraryZVertical,-0.499429039900444,-0.2472463237695974,-0.2813959524590638,0.7811888948113963,-0.6673668026924133,0.6411486268043518,-0.3788797855377197,0,0,0,-1,-1,11301.05267954167,unknown,2,2025-04-30T11:58:37.789+03:00,2025-04-28T22:17:59.397+03:00,6826,0.8224723,0,0,5720.054,11,14,2025-04-30T11:57:17.800+03:00,767696348.8307848,0,-13.3,100.9576,1,0.85,2025-04-30T11:45:49.339+03:00,87,1.45,2025-04-22T14:20:19.516+03:00,0.02197104130929222,0
2025-04-30T11:59:09.658+03:00,1746003548.420814,40.95221689146929,29.14029829636424,76.58913,-1,-1,-1,-1,30,26.98434767089239,-9999,11309.92969725,-0.704254150390625,0.6181793212890625,-0.34002685546875,11309.92465925,-1.114744255028153,-1.063518608704957,-0.6998460271254957,-0.6392003893852234,-0.448967456817627,0.07518745958805084,-0.01835340261459351,-0.0500752329826355,0.01574277877807617,XArbitraryZVertical,-0.5027190633611643,-0.2479303018940873,-0.280768102652844,0.7790849926400538,-0.668612539768219,0.6440998911857605,-0.3716082274913788,0,0,0,-1,-1,11301.05267954167,unknown,2,2025-04-30T11:58:37.789+03:00,2025-04-28T22:17:59.397+03:00,6826,0.8224723,0,0,5720.054,11,14,2025-04-30T11:57:17.800+03:00,767696348.8307848,0,-13.3,100.9576,1,0.85,2025-04-30T11:45:49.339+03:00,87,1.45,2025-04-22T14:20:19.516+03:00,0.02197104130929222,0
2025-04-30T11:59:09.668+03:00,1746003548.420814,40.95221689146929,29.14029829636424,76.58913,-1,-1,-1,-1,30,26.98434767089239,-9999,11309.93977225,-0.715301513671875,0.6360015869140625,-0.335205078125,11309.93473525,-1.121536889155215,-1.07224753729324,-0.7034486872070117,-0.6072728633880615,-0.4129117429256439,0.05736478790640831,-0.02909469604492188,-0.03814792633056641,0.01668453216552734,XArbitraryZVertical,-0.5058537416556771,-0.2485739903778358,-0.2801972314503961,0.7770536971339583,-0.6697883009910583,0.6468515396118164,-0.364645928144455,0,0,0,-1,-1,11301.05267954167,unknown,2,2025-04-30T11:58:37.789+03:00,2025-04-28T22:17:59.397+03:00,6826,0.8224723,0,0,5720.054,11,14,2025-04-30T11:57:17.800+03:00,767696348.8307848,0,-13.3,100.9576,1,0.85,2025-04-30T11:45:49.339+03:00,87,1.45,2025-04-22T14:20:19.516+03:00,0.02197104130929222,0
2025-04-30T11:59:09.679+03:00,1746003548.420814,40.95221689146929,29.14029829636424,76.58913,-1,-1,-1,-1,30,26.98434767089239,-9999,11309.94984825,-0.7224578857421875,0.6508026123046875,-0.341796875,11309.94481025,-1.128179112750618,-1.080581607671034,-0.7067987625940989,-0.5865997672080994,-0.3883805572986603,0.05265192687511444,-0.03890454769134521,-0.02232754230499268,0.0238310694694519,XArbitraryZVertical,-0.5088305597098356,-0.2491524397610718,-0.2797140715548466,0.7750965527427784,-0.6708885431289673,0.6494027376174927,-0.3580290377140045,0,0,0,-1,-1,11301.05267954167,unknown,2,2025-04-30T11:58:37.789+03:00,2025-04-28T22:17:59.397+03:00,6826,0.8224723,0,0,5720.054,11,14,2025-04-30T11:57:17.800+03:00,767696348.8307848,0,-13.3,100.9576,1,0.85,2025-04-30T11:45:49.339+03:00,87,1.45,2025-04-22T14:20:19.516+03:00,0.02197104130929222,0
2025-04-30T11:59:09.689+03:00,1746003548.420814,40.95221689146929,29.14029829636424,76.58913,-1,-1,-1,-1,30,26.98434767089239,-9999,11309.95992325,-0.7199859619140625,0.6573944091796875,-0.341094970703125,11309.95488625,-1.134692870023895,-1.088586234669171,-0.7098629312888153,-0.5746645331382751,-0.358962208032608,0.03093331307172775,-0.04905688762664795,-0.006603479385375977,0.01128411293029785,XArbitraryZVertical,-0.5116537602899531,-0.2496977451223641,-0.2793231622635607,0.7732011432111545,-0.6719666719436646,0.6517298221588135,-0.351722925901413,0,0,0,-1,-1,11301.05267954167,unknown,2,2025-04-30T11:58:37.789+03:00,2025-04-28T22:17:59.397+03:00,6826,0.8224723,0,0,5720.054,11,14,2025-04-30T11:57:17.800+03:00,767696348.8307848,0,-13.3,100.9576,1,0.85,2025-04-30T11:45:49.339+03:00,87,1.45,2025-04-22T14:20:19.516+03:00,0.02197104130929222,0
2025-04-30T11:59:09.699+03:00,1746003548.420814,40.95221689146929,29.14029829636424,76.58913,-1,-1,-1,-1,30,26.98434767089239,-9999,11309.96999925,-0.7176055908203125,0.6515350341796875,-0.3441009521484375,11309.96496125,-1.141244770067773,-1.096379221289707,-0.7127943480609762,-0.5614001750946045,-0.338099330663681,0.03392960131168365,-0.04909157752990723,0.0004685521125793457,0.004811674356460571,XArbitraryZVertical,-0.5144065704921151,-0.2501702895384813,-0.2790177647228911,0.7713298253897314,-0.672984778881073,0.6539503335952759,-0.3456014096736908,0,0,0,-1,-1,11301.05267954167,unknown,2,2025-04-30T11:58:37.789+03:00,2025-04-28T22:17:59.397+03:00,6826,0.8224723,0,0,5720.054,11,14,2025-04-30T11:57:17.800+03:00,767696348.8307848,0,-13.3,100.9576,1,0.85,2025-04-30T11:45:49.339+03:00,87,1.45,2025-04-22T14:20:19.516+03:00,0.02197104130929222,0
2025-04-30T11:59:09.709+03:00,1746003548.420814,40.95221689146929,29.14029829636424,76.58913,-1,-1,-1,-1,30,26.98434767089239,-9999,11309.98007425,-0.714630126953125,0.6416473388671875,-0.3529205322265625,11309.97503625,-1.147396211848734,-1.103759794634926,-0.7156391505915903,-0.5191220045089722,-0.3235827088356018,0.05051417276263237,-0.04465246200561523,0.0003331899642944336,-0.002437978982925415,XArbitraryZVertical,-0.51702012259704,-0.2505936277807774,-0.2786691540631279,0.7695690117235593,-0.6738532781600952,0.6560999155044556,-0.3397860527038574,0,0,0,-1,-1,11301.05267954167,unknown,2,2025-04-30T11:58:37.789+03:00,2025-04-28T22:17:59.397+03:00,6826,0.8224723,0,0,5720.054,11,14,2025-04-30T11:57:17.800+03:00,767696348.8307848,0,-13.3,100.9576,1,0.85,2025-04-30T11:45:49.339+03:00,87,1.45,2025-04-22T14:20:19.516+03:00,0.02197104130929222,0
2025-04-30T11:59:09.719+03:00,1746003548.420814,40.95221689146929,29.14029829636424,76.58913,-1,-1,-1,-1,30,26.98434767089239,-9999,11309.99014925,-0.7098541259765625,0.6530303955078125,-0.3502044677734375,11309.98511225,-1.152924180779934,-1.110547345562608,-0.7182876068442937,-0.4441205263137817,-0.3033614158630371,0.04666440561413765,-0.04196780920028687,-0.013641357421875,-0.01337736845016479,XArbitraryZVertical,-0.5194107084170233,-0.2509916131631839,-0.2782732808201204,0.767971111531466,-0.6745848655700684,0.6580963134765625,-0.3344314396381378,0,0,0,-1,-1,11301.05267954167,unknown,2,2025-04-30T11:58:37.789+03:00,2025-04-28T22:17:59.397+03:00,6826,0.8224723,0,0,5720.054,11,14,2025-04-30T11:57:17.800+03:00,767696348.8307848,0,-13.3,100.9576,1,0.85,2025-04-30T11:45:49.339+03:00,87,1.45,2025-04-22T14:20:19.516+03:00,0.02197104130929222,0
2025-04-30T11:59:09.729+03:00,1746003548.420814,40.95221689146929,29.14029829636424,76.58913,-1,-1,-1,-1,30,26.98434767089239,-9999,11310.00022525,-0.7078399658203125,0.6624298095703125,-0.3311004638671875,11309.99518725,-1.157509665463213,-1.116555203004953,-0.7204185503643009,-0.3599878251552582,-0.287564605474472,0.02852055802941322,-0.0364716649055481,-0.01460349559783936,-0.02470505237579346,XArbitraryZVertical,-0.5214230879789811,-0.2514749950231037,-0.2778538284977403,0.7665999851895805,-0.6753202676773071,0.6596992611885071,-0.3297565877437592,0,0,0,-1,-1,11301.05267954167,unknown,2,2025-04-30T11:58:37.789+03:00,2025-04-28T22:17:59.397+03:00,6826,0.8224723,0,0,5720.054,11,14,2025-04-30T11:57:17.800+03:00,767696348.8307848,0,-13.3,100.9576,1,0.85,2025-04-30T11:45:49.339+03:00,87,1.45,2025-04-22T14:20:19.516+03:00,0.02197104130929222,0
2025-04-30T11:59:09.739+03:00,1746003548.420814,40.95221689146929,29.14029829636424,76.58913,-1,-1,-1,-1,30,26.98434767089239,-9999,11310.01030025,-0.709259033203125,0.6530609130859375,-0.318695068359375,11310.00526325,-1.161665740639783,-1.12203501096372,-0.7221989589139985,-0.3593884706497192,-0.2575061619281769,0.0285272803157568,-0.03225517272949219,-0.001658201217651367,-0.01518779993057251,XArbitraryZVertical,-0.5232061219881954,-0.25196207756907,-0.2774986856029147,0.765352815444446,-0.6760578155517578,0.6610362529754639,-0.3255409300327301,0,0,0,-1,-1,11301.05267954167,unknown,2,2025-04-30T11:58:37.789+03:00,2025-04-28T22:17:59.397+03:00,6826,0.8224723,0,0,5720.054,11,14,2025-04-30T11:57:17.800+03:00,767696348.8307848,0,-13.3,100.9576,1,0.85,2025-04-30T11:45:49.339+03:00,87,1.45,2025-04-22T14:20:19.516+03:00,0.02197104130929222,0
2025-04-30T11:59:09.749+03:00,1746003548.420814,40.95221689146929,29.14029829636424,76.58913,-1,-1,-1,-1,30,26.98434767089239,-9999,11310.02037625,-0.713409423828125,0.6240997314453125,-0.3055267333984375,11310.01533825,-1.165724445158743,-1.127161650194297,-0.7239941817496451,-0.3353816568851471,-0.2302846610546112,0.03350632637739182,-0.03078305721282959,-0.001936137676239014,-0.002047508955001831,XArbitraryZVertical,-0.5249291754823052,-0.2523270635543141,-0.277185686123651,0.7641651397207122,-0.6766448020935059,0.6623822450637817,-0.3215608298778534,0,0,0,-1,-1,11301.05267954167,unknown,2,2025-04-30T11:58:37.789+03:00,2025-04-28T22:17:59.397+03:00,6826,0.8224723,0,0,5720.054,11,14,2025-04-30T11:57:17.800+03:00,767696348.8307848,0,-13.3,100.9576,1,0.85,2025-04-30T11:45:49.339+03:00,87,1.45,2025-04-22T14:20:19.516+03:00,0.02197104130929222,0
2025-04-30T11:59:09.759+03:00,1746003548.420814,40.95221689146929,29.14029829636424,76.58913,-1,-1,-1,-1,30,26.98434767089239,-9999,11310.0304525,-0.70703125,0.613677978515625,-0.302642822265625,11310.02541325,-1.169598561635266,-1.131953693364266,-0.7257934676037812,-0.3412729799747467,-0.2119332104921341,0.0459769107401371,-0.03431248664855957,-0.02382135391235352,0.006482690572738647,XArbitraryZVertical,-0.5265807638801625,-0.2526041234380637,-0.2768809253317588,0.763046930209362,-0.6770979166030884,0.6637291312217712,-0.3178077042102814,0,0,0,-1,-1,11301.05267954167,unknown,2,2025-04-30T11:58:37.789+03:00,2025-04-28T22:17:59.397+03:00,6826,0.8224723,0,0,5720.054,11,14,2025-04-30T11:57:17.800+03:00,767696348.8307848,0,-13.3,100.9576,1,0.85,2025-04-30T11:45:49.339+03:00,87,1.45,2025-04-22T14:20:19.516+03:00,0.02197104130929222,0
2025-04-30T11:59:09.769+03:00,1746003548.420814,40.95221689146929,29.14029829636424,76.58913,-1,-1,-1,-1,30,26.98434767089239,-9999,11310.0405275,-0.7011566162109375,0.62603759765625,-0.3092803955078125,11310.0354905,-1.173337440711278,-1.136472575374834,-0.727701490791032,-0.3065842390060425,-0.1978115290403366,0.06608697772026062,-0.03345340490341187,-0.05108040571212769,0.01074457168579102,XArbitraryZVertical,-0.5282043786227847,-0.2527735305583101,-0.2765575585244486,0.7619853017336371,-0.6773772835731506,0.6651551127433777,-0.3142113387584686,0,0,0,-1,-1,11301.05267954167,unknown,2,2025-04-30T11:58:37.789+03:00,2025-04-28T22:17:59.397+03:00,6826,0.8224723,0,0,5720.054,11,14,2025-04-30T11:57:17.800+03:00,767696348.8307848,0,-13.3,100.9576,1,0.85,2025-04-30T11:45:49.339+03:00,87,1.45,2025-04-22T14:20:19.516+03:00,0.02197104130929222,0
2025-04-30T11:59:09.779+03:00,1746003548.420814,40.95221689146929,29.14029829636424,76.58913,-1,-1,-1,-1,30,26.98434767089239,-9999,11310.0506035,-0.689239501953125,0.642578125,-0.3405303955078125,11310.0455655,-1.176146227553754,-1.140372183784537,-0.7295746036127668,-0.2263538539409637,-0.2027663439512253,0.09308649599552155,-0.02631717920303345,-0.04582506418228149,0.007534533739089966,XArbitraryZVertical,-0.5296121621745415,-0.2529574019402763,-0.2760474266753066,0.7611315576605413,-0.6774638891220093,0.6665526032447815,-0.3110470175743103,0,0,0,-1,-1,11301.05267954167,unknown,2,2025-04-30T11:58:37.789+03:00,2025-04-28T22:17:59.397+03:00,6826,0.8224723,0,0,5720.054,11,14,2025-04-30T11:57:17.800+03:00,767696348.8307848,0,-13.3,100.9576,1,0.85,2025-04-30T11:45:49.339+03:00,87,1.45,2025-04-22T14:20:19.516+03:00,0.02197104130929222,0
2025-04-30T11:59:09.789+03:00,1746003548.420814,40.95221689146929,29.14029829636424,76.58913,-1,-1,-1,-1,30,26.98434767089239,-9999,11310.0606785,-0.6767120361328125,0.6686248779296875,-0.370941162109375,11310.0556415,-1.177783951996706,-1.143529174430605,-0.7311795093459096,-0.1279037147760391,-0.2086889445781708,0.1069469228386879,-0.01868361234664917,-0.03650730848312378,-0.01383301615715027,XArbitraryZVertical,-0.5306931947874507,-0.2532453561821517,-0.2753628114772604,0.7605305905140549,-0.6774680018424988,0.6677480936050415,-0.3084630370140076,0,0,0,-1,-1,11301.05267954167,unknown,2,2025-04-30T11:58:37.789+03:00,2025-04-28T22:17:59.397+03:00,6826,0.8224723,0,0,5720.054,11,14,2025-04-30T11:57:17.800+03:00,767696348.8307848,0,-13.3,100.9576,1,0.85,2025-04-30T11:45:49.339+03:00,87,1.45,2025-04-22T14:20:19.516+03:00,0.02197104130929222,0
2025-04-30T11:59:09.799+03:00,1746003548.420814,40.95221689146929,29.14029829636424,76.58913,-1,-1,-1,-1,30,26.98434767089239,-9999,11310.0707545,-0.6658172607421875,0.665496826171875,-0.381561279296875,11310.0657165,-1.178163733494225,-1.145948787993377,-0.7327689026001158,-0.05950308591127396,-0.2220569550991058,0.1516006737947464,-0.005158960819244385,-0.01109355688095093,-0.05134192109107971,XArbitraryZVertical,-0.5315070078722104,-0.2535897660459505,-0.2743976420604869,0.7601962411240661,-0.6772444844245911,0.6689304113388062,-0.3063850700855255,0,0,0,-1,-1,11301.05267954167,unknown,2,2025-04-30T11:58:37.789+03:00,2025-04-28T22:17:59.397+03:00,6826,0.8224723,0,0,5720.054,11,14,2025-04-30T11:57:17.800+03:00,767696348.8307848,0,-13.3,100.9576,1,0.85,2025-04-30T11:45:49.339+03:00,87,1.45,2025-04-22T14:20:19.516+03:00,0.02197104130929222,0
2025-04-30T11:59:09.809+03:00,1746003548.420814,40.95221689146929,29.14029829636424,76.58913,-1,-1,-1,-1,30,26.98434767089239,-9999,11310.0808295,-0.6611328125,0.6502838134765625,-0.372711181640625,11310.0757915,-1.177447188144777,-1.147840998294838,-0.7342879201791851,0.01556370314210653,-0.246513843536377,0.1685642153024673,0.00523453950881958,0.0001072883605957031,-0.07434260845184326,XArbitraryZVertical,-0.5320882172085892,-0.2540458346750462,-0.2731752866345886,0.7600777504660322,-0.6768958568572998,0.6700587272644043,-0.3046856820583344,0,0,0,-1,-1,11301.05267954167,unknown,2,2025-04-30T11:58:37.789+03:00,2025-04-28T22:17:59.397+03:00,6826,0.8224723,0,0,5720.054,11,14,2025-04-30T11:57:17.800+03:00,767696348.8307848,0,-13.3,100.9576,1,0.85,2025-04-30T11:45:49.339+03:00,87,1.45,2025-04-22T14:20:19.516+03:00,0.02197104130929222,0
2025-04-30T11:59:09.828+03:00,1746003548.420814,40.95221689146929,29.14029829636424,76.58913,-1,-1,-1,-1,30,26.98434767089239,-9999,11310.0909045,-0.6668548583984375,0.6477813720703125,-0.35247802734375,11310.0858675,-1.176432472547943,-1.149751122203116,-0.7357992485473668,-0.007106655277311802,-0.2652996778488159,0.1665980368852615,0.01583075523376465,-0.01296150684356689,-0.07629454135894775,XArbitraryZVertical,-0.532630028641403,-0.2545904573056748,-0.2718359863691994,0.7599961522735548,-0.6765515804290771,0.6711798310279846,-0.3029778897762299,0,0,0,-1,-1,11301.05267954167,unknown,2,2025-04-30T11:58:37.789+03:00,2025-04-28T22:17:59.397+03:00,6826,0.8224723,0,0,5720.054,11,14,2025-04-30T11:57:17.800+03:00,767696348.8307848,0,-13.3,100.9576,1,0.85,2025-04-30T11:45:49.339+03:00,87,1.45,2025-04-22T14:20:19.516+03:00,0.02197104130929222,0
2025-04-30T11:59:09.830+03:00,1746003548.420814,40.95221689146929,29.14029829636424,76.58913,-1,-1,-1,-1,30,26.98434767089239,-9999,11310.1009805,-0.6678924560546875,0.664581298828125,-0.3267822265625,11310.0959425,-1.175761672119739,-1.151993612712612,-0.7374314937538006,-0.04644633829593658,-0.2721831500530243,0.1660478264093399,0.0117531418800354,-0.02703368663787842,-0.06281644105911255,XArbitraryZVertical,-0.5332913435027945,-0.2551338805845617,-0.2705020500338,0.7598261379364172,-0.6762275695800781,0.6723889112472534,-0.3010140955448151,0,0,0,-1,-1,11301.05267954167,unknown,2,2025-04-30T11:58:37.789+03:00,2025-04-28T22:17:59.397+03:00,6826,0.8224723,0,0,5720.054,11,14,2025-04-30T11:57:17.800+03:00,767696348.8307848,0,-13.3,100.9576,1,0.85,2025-04-30T11:45:49.339+03:00,87,1.45,2025-04-22T14:20:19.516+03:00,0.02197104130929222,0
2025-04-30T11:59:09.840+03:00,1746003548.420814,40.95221689146929,29.14029829636424,76.58913,-1,-1,-1,-1,30,26.98434767089239,-9999,11310.1110555,-0.6750030517578125,0.673187255859375,-0.2999114990234375,11310.1060185,-1.175878348059273,-1.154839129675157,-0.7392300940326256,-0.1213869526982307,-0.2754022181034088,0.1516857743263245,0.009286999702453613,-0.01780486106872559,-0.04148834943771362,XArbitraryZVertical,-0.5341771251217268,-0.255646353599432,-0.2692555628340052,0.7594742717177027,-0.6759739518165588,0.6737191677093506,-0.2985994815826416,0,0,0,-1,-1,11301.05267954167,unknown,2,2025-04-30T11:58:37.789+03:00,2025-04-28T22:17:59.397+03:00,6826,0.8224723,0,0,5720.054,11,14,2025-04-30T11:57:17.800+03:00,767696348.8307848,0,-13.3,100.9576,1,0.85,2025-04-30T11:45:49.339+03:00,87,1.45,2025-04-22T14:20:19.516+03:00,0.02197104130929222,0
2025-04-30T11:59:09.850+03:00,1746003548.420814,40.95221689146929,29.14029829636424,76.58913,-1,-1,-1,-1,30,26.98434767089239,-9999,11310.1211315,-0.6822357177734375,0.6808929443359375,-0.2777557373046875,11310.1160935,-1.177235264699385,-1.158562221143185,-0.7412082095270049,-0.1961685121059418,-0.2857581675052643,0.1230578422546387,0.004990756511688232,-0.005669772624969482,-0.01789984107017517,XArbitraryZVertical,-0.535384797039209,-0.2561055470174911,-0.2681895134308538,0.7588460604252844,-0.6758585572242737,0.675179660320282,-0.2955461442470551,0,0,0,-1,-1,11301.05267954167,unknown,2,2025-04-30T11:58:37.789+03:00,2025-04-28T22:17:59.397+03:00,6826,0.8224723,0,0,5720.054,11,14,2025-04-30T11:57:17.800+03:00,767696348.8307848,0,-13.3,100.9576,1,0.85,2025-04-30T11:45:49.339+03:00,87,1.45,2025-04-22T14:20:19.516+03:00,0.02197104130929222,0
2025-04-30T11:59:09.860+03:00,1746003548.420814,40.95221689146929,29.14029829636424,76.58913,-1,-1,-1,-1,30,26.98434767089239,-9999,11310.1312065,-0.6969757080078125,0.671234130859375,-0.2846221923828125,11310.1261685,-1.179312443156908,-1.162931225607128,-0.7431406710421555,-0.2340938746929169,-0.305107980966568,0.1097301617264748,-0.002781689167022705,0.000504910945892334,0.005131006240844727,XArbitraryZVertical,-0.536755147172109,-0.2566275013166089,-0.2672328891221603,0.758038828884917,-0.6759445071220398,0.6766038537025452,-0.2920724749565125,0,0,0,-1,-1,11301.05267954167,unknown,2,2025-04-30T11:58:37.789+03:00,2025-04-28T22:17:59.397+03:00,6826,0.8224723,0,0,5720.054,11,14,2025-04-30T11:57:17.800+03:00,767696348.8307848,0,-13.3,100.9576,1,0.85,2025-04-30T11:45:49.339+03:00,87,1.45,2025-04-22T14:20:19.516+03:00,0.02197104130929222,0
2025-04-30T11:59:09.870+03:00,1746003548.420814,40.95221689146929,29.14029829636424,76.58913,-1,-1,-1,-1,30,26.98434767089239,-9999,11310.1412825,-0.705596923828125,0.670379638671875,-0.3069610595703125,11310.1362445,-1.181842231855191,-1.167801805446358,-0.7450659361182492,-0.2423075884580612,-0.3269179165363312,0.09675391018390656,-0.01283586025238037,0.000492393970489502,0.01139470934867859,XArbitraryZVertical,-0.5382446782515481,-0.2572157901868787,-0.2663095886794199,0.7571076624903577,-0.6761595010757446,0.6780202984809875,-0.2882654070854187,0,0,0,-1,-1,11301.05267954167,unknown,2,2025-04-30T11:58:37.789+03:00,2025-04-28T22:17:59.397+03:00,6826,0.8224723,0,0,5720.054,11,14,2025-04-30T11:57:17.800+03:00,767696348.8307848,0,-13.3,100.9576,1,0.85,2025-04-30T11:45:49.339+03:00,87,1.45,2025-04-22T14:20:19.516+03:00,0.02197104130929222,0
2025-04-30T11:59:09.880+03:00,1746003548.420814,40.95221689146929,29.14029829636424,76.58913,-1,-1,-1,-1,30,26.98434767089239,-9999,11310.1513575,-0.6988983154296875,0.7053680419921875,-0.3360748291015625,11310.1463195,-1.183949786463486,-1.172692056530223,-0.7466661754492786,-0.1473718136548996,-0.3608426451683044,0.07150258123874664,-0.02697688341140747,-0.01328682899475098,-0.01139453053474426,XArbitraryZVertical,-0.539591964141275,-0.2580180416426697,-0.2653120990254357,0.756225374817043,-0.6765601634979248,0.6791956424713135,-0.2845343947410583,0,0,0,-1,-1,11301.05267954167,unknown,2,2025-04-30T11:58:37.789+03:00,2025-04-28T22:17:59.397+03:00,6826,0.8224723,0,0,5720.054,11,14,2025-04-30T11:57:17.800+03:00,767696348.8307848,0,-13.3,100.9576,1,0.85,2025-04-30T11:45:49.339+03:00,87,1.45,2025-04-22T14:20:19.516+03:00,0.02197104130929222,0
2025-04-30T11:59:09.890+03:00,1746003548.420814,40.95221689146929,29.14029829636424,76.58913,-1,-1,-1,-1,30,26.98434767089239,-9999,11310.1614325,-0.697174072265625,0.7305450439453125,-0.3660125732421875,11310.1563955,-1.184606237847359,-1.176925527895549,-0.7474915724910577,-0.009394244290888309,-0.3905819058418274,0.04437828063964844,-0.02667772769927979,0.006081342697143555,-0.03896689414978027,XArbitraryZVertical,-0.5404560512253886,-0.2591930837905629,-0.2641704459703346,0.7556058741306314,-0.6772406697273254,0.6798012256622314,-0.2814524173736572,0,0,0,-1,-1,11301.05267954167,unknown,2,2025-04-30T11:58:37.789+03:00,2025-04-28T22:17:59.397+03:00,6826,0.8224723,0,0,5720.054,11,14,2025-04-30T11:57:17.800+03:00,767696348.8307848,0,-13.3,100.9576,1,0.85,2025-04-30T11:45:49.339+03:00,87,1.45,2025-04-22T14:20:19.516+03:00,0.02197104130929222,0
2025-04-30T11:59:09.900+03:00,1746003548.420814,40.95221689146929,29.14029829636424,76.58913,-1,-1,-1,-1,30,26.98434767089239,-9999,11310.1715085,-0.7007904052734375,0.7301177978515625,-0.3687744140625,11310.1664705,-1.183562093444772,-1.180265394552766,-0.7475837616507607,0.1440111547708511,-0.414397120475769,0.03059915453195572,-0.01784968376159668,0.04216182231903076,-0.07454890012741089,XArbitraryZVertical,-0.5407847757837466,-0.2607092093876747,-0.2628456300790871,0.7553110097260346,-0.678118884563446,0.6798688173294067,-0.2791650593280792,0,0,0,-1,-1,11301.05267954167,unknown,2,2025-04-30T11:58:37.789+03:00,2025-04-28T22:17:59.397+03:00,6826,0.8224723,0,0,5720.054,11,14,2025-04-30T11:57:17.800+03:00,767696348.8307848,0,-13.3,100.9576,1,0.85,2025-04-30T11:45:49.339+03:00,87,1.45,2025-04-22T14:20:19.516+03:00,0.02197104130929222,0
2025-04-30T11:59:09.910+03:00,1746003548.420814,40.95221689146929,29.14029829636424,76.58913,-1,-1,-1,-1,30,26.98434767089239,-9999,11310.1815835,-0.6932830810546875,0.7297210693359375,-0.3543548583984375,11310.1765455,-1.180742280005441,-1.182604133796861,-0.7469188100984662,0.2809077501296997,-0.434801459312439,0.0001325911725871265,-0.02012211084365845,0.05177426338195801,-0.0926576554775238,XArbitraryZVertical,-0.5405466164819405,-0.2625541184525001,-0.2613477217282594,0.7553621390532211,-0.6791881322860718,0.6793810725212097,-0.2777493894100189,0,0,0,-1,-1,11301.05267954167,unknown,2,2025-04-30T11:58:37.789+03:00,2025-04-28T22:17:59.397+03:00,6826,0.8224723,0,0,5720.054,11,14,2025-04-30T11:57:17.800+03:00,767696348.8307848,0,-13.3,100.9576,1,0.85,2025-04-30T11:45:49.339+03:00,87,1.45,2025-04-22T14:20:19.516+03:00,0.02197104130929222,0
2025-04-30T11:59:09.920+03:00,1746003548.420814,40.95221689146929,29.14029829636424,76.58913,-1,-1,-1,-1,30,26.98434767089239,-9999,11310.1916595,-0.6822662353515625,0.736480712890625,-0.3181610107421875,11310.1866215,-1.1769401796612,-1.184472848978843,-0.7455611474937927,0.3198956549167633,-0.4386747479438782,-0.04653118550777435,-0.01725512742996216,0.05095541477203369,-0.08677464723587036,XArbitraryZVertical,-0.539929547728429,-0.2646934024377409,-0.2598140343784753,0.7555859105880417,-0.6805597543716431,0.6783841848373413,-0.2768269777297974,0,0,0,-1,-1,11301.05267954167,unknown,2,2025-04-30T11:58:37.789+03:00,2025-04-28T22:17:59.397+03:00,6826,0.8224723,0,0,5720.054,11,14,2025-04-30T11:57:17.800+03:00,767696348.8307848,0,-13.3,100.9576,1,0.85,2025-04-30T11:45:49.339+03:00,87,1.45,2025-04-22T14:20:19.516+03:00,0.02197104130929222,0
2025-04-30T11:59:09.930+03:00,1746003548.420814,40.95221689146929,29.14029829636424,76.58913,-1,-1,-1,-1,30,26.98434767089239,-9999,11310.2017345,-0.6753387451171875,0.73895263671875,-0.257720947265625,11310.1966965,-1.173556237337224,-1.186484276847088,-0.7436538595347475,0.2651724815368652,-0.4144541025161743,-0.1156604513525963,-0.00463712215423584,0.05542498826980591,-0.06332176923751831,XArbitraryZVertical,-0.5392346959088082,-0.2669360886001472,-0.2585653494003008,0.7557215041297125,-0.6823135018348694,0.6769816875457764,-0.2759421467781067,0,0,0,-1,-1,11301.05267954167,unknown,2,2025-04-30T11:58:37.789+03:00,2025-04-28T22:17:59.397+03:00,6826,0.8224723,0,0,5720.054,11,14,2025-04-30T11:57:17.800+03:00,767696348.8307848,0,-13.3,100.9576,1,0.85,2025-04-30T11:45:49.339+03:00,87,1.45,2025-04-22T14:20:19.516+03:00,0.02197104130929222,0
2025-04-30T11:59:09.941+03:00,1746003548.420814,40.95221689146929,29.14029829636424,76.58913,-1,-1,-1,-1,30,26.98434767089239,-9999,11310.2118095,-0.6646728515625,0.73150634765625,-0.1786346435546875,11310.2067725,-1.171601530749272,-1.189158213277305,-0.7414574579761325,0.1557688117027283,-0.3795421123504639,-0.177643895149231,0.005670607089996338,0.06436741352081299,-0.01658990979194641,XArbitraryZVertical,-0.5387347266301087,-0.269128155451796,-0.2577659824591454,0.7555737624989077,-0.6844273209571838,0.6753634810447693,-0.2746698558330536,0,0,0,-1,-1,11301.05267954167,unknown,2,2025-04-30T11:58:37.789+03:00,2025-04-28T22:17:59.397+03:00,6826,0.8224723,0,0,5720.054,11,14,2025-04-30T11:57:17.800+03:00,767696348.8307848,0,-13.3,100.9576,1,0.85,2025-04-30T11:45:49.339+03:00,87,1.45,2025-04-22T14:20:19.516+03:00,0.02197104130929222,0
2025-04-30T11:59:09.951+03:00,1746003548.420814,40.95221689146929,29.14029829636424,76.58913,-1,-1,-1,-1,30,26.98434767089239,-9999,11310.2218855,-0.6608734130859375,0.710235595703125,-0.120269775390625,11310.2168475,-1.171756369195426,-1.192847697120159,-0.7392729001635313,-0.03530073910951614,-0.3216809630393982,-0.2256769388914108,0.0160292387008667,0.06285202503204346,0.05381453037261963,XArbitraryZVertical,-0.5386510460822819,-0.2711305414151564,-0.2574874974600236,0.7550122181806409,-0.6868055462837219,0.6737508177757263,-0.2726865708827972,0,0,0,-1,-1,11301.05267954167,unknown,2,2025-04-30T11:58:37.789+03:00,2025-04-28T22:17:59.397+03:00,6826,0.8224723,0,0,5720.054,11,14,2025-04-30T11:57:17.800+03:00,767696348.8307848,0,-13.3,100.9576,1,0.85,2025-04-30T11:45:49.339+03:00,87,1.45,2025-04-22T14:20:19.516+03:00,0.02197104130929222,0
2025-04-30T11:59:09.961+03:00,1746003548.420814,40.95221689146929,29.14029829636424,76.58913,-1,-1,-1,-1,30,26.98434767089239,-9999,11310.2319605,-0.6675872802734375,0.6834869384765625,-0.0955047607421875,11310.2269225,-1.174038555201002,-1.197482385546914,-0.7370735628448452,-0.1205246299505234,-0.2866860032081604,-0.2975678145885468,0.02823096513748169,0.05099004507064819,0.1245782375335693,XArbitraryZVertical,-0.5389758086637684,-0.2729193170096509,-0.2577619812377522,0.7540416288165604,-0.6894400119781494,0.6721239686012268,-0.2700402438640594,0,0,0,-1,-1,11301.05267954167,unknown,2,2025-04-30T11:58:37.789+03:00,2025-04-28T22:17:59.397+03:00,6826,0.8224723,0,0,5720.054,11,14,2025-04-30T11:57:17.800+03:00,767696348.8307848,0,-13.3,100.9576,1,0.85,2025-04-30T11:45:49.339+03:00,87,1.45,2025-04-22T14:20:19.516+03:00,0.02197104130929222,0
2025-04-30T11:59:09.972+03:00,1746003548.420814,40.95221689146929,29.14029829636424,76.58913,-1,-1,-1,-1,30,26.98434767089239,-9999,11310.2420365,-0.671600341796875,0.66741943359375,-0.092529296875,11310.2369985,-1.178024808551934,-1.202778688105019,-0.7347101730616592,-0.2476972192525864,-0.2336787283420563,-0.3510419428348541,0.02814102172851562,0.0250929594039917,0.1632418036460876,XArbitraryZVertical,-0.5395810046739844,-0.2745440856082484,-0.2585481809161714,0.7527487677793363,-0.6923407912254333,0.6703721284866333,-0.2669557631015778,0,0,0,-1,-1,11301.05267954167,unknown,2,2025-04-30T11:58:37.789+03:00,2025-04-28T22:17:59.397+03:00,6826,0.8224723,0,0,5720.054,11,14,2025-04-30T11:57:17.800+03:00,767696348.8307848,0,-13.3,100.9576,1,0.85,2025-04-30T11:45:49.339+03:00,87,1.45,2025-04-22T14:20:19.516+03:00,0.02197104130929222,0
2025-04-30T11:59:09.981+03:00,1746003548.420814,40.95221689146929,29.14029829636424,76.58913,-1,-1,-1,-1,30,26.98434767089239,-9999,11310.2521115,-0.6587371826171875,0.691802978515625,-0.0656280517578125,11310.2470735,-1.183181967405227,-1.208318484111089,-0.7320795294568949,-0.2609792053699493,-0.177495613694191,-0.4109159409999847,0.02455723285675049,0.003472447395324707,0.1684343218803406,XArbitraryZVertical,-0.5403172053283254,-0.2760198769639522,-0.2597862309106321,0.7512532666623292,-0.6954556107521057,0.6684178113937378,-0.2637406885623932,0,0,0,-1,-1,11301.05267954167,unknown,2,2025-04-30T11:58:37.789+03:00,2025-04-28T22:17:59.397+03:00,6826,0.8224723,0,0,5720.054,11,14,2025-04-30T11:57:17.800+03:00,767696348.8307848,0,-13.3,100.9576,1,0.85,2025-04-30T11:45:49.339+03:00,87,1.45,2025-04-22T14:20:19.516+03:00,0.02197104130929222,0
2025-04-30T11:59:09.991+03:00,1746003548.420814,40.95221689146929,29.14029829636424,76.58913,-1,-1,-1,-1,30,26.98434767089239,-9999,11310.2621865,-0.647247314453125,0.7135772705078125,-0.0554046630859375,11310.2571495,-1.18781030144881,-1.212860674770345,-0.7285987445801262,-0.1107042133808136,-0.105244055390358,-0.4755823016166687,0.0316612720489502,0.009117245674133301,0.1820927262306213,XArbitraryZVertical,-0.5406382704563825,-0.2775138904099727,-0.2613484509226954,0.7499288304382099,-0.6988213062286377,0.665824830532074,-0.2613925933837891,0,0,0,-1,-1,11301.05267954167,unknown,2,2025-04-30T11:58:37.789+03:00,2025-04-28T22:17:59.397+03:00,6826,0.8224723,0,0,5720.054,11,14,2025-04-30T11:57:17.800+03:00,767696348.8307848,0,-13.3,100.9576,1,0.85,2025-04-30T11:45:49.339+03:00,87,1.45,2025-04-22T14:20:19.516+03:00,0.02197104130929222,0
2025-04-30T11:59:10.001+03:00,1746003548.420814,40.95221689146929,29.14029829636424,76.58913,-1,-1,-1,-1,30,26.98434767089239,-9999,11310.2722625,-0.6361541748046875,0.72467041015625,-0.037841796875,11310.2672245,-1.189884021207448,-1.214891419481996,-0.7237438938708831,0.1557382643222809,-0.02477837726473808,-0.537791907787323,0.05060851573944092,0.04437881708145142,0.2018616199493408,XArbitraryZVertical,-0.5399242773652924,-0.2791660269822376,-0.2630459115521689,0.7492362568716009,-0.7023723721504211,0.6621947288513184,-0.2610962092876434,0,0,0,-1,-1,11301.05267954167,unknown,2,2025-04-30T11:58:37.789+03:00,2025-04-28T22:17:59.397+03:00,6826,0.8224723,0,0,5720.054,11,14,2025-04-30T11:57:17.800+03:00,767696348.8307848,0,-13.3,100.9576,1,0.85,2025-04-30T11:45:49.339+03:00,87,1.45,2025-04-22T14:20:19.516+03:00,0.02197104130929222,0
2025-04-30T11:59:10.011+03:00,1746003548.420814,40.95221689146929,29.14029829636424,76.58913,-1,-1,-1,-1,30,26.98434767089239,-9999,11310.2823375,-0.6212310791015625,0.7368621826171875,0.0039520263671875,11310.2773005,-1.188529919757074,-1.213666667255308,-0.7172416680849942,0.5213341116905212,0.09412217885255814,-0.5988789796829224,0.06292849779129028,0.06112110614776611,0.2138038575649261,XArbitraryZVertical,-0.5378694825327337,-0.281013318081954,-0.2648336601820453,0.7493937040410534,-0.706071138381958,0.6573084592819214,-0.263455867767334,0,0,0,-1,-1,11301.05267954167,unknown,2,2025-04-30T11:58:37.789+03:00,2025-04-28T22:17:59.397+03:00,6826,0.8224723,0,0,5720.054,11,14,2025-04-30T11:57:17.800+03:00,767696348.8307848,0,-13.3,100.9576,1,0.85,2025-04-30T11:45:49.339+03:00,87,1.45,2025-04-22T14:20:19.516+03:00,0.02197104130929222,0
2025-04-30T11:59:10.021+03:00,1746003548.420814,40.95221689146929,29.14029829636424,76.58913,-1,-1,-1,-1,30,26.98434767089239,-9999,11310.2924135,-0.6006011962890625,0.735382080078125,0.0531768798828125,11310.2873755,-1.182119038867173,-1.207934678727496,-0.7087140445064314,0.9730585217475891,0.2093104273080826,-0.6463750600814819,0.08068996667861938,0.08060252666473389,0.2490623295307159,XArbitraryZVertical,-0.5339516435604621,-0.2831190042903775,-0.2665347589255704,0.7507984416644036,-0.7097639441490173,0.6508579850196838,-0.2694785296916962,0,0,0,-1,-1,11301.05267954167,unknown,2,2025-04-30T11:58:37.789+03:00,2025-04-28T22:17:59.397+03:00,6826,0.8224723,0,0,5720.054,11,14,2025-04-30T11:57:17.800+03:00,767696348.8307848,0,-13.3,100.9576,1,0.85,2025-04-30T11:45:49.339+03:00,87,1.45,2025-04-22T14:20:19.516+03:00,0.02197104130929222,0
2025-04-30T11:59:10.031+03:00,1746003548.420814,40.95221689146929,29.14029829636424,76.58913,-1,-1,-1,-1,30,26.98434767089239,-9999,11310.3024885,-0.569488525390625,0.7354278564453125,0.0984649658203125,11310.2974505,-1.170437005548633,-1.197702797770227,-0.6980496526002378,1.427207708358765,0.3208955526351929,-0.6921273469924927,0.1010730266571045,0.09424430131912231,0.3088276088237762,XArbitraryZVertical,-0.528065975480799,-0.2855274390547191,-0.2680548577827914,0.7535031852511289,-0.713392972946167,0.6427247524261475,-0.2792408168315887,0,0,0,-1,-1,11301.05267954167,unknown,2,2025-04-30T11:58:37.789+03:00,2025-04-28T22:17:59.397+03:00,6826,0.8224723,0,0,5720.054,11,14,2025-04-30T11:57:17.800+03:00,767696348.8307848,0,-13.3,100.9576,1,0.85,2025-04-30T11:45:49.339+03:00,87,1.45,2025-04-22T14:20:19.516+03:00,0.02197104130929222,0
2025-04-30T11:59:10.041+03:00,1746003548.420814,40.95221689146929,29.14029829636424,76.58913,-1,-1,-1,-1,30,26.98434767089239,-9999,11310.3125645,-0.539154052734375,0.6932373046875,0.1387939453125,11310.3075265,-1.15482667528104,-1.183948495049767,-0.6855211242824615,1.663119316101074,0.4371555745601654,-0.7332956790924072,0.1313149333000183,0.10444176197052,0.3680302798748016,XArbitraryZVertical,-0.5205553009170751,-0.2880997544186402,-0.269492750728594,0.7572279865144464,-0.7168861627578735,0.6330764889717102,-0.2920414209365845,0,0,0,-1,-1,11301.05267954167,unknown,2,2025-04-30T11:58:37.789+03:00,2025-04-28T22:17:59.397+03:00,6826,0.8224723,0,0,5720.054,11,14,2025-04-30T11:57:17.800+03:00,767696348.8307848,0,-13.3,100.9576,1,0.85,2025-04-30T11:45:49.339+03:00,87,1.45,2025-04-22T14:20:19.516+03:00,0.02197104130929222,0
2025-04-30T11:59:10.051+03:00,1746003548.420814,40.95221689146929,29.14029829636424,76.58913,-1,-1,-1,-1,30,26.98434767089239,-9999,11310.3226395,-0.5120391845703125,0.6159820556640625,0.211517333984375,11310.3176015,-1.138971402704494,-1.168843482117055,-0.672239040962117,1.585628151893616,0.589805006980896,-0.754602313041687,0.1667545437812805,0.09845197200775146,0.4241411089897156,XArbitraryZVertical,-0.5125095465157952,-0.2903177986346702,-0.2712919644403413,0.7612162689490084,-0.7200686931610107,0.6227394342422485,-0.3060990869998932,0,0,0,-1,-1,11301.05267954167,unknown,2,2025-04-30T11:58:37.789+03:00,2025-04-28T22:17:59.397+03:00,6826,0.8224723,0,0,5720.054,11,14,2025-04-30T11:57:17.800+03:00,767696348.8307848,0,-13.3,100.9576,1,0.85,2025-04-30T11:45:49.339+03:00,87,1.45,2025-04-22T14:20:19.516+03:00,0.02197104130929222,0
2025-04-30T11:59:10.061+03:00,1746003548.420814,40.95221689146929,29.14029829636424,76.58913,-1,-1,-1,-1,30,26.98434767089239,-9999,11310.3327145,-0.4918975830078125,0.4935302734375,0.30352783203125,11310.3276775,-1.125572283804671,-1.153763861558225,-0.6594481220241176,1.305234551429749,0.7606790065765381,-0.7375733256340027,0.1976012587547302,0.04657518863677979,0.4886864423751831,XArbitraryZVertical,-0.504855030805204,-0.2916506715453108,-0.2737508286903819,0.7649324640075562,-0.7225950956344604,0.6126807928085327,-0.3201225697994232,0,0,0,-1,-1,11301.05267954167,unknown,2,2025-04-30T11:58:37.789+03:00,2025-04-28T22:17:59.397+03:00,6826,0.8224723,0,0,5720.054,11,14,2025-04-30T11:57:17.800+03:00,767696348.8307848,0,-13.3,100.9576,1,0.85,2025-04-30T11:45:49.339+03:00,87,1.45,2025-04-22T14:20:19.516+03:00,0.02197104130929222,0
2025-04-30T11:59:10.071+03:00,1746003548.420814,40.95221689146929,29.14029829636424,76.58913,-1,-1,-1,-1,30,26.98434767089239,-9999,11310.3427905,-0.4826812744140625,0.374481201171875,0.3811798095703125,11310.3377525,-1.117236663682305,-1.140174422696294,-0.6485847563736432,0.7721466422080994,0.9352659583091736,-0.6927171349525452,0.2232378721237183,-0.04296296834945679,0.5914450287818909,XArbitraryZVertical,-0.4986121005513259,-0.2916339690544507,-0.2771087841717783,0.7678191281870984,-0.7241838574409485,0.6040591597557068,-0.332671195268631,0,0,0,-1,-1,11301.05267954167,unknown,2,2025-04-30T11:58:37.789+03:00,2025-04-28T22:17:59.397+03:00,6826,0.8224723,0,0,5720.054,11,14,2025-04-30T11:57:17.800+03:00,767696348.8307848,0,-13.3,100.9576,1,0.85,2025-04-30T11:45:49.339+03:00,87,1.45,2025-04-22T14:20:19.516+03:00,0.02197104130929222,0
2025-04-30T11:59:10.082+03:00,1746003548.420814,40.95221689146929,29.14029829636424,76.58913,-1,-1,-1,-1,30,26.98434767089239,-9999,11310.3528655,-0.48309326171875,0.3161468505859375,0.4469451904296875,11310.3478275,-1.115057828653757,-1.128567955285836,-0.6404075120759021,0.2226627618074417,1.113163590431213,-0.6363072395324707,0.2380200028419495,-0.1711001992225647,0.6855940818786621,XArbitraryZVertical,-0.4942681618005322,-0.2900359389721302,-0.2814980678253138,0.7696342057956608,-0.7247142195701599,0.5975222587585449,-0.3431562781333923,0,0,0,-1,-1,11301.05267954167,unknown,2,2025-04-30T11:58:37.789+03:00,2025-04-28T22:17:59.397+03:00,6826,0.8224723,0,0,5720.054,11,14,2025-04-30T11:57:17.800+03:00,767696348.8307848,0,-13.3,100.9576,1,0.85,2025-04-30T11:45:49.339+03:00,87,1.45,2025-04-22T14:20:19.516+03:00,0.02197104130929222,0
2025-04-30T11:59:10.092+03:00,1746003548.420814,40.95221689146929,29.14029829636424,76.58913,-1,-1,-1,-1,30,26.98434767089239,-9999,11310.3629415,-0.4967041015625,0.30792236328125,0.482635498046875,11310.3579035,-1.118401909288019,-1.118315924629914,-0.6347378325788222,-0.1845753043889999,1.324351191520691,-0.6178651452064514,0.2427787184715271,-0.2547401189804077,0.7712023854255676,XArbitraryZVertical,-0.4916119500814232,-0.2868727556184497,-0.2869270174301338,0.7705157681584958,-0.7241934537887573,0.5929664373397827,-0.3520434200763702,0,0,0,-1,-1,11301.05267954167,unknown,2,2025-04-30T11:58:37.789+03:00,2025-04-28T22:17:59.397+03:00,6826,0.8224723,0,0,5720.054,11,14,2025-04-30T11:57:17.800+03:00,767696348.8307848,0,-13.3,100.9576,1,0.85,2025-04-30T11:45:49.339+03:00,87,1.45,2025-04-22T14:20:19.516+03:00,0.02197104130929222,0
2025-04-30T11:59:10.102+03:00,1746003548.420814,40.95221689146929,29.14029829636424,76.58913,-1,-1,-1,-1,30,26.98434767089239,-9999,11310.3730165,-0.522552490234375,0.35003662109375,0.5009765625,11310.3679785,-1.124854490461629,-1.107675771857696,-0.6307447893626795,-0.3706311583518982,1.543349623680115,-0.524397611618042,0.2338871955871582,-0.284204363822937,0.8254902362823486,XArbitraryZVertical,-0.4897972628590821,-0.282323830977004,-0.2931536040756709,0.771007679282399,-0.7225193381309509,0.5897464156150818,-0.3607837855815887,0,0,0,-1,-1,11301.05267954167,unknown,2,2025-04-30T11:58:37.789+03:00,2025-04-28T22:17:59.397+03:00,6826,0.8224723,0,0,5720.054,11,14,2025-04-30T11:57:17.800+03:00,767696348.8307848,0,-13.3,100.9576,1,0.85,2025-04-30T11:45:49.339+03:00,87,1.45,2025-04-22T14:20:19.516+03:00,0.02197104130929222,0
2025-04-30T11:59:10.112+03:00,1746003548.420814,40.95221689146929,29.14029829636424,76.58913,-1,-1,-1,-1,30,26.98434767089239,-9999,11310.3830915,-0.55108642578125,0.3900299072265625,0.4288177490234375,11310.3780545,-1.131490680097846,-1.094749202732422,-0.6280364517477895,-0.2943965792655945,1.792883515357971,-0.4346666634082794,0.20970618724823,-0.2634145617485046,0.8705796003341675,XArbitraryZVertical,-0.4879985815054895,-0.2764878772886776,-0.2996333930992873,0.7717717350244456,-0.7192124128341675,0.5875570178031921,-0.3708236813545227,0,0,0,-1,-1,11301.05267954167,unknown,2,2025-04-30T11:58:37.789+03:00,2025-04-28T22:17:59.397+03:00,6826,0.8224723,0,0,5720.054,11,14,2025-04-30T11:57:17.800+03:00,767696348.8307848,0,-13.3,100.9576,1,0.85,2025-04-30T11:45:49.339+03:00,87,1.45,2025-04-22T14:20:19.516+03:00,0.02197104130929222,0
2025-04-30T11:59:10.122+03:00,1746003548.420814,40.95221689146929,29.14029829636424,76.58913,-1,-1,-1,-1,30,26.98434767089239,-9999,11310.3931675,-0.580413818359375,0.36956787109375,0.29071044921875,11310.3881295,-1.136133365419979,-1.07823806966975,-0.6256321690218049,-0.178088054060936,2.025431871414185,-0.3456451892852783,0.1792462468147278,-0.2081683874130249,0.8614334464073181,XArbitraryZVertical,-0.4854091554397144,-0.2696677379653631,-0.3061138152440699,0.7732732825243405,-0.7142345905303955,0.5856097936630249,-0.3833145201206207,0,0,0,-1,-1,11301.05267954167,unknown,2,2025-04-30T11:58:37.789+03:00,2025-04-28T22:17:59.397+03:00,6826,0.8224723,0,0,5720.054,11,14,2025-04-30T11:57:17.800+03:00,767696348.8307848,0,-13.3,100.9576,1,0.85,2025-04-30T11:45:49.339+03:00,87,1.45,2025-04-22T14:20:19.516+03:00,0.02197104130929222,0
2025-04-30T11:59:10.132+03:00,1746003548.420814,40.95221689146929,29.14029829636424,76.58913,-1,-1,-1,-1,30,26.98434767089239,-9999,11310.4032425,-0.5592041015625,0.3843231201171875,0.209686279296875,11310.3982055,-1.13936848021955,-1.058795745804142,-0.6238445126596757,-0.08906950056552887,2.219715595245361,-0.2222617417573929,0.1380248665809631,-0.2025222182273865,0.757457435131073,XArbitraryZVertical,-0.4822904697856615,-0.261870132238683,-0.3125622125477033,0.7753224329024077,-0.7075591087341309,0.5841598510742188,-0.3976398706436157,0,0,0,-1,-1,11301.05267954167,unknown,2,2025-04-30T11:58:37.789+03:00,2025-04-28T22:17:59.397+03:00,6826,0.8224723,0,0,5720.054,11,14,2025-04-30T11:57:17.800+03:00,767696348.8307848,0,-13.3,100.9576,1,0.85,2025-04-30T11:45:49.339+03:00,87,1.45,2025-04-22T14:20:19.516+03:00,0.02197104130929222,0
2025-04-30T11:59:10.142+03:00,1746003548.420814,40.95221689146929,29.14029829636424,76.58913,-1,-1,-1,-1,30,26.98434767089239,-9999,11310.4133185,-0.539581298828125,0.3903961181640625,0.1289215087890625,11310.4082805,-1.140831073076884,-1.036056529405221,-0.6229159148659547,-0.03114021755754948,2.479954481124878,-0.1059358194470406,0.1225074529647827,-0.2121290564537048,0.6552801132202148,XArbitraryZVertical,-0.4786055375552354,-0.2529547802393944,-0.3188453482020203,0.7780026962261206,-0.6988012790679932,0.5834059119224548,-0.4139012396335602,0,0,0,-1,-1,11301.05267954167,unknown,2,2025-04-30T11:58:37.789+03:00,2025-04-28T22:17:59.397+03:00,6826,0.8224723,0,0,5720.054,11,14,2025-04-30T11:57:17.800+03:00,767696348.8307848,0,-13.3,100.9576,1,0.85,2025-04-30T11:45:49.339+03:00,87,1.45,2025-04-22T14:20:19.516+03:00,0.02197104130929222,0
2025-04-30T11:59:10.152+03:00,1746003548.420814,40.95221689146929,29.14029829636424,76.58913,-1,-1,-1,-1,30,26.98434767089239,-9999,11310.4233935,-0.5791168212890625,0.372344970703125,0.0104522705078125,11310.4183555,-1.142155907796027,-1.010992166488767,-0.6220314149105899,-0.09584730863571167,2.634812355041504,-0.1231044232845306,0.1478894948959351,-0.1894377470016479,0.6074005961418152,XArbitraryZVertical,-0.4744587759076935,-0.2431249595579812,-0.3255710389358942,0.7808857316433622,-0.6886457204818726,0.5826872587203979,-0.4315582513809204,0,0,0,-1,-1,11301.05267954167,unknown,2,2025-04-30T11:58:37.789+03:00,2025-04-28T22:17:59.397+03:00,6826,0.8224723,0,0,5720.054,11,14,2025-04-30T11:57:17.800+03:00,767696348.8307848,0,-13.3,100.9576,1,0.85,2025-04-30T11:45:49.339+03:00,87,1.45,2025-04-22T14:20:19.516+03:00,0.02197104130929222,0
2025-04-30T11:59:10.162+03:00,1746003548.420814,40.95221689146929,29.14029829636424,76.58913,-1,-1,-1,-1,30,26.98434767089239,-9999,11310.4334695,-0.5576171875,0.3736572265625,-0.0597686767578125,11310.4284315,-1.145590154450097,-0.9855522581606659,-0.6226009952481698,-0.4451870620250702,2.832633495330811,-0.1102990806102753,0.1175677180290222,-0.2032672762870789,0.5206061005592346,XArbitraryZVertical,-0.4708573191321709,-0.2322007404033979,-0.3327758061965916,0.7833494712169675,-0.6771684885025024,0.5831500887870789,-0.4487524032592773,0,0,0,-1,-1,11301.05267954167,unknown,2,2025-04-30T11:58:37.789+03:00,2025-04-28T22:17:59.397+03:00,6826,0.8224723,0,0,5720.054,11,14,2025-04-30T11:57:17.800+03:00,767696348.8307848,0,-13.3,100.9576,1,0.85,2025-04-30T11:45:49.339+03:00,87,1.45,2025-04-22T14:20:19.516+03:00,0.02197104130929222,0
2025-04-30T11:59:10.172+03:00,1746003548.420814,40.95221689146929,29.14029829636424,76.58913,-1,-1,-1,-1,30,26.98434767089239,-9999,11310.4435445,-0.6026458740234375,0.328399658203125,-0.013275146484375,11310.4385065,-1.153920829072874,-0.9609345969309446,-0.6261915234177139,-1.099234104156494,3.046353101730347,-0.0540536493062973,0.09023725986480713,-0.2123754024505615,0.4247304499149323,XArbitraryZVertical,-0.4687793706511046,-0.2195552418998829,-0.3408892170078126,0.7847520752680169,-0.6641965508460999,0.5860631465911865,-0.464082807302475,0,0,0,-1,-1,11301.05267954167,unknown,2,2025-04-30T11:58:37.789+03:00,2025-04-28T22:17:59.397+03:00,6826,0.8224723,0,0,5720.054,11,14,2025-04-30T11:57:17.800+03:00,767696348.8307848,0,-13.3,100.9576,1,0.85,2025-04-30T11:45:49.339+03:00,87,1.45,2025-04-22T14:20:19.516+03:00,0.02197104130929222,0
2025-04-30T11:59:10.182+03:00,1746003548.420814,40.95221689146929,29.14029829636424,76.58913,-1,-1,-1,-1,30,26.98434767089239,-9999,11310.4536195,-0.7062530517578125,0.2781524658203125,0.073333740234375,11310.4485825,-1.168915767146578,-0.937701984809072,-0.6345359704027452,-1.793649196624756,3.308537006378174,0.01940056122839451,0.08513849973678589,-0.2339171767234802,0.4296785891056061,XArbitraryZVertical,-0.4689813387150155,-0.2044942635451927,-0.3500727045090931,0.7846576531380685,-0.6492711305618286,0.5928038954734802,-0.4764772057533264,0,0,0,-1,-1,11301.05267954167,unknown,2,2025-04-30T11:58:37.789+03:00,2025-04-28T22:17:59.397+03:00,6826,0.8224723,0,0,5720.054,11,14,2025-04-30T11:57:17.800+03:00,767696348.8307848,0,-13.3,100.9576,1,0.85,2025-04-30T11:45:49.339+03:00,87,1.45,2025-04-22T14:20:19.516+03:00,0.02197104130929222,0
2025-04-30T11:59:10.192+03:00,1746003548.420814,40.95221689146929,29.14029829636424,76.58913,-1,-1,-1,-1,30,26.98434767089239,-9999,11310.4636955,-0.7589874267578125,0.32159423828125,0.00238037109375,11310.4586575,-1.18810333596217,-0.9137718173659052,-0.6478778730691823,-2.155443668365479,3.861421823501587,0.4255233108997345,-0.02358794212341309,-0.3063917756080627,0.5175351500511169,XArbitraryZVertical,-0.4707986082397306,-0.18667496662164,-0.3598227405518365,0.7835998627465182,-0.6313650608062744,0.6034956574440002,-0.4870022535324097,0,0,0,-1,-1,11301.05267954167,unknown,2,2025-04-30T11:58:37.789+03:00,2025-04-28T22:17:59.397+03:00,6826,0.8224723,0,0,5720.054,11,14,2025-04-30T11:57:17.800+03:00,767696348.8307848,0,-13.3,100.9576,1,0.85,2025-04-30T11:45:49.339+03:00,87,1.45,2025-04-22T14:20:19.516+03:00,0.02197104130929222,0
