loggingTime(txt),locationTimestamp_since1970(s),locationLatitude(WGS84),locationLongitude(WGS84),locationAltitude(m),locationSpeed(m/s),locationSpeedAccuracy(m/s),locationCourse(°),locationCourseAccuracy(°),locationVerticalAccuracy(m),locationHorizontalAccuracy(m),locationFloor(Z),accelerometerTimestamp_sinceReboot(s),accelerometerAccelerationX(G),accelerometerAccelerationY(G),accelerometerAccelerationZ(G),motionTimestamp_sinceReboot(s),motionYaw(rad),motionRoll(rad),motionPitch(rad),motionRotationRateX(rad/s),motionRotationRateY(rad/s),motionRotationRateZ(rad/s),motionUserAccelerationX(G),motionUserAccelerationY(G),motionUserAccelerationZ(G),motionAttitudeReferenceFrame(txt),motionQuaternionX(R),motionQuaternionY(R),motionQuaternionZ(R),motionQuaternionW(R),motionGravityX(G),motionGravityY(G),motionGravityZ(G),motionMagneticFieldX(µT),motionMagneticFieldY(µT),motionMagneticFieldZ(µT),motionHeading(°),motionMagneticFieldCalibrationAccuracy(Z),activityTimestamp_sinceReboot(s),activity(txt),activityActivityConfidence(Z),activityActivityStartDate(txt),pedometerStartDate(txt),pedometerNumberofSteps(N),pedometerAverageActivePace(s/m),pedometerCurrentPace(s/m),pedometerCurrentCadence(steps/s),pedometerDistance(m),pedometerFloorAscended(N),pedometerFloorDescended(N),pedometerEndDate(txt),altimeterTimestamp_sinceReboot(s),altimeterReset(bool),altimeterRelativeAltitude(m),altimeterPressure(kPa),batteryState(N),batteryLevel(R),heartRateBPMTimestamp(txt),heartRateBPM(N),heartRateBPS(R),heartRateVariabilityTimestamp(txt),heartRateVariability(ms),label
2025-04-22T15:56:38.596+03:00,1745326597.963435,40.95226359885385,29.14032089484547,76.36396,-1,-1,-1,-1,30,21.30253868467173,-9999,36641.73463675,0.75958251953125,-0.438934326171875,-0.46490478515625,36641.72455975,0.4405136762796789,1.014708424517966,0.4664199938272108,0.003878702409565449,-0.008629446849226952,-0.01005264651030302,-0.005202293395996094,-0.01492318511009216,0.01709118485450745,XArbitraryZVertical,0.09383214206934622,0.5054247158480775,0.2953616493404903,0.8052966249915765,0.7586048245429993,-0.4496915638446808,-0.4714827835559845,0,0,0,-1,-1,36637.88171716667,unknown,2,2025-04-22T15:56:34.717+03:00,2025-04-21T17:08:51.449+03:00,8324,1.051678,0,0,6918.726,7,22,2025-04-22T15:56:37.296+03:00,767019389.6593788,0,-14.73,100.3796,1,0.5,2025-04-22T15:55:58.312+03:00,109,1.816666666666667,2025-04-22T14:20:19.516+03:00,0.02197104130929222,0
2025-04-22T15:56:38.608+03:00,1745326597.963435,40.95226359885385,29.14032089484547,76.36396,-1,-1,-1,-1,30,21.30253868467173,-9999,36641.74471275001,0.7488250732421875,-0.446197509765625,-0.4688568115234375,36641.73463675,0.4404546894591969,1.014551749094807,0.4664624406419665,0.007362117059528828,-0.006809177342802286,-0.01010857243090868,0.005553662776947021,0.005653053522109985,0.01079127192497253,XArbitraryZVertical,0.09388832791438208,0.5053604594321535,0.2953393765693833,0.805338638635837,0.7585147619247437,-0.4497294723987579,-0.4715915620326996,0,0,0,-1,-1,36637.88171716667,unknown,2,2025-04-22T15:56:34.717+03:00,2025-04-21T17:08:51.449+03:00,8324,1.051678,0,0,6918.726,7,22,2025-04-22T15:56:37.296+03:00,767019389.6593788,0,-14.73,100.3796,1,0.5,2025-04-22T15:55:58.312+03:00,109,1.816666666666667,2025-04-22T14:20:19.516+03:00,0.02197104130929222,0
2025-04-22T15:56:38.609+03:00,1745326597.963435,40.95226359885385,29.14032089484547,76.36396,-1,-1,-1,-1,30,21.30253868467173,-9999,36641.75478875,0.7513885498046875,-0.4537353515625,-0.471923828125,36641.74471275001,0.4403930116244355,1.014396441427134,0.4664904157664792,0.005372535903006792,-0.008308203890919685,-0.008897732943296432,-0.007820606231689453,0.008745074272155762,0.003074675798416138,XArbitraryZVertical,0.09393879135102019,0.5052960984008604,0.295313090913521,0.8053827454557658,0.7584307789802551,-0.4497544765472412,-0.4717027246952057,0,0,0,-1,-1,36637.88171716667,unknown,2,2025-04-22T15:56:34.717+03:00,2025-04-21T17:08:51.449+03:00,8324,1.051678,0,0,6918.726,7,22,2025-04-22T15:56:37.296+03:00,767019389.6593788,0,-14.73,100.3796,1,0.5,2025-04-22T15:55:58.312+03:00,109,1.816666666666667,2025-04-22T14:20:19.516+03:00,0.02197104130929222,0
2025-04-22T15:56:38.610+03:00,1745326597.963435,40.95226359885385,29.14032089484547,76.36396,-1,-1,-1,-1,30,21.30253868467173,-9999,36641.76486575,0.749114990234375,-0.4505615234375,-0.4775543212890625,36641.75478875,0.4403197465964674,1.014292262826934,0.4663976221508714,0.004356273449957371,-0.006669826805591583,-0.01228953525424004,-0.007074534893035889,-0.002278387546539307,0.002336502075195312,XArbitraryZVertical,0.09393305987485158,0.5052471293702605,0.2952593004913561,0.8054339979478498,0.7584171891212463,-0.449671596288681,-0.4718038439750671,0,0,0,-1,-1,36637.88171716667,unknown,2,2025-04-22T15:56:34.717+03:00,2025-04-21T17:08:51.449+03:00,8324,1.051678,0,0,6918.726,7,22,2025-04-22T15:56:37.296+03:00,767019389.6593788,0,-14.73,100.3796,1,0.5,2025-04-22T15:55:58.312+03:00,109,1.816666666666667,2025-04-22T14:20:19.516+03:00,0.02197104130929222,0
2025-04-22T15:56:38.620+03:00,1745326597.963435,40.95226359885385,29.14032089484547,76.36396,-1,-1,-1,-1,30,21.30253868467173,-9999,36641.77494175,0.7524566650390625,-0.451202392578125,-0.4741363525390625,36641.76486575,0.4402526845691729,1.014197714601829,0.4663269507402419,-0.001087360782548785,-0.01171398814767599,-0.009140146896243095,-0.008933663368225098,-0.002524614334106445,-0.003587007522583008,XArbitraryZVertical,0.09393374705011279,0.5052032417835984,0.2952131530943481,0.8054782457104064,0.758399486541748,-0.4496084749698639,-0.4718922674655914,0,0,0,-1,-1,36637.88171716667,unknown,2,2025-04-22T15:56:34.717+03:00,2025-04-21T17:08:51.449+03:00,8324,1.051678,0,0,6918.726,7,22,2025-04-22T15:56:37.296+03:00,767019389.6593788,0,-14.73,100.3796,1,0.5,2025-04-22T15:55:58.312+03:00,109,1.816666666666667,2025-04-22T14:20:19.516+03:00,0.02197104130929222,0
2025-04-22T15:56:38.625+03:00,1745326597.963435,40.95226359885385,29.14032089484547,76.36396,-1,-1,-1,-1,30,21.30253868467173,-9999,36641.78501775,0.752716064453125,-0.45233154296875,-0.46502685546875,36641.77494175,0.440205973353973,1.014127541979389,0.4662717624797477,-0.0008862920803949237,-0.007406324148178101,-0.009603803046047688,-0.008204460144042969,-0.0006817877292633057,-0.004726141691207886,XArbitraryZVertical,0.09393231972566932,0.5051706918552302,0.295179547842967,0.8055111109054952,0.7583873867988586,-0.4495591819286346,-0.4719585776329041,0,0,0,-1,-1,36637.88171716667,unknown,2,2025-04-22T15:56:34.717+03:00,2025-04-21T17:08:51.449+03:00,8324,1.051678,0,0,6918.726,7,22,2025-04-22T15:56:37.296+03:00,767019389.6593788,0,-14.73,100.3796,1,0.5,2025-04-22T15:55:58.312+03:00,109,1.816666666666667,2025-04-22T14:20:19.516+03:00,0.02197104130929222,0
2025-04-22T15:56:38.635+03:00,1745326597.963435,40.95226359885385,29.14032089484547,76.36396,-1,-1,-1,-1,30,21.30253868467173,-9999,36641.79509375,0.753631591796875,-0.450164794921875,-0.4607086181640625,36641.78501775,0.4401474794788212,1.014151622479944,0.4661480253493833,-0.002140640979632735,-0.003374564461410046,-0.00935013685375452,-0.005150258541107178,-0.003355801105499268,0.003021210432052612,XArbitraryZVertical,0.09389067562970006,0.5051729255507245,0.2951313165938923,0.8055322494380965,0.7584460377693176,-0.4494486451148987,-0.4719697237014771,0,0,0,-1,-1,36637.88171716667,unknown,2,2025-04-22T15:56:34.717+03:00,2025-04-21T17:08:51.449+03:00,8324,1.051678,0,0,6918.726,7,22,2025-04-22T15:56:37.296+03:00,767019389.6593788,0,-14.73,100.3796,1,0.5,2025-04-22T15:55:58.312+03:00,109,1.816666666666667,2025-04-22T14:20:19.516+03:00,0.02197104130929222,0
2025-04-22T15:56:38.645+03:00,1745326597.963435,40.95226359885385,29.14032089484547,76.36396,-1,-1,-1,-1,30,21.30253868467173,-9999,36641.80517075001,0.75537109375,-0.450714111328125,-0.4678192138671875,36641.79509375,0.440077773925122,1.014168720634869,0.4660723570474627,0.004002738744020462,-0.005338911898434162,-0.006682182662189007,-0.00581282377243042,-0.001454979181289673,0.01035040616989136,XArbitraryZVertical,0.09387341860387832,0.5051736779109898,0.2950882894350031,0.8055494759314876,0.7584828734397888,-0.4493810534477234,-0.4719746708869934,0,0,0,-1,-1,36637.88171716667,unknown,2,2025-04-22T15:56:34.717+03:00,2025-04-21T17:08:51.449+03:00,8324,1.051678,0,0,6918.726,7,22,2025-04-22T15:56:37.296+03:00,767019389.6593788,0,-14.73,100.3796,1,0.5,2025-04-22T15:55:58.312+03:00,109,1.816666666666667,2025-04-22T14:20:19.516+03:00,0.02197104130929222,0
2025-04-22T15:56:38.655+03:00,1745326597.963435,40.95226359885385,29.14032089484547,76.36396,-1,-1,-1,-1,30,21.30253868467173,-9999,36641.81524675,0.7518310546875,-0.451873779296875,-0.4687347412109375,36641.80517075001,0.4399112862023644,1.014227050187098,0.4661288523862301,0.01434772182255983,-0.002715232316404581,-0.008338302373886108,-0.002767086029052734,-0.0009620785713195801,0.00788193941116333,XArbitraryZVertical,0.09393103009381831,0.5051914580340479,0.2950356980423843,0.8055510465543253,0.7584890127182007,-0.4494315087795258,-0.4719170928001404,0,0,0,-1,-1,36637.88171716667,unknown,2,2025-04-22T15:56:34.717+03:00,2025-04-21T17:08:51.449+03:00,8324,1.051678,0,0,6918.726,7,22,2025-04-22T15:56:37.296+03:00,767019389.6593788,0,-14.73,100.3796,1,0.5,2025-04-22T15:55:58.312+03:00,109,1.816666666666667,2025-04-22T14:20:19.516+03:00,0.02197104130929222,0
2025-04-22T15:56:38.666+03:00,1745326597.963435,40.95226359885385,29.14032089484547,76.36396,-1,-1,-1,-1,30,21.30253868467173,-9999,36641.82532275,0.7523040771484375,-0.452056884765625,-0.466644287109375,36641.81524675,0.439667143655396,1.014328723342949,0.4661545187969071,0.01834539324045181,-0.006125676911324263,-0.004684179089963436,-0.005368709564208984,-0.001824140548706055,0.001908808946609497,XArbitraryZVertical,0.09398865610424895,0.505221943028568,0.2949475235366695,0.8055573968803221,0.7585271000862122,-0.4494544267654419,-0.4718338549137115,0,0,0,-1,-1,36637.88171716667,unknown,2,2025-04-22T15:56:34.717+03:00,2025-04-21T17:08:51.449+03:00,8324,1.051678,0,0,6918.726,7,22,2025-04-22T15:56:37.296+03:00,767019389.6593788,0,-14.73,100.3796,1,0.5,2025-04-22T15:55:58.312+03:00,109,1.816666666666667,2025-04-22T14:20:19.516+03:00,0.02197104130929222,0
2025-04-22T15:56:38.675+03:00,1745326597.963435,40.95226359885385,29.14032089484547,76.36396,-1,-1,-1,-1,30,21.30253868467173,-9999,36641.83539975,0.7528076171875,-0.453704833984375,-0.46771240234375,36641.82532275,0.4394736200000303,1.014348164847045,0.4661831928825114,0.01402055192738771,-0.009459288790822029,-0.005337785463780165,-0.007426857948303223,-0.002103716135025024,0.005244135856628418,XArbitraryZVertical,0.09404692923464272,0.5052217596890622,0.2948764643961642,0.8055767444866527,0.7585253715515137,-0.4494800567626953,-0.4718123078346252,0,0,0,-1,-1,36637.88171716667,unknown,2,2025-04-22T15:56:34.717+03:00,2025-04-21T17:08:51.449+03:00,8324,1.051678,0,0,6918.726,7,22,2025-04-22T15:56:37.296+03:00,767019389.6593788,0,-14.73,100.3796,1,0.5,2025-04-22T15:55:58.312+03:00,109,1.816666666666667,2025-04-22T14:20:19.516+03:00,0.02197104130929222,0
2025-04-22T15:56:38.685+03:00,1745326597.963435,40.95226359885385,29.14032089484547,76.36396,-1,-1,-1,-1,30,21.30253868467173,-9999,36641.84547575,0.751800537109375,-0.4479217529296875,-0.467376708984375,36641.83539975,0.4393109241479538,1.014322241310438,0.4662528187466999,0.01866563782095909,-0.008470190688967705,-0.001871148822829127,-0.004900872707366943,-0.003948867321014404,0.005003154277801514,XArbitraryZVertical,0.09412160576643754,0.5052062874244664,0.2948242165532419,0.80559691180364,0.7584865689277649,-0.4495422542095184,-0.4718154668807983,0,0,0,-1,-1,36637.88171716667,unknown,2,2025-04-22T15:56:34.717+03:00,2025-04-21T17:08:51.449+03:00,8324,1.051678,0,0,6918.726,7,22,2025-04-22T15:56:37.296+03:00,767019389.6593788,0,-14.73,100.3796,1,0.5,2025-04-22T15:55:58.312+03:00,109,1.816666666666667,2025-04-22T14:20:19.516+03:00,0.02197104130929222,0
2025-04-22T15:56:38.695+03:00,1745326597.963435,40.95226359885385,29.14032089484547,76.36396,-1,-1,-1,-1,30,21.30253868467173,-9999,36641.85555175,0.7522125244140625,-0.442230224609375,-0.4701385498046875,36641.84547575,0.4390777721952228,1.014333682959505,0.466384371552631,0.03034087084233761,-0.00646915752440691,-0.0001630306360311806,-0.006534457206726074,-0.002183467149734497,0.004825890064239502,XArbitraryZVertical,0.09423502363059086,0.5052048917037449,0.2947582760515225,0.8056086834218824,0.7584418058395386,-0.4496597647666931,-0.4717755615711212,0,0,0,-1,-1,36637.88171716667,unknown,2,2025-04-22T15:56:34.717+03:00,2025-04-21T17:08:51.449+03:00,8324,1.051678,0,0,6918.726,7,22,2025-04-22T15:56:37.296+03:00,767019389.6593788,0,-14.73,100.3796,1,0.5,2025-04-22T15:55:58.312+03:00,109,1.816666666666667,2025-04-22T14:20:19.516+03:00,0.02197104130929222,0
2025-04-22T15:56:38.705+03:00,1745326597.963435,40.95226359885385,29.14032089484547,76.36396,-1,-1,-1,-1,30,21.30253868467173,-9999,36641.86562875001,0.750946044921875,-0.444427490234375,-0.475067138671875,36641.85555175,0.4387602103440064,1.014405387148555,0.466583761914902,0.03917590528726578,-0.001335648819804192,0.0003538889577612281,-0.006171762943267822,0.006768465042114258,0.003381431102752686,XArbitraryZVertical,0.09438986055488169,0.5052263407449405,0.2946753479564255,0.8056074170088697,0.7583994269371033,-0.4498378336429596,-0.4716737866401672,0,0,0,-1,-1,36637.88171716667,unknown,2,2025-04-22T15:56:34.717+03:00,2025-04-21T17:08:51.449+03:00,8324,1.051678,0,0,6918.726,7,22,2025-04-22T15:56:37.296+03:00,767019389.6593788,0,-14.73,100.3796,1,0.5,2025-04-22T15:55:58.312+03:00,109,1.816666666666667,2025-04-22T14:20:19.516+03:00,0.02197104130929222,0
2025-04-22T15:56:38.715+03:00,1745326597.963435,40.95226359885385,29.14032089484547,76.36396,-1,-1,-1,-1,30,21.30253868467173,-9999,36641.87570475,0.7483978271484375,-0.4462738037109375,-0.476287841796875,36641.86562875001,0.4383735895527007,1.014591836794642,0.4668506947656758,0.04321791976690292,0.003763106185942888,0.005088257137686014,-0.00653916597366333,0.007952898740768433,-0.001904606819152832,XArbitraryZVertical,0.09457410615363855,0.5052932367537172,0.2945841289945787,0.8055772006719529,0.7583853602409363,-0.4500762224197388,-0.4714689552783966,0,0,0,-1,-1,36637.88171716667,unknown,2,2025-04-22T15:56:34.717+03:00,2025-04-21T17:08:51.449+03:00,8324,1.051678,0,0,6918.726,7,22,2025-04-22T15:56:37.296+03:00,767019389.6593788,0,-14.73,100.3796,1,0.5,2025-04-22T15:55:58.312+03:00,109,1.816666666666667,2025-04-22T14:20:19.516+03:00,0.02197104130929222,0
2025-04-22T15:56:38.725+03:00,1745326597.963435,40.95226359885385,29.14032089484547,76.36396,-1,-1,-1,-1,30,21.30253868467173,-9999,36641.88578075,0.74853515625,-0.446441650390625,-0.4757843017578125,36641.87570475,0.4379358639507375,1.014861580730343,0.4671908908498262,0.05328333750367165,0.006962628103792667,0.00857007410377264,-0.009954214096069336,0.004594564437866211,-0.005363821983337402,XArbitraryZVertical,0.09479032308539732,0.5053939157865132,0.2944915862210011,0.8055225065705239,0.7583824396133423,-0.4503799974918365,-0.471183568239212,0,0,0,-1,-1,36637.88171716667,unknown,2,2025-04-22T15:56:34.717+03:00,2025-04-21T17:08:51.449+03:00,8324,1.051678,0,0,6918.726,7,22,2025-04-22T15:56:37.296+03:00,767019389.6593788,0,-14.73,100.3796,1,0.5,2025-04-22T15:55:58.312+03:00,109,1.816666666666667,2025-04-22T14:20:19.516+03:00,0.02197104130929222,0
2025-04-22T15:56:38.736+03:00,1745326597.963435,40.95226359885385,29.14032089484547,76.36396,-1,-1,-1,-1,30,21.30253868467173,-9999,36641.89585675,0.7520904541015625,-0.4541473388671875,-0.471405029296875,36641.88578075,0.4374604980473844,1.015170106509445,0.4675471297903179,0.05026690661907196,0.0102714728564024,0.00781220430508256,-0.01051241159439087,0.005583912134170532,-0.005224764347076416,XArbitraryZVertical,0.09501722127506715,0.505508918676766,0.2943891438977798,0.8054610848918956,0.7583914399147034,-0.4506980180740356,-0.4708649218082428,0,0,0,-1,-1,36637.88171716667,unknown,2,2025-04-22T15:56:34.717+03:00,2025-04-21T17:08:51.449+03:00,8324,1.051678,0,0,6918.726,7,22,2025-04-22T15:56:37.296+03:00,767019389.6593788,0,-14.73,100.3796,1,0.5,2025-04-22T15:55:58.312+03:00,109,1.816666666666667,2025-04-22T14:20:19.516+03:00,0.02197104130929222,0
2025-04-22T15:56:38.746+03:00,1745326597.963435,40.95226359885385,29.14032089484547,76.36396,-1,-1,-1,-1,30,21.30253868467173,-9999,36641.90593375,0.7566680908203125,-0.458648681640625,-0.46478271484375,36641.89585675,0.4370786966137861,1.015428244508489,0.4678620773507505,0.04047499597072601,0.008708995766937733,0.007569590117782354,-0.007736265659332275,0.0006771087646484375,-0.002352118492126465,XArbitraryZVertical,0.09521025869834011,0.5056064591611605,0.2943134665875224,0.8054046403998056,0.7583922743797302,-0.4509791433811188,-0.4705942273139954,0,0,0,-1,-1,36637.88171716667,unknown,2,2025-04-22T15:56:34.717+03:00,2025-04-21T17:08:51.449+03:00,8324,1.051678,0,0,6918.726,7,22,2025-04-22T15:56:37.296+03:00,767019389.6593788,0,-14.73,100.3796,1,0.5,2025-04-22T15:55:58.312+03:00,109,1.816666666666667,2025-04-22T14:20:19.516+03:00,0.02197104130929222,0
2025-04-22T15:56:38.756+03:00,1745326597.963435,40.95226359885385,29.14032089484547,76.36396,-1,-1,-1,-1,30,21.30253868467173,-9999,36641.91600975,0.7572174072265625,-0.4560546875,-0.465362548828125,36641.90593375,0.4368109047593374,1.015637833801083,0.4681172114367277,0.02522600255906582,0.007922031916677952,0.006766381673514843,-0.003708720207214355,-0.006556719541549683,0.003653883934020996,XArbitraryZVertical,0.09535609338067705,0.5056875685360851,0.2942689216772389,0.8053527186116051,0.7583930492401123,-0.4512068629264832,-0.470374584197998,0,0,0,-1,-1,36637.88171716667,unknown,2,2025-04-22T15:56:34.717+03:00,2025-04-21T17:08:51.449+03:00,8324,1.051678,0,0,6918.726,7,22,2025-04-22T15:56:37.296+03:00,767019389.6593788,0,-14.73,100.3796,1,0.5,2025-04-22T15:55:58.312+03:00,109,1.816666666666667,2025-04-22T14:20:19.516+03:00,0.02197104130929222,0
2025-04-22T15:56:38.766+03:00,1745326597.963435,40.95226359885385,29.14032089484547,76.36396,-1,-1,-1,-1,30,21.30253868467173,-9999,36641.92608575,0.75579833984375,-0.453125,-0.4683074951171875,36641.91600975,0.4365993854639043,1.015807536794197,0.4683041949963613,0.02336232177913189,0.009278113953769207,0.005024407990276814,-0.0001157522201538086,-0.005718499422073364,0.005662679672241211,XArbitraryZVertical,0.09546447244427061,0.5057527278882861,0.2942309152853989,0.8053128506272522,0.7584011554718018,-0.4513736963272095,-0.4702014327049255,0,0,0,-1,-1,36637.88171716667,unknown,2,2025-04-22T15:56:34.717+03:00,2025-04-21T17:08:51.449+03:00,8324,1.051678,0,0,6918.726,7,22,2025-04-22T15:56:37.296+03:00,767019389.6593788,0,-14.73,100.3796,1,0.5,2025-04-22T15:55:58.312+03:00,109,1.816666666666667,2025-04-22T14:20:19.516+03:00,0.02197104130929222,0
2025-04-22T15:56:38.776+03:00,1745326597.963435,40.95226359885385,29.14032089484547,76.36396,-1,-1,-1,-1,30,21.30253868467173,-9999,36641.93616275,0.7575531005859375,-0.4463348388671875,-0.468505859375,36641.92608575,0.4363624508509885,1.01595787608756,0.4684636998533012,0.03043507784605026,0.002297369297593832,0.003318619914352894,-0.002368271350860596,-0.002219200134277344,0.002718359231948853,XArbitraryZVertical,0.09557039281535477,0.5058078437807366,0.2941760399693175,0.8052856826199848,0.7584105730056763,-0.4515160322189331,-0.4700494408607483,0,0,0,-1,-1,36637.88171716667,unknown,2,2025-04-22T15:56:34.717+03:00,2025-04-21T17:08:51.449+03:00,8324,1.051678,0,0,6918.726,7,22,2025-04-22T15:56:37.296+03:00,767019389.6593788,0,-14.73,100.3796,1,0.5,2025-04-22T15:55:58.312+03:00,109,1.816666666666667,2025-04-22T14:20:19.516+03:00,0.02197104130929222,0
2025-04-22T15:56:38.786+03:00,1745326597.963435,40.95226359885385,29.14032089484547,76.36396,-1,-1,-1,-1,30,21.30253868467173,-9999,36641.94623875,0.7591705322265625,-0.435516357421875,-0.467010498046875,36641.93616275,0.4359724881447018,1.016141112115492,0.4687024371160937,0.0519731268286705,-0.0003274423070251942,0.003139655338600278,-0.001615047454833984,0.001274436712265015,0.00117984414100647,XArbitraryZVertical,0.09574402940618826,0.5058717628355043,0.2940777015808024,0.805260802511038,0.7584050297737122,-0.451729029417038,-0.4698536694049835,0,0,0,-1,-1,36637.88171716667,unknown,2,2025-04-22T15:56:34.717+03:00,2025-04-21T17:08:51.449+03:00,8324,1.051678,0,0,6918.726,7,22,2025-04-22T15:56:37.296+03:00,767019389.6593788,0,-14.73,100.3796,1,0.5,2025-04-22T15:55:58.312+03:00,109,1.816666666666667,2025-04-22T14:20:19.516+03:00,0.02197104130929222,0
2025-04-22T15:56:38.796+03:00,1745326597.963435,40.95226359885385,29.14032089484547,76.36396,-1,-1,-1,-1,30,21.30253868467173,-9999,36641.95631475,0.7579803466796875,-0.4309844970703125,-0.4691925048828125,36641.94623875,0.4353053693281181,1.016431204501675,0.4690838251147001,0.08914866298437119,-0.001059878151863813,0.0005462357657961547,0.0007755756378173828,0.01353174448013306,0.001448929309844971,XArbitraryZVertical,0.09603302113141174,0.5059705335334143,0.293902744736294,0.8052282642144328,0.7583948373794556,-0.4520692527294159,-0.4695429503917694,0,0,0,-1,-1,36637.88171716667,unknown,2,2025-04-22T15:56:34.717+03:00,2025-04-21T17:08:51.449+03:00,8324,1.051678,0,0,6918.726,7,22,2025-04-22T15:56:37.296+03:00,767019389.6593788,0,-14.73,100.3796,1,0.5,2025-04-22T15:55:58.312+03:00,109,1.816666666666667,2025-04-22T14:20:19.516+03:00,0.02197104130929222,0
2025-04-22T15:56:38.806+03:00,1745326597.963435,40.95226359885385,29.14032089484547,76.36396,-1,-1,-1,-1,30,21.30253868467173,-9999,36641.96639175,0.7577972412109375,-0.4287567138671875,-0.4729766845703125,36641.95631475,0.4343175461184499,1.016840354776267,0.4696467272090607,0.1230091527104378,-0.001044431701302528,0.004339110106229782,0.0008000731468200684,0.01993894577026367,0.001981258392333984,XArbitraryZVertical,0.0964632357967065,0.506108183103723,0.2936424808926096,0.8051853333106936,0.7583703398704529,-0.452571302652359,-0.4690987169742584,0,0,0,-1,-1,36637.88171716667,unknown,2,2025-04-22T15:56:34.717+03:00,2025-04-21T17:08:51.449+03:00,8324,1.051678,0,0,6918.726,7,22,2025-04-22T15:56:37.296+03:00,767019389.6593788,0,-14.73,100.3796,1,0.5,2025-04-22T15:55:58.312+03:00,109,1.816666666666667,2025-04-22T14:20:19.516+03:00,0.02197104130929222,0
2025-04-22T15:56:38.816+03:00,1745326597.963435,40.95226359885385,29.14032089484547,76.36396,-1,-1,-1,-1,30,21.30253868467173,-9999,36641.97646775,0.757232666015625,-0.44122314453125,-0.4717864990234375,36641.96639175,0.4330961738865217,1.017347646613382,0.470362141966374,0.1403023302555084,-0.001038372982293367,0.001870193053036928,-0.0008254051208496094,0.02448302507400513,-0.002907335758209229,XArbitraryZVertical,0.09700337980689629,0.5062791102365195,0.2933250877015746,0.8051286535350771,0.7583326101303101,-0.4532091319561005,-0.4685436189174652,0,0,0,-1,-1,36637.88171716667,unknown,2,2025-04-22T15:56:34.717+03:00,2025-04-21T17:08:51.449+03:00,8324,1.051678,0,0,6918.726,7,22,2025-04-22T15:56:37.296+03:00,767019389.6593788,0,-14.73,100.3796,1,0.5,2025-04-22T15:55:58.312+03:00,109,1.816666666666667,2025-04-22T14:20:19.516+03:00,0.02197104130929222,0
2025-04-22T15:56:38.826+03:00,1745326597.963435,40.95226359885385,29.14032089484547,76.36396,-1,-1,-1,-1,30,21.30253868467173,-9999,36641.98654375,0.75689697265625,-0.4515380859375,-0.463653564453125,36641.97646775,0.4317660924164002,1.017942692041147,0.4711253839562194,0.1404650509357452,0.00188631028868258,0.003125873394310474,4.500150680541992e-05,0.01847991347312927,-0.00541725754737854,XArbitraryZVertical,0.09757875905074498,0.5064811388883274,0.2929785275781709,0.8050581905331334,0.7583166360855103,-0.4538893401622772,-0.4679104685783386,0,0,0,-1,-1,36637.88171716667,unknown,2,2025-04-22T15:56:34.717+03:00,2025-04-21T17:08:51.449+03:00,8324,1.051678,0,0,6918.726,7,22,2025-04-22T15:56:37.296+03:00,767019389.6593788,0,-14.73,100.3796,1,0.5,2025-04-22T15:55:58.312+03:00,109,1.816666666666667,2025-04-22T14:20:19.516+03:00,0.02197104130929222,0
2025-04-22T15:56:38.836+03:00,1745326597.963435,40.95226359885385,29.14032089484547,76.36396,-1,-1,-1,-1,30,21.30253868467173,-9999,36641.99661975,0.7605438232421875,-0.4504241943359375,-0.461517333984375,36641.98654375,0.4305176661628142,1.018556350201347,0.4719035720051116,0.125822976231575,0.004209385719150305,0.006295035127550364,-0.002153515815734863,0.004372149705886841,0.0007982850074768066,XArbitraryZVertical,0.09813731036233789,0.5066944421770626,0.2926692088594027,0.8049685925665612,0.7583026885986328,-0.4545826315879822,-0.4672596156597137,0,0,0,-1,-1,36637.88171716667,unknown,2,2025-04-22T15:56:34.717+03:00,2025-04-21T17:08:51.449+03:00,8324,1.051678,0,0,6918.726,7,22,2025-04-22T15:56:37.296+03:00,767019389.6593788,0,-14.73,100.3796,1,0.5,2025-04-22T15:55:58.312+03:00,109,1.816666666666667,2025-04-22T14:20:19.516+03:00,0.02197104130929222,0
2025-04-22T15:56:38.846+03:00,1745326597.963435,40.95226359885385,29.14032089484547,76.36396,-1,-1,-1,-1,30,21.30253868467173,-9999,36642.00669675,0.7603302001953125,-0.45654296875,-0.47552490234375,36641.99661975,0.4293926573671084,1.019099759005336,0.4725697700623438,0.1072349175810814,-0.001568874809890985,-0.0001295746769756079,0.0001547932624816895,0.004324555397033691,0.00584256649017334,XArbitraryZVertical,0.09862724254459186,0.5068809803491112,0.2923829313461966,0.8048953571782129,0.7582984566688538,-0.455175906419754,-0.4666886627674103,0,0,0,-1,-1,36637.88171716667,unknown,2,2025-04-22T15:56:34.717+03:00,2025-04-21T17:08:51.449+03:00,8324,1.051678,0,0,6918.726,7,22,2025-04-22T15:56:37.296+03:00,767019389.6593788,0,-14.73,100.3796,1,0.5,2025-04-22T15:55:58.312+03:00,109,1.816666666666667,2025-04-22T14:20:19.516+03:00,0.02197104130929222,0
2025-04-22T15:56:38.856+03:00,1745326597.963435,40.95226359885385,29.14032089484547,76.36396,-1,-1,-1,-1,30,21.30253868467173,-9999,36642.01677275,0.757354736328125,-0.4628753662109375,-0.4962921142578125,36642.00669675,0.4283256246330663,1.019548950867295,0.4730556155825183,0.1086678355932236,-0.001676599495112896,-0.01808121055364609,0.003292262554168701,0.001934230327606201,-0.002777397632598877,XArbitraryZVertical,0.09903941611264304,0.5070257638631781,0.2920777213819938,0.8048643838973442,0.7583195567131042,-0.455608457326889,-0.4662321507930756,0,0,0,-1,-1,36637.88171716667,unknown,2,2025-04-22T15:56:34.717+03:00,2025-04-21T17:08:51.449+03:00,8324,1.051678,0,0,6918.726,7,22,2025-04-22T15:56:37.296+03:00,767019389.6593788,0,-14.73,100.3796,1,0.5,2025-04-22T15:55:58.312+03:00,109,1.816666666666667,2025-04-22T14:20:19.516+03:00,0.02197104130929222,0
2025-04-22T15:56:38.866+03:00,1745326597.963435,40.95226359885385,29.14032089484547,76.36396,-1,-1,-1,-1,30,21.30253868467173,-9999,36642.02684875,0.7623748779296875,-0.43890380859375,-0.5223541259765625,36642.01677275,0.4270811185014625,1.020083372559033,0.473415908253662,0.1283709555864334,-0.0007154648192226887,-0.03383327275514603,9.357929229736328e-06,-0.00590851902961731,-0.02261686325073242,XArbitraryZVertical,0.09943071086099702,0.5071913846686722,0.2916791285821924,0.8048563120107325,0.7584286332130432,-0.455929160118103,-0.4657408595085144,0,0,0,-1,-1,36637.88171716667,unknown,2,2025-04-22T15:56:34.717+03:00,2025-04-21T17:08:51.449+03:00,8324,1.051678,0,0,6918.726,7,22,2025-04-22T15:56:37.296+03:00,767019389.6593788,0,-14.73,100.3796,1,0.5,2025-04-22T15:55:58.312+03:00,109,1.816666666666667,2025-04-22T14:20:19.516+03:00,0.02197104130929222,0
2025-04-22T15:56:38.876+03:00,1745326597.963435,40.95226359885385,29.14032089484547,76.36396,-1,-1,-1,-1,30,21.30253868467173,-9999,36642.03692575,0.7680816650390625,-0.397369384765625,-0.5486907958984375,36642.02684875,0.4251765902090682,1.0208587317327,0.4738274685852601,0.20838463306427,-0.01462349016219378,-0.06142386049032211,0.00107496976852417,0.002865374088287354,-0.04689323902130127,XArbitraryZVertical,0.09997642902050184,0.5074223668123422,0.2910379474657893,0.8048751225152782,0.7586293816566467,-0.4562954008579254,-0.4650545120239258,0,0,0,-1,-1,36637.88171716667,unknown,2,2025-04-22T15:56:34.717+03:00,2025-04-21T17:08:51.449+03:00,8324,1.051678,0,0,6918.726,7,22,2025-04-22T15:56:37.296+03:00,767019389.6593788,0,-14.73,100.3796,1,0.5,2025-04-22T15:55:58.312+03:00,109,1.816666666666667,2025-04-22T14:20:19.516+03:00,0.02197104130929222,0
2025-04-22T15:56:38.886+03:00,1745326597.963435,40.95226359885385,29.14032089484547,76.36396,-1,-1,-1,-1,30,21.30253868467173,-9999,36642.04700175,0.7666778564453125,-0.374359130859375,-0.5626068115234375,36642.03692575,0.4220859127134223,1.022020225666402,0.4745587419262222,0.3496115207672119,-0.03267359733581543,-0.08943791687488556,0.00732046365737915,0.04608795046806335,-0.07637599110603333,XArbitraryZVertical,0.1009040624015382,0.5077587333460354,0.2900065241430228,0.8049195467776644,0.7588841915130615,-0.4569459855556488,-0.4639988839626312,0,0,0,-1,-1,36637.88171716667,unknown,2,2025-04-22T15:56:34.717+03:00,2025-04-21T17:08:51.449+03:00,8324,1.051678,0,0,6918.726,7,22,2025-04-22T15:56:37.296+03:00,767019389.6593788,0,-14.73,100.3796,1,0.5,2025-04-22T15:55:58.312+03:00,109,1.816666666666667,2025-04-22T14:20:19.516+03:00,0.02197104130929222,0
2025-04-22T15:56:38.897+03:00,1745326597.963435,40.95226359885385,29.14032089484547,76.36396,-1,-1,-1,-1,30,21.30253868467173,-9999,36642.05707775,0.7629547119140625,-0.326171875,-0.5924224853515625,36642.04700175,0.4170236047171118,1.023803205223409,0.4760967177404444,0.6005720496177673,-0.08020149916410446,-0.1082129627466202,0.009124934673309326,0.07496702671051025,-0.09576556086540222,XArbitraryZVertical,0.10258800968246,0.5082678418632088,0.2883846884205491,0.8049680909987303,0.7591091394424438,-0.4583134651184082,-0.4622789919376373,0,0,0,-1,-1,36637.88171716667,unknown,2,2025-04-22T15:56:34.717+03:00,2025-04-21T17:08:51.449+03:00,8324,1.051678,0,0,6918.726,7,22,2025-04-22T15:56:37.296+03:00,767019389.6593788,0,-14.73,100.3796,1,0.5,2025-04-22T15:55:58.312+03:00,109,1.816666666666667,2025-04-22T14:20:19.516+03:00,0.02197104130929222,0
2025-04-22T15:56:38.907+03:00,1745326597.963435,40.95226359885385,29.14032089484547,76.36396,-1,-1,-1,-1,30,21.30253868467173,-9999,36642.06715475,0.769866943359375,-0.254180908203125,-0.6546630859375,36642.05707775,0.4088706284867568,1.026493790268987,0.4791448431622352,0.9333236217498779,-0.1216527968645096,-0.1077288016676903,0.004413306713104248,0.1124793589115143,-0.1169067919254303,XArbitraryZVertical,0.1055745537182651,0.5090180037422457,0.2858895748457583,0.8049979832680798,0.7591515779495239,-0.4610204994678497,-0.4595093727111816,0,0,0,-1,-1,36637.88171716667,unknown,2,2025-04-22T15:56:34.717+03:00,2025-04-21T17:08:51.449+03:00,8324,1.051678,0,0,6918.726,7,22,2025-04-22T15:56:37.296+03:00,767019389.6593788,0,-14.73,100.3796,1,0.5,2025-04-22T15:55:58.312+03:00,109,1.816666666666667,2025-04-22T14:20:19.516+03:00,0.02197104130929222,0
2025-04-22T15:56:38.917+03:00,1745326597.963435,40.95226359885385,29.14032089484547,76.36396,-1,-1,-1,-1,30,21.30253868467173,-9999,36642.07723075,0.7549896240234375,-0.2266998291015625,-0.7097930908203125,36642.06715475,0.3974069644996783,1.030542605954515,0.4840575576858213,1.308944821357727,-0.1300751119852066,-0.1136585026979446,0.008630454540252686,0.182064563035965,-0.1751402616500854,XArbitraryZVertical,0.1100126638053571,0.510163181446693,0.282541602709188,0.8048607562044459,0.7590543627738953,-0.4653744101524353,-0.4552614986896515,0,0,0,-1,-1,36637.88171716667,unknown,2,2025-04-22T15:56:34.717+03:00,2025-04-21T17:08:51.449+03:00,8324,1.051678,0,0,6918.726,7,22,2025-04-22T15:56:37.296+03:00,767019389.6593788,0,-14.73,100.3796,1,0.5,2025-04-22T15:55:58.312+03:00,109,1.816666666666667,2025-04-22T14:20:19.516+03:00,0.02197104130929222,0
2025-04-22T15:56:38.927+03:00,1745326597.963435,40.95226359885385,29.14032089484547,76.36396,-1,-1,-1,-1,30,21.30253868467173,-9999,36642.08730675,0.7563629150390625,-0.2728118896484375,-0.754852294921875,36642.07723075,0.3824762252233512,1.036057237103425,0.4906207295273745,1.566266655921936,-0.1728044599294662,-0.09104213863611221,0.003831863403320312,0.2481511533260345,-0.2404390871524811,XArbitraryZVertical,0.1158461093483241,0.5116917597625101,0.2782554203357919,0.8045651130861803,0.7589090466499329,-0.471173495054245,-0.4495024383068085,0,0,0,-1,-1,36637.88171716667,unknown,2,2025-04-22T15:56:34.717+03:00,2025-04-21T17:08:51.449+03:00,8324,1.051678,0,0,6918.726,7,22,2025-04-22T15:56:37.296+03:00,767019389.6593788,0,-14.73,100.3796,1,0.5,2025-04-22T15:55:58.312+03:00,109,1.816666666666667,2025-04-22T14:20:19.516+03:00,0.02197104130929222,0
2025-04-22T15:56:38.937+03:00,1745326597.963435,40.95226359885385,29.14032089484547,76.36396,-1,-1,-1,-1,30,21.30253868467173,-9999,36642.09738375,0.785614013671875,-0.27630615234375,-0.7776641845703125,36642.08730675,0.3657032959043509,1.041873916281034,0.4984211239313152,1.721058011054993,-0.2446236610412598,-0.06909362971782684,-0.009581208229064941,0.2188994288444519,-0.2983496189117432,XArbitraryZVertical,0.1226548261431766,0.5131759696791791,0.2735466281113117,0.8042253266478703,0.7583146095275879,-0.4780393540859222,-0.4432124495506287,0,0,0,-1,-1,36637.88171716667,unknown,2,2025-04-22T15:56:34.717+03:00,2025-04-21T17:08:51.449+03:00,8324,1.051678,0,0,6918.726,7,22,2025-04-22T15:56:37.296+03:00,767019389.6593788,0,-14.73,100.3796,1,0.5,2025-04-22T15:55:58.312+03:00,109,1.816666666666667,2025-04-22T14:20:19.516+03:00,0.02197104130929222,0
2025-04-22T15:56:38.947+03:00,1745326597.963435,40.95226359885385,29.14032089484547,76.36396,-1,-1,-1,-1,30,21.30253868467173,-9999,36642.10745975,0.7928619384765625,-0.335357666015625,-0.7819671630859375,36642.09738375,0.3476162116558543,1.048034464938261,0.5072355166490798,1.843871235847473,-0.2763054370880127,0.01822130382061005,0.01811659336090088,0.2108299136161804,-0.3342641592025757,XArbitraryZVertical,0.130204951655547,0.5146269033543783,0.2685928521013712,0.8037808038004052,0.7573502063751221,-0.4857626855373383,-0.4364116489887238,0,0,0,-1,-1,36637.88171716667,unknown,2,2025-04-22T15:56:34.717+03:00,2025-04-21T17:08:51.449+03:00,8324,1.051678,0,0,6918.726,7,22,2025-04-22T15:56:37.296+03:00,767019389.6593788,0,-14.73,100.3796,1,0.5,2025-04-22T15:55:58.312+03:00,109,1.816666666666667,2025-04-22T14:20:19.516+03:00,0.02197104130929222,0
2025-04-22T15:56:38.957+03:00,1745326597.963435,40.95226359885385,29.14032089484547,76.36396,-1,-1,-1,-1,30,21.30253868467173,-9999,36642.11753575,0.7571868896484375,-0.4286651611328125,-0.7512969970703125,36642.10745975,0.3302103045368018,1.053550402793503,0.5171626590659042,1.678654789924622,-0.3454142510890961,0.2581403851509094,0.03873324394226074,0.1886145770549774,-0.3531526625156403,XArbitraryZVertical,0.1381549485806802,0.5157541684160025,0.2641605438244227,0.8031997451496974,0.7555170655250549,-0.4944158494472504,-0.4298216998577118,0,0,0,-1,-1,36637.88171716667,unknown,2,2025-04-22T15:56:34.717+03:00,2025-04-21T17:08:51.449+03:00,8324,1.051678,0,0,6918.726,7,22,2025-04-22T15:56:37.296+03:00,767019389.6593788,0,-14.73,100.3796,1,0.5,2025-04-22T15:55:58.312+03:00,109,1.816666666666667,2025-04-22T14:20:19.516+03:00,0.02197104130929222,0
2025-04-22T15:56:38.967+03:00,1745326597.963435,40.95226359885385,29.14032089484547,76.36396,-1,-1,-1,-1,30,21.30253868467173,-9999,36642.12761175,0.699981689453125,-0.4852752685546875,-0.724273681640625,36642.11753575,0.3174954001261721,1.057282285176318,0.528661955115022,1.470566868782043,-0.1375742554664612,0.4296762049198151,0.0228952169418335,0.1102287173271179,-0.3428508043289185,XArbitraryZVertical,0.1458016425752822,0.5163843597009764,0.2618756087411494,0.8021908162475475,0.7521138191223145,-0.5043784379959106,-0.4241781532764435,0,0,0,-1,-1,36637.88171716667,unknown,2,2025-04-22T15:56:34.717+03:00,2025-04-21T17:08:51.449+03:00,8324,1.051678,0,0,6918.726,7,22,2025-04-22T15:56:37.296+03:00,767019389.6593788,0,-14.73,100.3796,1,0.5,2025-04-22T15:55:58.312+03:00,109,1.816666666666667,2025-04-22T14:20:19.516+03:00,0.02197104130929222,0
2025-04-22T15:56:38.977+03:00,1745326597.963435,40.95226359885385,29.14032089484547,76.36396,-1,-1,-1,-1,30,21.30253868467173,-9999,36642.13768875,0.6825103759765625,-0.428466796875,-0.756256103515625,36642.12761175,0.3050612276829813,1.062468715899764,0.5388112401557673,1.376028537750244,-0.07470133900642395,0.3701801002025604,-0.02611458301544189,0.03904080390930176,-0.3057829141616821,XArbitraryZVertical,0.1526169496048921,0.5175217903300126,0.2595445376503533,0.800946788747131,0.7497930526733398,-0.5131160020828247,-0.4177585244178772,0,0,0,-1,-1,36637.88171716667,unknown,2,2025-04-22T15:56:34.717+03:00,2025-04-21T17:08:51.449+03:00,8324,1.051678,0,0,6918.726,7,22,2025-04-22T15:56:37.296+03:00,767019389.6593788,0,-14.73,100.3796,1,0.5,2025-04-22T15:55:58.312+03:00,109,1.816666666666667,2025-04-22T14:20:19.516+03:00,0.02197104130929222,0
2025-04-22T15:56:38.987+03:00,1745326597.963435,40.95226359885385,29.14032089484547,76.36396,-1,-1,-1,-1,30,21.30253868467173,-9999,36642.14776475,0.6789093017578125,-0.45355224609375,-0.772705078125,36642.13768875,0.2933433636238077,1.068350766352704,0.5487429842453952,1.314123630523682,0.01686399430036545,0.3358732461929321,-0.0724107027053833,0.06339389085769653,-0.3356088697910309,XArbitraryZVertical,0.1590683382750295,0.5189065495519358,0.2575455796239896,0.7994394299940104,0.747734010219574,-0.521615207195282,-0.4108664989471436,0,0,0,-1,-1,36637.88171716667,unknown,2,2025-04-22T15:56:34.717+03:00,2025-04-21T17:08:51.449+03:00,8324,1.051678,0,0,6918.726,7,22,2025-04-22T15:56:37.296+03:00,767019389.6593788,0,-14.73,100.3796,1,0.5,2025-04-22T15:55:58.312+03:00,109,1.816666666666667,2025-04-22T14:20:19.516+03:00,0.02197104130929222,0
2025-04-22T15:56:38.998+03:00,1745326597.963435,40.95226359885385,29.14032089484547,76.36396,-1,-1,-1,-1,30,21.30253868467173,-9999,36642.15784075001,0.5834503173828125,-0.499603271484375,-0.8177642822265625,36642.14776475,0.2817017562246701,1.0753404024382,0.5575285385758051,1.238865375518799,0.1224109306931496,0.2534630596637726,-0.05069583654403687,0.1047895550727844,-0.3598700761795044,XArbitraryZVertical,0.1648811807324457,0.5206691107202612,0.2554509238607906,0.7977860407353282,0.7465270161628723,-0.5290906429290771,-0.4034357368946075,0,0,0,-1,-1,36637.88171716667,unknown,2,2025-04-22T15:56:34.717+03:00,2025-04-21T17:08:51.449+03:00,8324,1.051678,0,0,6918.726,7,22,2025-04-22T15:56:37.296+03:00,767019389.6593788,0,-14.73,100.3796,1,0.5,2025-04-22T15:55:58.312+03:00,109,1.816666666666667,2025-04-22T14:20:19.516+03:00,0.02197104130929222,0
2025-04-22T15:56:39.008+03:00,1745326597.963435,40.95226359885385,29.14032089484547,76.36396,-1,-1,-1,-1,30,21.30253868467173,-9999,36642.16791775,0.5541839599609375,-0.4618377685546875,-0.8565521240234375,36642.15784075001,0.2698940772799715,1.084271835172236,0.5654603268572387,1.289564490318298,0.5103845000267029,0.2536257803440094,-0.1294087171554565,0.03832238912582397,-0.405851274728775,XArbitraryZVertical,0.17014165965109,0.5231281278524873,0.2533056704913199,0.7957542681910735,0.7463672161102295,-0.5358045697212219,-0.3947775661945343,0,0,0,-1,-1,36637.88171716667,unknown,2,2025-04-22T15:56:34.717+03:00,2025-04-21T17:08:51.449+03:00,8324,1.051678,0,0,6918.726,7,22,2025-04-22T15:56:37.296+03:00,767019389.6593788,0,-14.73,100.3796,1,0.5,2025-04-22T15:55:58.312+03:00,109,1.816666666666667,2025-04-22T14:20:19.516+03:00,0.02197104130929222,0
2025-04-22T15:56:39.019+03:00,1745326597.963435,40.95226359885385,29.14032089484547,76.36396,-1,-1,-1,-1,30,21.30253868467173,-9999,36642.17799375,0.6456451416015625,-0.3778839111328125,-0.861114501953125,36642.16791775,0.257683171420108,1.097588951142957,0.5748285715873352,1.414691209793091,0.8001065254211426,0.4327447712421417,-0.1946129202842712,0.06354272365570068,-0.4594048857688904,XArbitraryZVertical,0.1755657979556007,0.5271880208887987,0.2517722432867201,0.792376143937897,0.7470572590827942,-0.5436909198760986,-0.3824988901615143,0,0,0,-1,-1,36637.88171716667,unknown,2,2025-04-22T15:56:34.717+03:00,2025-04-21T17:08:51.449+03:00,8324,1.051678,0,0,6918.726,7,22,2025-04-22T15:56:37.296+03:00,767019389.6593788,0,-14.73,100.3796,1,0.5,2025-04-22T15:55:58.312+03:00,109,1.816666666666667,2025-04-22T14:20:19.516+03:00,0.02197104130929222,0
2025-04-22T15:56:39.028+03:00,1745326597.963435,40.95226359885385,29.14032089484547,76.36396,-1,-1,-1,-1,30,21.30253868467173,-9999,36642.18806975,0.7095489501953125,-0.3663787841796875,-0.8371429443359375,36642.17799375,0.2439366603738836,1.114122026347815,0.5857263846117415,1.58112359046936,0.9820635318756104,0.4712748527526855,-0.1474373340606689,0.1401004791259766,-0.4997110068798065,XArbitraryZVertical,0.181641943533575,0.5322363341098892,0.2503718244247987,0.7880637661796449,0.7479162812232971,-0.5528048276901245,-0.3674613833427429,0,0,0,-1,-1,36637.88171716667,unknown,2,2025-04-22T15:56:34.717+03:00,2025-04-21T17:08:51.449+03:00,8324,1.051678,0,0,6918.726,7,22,2025-04-22T15:56:37.296+03:00,767019389.6593788,0,-14.73,100.3796,1,0.5,2025-04-22T15:55:58.312+03:00,109,1.816666666666667,2025-04-22T14:20:19.516+03:00,0.02197104130929222,0
2025-04-22T15:56:39.045+03:00,1745326597.963435,40.95226359885385,29.14032089484547,76.36396,-1,-1,-1,-1,30,21.30253868467173,-9999,36642.19814675,0.6682891845703125,-0.4520721435546875,-0.8110809326171875,36642.18806975,0.2286820605542582,1.133606715920797,0.5972205205116534,1.658947587013245,1.203470230102539,0.4977964460849762,-0.04719293117523193,0.2098531723022461,-0.4937203228473663,XArbitraryZVertical,0.1880169817752008,0.5381417709897756,0.2489226756906604,0.7830008492097561,0.7491275668144226,-0.5623462796211243,-0.3501060903072357,0,0,0,-1,-1,36637.88171716667,unknown,2,2025-04-22T15:56:34.717+03:00,2025-04-21T17:08:51.449+03:00,8324,1.051678,0,0,6918.726,7,22,2025-04-22T15:56:37.296+03:00,767019389.6593788,0,-14.73,100.3796,1,0.5,2025-04-22T15:55:58.312+03:00,109,1.816666666666667,2025-04-22T14:20:19.516+03:00,0.02197104130929222,0
2025-04-22T15:56:39.050+03:00,1745326597.963435,40.95226359885385,29.14032089484547,76.36396,-1,-1,-1,-1,30,21.30253868467173,-9999,36642.20822275,0.6402130126953125,-0.5054168701171875,-0.7476348876953125,36642.19814675,0.2123402034397866,1.156084311444268,0.6088517038843435,1.754331350326538,1.417090892791748,0.4968944489955902,-0.06291908025741577,0.1528891324996948,-0.4942761957645416,XArbitraryZVertical,0.1943949095966285,0.5449305773100831,0.2475274930678291,0.7771687160357699,0.7507698535919189,-0.5719258785247803,-0.3305225670337677,0,0,0,-1,-1,36637.88171716667,unknown,2,2025-04-22T15:56:34.717+03:00,2025-04-21T17:08:51.449+03:00,8324,1.051678,0,0,6918.726,7,22,2025-04-22T15:56:37.296+03:00,767019389.6593788,0,-14.73,100.3796,1,0.5,2025-04-22T15:55:58.312+03:00,109,1.816666666666667,2025-04-22T14:20:19.516+03:00,0.02197104130929222,0
2025-04-22T15:56:39.058+03:00,1745326597.963435,40.95226359885385,29.14032089484547,76.36396,-1,-1,-1,-1,30,21.30253868467173,-9999,36642.21829875001,0.6387176513671875,-0.5284576416015625,-0.66162109375,36642.20822275,0.1941591964122907,1.181805533202932,0.6206544731041029,1.859041333198547,1.603812217712402,0.513582706451416,-0.1079634428024292,0.09092140197753906,-0.4655250310897827,XArbitraryZVertical,0.2009771990323373,0.5525817995889493,0.2459712766885172,0.7705580475599551,0.7527234554290771,-0.5815677046775818,-0.308523029088974,0,0,0,-1,-1,36637.88171716667,unknown,2,2025-04-22T15:56:34.717+03:00,2025-04-21T17:08:51.449+03:00,8324,1.051678,0,0,6918.726,7,22,2025-04-22T15:56:37.296+03:00,767019389.6593788,0,-14.73,100.3796,1,0.5,2025-04-22T15:55:58.312+03:00,109,1.816666666666667,2025-04-22T14:20:19.516+03:00,0.02197104130929222,0
2025-04-22T15:56:39.068+03:00,1745326597.963435,40.95226359885385,29.14032089484547,76.36396,-1,-1,-1,-1,30,21.30253868467173,-9999,36642.22837575,0.6357879638671875,-0.55499267578125,-0.5519866943359375,36642.21829875001,0.1749924636668544,1.210039598190493,0.6325917464346257,1.860452651977539,1.767960906028748,0.5645047426223755,-0.1152556538581848,0.06944751739501953,-0.4129677414894104,XArbitraryZVertical,0.2076187839951325,0.5608517539932206,0.2445485323140742,0.7632402681919161,0.7545835375785828,-0.5912370085716248,-0.284679502248764,0,0,0,-1,-1,36637.88171716667,unknown,2,2025-04-22T15:56:34.717+03:00,2025-04-21T17:08:51.449+03:00,8324,1.051678,0,0,6918.726,7,22,2025-04-22T15:56:37.296+03:00,767019389.6593788,0,-14.73,100.3796,1,0.5,2025-04-22T15:55:58.312+03:00,109,1.816666666666667,2025-04-22T14:20:19.516+03:00,0.02197104130929222,0
2025-04-22T15:56:39.084+03:00,1745326597.963435,40.95226359885385,29.14032089484547,76.36396,-1,-1,-1,-1,30,21.30253868467173,-9999,36642.23845112501,0.6305999755859375,-0.6041259765625,-0.459320068359375,36642.22837575,0.1559922524924642,1.239995376155315,0.6443304622571754,1.775488138198853,1.929253697395325,0.6000737547874451,-0.118566632270813,0.05923575162887573,-0.3337204456329346,XArbitraryZVertical,0.2139648832753576,0.5695433595050178,0.2435607089419399,0.7553260669941616,0.7561550140380859,-0.6006633043289185,-0.2596787810325623,0,0,0,-1,-1,36637.88171716667,unknown,2,2025-04-22T15:56:34.717+03:00,2025-04-21T17:08:51.449+03:00,8324,1.051678,0,0,6918.726,7,22,2025-04-22T15:56:37.296+03:00,767019389.6593788,0,-14.73,100.3796,1,0.5,2025-04-22T15:55:58.312+03:00,109,1.816666666666667,2025-04-22T14:20:19.516+03:00,0.02197104130929222,0
2025-04-22T15:56:39.088+03:00,1745326597.963435,40.95226359885385,29.14032089484547,76.36396,-1,-1,-1,-1,30,21.30253868467173,-9999,36642.248527125,0.6434478759765625,-0.6332550048828125,-0.3785858154296875,36642.23845112501,0.1376126305282315,1.271310138565704,0.6555661256005846,1.67571496963501,2.076033353805542,0.6183270812034607,-0.1263148188591003,0.0245557427406311,-0.2570353746414185,XArbitraryZVertical,0.2198054094179578,0.5785760977745525,0.2430660614950373,0.7468962765061133,0.7574182152748108,-0.6096081137657166,-0.2338705658912659,0,0,0,-1,-1,36637.88171716667,unknown,2,2025-04-22T15:56:34.717+03:00,2025-04-21T17:08:51.449+03:00,8324,1.051678,0,0,6918.726,7,22,2025-04-22T15:56:37.296+03:00,767019389.6593788,0,-14.73,100.3796,1,0.5,2025-04-22T15:55:58.312+03:00,109,1.816666666666667,2025-04-22T14:20:19.516+03:00,0.02197104130929222,0
2025-04-22T15:56:39.098+03:00,1745326597.963435,40.95226359885385,29.14032089484547,76.36396,-1,-1,-1,-1,30,21.30253868467173,-9999,36642.258604125,0.6747589111328125,-0.6318511962890625,-0.2745208740234375,36642.248527125,0.1202114124463061,1.303385989665175,0.6662397503115258,1.525154829025269,2.164265155792236,0.6569061875343323,-0.1226968169212341,-0.00859832763671875,-0.2019397914409637,XArbitraryZVertical,0.2250776779949036,0.5877719428298318,0.2431073550718184,0.7380804634870785,0.7582098841667175,-0.6180342435836792,-0.2077283710241318,0,0,0,-1,-1,36637.88171716667,unknown,2,2025-04-22T15:56:34.717+03:00,2025-04-21T17:08:51.449+03:00,8324,1.051678,0,0,6918.726,7,22,2025-04-22T15:56:37.296+03:00,767019389.6593788,0,-14.73,100.3796,1,0.5,2025-04-22T15:55:58.312+03:00,109,1.816666666666667,2025-04-22T14:20:19.516+03:00,0.02197104130929222,0
2025-04-22T15:56:39.108+03:00,1745326597.963435,40.95226359885385,29.14032089484547,76.36396,-1,-1,-1,-1,30,21.30253868467173,-9999,36642.268680125,0.7037200927734375,-0.6236572265625,-0.159576416015625,36642.258604125,0.104324491180759,1.335288217720509,0.6765192344606438,1.37639594078064,2.200609922409058,0.7053222060203552,-0.0970536470413208,-0.007980942726135254,-0.1346891969442368,XArbitraryZVertical,0.2297865484797552,0.596845938349261,0.2438022385170257,0.729063390783761,0.7582321166992188,-0.6260826587677002,-0.1819461286067963,0,0,0,-1,-1,36637.88171716667,unknown,2,2025-04-22T15:56:34.717+03:00,2025-04-21T17:08:51.449+03:00,8324,1.051678,0,0,6918.726,7,22,2025-04-22T15:56:37.296+03:00,767019389.6593788,0,-14.73,100.3796,1,0.5,2025-04-22T15:55:58.312+03:00,109,1.816666666666667,2025-04-22T14:20:19.516+03:00,0.02197104130929222,0
2025-04-22T15:56:39.119+03:00,1745326597.963435,40.95226359885385,29.14032089484547,76.36396,-1,-1,-1,-1,30,21.30253868467173,-9999,36642.278756125,0.7050323486328125,-0.6124114990234375,-0.0495758056640625,36642.268680125,0.08986822199996468,1.366661653288594,0.6865749260185747,1.242116689682007,2.221291303634644,0.7561064958572388,-0.06197422742843628,0.007411837577819824,-0.04484188556671143,XArbitraryZVertical,0.2340429551721894,0.6056648587940907,0.2450991679602283,0.7199447061460761,0.757362961769104,-0.6338918805122375,-0.1567879468202591,0,0,0,-1,-1,36637.88171716667,unknown,2,2025-04-22T15:56:34.717+03:00,2025-04-21T17:08:51.449+03:00,8324,1.051678,0,0,6918.726,7,22,2025-04-22T15:56:37.296+03:00,767019389.6593788,0,-14.73,100.3796,1,0.5,2025-04-22T15:55:58.312+03:00,109,1.816666666666667,2025-04-22T14:20:19.516+03:00,0.02197104130929222,0
2025-04-22T15:56:39.129+03:00,1745326597.963435,40.95226359885385,29.14032089484547,76.36396,-1,-1,-1,-1,30,21.30253868467173,-9999,36642.288833125,0.6935272216796875,-0.5995941162109375,0.064727783203125,36642.278756125,0.07605917625301589,1.397915509558176,0.6966028689452984,1.208705186843872,2.231150388717651,0.8067677617073059,-0.04793554544448853,0.02441304922103882,0.03903359174728394,XArbitraryZVertical,0.2380878798066557,0.6142816007607093,0.246799155398235,0.7106773884951699,0.7555922865867615,-0.6416156888008118,-0.131944552063942,0,0,0,-1,-1,36637.88171716667,unknown,2,2025-04-22T15:56:34.717+03:00,2025-04-21T17:08:51.449+03:00,8324,1.051678,0,0,6918.726,7,22,2025-04-22T15:56:37.296+03:00,767019389.6593788,0,-14.73,100.3796,1,0.5,2025-04-22T15:55:58.312+03:00,109,1.816666666666667,2025-04-22T14:20:19.516+03:00,0.02197104130929222,0
2025-04-22T15:56:39.139+03:00,1745326597.963435,40.95226359885385,29.14032089484547,76.36396,-1,-1,-1,-1,30,21.30253868467173,-9999,36642.29890912501,0.6887359619140625,-0.56927490234375,0.1516265869140625,36642.288833125,0.06199467002494472,1.429413660429229,0.7068611592808487,1.226163148880005,2.214985132217407,0.8719139099121094,-0.05524605512619019,0.04373729228973389,0.1309231370687485,XArbitraryZVertical,0.2422357898096989,0.6226931373275056,0.2486968882462037,0.7012310110213865,0.752816915512085,-0.6494501829147339,-0.1071501597762108,0,0,0,-1,-1,36637.88171716667,unknown,2,2025-04-22T15:56:34.717+03:00,2025-04-21T17:08:51.449+03:00,8324,1.051678,0,0,6918.726,7,22,2025-04-22T15:56:37.296+03:00,767019389.6593788,0,-14.73,100.3796,1,0.5,2025-04-22T15:55:58.312+03:00,109,1.816666666666667,2025-04-22T14:20:19.516+03:00,0.02197104130929222,0
2025-04-22T15:56:39.149+03:00,1745326597.963435,40.95226359885385,29.14032089484547,76.36396,-1,-1,-1,-1,30,21.30253868467173,-9999,36642.308985125,0.6622161865234375,-0.5395660400390625,0.21405029296875,36642.29890912501,0.04670012853875219,1.461686154296731,0.7174984935996382,1.320607900619507,2.208605766296387,0.9320573806762695,-0.05787122249603271,0.07423484325408936,0.2037501931190491,XArbitraryZVertical,0.2467719707883822,0.6309361523211773,0.2505751896236357,0.6915454598076408,0.7489721775054932,-0.6575019359588623,-0.08204632997512817,0,0,0,-1,-1,36637.88171716667,unknown,2,2025-04-22T15:56:34.717+03:00,2025-04-21T17:08:51.449+03:00,8324,1.051678,0,0,6918.726,7,22,2025-04-22T15:56:37.296+03:00,767019389.6593788,0,-14.73,100.3796,1,0.5,2025-04-22T15:55:58.312+03:00,109,1.816666666666667,2025-04-22T14:20:19.516+03:00,0.02197104130929222,0
2025-04-22T15:56:39.159+03:00,1745326597.963435,40.95226359885385,29.14032089484547,76.36396,-1,-1,-1,-1,30,21.30253868467173,-9999,36642.319062125,0.60955810546875,-0.5443267822265625,0.273284912109375,36642.308985125,0.02951505113659402,1.495311363448718,0.7282165476164213,1.429981708526611,2.207543849945068,0.9448871612548828,-0.06770819425582886,0.1179017424583435,0.2497058510780334,XArbitraryZVertical,0.2517303417008823,0.6391314491128266,0.2522164024676881,0.6815640899118687,0.7442370653152466,-0.665539562702179,-0.05628565326333046,0,0,0,-1,-1,36637.88171716667,unknown,2,2025-04-22T15:56:34.717+03:00,2025-04-21T17:08:51.449+03:00,8324,1.051678,0,0,6918.726,7,22,2025-04-22T15:56:37.296+03:00,767019389.6593788,0,-14.73,100.3796,1,0.5,2025-04-22T15:55:58.312+03:00,109,1.816666666666667,2025-04-22T14:20:19.516+03:00,0.02197104130929222,0
2025-04-22T15:56:39.169+03:00,1745326597.963435,40.95226359885385,29.14032089484547,76.36396,-1,-1,-1,-1,30,21.30253868467173,-9999,36642.329138125,0.573760986328125,-0.5796966552734375,0.3732147216796875,36642.319062125,0.01004095909592111,1.530483999048479,0.7384723126814738,1.559211611747742,2.183492422103882,0.9110527634620667,-0.1099449396133423,0.1351189613342285,0.2779104709625244,XArbitraryZVertical,0.2570420678907432,0.6473237030789981,0.253375486660076,0.6713435322517661,0.7388968467712402,-0.6731590032577515,-0.02980279736220837,0,0,0,-1,-1,36637.88171716667,unknown,2,2025-04-22T15:56:34.717+03:00,2025-04-21T17:08:51.449+03:00,8324,1.051678,0,0,6918.726,7,22,2025-04-22T15:56:37.296+03:00,767019389.6593788,0,-14.73,100.3796,1,0.5,2025-04-22T15:55:58.312+03:00,109,1.816666666666667,2025-04-22T14:20:19.516+03:00,0.02197104130929222,0
2025-04-22T15:56:39.179+03:00,1745326597.963435,40.95226359885385,29.14032089484547,76.36396,-1,-1,-1,-1,30,21.30253868467173,-9999,36642.339214125,0.5651092529296875,-0.6406707763671875,0.5149078369140625,36642.329138125,-0.01167132328760558,1.566849416035234,0.7477089523882003,1.644661545753479,2.113099575042725,0.8519889116287231,-0.1499298214912415,0.1178269386291504,0.33254474401474,XArbitraryZVertical,0.2625784163482615,0.6554430149745011,0.2538764608991841,0.6610549667996233,0.7332427501678467,-0.6799606680870056,-0.00289405882358551,0,0,0,-1,-1,36637.88171716667,unknown,2,2025-04-22T15:56:34.717+03:00,2025-04-21T17:08:51.449+03:00,8324,1.051678,0,0,6918.726,7,22,2025-04-22T15:56:37.296+03:00,767019389.6593788,0,-14.73,100.3796,1,0.5,2025-04-22T15:55:58.312+03:00,109,1.816666666666667,2025-04-22T14:20:19.516+03:00,0.02197104130929222,0
2025-04-22T15:56:39.189+03:00,1745326597.963435,40.95226359885385,29.14032089484547,76.36396,-1,-1,-1,-1,30,21.30253868467173,-9999,36642.349291125,0.5711822509765625,-0.7050628662109375,0.6572723388671875,36642.339214125,-0.03489658967397365,1.603401666371503,0.7556640700788716,1.69101095199585,1.986554145812988,0.7709475755691528,-0.1621523499488831,0.06930190324783325,0.4357306957244873,XArbitraryZVertical,0.268182365272025,0.66328083314474,0.2537550777245597,0.6509570116043395,0.7274293303489685,-0.6857721209526062,0.02372648939490318,0,0,0,-1,-1,36637.88171716667,unknown,2,2025-04-22T15:56:34.717+03:00,2025-04-21T17:08:51.449+03:00,8324,1.051678,0,0,6918.726,7,22,2025-04-22T15:56:37.296+03:00,767019389.6593788,0,-14.73,100.3796,1,0.5,2025-04-22T15:55:58.312+03:00,109,1.816666666666667,2025-04-22T14:20:19.516+03:00,0.02197104130929222,0
2025-04-22T15:56:39.199+03:00,1745326597.963435,40.95226359885385,29.14032089484547,76.36396,-1,-1,-1,-1,30,21.30253868467173,-9999,36642.35936712501,0.556671142578125,-0.7576904296875,0.788665771484375,36642.349291125,-0.05881963695804709,1.639065520275611,0.7620630228291553,1.680800914764404,1.824374556541443,0.6662552356719971,-0.1520717740058899,0.009812295436859131,0.5558911561965942,XArbitraryZVertical,0.2736695746245876,0.6706558041479992,0.2530293992504481,0.6413282537308679,0.7217281460762024,-0.6904153227806091,0.04934848845005035,0,0,0,-1,-1,36637.88171716667,unknown,2,2025-04-22T15:56:34.717+03:00,2025-04-21T17:08:51.449+03:00,8324,1.051678,0,0,6918.726,7,22,2025-04-22T15:56:37.296+03:00,767019389.6593788,0,-14.73,100.3796,1,0.5,2025-04-22T15:55:58.312+03:00,109,1.816666666666667,2025-04-22T14:20:19.516+03:00,0.02197104130929222,0
2025-04-22T15:56:39.209+03:00,1745326597.963435,40.95226359885385,29.14032089484547,76.36396,-1,-1,-1,-1,30,21.30253868467173,-9999,36642.369443125,0.53302001953125,-0.7930908203125,0.9283294677734375,36642.35936712501,-0.08278121572053358,1.673286750970397,0.7666208167783287,1.678106665611267,1.668540000915527,0.5226190090179443,-0.1514310240745544,-0.04594916105270386,0.6673829555511475,XArbitraryZVertical,0.2788352909561148,0.6775663132973736,0.2517035284138236,0.6322973900198703,0.7164791822433472,-0.6937053203582764,0.07369045913219452,0,0,0,-1,-1,36637.88171716667,unknown,2,2025-04-22T15:56:34.717+03:00,2025-04-21T17:08:51.449+03:00,8324,1.051678,0,0,6918.726,7,22,2025-04-22T15:56:37.296+03:00,767019389.6593788,0,-14.73,100.3796,1,0.5,2025-04-22T15:55:58.312+03:00,109,1.816666666666667,2025-04-22T14:20:19.516+03:00,0.02197104130929222,0
2025-04-22T15:56:39.219+03:00,1745326597.963435,40.95226359885385,29.14032089484547,76.36396,-1,-1,-1,-1,30,21.30253868467173,-9999,36642.379519125,0.522979736328125,-0.8309478759765625,1.11944580078125,36642.369443125,-0.1068059816582222,1.705961375217824,0.7690116172897365,1.65282130241394,1.501940965652466,0.3613827228546143,-0.1712724566459656,-0.08548879623413086,0.7747784852981567,XArbitraryZVertical,0.2836382624989712,0.6840805980031004,0.2495948778945845,0.6239272840810296,0.7120437622070312,-0.6954253315925598,0.09683385491371155,0,0,0,-1,-1,36637.88171716667,unknown,2,2025-04-22T15:56:34.717+03:00,2025-04-21T17:08:51.449+03:00,8324,1.051678,0,0,6918.726,7,22,2025-04-22T15:56:37.296+03:00,767019389.6593788,0,-14.73,100.3796,1,0.5,2025-04-22T15:55:58.312+03:00,109,1.816666666666667,2025-04-22T14:20:19.516+03:00,0.02197104130929222,0
2025-04-22T15:56:39.229+03:00,1745326597.963435,40.95226359885385,29.14032089484547,76.36396,-1,-1,-1,-1,30,21.30253868467173,-9999,36642.389596125,0.519073486328125,-0.8752288818359375,1.35333251953125,36642.379519125,-0.1288156675588837,1.735534906639948,0.7696144555001802,1.398742914199829,1.325824499130249,0.2292137742042542,-0.1830040812492371,-0.1212801933288574,0.9224598407745361,XArbitraryZVertical,0.2877031931371412,0.690011269307005,0.2472094992470248,0.6164403595902556,0.7084556818008423,-0.6958584189414978,0.1177773550152779,0,0,0,-1,-1,36637.88171716667,unknown,2,2025-04-22T15:56:34.717+03:00,2025-04-21T17:08:51.449+03:00,8324,1.051678,0,0,6918.726,7,22,2025-04-22T15:56:37.296+03:00,767019389.6593788,0,-14.73,100.3796,1,0.5,2025-04-22T15:55:58.312+03:00,109,1.816666666666667,2025-04-22T14:20:19.516+03:00,0.02197104130929222,0
2025-04-22T15:56:39.240+03:00,1745326597.963435,40.95226359885385,29.14032089484547,76.36396,-1,-1,-1,-1,30,21.30253868467173,-9999,36642.399672125,0.5117645263671875,-0.9277496337890625,1.556137084960938,36642.389596125,-0.1450636712255946,1.759305158139333,0.769246483994281,0.8592961430549622,1.141746878623962,0.1015708148479462,-0.1851693987846375,-0.160317063331604,1.128949403762817,XArbitraryZVertical,0.2902955828671345,0.6950135191286353,0.2455279103995215,0.6102463672867814,0.7057076096534729,-0.6955940723419189,0.1346306353807449,0,0,0,-1,-1,36637.88171716667,unknown,2,2025-04-22T15:56:34.717+03:00,2025-04-21T17:08:51.449+03:00,8324,1.051678,0,0,6918.726,7,22,2025-04-22T15:56:37.296+03:00,767019389.6593788,0,-14.73,100.3796,1,0.5,2025-04-22T15:55:58.312+03:00,109,1.816666666666667,2025-04-22T14:20:19.516+03:00,0.02197104130929222,0
2025-04-22T15:56:39.250+03:00,1745326597.963435,40.95226359885385,29.14032089484547,76.36396,-1,-1,-1,-1,30,21.30253868467173,-9999,36642.409748125,0.506927490234375,-0.8973541259765625,1.647201538085938,36642.399672125,-0.1518351825860378,1.773987224605645,0.7684004153305862,0.1107620075345039,0.8148385882377625,-0.09075681865215302,-0.1875685453414917,-0.2164671421051025,1.344375491142273,XArbitraryZVertical,0.2906142383153411,0.6986352445412363,0.2452914237076575,0.6060396835608998,0.7042310237884521,-0.6949859857559204,0.1450956761837006,0,0,0,-1,-1,36637.88171716667,unknown,2,2025-04-22T15:56:34.717+03:00,2025-04-21T17:08:51.449+03:00,8324,1.051678,0,0,6918.726,7,22,2025-04-22T15:56:37.296+03:00,767019389.6593788,0,-14.73,100.3796,1,0.5,2025-04-22T15:55:58.312+03:00,109,1.816666666666667,2025-04-22T14:20:19.516+03:00,0.02197104130929222,0
2025-04-22T15:56:39.260+03:00,1745326597.963435,40.95226359885385,29.14032089484547,76.36396,-1,-1,-1,-1,30,21.30253868467173,-9999,36642.41982512501,0.5504608154296875,-0.773956298828125,1.633758544921875,36642.409748125,-0.1470441031479599,1.776502248123407,0.7669677465190423,-0.7106860280036926,0.3348980844020844,-0.3341427147388458,-0.2003520727157593,-0.2299797534942627,1.482004165649414,XArbitraryZVertical,0.2882267413222826,0.7003286198486833,0.246579154249124,0.6047014849370039,0.7048380970954895,-0.6939551830291748,0.1470696628093719,0,0,0,-1,-1,36637.88171716667,unknown,2,2025-04-22T15:56:34.717+03:00,2025-04-21T17:08:51.449+03:00,8324,1.051678,0,0,6918.726,7,22,2025-04-22T15:56:37.296+03:00,767019389.6593788,0,-14.73,100.3796,1,0.5,2025-04-22T15:55:58.312+03:00,109,1.816666666666667,2025-04-22T14:20:19.516+03:00,0.02197104130929222,0
2025-04-22T15:56:39.270+03:00,1745326597.963435,40.95226359885385,29.14032089484547,76.36396,-1,-1,-1,-1,30,21.30253868467173,-9999,36642.429901125,0.55743408203125,-0.71820068359375,1.68475341796875,36642.41982512501,-0.1320561542686324,1.766656162277188,0.7640482990327265,-1.24638295173645,-0.2526767253875732,-0.6600752472877502,-0.1773218512535095,-0.1302475333213806,1.502717614173889,XArbitraryZVertical,0.2833736011798528,0.699969713687205,0.2486406573213142,0.6065637093374265,0.708236038684845,-0.6918501257896423,0.1405164003372192,0,0,0,-1,-1,36637.88171716667,unknown,2,2025-04-22T15:56:34.717+03:00,2025-04-21T17:08:51.449+03:00,8324,1.051678,0,0,6918.726,7,22,2025-04-22T15:56:37.296+03:00,767019389.6593788,0,-14.73,100.3796,1,0.5,2025-04-22T15:55:58.312+03:00,109,1.816666666666667,2025-04-22T14:20:19.516+03:00,0.02197104130929222,0
2025-04-22T15:56:39.280+03:00,1745326597.963435,40.95226359885385,29.14032089484547,76.36396,-1,-1,-1,-1,30,21.30253868467173,-9999,36642.439977125,0.48175048828125,-0.7396087646484375,1.853164672851562,36642.429901125,-0.1095796782202685,1.745426203497312,0.7588459439264459,-1.728138208389282,-0.8840480446815491,-0.9517514705657959,-0.1492255926132202,-0.03576183319091797,1.520547747612,XArbitraryZVertical,0.2766760683469706,0.6974863324617859,0.2506216416807828,0.6116794773154901,0.7145941257476807,-0.6880844831466675,0.1260736584663391,0,0,0,-1,-1,36637.88171716667,unknown,2,2025-04-22T15:56:34.717+03:00,2025-04-21T17:08:51.449+03:00,8324,1.051678,0,0,6918.726,7,22,2025-04-22T15:56:37.296+03:00,767019389.6593788,0,-14.73,100.3796,1,0.5,2025-04-22T15:55:58.312+03:00,109,1.816666666666667,2025-04-22T14:20:19.516+03:00,0.02197104130929222,0
2025-04-22T15:56:39.290+03:00,1745326597.963435,40.95226359885385,29.14032089484547,76.36396,-1,-1,-1,-1,30,21.30253868467173,-9999,36642.450054125,0.4047698974609375,-0.736236572265625,1.93878173828125,36642.439977125,-0.08185208467598261,1.714060503515649,0.7505870019138563,-1.95444643497467,-1.586156845092773,-1.29867160320282,-0.2074392437934875,-0.04827845096588135,1.685278415679932,XArbitraryZVertical,0.2685459280988837,0.6928836834411204,0.2519185773912783,0.6199453553912252,0.7237966060638428,-0.6820681691169739,0.1044094264507294,0,0,0,-1,-1,36637.88171716667,unknown,2,2025-04-22T15:56:34.717+03:00,2025-04-21T17:08:51.449+03:00,8324,1.051678,0,0,6918.726,7,22,2025-04-22T15:56:37.296+03:00,767019389.6593788,0,-14.73,100.3796,1,0.5,2025-04-22T15:55:58.312+03:00,109,1.816666666666667,2025-04-22T14:20:19.516+03:00,0.02197104130929222,0
2025-04-22T15:56:39.301+03:00,1745326597.963435,40.95226359885385,29.14032089484547,76.36396,-1,-1,-1,-1,30,21.30253868467173,-9999,36642.460130125,0.3913726806640625,-0.626373291015625,1.860626220703125,36642.450054125,-0.05180649189183669,1.673555734747221,0.738660285676375,-2.097509384155273,-2.423612833023071,-1.580765128135681,-0.3081181049346924,-0.07125461101531982,1.846763491630554,XArbitraryZVertical,0.2596656968223646,0.6859268051424914,0.2517619672545017,0.6314222675602458,0.7354710102081299,-0.6732979416847229,0.07584371417760849,0,0,0,-1,-1,36637.88171716667,unknown,2,2025-04-22T15:56:34.717+03:00,2025-04-21T17:08:51.449+03:00,8324,1.051678,0,0,6918.726,7,22,2025-04-22T15:56:37.296+03:00,767019389.6593788,0,-14.73,100.3796,1,0.5,2025-04-22T15:55:58.312+03:00,109,1.816666666666667,2025-04-22T14:20:19.516+03:00,0.02197104130929222,0
2025-04-22T15:56:39.310+03:00,1745326597.963435,40.95226359885385,29.14032089484547,76.36396,-1,-1,-1,-1,30,21.30253868467173,-9999,36642.470206125,0.40106201171875,-0.468902587890625,1.59222412109375,36642.460130125,-0.02223982151067509,1.624935186622381,0.723200314144031,-1.99751877784729,-3.313098907470703,-1.808073878288269,-0.3578919172286987,-0.02037203311920166,1.874257564544678,XArbitraryZVertical,0.2508274296441552,0.6762909219651461,0.2496647508307302,0.6460523418036367,0.7485931515693665,-0.6617873311042786,0.04056762158870697,0,0,0,-1,-1,36637.88171716667,unknown,2,2025-04-22T15:56:34.717+03:00,2025-04-21T17:08:51.449+03:00,8324,1.051678,0,0,6918.726,7,22,2025-04-22T15:56:37.296+03:00,767019389.6593788,0,-14.73,100.3796,1,0.5,2025-04-22T15:55:58.312+03:00,109,1.816666666666667,2025-04-22T14:20:19.516+03:00,0.02197104130929222,0
2025-04-22T15:56:39.320+03:00,1745326597.963435,40.95226359885385,29.14032089484547,76.36396,-1,-1,-1,-1,30,21.30253868467173,-9999,36642.48028312501,0.419830322265625,-0.424713134765625,1.312240600585938,36642.470206125,0.00343358988751389,1.570497493693157,0.7049902206532471,-1.737596273422241,-4.135377883911133,-1.900484800338745,-0.3642484545707703,0.1269692778587341,1.706114172935486,XArbitraryZVertical,0.2430189205249538,0.6639487976819407,0.2452245883855312,0.6633089298222267,0.76161789894104,-0.6480264067649841,-0.0002275966544402763,0,0,0,-1,-1,36637.88171716667,unknown,2,2025-04-22T15:56:34.717+03:00,2025-04-21T17:08:51.449+03:00,8324,1.051678,0,0,6918.726,7,22,2025-04-22T15:56:37.296+03:00,767019389.6593788,0,-14.73,100.3796,1,0.5,2025-04-22T15:55:58.312+03:00,109,1.816666666666667,2025-04-22T14:20:19.516+03:00,0.02197104130929222,0
2025-04-22T15:56:39.330+03:00,1745326597.963435,40.95226359885385,29.14032089484547,76.36396,-1,-1,-1,-1,30,21.30253868467173,-9999,36642.490359125,0.4226837158203125,-0.4905548095703125,1.070465087890625,36642.48028312501,0.02418567496045051,1.511942727778957,0.685664386234657,-1.544782638549805,-4.828818321228027,-1.829843044281006,-0.3604881167411804,0.2102596163749695,1.453652858734131,XArbitraryZVertical,0.236758255556336,0.6489856517046918,0.2388711916449244,0.6824248482357058,0.7726584076881409,-0.6331874132156372,-0.04552630335092545,0,0,0,-1,-1,36637.88171716667,unknown,2,2025-04-22T15:56:34.717+03:00,2025-04-21T17:08:51.449+03:00,8324,1.051678,0,0,6918.726,7,22,2025-04-22T15:56:37.296+03:00,767019389.6593788,0,-14.73,100.3796,1,0.5,2025-04-22T15:55:58.312+03:00,109,1.816666666666667,2025-04-22T14:20:19.516+03:00,0.02197104130929222,0
2025-04-22T15:56:39.340+03:00,1745326597.963435,40.95226359885385,29.14032089484547,76.36396,-1,-1,-1,-1,30,21.30253868467173,-9999,36642.500435125,0.4097137451171875,-0.56689453125,0.687164306640625,36642.490359125,0.03984714162190182,1.449883971516571,0.6663549183398315,-1.174538612365723,-5.513691902160645,-1.784630656242371,-0.3545137643814087,0.159109890460968,1.262555003166199,XArbitraryZVertical,0.2322749579967113,0.6313799676390073,0.2309119644308418,0.7029134770768808,0.780340850353241,-0.618124783039093,-0.09481535851955414,0,0,0,-1,-1,36637.88171716667,unknown,2,2025-04-22T15:56:34.717+03:00,2025-04-21T17:08:51.449+03:00,8324,1.051678,0,0,6918.726,7,22,2025-04-22T15:56:37.296+03:00,767019389.6593788,0,-14.73,100.3796,1,0.5,2025-04-22T15:55:58.312+03:00,109,1.816666666666667,2025-04-22T14:20:19.516+03:00,0.02197104130929222,0
2025-04-22T15:56:39.350+03:00,1745326597.963435,40.95226359885385,29.14032089484547,76.36396,-1,-1,-1,-1,30,21.30253868467173,-9999,36642.510512125,0.38568115234375,-0.4171142578125,0.3293304443359375,36642.500435125,0.04940632631247614,1.386162741069169,0.6475569141017633,-0.9339015483856201,-5.943053245544434,-1.659578680992126,-0.3710862398147583,0.05483889579772949,0.9963812232017517,XArbitraryZVertical,0.2297112897524137,0.6115735158735779,0.2212224382647158,0.7240657003193741,0.7840042114257812,-0.6032397150993347,-0.1464211195707321,0,0,0,-1,-1,36637.88171716667,unknown,2,2025-04-22T15:56:34.717+03:00,2025-04-21T17:08:51.449+03:00,8324,1.051678,0,0,6918.726,7,22,2025-04-22T15:56:37.296+03:00,767019389.6593788,0,-14.73,100.3796,1,0.5,2025-04-22T15:55:58.312+03:00,109,1.816666666666667,2025-04-22T14:20:19.516+03:00,0.02197104130929222,0
2025-04-22T15:56:39.360+03:00,1745326597.963435,40.95226359885385,29.14032089484547,76.36396,-1,-1,-1,-1,30,21.30253868467173,-9999,36642.520588125,0.3517608642578125,-0.19329833984375,0.0937957763671875,36642.510512125,0.05886763461131379,1.319857431833899,0.6290797936547896,-1.705147981643677,-5.92868709564209,-1.747646808624268,-0.3823810219764709,0.08016121387481689,0.6338992118835449,XArbitraryZVertical,0.2271576978619304,0.5899237378249441,0.2116956002827681,0.7453686143074689,0.7832447290420532,-0.5884009599685669,-0.2007787227630615,0,0,0,-1,-1,36637.88171716667,unknown,2,2025-04-22T15:56:34.717+03:00,2025-04-21T17:08:51.449+03:00,8324,1.051678,0,0,6918.726,7,22,2025-04-22T15:56:37.296+03:00,767019389.6593788,0,-14.73,100.3796,1,0.5,2025-04-22T15:55:58.312+03:00,109,1.816666666666667,2025-04-22T14:20:19.516+03:00,0.02197104130929222,0
2025-04-22T15:56:39.371+03:00,1745326597.963435,40.95226359885385,29.14032089484547,76.36396,-1,-1,-1,-1,30,21.30253868467173,-9999,36642.530664125,0.4933319091796875,-0.656005859375,-0.7047576904296875,36642.520588125,0.09600308547706493,1.238566312494627,0.5943592507397859,-7.329598903656006,-5.377283573150635,-2.948372602462769,-0.427337110042572,0.3140216469764709,0.479233980178833,XArbitraryZVertical,0.2115398875686655,0.5658102476835308,0.2071344550929937,0.7695485068988397,0.7832024693489075,-0.5599780082702637,-0.2702192664146423,0,0,0,-1,-1,36637.88171716667,unknown,2,2025-04-22T15:56:34.717+03:00,2025-04-21T17:08:51.449+03:00,8324,1.051678,0,0,6918.726,7,22,2025-04-22T15:56:37.296+03:00,767019389.6593788,0,-14.73,100.3796,1,0.5,2025-04-22T15:55:58.312+03:00,109,1.816666666666667,2025-04-22T14:20:19.516+03:00,0.02197104130929222,0
2025-04-22T15:56:39.381+03:00,1745326597.963435,40.95226359885385,29.14032089484547,76.36396,-1,-1,-1,-1,30,21.30253868467173,-9999,36642.54074112501,0.719940185546875,-1.42132568359375,-3.948135375976562,36642.530664125,0.1963986430215949,1.11977361842765,0.5425690656826992,-10.5624942779541,-6.581595420837402,-0.1983658671379089,-0.3665580749511719,0.1535143852233887,0.100581169128418,XArbitraryZVertical,0.1757958824728421,0.5314627112109366,0.221664187981743,0.7984410610191006,0.7707480192184448,-0.5163378119468689,-0.3732863962650299,0,0,0,-1,-1,36637.88171716667,unknown,2,2025-04-22T15:56:34.717+03:00,2025-04-21T17:08:51.449+03:00,8324,1.051678,0,0,6918.726,7,22,2025-04-22T15:56:37.296+03:00,767019389.6593788,0,-14.73,100.3796,1,0.5,2025-04-22T15:55:58.312+03:00,109,1.816666666666667,2025-04-22T14:20:19.516+03:00,0.02197104130929222,0
2025-04-22T15:56:39.391+03:00,1745326597.963435,40.95226359885385,29.14032089484547,76.36396,-1,-1,-1,-1,30,21.30253868467173,-9999,36642.550817125,-0.3541412353515625,-0.9347076416015625,-6.027496337890625,36642.54074112501,0.2972658071569251,1.020384770722678,0.4902302671703873,-9.606118202209473,-2.585659503936768,-1.311973333358765,-0.04135704040527344,-0.7873800992965698,-1.893284320831299,XArbitraryZVertical,0.1392739748266896,0.4998842561123423,0.2425640033944023,0.8196836324744012,0.7519281506538391,-0.470829039812088,-0.4614369869232178,0,0,0,-1,-1,36637.88171716667,unknown,2,2025-04-22T15:56:34.717+03:00,2025-04-21T17:08:51.449+03:00,8324,1.051678,0,0,6918.726,7,22,2025-04-22T15:56:37.296+03:00,767019389.6593788,0,-14.73,100.3796,1,0.5,2025-04-22T15:55:58.312+03:00,109,1.816666666666667,2025-04-22T14:20:19.516+03:00,0.02197104130929222,0
2025-04-22T15:56:39.401+03:00,1745326597.963435,40.95226359885385,29.14032089484547,76.36396,-1,-1,-1,-1,30,21.30253868467173,-9999,36642.560893125,-1.725494384765625,0.5310821533203125,-3.344192504882812,36642.550817125,0.3664576699906688,0.9967749200967919,0.4316761378940435,-6.719050884246826,3.378260374069214,-1.016022205352783,-0.5203374028205872,-0.7442343235015869,-5.534830093383789,XArbitraryZVertical,0.09988980264541747,0.4933779870631272,0.2569872861226017,0.8249592242966651,0.7626926302909851,-0.4183937609195709,-0.4932003915309906,0,0,0,-1,-1,36637.88171716667,unknown,2,2025-04-22T15:56:34.717+03:00,2025-04-21T17:08:51.449+03:00,8324,1.051678,0,0,6918.726,7,22,2025-04-22T15:56:37.296+03:00,767019389.6593788,0,-14.73,100.3796,1,0.5,2025-04-22T15:55:58.312+03:00,109,1.816666666666667,2025-04-22T14:20:19.516+03:00,0.02197104130929222,0
2025-04-22T15:56:39.411+03:00,1745326597.963435,40.95226359885385,29.14032089484547,76.36396,-1,-1,-1,-1,30,21.30253868467173,-9999,36642.570970125,0.21636962890625,3.412551879882812,-2.12255859375,36642.560893125,0.4066645809169789,1.021228738639516,0.3999107670482384,-3.052955150604248,4.248586654663086,-0.3733258545398712,-2.252109050750732,0.03707185387611389,-3.897724866867065,XArbitraryZVertical,0.07299829026576218,0.5041017610748586,0.2677372981901214,0.8178442555729931,0.7854647040367126,-0.3893361389636993,-0.4811053276062012,0,0,0,-1,-1,36637.88171716667,unknown,2,2025-04-22T15:56:34.717+03:00,2025-04-21T17:08:51.449+03:00,8324,1.051678,0,0,6918.726,7,22,2025-04-22T15:56:37.296+03:00,767019389.6593788,0,-14.73,100.3796,1,0.5,2025-04-22T15:55:58.312+03:00,109,1.816666666666667,2025-04-22T14:20:19.516+03:00,0.02197104130929222,0
2025-04-22T15:56:39.421+03:00,1745326597.963435,40.95226359885385,29.14032089484547,76.36396,-1,-1,-1,-1,30,21.30253868467173,-9999,36642.581046125,1.438323974609375,1.771820068359375,-0.994964599609375,36642.570970125,0.4280376077598237,1.052449097128217,0.3884234533767749,-1.592719197273254,3.493434429168701,0.1330059319734573,-1.629173040390015,2.99796199798584,-1.96933376789093,XArbitraryZVertical,0.05840415394550399,0.5170299074970836,0.2749254423822187,0.808507807461412,0.8039318323135376,-0.3787297904491425,-0.4585380554199219,0,0,0,-1,-1,36637.88171716667,unknown,2,2025-04-22T15:56:34.717+03:00,2025-04-21T17:08:51.449+03:00,8324,1.051678,0,0,6918.726,7,22,2025-04-22T15:56:37.296+03:00,767019389.6593788,0,-14.73,100.3796,1,0.5,2025-04-22T15:55:58.312+03:00,109,1.816666666666667,2025-04-22T14:20:19.516+03:00,0.02197104130929222,0
2025-04-22T15:56:39.431+03:00,1745326597.963435,40.95226359885385,29.14032089484547,76.36396,-1,-1,-1,-1,30,21.30253868467173,-9999,36642.591122125,0.605712890625,-0.67071533203125,-0.568603515625,36642.581046125,0.4345878415993883,1.079422415800504,0.381493417397512,-0.1626482903957367,2.34314751625061,-0.590260922908783,0.6090978384017944,3.272926568984985,-1.001047849655151,XArbitraryZVertical,0.05003952571073549,0.5277665299510942,0.276727429012279,0.8014863065360791,0.8183006644248962,-0.3723069429397583,-0.4379170835018158,0,0,0,-1,-1,36637.88171716667,unknown,2,2025-04-22T15:56:34.717+03:00,2025-04-21T17:08:51.449+03:00,8324,1.051678,0,0,6918.726,7,22,2025-04-22T15:56:37.296+03:00,767019389.6593788,0,-14.73,100.3796,1,0.5,2025-04-22T15:55:58.312+03:00,109,1.816666666666667,2025-04-22T14:20:19.516+03:00,0.02197104130929222,0
2025-04-22T15:56:39.441+03:00,1745326597.963435,40.95226359885385,29.14032089484547,76.36396,-1,-1,-1,-1,30,21.30253868467173,-9999,36642.60119912501,1.11602783203125,-0.56182861328125,-0.491058349609375,36642.591122125,0.4302129977222083,1.099317618859457,0.3793560180472924,0.6009849905967712,1.25977885723114,-0.07572992891073227,-0.01600384712219238,0.2895882129669189,-0.1766144335269928,XArbitraryZVertical,0.04755927970814068,0.5355205591453065,0.2749704216123008,0.7970865189818007,0.8275576233863831,-0.3703223466873169,-0.4219116866588593,0,0,0,-1,-1,36637.88171716667,unknown,2,2025-04-22T15:56:34.717+03:00,2025-04-21T17:08:51.449+03:00,8324,1.051678,0,0,6918.726,7,22,2025-04-22T15:56:37.296+03:00,767019389.6593788,0,-14.73,100.3796,1,0.5,2025-04-22T15:55:58.312+03:00,109,1.816666666666667,2025-04-22T14:20:19.516+03:00,0.02197104130929222,0
2025-04-22T15:56:39.452+03:00,1745326597.963435,40.95226359885385,29.14032089484547,76.36396,-1,-1,-1,-1,30,21.30253868467173,-9999,36642.611275125,1.1612548828125,-0.2235565185546875,-0.1921844482421875,36642.60119912501,0.4237377328812605,1.108487375641783,0.3848153226244437,0.8993436694145203,0.08781427145004272,0.469337671995163,0.03810584545135498,-0.3843470215797424,-0.1489956676959991,XArbitraryZVertical,0.05032866944612453,0.5392292500860194,0.2738977089458103,0.7947821801377132,0.8295697569847107,-0.375387966632843,-0.4133976697921753,0,0,0,-1,-1,36637.88171716667,unknown,2,2025-04-22T15:56:34.717+03:00,2025-04-21T17:08:51.449+03:00,8324,1.051678,0,0,6918.726,7,22,2025-04-22T15:56:37.296+03:00,767019389.6593788,0,-14.73,100.3796,1,0.5,2025-04-22T15:55:58.312+03:00,109,1.816666666666667,2025-04-22T14:20:19.516+03:00,0.02197104130929222,0
2025-04-22T15:56:39.461+03:00,1745326597.963435,40.95226359885385,29.14032089484547,76.36396,-1,-1,-1,-1,30,21.30253868467173,-9999,36642.621351125,1.042266845703125,-0.2918243408203125,-0.05487060546875,36642.611275125,0.4177012506578048,1.107295987760836,0.395026267264944,1.002978444099426,-0.729163646697998,0.8333802223205566,0.407671332359314,0.1008207201957703,0.1138527095317841,XArbitraryZVertical,0.0563934284163601,0.5389754596362043,0.2738685220177933,0.7945571914894751,0.8256048560142517,-0.3848324418067932,-0.412650465965271,0,0,0,-1,-1,36637.88171716667,unknown,2,2025-04-22T15:56:34.717+03:00,2025-04-21T17:08:51.449+03:00,8324,1.051678,0,0,6918.726,7,22,2025-04-22T15:56:37.296+03:00,767019389.6593788,0,-14.73,100.3796,1,0.5,2025-04-22T15:55:58.312+03:00,109,1.816666666666667,2025-04-22T14:20:19.516+03:00,0.02197104130929222,0
2025-04-22T15:56:39.472+03:00,1745326597.963435,40.95226359885385,29.14032089484547,76.36396,-1,-1,-1,-1,30,21.30253868467173,-9999,36642.631428125,1.061019897460938,-0.3199310302734375,-0.0766754150390625,36642.621351125,0.4121681014274149,1.098996382337037,0.4079747912081944,1.026598334312439,-1.330606937408447,0.9870539307594299,0.2363411784172058,0.1426924169063568,0.3374612629413605,XArbitraryZVertical,0.06444496491578547,0.5359594828561978,0.274444656009516,0.795785357146418,0.8176442384719849,-0.3967511653900146,-0.4171885550022125,0,0,0,-1,-1,36637.88171716667,unknown,2,2025-04-22T15:56:34.717+03:00,2025-04-21T17:08:51.449+03:00,8324,1.051678,0,0,6918.726,7,22,2025-04-22T15:56:37.296+03:00,767019389.6593788,0,-14.73,100.3796,1,0.5,2025-04-22T15:55:58.312+03:00,109,1.816666666666667,2025-04-22T14:20:19.516+03:00,0.02197104130929222,0
2025-04-22T15:56:39.481+03:00,1745326597.963435,40.95226359885385,29.14032089484547,76.36396,-1,-1,-1,-1,30,21.30253868467173,-9999,36642.641504125,1.014572143554688,-0.4828338623046875,-0.150543212890625,36642.631428125,0.4077719243089044,1.085017625772983,0.4214443415525476,0.9064959287643433,-1.7704256772995,1.004794120788574,0.2496307492256165,0.0938170850276947,0.3650078177452087,XArbitraryZVertical,0.07319948047616601,0.5306790595210119,0.2753211514113343,0.7982604481959149,0.8069334626197815,-0.40907883644104,-0.4260431528091431,0,0,0,-1,-1,36637.88171716667,unknown,2,2025-04-22T15:56:34.717+03:00,2025-04-21T17:08:51.449+03:00,8324,1.051678,0,0,6918.726,7,22,2025-04-22T15:56:37.296+03:00,767019389.6593788,0,-14.73,100.3796,1,0.5,2025-04-22T15:55:58.312+03:00,109,1.816666666666667,2025-04-22T14:20:19.516+03:00,0.02197104130929222,0
2025-04-22T15:56:39.492+03:00,1745326597.963435,40.95226359885385,29.14032089484547,76.36396,-1,-1,-1,-1,30,21.30253868467173,-9999,36642.651580125,0.85809326171875,-0.789154052734375,-0.417144775390625,36642.641504125,0.4042562580773126,1.068585726428021,0.433520831613586,0.7326085567474365,-1.701626658439636,0.7818760275840759,0.2488299012184143,0.03194606304168701,0.3266353011131287,XArbitraryZVertical,0.08148615256452156,0.5243498645546065,0.2760216423635934,0.8013920259039538,0.7954357266426086,-0.4200685322284698,-0.436834454536438,0,0,0,-1,-1,36637.88171716667,unknown,2,2025-04-22T15:56:34.717+03:00,2025-04-21T17:08:51.449+03:00,8324,1.051678,0,0,6918.726,7,22,2025-04-22T15:56:37.296+03:00,767019389.6593788,0,-14.73,100.3796,1,0.5,2025-04-22T15:55:58.312+03:00,109,1.816666666666667,2025-04-22T14:20:19.516+03:00,0.02197104130929222,0
2025-04-22T15:56:39.502+03:00,1745326597.963435,40.95226359885385,29.14032089484547,76.36396,-1,-1,-1,-1,30,21.30253868467173,-9999,36642.66165712501,0.6857452392578125,-0.7608184814453125,-0.6859283447265625,36642.651580125,0.4028201005591972,1.055082593517217,0.441702195216433,0.3525264859199524,-1.001807689666748,0.4462767243385315,0.1395766735076904,-0.2589223682880402,0.1572204828262329,XArbitraryZVertical,0.08719040966548205,0.5191195941450415,0.2767032153347228,0.8039576259248108,0.78644859790802,-0.4274789094924927,-0.4458253681659698,0,0,0,-1,-1,36637.88171716667,unknown,2,2025-04-22T15:56:34.717+03:00,2025-04-21T17:08:51.449+03:00,8324,1.051678,0,0,6918.726,7,22,2025-04-22T15:56:37.296+03:00,767019389.6593788,0,-14.73,100.3796,1,0.5,2025-04-22T15:55:58.312+03:00,109,1.816666666666667,2025-04-22T14:20:19.516+03:00,0.02197104130929222,0
2025-04-22T15:56:39.512+03:00,1745326597.963435,40.95226359885385,29.14032089484547,76.36396,-1,-1,-1,-1,30,21.30253868467173,-9999,36642.671733125,0.611114501953125,-0.457427978515625,-0.763824462890625,36642.66165712501,0.4020981733543634,1.049391401449755,0.4458452710496307,0.1354128271341324,-0.2058705538511276,0.2744876444339752,-0.03786474466323853,-0.3982622623443604,-0.1668946743011475,XArbitraryZVertical,0.08992329789356401,0.5169234184520337,0.2770763203974821,0.8049426737248729,0.7823562026023865,-0.431220680475235,-0.4494079649448395,0,0,0,-1,-1,36637.88171716667,unknown,2,2025-04-22T15:56:34.717+03:00,2025-04-21T17:08:51.449+03:00,8324,1.051678,0,0,6918.726,7,22,2025-04-22T15:56:37.296+03:00,767019389.6593788,0,-14.73,100.3796,1,0.5,2025-04-22T15:55:58.312+03:00,109,1.816666666666667,2025-04-22T14:20:19.516+03:00,0.02197104130929222,0
2025-04-22T15:56:39.522+03:00,1745326597.963435,40.95226359885385,29.14032089484547,76.36396,-1,-1,-1,-1,30,21.30253868467173,-9999,36642.681809125,0.7348175048828125,-0.440216064453125,-0.7059478759765625,36642.671733125,0.4034954753909034,1.049237084401927,0.4478070168521255,-0.1643991321325302,0.2396148592233658,0.1934395581483841,-0.1640439629554749,-0.1339046061038971,-0.2971859574317932,XArbitraryZVertical,0.09041642148937207,0.5169832839274976,0.2780634199657421,0.8045084182511238,0.7815518379211426,-0.4329898357391357,-0.4491063058376312,0,0,0,-1,-1,36637.88171716667,unknown,2,2025-04-22T15:56:34.717+03:00,2025-04-21T17:08:51.449+03:00,8324,1.051678,0,0,6918.726,7,22,2025-04-22T15:56:37.296+03:00,767019389.6593788,0,-14.73,100.3796,1,0.5,2025-04-22T15:55:58.312+03:00,109,1.816666666666667,2025-04-22T14:20:19.516+03:00,0.02197104130929222,0
2025-04-22T15:56:39.532+03:00,1745326597.963435,40.95226359885385,29.14032089484547,76.36396,-1,-1,-1,-1,30,21.30253868467173,-9999,36642.691886125,0.8482513427734375,-0.6753082275390625,-0.58563232421875,36642.681809125,0.4079232954778435,1.050679957962258,0.447707447782605,-0.5198232531547546,0.3963962197303772,0.1776003986597061,-0.10927814245224,0.04464027285575867,-0.2956529259681702,XArbitraryZVertical,0.0890274873674446,0.517758929517513,0.2798862693993091,0.8035318340598302,0.7822363972663879,-0.432900071144104,-0.4479995965957642,0,0,0,-1,-1,36637.88171716667,unknown,2,2025-04-22T15:56:34.717+03:00,2025-04-21T17:08:51.449+03:00,8324,1.051678,0,0,6918.726,7,22,2025-04-22T15:56:37.296+03:00,767019389.6593788,0,-14.73,100.3796,1,0.5,2025-04-22T15:55:58.312+03:00,109,1.816666666666667,2025-04-22T14:20:19.516+03:00,0.02197104130929222,0
2025-04-22T15:56:39.542+03:00,1745326597.963435,40.95226359885385,29.14032089484547,76.36396,-1,-1,-1,-1,30,21.30253868467173,-9999,36642.701962125,0.8696136474609375,-0.643218994140625,-0.4602203369140625,36642.691886125,0.4144002580897084,1.051808349270887,0.4459379755430194,-0.6299856305122375,0.362254798412323,0.08989802002906799,0.03809720277786255,-0.1740270256996155,-0.1833178997039795,XArbitraryZVertical,0.08644042773314754,0.5184400801489224,0.2821473076244807,0.8025837887963642,0.7834053635597229,-0.4313043057918549,-0.4474958777427673,0,0,0,-1,-1,36637.88171716667,unknown,2,2025-04-22T15:56:34.717+03:00,2025-04-21T17:08:51.449+03:00,8324,1.051678,0,0,6918.726,7,22,2025-04-22T15:56:37.296+03:00,767019389.6593788,0,-14.73,100.3796,1,0.5,2025-04-22T15:55:58.312+03:00,109,1.816666666666667,2025-04-22T14:20:19.516+03:00,0.02197104130929222,0
2025-04-22T15:56:39.552+03:00,1745326597.963435,40.95226359885385,29.14032089484547,76.36396,-1,-1,-1,-1,30,21.30253868467173,-9999,36642.712038125,0.901275634765625,-0.5087890625,-0.34771728515625,36642.701962125,0.4204202555284012,1.052252192013718,0.4435534898244853,-0.5206629037857056,0.238219141960144,0.04476489499211311,0.07854205369949341,-0.2538009583950043,-0.06075116991996765,XArbitraryZVertical,0.08380534515246528,0.5187951338969456,0.284056954453527,0.8019599657774862,0.7844948768615723,-0.4291518032550812,-0.4476565420627594,0,0,0,-1,-1,36637.88171716667,unknown,2,2025-04-22T15:56:34.717+03:00,2025-04-21T17:08:51.449+03:00,8324,1.051678,0,0,6918.726,7,22,2025-04-22T15:56:37.296+03:00,767019389.6593788,0,-14.73,100.3796,1,0.5,2025-04-22T15:55:58.312+03:00,109,1.816666666666667,2025-04-22T14:20:19.516+03:00,0.02197104130929222,0
2025-04-22T15:56:39.563+03:00,1745326597.963435,40.95226359885385,29.14032089484547,76.36396,-1,-1,-1,-1,30,21.30253868467173,-9999,36642.72211512501,0.901580810546875,-0.3953704833984375,-0.282562255859375,36642.712038125,0.4245646013349193,1.052104325286803,0.4419276923825959,-0.2763071358203888,0.08154598623514175,0.04761318117380142,0.1035618185997009,-0.1320553123950958,0.06266546249389648,XArbitraryZVertical,0.08206194168869707,0.5188515239267367,0.2853552531615157,0.8016428617587835,0.785033643245697,-0.4276827573776245,-0.4481178820133209,0,0,0,-1,-1,36637.88171716667,unknown,2,2025-04-22T15:56:34.717+03:00,2025-04-21T17:08:51.449+03:00,8324,1.051678,0,0,6918.726,7,22,2025-04-22T15:56:37.296+03:00,767019389.6593788,0,-14.73,100.3796,1,0.5,2025-04-22T15:55:58.312+03:00,109,1.816666666666667,2025-04-22T14:20:19.516+03:00,0.02197104130929222,0
2025-04-22T15:56:39.572+03:00,1745326597.963435,40.95226359885385,29.14032089484547,76.36396,-1,-1,-1,-1,30,21.30253868467173,-9999,36642.732191125,0.85675048828125,-0.34979248046875,-0.270782470703125,36642.72211512501,0.4264447525414605,1.051320534717734,0.4417523634171125,-0.04214098677039146,-0.07566334307193756,0.09438148140907288,0.1238983273506165,-0.003460109233856201,0.1486754715442657,XArbitraryZVertical,0.08161189672971927,0.5186081375094383,0.2860383423481366,0.8016027397247653,0.7847471237182617,-0.4275242686271667,-0.4487701952457428,0,0,0,-1,-1,36637.88171716667,unknown,2,2025-04-22T15:56:34.717+03:00,2025-04-21T17:08:51.449+03:00,8324,1.051678,0,0,6918.726,7,22,2025-04-22T15:56:37.296+03:00,767019389.6593788,0,-14.73,100.3796,1,0.5,2025-04-22T15:55:58.312+03:00,109,1.816666666666667,2025-04-22T14:20:19.516+03:00,0.02197104130929222,0
2025-04-22T15:56:39.582+03:00,1745326597.963435,40.95226359885385,29.14032089484547,76.36396,-1,-1,-1,-1,30,21.30253868467173,-9999,36642.742267125,0.80035400390625,-0.3493194580078125,-0.305877685546875,36642.732191125,0.4268261760467468,1.049774934578235,0.4429853512821605,0.08744676411151886,-0.1919261068105698,0.1493341773748398,0.09224426746368408,0.06793618202209473,0.1813023388385773,XArbitraryZVertical,0.08225718114900395,0.5180481121659803,0.2863979242491056,0.8017704638356988,0.7835947871208191,-0.4286385774612427,-0.4497198164463043,0,0,0,-1,-1,36637.88171716667,unknown,2,2025-04-22T15:56:34.717+03:00,2025-04-21T17:08:51.449+03:00,8324,1.051678,0,0,6918.726,7,22,2025-04-22T15:56:37.296+03:00,767019389.6593788,0,-14.73,100.3796,1,0.5,2025-04-22T15:55:58.312+03:00,109,1.816666666666667,2025-04-22T14:20:19.516+03:00,0.02197104130929222,0
2025-04-22T15:56:39.596+03:00,1745326597.963435,40.95226359885385,29.14032089484547,76.36396,-1,-1,-1,-1,30,21.30253868467173,-9999,36642.752344125,0.743560791015625,-0.373382568359375,-0.3527069091796875,36642.742267125,0.4267254697525468,1.047578382025529,0.4450926303491052,0.1300839781761169,-0.2424441426992416,0.1974593698978424,0.04030716419219971,0.08587610721588135,0.1620165705680847,XArbitraryZVertical,0.08349209517498014,0.51723810866941,0.2867268628615498,0.8020481867891622,0.7818208932876587,-0.4305414855480194,-0.4509876072406769,0,0,0,-1,-1,36637.88171716667,unknown,2,2025-04-22T15:56:34.717+03:00,2025-04-21T17:08:51.449+03:00,8324,1.051678,0,0,6918.726,7,22,2025-04-22T15:56:37.296+03:00,767019389.6593788,0,-14.73,100.3796,1,0.5,2025-04-22T15:55:58.312+03:00,109,1.816666666666667,2025-04-22T14:20:19.516+03:00,0.02197104130929222,0
2025-04-22T15:56:39.603+03:00,1745326597.963435,40.95226359885385,29.14032089484547,76.36396,-1,-1,-1,-1,30,21.30253868467173,-9999,36642.762420125,0.694122314453125,-0.3823394775390625,-0.3935546875,36642.752344125,0.4265129415576497,1.045253202832674,0.4475719479964095,0.1454628705978394,-0.2289752662181854,0.2058620005846024,-0.01403647661209106,0.06787934899330139,0.1171384751796722,XArbitraryZVertical,0.08493305117350244,0.5163842410234719,0.287083747546799,0.8023194366382824,0.7798444032669067,-0.4327779114246368,-0.4522673785686493,0,0,0,-1,-1,36637.88171716667,unknown,2,2025-04-22T15:56:34.717+03:00,2025-04-21T17:08:51.449+03:00,8324,1.051678,0,0,6918.726,7,22,2025-04-22T15:56:37.296+03:00,767019389.6593788,0,-14.73,100.3796,1,0.5,2025-04-22T15:55:58.312+03:00,109,1.816666666666667,2025-04-22T14:20:19.516+03:00,0.02197104130929222,0
2025-04-22T15:56:39.612+03:00,1745326597.963435,40.95226359885385,29.14032089484547,76.36396,-1,-1,-1,-1,30,21.30253868467173,-9999,36642.772496125,0.6813201904296875,-0.3914794921875,-0.4320220947265625,36642.762420125,0.4262552086687957,1.043288513510191,0.4500062540997301,0.1355002522468567,-0.1845095306634903,0.1853617876768112,-0.06835561990737915,0.05417293310165405,0.07503196597099304,XArbitraryZVertical,0.08631554373913221,0.5156705740550587,0.287424995475298,0.8025086488382762,0.7780417203903198,-0.4349711537361145,-0.453266978263855,0,0,0,-1,-1,36637.88171716667,unknown,2,2025-04-22T15:56:34.717+03:00,2025-04-21T17:08:51.449+03:00,8324,1.051678,0,0,6918.726,7,22,2025-04-22T15:56:37.296+03:00,767019389.6593788,0,-14.73,100.3796,1,0.5,2025-04-22T15:55:58.312+03:00,109,1.816666666666667,2025-04-22T14:20:19.516+03:00,0.02197104130929222,0
2025-04-22T15:56:39.623+03:00,1745326597.963435,40.95226359885385,29.14032089484547,76.36396,-1,-1,-1,-1,30,21.30253868467173,-9999,36642.78257312501,0.7065887451171875,-0.413299560546875,-0.4556427001953125,36642.772496125,0.4262777437403251,1.041643086964128,0.4520978721289242,0.06499791890382767,-0.14448481798172,0.1730439066886902,-0.09459269046783447,0.05074527859687805,0.03594958782196045,XArbitraryZVertical,0.08743497676743797,0.5150844070966822,0.2878157249564348,0.8026239587046083,0.7765078544616699,-0.4368535876274109,-0.4540863633155823,0,0,0,-1,-1,36637.88171716667,unknown,2,2025-04-22T15:56:34.717+03:00,2025-04-21T17:08:51.449+03:00,8324,1.051678,0,0,6918.726,7,22,2025-04-22T15:56:37.296+03:00,767019389.6593788,0,-14.73,100.3796,1,0.5,2025-04-22T15:55:58.312+03:00,109,1.816666666666667,2025-04-22T14:20:19.516+03:00,0.02197104130929222,0
2025-04-22T15:56:39.632+03:00,1745326597.963435,40.95226359885385,29.14032089484547,76.36396,-1,-1,-1,-1,30,21.30253868467173,-9999,36642.792649125,0.7452392578125,-0.445831298828125,-0.454498291015625,36642.78257312501,0.4269189783490716,1.040025399124005,0.4537019745119584,-0.003569959430024028,-0.1227741986513138,0.159830629825592,-0.08150249719619751,0.0353420078754425,0.004348605871200562,XArbitraryZVertical,0.08818461693943355,0.5145193763223664,0.2883488211346796,0.8027129441157844,0.7751668691635132,-0.438295990228653,-0.454986572265625,0,0,0,-1,-1,36637.88171716667,unknown,2,2025-04-22T15:56:34.717+03:00,2025-04-21T17:08:51.449+03:00,8324,1.051678,0,0,6918.726,7,22,2025-04-22T15:56:37.296+03:00,767019389.6593788,0,-14.73,100.3796,1,0.5,2025-04-22T15:55:58.312+03:00,109,1.816666666666667,2025-04-22T14:20:19.516+03:00,0.02197104130929222,0
2025-04-22T15:56:39.643+03:00,1745326597.963435,40.95226359885385,29.14032089484547,76.36396,-1,-1,-1,-1,30,21.30253868467173,-9999,36642.802726125,0.77703857421875,-0.4405670166015625,-0.4388580322265625,36642.792649125,0.4280533923507614,1.038315141690345,0.4548939777001787,-0.03967856243252754,-0.1213548630475998,0.1447422951459885,-0.04195773601531982,0.004217028617858887,-0.001061558723449707,XArbitraryZVertical,0.08864652940820514,0.5139248283169147,0.2889855697247009,0.802814041184597,0.7739369869232178,-0.4393670856952667,-0.4560461342334747,0,0,0,-1,-1,36637.88171716667,unknown,2,2025-04-22T15:56:34.717+03:00,2025-04-21T17:08:51.449+03:00,8324,1.051678,0,0,6918.726,7,22,2025-04-22T15:56:37.296+03:00,767019389.6593788,0,-14.73,100.3796,1,0.5,2025-04-22T15:55:58.312+03:00,109,1.816666666666667,2025-04-22T14:20:19.516+03:00,0.02197104130929222,0
2025-04-22T15:56:39.653+03:00,1745326597.963435,40.95226359885385,29.14032089484547,76.36396,-1,-1,-1,-1,30,21.30253868467173,-9999,36642.812802125,0.8087615966796875,-0.4222412109375,-0.427337646484375,36642.802726125,0.4292317456334616,1.036582055920184,0.4558551163999134,-0.034567691385746,-0.1197881251573563,0.1253464818000793,-0.007599234580993652,-0.007538795471191406,0.01204192638397217,XArbitraryZVertical,0.08900330847624018,0.5133153617368911,0.2895884027124899,0.8029472265514591,0.7727816104888916,-0.4402302801609039,-0.4571714997291565,0,0,0,-1,-1,36637.88171716667,unknown,2,2025-04-22T15:56:34.717+03:00,2025-04-21T17:08:51.449+03:00,8324,1.051678,0,0,6918.726,7,22,2025-04-22T15:56:37.296+03:00,767019389.6593788,0,-14.73,100.3796,1,0.5,2025-04-22T15:55:58.312+03:00,109,1.816666666666667,2025-04-22T14:20:19.516+03:00,0.02197104130929222,0
2025-04-22T15:56:39.663+03:00,1745326597.963435,40.95226359885385,29.14032089484547,76.36396,-1,-1,-1,-1,30,21.30253868467173,-9999,36642.822878125,0.8223876953125,-0.4118804931640625,-0.42333984375,36642.812802125,0.4301254095552719,1.034964481551261,0.4567293950496952,-0.01050329953432083,-0.1210546568036079,0.1045602858066559,0.02664512395858765,0.01334178447723389,0.02803301811218262,XArbitraryZVertical,0.08938039517749065,0.5127367714992332,0.2900626931848591,0.8031038913878338,0.7717099785804749,-0.4410150945186615,-0.4582242965698242,0,0,0,-1,-1,36637.88171716667,unknown,2,2025-04-22T15:56:34.717+03:00,2025-04-21T17:08:51.449+03:00,8324,1.051678,0,0,6918.726,7,22,2025-04-22T15:56:37.296+03:00,767019389.6593788,0,-14.73,100.3796,1,0.5,2025-04-22T15:55:58.312+03:00,109,1.816666666666667,2025-04-22T14:20:19.516+03:00,0.02197104130929222,0
2025-04-22T15:56:39.673+03:00,1745326597.963435,40.95226359885385,29.14032089484547,76.36396,-1,-1,-1,-1,30,21.30253868467173,-9999,36642.832955125,0.8249053955078125,-0.407440185546875,-0.421478271484375,36642.822878125,0.4306911002163415,1.033500537879223,0.4575877570599129,0.0112209040671587,-0.1196162775158882,0.09536438435316086,0.04805850982666016,0.02624282240867615,0.03438526391983032,XArbitraryZVertical,0.08981311785725486,0.5122048609429064,0.2904081636878582,0.8032700475637007,0.7707127332687378,-0.4417853355407715,-0.4591595828533173,0,0,0,-1,-1,36637.88171716667,unknown,2,2025-04-22T15:56:34.717+03:00,2025-04-21T17:08:51.449+03:00,8324,1.051678,0,0,6918.726,7,22,2025-04-22T15:56:37.296+03:00,767019389.6593788,0,-14.73,100.3796,1,0.5,2025-04-22T15:55:58.312+03:00,109,1.816666666666667,2025-04-22T14:20:19.516+03:00,0.02197104130929222,0
2025-04-22T15:56:39.683+03:00,1745326597.963435,40.95226359885385,29.14032089484547,76.36396,-1,-1,-1,-1,30,21.30253868467173,-9999,36642.843031125,0.8109893798828125,-0.40704345703125,-0.425201416015625,36642.832955125,0.430977783150694,1.032210305252598,0.4584953045138641,0.03851065039634705,-0.1103774458169937,0.08605094999074936,0.05506902933120728,0.03409111499786377,0.03872871398925781,XArbitraryZVertical,0.09031345131347536,0.5117319578191376,0.2906592207872762,0.8034245863645429,0.7697752118110657,-0.4425993263721466,-0.4599477648735046,0,0,0,-1,-1,36637.88171716667,unknown,2,2025-04-22T15:56:34.717+03:00,2025-04-21T17:08:51.449+03:00,8324,1.051678,0,0,6918.726,7,22,2025-04-22T15:56:37.296+03:00,767019389.6593788,0,-14.73,100.3796,1,0.5,2025-04-22T15:55:58.312+03:00,109,1.816666666666667,2025-04-22T14:20:19.516+03:00,0.02197104130929222,0
2025-04-22T15:56:39.693+03:00,1745326597.963435,40.95226359885385,29.14032089484547,76.36396,-1,-1,-1,-1,30,21.30253868467173,-9999,36642.853107125,0.79364013671875,-0.396728515625,-0.437347412109375,36642.843031125,0.4309836791286719,1.031157969042031,0.4595320292786397,0.06687650829553604,-0.09987127780914307,0.08865445852279663,0.04824191331863403,0.03477641940116882,0.03765454888343811,XArbitraryZVertical,0.090906280986027,0.5113465509006967,0.2908352383790279,0.8035393066353689,0.7688965797424316,-0.4435287415981293,-0.4605215191841125,0,0,0,-1,-1,36637.88171716667,unknown,2,2025-04-22T15:56:34.717+03:00,2025-04-21T17:08:51.449+03:00,8324,1.051678,0,0,6918.726,7,22,2025-04-22T15:56:37.296+03:00,767019389.6593788,0,-14.73,100.3796,1,0.5,2025-04-22T15:55:58.312+03:00,109,1.816666666666667,2025-04-22T14:20:19.516+03:00,0.02197104130929222,0
2025-04-22T15:56:39.703+03:00,1745326597.963435,40.95226359885385,29.14032089484547,76.36396,-1,-1,-1,-1,30,21.30253868467173,-9999,36642.863184125,0.783782958984375,-0.392669677734375,-0.4474945068359375,36642.853107125,0.4307311838819474,1.030320182973545,0.4607687925028043,0.1008319482207298,-0.09121054410934448,0.1002872139215469,0.0310172438621521,0.04319345951080322,0.02770102024078369,XArbitraryZVertical,0.09161931213100777,0.5110424926541604,0.2909591940217146,0.8036069425316795,0.7680396437644958,-0.4446368515491486,-0.4608829319477081,0,0,0,-1,-1,36637.88171716667,unknown,2,2025-04-22T15:56:34.717+03:00,2025-04-21T17:08:51.449+03:00,8324,1.051678,0,0,6918.726,7,22,2025-04-22T15:56:37.296+03:00,767019389.6593788,0,-14.73,100.3796,1,0.5,2025-04-22T15:55:58.312+03:00,109,1.816666666666667,2025-04-22T14:20:19.516+03:00,0.02197104130929222,0
2025-04-22T15:56:39.713+03:00,1745326597.963435,40.95226359885385,29.14032089484547,76.36396,-1,-1,-1,-1,30,21.30253868467173,-9999,36642.873260125,0.779449462890625,-0.397369384765625,-0.4548797607421875,36642.863184125,0.4302379274257153,1.02961933946135,0.4622698760248674,0.1293469369411469,-0.09274879097938538,0.1128136590123177,0.0203167200088501,0.05340284109115601,0.01611506938934326,XArbitraryZVertical,0.09248655830908505,0.5107914044292727,0.2910483909597545,0.8036349258895067,0.7671434879302979,-0.4459808766841888,-0.4610767662525177,0,0,0,-1,-1,36637.88171716667,unknown,2,2025-04-22T15:56:34.717+03:00,2025-04-21T17:08:51.449+03:00,8324,1.051678,0,0,6918.726,7,22,2025-04-22T15:56:37.296+03:00,767019389.6593788,0,-14.73,100.3796,1,0.5,2025-04-22T15:55:58.312+03:00,109,1.816666666666667,2025-04-22T14:20:19.516+03:00,0.02197104130929222,0
2025-04-22T15:56:39.723+03:00,1745326597.963435,40.95226359885385,29.14032089484547,76.36396,-1,-1,-1,-1,30,21.30253868467173,-9999,36642.883336125,0.7847442626953125,-0.403076171875,-0.45965576171875,36642.873260125,0.4295243035580353,1.028878240338206,0.4640721723865512,0.1642122566699982,-0.1150341182947159,0.1256535649299622,0.01338338851928711,0.05277225375175476,0.009371131658554077,XArbitraryZVertical,0.09354425060788968,0.5105238228996727,0.2911105680404263,0.8036599527868789,0.7661116719245911,-0.4475933015346527,-0.4612298011779785,0,0,0,-1,-1,36637.88171716667,unknown,2,2025-04-22T15:56:34.717+03:00,2025-04-21T17:08:51.449+03:00,8324,1.051678,0,0,6918.726,7,22,2025-04-22T15:56:37.296+03:00,767019389.6593788,0,-14.73,100.3796,1,0.5,2025-04-22T15:55:58.312+03:00,109,1.816666666666667,2025-04-22T14:20:19.516+03:00,0.02197104130929222,0
2025-04-22T15:56:39.733+03:00,1745326597.963435,40.95226359885385,29.14032089484547,76.36396,-1,-1,-1,-1,30,21.30253868467173,-9999,36642.893413125,0.7819061279296875,-0.4056396484375,-0.459930419921875,36642.883336125,0.4285275772658512,1.02805058811007,0.466179874000503,0.2030824273824692,-0.1387929767370224,0.139681488275528,0.01784026622772217,0.04772853851318359,0.002329915761947632,XArbitraryZVertical,0.0948168986942807,0.5102176288350277,0.2911188804286097,0.8037022842872975,0.764920175075531,-0.4494770765304565,-0.4613754451274872,0,0,0,-1,-1,36637.88171716667,unknown,2,2025-04-22T15:56:34.717+03:00,2025-04-21T17:08:51.449+03:00,8324,1.051678,0,0,6918.726,7,22,2025-04-22T15:56:37.296+03:00,767019389.6593788,0,-14.73,100.3796,1,0.5,2025-04-22T15:55:58.312+03:00,109,1.816666666666667,2025-04-22T14:20:19.516+03:00,0.02197104130929222,0
2025-04-22T15:56:39.743+03:00,1745326597.963435,40.95226359885385,29.14032089484547,76.36396,-1,-1,-1,-1,30,21.30253868467173,-9999,36642.903489125,0.7805328369140625,-0.4012451171875,-0.453887939453125,36642.893413125,0.4272010421807025,1.027183716633013,0.4686268567983192,0.2471279799938202,-0.1574510186910629,0.1588111519813538,0.0200234055519104,0.04713588953018188,0.0009881854057312012,XArbitraryZVertical,0.09632387091698437,0.5098898228887856,0.2910636082114483,0.8037512566295326,0.7635764479637146,-0.451661616563797,-0.4614681601524353,0,0,0,-1,-1,36637.88171716667,unknown,2,2025-04-22T15:56:34.717+03:00,2025-04-21T17:08:51.449+03:00,8324,1.051678,0,0,6918.726,7,22,2025-04-22T15:56:37.296+03:00,767019389.6593788,0,-14.73,100.3796,1,0.5,2025-04-22T15:55:58.312+03:00,109,1.816666666666667,2025-04-22T14:20:19.516+03:00,0.02197104130929222,0
2025-04-22T15:56:39.753+03:00,1745326597.963435,40.95226359885385,29.14032089484547,76.36396,-1,-1,-1,-1,30,21.30253868467173,-9999,36642.913565125,0.7752227783203125,-0.3996124267578125,-0.44921875,36642.903489125,0.425555160711647,1.026329857709947,0.4714216655584323,0.2905542552471161,-0.1671662330627441,0.1784322559833527,0.01896750926971436,0.04970398545265198,0.004829615354537964,XArbitraryZVertical,0.09805837600497309,0.5095610119168238,0.290953064960275,0.8037898914310123,0.7620992064476013,-0.4541533291339874,-0.4614642560482025,0,0,0,-1,-1,36637.88171716667,unknown,2,2025-04-22T15:56:34.717+03:00,2025-04-21T17:08:51.449+03:00,8324,1.051678,0,0,6918.726,7,22,2025-04-22T15:56:37.296+03:00,767019389.6593788,0,-14.73,100.3796,1,0.5,2025-04-22T15:55:58.312+03:00,109,1.816666666666667,2025-04-22T14:20:19.516+03:00,0.02197104130929222,0
2025-04-22T15:56:39.763+03:00,1745326597.963435,40.95226359885385,29.14032089484547,76.36396,-1,-1,-1,-1,30,21.30253868467173,-9999,36642.923642125,0.7689361572265625,-0.4176788330078125,-0.4470367431640625,36642.913565125,0.4236785635876852,1.025525461295205,0.4745654215509137,0.3155186772346497,-0.172073170542717,0.193849116563797,0.01786255836486816,0.05952164530754089,0.01058962941169739,XArbitraryZVertical,0.09999299267033061,0.5092486640398288,0.2908245032905982,0.8037961097017569,0.760503351688385,-0.4569519460201263,-0.4613344073295593,0,0,0,-1,-1,36637.88171716667,unknown,2,2025-04-22T15:56:34.717+03:00,2025-04-21T17:08:51.449+03:00,8324,1.051678,0,0,6918.726,7,22,2025-04-22T15:56:37.296+03:00,767019389.6593788,0,-14.73,100.3796,1,0.5,2025-04-22T15:55:58.312+03:00,109,1.816666666666667,2025-04-22T14:20:19.516+03:00,0.02197104130929222,0
2025-04-22T15:56:39.774+03:00,1745326597.963435,40.95226359885385,29.14032089484547,76.36396,-1,-1,-1,-1,30,21.30253868467173,-9999,36642.933718125,0.766876220703125,-0.434906005859375,-0.4479217529296875,36642.923642125,0.4217661775986957,1.024712537526781,0.4779242015712886,0.3189294040203094,-0.174966961145401,0.2136363983154297,0.01200062036514282,0.05068105459213257,0.01407009363174438,XArbitraryZVertical,0.1020293583920551,0.5089337951793057,0.2907249714149397,0.8037756768327396,0.7588122487068176,-0.4599369466304779,-0.4611527919769287,0,0,0,-1,-1,36637.88171716667,unknown,2,2025-04-22T15:56:34.717+03:00,2025-04-21T17:08:51.449+03:00,8324,1.051678,0,0,6918.726,7,22,2025-04-22T15:56:37.296+03:00,767019389.6593788,0,-14.73,100.3796,1,0.5,2025-04-22T15:55:58.312+03:00,109,1.816666666666667,2025-04-22T14:20:19.516+03:00,0.02197104130929222,0
2025-04-22T15:56:39.784+03:00,1745326597.963435,40.95226359885385,29.14032089484547,76.36396,-1,-1,-1,-1,30,21.30253868467173,-9999,36642.943794125,0.768707275390625,-0.443939208984375,-0.44390869140625,36642.933718125,0.4199807395635811,1.023804485028971,0.481391691630829,0.3097167015075684,-0.1831029206514359,0.2317175269126892,0.009864866733551025,0.03389033675193787,0.01331630349159241,XArbitraryZVertical,0.10409333788507,0.5085861917148592,0.2906927652075881,0.803742592625028,0.7570264339447021,-0.4630131423473358,-0.4610093235969543,0,0,0,-1,-1,36637.88171716667,unknown,2,2025-04-22T15:56:34.717+03:00,2025-04-21T17:08:51.449+03:00,8324,1.051678,0,0,6918.726,7,22,2025-04-22T15:56:37.296+03:00,767019389.6593788,0,-14.73,100.3796,1,0.5,2025-04-22T15:55:58.312+03:00,109,1.816666666666667,2025-04-22T14:20:19.516+03:00,0.02197104130929222,0
2025-04-22T15:56:39.794+03:00,1745326597.963435,40.95226359885385,29.14032089484547,76.36396,-1,-1,-1,-1,30,21.30253868467173,-9999,36642.953871125,0.7675933837890625,-0.4472198486328125,-0.443115234375,36642.943794125,0.4184014734773519,1.022801444358798,0.4848517727761962,0.3032119274139404,-0.1836629807949066,0.253773033618927,0.01313400268554688,0.0256781280040741,0.01497757434844971,XArbitraryZVertical,0.1061153933744177,0.5082066359698352,0.2907347558463408,0.8037031741364413,0.7551916837692261,-0.4660772085189819,-0.4609310626983643,0,0,0,-1,-1,36637.88171716667,unknown,2,2025-04-22T15:56:34.717+03:00,2025-04-21T17:08:51.449+03:00,8324,1.051678,0,0,6918.726,7,22,2025-04-22T15:56:37.296+03:00,767019389.6593788,0,-14.73,100.3796,1,0.5,2025-04-22T15:55:58.312+03:00,109,1.816666666666667,2025-04-22T14:20:19.516+03:00,0.02197104130929222,0
2025-04-22T15:56:39.804+03:00,1745326597.963435,40.95226359885385,29.14032089484547,76.36396,-1,-1,-1,-1,30,21.30253868467173,-9999,36642.963947125,0.7696685791015625,-0.4452056884765625,-0.4478912353515625,36642.953871125,0.4170129108779709,1.021549677414956,0.4887161366881965,0.2998485863208771,-0.1956672519445419,0.2721622884273529,0.01519232988357544,0.02285277843475342,0.01914447546005249,XArbitraryZVertical,0.1082973779880394,0.5077455171416105,0.2909227733228728,0.8036355130868232,0.7530723214149475,-0.4694927036762238,-0.4609323441982269,0,0,0,-1,-1,36637.88171716667,unknown,2,2025-04-22T15:56:34.717+03:00,2025-04-21T17:08:51.449+03:00,8324,1.051678,0,0,6918.726,7,22,2025-04-22T15:56:37.296+03:00,767019389.6593788,0,-14.73,100.3796,1,0.5,2025-04-22T15:55:58.312+03:00,109,1.816666666666667,2025-04-22T14:20:19.516+03:00,0.02197104130929222,0
2025-04-22T15:56:39.814+03:00,1745326597.963435,40.95226359885385,29.14032089484547,76.36396,-1,-1,-1,-1,30,21.30253868467173,-9999,36642.974023125,0.77410888671875,-0.4440765380859375,-0.4458770751953125,36642.963947125,0.4158036179515058,1.020111314130281,0.492737716748829,0.2985140681266785,-0.2039733827114105,0.2952537536621094,0.01684558391571045,0.02650657296180725,0.01487141847610474,XArbitraryZVertical,0.1105280693320836,0.5072197585399527,0.2912024488085,0.8035625178249693,0.75079345703125,-0.4730396866798401,-0.4610233306884766,0,0,0,-1,-1,36637.88171716667,unknown,2,2025-04-22T15:56:34.717+03:00,2025-04-21T17:08:51.449+03:00,8324,1.051678,0,0,6918.726,7,22,2025-04-22T15:56:37.296+03:00,767019389.6593788,0,-14.73,100.3796,1,0.5,2025-04-22T15:55:58.312+03:00,109,1.816666666666667,2025-04-22T14:20:19.516+03:00,0.02197104130929222,0
2025-04-22T15:56:39.824+03:00,1745326597.963435,40.95226359885385,29.14032089484547,76.36396,-1,-1,-1,-1,30,21.30253868467173,-9999,36642.984100125,0.7734375,-0.4419097900390625,-0.4451751708984375,36642.974023125,0.4147007837817798,1.018525558506876,0.4969415565904025,0.301647961139679,-0.2149135172367096,0.3157200515270233,0.02438879013061523,0.03127419948577881,0.01350349187850952,XArbitraryZVertical,0.1128311193115924,0.5066420025118417,0.2915510648424892,0.8034806104461616,0.7483620047569275,-0.4767392575740814,-0.4611660540103912,0,0,0,-1,-1,36637.88171716667,unknown,2,2025-04-22T15:56:34.717+03:00,2025-04-21T17:08:51.449+03:00,8324,1.051678,0,0,6918.726,7,22,2025-04-22T15:56:37.296+03:00,767019389.6593788,0,-14.73,100.3796,1,0.5,2025-04-22T15:55:58.312+03:00,109,1.816666666666667,2025-04-22T14:20:19.516+03:00,0.02197104130929222,0
2025-04-22T15:56:39.834+03:00,1745326597.963435,40.95226359885385,29.14032089484547,76.36396,-1,-1,-1,-1,30,21.30253868467173,-9999,36642.994176125,0.7700653076171875,-0.4475860595703125,-0.449676513671875,36642.984100125,0.4137281771212984,1.016782850009869,0.5013520852112248,0.3033624887466431,-0.223272368311882,0.3408650755882263,0.02880483865737915,0.03867149353027344,0.01714470982551575,XArbitraryZVertical,0.1152124632373882,0.5060106072554501,0.2919820135074994,0.8033838930798112,0.7457616329193115,-0.480611652135849,-0.4613586962223053,0,0,0,-1,-1,36637.88171716667,unknown,2,2025-04-22T15:56:34.717+03:00,2025-04-21T17:08:51.449+03:00,8324,1.051678,0,0,6918.726,7,22,2025-04-22T15:56:37.296+03:00,767019389.6593788,0,-14.73,100.3796,1,0.5,2025-04-22T15:55:58.312+03:00,109,1.816666666666667,2025-04-22T14:20:19.516+03:00,0.02197104130929222,0
2025-04-22T15:56:39.844+03:00,1745326597.963435,40.95226359885385,29.14032089484547,76.36396,-1,-1,-1,-1,30,21.30253868467173,-9999,36643.004253125,0.769500732421875,-0.445281982421875,-0.452056884765625,36642.994176125,0.4128954832271572,1.014850629173613,0.5059780667971915,0.3079023659229279,-0.2374443858861923,0.3649942576885223,0.02871024608612061,0.03947284817695618,0.01435476541519165,XArbitraryZVertical,0.1176784632692038,0.5053132750293188,0.2924979715620886,0.8032777057200847,0.7429723739624023,-0.484663188457489,-0.4616205394268036,0,0,0,-1,-1,36637.88171716667,unknown,2,2025-04-22T15:56:34.717+03:00,2025-04-21T17:08:51.449+03:00,8324,1.051678,0,0,6918.726,7,22,2025-04-22T15:56:37.296+03:00,767019389.6593788,0,-14.73,100.3796,1,0.5,2025-04-22T15:55:58.312+03:00,109,1.816666666666667,2025-04-22T14:20:19.516+03:00,0.02197104130929222,0
2025-04-22T15:56:39.854+03:00,1745326597.963435,40.95226359885385,29.14032089484547,76.36396,-1,-1,-1,-1,30,21.30253868467173,-9999,36643.014329125,0.7648773193359375,-0.44671630859375,-0.4515838623046875,36643.004253125,0.4121443276557604,1.01275862421188,0.5108500525394016,0.314765065908432,-0.2498927861452103,0.3859064877033234,0.02935481071472168,0.04247742891311646,0.01048657298088074,XArbitraryZVertical,0.1202528147997294,0.504559471349455,0.2930825150245858,0.8031572139881437,0.739993155002594,-0.4889189600944519,-0.4619179964065552,0,0,0,-1,-1,36637.88171716667,unknown,2,2025-04-22T15:56:34.717+03:00,2025-04-21T17:08:51.449+03:00,8324,1.051678,0,0,6918.726,7,22,2025-04-22T15:56:37.296+03:00,767019389.6593788,0,-14.73,100.3796,1,0.5,2025-04-22T15:55:58.312+03:00,109,1.816666666666667,2025-04-22T14:20:19.516+03:00,0.02197104130929222,0
2025-04-22T15:56:39.864+03:00,1745326597.963435,40.95226359885385,29.14032089484547,76.36396,-1,-1,-1,-1,30,21.30253868467173,-9999,36643.024405125,0.75665283203125,-0.458343505859375,-0.4524383544921875,36643.014329125,0.4114625771973154,1.01051571007965,0.5159217189235481,0.3217322528362274,-0.2630298435688019,0.4050875306129456,0.03045809268951416,0.04791763424873352,0.01039421558380127,XArbitraryZVertical,0.1229177619862527,0.5037507279273193,0.2937205946180361,0.80302828123104,0.7368451952934265,-0.4933367967605591,-0.4622528553009033,0,0,0,-1,-1,36637.88171716667,unknown,2,2025-04-22T15:56:34.717+03:00,2025-04-21T17:08:51.449+03:00,8324,1.051678,0,0,6918.726,7,22,2025-04-22T15:56:37.296+03:00,767019389.6593788,0,-14.73,100.3796,1,0.5,2025-04-22T15:55:58.312+03:00,109,1.816666666666667,2025-04-22T14:20:19.516+03:00,0.02197104130929222,0
2025-04-22T15:56:39.875+03:00,1745326597.963435,40.95226359885385,29.14032089484547,76.36396,-1,-1,-1,-1,30,21.30253868467173,-9999,36643.034482125,0.7508087158203125,-0.4679107666015625,-0.4574737548828125,36643.024405125,0.4108022071626882,1.008137443338267,0.5211837595512567,0.3287304937839508,-0.2746888995170593,0.4198931157588959,0.02601402997970581,0.04441595077514648,0.01078462600708008,XArbitraryZVertical,0.1256793841798887,0.5028899534187977,0.294390852858566,0.8028949038293071,0.7335378527641296,-0.4979070723056793,-0.4626127779483795,0,0,0,-1,-1,36637.88171716667,unknown,2,2025-04-22T15:56:34.717+03:00,2025-04-21T17:08:51.449+03:00,8324,1.051678,0,0,6918.726,7,22,2025-04-22T15:56:37.296+03:00,767019389.6593788,0,-14.73,100.3796,1,0.5,2025-04-22T15:55:58.312+03:00,109,1.816666666666667,2025-04-22T14:20:19.516+03:00,0.02197104130929222,0
2025-04-22T15:56:39.885+03:00,1745326597.963435,40.95226359885385,29.14032089484547,76.36396,-1,-1,-1,-1,30,21.30253868467173,-9999,36643.044558125,0.744415283203125,-0.4760589599609375,-0.4550933837890625,36643.034482125,0.4101417824217339,1.005622156100895,0.5265979421971202,0.3391452431678772,-0.2908136248588562,0.4287030696868896,0.02366882562637329,0.03753787279129028,0.007240921258926392,XArbitraryZVertical,0.128527159015178,0.5019739482519614,0.2950757227212036,0.802765937831137,0.7300846576690674,-0.5025951266288757,-0.4630058407783508,0,0,0,-1,-1,36637.88171716667,unknown,2,2025-04-22T15:56:34.717+03:00,2025-04-21T17:08:51.449+03:00,8324,1.051678,0,0,6918.726,7,22,2025-04-22T15:56:37.296+03:00,767019389.6593788,0,-14.73,100.3796,1,0.5,2025-04-22T15:55:58.312+03:00,109,1.816666666666667,2025-04-22T14:20:19.516+03:00,0.02197104130929222,0
2025-04-22T15:56:39.894+03:00,1745326597.963435,40.95226359885385,29.14032089484547,76.36396,-1,-1,-1,-1,30,21.30253868467173,-9999,36643.054634125,0.7404937744140625,-0.4921112060546875,-0.448089599609375,36643.044558125,0.4095340469954869,1.002923338521653,0.5321230638200443,0.3369230926036835,-0.3032865226268768,0.4410755932331085,0.02016270160675049,0.03511983156204224,0.005664288997650146,XArbitraryZVertical,0.1314372822481063,0.5009863302894658,0.2957839897481266,0.8026509686228296,0.72648024559021,-0.5073639750480652,-0.4634738862514496,0,0,0,-1,-1,36637.88171716667,unknown,2,2025-04-22T15:56:34.717+03:00,2025-04-21T17:08:51.449+03:00,8324,1.051678,0,0,6918.726,7,22,2025-04-22T15:56:37.296+03:00,767019389.6593788,0,-14.73,100.3796,1,0.5,2025-04-22T15:55:58.312+03:00,109,1.816666666666667,2025-04-22T14:20:19.516+03:00,0.02197104130929222,0
2025-04-22T15:56:39.905+03:00,1745326597.963435,40.95226359885385,29.14032089484547,76.36396,-1,-1,-1,-1,30,21.30253868467173,-9999,36643.064711125,0.7360992431640625,-0.4962005615234375,-0.45330810546875,36643.054634125,0.4090600375744635,1.000048235925808,0.5377275456876928,0.3316606879234314,-0.3158113658428192,0.4509897530078888,0.01859229803085327,0.02546077966690063,0.01405060291290283,XArbitraryZVertical,0.1343752343453723,0.4999347023777248,0.2965410284191584,0.8025409648869969,0.7227405905723572,-0.5121855735778809,-0.4640171825885773,0,0,0,-1,-1,36637.88171716667,unknown,2,2025-04-22T15:56:34.717+03:00,2025-04-21T17:08:51.449+03:00,8324,1.051678,0,0,6918.726,7,22,2025-04-22T15:56:37.296+03:00,767019389.6593788,0,-14.73,100.3796,1,0.5,2025-04-22T15:55:58.312+03:00,109,1.816666666666667,2025-04-22T14:20:19.516+03:00,0.02197104130929222,0
2025-04-22T15:56:39.914+03:00,1745326597.963435,40.95226359885385,29.14032089484547,76.36396,-1,-1,-1,-1,30,21.30253868467173,-9999,36643.074787125,0.724945068359375,-0.5023345947265625,-0.4613189697265625,36643.064711125,0.4087202209125971,0.9969795391984486,0.5433211640088563,0.3179512619972229,-0.3240748941898346,0.4525745809078217,0.01920211315155029,0.02017092704772949,0.01433753967285156,XArbitraryZVertical,0.1373052791241336,0.4988106699156116,0.2973267141562459,0.8024537315303383,0.7188959121704102,-0.5169817209243774,-0.4646703600883484,0,0,0,-1,-1,36637.88171716667,unknown,2,2025-04-22T15:56:34.717+03:00,2025-04-21T17:08:51.449+03:00,8324,1.051678,0,0,6918.726,7,22,2025-04-22T15:56:37.296+03:00,767019389.6593788,0,-14.73,100.3796,1,0.5,2025-04-22T15:55:58.312+03:00,109,1.816666666666667,2025-04-22T14:20:19.516+03:00,0.02197104130929222,0
2025-04-22T15:56:39.925+03:00,1745326597.963435,40.95226359885385,29.14032089484547,76.36396,-1,-1,-1,-1,30,21.30253868467173,-9999,36643.084863125,0.7215728759765625,-0.5062408447265625,-0.4666748046875,36643.074787125,0.4085040807073488,0.9937566150192175,0.5489018189388559,0.3137296438217163,-0.3355997204780579,0.4584793448448181,0.0143129825592041,0.02275794744491577,0.007517725229263306,XArbitraryZVertical,0.140223671313225,0.4976298990608995,0.2981383207113743,0.8023809413302671,0.7149654030799866,-0.5217506885528564,-0.4654036164283752,0,0,0,-1,-1,36637.88171716667,unknown,2,2025-04-22T15:56:34.717+03:00,2025-04-21T17:08:51.449+03:00,8324,1.051678,0,0,6918.726,7,22,2025-04-22T15:56:37.296+03:00,767019389.6593788,0,-14.73,100.3796,1,0.5,2025-04-22T15:55:58.312+03:00,109,1.816666666666667,2025-04-22T14:20:19.516+03:00,0.02197104130929222,0
2025-04-22T15:56:39.935+03:00,1745326597.963435,40.95226359885385,29.14032089484547,76.36396,-1,-1,-1,-1,30,21.30253868467173,-9999,36643.094940125,0.7150421142578125,-0.505279541015625,-0.4697113037109375,36643.084863125,0.40840721873298,0.9904006293358275,0.5544987585574632,0.3089953362941742,-0.3408805131912231,0.4613023102283478,0.01039755344390869,0.01948302984237671,0.001012206077575684,XArbitraryZVertical,0.1431412207913165,0.4964017496722858,0.2989806888363705,0.8023131049186176,0.7109463214874268,-0.5265172123908997,-0.4661917984485626,0,0,0,-1,-1,36637.88171716667,unknown,2,2025-04-22T15:56:34.717+03:00,2025-04-21T17:08:51.449+03:00,8324,1.051678,0,0,6918.726,7,22,2025-04-22T15:56:37.296+03:00,767019389.6593788,0,-14.73,100.3796,1,0.5,2025-04-22T15:55:58.312+03:00,109,1.816666666666667,2025-04-22T14:20:19.516+03:00,0.02197104130929222,0
2025-04-22T15:56:39.945+03:00,1745326597.963435,40.95226359885385,29.14032089484547,76.36396,-1,-1,-1,-1,30,21.30253868467173,-9999,36643.105016125,0.7040252685546875,-0.5117034912109375,-0.467864990234375,36643.094940125,0.4083163777653813,0.9869914427342004,0.5601488850418321,0.3183342516422272,-0.3459314703941345,0.4649436473846436,0.0120430588722229,0.02789443731307983,-0.002303361892700195,XArbitraryZVertical,0.1460901023206394,0.4951513734292403,0.2998209251591991,0.8022406931458641,0.7068594098091125,-0.5313123464584351,-0.4669655859470367,0,0,0,-1,-1,36637.88171716667,unknown,2,2025-04-22T15:56:34.717+03:00,2025-04-21T17:08:51.449+03:00,8324,1.051678,0,0,6918.726,7,22,2025-04-22T15:56:37.296+03:00,767019389.6593788,0,-14.73,100.3796,1,0.5,2025-04-22T15:55:58.312+03:00,109,1.816666666666667,2025-04-22T14:20:19.516+03:00,0.02197104130929222,0
2025-04-22T15:56:39.955+03:00,1745326597.963435,40.95226359885385,29.14032089484547,76.36396,-1,-1,-1,-1,30,21.30253868467173,-9999,36643.115092125,0.7056884765625,-0.517486572265625,-0.4613800048828125,36643.105016125,0.4081735989056067,0.9835649207334805,0.5658320997436935,0.3268246650695801,-0.3495357930660248,0.4633830487728119,0.005155503749847412,0.02633768320083618,-0.001656204462051392,XArbitraryZVertical,0.1490706771785428,0.4938884263777112,0.3006340917747664,0.8021665295014833,0.7027300596237183,-0.5361183881759644,-0.4677042961120605,0,0,0,-1,-1,36637.88171716667,unknown,2,2025-04-22T15:56:34.717+03:00,2025-04-21T17:08:51.449+03:00,8324,1.051678,0,0,6918.726,7,22,2025-04-22T15:56:37.296+03:00,767019389.6593788,0,-14.73,100.3796,1,0.5,2025-04-22T15:55:58.312+03:00,109,1.816666666666667,2025-04-22T14:20:19.516+03:00,0.02197104130929222,0
