loggingTime(txt),locationTimestamp_since1970(s),locationLatitude(WGS84),locationLongitude(WGS84),locationAltitude(m),locationSpeed(m/s),locationSpeedAccuracy(m/s),locationCourse(°),locationCourseAccuracy(°),locationVerticalAccuracy(m),locationHorizontalAccuracy(m),locationFloor(Z),accelerometerTimestamp_sinceReboot(s),accelerometerAccelerationX(G),accelerometerAccelerationY(G),accelerometerAccelerationZ(G),motionTimestamp_sinceReboot(s),motionYaw(rad),motionRoll(rad),motionPitch(rad),motionRotationRateX(rad/s),motionRotationRateY(rad/s),motionRotationRateZ(rad/s),motionUserAccelerationX(G),motionUserAccelerationY(G),motionUserAccelerationZ(G),motionAttitudeReferenceFrame(txt),motionQuaternionX(R),motionQuaternionY(R),motionQuaternionZ(R),motionQuaternionW(R),motionGravityX(G),motionGravityY(G),motionGravityZ(G),motionMagneticFieldX(µT),motionMagneticFieldY(µT),motionMagneticFieldZ(µT),motionHeading(°),motionMagneticFieldCalibrationAccuracy(Z),activityTimestamp_sinceReboot(s),activity(txt),activityActivityConfidence(Z),activityActivityStartDate(txt),pedometerStartDate(txt),pedometerNumberofSteps(N),pedometerAverageActivePace(s/m),pedometerCurrentPace(s/m),pedometerCurrentCadence(steps/s),pedometerDistance(m),pedometerFloorAscended(N),pedometerFloorDescended(N),pedometerEndDate(txt),altimeterTimestamp_sinceReboot(s),altimeterReset(bool),altimeterRelativeAltitude(m),altimeterPressure(kPa),batteryState(N),batteryLevel(R),heartRateBPMTimestamp(txt),heartRateBPM(N),heartRateBPS(R),heartRateVariabilityTimestamp(txt),heartRateVariability(ms),label
2025-04-22T15:35:06.024+03:00,1745325304.300193,40.95227366424168,29.14030080800874,76.50296,-1,-1,-1,-1,30,29.46666746656674,-9999,35852.50793154167,-0.7984161376953125,0.567535400390625,-0.24029541015625,35852.49785554167,-2.879215637840926,-1.236828367076077,-0.6008848275032656,0.01301533635705709,0.01326763071119785,1.221074489876628e-05,0.009243249893188477,-0.05218905210494995,0.006017744541168213,XArbitraryZVertical,-0.580559352915758,0.1666212141136429,-0.7491688857798005,0.2719081793111817,-0.7792626619338989,0.5653725266456604,-0.2703764140605927,0,0,0,-1,-1,35848.91196654167,unknown,2,2025-04-22T15:35:02.393+03:00,2025-04-21T17:08:51.449+03:00,8251,1.040753,0,0,6864.177,7,22,2025-04-22T15:32:35.359+03:00,767018105.0627543,0,-15.57999,100.3896,1,0.55,2025-04-22T15:34:05.734+03:00,77.00000000000001,1.283333333333333,2025-04-22T14:20:19.516+03:00,0.02197104130929222,0
2025-04-22T15:35:06.026+03:00,1745325304.300193,40.95227366424168,29.14030080800874,76.50296,-1,-1,-1,-1,30,29.46666746656674,-9999,35852.51800754167,-0.7692413330078125,0.5163116455078125,-0.2422332763671875,35852.50793154167,-2.879363248416725,-1.236837648430775,-0.6010034793712874,-0.04149264842271805,0.0006003044545650482,0.01325717568397522,-0.02267789840698242,-0.005244076251983643,0.02893772721290588,XArbitraryZVertical,-0.5805464739700006,0.1667099065532437,-0.7491677864779372,0.2718843598507463,-0.7792018055915833,0.5654703974723816,-0.2703472077846527,0,0,0,-1,-1,35848.91196654167,unknown,2,2025-04-22T15:35:02.393+03:00,2025-04-21T17:08:51.449+03:00,8251,1.040753,0,0,6864.177,7,22,2025-04-22T15:32:35.359+03:00,767018105.0627543,0,-15.57999,100.3896,1,0.55,2025-04-22T15:34:05.734+03:00,77.00000000000001,1.283333333333333,2025-04-22T14:20:19.516+03:00,0.02197104130929222,0
2025-04-22T15:35:06.027+03:00,1745325304.300193,40.95227366424168,29.14030080800874,76.50296,-1,-1,-1,-1,30,29.46666746656674,-9999,35852.52808454167,-0.7725677490234375,0.5367889404296875,-0.2505035400390625,35852.51800754167,-2.879988452856834,-1.237248816695763,-0.6012790572991188,-0.06430076062679291,0.002879704115912318,0.01731143891811371,-0.01598501205444336,-0.005776524543762207,0.02969539165496826,XArbitraryZVertical,-0.5806388829548961,0.1669449179508018,-0.7490904840556424,0.2717557962815767,-0.7791656255722046,0.5656976699829102,-0.2699757516384125,0,0,0,-1,-1,35848.91196654167,unknown,2,2025-04-22T15:35:02.393+03:00,2025-04-21T17:08:51.449+03:00,8251,1.040753,0,0,6864.177,7,22,2025-04-22T15:32:35.359+03:00,767018105.0627543,0,-15.57999,100.3896,1,0.55,2025-04-22T15:34:05.734+03:00,77.00000000000001,1.283333333333333,2025-04-22T14:20:19.516+03:00,0.02197104130929222,0
2025-04-22T15:35:06.028+03:00,1745325304.300193,40.95227366424168,29.14030080800874,76.50296,-1,-1,-1,-1,30,29.46666746656674,-9999,35852.53816054167,-0.7872772216796875,0.56903076171875,-0.2629547119140625,35852.52808454167,-2.880545352279724,-1.237434452102024,-0.6016519349423319,-0.04737343639135361,0.02103846706449986,0.02545219101011753,0.01152992248535156,-0.0505937933921814,0.02719295024871826,XArbitraryZVertical,-0.5806490269679976,0.1672293775242424,-0.7490542070443597,0.2716592561849799,-0.779016375541687,0.5660051107406616,-0.2697620987892151,0,0,0,-1,-1,35848.91196654167,unknown,2,2025-04-22T15:35:02.393+03:00,2025-04-21T17:08:51.449+03:00,8251,1.040753,0,0,6864.177,7,22,2025-04-22T15:32:35.359+03:00,767018105.0627543,0,-15.57999,100.3896,1,0.55,2025-04-22T15:34:05.734+03:00,77.00000000000001,1.283333333333333,2025-04-22T14:20:19.516+03:00,0.02197104130929222,0
2025-04-22T15:35:06.034+03:00,1745325304.300193,40.95227366424168,29.14030080800874,76.50296,-1,-1,-1,-1,30,29.46666746656674,-9999,35852.54823754167,-0.7789154052734375,0.5774688720703125,-0.2747802734375,35852.53816054167,-2.880884441705542,-1.237381719679888,-0.6020579888887111,-0.02982094325125217,0.01902098953723907,0.02245446853339672,0.003608047962188721,-0.02431714534759521,0.01759156584739685,XArbitraryZVertical,-0.5805868281151202,0.1674961190303439,-0.7490524553579295,0.271632970541136,-0.7787850499153137,0.5663397908210754,-0.2697279751300812,0,0,0,-1,-1,35848.91196654167,unknown,2,2025-04-22T15:35:02.393+03:00,2025-04-21T17:08:51.449+03:00,8251,1.040753,0,0,6864.177,7,22,2025-04-22T15:32:35.359+03:00,767018105.0627543,0,-15.57999,100.3896,1,0.55,2025-04-22T15:34:05.734+03:00,77.00000000000001,1.283333333333333,2025-04-22T14:20:19.516+03:00,0.02197104130929222,0
2025-04-22T15:35:06.045+03:00,1745325304.300193,40.95227366424168,29.14030080800874,76.50296,-1,-1,-1,-1,30,29.46666746656674,-9999,35852.55831354167,-0.77227783203125,0.5803070068359375,-0.2819671630859375,35852.54823754167,-2.881028167435385,-1.237259288394744,-0.602303969113644,-0.006947586312890053,0.01312448550015688,0.0137411393225193,-0.009175717830657959,0.004563391208648682,0.005403727293014526,XArbitraryZVertical,-0.5805203966208181,0.1676520980084191,-0.7490691643273601,0.2716325634466339,-0.7786203026771545,0.5665425062179565,-0.2697776854038239,0,0,0,-1,-1,35848.91196654167,unknown,2,2025-04-22T15:35:02.393+03:00,2025-04-21T17:08:51.449+03:00,8251,1.040753,0,0,6864.177,7,22,2025-04-22T15:32:35.359+03:00,767018105.0627543,0,-15.57999,100.3896,1,0.55,2025-04-22T15:34:05.734+03:00,77.00000000000001,1.283333333333333,2025-04-22T14:20:19.516+03:00,0.02197104130929222,0
2025-04-22T15:35:06.054+03:00,1745325304.300193,40.95227366424168,29.14030080800874,76.50296,-1,-1,-1,-1,30,29.46666746656674,-9999,35852.56838954167,-0.7744903564453125,0.5816497802734375,-0.2825469970703125,35852.55831354167,-2.880915607445186,-1.23700809642004,-0.6024011648399514,0.01463114283978939,0.01798122562468052,0.008481362834572792,0.0002260804176330566,0.01119714975357056,-0.006076455116271973,XArbitraryZVertical,-0.5804323730114884,0.1676921215318014,-0.749111656176094,0.2716788203842501,-0.778500497341156,0.5666226148605347,-0.2699552178382874,0,0,0,-1,-1,35848.91196654167,unknown,2,2025-04-22T15:35:02.393+03:00,2025-04-21T17:08:51.449+03:00,8251,1.040753,0,0,6864.177,7,22,2025-04-22T15:32:35.359+03:00,767018105.0627543,0,-15.57999,100.3896,1,0.55,2025-04-22T15:34:05.734+03:00,77.00000000000001,1.283333333333333,2025-04-22T14:20:19.516+03:00,0.02197104130929222,0
2025-04-22T15:35:06.064+03:00,1745325304.300193,40.95227366424168,29.14030080800874,76.50296,-1,-1,-1,-1,30,29.46666746656674,-9999,35852.57846654167,-0.7763824462890625,0.5766143798828125,-0.27587890625,35852.56838954167,-2.880587701372953,-1.236606329367175,-0.602391006805324,0.03133368864655495,0.019759152084589,0.004676770884543657,0.00660783052444458,0.01404368877410889,-0.01204845309257507,XArbitraryZVertical,-0.5803097292625988,0.1676475282489994,-0.7491852269466416,0.27176533640545,-0.7783973813056946,0.5666142702102661,-0.2702698409557343,0,0,0,-1,-1,35848.91196654167,unknown,2,2025-04-22T15:35:02.393+03:00,2025-04-21T17:08:51.449+03:00,8251,1.040753,0,0,6864.177,7,22,2025-04-22T15:32:35.359+03:00,767018105.0627543,0,-15.57999,100.3896,1,0.55,2025-04-22T15:34:05.734+03:00,77.00000000000001,1.283333333333333,2025-04-22T14:20:19.516+03:00,0.02197104130929222,0
2025-04-22T15:35:06.074+03:00,1745325304.300193,40.95227366424168,29.14030080800874,76.50296,-1,-1,-1,-1,30,29.46666746656674,-9999,35852.58854254167,-0.77593994140625,0.5677337646484375,-0.269744873046875,35852.57846654167,-2.880220063491018,-1.236182956199892,-0.6022993061778581,0.03333865106105804,0.02313271164894104,0.003203576663509011,0.003979086875915527,0.01440912485122681,-0.01110672950744629,XArbitraryZVertical,-0.5801851017352699,0.167561994710686,-0.7492724202320613,0.2718438605612983,-0.778331995010376,0.5665386915206909,-0.2706164419651031,0,0,0,-1,-1,35848.91196654167,unknown,2,2025-04-22T15:35:02.393+03:00,2025-04-21T17:08:51.449+03:00,8251,1.040753,0,0,6864.177,7,22,2025-04-22T15:32:35.359+03:00,767018105.0627543,0,-15.57999,100.3896,1,0.55,2025-04-22T15:34:05.734+03:00,77.00000000000001,1.283333333333333,2025-04-22T14:20:19.516+03:00,0.02197104130929222,0
2025-04-22T15:35:06.084+03:00,1745325304.300193,40.95227366424168,29.14030080800874,76.50296,-1,-1,-1,-1,30,29.46666746656674,-9999,35852.59861854167,-0.7781982421875,0.5594024658203125,-0.265228271484375,35852.58854254167,-2.879877557285535,-1.235767995232787,-0.6022070433932404,0.02588925696909428,0.02516576834022999,0.0009414875530637801,0.002359628677368164,0.00874781608581543,-0.00432741641998291,XArbitraryZVertical,-0.5800614993855079,0.1674824217630679,-0.749360609832191,0.2719135722262006,-0.7782689929008484,0.5664626359939575,-0.2709565758705139,0,0,0,-1,-1,35848.91196654167,unknown,2,2025-04-22T15:35:02.393+03:00,2025-04-21T17:08:51.449+03:00,8251,1.040753,0,0,6864.177,7,22,2025-04-22T15:32:35.359+03:00,767018105.0627543,0,-15.57999,100.3896,1,0.55,2025-04-22T15:34:05.734+03:00,77.00000000000001,1.283333333333333,2025-04-22T14:20:19.516+03:00,0.02197104130929222,0
2025-04-22T15:35:06.094+03:00,1745325304.300193,40.95227366424168,29.14030080800874,76.50296,-1,-1,-1,-1,30,29.46666746656674,-9999,35852.60869554167,-0.77703857421875,0.556793212890625,-0.267120361328125,35852.59861854167,-2.879622219163906,-1.235399345558423,-0.6021420735814568,0.02146641165018082,0.02554833143949509,0.001969401258975267,0.001760363578796387,-4.869699478149414e-05,0.002563416957855225,XArbitraryZVertical,-0.5799469808041159,0.1674327032689552,-0.7494428927184306,0.271961591084097,-0.7782037854194641,0.5664091110229492,-0.2712555825710297,0,0,0,-1,-1,35848.91196654167,unknown,2,2025-04-22T15:35:02.393+03:00,2025-04-21T17:08:51.449+03:00,8251,1.040753,0,0,6864.177,7,22,2025-04-22T15:32:35.359+03:00,767018105.0627543,0,-15.57999,100.3896,1,0.55,2025-04-22T15:34:05.734+03:00,77.00000000000001,1.283333333333333,2025-04-22T14:20:19.516+03:00,0.02197104130929222,0
2025-04-22T15:35:06.105+03:00,1745325304.300193,40.95227366424168,29.14030080800874,76.50296,-1,-1,-1,-1,30,29.46666746656674,-9999,35852.61877154167,-0.773529052734375,0.5585479736328125,-0.2738037109375,35852.60869554167,-2.879438932449164,-1.235095761133438,-0.6020947523364784,0.01053679827600718,0.01825233548879623,0.004858664236962795,0.0005589127540588379,-0.008157908916473389,0.005814433097839355,XArbitraryZVertical,-0.5798501784601141,0.1674020466939331,-0.7495133842326338,0.2719926367569649,-0.7781466841697693,0.5663701295852661,-0.2715006470680237,0,0,0,-1,-1,35848.91196654167,unknown,2,2025-04-22T15:35:02.393+03:00,2025-04-21T17:08:51.449+03:00,8251,1.040753,0,0,6864.177,7,22,2025-04-22T15:32:35.359+03:00,767018105.0627543,0,-15.57999,100.3896,1,0.55,2025-04-22T15:34:05.734+03:00,77.00000000000001,1.283333333333333,2025-04-22T14:20:19.516+03:00,0.02197104130929222,0
2025-04-22T15:35:06.115+03:00,1745325304.300193,40.95227366424168,29.14030080800874,76.50296,-1,-1,-1,-1,30,29.46666746656674,-9999,35852.62884754167,-0.768157958984375,0.560882568359375,-0.279632568359375,35852.61877154167,-2.879319667854183,-1.234913248835005,-0.6020651735419958,0.0114415418356657,0.008850377984344959,0.001301114214584231,0.001288056373596191,-0.009644091129302979,0.003139108419418335,XArbitraryZVertical,-0.5797927672066781,0.167380536099483,-0.7495547364094566,0.2720144161704909,-0.7781130075454712,0.566345751285553,-0.2716481983661652,0,0,0,-1,-1,35848.91196654167,unknown,2,2025-04-22T15:35:02.393+03:00,2025-04-21T17:08:51.449+03:00,8251,1.040753,0,0,6864.177,7,22,2025-04-22T15:32:35.359+03:00,767018105.0627543,0,-15.57999,100.3896,1,0.55,2025-04-22T15:34:05.734+03:00,77.00000000000001,1.283333333333333,2025-04-22T14:20:19.516+03:00,0.02197104130929222,0
2025-04-22T15:35:06.125+03:00,1745325304.300193,40.95227366424168,29.14030080800874,76.50296,-1,-1,-1,-1,30,29.46666746656674,-9999,35852.63892454167,-0.767333984375,0.560760498046875,-0.282806396484375,35852.62884754167,-2.879196207857026,-1.234792938160986,-0.6020268346215307,0.01198748964816332,0.003069720463827252,-0.002084562554955482,0.006189227104187012,-0.007781445980072021,-0.002314299345016479,XArbitraryZVertical,-0.5797593160323204,0.1673458782116372,-0.7495788181620651,0.2720407169883804,-0.778100848197937,0.566314160823822,-0.2717489898204803,0,0,0,-1,-1,35848.91196654167,unknown,2,2025-04-22T15:35:02.393+03:00,2025-04-21T17:08:51.449+03:00,8251,1.040753,0,0,6864.177,7,22,2025-04-22T15:32:35.359+03:00,767018105.0627543,0,-15.57999,100.3896,1,0.55,2025-04-22T15:34:05.734+03:00,77.00000000000001,1.283333333333333,2025-04-22T14:20:19.516+03:00,0.02197104130929222,0
2025-04-22T15:35:06.135+03:00,1745325304.300193,40.95227366424168,29.14030080800874,76.50296,-1,-1,-1,-1,30,29.46666746656674,-9999,35852.64900054167,-0.7721405029296875,0.5586090087890625,-0.2847900390625,35852.63892454167,-2.879026724436263,-1.234675398478127,-0.6019690332936881,0.01624495163559914,-0.0005528447218239307,-0.002543225418776274,0.01105570793151855,-0.005139827728271484,-0.008544474840164185,XArbitraryZVertical,-0.5797314125544546,0.16728977496457,-0.7495988631674306,0.2720794785020109,-0.7780997753143311,0.5662664771080017,-0.2718512415885925,0,0,0,-1,-1,35848.91196654167,unknown,2,2025-04-22T15:35:02.393+03:00,2025-04-21T17:08:51.449+03:00,8251,1.040753,0,0,6864.177,7,22,2025-04-22T15:32:35.359+03:00,767018105.0627543,0,-15.57999,100.3896,1,0.55,2025-04-22T15:34:05.734+03:00,77.00000000000001,1.283333333333333,2025-04-22T14:20:19.516+03:00,0.02197104130929222,0
2025-04-22T15:35:06.145+03:00,1745325304.300193,40.95227366424168,29.14030080800874,76.50296,-1,-1,-1,-1,30,29.46666746656674,-9999,35852.65907754167,-0.7772064208984375,0.563262939453125,-0.2842254638671875,35852.64900054167,-2.878753783686734,-1.23449067621405,-0.6018902436711183,0.0291098840534687,-0.0006385981105268002,-0.002319519873708487,0.009613215923309326,-0.006570339202880859,-0.01096481084823608,XArbitraryZVertical,-0.5796877054590125,0.1672045215325868,-0.7496273866835577,0.2721459926970963,-0.7780914902687073,0.5662015676498413,-0.2720096111297607,0,0,0,-1,-1,35848.91196654167,unknown,2,2025-04-22T15:35:02.393+03:00,2025-04-21T17:08:51.449+03:00,8251,1.040753,0,0,6864.177,7,22,2025-04-22T15:32:35.359+03:00,767018105.0627543,0,-15.57999,100.3896,1,0.55,2025-04-22T15:34:05.734+03:00,77.00000000000001,1.283333333333333,2025-04-22T14:20:19.516+03:00,0.02197104130929222,0
2025-04-22T15:35:06.155+03:00,1745325304.300193,40.95227366424168,29.14030080800874,76.50296,-1,-1,-1,-1,30,29.46666746656674,-9999,35852.66915354167,-0.778045654296875,0.5623626708984375,-0.282379150390625,35852.65907754167,-2.878365480597713,-1.234257520987659,-0.6017745299153835,0.03713112697005272,-0.001275293529033661,-0.004228440579026937,0.005003511905670166,-0.006535947322845459,-0.01199772953987122,XArbitraryZVertical,-0.5796366970390777,0.1670777402675202,-0.7496601465205067,0.2722421833036819,-0.7780898213386536,0.5661061406135559,-0.2722126543521881,0,0,0,-1,-1,35848.91196654167,unknown,2,2025-04-22T15:35:02.393+03:00,2025-04-21T17:08:51.449+03:00,8251,1.040753,0,0,6864.177,7,22,2025-04-22T15:32:35.359+03:00,767018105.0627543,0,-15.57999,100.3896,1,0.55,2025-04-22T15:34:05.734+03:00,77.00000000000001,1.283333333333333,2025-04-22T14:20:19.516+03:00,0.02197104130929222,0
2025-04-22T15:35:06.166+03:00,1745325304.300193,40.95227366424168,29.14030080800874,76.50296,-1,-1,-1,-1,30,29.46666746656674,-9999,35852.67922954167,-0.7760009765625,0.5574951171875,-0.2808990478515625,35852.66915354167,-2.877894247324165,-1.233981996596535,-0.6016151792983031,0.04782398417592049,0.0006605582311749458,-0.004827118944376707,0.000817418098449707,-0.002284646034240723,-0.01187556982040405,XArbitraryZVertical,-0.5795781499651484,0.1669153564819046,-0.7497007777711394,0.2723546912182906,-0.7781000137329102,0.5659747719764709,-0.2724568545818329,0,0,0,-1,-1,35848.91196654167,unknown,2,2025-04-22T15:35:02.393+03:00,2025-04-21T17:08:51.449+03:00,8251,1.040753,0,0,6864.177,7,22,2025-04-22T15:32:35.359+03:00,767018105.0627543,0,-15.57999,100.3896,1,0.55,2025-04-22T15:34:05.734+03:00,77.00000000000001,1.283333333333333,2025-04-22T14:20:19.516+03:00,0.02197104130929222,0
2025-04-22T15:35:06.175+03:00,1745325304.300193,40.95227366424168,29.14030080800874,76.50296,-1,-1,-1,-1,30,29.46666746656674,-9999,35852.68930654167,-0.7762908935546875,0.555511474609375,-0.2769927978515625,35852.67922954167,-2.877357500027517,-1.233671654346951,-0.6014278297246519,0.04892453551292419,0.002731032902374864,0.0004855543375015259,0.0003293156623840332,-0.004388570785522461,-0.009783297777175903,XArbitraryZVertical,-0.5795129013246771,0.1667276450231125,-0.7497468001351391,0.272481681364338,-0.778115451335907,0.5658203363418579,-0.2727333903312683,0,0,0,-1,-1,35848.91196654167,unknown,2,2025-04-22T15:35:02.393+03:00,2025-04-21T17:08:51.449+03:00,8251,1.040753,0,0,6864.177,7,22,2025-04-22T15:32:35.359+03:00,767018105.0627543,0,-15.57999,100.3896,1,0.55,2025-04-22T15:34:05.734+03:00,77.00000000000001,1.283333333333333,2025-04-22T14:20:19.516+03:00,0.02197104130929222,0
2025-04-22T15:35:06.185+03:00,1745325304.300193,40.95227366424168,29.14030080800874,76.50296,-1,-1,-1,-1,30,29.46666746656674,-9999,35852.69938254167,-0.77392578125,0.5539398193359375,-0.2748565673828125,35852.68930654167,-2.876849525465814,-1.233374188062664,-0.6012759093764282,0.03917363658547401,0.001678551780059934,0.002337783109396696,0.001870393753051758,-0.008596837520599365,-0.007829636335372925,XArbitraryZVertical,-0.5794488067260022,0.1665606178675107,-0.7497874834461941,0.2726081495590265,-0.7781153321266174,0.56569504737854,-0.2729932963848114,0,0,0,-1,-1,35848.91196654167,unknown,2,2025-04-22T15:35:02.393+03:00,2025-04-21T17:08:51.449+03:00,8251,1.040753,0,0,6864.177,7,22,2025-04-22T15:32:35.359+03:00,767018105.0627543,0,-15.57999,100.3896,1,0.55,2025-04-22T15:34:05.734+03:00,77.00000000000001,1.283333333333333,2025-04-22T14:20:19.516+03:00,0.02197104130929222,0
2025-04-22T15:35:06.195+03:00,1745325304.300193,40.95227366424168,29.14030080800874,76.50296,-1,-1,-1,-1,30,29.46666746656674,-9999,35852.70945954167,-0.772735595703125,0.5507659912109375,-0.27099609375,35852.69938254167,-2.876437527372551,-1.233127471643745,-0.6011590185298403,0.03339564427733421,0.001353646162897348,0.002349900314584374,0.0018654465675354,-0.01114016771316528,-0.003480672836303711,XArbitraryZVertical,-0.5793945041253973,0.166428411993897,-0.7498211373335744,0.2727119334246274,-0.7781104445457458,0.5655986666679382,-0.2732071876525879,0,0,0,-1,-1,35848.91196654167,unknown,2,2025-04-22T15:35:02.393+03:00,2025-04-21T17:08:51.449+03:00,8251,1.040753,0,0,6864.177,7,22,2025-04-22T15:32:35.359+03:00,767018105.0627543,0,-15.57999,100.3896,1,0.55,2025-04-22T15:34:05.734+03:00,77.00000000000001,1.283333333333333,2025-04-22T14:20:19.516+03:00,0.02197104130929222,0
2025-04-22T15:35:06.206+03:00,1745325304.300193,40.95227366424168,29.14030080800874,76.50296,-1,-1,-1,-1,30,29.46666746656674,-9999,35852.71953554167,-0.7748870849609375,0.548095703125,-0.2664947509765625,35852.70945954167,-2.876127865714753,-1.232929670330726,-0.601106751629861,0.01777886599302292,0.004378996789455414,0.005098282359540462,0.004173874855041504,-0.0117073655128479,-0.0009213089942932129,XArbitraryZVertical,-0.5793478524397297,0.1663449110173456,-0.7498443298956032,0.2727981047420207,-0.7780842781066895,0.5655555725097656,-0.2733708620071411,0,0,0,-1,-1,35848.91196654167,unknown,2,2025-04-22T15:35:02.393+03:00,2025-04-21T17:08:51.449+03:00,8251,1.040753,0,0,6864.177,7,22,2025-04-22T15:32:35.359+03:00,767018105.0627543,0,-15.57999,100.3896,1,0.55,2025-04-22T15:34:05.734+03:00,77.00000000000001,1.283333333333333,2025-04-22T14:20:19.516+03:00,0.02197104130929222,0
2025-04-22T15:35:06.215+03:00,1745325304.300193,40.95227366424168,29.14030080800874,76.50296,-1,-1,-1,-1,30,29.46666746656674,-9999,35852.72961154167,-0.7725677490234375,0.551239013671875,-0.2663116455078125,35852.71953554167,-2.87591896144125,-1.23275759541103,-0.6011095818618712,0.0118115209043026,0.002311585238203406,0.005415731575340033,0.004888236522674561,-0.01538711786270142,0.004018545150756836,XArbitraryZVertical,-0.5793006099050679,0.1663089897804513,-0.7498652855403773,0.2728628465296709,-0.7780357599258423,0.5655578970909119,-0.2735042572021484,0,0,0,-1,-1,35848.91196654167,unknown,2,2025-04-22T15:35:02.393+03:00,2025-04-21T17:08:51.449+03:00,8251,1.040753,0,0,6864.177,7,22,2025-04-22T15:32:35.359+03:00,767018105.0627543,0,-15.57999,100.3896,1,0.55,2025-04-22T15:34:05.734+03:00,77.00000000000001,1.283333333333333,2025-04-22T14:20:19.516+03:00,0.02197104130929222,0
2025-04-22T15:35:06.225+03:00,1745325304.300193,40.95227366424168,29.14030080800874,76.50296,-1,-1,-1,-1,30,29.46666746656674,-9999,35852.73968854167,-0.773284912109375,0.55828857421875,-0.268096923828125,35852.72961154167,-2.87577485323178,-1.232625954343977,-0.6011270864615449,0.00668813195079565,0.003445825539529324,0.005813075229525566,0.003851056098937988,-0.01744616031646729,0.007764548063278198,XArbitraryZVertical,-0.5792626477144739,0.1662921620686059,-0.7498810745780515,0.2729104405679957,-0.777990460395813,0.5655723214149475,-0.2736034095287323,0,0,0,-1,-1,35848.91196654167,unknown,2,2025-04-22T15:35:02.393+03:00,2025-04-21T17:08:51.449+03:00,8251,1.040753,0,0,6864.177,7,22,2025-04-22T15:32:35.359+03:00,767018105.0627543,0,-15.57999,100.3896,1,0.55,2025-04-22T15:34:05.734+03:00,77.00000000000001,1.283333333333333,2025-04-22T14:20:19.516+03:00,0.02197104130929222,0
2025-04-22T15:35:06.235+03:00,1745325304.300193,40.95227366424168,29.14030080800874,76.50296,-1,-1,-1,-1,30,29.46666746656674,-9999,35852.74976454167,-0.7736968994140625,0.560028076171875,-0.269500732421875,35852.73968854167,-2.87567712841793,-1.232521666783372,-0.6011461127557518,0.004138021729886532,0.002538353437557817,0.002247568219900131,0.005353569984436035,-0.01378452777862549,0.007155478000640869,XArbitraryZVertical,-0.5792310450413627,0.1662856622144746,-0.7498949272284693,0.2729433130267943,-0.777951717376709,0.5655880570411682,-0.2736809551715851,0,0,0,-1,-1,35848.91196654167,unknown,2,2025-04-22T15:35:02.393+03:00,2025-04-21T17:08:51.449+03:00,8251,1.040753,0,0,6864.177,7,22,2025-04-22T15:32:35.359+03:00,767018105.0627543,0,-15.57999,100.3896,1,0.55,2025-04-22T15:34:05.734+03:00,77.00000000000001,1.283333333333333,2025-04-22T14:20:19.516+03:00,0.02197104130929222,0
2025-04-22T15:35:06.246+03:00,1745325304.300193,40.95227366424168,29.14030080800874,76.50296,-1,-1,-1,-1,30,29.46666746656674,-9999,35852.75984054167,-0.772735595703125,0.561370849609375,-0.271026611328125,35852.74976454167,-2.875567253620786,-1.232425975441023,-0.601124258207046,0.01008805632591248,-0.002296349033713341,-0.0002587325870990753,0.00434720516204834,-0.006854236125946045,0.005723416805267334,XArbitraryZVertical,-0.5792050213821124,0.166258207515876,-0.7499110830333205,0.2729709257519001,-0.7779372334480286,0.5655699968338013,-0.273759514093399,0,0,0,-1,-1,35848.91196654167,unknown,2,2025-04-22T15:35:02.393+03:00,2025-04-21T17:08:51.449+03:00,8251,1.040753,0,0,6864.177,7,22,2025-04-22T15:32:35.359+03:00,767018105.0627543,0,-15.57999,100.3896,1,0.55,2025-04-22T15:34:05.734+03:00,77.00000000000001,1.283333333333333,2025-04-22T14:20:19.516+03:00,0.02197104130929222,0
2025-04-22T15:35:06.256+03:00,1745325304.300193,40.95227366424168,29.14030080800874,76.50296,-1,-1,-1,-1,30,29.46666746656674,-9999,35852.76991754167,-0.767181396484375,0.562255859375,-0.2755889892578125,35852.75984054167,-2.875417847827769,-1.232357165035449,-0.6010854677007422,0.0123438872396946,-0.004813435953110456,0.001142955617979169,0.004486322402954102,-0.005052268505096436,0.004853427410125732,XArbitraryZVertical,-0.5791929294311775,0.1662089170224645,-0.749916619396933,0.2730112379872751,-0.7779390215873718,0.5655379891395569,-0.2738202810287476,0,0,0,-1,-1,35848.91196654167,unknown,2,2025-04-22T15:35:02.393+03:00,2025-04-21T17:08:51.449+03:00,8251,1.040753,0,0,6864.177,7,22,2025-04-22T15:32:35.359+03:00,767018105.0627543,0,-15.57999,100.3896,1,0.55,2025-04-22T15:34:05.734+03:00,77.00000000000001,1.283333333333333,2025-04-22T14:20:19.516+03:00,0.02197104130929222,0
2025-04-22T15:35:06.266+03:00,1745325304.300193,40.95227366424168,29.14030080800874,76.50296,-1,-1,-1,-1,30,29.46666746656674,-9999,35852.77999354167,-0.76904296875,0.5582427978515625,-0.274505615234375,35852.76991754167,-2.875252927237672,-1.232300963565518,-0.6010211190238341,0.01442062016576529,-0.005084545817226171,-0.001150558702647686,0.005878567695617676,-0.004266738891601562,0.002650976181030273,XArbitraryZVertical,-0.5791876859846197,0.1661432405358835,-0.7499204382080514,0.2730518352962977,-0.7779579162597656,0.5654849410057068,-0.2738761007785797,0,0,0,-1,-1,35848.91196654167,unknown,2,2025-04-22T15:35:02.393+03:00,2025-04-21T17:08:51.449+03:00,8251,1.040753,0,0,6864.177,7,22,2025-04-22T15:32:35.359+03:00,767018105.0627543,0,-15.57999,100.3896,1,0.55,2025-04-22T15:34:05.734+03:00,77.00000000000001,1.283333333333333,2025-04-22T14:20:19.516+03:00,0.02197104130929222,0
2025-04-22T15:35:06.276+03:00,1745325304.300193,40.95227366424168,29.14030080800874,76.50296,-1,-1,-1,-1,30,29.46666746656674,-9999,35852.79007054167,-0.7715911865234375,0.5573577880859375,-0.2708282470703125,35852.77999354167,-2.875068001532724,-1.232246098155545,-0.6009359908286284,0.01733771339058876,-0.006945429835468531,0.0004306266200728714,0.01033395528793335,-0.003128468990325928,-0.002310514450073242,XArbitraryZVertical,-0.5791852856217788,0.166063331413948,-0.7499243477628912,0.2730946981648623,-0.7779882550239563,0.5654147267341614,-0.2739347517490387,0,0,0,-1,-1,35848.91196654167,unknown,2,2025-04-22T15:35:02.393+03:00,2025-04-21T17:08:51.449+03:00,8251,1.040753,0,0,6864.177,7,22,2025-04-22T15:32:35.359+03:00,767018105.0627543,0,-15.57999,100.3896,1,0.55,2025-04-22T15:34:05.734+03:00,77.00000000000001,1.283333333333333,2025-04-22T14:20:19.516+03:00,0.02197104130929222,0
2025-04-22T15:35:06.286+03:00,1745325304.300193,40.95227366424168,29.14030080800874,76.50296,-1,-1,-1,-1,30,29.46666746656674,-9999,35852.80014654167,-0.7697601318359375,0.552764892578125,-0.2630157470703125,35852.79007054167,-2.874969625757984,-1.232263959869546,-0.6008875372600488,0.0008676599245518446,-0.01385420188307762,0.0005193099495954812,0.007633388042449951,-0.006796360015869141,0.0002481341361999512,XArbitraryZVertical,-0.5792017447778288,0.1660131306223209,-0.7499133368454434,0.2731205908655125,-0.7780190110206604,0.5653747916221619,-0.2739299535751343,0,0,0,-1,-1,35848.91196654167,unknown,2,2025-04-22T15:35:02.393+03:00,2025-04-21T17:08:51.449+03:00,8251,1.040753,0,0,6864.177,7,22,2025-04-22T15:32:35.359+03:00,767018105.0627543,0,-15.57999,100.3896,1,0.55,2025-04-22T15:34:05.734+03:00,77.00000000000001,1.283333333333333,2025-04-22T14:20:19.516+03:00,0.02197104130929222,0
2025-04-22T15:35:06.296+03:00,1745325304.300193,40.95227366424168,29.14030080800874,76.50296,-1,-1,-1,-1,30,29.46666746656674,-9999,35852.81022254167,-0.7706756591796875,0.54931640625,-0.256011962890625,35852.80014654167,-2.875015384546496,-1.232433555356682,-0.6008614124127243,-0.00715391431003809,-0.01286124251782894,-0.00231462623924017,0.006167888641357422,-0.0090789794921875,0.002730339765548706,XArbitraryZVertical,-0.5792624049025148,0.1659928453874996,-0.7498744849603881,0.2731107841604103,-0.7780793309211731,0.5653532147407532,-0.2738028764724731,0,0,0,-1,-1,35848.91196654167,unknown,2,2025-04-22T15:35:02.393+03:00,2025-04-21T17:08:51.449+03:00,8251,1.040753,0,0,6864.177,7,22,2025-04-22T15:32:35.359+03:00,767018105.0627543,0,-15.57999,100.3896,1,0.55,2025-04-22T15:34:05.734+03:00,77.00000000000001,1.283333333333333,2025-04-22T14:20:19.516+03:00,0.02197104130929222,0
2025-04-22T15:35:06.306+03:00,1745325304.300193,40.95227366424168,29.14030080800874,76.50296,-1,-1,-1,-1,30,29.46666746656674,-9999,35852.82029954167,-0.770660400390625,0.551971435546875,-0.2605743408203125,35852.81022254167,-2.875211297050056,-1.232672559525736,-0.6008767964406658,-0.02460214681923389,-0.01103564538061619,-7.677206303924322e-05,0.008590161800384521,-0.01348608732223511,0.01279541850090027,XArbitraryZVertical,-0.5793352262168427,0.1660230485371569,-0.749829761086829,0.273061129061834,-0.7781367301940918,0.5653659105300903,-0.2736140787601471,0,0,0,-1,-1,35848.91196654167,unknown,2,2025-04-22T15:35:02.393+03:00,2025-04-21T17:08:51.449+03:00,8251,1.040753,0,0,6864.177,7,22,2025-04-22T15:32:35.359+03:00,767018105.0627543,0,-15.57999,100.3896,1,0.55,2025-04-22T15:34:05.734+03:00,77.00000000000001,1.283333333333333,2025-04-22T14:20:19.516+03:00,0.02197104130929222,0
2025-04-22T15:35:06.316+03:00,1745325304.300193,40.95227366424168,29.14030080800874,76.50296,-1,-1,-1,-1,30,29.46666746656674,-9999,35852.83037554167,-0.7682342529296875,0.5561065673828125,-0.26019287109375,35852.82029954167,-2.87554826812864,-1.23298260925362,-0.6009495091463378,-0.03281326964497566,-0.01286450400948524,-0.001258716220036149,0.007095158100128174,-0.01575857400894165,0.01751488447189331,XArbitraryZVertical,-0.579421077310014,0.1661072480924481,-0.7497745981595938,0.2729792757536267,-0.7781827449798584,0.5654258728027344,-0.2733592092990875,0,0,0,-1,-1,35848.91196654167,unknown,2,2025-04-22T15:35:02.393+03:00,2025-04-21T17:08:51.449+03:00,8251,1.040753,0,0,6864.177,7,22,2025-04-22T15:32:35.359+03:00,767018105.0627543,0,-15.57999,100.3896,1,0.55,2025-04-22T15:34:05.734+03:00,77.00000000000001,1.283333333333333,2025-04-22T14:20:19.516+03:00,0.02197104130929222,0
2025-04-22T15:35:06.326+03:00,1745325304.300193,40.95227366424168,29.14030080800874,76.50296,-1,-1,-1,-1,30,29.46666746656674,-9999,35852.84045154167,-0.7657318115234375,0.5588531494140625,-0.260986328125,35852.83037554167,-2.87593663269766,-1.23333858116724,-0.6010434626865043,-0.02956767566502094,-0.01384587958455086,-0.001292272005230188,0.007249116897583008,-0.01266223192214966,0.01198655366897583,XArbitraryZVertical,-0.5795191376791805,0.1662085434589236,-0.7497097817406321,0.2728874773212577,-0.7782298922538757,0.5655033588409424,-0.2730645835399628,0,0,0,-1,-1,35848.91196654167,unknown,2,2025-04-22T15:35:02.393+03:00,2025-04-21T17:08:51.449+03:00,8251,1.040753,0,0,6864.177,7,22,2025-04-22T15:32:35.359+03:00,767018105.0627543,0,-15.57999,100.3896,1,0.55,2025-04-22T15:34:05.734+03:00,77.00000000000001,1.283333333333333,2025-04-22T14:20:19.516+03:00,0.02197104130929222,0
2025-04-22T15:35:06.360+03:00,1745325304.300193,40.95227366424168,29.14030080800874,76.50296,-1,-1,-1,-1,30,29.46666746656674,-9999,35852.85052854167,-0.7652435302734375,0.5605316162109375,-0.263641357421875,35852.84045154167,-2.876262262736323,-1.233653460531247,-0.6011486026971409,-0.0301312692463398,-0.01121447794139385,0.0004262324655428529,0.01036113500595093,-0.009376823902130127,0.01278981566429138,XArbitraryZVertical,-0.5796066150204527,0.1663017651635768,-0.7496463806267086,0.2728187037102089,-0.7782595157623291,0.5655900835990906,-0.2727997899055481,0,0,0,-1,-1,35848.91196654167,unknown,2,2025-04-22T15:35:02.393+03:00,2025-04-21T17:08:51.449+03:00,8251,1.040753,0,0,6864.177,7,22,2025-04-22T15:32:35.359+03:00,767018105.0627543,0,-15.57999,100.3896,1,0.55,2025-04-22T15:34:05.734+03:00,77.00000000000001,1.283333333333333,2025-04-22T14:20:19.516+03:00,0.02197104130929222,0
2025-04-22T15:35:06.362+03:00,1745325304.300193,40.95227366424168,29.14030080800874,76.50296,-1,-1,-1,-1,30,29.46666746656674,-9999,35852.86060454167,-0.76239013671875,0.556060791015625,-0.2608184814453125,35852.85052854167,-2.876645081693689,-1.234030229277977,-0.6012764977245708,-0.03397740423679352,-0.02190280705690384,0.001058733207173645,0.01318800449371338,-0.006491482257843018,0.01164877414703369,XArbitraryZVertical,-0.5797117014395743,0.1664121435184607,-0.749569525483511,0.2727395431446166,-0.7782940864562988,0.5656955242156982,-0.272482693195343,0,0,0,-1,-1,35848.91196654167,unknown,2,2025-04-22T15:35:02.393+03:00,2025-04-21T17:08:51.449+03:00,8251,1.040753,0,0,6864.177,7,22,2025-04-22T15:32:35.359+03:00,767018105.0627543,0,-15.57999,100.3896,1,0.55,2025-04-22T15:34:05.734+03:00,77.00000000000001,1.283333333333333,2025-04-22T14:20:19.516+03:00,0.02197104130929222,0
2025-04-22T15:35:06.365+03:00,1745325304.300193,40.95227366424168,29.14030080800874,76.50296,-1,-1,-1,-1,30,29.46666746656674,-9999,35852.87068154167,-0.764373779296875,0.5557708740234375,-0.2640228271484375,35852.86060454167,-2.877119533688755,-1.234544578150569,-0.6014174492728883,-0.04596728831529617,-0.02735090255737305,-0.001804864034056664,0.01322227716445923,-0.005646467208862305,0.00865858793258667,XArbitraryZVertical,-0.5798602375756934,0.1665355661154304,-0.7494630920000769,0.2726409193408632,-0.7783588767051697,0.5658117532730103,-0.2720560133457184,0,0,0,-1,-1,35848.91196654167,unknown,2,2025-04-22T15:35:02.393+03:00,2025-04-21T17:08:51.449+03:00,8251,1.040753,0,0,6864.177,7,22,2025-04-22T15:32:35.359+03:00,767018105.0627543,0,-15.57999,100.3896,1,0.55,2025-04-22T15:34:05.734+03:00,77.00000000000001,1.283333333333333,2025-04-22T14:20:19.516+03:00,0.02197104130929222,0
2025-04-22T15:35:06.367+03:00,1745325304.300193,40.95227366424168,29.14030080800874,76.50296,-1,-1,-1,-1,30,29.46666746656674,-9999,35852.88075754167,-0.7733917236328125,0.556732177734375,-0.273162841796875,35852.87068154167,-2.877693921179427,-1.23512944266129,-0.6015883838334674,-0.05551285669207573,-0.02762014791369438,0.002438883064314723,0.0163111686706543,-0.01073122024536133,0.0114978551864624,XArbitraryZVertical,-0.5800257741845184,0.166690322248395,-0.7493450888234914,0.2725185463419644,-0.7784265279769897,0.5659527182579041,-0.2715688645839691,0,0,0,-1,-1,35848.91196654167,unknown,2,2025-04-22T15:35:02.393+03:00,2025-04-21T17:08:51.449+03:00,8251,1.040753,0,0,6864.177,7,22,2025-04-22T15:32:35.359+03:00,767018105.0627543,0,-15.57999,100.3896,1,0.55,2025-04-22T15:34:05.734+03:00,77.00000000000001,1.283333333333333,2025-04-22T14:20:19.516+03:00,0.02197104130929222,0
2025-04-22T15:35:06.377+03:00,1745325304.300193,40.95227366424168,29.14030080800874,76.50296,-1,-1,-1,-1,30,29.46666746656674,-9999,35852.89083354167,-0.7755889892578125,0.562103271484375,-0.2767791748046875,35852.88075754167,-2.878338792840276,-1.235750879032663,-0.601789688834056,-0.05711901187896729,-0.026191096752882,0.003897896036505699,0.01249629259109497,-0.009615421295166016,0.005697101354598999,XArbitraryZVertical,-0.5801979829305707,0.1668726677002482,-0.7492212996705838,0.2723807714100372,-0.7784875631332397,0.5661186575889587,-0.2710476219654083,0,0,0,-1,-1,35848.91196654167,unknown,2,2025-04-22T15:35:02.393+03:00,2025-04-21T17:08:51.449+03:00,8251,1.040753,0,0,6864.177,7,22,2025-04-22T15:32:35.359+03:00,767018105.0627543,0,-15.57999,100.3896,1,0.55,2025-04-22T15:34:05.734+03:00,77.00000000000001,1.283333333333333,2025-04-22T14:20:19.516+03:00,0.02197104130929222,0
2025-04-22T15:35:06.387+03:00,1745325304.300193,40.95227366424168,29.14030080800874,76.50296,-1,-1,-1,-1,30,29.46666746656674,-9999,35852.90091054167,-0.7738189697265625,0.5658721923828125,-0.2728729248046875,35852.89083354167,-2.878940777472862,-1.236385880716212,-0.6020177748670679,-0.05250455066561699,-0.03111288323998451,0.009054841473698616,0.004154026508331299,-0.009422004222869873,-0.003064215183258057,XArbitraryZVertical,-0.5803778157678346,0.1670514554118131,-0.7490833314480269,0.2722672492009749,-0.778537392616272,0.5663066506385803,-0.2705107927322388,0,0,0,-1,-1,35848.91196654167,unknown,2,2025-04-22T15:35:02.393+03:00,2025-04-21T17:08:51.449+03:00,8251,1.040753,0,0,6864.177,7,22,2025-04-22T15:32:35.359+03:00,767018105.0627543,0,-15.57999,100.3896,1,0.55,2025-04-22T15:34:05.734+03:00,77.00000000000001,1.283333333333333,2025-04-22T14:20:19.516+03:00,0.02197104130929222,0
2025-04-22T15:35:06.397+03:00,1745325304.300193,40.95227366424168,29.14030080800874,76.50296,-1,-1,-1,-1,30,29.46666746656674,-9999,35852.91098654167,-0.7750244140625,0.5649871826171875,-0.2692718505859375,35852.90091054167,-2.879548822152431,-1.237065597576763,-0.6022562930361697,-0.05522550269961357,-0.03121861070394516,0.007637240458279848,0.003691256046295166,-0.002843677997589111,-0.006308019161224365,XArbitraryZVertical,-0.5805733714576296,0.1672301084101746,-0.7489316043132849,0.272158027161142,-0.7785934805870056,0.5665032267570496,-0.2699373066425323,0,0,0,-1,-1,35848.91196654167,unknown,2,2025-04-22T15:35:02.393+03:00,2025-04-21T17:08:51.449+03:00,8251,1.040753,0,0,6864.177,7,22,2025-04-22T15:32:35.359+03:00,767018105.0627543,0,-15.57999,100.3896,1,0.55,2025-04-22T15:34:05.734+03:00,77.00000000000001,1.283333333333333,2025-04-22T14:20:19.516+03:00,0.02197104130929222,0
2025-04-22T15:35:06.407+03:00,1745325304.300193,40.95227366424168,29.14030080800874,76.50296,-1,-1,-1,-1,30,29.46666746656674,-9999,35852.92106254167,-0.7794342041015625,0.5667724609375,-0.270721435546875,35852.91098654167,-2.880124700804312,-1.237709850903713,-0.6024901184327194,-0.0483873039484024,-0.0305541530251503,0.007615136448293924,0.005357265472412109,-0.001769840717315674,-0.002504169940948486,XArbitraryZVertical,-0.5807583401585366,0.1674024407682245,-0.748786521181212,0.2720568089534784,-0.7786420583724976,0.5666959285736084,-0.269392341375351,0,0,0,-1,-1,35848.91196654167,unknown,2,2025-04-22T15:35:02.393+03:00,2025-04-21T17:08:51.449+03:00,8251,1.040753,0,0,6864.177,7,22,2025-04-22T15:32:35.359+03:00,767018105.0627543,0,-15.57999,100.3896,1,0.55,2025-04-22T15:34:05.734+03:00,77.00000000000001,1.283333333333333,2025-04-22T14:20:19.516+03:00,0.02197104130929222,0
2025-04-22T15:35:06.417+03:00,1745325304.300193,40.95227366424168,29.14030080800874,76.50296,-1,-1,-1,-1,30,29.46666746656674,-9999,35852.93113954167,-0.781982421875,0.56866455078125,-0.2736968994140625,35852.92106254167,-2.880650560912861,-1.238299457611884,-0.6027137245772204,-0.04527806118130684,-0.02469360083341599,0.005616034381091595,0.002954721450805664,-0.002304971218109131,-0.0001818239688873291,XArbitraryZVertical,-0.5809272607513869,0.1675636877143763,-0.7486519923868722,0.2719672230259286,-0.7786810398101807,0.5668801069259644,-0.2688918709754944,0,0,0,-1,-1,35848.91196654167,unknown,2,2025-04-22T15:35:02.393+03:00,2025-04-21T17:08:51.449+03:00,8251,1.040753,0,0,6864.177,7,22,2025-04-22T15:32:35.359+03:00,767018105.0627543,0,-15.57999,100.3896,1,0.55,2025-04-22T15:34:05.734+03:00,77.00000000000001,1.283333333333333,2025-04-22T14:20:19.516+03:00,0.02197104130929222,0
2025-04-22T15:35:06.430+03:00,1745325304.300193,40.95227366424168,29.14030080800874,76.50296,-1,-1,-1,-1,30,29.46666746656674,-9999,35852.94121554167,-0.7835540771484375,0.570037841796875,-0.272247314453125,35852.93113954167,-2.881128512696594,-1.238772980034572,-0.6029056709107394,-0.03683717176318169,-0.0170133113861084,0.005372621119022369,-0.0007593035697937012,0.0007106661796569824,-0.002493411302566528,XArbitraryZVertical,-0.5810577612810861,0.1677143215721378,-0.7485493349088325,0.2718777490053469,-0.7787052392959595,0.5670382380485535,-0.2684875726699829,0,0,0,-1,-1,35848.91196654167,unknown,2,2025-04-22T15:35:02.393+03:00,2025-04-21T17:08:51.449+03:00,8251,1.040753,0,0,6864.177,7,22,2025-04-22T15:32:35.359+03:00,767018105.0627543,0,-15.57999,100.3896,1,0.55,2025-04-22T15:34:05.734+03:00,77.00000000000001,1.283333333333333,2025-04-22T14:20:19.516+03:00,0.02197104130929222,0
2025-04-22T15:35:06.437+03:00,1745325304.300193,40.95227366424168,29.14030080800874,76.50296,-1,-1,-1,-1,30,29.46666746656674,-9999,35852.95129254167,-0.7834625244140625,0.5681610107421875,-0.269927978515625,35852.94121554167,-2.881497887792163,-1.239115127356173,-0.6030824096423184,-0.02978465706110001,-0.01017651055008173,0.004492679610848427,-0.002883315086364746,0.002487778663635254,-0.005737453699111938,XArbitraryZVertical,-0.5811486220607111,0.167845221803874,-0.7484726899209315,0.2718140146264263,-0.7787023782730103,0.567183792591095,-0.2681885063648224,0,0,0,-1,-1,35848.91196654167,unknown,2,2025-04-22T15:35:02.393+03:00,2025-04-21T17:08:51.449+03:00,8251,1.040753,0,0,6864.177,7,22,2025-04-22T15:32:35.359+03:00,767018105.0627543,0,-15.57999,100.3896,1,0.55,2025-04-22T15:34:05.734+03:00,77.00000000000001,1.283333333333333,2025-04-22T14:20:19.516+03:00,0.02197104130929222,0
2025-04-22T15:35:06.450+03:00,1745325304.300193,40.95227366424168,29.14030080800874,76.50296,-1,-1,-1,-1,30,29.46666746656674,-9999,35852.96136854167,-0.7816314697265625,0.56561279296875,-0.2688140869140625,35852.95129254167,-2.881831082687127,-1.239396537671,-0.6032064861786044,-0.02881233766674995,-0.005363911390304565,0.001147216651588678,-0.005422532558441162,0.002660155296325684,-0.0044231116771698,XArbitraryZVertical,-0.5812216024663219,0.1679530146058923,-0.7484168355487169,0.2717451180743913,-0.7787112593650818,0.5672860145568848,-0.2679464817047119,0,0,0,-1,-1,35848.91196654167,unknown,2,2025-04-22T15:35:02.393+03:00,2025-04-21T17:08:51.449+03:00,8251,1.040753,0,0,6864.177,7,22,2025-04-22T15:32:35.359+03:00,767018105.0627543,0,-15.57999,100.3896,1,0.55,2025-04-22T15:34:05.734+03:00,77.00000000000001,1.283333333333333,2025-04-22T14:20:19.516+03:00,0.02197104130929222,0
2025-04-22T15:35:06.466+03:00,1745325304.300193,40.95227366424168,29.14030080800874,76.50296,-1,-1,-1,-1,30,29.46666746656674,-9999,35852.97144454167,-0.7829437255859375,0.5655670166015625,-0.264678955078125,35852.96136854167,-2.882111696797919,-1.239572824499814,-0.6032811403536169,-0.02058789879083633,0.001840006094425917,-0.00145385938230902,-0.00404202938079834,0.0003709793090820312,-0.002544760704040527,XArbitraryZVertical,-0.581261363379818,0.1680402148142751,-0.7483921318165867,0.2716742775271997,-0.7787184715270996,0.5673474669456482,-0.2677954137325287,0,0,0,-1,-1,35848.91196654167,unknown,2,2025-04-22T15:35:02.393+03:00,2025-04-21T17:08:51.449+03:00,8251,1.040753,0,0,6864.177,7,22,2025-04-22T15:32:35.359+03:00,767018105.0627543,0,-15.57999,100.3896,1,0.55,2025-04-22T15:34:05.734+03:00,77.00000000000001,1.283333333333333,2025-04-22T14:20:19.516+03:00,0.02197104130929222,0
2025-04-22T15:35:06.468+03:00,1745325304.300193,40.95227366424168,29.14030080800874,76.50296,-1,-1,-1,-1,30,29.46666746656674,-9999,35852.98152154167,-0.786407470703125,0.5643157958984375,-0.2640838623046875,35852.97144454167,-2.882355572204607,-1.23962397475004,-0.6033319723645981,-0.02156314812600613,0.01215123292058706,-0.001112708472646773,-0.00298762321472168,-0.001547694206237793,-0.001022309064865112,XArbitraryZVertical,-0.5812582145249537,0.16812430245839,-0.7484024607635194,0.2716005023157558,-0.7787048816680908,0.5673893094062805,-0.2677462100982666,0,0,0,-1,-1,35848.91196654167,unknown,2,2025-04-22T15:35:02.393+03:00,2025-04-21T17:08:51.449+03:00,8251,1.040753,0,0,6864.177,7,22,2025-04-22T15:32:35.359+03:00,767018105.0627543,0,-15.57999,100.3896,1,0.55,2025-04-22T15:34:05.734+03:00,77.00000000000001,1.283333333333333,2025-04-22T14:20:19.516+03:00,0.02197104130929222,0
2025-04-22T15:35:06.477+03:00,1745325304.300193,40.95227366424168,29.14030080800874,76.50296,-1,-1,-1,-1,30,29.46666746656674,-9999,35852.99159754167,-0.7879180908203125,0.5601959228515625,-0.266815185546875,35852.98152154167,-2.88261428046214,-1.239592930545254,-0.6033945505271163,-0.02642341703176498,0.01979157701134682,-0.001040803152136505,-0.004433274269104004,-0.001568734645843506,0.003583192825317383,XArbitraryZVertical,-0.581222635743609,0.1682285242982678,-0.7484368131909073,0.271517313372677,-0.7786629199981689,0.5674408674240112,-0.2677588164806366,0,0,0,-1,-1,35848.91196654167,unknown,2,2025-04-22T15:35:02.393+03:00,2025-04-21T17:08:51.449+03:00,8251,1.040753,0,0,6864.177,7,22,2025-04-22T15:32:35.359+03:00,767018105.0627543,0,-15.57999,100.3896,1,0.55,2025-04-22T15:34:05.734+03:00,77.00000000000001,1.283333333333333,2025-04-22T14:20:19.516+03:00,0.02197104130929222,0
2025-04-22T15:35:06.487+03:00,1745325304.300193,40.95227366424168,29.14030080800874,76.50296,-1,-1,-1,-1,30,29.46666746656674,-9999,35853.00167454167,-0.788818359375,0.5609893798828125,-0.267059326171875,35852.99159754167,-2.882930475839935,-1.23953419565422,-0.603469264393212,-0.02950709126889706,0.02553974092006683,0.0002766626421362162,-0.00847160816192627,-0.003751277923583984,0.00385931134223938,XArbitraryZVertical,-0.5811714029868159,0.1683580091162978,-0.7484851511208721,0.2714134210169227,-0.7786070704460144,0.5675023794174194,-0.2677907645702362,0,0,0,-1,-1,35848.91196654167,unknown,2,2025-04-22T15:35:02.393+03:00,2025-04-21T17:08:51.449+03:00,8251,1.040753,0,0,6864.177,7,22,2025-04-22T15:32:35.359+03:00,767018105.0627543,0,-15.57999,100.3896,1,0.55,2025-04-22T15:34:05.734+03:00,77.00000000000001,1.283333333333333,2025-04-22T14:20:19.516+03:00,0.02197104130929222,0
2025-04-22T15:35:06.497+03:00,1745325304.300193,40.95227366424168,29.14030080800874,76.50296,-1,-1,-1,-1,30,29.46666746656674,-9999,35853.01175054167,-0.7908477783203125,0.561187744140625,-0.2662353515625,35853.00167454167,-2.883276927591702,-1.239421002657951,-0.6035677831294761,-0.03254842013120651,0.03564510866999626,0.001609308528713882,-0.009348273277282715,-0.006945192813873291,0.001106351613998413,XArbitraryZVertical,-0.5810963684442065,0.1685131032953532,-0.7485496735565457,0.271299781021629,-0.778523862361908,0.5675835013389587,-0.2678606808185577,0,0,0,-1,-1,35848.91196654167,unknown,2,2025-04-22T15:35:02.393+03:00,2025-04-21T17:08:51.449+03:00,8251,1.040753,0,0,6864.177,7,22,2025-04-22T15:32:35.359+03:00,767018105.0627543,0,-15.57999,100.3896,1,0.55,2025-04-22T15:34:05.734+03:00,77.00000000000001,1.283333333333333,2025-04-22T14:20:19.516+03:00,0.02197104130929222,0
2025-04-22T15:35:06.508+03:00,1745325304.300193,40.95227366424168,29.14030080800874,76.50296,-1,-1,-1,-1,30,29.46666746656674,-9999,35853.02182654167,-0.7905731201171875,0.566986083984375,-0.269866943359375,35853.01175054167,-2.883638752733781,-1.239209209731178,-0.6036805138096338,-0.03370689228177071,0.04660614579916,0.003051676321774721,-0.01080828905105591,-0.006809115409851074,0.001372545957565308,XArbitraryZVertical,-0.5809825744632389,0.1686916329261589,-0.7486427906836527,0.2711757335477255,-0.7784066796302795,0.567676305770874,-0.2680047750473022,0,0,0,-1,-1,35848.91196654167,unknown,2,2025-04-22T15:35:02.393+03:00,2025-04-21T17:08:51.449+03:00,8251,1.040753,0,0,6864.177,7,22,2025-04-22T15:32:35.359+03:00,767018105.0627543,0,-15.57999,100.3896,1,0.55,2025-04-22T15:34:05.734+03:00,77.00000000000001,1.283333333333333,2025-04-22T14:20:19.516+03:00,0.02197104130929222,0
2025-04-22T15:35:06.518+03:00,1745325304.300193,40.95227366424168,29.14030080800874,76.50296,-1,-1,-1,-1,30,29.46666746656674,-9999,35853.03190354167,-0.789398193359375,0.5653228759765625,-0.2733306884765625,35853.02182654167,-2.884004270727109,-1.238916500363636,-0.6038256341057429,-0.03494759649038315,0.05081560462713242,0.003996465820819139,-0.01265841722488403,-0.006333470344543457,0.001222521066665649,XArbitraryZVertical,-0.5808369863404752,0.1688950364350473,-0.7487546910889988,0.2710518369264853,-0.7782502174377441,0.5677957534790039,-0.2682057321071625,0,0,0,-1,-1,35848.91196654167,unknown,2,2025-04-22T15:35:02.393+03:00,2025-04-21T17:08:51.449+03:00,8251,1.040753,0,0,6864.177,7,22,2025-04-22T15:32:35.359+03:00,767018105.0627543,0,-15.57999,100.3896,1,0.55,2025-04-22T15:34:05.734+03:00,77.00000000000001,1.283333333333333,2025-04-22T14:20:19.516+03:00,0.02197104130929222,0
2025-04-22T15:35:06.528+03:00,1745325304.300193,40.95227366424168,29.14030080800874,76.50296,-1,-1,-1,-1,30,29.46666746656674,-9999,35853.04197954167,-0.7804107666015625,0.5617523193359375,-0.272247314453125,35853.03190354167,-2.884435081604661,-1.238651768791083,-0.6039896250690137,-0.04229312762618065,0.04743445664644241,0.005266527645289898,-0.01229870319366455,-0.0005785822868347168,-0.002523362636566162,XArbitraryZVertical,-0.5806956000488046,0.1691210300806257,-0.7488644602237405,0.2709106912068968,-0.7780911922454834,0.5679307579994202,-0.2683813869953156,0,0,0,-1,-1,35848.91196654167,unknown,2,2025-04-22T15:35:02.393+03:00,2025-04-21T17:08:51.449+03:00,8251,1.040753,0,0,6864.177,7,22,2025-04-22T15:32:35.359+03:00,767018105.0627543,0,-15.57999,100.3896,1,0.55,2025-04-22T15:34:05.734+03:00,77.00000000000001,1.283333333333333,2025-04-22T14:20:19.516+03:00,0.02197104130929222,0
2025-04-22T15:35:06.538+03:00,1745325304.300193,40.95227366424168,29.14030080800874,76.50296,-1,-1,-1,-1,30,29.46666746656674,-9999,35853.05205654167,-0.7766876220703125,0.5624542236328125,-0.2696990966796875,35853.04197954167,-2.884959013186068,-1.238482607451276,-0.6041933957503645,-0.05148535966873169,0.04617258533835411,0.00531429797410965,-0.009844303131103516,-0.003813266754150391,-0.004672527313232422,XArbitraryZVertical,-0.5805806211509246,0.1693768585474716,-0.7489527842990232,0.2707530242648866,-0.7779363393783569,0.5680984854698181,-0.2684752345085144,0,0,0,-1,-1,35848.91196654167,unknown,2,2025-04-22T15:35:02.393+03:00,2025-04-21T17:08:51.449+03:00,8251,1.040753,0,0,6864.177,7,22,2025-04-22T15:32:35.359+03:00,767018105.0627543,0,-15.57999,100.3896,1,0.55,2025-04-22T15:34:05.734+03:00,77.00000000000001,1.283333333333333,2025-04-22T14:20:19.516+03:00,0.02197104130929222,0
2025-04-22T15:35:06.548+03:00,1745325304.300193,40.95227366424168,29.14030080800874,76.50296,-1,-1,-1,-1,30,29.46666746656674,-9999,35853.06213254167,-0.776519775390625,0.562896728515625,-0.272430419921875,35853.05205654167,-2.885572681227327,-1.238366561419959,-0.604445168795721,-0.05825245007872581,0.04467322304844856,0.009938877075910568,-0.001938700675964355,-0.006110906600952148,-0.003026723861694336,XArbitraryZVertical,-0.5804760830520539,0.1696705233513991,-0.7490304202802509,0.270578651947201,-0.7777700424194336,0.5683056116104126,-0.26851886510849,0,0,0,-1,-1,35848.91196654167,unknown,2,2025-04-22T15:35:02.393+03:00,2025-04-21T17:08:51.449+03:00,8251,1.040753,0,0,6864.177,7,22,2025-04-22T15:32:35.359+03:00,767018105.0627543,0,-15.57999,100.3896,1,0.55,2025-04-22T15:34:05.734+03:00,77.00000000000001,1.283333333333333,2025-04-22T14:20:19.516+03:00,0.02197104130929222,0
2025-04-22T15:35:06.558+03:00,1745325304.300193,40.95227366424168,29.14030080800874,76.50296,-1,-1,-1,-1,30,29.46666746656674,-9999,35853.07220854167,-0.7801513671875,0.5605316162109375,-0.2693023681640625,35853.06213254167,-2.886222322319131,-1.238274102310871,-0.6047298362258803,-0.06286704540252686,0.05025028064846992,0.01072590798139572,0.0003554821014404297,-0.005475342273712158,-0.0009323954582214355,XArbitraryZVertical,-0.5803760033594517,0.1699844442002665,-0.7491008726900361,0.2704013022842512,-0.7775923013687134,0.5685398578643799,-0.2685379683971405,0,0,0,-1,-1,35848.91196654167,unknown,2,2025-04-22T15:35:02.393+03:00,2025-04-21T17:08:51.449+03:00,8251,1.040753,0,0,6864.177,7,22,2025-04-22T15:32:35.359+03:00,767018105.0627543,0,-15.57999,100.3896,1,0.55,2025-04-22T15:34:05.734+03:00,77.00000000000001,1.283333333333333,2025-04-22T14:20:19.516+03:00,0.02197104130929222,0
2025-04-22T15:35:06.568+03:00,1745325304.300193,40.95227366424168,29.14030080800874,76.50296,-1,-1,-1,-1,30,29.46666746656674,-9999,35853.08228554167,-0.7877044677734375,0.564605712890625,-0.2818756103515625,35853.07220854167,-2.886819621423265,-1.238093975946925,-0.6049596770867851,-0.04356551915407181,0.05740299820899963,0.001120684901252389,0.0006260275840759277,-0.006045937538146973,-0.00439038872718811,XArbitraryZVertical,-0.5802493981752472,0.1702732601020601,-0.7491980220643445,0.2702218492118866,-0.7774202823638916,0.5687289237976074,-0.2686353027820587,0,0,0,-1,-1,35848.91196654167,unknown,2,2025-04-22T15:35:02.393+03:00,2025-04-21T17:08:51.449+03:00,8251,1.040753,0,0,6864.177,7,22,2025-04-22T15:32:35.359+03:00,767018105.0627543,0,-15.57999,100.3896,1,0.55,2025-04-22T15:34:05.734+03:00,77.00000000000001,1.283333333333333,2025-04-22T14:20:19.516+03:00,0.02197104130929222,0
2025-04-22T15:35:06.579+03:00,1745325304.300193,40.95227366424168,29.14030080800874,76.50296,-1,-1,-1,-1,30,29.46666746656674,-9999,35853.09236154167,-0.8040618896484375,0.5754852294921875,-0.303680419921875,35853.08228554167,-2.887312527028909,-1.237664855140068,-0.6050594452759438,-0.04633061215281487,0.09113998711109161,-0.001990120159462094,-0.00318986177444458,-0.00849306583404541,0.0006395578384399414,XArbitraryZVertical,-0.5800430065564675,0.170513761397573,-0.7493735670475746,0.2700264931728027,-0.7772513031959534,0.5688109397888184,-0.268950343132019,0,0,0,-1,-1,35848.91196654167,unknown,2,2025-04-22T15:35:02.393+03:00,2025-04-21T17:08:51.449+03:00,8251,1.040753,0,0,6864.177,7,22,2025-04-22T15:32:35.359+03:00,767018105.0627543,0,-15.57999,100.3896,1,0.55,2025-04-22T15:34:05.734+03:00,77.00000000000001,1.283333333333333,2025-04-22T14:20:19.516+03:00,0.02197104130929222,0
2025-04-22T15:35:06.589+03:00,1745325304.300193,40.95227366424168,29.14030080800874,76.50296,-1,-1,-1,-1,30,29.46666746656674,-9999,35853.10243854167,-0.8275146484375,0.55523681640625,-0.3082733154296875,35853.09236154167,-2.888264300640657,-1.237051159487067,-0.6052349829222732,-0.121053583920002,0.1446146667003632,-0.01075032260268927,-0.01214689016342163,-0.002610206604003906,-0.01588398218154907,XArbitraryZVertical,-0.579725366539893,0.1709421468933921,-0.7496526235504517,0.2696629255496508,-0.7769917845726013,0.5689553618431091,-0.26939457654953,0,0,0,-1,-1,35848.91196654167,unknown,2,2025-04-22T15:35:02.393+03:00,2025-04-21T17:08:51.449+03:00,8251,1.040753,0,0,6864.177,7,22,2025-04-22T15:32:35.359+03:00,767018105.0627543,0,-15.57999,100.3896,1,0.55,2025-04-22T15:34:05.734+03:00,77.00000000000001,1.283333333333333,2025-04-22T14:20:19.516+03:00,0.02197104130929222,0
2025-04-22T15:35:06.598+03:00,1745325304.300193,40.95227366424168,29.14030080800874,76.50296,-1,-1,-1,-1,30,29.46666746656674,-9999,35853.11251454167,-0.8327789306640625,0.5169525146484375,-0.3161468505859375,35853.10243854167,-2.89040577537788,-1.236574543338927,-0.605726146160442,-0.2414758652448654,0.1915196031332016,-0.004122246988117695,-0.02940046787261963,0.004783093929290771,-0.03498402237892151,XArbitraryZVertical,-0.5793450978332487,0.1718216896283174,-0.7500027302527064,0.2689465324601256,-0.776599109172821,0.5693591833114624,-0.2696731388568878,0,0,0,-1,-1,35848.91196654167,unknown,2,2025-04-22T15:35:02.393+03:00,2025-04-21T17:08:51.449+03:00,8251,1.040753,0,0,6864.177,7,22,2025-04-22T15:32:35.359+03:00,767018105.0627543,0,-15.57999,100.3896,1,0.55,2025-04-22T15:34:05.734+03:00,77.00000000000001,1.283333333333333,2025-04-22T14:20:19.516+03:00,0.02197104130929222,0
2025-04-22T15:35:06.609+03:00,1745325304.300193,40.95227366424168,29.14030080800874,76.50296,-1,-1,-1,-1,30,29.46666746656674,-9999,35853.12259054167,-0.8131103515625,0.4742431640625,-0.305633544921875,35853.11251454167,-2.894101875605892,-1.236593418317459,-0.6068185932576551,-0.4008319675922394,0.2168497145175934,0.01792366802692413,-0.05386334657669067,-0.01900273561477661,-0.04023826122283936,XArbitraryZVertical,-0.5789922840621523,0.1733227332684989,-0.7503239791544312,0.2678451288605688,-0.7760162949562073,0.5702569484710693,-0.2694543302059174,0,0,0,-1,-1,35848.91196654167,unknown,2,2025-04-22T15:35:02.393+03:00,2025-04-21T17:08:51.449+03:00,8251,1.040753,0,0,6864.177,7,22,2025-04-22T15:32:35.359+03:00,767018105.0627543,0,-15.57999,100.3896,1,0.55,2025-04-22T15:34:05.734+03:00,77.00000000000001,1.283333333333333,2025-04-22T14:20:19.516+03:00,0.02197104130929222,0
2025-04-22T15:35:06.619+03:00,1745325304.300193,40.95227366424168,29.14030080800874,76.50296,-1,-1,-1,-1,30,29.46666746656674,-9999,35853.13266754167,-0.7876434326171875,0.48260498046875,-0.3062591552734375,35853.12259054167,-2.899487816669641,-1.237380004656633,-0.6085777342179666,-0.5254144668579102,0.2313092947006226,0.02579327486455441,-0.05646228790283203,-0.06106579303741455,-0.0471283495426178,XArbitraryZVertical,-0.578749805280297,0.175473868202039,-0.7505435082242299,0.2663496174495755,-0.7752790451049805,0.5717011094093323,-0.2685151696205139,0,0,0,-1,-1,35848.91196654167,unknown,2,2025-04-22T15:35:02.393+03:00,2025-04-21T17:08:51.449+03:00,8251,1.040753,0,0,6864.177,7,22,2025-04-22T15:32:35.359+03:00,767018105.0627543,0,-15.57999,100.3896,1,0.55,2025-04-22T15:34:05.734+03:00,77.00000000000001,1.283333333333333,2025-04-22T14:20:19.516+03:00,0.02197104130929222,0
2025-04-22T15:35:06.629+03:00,1745325304.300193,40.95227366424168,29.14030080800874,76.50296,-1,-1,-1,-1,30,29.46666746656674,-9999,35853.14274354167,-0.783050537109375,0.519989013671875,-0.3022003173828125,35853.13266754167,-2.905779540971462,-1.238587052969286,-0.6107213030576739,-0.5776774287223816,0.2465486973524094,0.04971485212445259,-0.03544849157333374,-0.1020078659057617,-0.03755459189414978,XArbitraryZVertical,-0.5785608300891866,0.1779830338985618,-0.7506984637487473,0.2646526773652503,-0.7744420766830444,0.5734585523605347,-0.2671788036823273,0,0,0,-1,-1,35848.91196654167,unknown,2,2025-04-22T15:35:02.393+03:00,2025-04-21T17:08:51.449+03:00,8251,1.040753,0,0,6864.177,7,22,2025-04-22T15:32:35.359+03:00,767018105.0627543,0,-15.57999,100.3896,1,0.55,2025-04-22T15:34:05.734+03:00,77.00000000000001,1.283333333333333,2025-04-22T14:20:19.516+03:00,0.02197104130929222,0
2025-04-22T15:35:06.639+03:00,1745325304.300193,40.95227366424168,29.14030080800874,76.50296,-1,-1,-1,-1,30,29.46666746656674,-9999,35853.15282054167,-0.790740966796875,0.5344696044921875,-0.299224853515625,35853.14274354167,-2.912446892082103,-1.239856426120661,-0.61323936725113,-0.6120964884757996,0.2655757665634155,0.07803244888782501,-0.01194190979003906,-0.08823031187057495,-0.04025915265083313,XArbitraryZVertical,-0.5783339892890821,0.1807402943947279,-0.7508231512008861,0.2629203899242828,-0.7734124660491943,0.5755195617675781,-0.2657254934310913,0,0,0,-1,-1,35848.91196654167,unknown,2,2025-04-22T15:35:02.393+03:00,2025-04-21T17:08:51.449+03:00,8251,1.040753,0,0,6864.177,7,22,2025-04-22T15:32:35.359+03:00,767018105.0627543,0,-15.57999,100.3896,1,0.55,2025-04-22T15:34:05.734+03:00,77.00000000000001,1.283333333333333,2025-04-22T14:20:19.516+03:00,0.02197104130929222,0
2025-04-22T15:35:06.649+03:00,1745325304.300193,40.95227366424168,29.14030080800874,76.50296,-1,-1,-1,-1,30,29.46666746656674,-9999,35853.16289654167,-0.7929840087890625,0.5383148193359375,-0.3076171875,35853.15282054167,-2.919087766649389,-1.2408856369488,-0.6160965598069267,-0.5871450901031494,0.2920300364494324,0.1034986600279808,-0.01150339841842651,-0.05424857139587402,-0.03704196214675903,XArbitraryZVertical,-0.5779906856323042,0.1836544756835346,-0.7509574047437587,0.2612675660776623,-0.7721268534660339,0.577853798866272,-0.2643955945968628,0,0,0,-1,-1,35848.91196654167,unknown,2,2025-04-22T15:35:02.393+03:00,2025-04-21T17:08:51.449+03:00,8251,1.040753,0,0,6864.177,7,22,2025-04-22T15:32:35.359+03:00,767018105.0627543,0,-15.57999,100.3896,1,0.55,2025-04-22T15:34:05.734+03:00,77.00000000000001,1.283333333333333,2025-04-22T14:20:19.516+03:00,0.02197104130929222,0
2025-04-22T15:35:06.659+03:00,1745325304.300193,40.95227366424168,29.14030080800874,76.50296,-1,-1,-1,-1,30,29.46666746656674,-9999,35853.17297254167,-0.7891082763671875,0.5799713134765625,-0.3289947509765625,35853.16289654167,-2.925127135215697,-1.241302301184263,-0.6189502405147203,-0.518265962600708,0.3293876349925995,0.1372754573822021,-0.02034211158752441,-0.04618388414382935,-0.03580787777900696,XArbitraryZVertical,-0.5774588414437392,0.1864716319601009,-0.7511865761559573,0.2597851732954904,-0.7706735134124756,0.5801804661750793,-0.2635392248630524,0,0,0,-1,-1,35848.91196654167,unknown,2,2025-04-22T15:35:02.393+03:00,2025-04-21T17:08:51.449+03:00,8251,1.040753,0,0,6864.177,7,22,2025-04-22T15:32:35.359+03:00,767018105.0627543,0,-15.57999,100.3896,1,0.55,2025-04-22T15:34:05.734+03:00,77.00000000000001,1.283333333333333,2025-04-22T14:20:19.516+03:00,0.02197104130929222,0
2025-04-22T15:35:06.670+03:00,1745325304.300193,40.95227366424168,29.14030080800874,76.50296,-1,-1,-1,-1,30,29.46666746656674,-9999,35853.18304954167,-0.801025390625,0.600799560546875,-0.350921630859375,35853.17297254167,-2.930702344913017,-1.240999405342342,-0.6222004631992197,-0.5357800126075745,0.3669280707836151,0.1581674218177795,-0.02391904592514038,-0.04159551858901978,-0.0468524694442749,XArbitraryZVertical,-0.5766685190365261,0.1894020700887896,-0.751498979671456,0.2585139705972179,-0.7688054442405701,0.5828246474266052,-0.2631605565547943,0,0,0,-1,-1,35848.91196654167,unknown,2,2025-04-22T15:35:02.393+03:00,2025-04-21T17:08:51.449+03:00,8251,1.040753,0,0,6864.177,7,22,2025-04-22T15:32:35.359+03:00,767018105.0627543,0,-15.57999,100.3896,1,0.55,2025-04-22T15:34:05.734+03:00,77.00000000000001,1.283333333333333,2025-04-22T14:20:19.516+03:00,0.02197104130929222,0
2025-04-22T15:35:06.679+03:00,1745325304.300193,40.95227366424168,29.14030080800874,76.50296,-1,-1,-1,-1,30,29.46666746656674,-9999,35853.19312554167,-0.803497314453125,0.5856781005859375,-0.42242431640625,35853.18304954167,-2.936723602291833,-1.24045790079173,-0.6257100771292609,-0.6232640743255615,0.4385220408439636,0.2034166306257248,-0.0223238468170166,0.001424133777618408,-0.06889081001281738,XArbitraryZVertical,-0.5757195306933608,0.1925906334472593,-0.7518946043850555,0.2571193434287004,-0.7667232751846313,0.5856729745864868,-0.2629117369651794,0,0,0,-1,-1,35848.91196654167,unknown,2,2025-04-22T15:35:02.393+03:00,2025-04-21T17:08:51.449+03:00,8251,1.040753,0,0,6864.177,7,22,2025-04-22T15:32:35.359+03:00,767018105.0627543,0,-15.57999,100.3896,1,0.55,2025-04-22T15:34:05.734+03:00,77.00000000000001,1.283333333333333,2025-04-22T14:20:19.516+03:00,0.02197104130929222,0
2025-04-22T15:35:06.689+03:00,1745325304.300193,40.95227366424168,29.14030080800874,76.50296,-1,-1,-1,-1,30,29.46666746656674,-9999,35853.20320254167,-0.7614898681640625,0.5833282470703125,-0.500213623046875,35853.19312554167,-2.942238936561432,-1.238793233776798,-0.6299548747266195,-0.4917915761470795,0.4961432814598083,0.2525407671928406,-0.04028701782226562,0.00911247730255127,-0.09407752752304077,XArbitraryZVertical,-0.5743446118122646,0.1960631281156172,-0.7524316841896062,0.2559961993561121,-0.7639273405075073,0.5891082882881165,-0.2633750438690186,0,0,0,-1,-1,35848.91196654167,unknown,2,2025-04-22T15:35:02.393+03:00,2025-04-21T17:08:51.449+03:00,8251,1.040753,0,0,6864.177,7,22,2025-04-22T15:32:35.359+03:00,767018105.0627543,0,-15.57999,100.3896,1,0.55,2025-04-22T15:34:05.734+03:00,77.00000000000001,1.283333333333333,2025-04-22T14:20:19.516+03:00,0.02197104130929222,0
2025-04-22T15:35:06.699+03:00,1745325304.300193,40.95227366424168,29.14030080800874,76.50296,-1,-1,-1,-1,30,29.46666746656674,-9999,35853.21327854167,-0.7633819580078125,0.52545166015625,-0.5195465087890625,35853.20320254167,-2.946850677873118,-1.236852255005053,-0.6335807429982634,-0.4914796948432922,0.4514903128147125,0.2002983391284943,-0.03824514150619507,-0.005745947360992432,-0.1688281297683716,XArbitraryZVertical,-0.5729714532786313,0.1990628063027353,-0.7530227149385365,0.2550185374144926,-0.7613916397094727,0.5920343399047852,-0.2641554176807404,0,0,0,-1,-1,35848.91196654167,unknown,2,2025-04-22T15:35:02.393+03:00,2025-04-21T17:08:51.449+03:00,8251,1.040753,0,0,6864.177,7,22,2025-04-22T15:32:35.359+03:00,767018105.0627543,0,-15.57999,100.3896,1,0.55,2025-04-22T15:34:05.734+03:00,77.00000000000001,1.283333333333333,2025-04-22T14:20:19.516+03:00,0.02197104130929222,0
2025-04-22T15:35:06.709+03:00,1745325304.300193,40.95227366424168,29.14030080800874,76.50296,-1,-1,-1,-1,30,29.46666746656674,-9999,35853.22335454167,-0.7492218017578125,0.51849365234375,-0.4710693359375,35853.21327854167,-2.953526486998285,-1.236832918428033,-0.6380216393365848,-0.7959114909172058,0.3520705103874207,0.2891792058944702,0.0001671314239501953,-0.017345130443573,-0.2451478540897369,XArbitraryZVertical,-0.5720572864526403,0.2027254067319577,-0.7531974732712344,0.2536659506430093,-0.7588951587677002,0.5956074595451355,-0.2633057534694672,0,0,0,-1,-1,35848.91196654167,unknown,2,2025-04-22T15:35:02.393+03:00,2025-04-21T17:08:51.449+03:00,8251,1.040753,0,0,6864.177,7,22,2025-04-22T15:32:35.359+03:00,767018105.0627543,0,-15.57999,100.3896,1,0.55,2025-04-22T15:34:05.734+03:00,77.00000000000001,1.283333333333333,2025-04-22T14:20:19.516+03:00,0.02197104130929222,0
2025-04-22T15:35:06.719+03:00,1745325304.300193,40.95227366424168,29.14030080800874,76.50296,-1,-1,-1,-1,30,29.46666746656674,-9999,35853.23343154167,-0.7202606201171875,0.5410919189453125,-0.5120391845703125,35853.22335454167,-2.962898071965153,-1.239188886646142,-0.6439328441263333,-0.996411919593811,0.2928366959095001,0.3291357755661011,-0.007180154323577881,-0.0799749493598938,-0.2527259588241577,XArbitraryZVertical,-0.5716545552467427,0.2074317268790003,-0.7528042299971067,0.2519304419366823,-0.7561712265014648,0.6003453135490417,-0.260366290807724,0,0,0,-1,-1,35848.91196654167,unknown,2,2025-04-22T15:35:02.393+03:00,2025-04-21T17:08:51.449+03:00,8251,1.040753,0,0,6864.177,7,22,2025-04-22T15:32:35.359+03:00,767018105.0627543,0,-15.57999,100.3896,1,0.55,2025-04-22T15:34:05.734+03:00,77.00000000000001,1.283333333333333,2025-04-22T14:20:19.516+03:00,0.02197104130929222,0
2025-04-22T15:35:06.730+03:00,1745325304.300193,40.95227366424168,29.14030080800874,76.50296,-1,-1,-1,-1,30,29.46666746656674,-9999,35853.24350754167,-0.6887664794921875,0.559844970703125,-0.495697021484375,35853.23343154167,-2.97491733145815,-1.243958874205711,-0.6511470034906136,-1.254409313201904,0.2125581055879593,0.4045985639095306,0.008425354957580566,-0.08577454090118408,-0.2160612046718597,XArbitraryZVertical,-0.5717601079606246,0.2130980306745022,-0.7518466239732843,0.2498119792563175,-0.753282904624939,0.6060991287231445,-0.2553592026233673,0,0,0,-1,-1,35848.91196654167,unknown,2,2025-04-22T15:35:02.393+03:00,2025-04-21T17:08:51.449+03:00,8251,1.040753,0,0,6864.177,7,22,2025-04-22T15:32:35.359+03:00,767018105.0627543,0,-15.57999,100.3896,1,0.55,2025-04-22T15:34:05.734+03:00,77.00000000000001,1.283333333333333,2025-04-22T14:20:19.516+03:00,0.02197104130929222,0
2025-04-22T15:35:06.740+03:00,1745325304.300193,40.95227366424168,29.14030080800874,76.50296,-1,-1,-1,-1,30,29.46666746656674,-9999,35853.25358454167,-0.670074462890625,0.5536041259765625,-0.4551239013671875,35853.24350754167,-2.989641333035161,-1.251008691081922,-0.6594941018635115,-1.462981939315796,0.1653232127428055,0.4608625173568726,0.03391188383102417,-0.06817686557769775,-0.2670292854309082,XArbitraryZVertical,-0.5722878302614615,0.2196929429386399,-0.7503895497713831,0.247258919279905,-0.7502355575561523,0.6127170920372009,-0.2484433054924011,0,0,0,-1,-1,35848.91196654167,unknown,2,2025-04-22T15:35:02.393+03:00,2025-04-21T17:08:51.449+03:00,8251,1.040753,0,0,6864.177,7,22,2025-04-22T15:32:35.359+03:00,767018105.0627543,0,-15.57999,100.3896,1,0.55,2025-04-22T15:34:05.734+03:00,77.00000000000001,1.283333333333333,2025-04-22T14:20:19.516+03:00,0.02197104130929222,0
2025-04-22T15:35:06.750+03:00,1745325304.300193,40.95227366424168,29.14030080800874,76.50296,-1,-1,-1,-1,30,29.46666746656674,-9999,35853.26366054167,-0.66119384765625,0.58001708984375,-0.3998260498046875,35853.25358454167,-3.005716953466271,-1.259332079163727,-0.669122637546319,-1.528191566467285,0.1049536094069481,0.5645750164985657,0.06184321641921997,-0.06121611595153809,-0.2502754330635071,XArbitraryZVertical,-0.5729570192989295,0.2270125084059303,-0.7485242146068749,0.244738543949041,-0.7466269731521606,0.6202980279922485,-0.2403711527585983,0,0,0,-1,-1,35848.91196654167,unknown,2,2025-04-22T15:35:02.393+03:00,2025-04-21T17:08:51.449+03:00,8251,1.040753,0,0,6864.177,7,22,2025-04-22T15:32:35.359+03:00,767018105.0627543,0,-15.57999,100.3896,1,0.55,2025-04-22T15:34:05.734+03:00,77.00000000000001,1.283333333333333,2025-04-22T14:20:19.516+03:00,0.02197104130929222,0
2025-04-22T15:35:06.760+03:00,1745325304.300193,40.95227366424168,29.14030080800874,76.50296,-1,-1,-1,-1,30,29.46666746656674,-9999,35853.27373654167,-0.6427154541015625,0.6186065673828125,-0.3727874755859375,35853.26366054167,-3.022028509675324,-1.268858600310487,-0.6800052318081448,-1.533531904220581,0.01167952083051205,0.7114934921264648,0.07399773597717285,-0.07438433170318604,-0.2181755900382996,XArbitraryZVertical,-0.5738365482761671,0.2347304867922497,-0.7461370770079981,0.2426778621526903,-0.7423936724662781,0.6287971138954163,-0.2312264293432236,0,0,0,-1,-1,35848.91196654167,unknown,2,2025-04-22T15:35:02.393+03:00,2025-04-21T17:08:51.449+03:00,8251,1.040753,0,0,6864.177,7,22,2025-04-22T15:32:35.359+03:00,767018105.0627543,0,-15.57999,100.3896,1,0.55,2025-04-22T15:34:05.734+03:00,77.00000000000001,1.283333333333333,2025-04-22T14:20:19.516+03:00,0.02197104130929222,0
2025-04-22T15:35:06.770+03:00,1745325304.300193,40.95227366424168,29.14030080800874,76.50296,-1,-1,-1,-1,30,29.46666746656674,-9999,35853.28381354167,-0.6221771240234375,0.5504608154296875,-0.401611328125,35853.27373654167,-3.038532586674644,-1.27951518733938,-0.6922347687081104,-1.59289824962616,-0.008084064349532127,0.877580463886261,0.07754307985305786,-0.05227595567703247,-0.1727067232131958,XArbitraryZVertical,-0.5748697136322921,0.2428709377359466,-0.7432315354870628,0.2411333048364189,-0.7373940348625183,0.6382591724395752,-0.2210770398378372,0,0,0,-1,-1,35848.91196654167,unknown,2,2025-04-22T15:35:02.393+03:00,2025-04-21T17:08:51.449+03:00,8251,1.040753,0,0,6864.177,7,22,2025-04-22T15:32:35.359+03:00,767018105.0627543,0,-15.57999,100.3896,1,0.55,2025-04-22T15:34:05.734+03:00,77.00000000000001,1.283333333333333,2025-04-22T14:20:19.516+03:00,0.02197104130929222,0
2025-04-22T15:35:06.780+03:00,1745325304.300193,40.95227366424168,29.14030080800874,76.50296,-1,-1,-1,-1,30,29.46666746656674,-9999,35853.29388954167,-0.6129608154296875,0.393218994140625,-0.4236297607421875,35853.28381354167,-3.055867298625007,-1.292278607446822,-0.7053377330752908,-1.683305621147156,-0.3274486660957336,0.8698790669441223,0.09208279848098755,-0.03056955337524414,-0.1651511192321777,XArbitraryZVertical,-0.5763491028692258,0.2513097319346821,-0.7396755798708778,0.2398855738780474,-0.7320515513420105,0.6482909917831421,-0.2093302607536316,0,0,0,-1,-1,35848.91196654167,unknown,2,2025-04-22T15:35:02.393+03:00,2025-04-21T17:08:51.449+03:00,8251,1.040753,0,0,6864.177,7,22,2025-04-22T15:32:35.359+03:00,767018105.0627543,0,-15.57999,100.3896,1,0.55,2025-04-22T15:34:05.734+03:00,77.00000000000001,1.283333333333333,2025-04-22T14:20:19.516+03:00,0.02197104130929222,0
2025-04-22T15:35:06.790+03:00,1745325304.300193,40.95227366424168,29.14030080800874,76.50296,-1,-1,-1,-1,30,29.46666746656674,-9999,35853.30396654167,-0.68243408203125,0.3668670654296875,-0.4133453369140625,35853.29388954167,-3.075400204059644,-1.309063221976474,-0.7185799444153667,-1.854257225990295,-0.4563097059726715,0.8891480565071106,0.108254611492157,-0.1264103055000305,-0.212176501750946,XArbitraryZVertical,-0.5788328173627466,0.2599322459853112,-0.7351863670427423,0.2385137003929222,-0.7271052002906799,0.6583163738250732,-0.1947755962610245,0,0,0,-1,-1,35848.91196654167,unknown,2,2025-04-22T15:35:02.393+03:00,2025-04-21T17:08:51.449+03:00,8251,1.040753,0,0,6864.177,7,22,2025-04-22T15:32:35.359+03:00,767018105.0627543,0,-15.57999,100.3896,1,0.55,2025-04-22T15:34:05.734+03:00,77.00000000000001,1.283333333333333,2025-04-22T14:20:19.516+03:00,0.02197104130929222,0
2025-04-22T15:35:06.800+03:00,1745325304.300193,40.95227366424168,29.14030080800874,76.50296,-1,-1,-1,-1,30,29.46666746656674,-9999,35853.31404254167,-0.70367431640625,0.4894561767578125,-0.4138336181640625,35853.30396654167,-3.097384084475517,-1.328811356210682,-0.7325633887981432,-1.983225464820862,-0.5754957795143127,0.9915130138397217,0.103942334651947,-0.2896883487701416,-0.2439632415771484,XArbitraryZVertical,-0.5817815034771751,0.2691695411658349,-0.7299988191827477,0.2370225914459707,-0.7218011021614075,0.6687775850296021,-0.1781560778617859,0,0,0,-1,-1,35848.91196654167,unknown,2,2025-04-22T15:35:02.393+03:00,2025-04-21T17:08:51.449+03:00,8251,1.040753,0,0,6864.177,7,22,2025-04-22T15:32:35.359+03:00,767018105.0627543,0,-15.57999,100.3896,1,0.55,2025-04-22T15:34:05.734+03:00,77.00000000000001,1.283333333333333,2025-04-22T14:20:19.516+03:00,0.02197104130929222,0
2025-04-22T15:35:06.810+03:00,1745325304.300193,40.95227366424168,29.14030080800874,76.50296,-1,-1,-1,-1,30,29.46666746656674,-9999,35853.32411854167,-0.653564453125,0.5896759033203125,-0.416839599609375,35853.31404254167,-3.120914281558649,-1.351308694959305,-0.7473580391605503,-2.042531728744507,-0.7439143657684326,1.070282101631165,0.02471280097961426,-0.3023688197135925,-0.2537352442741394,XArbitraryZVertical,-0.5851629085708199,0.2788072098647909,-0.724050691728177,0.235799449747982,-0.7158900499343872,0.6797032952308655,-0.1597018241882324,0,0,0,-1,-1,35848.91196654167,unknown,2,2025-04-22T15:35:02.393+03:00,2025-04-21T17:08:51.449+03:00,8251,1.040753,0,0,6864.177,7,22,2025-04-22T15:32:35.359+03:00,767018105.0627543,0,-15.57999,100.3896,1,0.55,2025-04-22T15:34:05.734+03:00,77.00000000000001,1.283333333333333,2025-04-22T14:20:19.516+03:00,0.02197104130929222,0
2025-04-22T15:35:06.820+03:00,1745325304.300193,40.95227366424168,29.14030080800874,76.50296,-1,-1,-1,-1,30,29.46666746656674,-9999,35853.33419554167,-0.626312255859375,0.6097564697265625,-0.3975067138671875,35853.32411854167,3.137129721592132,-1.376942885410344,-0.76240976398609,-2.146780729293823,-0.9226375818252563,1.103832840919495,0.01100432872772217,-0.184944212436676,-0.2748104333877563,XArbitraryZVertical,-0.5891071642760822,0.2886106482421795,-0.7173114838080287,0.2347778799619411,-0.7096278667449951,0.690666139125824,-0.139313280582428,0,0,0,-1,-1,35848.91196654167,unknown,2,2025-04-22T15:35:02.393+03:00,2025-04-21T17:08:51.449+03:00,8251,1.040753,0,0,6864.177,7,22,2025-04-22T15:32:35.359+03:00,767018105.0627543,0,-15.57999,100.3896,1,0.55,2025-04-22T15:34:05.734+03:00,77.00000000000001,1.283333333333333,2025-04-22T14:20:19.516+03:00,0.02197104130929222,0
2025-04-22T15:35:06.831+03:00,1745325304.300193,40.95227366424168,29.14030080800874,76.50296,-1,-1,-1,-1,30,29.46666746656674,-9999,35853.34427154167,-0.6252288818359375,0.6076202392578125,-0.3648529052734375,35853.33419554167,3.109680900848736,-1.406129105789018,-0.7774138331119633,-2.221884250640869,-1.073726415634155,1.131662607192993,0.05552119016647339,-0.1054455041885376,-0.2994263768196106,XArbitraryZVertical,-0.5936360983926938,0.2986291698114972,-0.7097744717044486,0.2337457295941045,-0.7030889391899109,0.7014385461807251,-0.1168336048722267,0,0,0,-1,-1,35848.91196654167,unknown,2,2025-04-22T15:35:02.393+03:00,2025-04-21T17:08:51.449+03:00,8251,1.040753,0,0,6864.177,7,22,2025-04-22T15:32:35.359+03:00,767018105.0627543,0,-15.57999,100.3896,1,0.55,2025-04-22T15:34:05.734+03:00,77.00000000000001,1.283333333333333,2025-04-22T14:20:19.516+03:00,0.02197104130929222,0
2025-04-22T15:35:06.849+03:00,1745325304.300193,40.95227366424168,29.14030080800874,76.50296,-1,-1,-1,-1,30,29.46666746656674,-9999,35853.35434854167,-0.61444091796875,0.6317901611328125,-0.3359832763671875,35853.34427154167,3.080601653840779,-1.43815078523165,-0.7921691434615891,-2.25040078163147,-1.205394148826599,1.157364964485168,0.0708891749382019,-0.1028085947036743,-0.3005789518356323,XArbitraryZVertical,-0.5985590104670661,0.3086825730551602,-0.7015877334862805,0.2328446511094562,-0.6961331367492676,0.7118783593177795,-0.092884361743927,0,0,0,-1,-1,35848.91196654167,unknown,2,2025-04-22T15:35:02.393+03:00,2025-04-21T17:08:51.449+03:00,8251,1.040753,0,0,6864.177,7,22,2025-04-22T15:32:35.359+03:00,767018105.0627543,0,-15.57999,100.3896,1,0.55,2025-04-22T15:34:05.734+03:00,77.00000000000001,1.283333333333333,2025-04-22T14:20:19.516+03:00,0.02197104130929222,0
2025-04-22T15:35:06.852+03:00,1745325304.300193,40.95227366424168,29.14030080800874,76.50296,-1,-1,-1,-1,30,29.46666746656674,-9999,35853.36442454167,-0.594970703125,0.6658477783203125,-0.296112060546875,35853.35434854167,3.050449799718042,-1.472625281102745,-0.8063005696326471,-2.214425563812256,-1.349307298660278,1.138449311256409,0.06403875350952148,-0.1138213872909546,-0.2944778800010681,XArbitraryZVertical,-0.6038373125612631,0.3185268767454643,-0.692842337414629,0.2321433729533809,-0.6888403296470642,0.7217314839363098,-0.0678422600030899,0,0,0,-1,-1,35848.91196654167,unknown,2,2025-04-22T15:35:02.393+03:00,2025-04-21T17:08:51.449+03:00,8251,1.040753,0,0,6864.177,7,22,2025-04-22T15:32:35.359+03:00,767018105.0627543,0,-15.57999,100.3896,1,0.55,2025-04-22T15:34:05.734+03:00,77.00000000000001,1.283333333333333,2025-04-22T14:20:19.516+03:00,0.02197104130929222,0
2025-04-22T15:35:06.861+03:00,1745325304.300193,40.95227366424168,29.14030080800874,76.50296,-1,-1,-1,-1,30,29.46666746656674,-9999,35853.37450054167,-0.61505126953125,0.6750335693359375,-0.2535247802734375,35853.36442454167,3.019342858563279,-1.509306459212509,-0.8193151427059747,-2.217456102371216,-1.438062906265259,1.097675919532776,0.07021015882492065,-0.0938376784324646,-0.2895281314849854,XArbitraryZVertical,-0.6094557851499979,0.3280040215268006,-0.683649616840998,0.2315170302151852,-0.6814314126968384,0.7306784391403198,-0.04195401445031166,0,0,0,-1,-1,35848.91196654167,unknown,2,2025-04-22T15:35:02.393+03:00,2025-04-21T17:08:51.449+03:00,8251,1.040753,0,0,6864.177,7,22,2025-04-22T15:32:35.359+03:00,767018105.0627543,0,-15.57999,100.3896,1,0.55,2025-04-22T15:34:05.734+03:00,77.00000000000001,1.283333333333333,2025-04-22T14:20:19.516+03:00,0.02197104130929222,0
2025-04-22T15:35:06.871+03:00,1745325304.300193,40.95227366424168,29.14030080800874,76.50296,-1,-1,-1,-1,30,29.46666746656674,-9999,35853.38457754167,-0.651397705078125,0.665771484375,-0.203643798828125,35853.37450054167,2.987500368454635,-1.547478475445275,-0.8311826168498524,-2.179767370223999,-1.494037508964539,1.069496273994446,0.07904696464538574,-0.07007372379302979,-0.2760334014892578,XArbitraryZVertical,-0.6152053595904383,0.3371423049933024,-0.6741887355055497,0.2309260487846229,-0.6738191843032837,0.7387290000915527,-0.01571486331522465,0,0,0,-1,-1,35848.91196654167,unknown,2,2025-04-22T15:35:02.393+03:00,2025-04-21T17:08:51.449+03:00,8251,1.040753,0,0,6864.177,7,22,2025-04-22T15:32:35.359+03:00,767018105.0627543,0,-15.57999,100.3896,1,0.55,2025-04-22T15:34:05.734+03:00,77.00000000000001,1.283333333333333,2025-04-22T14:20:19.516+03:00,0.02197104130929222,0
2025-04-22T15:35:06.881+03:00,1745325304.300193,40.95227366424168,29.14030080800874,76.50296,-1,-1,-1,-1,30,29.46666746656674,-9999,35853.39465354167,-0.6677703857421875,0.7008209228515625,-0.0595245361328125,35853.38457754167,2.953680327645695,-1.587640177470441,-0.8417053957012663,-2.318446159362793,-1.501270890235901,1.004018425941467,0.04602587223052979,-0.07190656661987305,-0.2604579925537109,XArbitraryZVertical,-0.621074391560977,0.3462325102266363,-0.6644536350647972,0.2299800383730137,-0.6660971641540527,0.745780348777771,0.01122070197016001,0,0,0,-1,-1,35848.91196654167,unknown,2,2025-04-22T15:35:02.393+03:00,2025-04-21T17:08:51.449+03:00,8251,1.040753,0,0,6864.177,7,22,2025-04-22T15:32:35.359+03:00,767018105.0627543,0,-15.57999,100.3896,1,0.55,2025-04-22T15:34:05.734+03:00,77.00000000000001,1.283333333333333,2025-04-22T14:20:19.516+03:00,0.02197104130929222,0
2025-04-22T15:35:06.891+03:00,1745325304.300193,40.95227366424168,29.14030080800874,76.50296,-1,-1,-1,-1,30,29.46666746656674,-9999,35853.40473054167,-0.651336669921875,0.760101318359375,0.0674285888671875,35853.39465354167,2.916693478998827,-1.630665119120193,-0.8507775088094022,-2.499752759933472,-1.532748341560364,0.9840958118438721,0.003569483757019043,-0.08478599786758423,-0.2311350107192993,XArbitraryZVertical,-0.627139815601885,0.355559504080233,-0.654287346290908,0.228431639039914,-0.658217191696167,0.7517933249473572,0.03945381939411163,0,0,0,-1,-1,35848.91196654167,unknown,2,2025-04-22T15:35:02.393+03:00,2025-04-21T17:08:51.449+03:00,8251,1.040753,0,0,6864.177,7,22,2025-04-22T15:32:35.359+03:00,767018105.0627543,0,-15.57999,100.3896,1,0.55,2025-04-22T15:34:05.734+03:00,77.00000000000001,1.283333333333333,2025-04-22T14:20:19.516+03:00,0.02197104130929222,0
2025-04-22T15:35:06.901+03:00,1745325304.300193,40.95227366424168,29.14030080800874,76.50296,-1,-1,-1,-1,30,29.46666746656674,-9999,35853.41480654167,-0.6493988037109375,0.7990570068359375,0.14105224609375,35853.40473054167,2.875953320978058,-1.676930561623927,-0.8581982923647719,-2.65596866607666,-1.535102367401123,0.9416507482528687,-0.01712888479232788,-0.04787999391555786,-0.1081401184201241,XArbitraryZVertical,-0.6334079928365045,0.3652732852809726,-0.6436061434852937,0.226143002813655,-0.6501225829124451,0.756665825843811,0.06926051527261734,0,0,0,-1,-1,35848.91196654167,unknown,2,2025-04-22T15:35:02.393+03:00,2025-04-21T17:08:51.449+03:00,8251,1.040753,0,0,6864.177,7,22,2025-04-22T15:32:35.359+03:00,767018105.0627543,0,-15.57999,100.3896,1,0.55,2025-04-22T15:34:05.734+03:00,77.00000000000001,1.283333333333333,2025-04-22T14:20:19.516+03:00,0.02197104130929222,0
2025-04-22T15:35:06.911+03:00,1745325304.300193,40.95227366424168,29.14030080800874,76.50296,-1,-1,-1,-1,30,29.46666746656674,-9999,35853.42488304167,-0.65252685546875,0.828399658203125,0.165924072265625,35853.41480654167,2.832278900009497,-1.725267830460728,-0.8641971358306519,-2.745838165283203,-1.495983719825745,0.9602057933807373,-0.007359921932220459,0.006530702114105225,-0.02153874933719635,XArbitraryZVertical,-0.6395549288466992,0.3753873476861841,-0.6326047938497504,0.2233041793638719,-0.6415199041366577,0.7605742216110229,0.09989233314990997,0,0,0,-1,-1,35848.91196654167,unknown,2,2025-04-22T15:35:02.393+03:00,2025-04-21T17:08:51.449+03:00,8251,1.040753,0,0,6864.177,7,22,2025-04-22T15:32:35.359+03:00,767018105.0627543,0,-15.57999,100.3896,1,0.55,2025-04-22T15:34:05.734+03:00,77.00000000000001,1.283333333333333,2025-04-22T14:20:19.516+03:00,0.02197104130929222,0
2025-04-22T15:35:06.921+03:00,1745325304.300193,40.95227366424168,29.14030080800874,76.50296,-1,-1,-1,-1,30,29.46666746656674,-9999,35853.43495904167,-0.6318206787109375,0.8497772216796875,0.1678466796875,35853.42488304167,2.7874413134709,-1.774327599844995,-0.8686467555287283,-2.781489133834839,-1.453026056289673,0.9285373687744141,-0.01868575811386108,0.03793579339981079,0.0166848748922348,XArbitraryZVertical,-0.6454869949525094,0.3855126952708973,-0.6214786871087664,0.2202056619784277,-0.6325286626815796,0.7634556293487549,0.1305470019578934,0,0,0,-1,-1,35848.91196654167,unknown,2,2025-04-22T15:35:02.393+03:00,2025-04-21T17:08:51.449+03:00,8251,1.040753,0,0,6864.177,7,22,2025-04-22T15:32:35.359+03:00,767018105.0627543,0,-15.57999,100.3896,1,0.55,2025-04-22T15:34:05.734+03:00,77.00000000000001,1.283333333333333,2025-04-22T14:20:19.516+03:00,0.02197104130929222,0
2025-04-22T15:35:06.931+03:00,1745325304.300193,40.95227366424168,29.14030080800874,76.50296,-1,-1,-1,-1,30,29.46666746656674,-9999,35853.44503504167,-0.60284423828125,0.8328094482421875,0.1733245849609375,35853.43495904167,2.741689253015553,-1.823574736551405,-0.8712733595307292,-2.750418901443481,-1.403525590896606,0.8900837302207947,-0.02686154842376709,0.06714111566543579,0.005097836256027222,XArbitraryZVertical,-0.6511547486591824,0.3956129823283191,-0.6103467657597028,0.2167128514709305,-0.6233915686607361,0.7651494145393372,0.161024272441864,0,0,0,-1,-1,35848.91196654167,unknown,2,2025-04-22T15:35:02.393+03:00,2025-04-21T17:08:51.449+03:00,8251,1.040753,0,0,6864.177,7,22,2025-04-22T15:32:35.359+03:00,767018105.0627543,0,-15.57999,100.3896,1,0.55,2025-04-22T15:34:05.734+03:00,77.00000000000001,1.283333333333333,2025-04-22T14:20:19.516+03:00,0.02197104130929222,0
2025-04-22T15:35:06.941+03:00,1745325304.300193,40.95227366424168,29.14030080800874,76.50296,-1,-1,-1,-1,30,29.46666746656674,-9999,35853.45511204167,-0.592987060546875,0.79827880859375,0.1827545166015625,35853.44503504167,2.698607327045888,-1.870758079622412,-0.8723583153557908,-2.516325712203979,-1.408507943153381,0.8141849040985107,-0.01389455795288086,0.08334982395172119,-0.02165257930755615,XArbitraryZVertical,-0.6565642523543291,0.4048760874827948,-0.5995005420264691,0.2135363337975614,-0.6143097281455994,0.7658475041389465,0.1900025308132172,0,0,0,-1,-1,35848.91196654167,unknown,2,2025-04-22T15:35:02.393+03:00,2025-04-21T17:08:51.449+03:00,8251,1.040753,0,0,6864.177,7,22,2025-04-22T15:32:35.359+03:00,767018105.0627543,0,-15.57999,100.3896,1,0.55,2025-04-22T15:34:05.734+03:00,77.00000000000001,1.283333333333333,2025-04-22T14:20:19.516+03:00,0.02197104130929222,0
2025-04-22T15:35:06.951+03:00,1745325304.300193,40.95227366424168,29.14030080800874,76.50296,-1,-1,-1,-1,30,29.46666746656674,-9999,35853.46518804167,-0.6118927001953125,0.830657958984375,0.2349395751953125,35853.45511204167,2.658557959486949,-1.915604137831565,-0.8717972755445067,-2.358234882354736,-1.393831014633179,0.7051761150360107,0.005709648132324219,0.06251621246337891,-0.04461492598056793,XArbitraryZVertical,-0.6618264105579138,0.4131999472095679,-0.5889844836825819,0.2105914129004779,-0.6055782437324524,0.7654866576194763,0.217496782541275,0,0,0,-1,-1,35848.91196654167,unknown,2,2025-04-22T15:35:02.393+03:00,2025-04-21T17:08:51.449+03:00,8251,1.040753,0,0,6864.177,7,22,2025-04-22T15:32:35.359+03:00,767018105.0627543,0,-15.57999,100.3896,1,0.55,2025-04-22T15:34:05.734+03:00,77.00000000000001,1.283333333333333,2025-04-22T14:20:19.516+03:00,0.02197104130929222,0
2025-04-22T15:35:06.961+03:00,1745325304.300193,40.95227366424168,29.14030080800874,76.50296,-1,-1,-1,-1,30,29.46666746656674,-9999,35853.47526504167,-0.619873046875,0.86993408203125,0.2491302490234375,35853.46518804167,2.621931895074988,-1.957653375228941,-0.86998380212933,-2.083832740783691,-1.409924983978271,0.6156057119369507,0.00245821475982666,0.03409749269485474,-0.05546429753303528,XArbitraryZVertical,-0.6668901989003568,0.4205944536906,-0.5788898286836159,0.2079523661324651,-0.5971846580505371,0.7643184661865234,0.2432844638824463,0,0,0,-1,-1,35848.91196654167,unknown,2,2025-04-22T15:35:02.393+03:00,2025-04-21T17:08:51.449+03:00,8251,1.040753,0,0,6864.177,7,22,2025-04-22T15:32:35.359+03:00,767018105.0627543,0,-15.57999,100.3896,1,0.55,2025-04-22T15:34:05.734+03:00,77.00000000000001,1.283333333333333,2025-04-22T14:20:19.516+03:00,0.02197104130929222,0
2025-04-22T15:35:06.971+03:00,1745325304.300193,40.95227366424168,29.14030080800874,76.50296,-1,-1,-1,-1,30,29.46666746656674,-9999,35853.48534104167,-0.624725341796875,0.8796234130859375,0.271392822265625,35853.47526504167,2.590233689040146,-1.996203147783791,-0.8673006887283484,-1.872944712638855,-1.435898542404175,0.5056414008140564,-0.02496600151062012,0.07455724477767944,-0.02698996663093567,XArbitraryZVertical,-0.6718735626740079,0.4266945987674005,-0.569297330091222,0.2059564408436894,-0.5892306566238403,0.7625855803489685,0.2669647336006165,0,0,0,-1,-1,35848.91196654167,unknown,2,2025-04-22T15:35:02.393+03:00,2025-04-21T17:08:51.449+03:00,8251,1.040753,0,0,6864.177,7,22,2025-04-22T15:32:35.359+03:00,767018105.0627543,0,-15.57999,100.3896,1,0.55,2025-04-22T15:34:05.734+03:00,77.00000000000001,1.283333333333333,2025-04-22T14:20:19.516+03:00,0.02197104130929222,0
2025-04-22T15:35:06.981+03:00,1745325304.300193,40.95227366424168,29.14030080800874,76.50296,-1,-1,-1,-1,30,29.46666746656674,-9999,35853.49541704167,-0.62060546875,0.896514892578125,0.3208160400390625,35853.48534104167,2.562101497146493,-2.032131414174178,-0.8637964759778857,-1.679222226142883,-1.46044933795929,0.4055449366569519,-0.0382838249206543,0.1118628978729248,-0.03980198502540588,XArbitraryZVertical,-0.6768132961195786,0.4318525124325844,-0.5600702130524758,0.2043241488768756,-0.5816501379013062,0.7603140473365784,0.2891456484794617,0,0,0,-1,-1,35848.91196654167,unknown,2,2025-04-22T15:35:02.393+03:00,2025-04-21T17:08:51.449+03:00,8251,1.040753,0,0,6864.177,7,22,2025-04-22T15:32:35.359+03:00,767018105.0627543,0,-15.57999,100.3896,1,0.55,2025-04-22T15:34:05.734+03:00,77.00000000000001,1.283333333333333,2025-04-22T14:20:19.516+03:00,0.02197104130929222,0
2025-04-22T15:35:06.991+03:00,1745325304.300193,40.95227366424168,29.14030080800874,76.50296,-1,-1,-1,-1,30,29.46666746656674,-9999,35853.50549404167,-0.60906982421875,0.868927001953125,0.327880859375,35853.49541704167,2.538709440854981,-2.06469780453544,-0.8599407872034608,-1.3830726146698,-1.475643992424011,0.3163761794567108,-0.05060261487960815,0.1243829131126404,-0.03041887283325195,XArbitraryZVertical,-0.6817115959929327,0.435808108815755,-0.5513578629648063,0.2033348673181311,-0.5745041370391846,0.7578039169311523,0.3093188107013702,0,0,0,-1,-1,35848.91196654167,unknown,2,2025-04-22T15:35:02.393+03:00,2025-04-21T17:08:51.449+03:00,8251,1.040753,0,0,6864.177,7,22,2025-04-22T15:32:35.359+03:00,767018105.0627543,0,-15.57999,100.3896,1,0.55,2025-04-22T15:34:05.734+03:00,77.00000000000001,1.283333333333333,2025-04-22T14:20:19.516+03:00,0.02197104130929222,0
2025-04-22T15:35:07.002+03:00,1745325304.300193,40.95227366424168,29.14030080800874,76.50296,-1,-1,-1,-1,30,29.46666746656674,-9999,35853.51557004167,-0.577880859375,0.8618011474609375,0.364471435546875,35853.50549404167,2.51957265431583,-2.093957358953119,-0.8564224117112773,-1.095988869667053,-1.459007143974304,0.2674486041069031,-0.05165612697601318,0.1397905349731445,-0.004493743181228638,XArbitraryZVertical,-0.686380231006802,0.4387984120079209,-0.5432320398486824,0.2030688238827185,-0.5675148963928223,0.7555035948753357,0.3273237347602844,0,0,0,-1,-1,35848.91196654167,unknown,2,2025-04-22T15:35:02.393+03:00,2025-04-21T17:08:51.449+03:00,8251,1.040753,0,0,6864.177,7,22,2025-04-22T15:32:35.359+03:00,767018105.0627543,0,-15.57999,100.3896,1,0.55,2025-04-22T15:34:05.734+03:00,77.00000000000001,1.283333333333333,2025-04-22T14:20:19.516+03:00,0.02197104130929222,0
2025-04-22T15:35:07.012+03:00,1745325304.300193,40.95227366424168,29.14030080800874,76.50296,-1,-1,-1,-1,30,29.46666746656674,-9999,35853.52564704167,-0.5576629638671875,0.8441314697265625,0.4305877685546875,35853.51557004167,2.503792658152939,-2.120234000857411,-0.8528639755155475,-1.033429503440857,-1.427818655967712,0.1737886667251587,-0.04600149393081665,0.1124787926673889,-0.01393356919288635,XArbitraryZVertical,-0.690854615425756,0.4410005661388258,-0.535697823795026,0.2031407213480552,-0.5610082745552063,0.7531675100326538,0.3435232043266296,0,0,0,-1,-1,35848.91196654167,unknown,2,2025-04-22T15:35:02.393+03:00,2025-04-21T17:08:51.449+03:00,8251,1.040753,0,0,6864.177,7,22,2025-04-22T15:32:35.359+03:00,767018105.0627543,0,-15.57999,100.3896,1,0.55,2025-04-22T15:34:05.734+03:00,77.00000000000001,1.283333333333333,2025-04-22T14:20:19.516+03:00,0.02197104130929222,0
2025-04-22T15:35:07.022+03:00,1745325304.300193,40.95227366424168,29.14030080800874,76.50296,-1,-1,-1,-1,30,29.46666746656674,-9999,35853.53572304167,-0.51348876953125,0.8348846435546875,0.532470703125,35853.52564704167,2.489988138990747,-2.144835073136017,-0.8487936154118303,-0.9534034729003906,-1.390084862709045,0.1010385602712631,-0.01849758625030518,0.1109818816184998,0.01184609532356262,XArbitraryZVertical,-0.6953311090634159,0.4426683246068301,-0.5284458293324272,0.203234978004423,-0.5549582839012146,0.7504836916923523,0.3588812053203583,0,0,0,-1,-1,35848.91196654167,unknown,2,2025-04-22T15:35:02.393+03:00,2025-04-21T17:08:51.449+03:00,8251,1.040753,0,0,6864.177,7,22,2025-04-22T15:32:35.359+03:00,767018105.0627543,0,-15.57999,100.3896,1,0.55,2025-04-22T15:34:05.734+03:00,77.00000000000001,1.283333333333333,2025-04-22T14:20:19.516+03:00,0.02197104130929222,0
2025-04-22T15:35:07.032+03:00,1745325304.300193,40.95227366424168,29.14030080800874,76.50296,-1,-1,-1,-1,30,29.46666746656674,-9999,35853.54579904167,-0.48431396484375,0.8111572265625,0.6584014892578125,35853.53572304167,2.477079490148678,-2.168309213273088,-0.8436489731381546,-1.049688458442688,-1.344680905342102,-0.01740686036646366,-0.004999220371246338,0.09435677528381348,0.0678427517414093,XArbitraryZVertical,-0.6998696292774921,0.4440383966856251,-0.5213733105247449,0.2029336331991774,-0.5495660305023193,0.7470737099647522,0.3739751875400543,0,0,0,-1,-1,35848.91196654167,unknown,2,2025-04-22T15:35:02.393+03:00,2025-04-21T17:08:51.449+03:00,8251,1.040753,0,0,6864.177,7,22,2025-04-22T15:32:35.359+03:00,767018105.0627543,0,-15.57999,100.3896,1,0.55,2025-04-22T15:34:05.734+03:00,77.00000000000001,1.283333333333333,2025-04-22T14:20:19.516+03:00,0.02197104130929222,0
2025-04-22T15:35:07.042+03:00,1745325304.300193,40.95227366424168,29.14030080800874,76.50296,-1,-1,-1,-1,30,29.46666746656674,-9999,35853.55587604167,-0.4893798828125,0.7389984130859375,0.798492431640625,35853.54579904167,2.463767560731053,-2.191159101912603,-0.8366390543579305,-1.192596435546875,-1.21732234954834,-0.1002097576856613,0.03816801309585571,0.09221434593200684,0.1569479703903198,XArbitraryZVertical,-0.7045105195224961,0.4454204889812568,-0.5143873059603223,0.2016707441742882,-0.5451259613037109,0.7423956394195557,0.3894689679145813,0,0,0,-1,-1,35848.91196654167,unknown,2,2025-04-22T15:35:02.393+03:00,2025-04-21T17:08:51.449+03:00,8251,1.040753,0,0,6864.177,7,22,2025-04-22T15:32:35.359+03:00,767018105.0627543,0,-15.57999,100.3896,1,0.55,2025-04-22T15:34:05.734+03:00,77.00000000000001,1.283333333333333,2025-04-22T14:20:19.516+03:00,0.02197104130929222,0
2025-04-22T15:35:07.052+03:00,1745325304.300193,40.95227366424168,29.14030080800874,76.50296,-1,-1,-1,-1,30,29.46666746656674,-9999,35853.56595204167,-0.4819183349609375,0.690582275390625,0.87939453125,35853.55587604167,2.450705934295889,-2.212540429056975,-0.8281842750934946,-1.210262298583984,-1.10169517993927,-0.2282569408416748,0.05787307024002075,0.06772321462631226,0.2720412611961365,XArbitraryZVertical,-0.7090837314619398,0.4467537833647083,-0.5077135369352207,0.1995948201096187,-0.5416833162307739,0.7367047667503357,0.4047773480415344,0,0,0,-1,-1,35848.91196654167,unknown,2,2025-04-22T15:35:02.393+03:00,2025-04-21T17:08:51.449+03:00,8251,1.040753,0,0,6864.177,7,22,2025-04-22T15:32:35.359+03:00,767018105.0627543,0,-15.57999,100.3896,1,0.55,2025-04-22T15:34:05.734+03:00,77.00000000000001,1.283333333333333,2025-04-22T14:20:19.516+03:00,0.02197104130929222,0
2025-04-22T15:35:07.062+03:00,1745325304.300193,40.95227366424168,29.14030080800874,76.50296,-1,-1,-1,-1,30,29.46666746656674,-9999,35853.57602904167,-0.4874267578125,0.7022705078125,0.9556732177734375,35853.56595204167,2.438654714832997,-2.23164478921827,-0.8182435424655224,-1.263321876525879,-0.930194616317749,-0.3511883616447449,0.05126500129699707,0.0006138086318969727,0.3926229178905487,XArbitraryZVertical,-0.7135740109307378,0.447856082293184,-0.501548166505873,0.1966885086575955,-0.5396071672439575,0.7299464344978333,0.4195258915424347,0,0,0,-1,-1,35848.91196654167,unknown,2,2025-04-22T15:35:02.393+03:00,2025-04-21T17:08:51.449+03:00,8251,1.040753,0,0,6864.177,7,22,2025-04-22T15:32:35.359+03:00,767018105.0627543,0,-15.57999,100.3896,1,0.55,2025-04-22T15:34:05.734+03:00,77.00000000000001,1.283333333333333,2025-04-22T14:20:19.516+03:00,0.02197104130929222,0
2025-04-22T15:35:07.072+03:00,1745325304.300193,40.95227366424168,29.14030080800874,76.50296,-1,-1,-1,-1,30,29.46666746656674,-9999,35853.58610504167,-0.4947052001953125,0.733184814453125,1.009933471679688,35853.57602904167,2.428420693360801,-2.247467199390824,-0.8074533200719705,-1.142725110054016,-0.7280420064926147,-0.4598464071750641,0.05802434682846069,-0.03353345394134521,0.454441249370575,XArbitraryZVertical,-0.7177765730686008,0.4486155215895593,-0.4962096277291648,0.1931758601639817,-0.5390118956565857,0.722528874874115,0.4329181909561157,0,0,0,-1,-1,35848.91196654167,unknown,2,2025-04-22T15:35:02.393+03:00,2025-04-21T17:08:51.449+03:00,8251,1.040753,0,0,6864.177,7,22,2025-04-22T15:32:35.359+03:00,767018105.0627543,0,-15.57999,100.3896,1,0.55,2025-04-22T15:34:05.734+03:00,77.00000000000001,1.283333333333333,2025-04-22T14:20:19.516+03:00,0.02197104130929222,0
2025-04-22T15:35:07.082+03:00,1745325304.300193,40.95227366424168,29.14030080800874,76.50296,-1,-1,-1,-1,30,29.46666746656674,-9999,35853.59618204167,-0.493194580078125,0.739227294921875,1.037826538085938,35853.58610504167,2.421407430953835,-2.258673724544288,-0.7969020478570779,-0.9262237548828125,-0.489402711391449,-0.5555830597877502,0.05037796497344971,-0.009124279022216797,0.5214322209358215,XArbitraryZVertical,-0.7214459689394019,0.4487640992085727,-0.4921394039539423,0.1895396932975942,-0.5399867296218872,0.7151942849159241,0.4437470138072968,0,0,0,-1,-1,35848.91196654167,unknown,2,2025-04-22T15:35:02.393+03:00,2025-04-21T17:08:51.449+03:00,8251,1.040753,0,0,6864.177,7,22,2025-04-22T15:32:35.359+03:00,767018105.0627543,0,-15.57999,100.3896,1,0.55,2025-04-22T15:34:05.734+03:00,77.00000000000001,1.283333333333333,2025-04-22T14:20:19.516+03:00,0.02197104130929222,0
2025-04-22T15:35:07.092+03:00,1745325304.300193,40.95227366424168,29.14030080800874,76.50296,-1,-1,-1,-1,30,29.46666746656674,-9999,35853.60625804167,-0.495880126953125,0.70147705078125,1.127655029296875,35853.59618204167,2.417635071512962,-2.264944494597496,-0.7867078534719643,-0.7828083038330078,-0.2153378427028656,-0.6736695170402527,0.04780453443527222,0.02808219194412231,0.5617996454238892,XArbitraryZVertical,-0.7245101594170569,0.4482940728177099,-0.489506439261146,0.1857438374444001,-0.5427690744400024,0.7080322504043579,0.4517650902271271,0,0,0,-1,-1,35848.91196654167,unknown,2,2025-04-22T15:35:02.393+03:00,2025-04-21T17:08:51.449+03:00,8251,1.040753,0,0,6864.177,7,22,2025-04-22T15:32:35.359+03:00,767018105.0627543,0,-15.57999,100.3896,1,0.55,2025-04-22T15:34:05.734+03:00,77.00000000000001,1.283333333333333,2025-04-22T14:20:19.516+03:00,0.02197104130929222,0
2025-04-22T15:35:07.102+03:00,1745325304.300193,40.95227366424168,29.14030080800874,76.50296,-1,-1,-1,-1,30,29.46666746656674,-9999,35853.61633404167,-0.509063720703125,0.6291351318359375,1.338150024414062,35853.60625804167,2.41596113323384,-2.26652093894313,-0.7761387574808196,-0.7641389966011047,0.1509482711553574,-0.7930201292037964,0.05517047643661499,0.03598201274871826,0.5859588384628296,XArbitraryZVertical,-0.7269595587131503,0.4474655075550721,-0.4883172293507833,0.1812473175885436,-0.5477699041366577,0.700529158115387,0.4573911726474762,0,0,0,-1,-1,35848.91196654167,unknown,2,2025-04-22T15:35:02.393+03:00,2025-04-21T17:08:51.449+03:00,8251,1.040753,0,0,6864.177,7,22,2025-04-22T15:32:35.359+03:00,767018105.0627543,0,-15.57999,100.3896,1,0.55,2025-04-22T15:34:05.734+03:00,77.00000000000001,1.283333333333333,2025-04-22T14:20:19.516+03:00,0.02197104130929222,0
2025-04-22T15:35:07.113+03:00,1745325304.300193,40.95227366424168,29.14030080800874,76.50296,-1,-1,-1,-1,30,29.46666746656674,-9999,35853.62641104167,-0.52923583984375,0.5243377685546875,1.750656127929688,35853.61633404167,2.415135356078658,-2.262988133854964,-0.7641040808087625,-0.832933783531189,0.6679913997650146,-0.96586674451828,0.05900669097900391,0.001682579517364502,0.6855765581130981,XArbitraryZVertical,-0.7286657369438578,0.4465944530631724,-0.4887803766853983,0.1751950156837829,-0.5558328032493591,0.6918904185295105,0.4608007371425629,0,0,0,-1,-1,35848.91196654167,unknown,2,2025-04-22T15:35:02.393+03:00,2025-04-21T17:08:51.449+03:00,8251,1.040753,0,0,6864.177,7,22,2025-04-22T15:32:35.359+03:00,767018105.0627543,0,-15.57999,100.3896,1,0.55,2025-04-22T15:34:05.734+03:00,77.00000000000001,1.283333333333333,2025-04-22T14:20:19.516+03:00,0.02197104130929222,0
2025-04-22T15:35:07.123+03:00,1745325304.300193,40.95227366424168,29.14030080800874,76.50296,-1,-1,-1,-1,30,29.46666746656674,-9999,35853.63648704167,-0.5149078369140625,0.399566650390625,2.128402709960938,35853.62641104167,2.415952035794751,-2.25349306480283,-0.7509222969502726,-0.7603031396865845,1.119521856307983,-1.133238077163696,0.05604100227355957,-0.06453073024749756,0.917643666267395,XArbitraryZVertical,-0.7295108251855342,0.4454461038816677,-0.4911797082572995,0.1677323497345633,-0.5672103762626648,0.6823133230209351,0.461216539144516,0,0,0,-1,-1,35848.91196654167,unknown,2,2025-04-22T15:35:02.393+03:00,2025-04-21T17:08:51.449+03:00,8251,1.040753,0,0,6864.177,7,22,2025-04-22T15:32:35.359+03:00,767018105.0627543,0,-15.57999,100.3896,1,0.55,2025-04-22T15:34:05.734+03:00,77.00000000000001,1.283333333333333,2025-04-22T14:20:19.516+03:00,0.02197104130929222,0
2025-04-22T15:35:07.133+03:00,1745325304.300193,40.95227366424168,29.14030080800874,76.50296,-1,-1,-1,-1,30,29.46666746656674,-9999,35853.64656404167,-0.4766387939453125,0.258544921875,2.263458251953125,35853.63648704167,2.419616941704986,-2.237066198424356,-0.7378334750168071,-0.3686248958110809,1.650251865386963,-1.19959282875061,0.05055320262908936,-0.1636685729026794,1.349764943122864,XArbitraryZVertical,-0.7292131453434041,0.4437422409571291,-0.4958895925321266,0.1594815611678448,-0.5816810131072998,0.6726863980293274,0.457317978143692,0,0,0,-1,-1,35848.91196654167,unknown,2,2025-04-22T15:35:02.393+03:00,2025-04-21T17:08:51.449+03:00,8251,1.040753,0,0,6864.177,7,22,2025-04-22T15:32:35.359+03:00,767018105.0627543,0,-15.57999,100.3896,1,0.55,2025-04-22T15:34:05.734+03:00,77.00000000000001,1.283333333333333,2025-04-22T14:20:19.516+03:00,0.02197104130929222,0
2025-04-22T15:35:07.143+03:00,1745325304.300193,40.95227366424168,29.14030080800874,76.50296,-1,-1,-1,-1,30,29.46666746656674,-9999,35853.65664004167,-0.445892333984375,0.017791748046875,2.16680908203125,35853.64656404167,2.430515571427519,-2.210188021493761,-0.7290228086718923,0.6740114688873291,2.251134872436523,-1.167853951454163,0.08898812532424927,-0.2805516123771667,1.716306686401367,XArbitraryZVertical,-0.7268678813942427,0.4406618307952594,-0.5041863365834991,0.1525654084829948,-0.5984942317008972,0.666141152381897,0.4450395405292511,0,0,0,-1,-1,35848.91196654167,unknown,2,2025-04-22T15:35:02.393+03:00,2025-04-21T17:08:51.449+03:00,8251,1.040753,0,0,6864.177,7,22,2025-04-22T15:32:35.359+03:00,767018105.0627543,0,-15.57999,100.3896,1,0.55,2025-04-22T15:34:05.734+03:00,77.00000000000001,1.283333333333333,2025-04-22T14:20:19.516+03:00,0.02197104130929222,0
2025-04-22T15:35:07.153+03:00,1745325304.300193,40.95227366424168,29.14030080800874,76.50296,-1,-1,-1,-1,30,29.46666746656674,-9999,35853.66671704167,-0.454620361328125,-0.266754150390625,2.089645385742188,35853.65664004167,2.455833163074937,-2.166449945686514,-0.7280011406564397,2.330787897109985,3.119447946548462,-1.156325936317444,0.1464626789093018,-0.4303935170173645,1.841243624687195,XArbitraryZVertical,-0.7214571454460796,0.4346413091544143,-0.5180485054034658,0.1490374342608169,-0.6179439425468445,0.6653788089752197,0.4188269674777985,0,0,0,-1,-1,35848.91196654167,unknown,2,2025-04-22T15:35:02.393+03:00,2025-04-21T17:08:51.449+03:00,8251,1.040753,0,0,6864.177,7,22,2025-04-22T15:32:35.359+03:00,767018105.0627543,0,-15.57999,100.3896,1,0.55,2025-04-22T15:34:05.734+03:00,77.00000000000001,1.283333333333333,2025-04-22T14:20:19.516+03:00,0.02197104130929222,0
2025-04-22T15:35:07.163+03:00,1745325304.300193,40.95227366424168,29.14030080800874,76.50296,-1,-1,-1,-1,30,29.46666746656674,-9999,35853.67679304167,-0.3955078125,-0.3477020263671875,1.988937377929688,35853.66671704167,2.501373768452846,-2.099389442253799,-0.7361910572520989,4.161073684692383,4.171496868133545,-1.04046094417572,0.1948099136352539,-0.6901012063026428,1.779283404350281,XArbitraryZVertical,-0.7117008443613554,0.4246645793024636,-0.5390941771873065,0.1500643426570558,-0.6398935317993164,0.6714702248573303,0.3737162053585052,0,0,0,-1,-1,35848.91196654167,unknown,2,2025-04-22T15:35:02.393+03:00,2025-04-21T17:08:51.449+03:00,8251,1.040753,0,0,6864.177,7,22,2025-04-22T15:32:35.359+03:00,767018105.0627543,0,-15.57999,100.3896,1,0.55,2025-04-22T15:34:05.734+03:00,77.00000000000001,1.283333333333333,2025-04-22T14:20:19.516+03:00,0.02197104130929222,0
2025-04-22T15:35:07.174+03:00,1745325304.300193,40.95227366424168,29.14030080800874,76.50296,-1,-1,-1,-1,30,29.46666746656674,-9999,35853.68686904167,-0.1911468505859375,-0.2206268310546875,1.874069213867188,35853.67679304167,2.564832644754722,-2.009722179853052,-0.7498513656527938,5.19391393661499,5.089803218841553,-0.8667676448822021,0.209038257598877,-0.9744377732276917,1.771746039390564,XArbitraryZVertical,-0.697173453979262,0.4116340636683988,-0.566263807565808,0.1544400842677598,-0.6624225974082947,0.6815299987792969,0.3109868466854095,0,0,0,-1,-1,35848.91196654167,unknown,2,2025-04-22T15:35:02.393+03:00,2025-04-21T17:08:51.449+03:00,8251,1.040753,0,0,6864.177,7,22,2025-04-22T15:32:35.359+03:00,767018105.0627543,0,-15.57999,100.3896,1,0.55,2025-04-22T15:34:05.734+03:00,77.00000000000001,1.283333333333333,2025-04-22T14:20:19.516+03:00,0.02197104130929222,0
2025-04-22T15:35:07.183+03:00,1745325304.300193,40.95227366424168,29.14030080800874,76.50296,-1,-1,-1,-1,30,29.46666746656674,-9999,35853.69694604167,0.0769195556640625,0.0037078857421875,1.748489379882812,35853.68686904167,2.638800210544603,-1.903798029743823,-0.7627338411016855,5.603429317474365,5.843314170837402,-0.8355603218078613,0.3049389719963074,-1.029706716537476,1.735849022865295,XArbitraryZVertical,-0.6785251194180162,0.3971939517486613,-0.5969443046664827,0.1596809858406986,-0.6832347512245178,0.690900444984436,0.2363187521696091,0,0,0,-1,-1,35848.91196654167,unknown,2,2025-04-22T15:35:02.393+03:00,2025-04-21T17:08:51.449+03:00,8251,1.040753,0,0,6864.177,7,22,2025-04-22T15:32:35.359+03:00,767018105.0627543,0,-15.57999,100.3896,1,0.55,2025-04-22T15:34:05.734+03:00,77.00000000000001,1.283333333333333,2025-04-22T14:20:19.516+03:00,0.02197104130929222,0
2025-04-22T15:35:07.193+03:00,1745325304.300193,40.95227366424168,29.14030080800874,76.50296,-1,-1,-1,-1,30,29.46666746656674,-9999,35853.70702204167,0.153472900390625,0.285369873046875,1.684768676757812,35853.69694604167,2.716345361225701,-1.787861652072107,-0.7689308964779455,5.330625534057617,6.515239238739014,-0.9986296892166138,0.5451588034629822,-0.8935484886169434,1.707150101661682,XArbitraryZVertical,-0.6567849826990887,0.3821254997110224,-0.6292517897588105,0.1632657692784344,-0.7017902135848999,0.6953673362731934,0.1547728180885315,0,0,0,-1,-1,35848.91196654167,unknown,2,2025-04-22T15:35:02.393+03:00,2025-04-21T17:08:51.449+03:00,8251,1.040753,0,0,6864.177,7,22,2025-04-22T15:32:35.359+03:00,767018105.0627543,0,-15.57999,100.3896,1,0.55,2025-04-22T15:34:05.734+03:00,77.00000000000001,1.283333333333333,2025-04-22T14:20:19.516+03:00,0.02197104130929222,0
2025-04-22T15:35:07.203+03:00,1745325304.300193,40.95227366424168,29.14030080800874,76.50296,-1,-1,-1,-1,30,29.46666746656674,-9999,35853.71709904167,0.0729827880859375,0.30242919921875,1.67059326171875,35853.70702204167,2.790667077899934,-1.666448235365269,-0.7674509282828178,5.10538387298584,7.259895801544189,-0.9040465354919434,0.8168110251426697,-0.6542640328407288,1.663657069206238,XArbitraryZVertical,-0.6317938470577145,0.3677003938332385,-0.6623799588584813,0.1639682236941259,-0.7163928151130676,0.6943029761314392,0.06873408704996109,0,0,0,-1,-1,35848.91196654167,unknown,2,2025-04-22T15:35:02.393+03:00,2025-04-21T17:08:51.449+03:00,8251,1.040753,0,0,6864.177,7,22,2025-04-22T15:32:35.359+03:00,767018105.0627543,0,-15.57999,100.3896,1,0.55,2025-04-22T15:34:05.734+03:00,77.00000000000001,1.283333333333333,2025-04-22T14:20:19.516+03:00,0.02197104130929222,0
2025-04-22T15:35:07.213+03:00,1745325304.300193,40.95227366424168,29.14030080800874,76.50296,-1,-1,-1,-1,30,29.46666746656674,-9999,35853.72717504167,0.0486297607421875,0.1633453369140625,1.516693115234375,35853.71709904167,2.855128928930053,-1.545858174970905,-0.7606762625473121,3.893432140350342,7.763586044311523,-0.7945253849029541,0.8709646463394165,-0.3810467123985291,1.70443320274353,XArbitraryZVertical,-0.6037649594211643,0.3555792308787903,-0.6949052132828804,0.1616719730051993,-0.724144458770752,0.689411461353302,-0.01806256920099258,0,0,0,-1,-1,35848.91196654167,unknown,2,2025-04-22T15:35:02.393+03:00,2025-04-21T17:08:51.449+03:00,8251,1.040753,0,0,6864.177,7,22,2025-04-22T15:32:35.359+03:00,767018105.0627543,0,-15.57999,100.3896,1,0.55,2025-04-22T15:34:05.734+03:00,77.00000000000001,1.283333333333333,2025-04-22T14:20:19.516+03:00,0.02197104130929222,0
2025-04-22T15:35:07.223+03:00,1745325304.300193,40.95227366424168,29.14030080800874,76.50296,-1,-1,-1,-1,30,29.46666746656674,-9999,35853.73725204167,0.158203125,-0.1210784912109375,0.9879913330078125,35853.72717504167,2.898800298482751,-1.435995300318711,-0.7500811486227018,2.619046449661255,8.095477104187012,-0.8667235374450684,0.7885795831680298,-0.395992636680603,1.758009552955627,XArbitraryZVertical,-0.5742373528270306,0.347977307894116,-0.7248026201778863,0.1543511610677878,-0.7249960899353027,0.6816981434822083,-0.09832651168107986,0,0,0,-1,-1,35848.91196654167,unknown,2,2025-04-22T15:35:02.393+03:00,2025-04-21T17:08:51.449+03:00,8251,1.040753,0,0,6864.177,7,22,2025-04-22T15:32:35.359+03:00,767018105.0627543,0,-15.57999,100.3896,1,0.55,2025-04-22T15:34:05.734+03:00,77.00000000000001,1.283333333333333,2025-04-22T14:20:19.516+03:00,0.02197104130929222,0
2025-04-22T15:35:07.233+03:00,1745325304.300193,40.95227366424168,29.14030080800874,76.50296,-1,-1,-1,-1,30,29.46666746656674,-9999,35853.74732804167,0.1956024169921875,-0.4642486572265625,0.327728271484375,35853.73725204167,2.923511324130096,-1.337157907516177,-0.7377324203005861,1.428322553634644,8.125733375549316,-0.8207100033760071,0.7762563824653625,-0.5292706489562988,1.649731397628784,XArbitraryZVertical,-0.5439532305950864,0.3441707633372278,-0.751896893787715,0.1425212487880607,-0.7198901772499084,0.6726116538047791,-0.1713227331638336,0,0,0,-1,-1,35848.91196654167,unknown,2,2025-04-22T15:35:02.393+03:00,2025-04-21T17:08:51.449+03:00,8251,1.040753,0,0,6864.177,7,22,2025-04-22T15:32:35.359+03:00,767018105.0627543,0,-15.57999,100.3896,1,0.55,2025-04-22T15:34:05.734+03:00,77.00000000000001,1.283333333333333,2025-04-22T14:20:19.516+03:00,0.02197104130929222,0
2025-04-22T15:35:07.243+03:00,1745325304.300193,40.95227366424168,29.14030080800874,76.50296,-1,-1,-1,-1,30,29.46666746656674,-9999,35853.75740404167,0.4030609130859375,-0.418548583984375,-1.606826782226562,35853.74732804167,2.958044870170185,-1.230478736537809,-0.7264557111834019,5.721966743469238,9.175815582275391,1.500337958335876,0.875910758972168,-0.8354433178901672,1.14604651927948,XArbitraryZVertical,-0.5106368044365526,0.338366391041273,-0.7789340073991725,0.1342384249993298,-0.7046611905097961,0.6642243266105652,-0.2495164722204208,0,0,0,-1,-1,35848.91196654167,unknown,2,2025-04-22T15:35:02.393+03:00,2025-04-21T17:08:51.449+03:00,8251,1.040753,0,0,6864.177,7,22,2025-04-22T15:32:35.359+03:00,767018105.0627543,0,-15.57999,100.3896,1,0.55,2025-04-22T15:34:05.734+03:00,77.00000000000001,1.283333333333333,2025-04-22T14:20:19.516+03:00,0.02197104130929222,0
2025-04-22T15:35:07.253+03:00,1745325304.300193,40.95227366424168,29.14030080800874,76.50296,-1,-1,-1,-1,30,29.46666746656674,-9999,35853.76748104167,1.623458862304688,2.619964599609375,-9.018447875976562,35853.75740404167,3.078183225256955,-1.10068358593863,-0.6920267855450916,7.453505039215088,2.156933307647705,0.1892688870429993,0.8769641518592834,-1.132315993309021,0.5974514484405518,XArbitraryZVertical,-0.4825721210317222,0.3045235277893094,-0.8070487067573857,0.1518616379578074,-0.6864275336265564,0.6380990147590637,-0.3487791419029236,0,0,0,-1,-1,35848.91196654167,unknown,2,2025-04-22T15:35:02.393+03:00,2025-04-21T17:08:51.449+03:00,8251,1.040753,0,0,6864.177,7,22,2025-04-22T15:32:35.359+03:00,767018105.0627543,0,-15.57999,100.3896,1,0.55,2025-04-22T15:34:05.734+03:00,77.00000000000001,1.283333333333333,2025-04-22T14:20:19.516+03:00,0.02197104130929222,0
2025-04-22T15:35:07.264+03:00,1745325304.300193,40.95227366424168,29.14030080800874,76.50296,-1,-1,-1,-1,30,29.46666746656674,-9999,35853.77755704167,1.564254760742188,4.805816650390625,-7.475418090820312,35853.76748104167,-3.089129650850363,-1.045095743345412,-0.6250470143680926,12.86282825469971,-5.392634391784668,-3.262249231338501,1.224889993667603,-0.8711309432983398,-1.928002834320068,XArbitraryZVertical,-0.4817387543253459,0.2538824030376094,-0.8202668645294142,0.175025106762357,-0.7014370560646057,0.5851354002952576,-0.4069429934024811,0,0,0,-1,-1,35848.91196654167,unknown,2,2025-04-22T15:35:02.393+03:00,2025-04-21T17:08:51.449+03:00,8251,1.040753,0,0,6864.177,7,22,2025-04-22T15:32:35.359+03:00,767018105.0627543,0,-15.57999,100.3896,1,0.55,2025-04-22T15:34:05.734+03:00,77.00000000000001,1.283333333333333,2025-04-22T14:20:19.516+03:00,0.02197104130929222,0
2025-04-22T15:35:07.274+03:00,1745325304.300193,40.95227366424168,29.14030080800874,76.50296,-1,-1,-1,-1,30,29.46666746656674,-9999,35853.78763404167,-0.290435791015625,-1.8717041015625,-2.054153442382812,35853.77755704167,-3.004383428614303,-1.050850606282929,-0.5468295513982672,6.590880393981934,-3.869181394577026,-3.017661571502686,2.479697942733765,2.700004100799561,-9.111658096313477,XArbitraryZVertical,-0.4978267580840287,0.1999419280889543,-0.8217317576064949,0.1922199382009044,-0.7412944436073303,0.5199817419052124,-0.4243834912776947,0,0,0,-1,-1,35848.91196654167,unknown,2,2025-04-22T15:35:02.393+03:00,2025-04-21T17:08:51.449+03:00,8251,1.040753,0,0,6864.177,7,22,2025-04-22T15:32:35.359+03:00,767018105.0627543,0,-15.57999,100.3896,1,0.55,2025-04-22T15:34:05.734+03:00,77.00000000000001,1.283333333333333,2025-04-22T14:20:19.516+03:00,0.02197104130929222,0
2025-04-22T15:35:07.284+03:00,1745325304.300193,40.95227366424168,29.14030080800874,76.50296,-1,-1,-1,-1,30,29.46666746656674,-9999,35853.79771004167,-0.7931671142578125,-5.75628662109375,-0.270538330078125,35853.78763404167,-2.982076615591161,-1.070901986155797,-0.5103721326879436,0.6361557841300964,-3.125948667526245,-1.120453238487244,2.144559144973755,3.910484790802002,-6.236583232879639,XArbitraryZVertical,-0.5094331681823688,0.17707022548375,-0.8192803603185942,0.19468861270711,-0.7657900452613831,0.4885019958019257,-0.4182479679584503,0,0,0,-1,-1,35848.91196654167,unknown,2,2025-04-22T15:35:02.393+03:00,2025-04-21T17:08:51.449+03:00,8251,1.040753,0,0,6864.177,7,22,2025-04-22T15:32:35.359+03:00,767018105.0627543,0,-15.57999,100.3896,1,0.55,2025-04-22T15:34:05.734+03:00,77.00000000000001,1.283333333333333,2025-04-22T14:20:19.516+03:00,0.02197104130929222,0
2025-04-22T15:35:07.294+03:00,1745325304.300193,40.95227366424168,29.14030080800874,76.50296,-1,-1,-1,-1,30,29.46666746656674,-9999,35853.80778704167,-0.5281982421875,0.554840087890625,0.4051666259765625,35853.79771004167,-2.991949321493652,-1.107504819517266,-0.5046514263299275,-1.456262111663818,-2.726441621780396,-1.062045574188232,0.3114514350891113,-3.379162788391113,-1.343356609344482,XArbitraryZVertical,-0.5236788167774312,0.1736872920578715,-0.8115051361793817,0.1924902082272333,-0.783069908618927,0.4835023581981659,-0.3911864459514618,0,0,0,-1,-1,35848.91196654167,unknown,2,2025-04-22T15:35:02.393+03:00,2025-04-21T17:08:51.449+03:00,8251,1.040753,0,0,6864.177,7,22,2025-04-22T15:32:35.359+03:00,767018105.0627543,0,-15.57999,100.3896,1,0.55,2025-04-22T15:34:05.734+03:00,77.00000000000001,1.283333333333333,2025-04-22T14:20:19.516+03:00,0.02197104130929222,0
2025-04-22T15:35:07.304+03:00,1745325304.300193,40.95227366424168,29.14030080800874,76.50296,-1,-1,-1,-1,30,29.46666746656674,-9999,35853.81786304167,-0.87835693359375,2.17388916015625,-0.37396240234375,35853.80778704167,-3.010243069398337,-1.13520328856648,-0.5007148995726519,-1.037105560302734,-1.188174962997437,-0.7764448523521423,0.05653822422027588,-5.792415618896484,0.2922379970550537,XArbitraryZVertical,-0.5334375503066359,0.1742687274877245,-0.8064030101743652,0.1865177530822417,-0.7953228950500488,0.4800527989864349,-0.3701495826244354,0,0,0,-1,-1,35848.91196654167,unknown,2,2025-04-22T15:35:02.393+03:00,2025-04-21T17:08:51.449+03:00,8251,1.040753,0,0,6864.177,7,22,2025-04-22T15:32:35.359+03:00,767018105.0627543,0,-15.57999,100.3896,1,0.55,2025-04-22T15:34:05.734+03:00,77.00000000000001,1.283333333333333,2025-04-22T14:20:19.516+03:00,0.02197104130929222,0
2025-04-22T15:35:07.314+03:00,1745325304.300193,40.95227366424168,29.14030080800874,76.50296,-1,-1,-1,-1,30,29.46666746656674,-9999,35853.82793904167,-0.8317718505859375,0.2375946044921875,-0.1966705322265625,35853.81786304167,-3.025219922527782,-1.148869841602314,-0.5042316313569914,-1.637350916862488,-0.1825086027383804,0.2508682310581207,0.2383830547332764,0.7625163197517395,0.6777051091194153,XArbitraryZVertical,-0.5374709400379311,0.1784622319807437,-0.8037019736371213,0.1825902855418819,-0.7987619638442993,0.4831348359584808,-0.3585524260997772,0,0,0,-1,-1,35848.91196654167,unknown,2,2025-04-22T15:35:02.393+03:00,2025-04-21T17:08:51.449+03:00,8251,1.040753,0,0,6864.177,7,22,2025-04-22T15:32:35.359+03:00,767018105.0627543,0,-15.57999,100.3896,1,0.55,2025-04-22T15:34:05.734+03:00,77.00000000000001,1.283333333333333,2025-04-22T14:20:19.516+03:00,0.02197104130929222,0
2025-04-22T15:35:07.324+03:00,1745325304.300193,40.95227366424168,29.14030080800874,76.50296,-1,-1,-1,-1,30,29.46666746656674,-9999,35853.83801604167,-0.71044921875,0.7041473388671875,-0.280242919921875,35853.82793904167,-3.039838080957999,-1.155258925921845,-0.5159607275336187,-1.498979449272156,0.2732587158679962,0.7376009225845337,-0.1013585329055786,1.405417680740356,-0.04538506269454956,XArbitraryZVertical,-0.5381560132990439,0.1866094730376579,-0.8019027758766832,0.1803244989557675,-0.7957971096038818,0.4933707416057587,-0.3511300086975098,0,0,0,-1,-1,35848.91196654167,unknown,2,2025-04-22T15:35:02.393+03:00,2025-04-21T17:08:51.449+03:00,8251,1.040753,0,0,6864.177,7,22,2025-04-22T15:32:35.359+03:00,767018105.0627543,0,-15.57999,100.3896,1,0.55,2025-04-22T15:34:05.734+03:00,77.00000000000001,1.283333333333333,2025-04-22T14:20:19.516+03:00,0.02197104130929222,0
