loggingTime(txt),locationTimestamp_since1970(s),locationLatitude(WGS84),locationLongitude(WGS84),locationAltitude(m),locationSpeed(m/s),locationSpeedAccuracy(m/s),locationCourse(°),locationCourseAccuracy(°),locationVerticalAccuracy(m),locationHorizontalAccuracy(m),locationFloor(Z),accelerometerTimestamp_sinceReboot(s),accelerometerAccelerationX(G),accelerometerAccelerationY(G),accelerometerAccelerationZ(G),motionTimestamp_sinceReboot(s),motionYaw(rad),motionRoll(rad),motionPitch(rad),motionRotationRateX(rad/s),motionRotationRateY(rad/s),motionRotationRateZ(rad/s),motionUserAccelerationX(G),motionUserAccelerationY(G),motionUserAccelerationZ(G),motionAttitudeReferenceFrame(txt),motionQuaternionX(R),motionQuaternionY(R),motionQuaternionZ(R),motionQuaternionW(R),motionGravityX(G),motionGravityY(G),motionGravityZ(G),motionMagneticFieldX(µT),motionMagneticFieldY(µT),motionMagneticFieldZ(µT),motionHeading(°),motionMagneticFieldCalibrationAccuracy(Z),activityTimestamp_sinceReboot(s),activity(txt),activityActivityConfidence(Z),activityActivityStartDate(txt),pedometerStartDate(txt),pedometerNumberofSteps(N),pedometerAverageActivePace(s/m),pedometerCurrentPace(s/m),pedometerCurrentCadence(steps/s),pedometerDistance(m),pedometerFloorAscended(N),pedometerFloorDescended(N),pedometerEndDate(txt),altimeterTimestamp_sinceReboot(s),altimeterReset(bool),altimeterRelativeAltitude(m),altimeterPressure(kPa),batteryState(N),batteryLevel(R),heartRateBPMTimestamp(txt),heartRateBPM(N),heartRateBPS(R),heartRateVariabilityTimestamp(txt),heartRateVariability(ms),label
2025-04-21T16:56:54.990+03:00,1745243813.171704,40.95220373050805,29.14025042908131,76.57294,-1,-1,-1,-1,30,36.49476654306539,-9999,20890.979735,-0.7224884033203125,0.4745635986328125,-0.5023345947265625,20890.969659,2.323005484272013,-0.9664236896276579,-0.4979837177671935,-0.02343406155705452,0.1220305636525154,-0.02817313931882381,-0.01920604705810547,0.01595130562782288,0.01433712244033813,XArbitraryZVertical,-0.3262633796182782,0.379389903288715,-0.8328790402569769,-0.2364909695043038,-0.7229204177856445,0.4776551127433777,-0.4992310106754303,0,0,0,-1,-1,20885.94037491667,unknown,2,2025-04-21T16:56:11.557+03:00,2025-04-20T21:57:49.637+03:00,6834,0.9873711,0,0,5595.969,5,6,2025-04-21T16:56:27.034+03:00,766936612.9421742,0,-38.72,100.1974,1,0.3,2025-04-21T16:56:03.730+03:00,99,1.65,2025-04-21T12:30:07.995+03:00,0.02023345852159405,0
2025-04-21T16:56:54.994+03:00,1745243813.171704,40.95220373050805,29.14025042908131,76.57294,-1,-1,-1,-1,30,36.49476654306539,-9999,20890.989811,-0.70562744140625,0.4733428955078125,-0.5043487548828125,20890.979735,2.322556982543018,-0.9656014918546326,-0.4980260601839386,-0.05205478891730309,0.07040225714445114,-0.01398488320410252,-0.006403982639312744,0.02503883838653564,0.01043379306793213,XArbitraryZVertical,-0.3258264365365257,0.3793814342997525,-0.8329595559631758,-0.2368231276869617,-0.7224931120872498,0.4776923060417175,-0.4998137354850769,0,0,0,-1,-1,20885.94037491667,unknown,2,2025-04-21T16:56:11.557+03:00,2025-04-20T21:57:49.637+03:00,6834,0.9873711,0,0,5595.969,5,6,2025-04-21T16:56:27.034+03:00,766936612.9421742,0,-38.72,100.1974,1,0.3,2025-04-21T16:56:03.730+03:00,99,1.65,2025-04-21T12:30:07.995+03:00,0.02023345852159405,0
2025-04-21T16:56:54.996+03:00,1745243813.171704,40.95220373050805,29.14025042908131,76.57294,-1,-1,-1,-1,30,36.49476654306539,-9999,20890.999887,-0.687286376953125,0.4783477783203125,-0.5022735595703125,20890.989811,2.32203540651505,-0.9653952103063951,-0.4982716503255959,-0.007539983838796616,0.06877966225147247,-0.002009945688769221,0.001376748085021973,-0.00503838062286377,-0.00335422158241272,XArbitraryZVertical,-0.3255867271348495,0.3795330252638678,-0.8329287201432118,-0.2370180467308997,-0.7222934365272522,0.4779080450534821,-0.4998959302902222,0,0,0,-1,-1,20885.94037491667,unknown,2,2025-04-21T16:56:11.557+03:00,2025-04-20T21:57:49.637+03:00,6834,0.9873711,0,0,5595.969,5,6,2025-04-21T16:56:27.034+03:00,766936612.9421742,0,-38.72,100.1974,1,0.3,2025-04-21T16:56:03.730+03:00,99,1.65,2025-04-21T12:30:07.995+03:00,0.02023345852159405,0
2025-04-21T16:56:54.998+03:00,1745243813.171704,40.95220373050805,29.14025042908131,76.57294,-1,-1,-1,-1,30,36.49476654306539,-9999,20891.009964,-0.7132568359375,0.4864959716796875,-0.4986419677734375,20890.999887,2.322217765570737,-0.9643401648388583,-0.4979942952001192,0.02442593686282635,0.09514761716127396,-0.02482711151242256,0.01945149898529053,-0.002994179725646973,-0.00263899564743042,XArbitraryZVertical,-0.3252438474226611,0.3792753843055001,-0.833124956292948,-0.2372115157115196,-0.7218745350837708,0.4776644110679626,-0.5007332563400269,0,0,0,-1,-1,20885.94037491667,unknown,2,2025-04-21T16:56:11.557+03:00,2025-04-20T21:57:49.637+03:00,6834,0.9873711,0,0,5595.969,5,6,2025-04-21T16:56:27.034+03:00,766936612.9421742,0,-38.72,100.1974,1,0.3,2025-04-21T16:56:03.730+03:00,99,1.65,2025-04-21T12:30:07.995+03:00,0.02023345852159405,0
2025-04-21T16:56:55.000+03:00,1745243813.171704,40.95220373050805,29.14025042908131,76.57294,-1,-1,-1,-1,30,36.49476654306539,-9999,20891.02004,-0.733795166015625,0.4923553466796875,-0.4899749755859375,20891.009964,2.322253668831597,-0.9631725505042898,-0.4976361893755276,0.03543877601623535,0.1180432140827179,-0.02801085263490677,0.03406709432601929,0.0006621778011322021,-0.001531004905700684,XArbitraryZVertical,-0.3248442256449052,0.3789980699955673,-0.8333227735795554,-0.2375071979498265,-0.721429705619812,0.4773497581481934,-0.5016734004020691,0,0,0,-1,-1,20885.94037491667,unknown,2,2025-04-21T16:56:11.557+03:00,2025-04-20T21:57:49.637+03:00,6834,0.9873711,0,0,5595.969,5,6,2025-04-21T16:56:27.034+03:00,766936612.9421742,0,-38.72,100.1974,1,0.3,2025-04-21T16:56:03.730+03:00,99,1.65,2025-04-21T12:30:07.995+03:00,0.02023345852159405,0
2025-04-21T16:56:55.009+03:00,1745243813.171704,40.95220373050805,29.14025042908131,76.57294,-1,-1,-1,-1,30,36.49476654306539,-9999,20891.030116,-0.6903533935546875,0.44866943359375,-0.488861083984375,20891.02004,2.322437530055466,-0.9622328040408437,-0.497380945808795,0.01501472666859627,0.04902686178684235,-0.003145451191812754,0.0013008713722229,0.01258993148803711,0.006174385547637939,XArbitraryZVertical,-0.3245444838788346,0.3787618082839423,-0.8334998881474772,-0.2376721785334075,-0.7210578918457031,0.4771254658699036,-0.5024207234382629,0,0,0,-1,-1,20885.94037491667,unknown,2,2025-04-21T16:56:11.557+03:00,2025-04-20T21:57:49.637+03:00,6834,0.9873711,0,0,5595.969,5,6,2025-04-21T16:56:27.034+03:00,766936612.9421742,0,-38.72,100.1974,1,0.3,2025-04-21T16:56:03.730+03:00,99,1.65,2025-04-21T12:30:07.995+03:00,0.02023345852159405,0
2025-04-21T16:56:55.019+03:00,1745243813.171704,40.95220373050805,29.14025042908131,76.57294,-1,-1,-1,-1,30,36.49476654306539,-9999,20891.040192,-0.6856231689453125,0.4603118896484375,-0.4896392822265625,20891.030116,2.32242893120004,-0.9621113451917652,-0.4974408470281675,-0.01393010560423136,-0.01005776412785053,0.006085864268243313,-0.009235858917236328,0.01165229082107544,0.01352405548095703,XArbitraryZVertical,-0.3244788022540392,0.3787710190255082,-0.8335180317626515,-0.2376840095088098,-0.7209734916687012,0.4771780967712402,-0.5024920701980591,0,0,0,-1,-1,20885.94037491667,unknown,2,2025-04-21T16:56:11.557+03:00,2025-04-20T21:57:49.637+03:00,6834,0.9873711,0,0,5595.969,5,6,2025-04-21T16:56:27.034+03:00,766936612.9421742,0,-38.72,100.1974,1,0.3,2025-04-21T16:56:03.730+03:00,99,1.65,2025-04-21T12:30:07.995+03:00,0.02023345852159405,0
2025-04-21T16:56:55.031+03:00,1745243813.171704,40.95220373050805,29.14025042908131,76.57294,-1,-1,-1,-1,30,36.49476654306539,-9999,20891.050269,-0.7192230224609375,0.4777984619140625,-0.4994354248046875,20891.040192,2.322292584598523,-0.9622994713401872,-0.4976000580016899,-0.01520655862987041,0.0004995386116206646,0.006646992638707161,0.03512316942214966,-0.0314563512802124,0.01365017890930176,XArbitraryZVertical,-0.3244957924164746,0.3788746245982537,-0.8334696364962271,-0.2376656064380478,-0.7210057377815247,0.4773180186748505,-0.5023130178451538,0,0,0,-1,-1,20885.94037491667,unknown,2,2025-04-21T16:56:11.557+03:00,2025-04-20T21:57:49.637+03:00,6834,0.9873711,0,0,5595.969,5,6,2025-04-21T16:56:27.034+03:00,766936612.9421742,0,-38.72,100.1974,1,0.3,2025-04-21T16:56:03.730+03:00,99,1.65,2025-04-21T12:30:07.995+03:00,0.02023345852159405,0
2025-04-21T16:56:55.039+03:00,1745243813.171704,40.95220373050805,29.14025042908131,76.57294,-1,-1,-1,-1,30,36.49476654306539,-9999,20891.060345,-0.7349090576171875,0.4766387939453125,-0.5009613037109375,20891.050269,2.322136652128631,-0.9622449396261237,-0.4977590473486104,-0.01708528585731983,0.03696340695023537,0.001633258652873337,0.0316917896270752,-0.01389589905738831,0.01166242361068726,XArbitraryZVertical,-0.3244080697563619,0.3789524755567572,-0.8334581256879908,-0.2377011223006476,-0.7209159135818481,0.4774577021598816,-0.5023088455200195,0,0,0,-1,-1,20885.94037491667,unknown,2,2025-04-21T16:56:11.557+03:00,2025-04-20T21:57:49.637+03:00,6834,0.9873711,0,0,5595.969,5,6,2025-04-21T16:56:27.034+03:00,766936612.9421742,0,-38.72,100.1974,1,0.3,2025-04-21T16:56:03.730+03:00,99,1.65,2025-04-21T12:30:07.995+03:00,0.02023345852159405,0
2025-04-21T16:56:55.049+03:00,1745243813.171704,40.95220373050805,29.14025042908131,76.57294,-1,-1,-1,-1,30,36.49476654306539,-9999,20891.070421,-0.7190093994140625,0.4779205322265625,-0.49908447265625,20891.060345,2.321985777909211,-0.9619393706178211,-0.4979126290250623,-0.01314753573387861,0.04088304936885834,0.001813820912502706,-0.001618266105651855,0.0004345178604125977,0.0020751953125,XArbitraryZVertical,-0.3242177950934712,0.3789976472362024,-0.8334881323567036,-0.237783720616272,-0.7207022905349731,0.4775926470756531,-0.5024871826171875,0,0,0,-1,-1,20885.94037491667,unknown,2,2025-04-21T16:56:11.557+03:00,2025-04-20T21:57:49.637+03:00,6834,0.9873711,0,0,5595.969,5,6,2025-04-21T16:56:27.034+03:00,766936612.9421742,0,-38.72,100.1974,1,0.3,2025-04-21T16:56:03.730+03:00,99,1.65,2025-04-21T12:30:07.995+03:00,0.02023345852159405,0
2025-04-21T16:56:55.059+03:00,1745243813.171704,40.95220373050805,29.14025042908131,76.57294,-1,-1,-1,-1,30,36.49476654306539,-9999,20891.080496,-0.704559326171875,0.486480712890625,-0.50079345703125,20891.070421,2.321942448752746,-0.9616543800195058,-0.4979904104272335,-0.003758628154173493,0.01950445584952831,0.00703944219276309,-0.01392269134521484,-0.002029448747634888,0.002030432224273682,XArbitraryZVertical,-0.3240734640163809,0.3789996647785983,-0.8335282676364751,-0.2378363152093608,-0.7205285429954529,0.4776609838008881,-0.5026713013648987,0,0,0,-1,-1,20885.94037491667,unknown,2,2025-04-21T16:56:11.557+03:00,2025-04-20T21:57:49.637+03:00,6834,0.9873711,0,0,5595.969,5,6,2025-04-21T16:56:27.034+03:00,766936612.9421742,0,-38.72,100.1974,1,0.3,2025-04-21T16:56:03.730+03:00,99,1.65,2025-04-21T12:30:07.995+03:00,0.02023345852159405,0
2025-04-21T16:56:55.070+03:00,1745243813.171704,40.95220373050805,29.14025042908131,76.57294,-1,-1,-1,-1,30,36.49476654306539,-9999,20891.090572,-0.7051849365234375,0.48895263671875,-0.4984130859375,20891.080496,2.322050005829633,-0.9614330894918619,-0.4980733819318469,0.005036194808781147,0.01237197779119015,0.01305552385747433,0.003343820571899414,0.0006900131702423096,0.003784537315368652,XArbitraryZVertical,-0.3239830554966979,0.37898673857827,-0.8335760424577577,-0.2378128196997702,-0.7203848361968994,0.4777338802814484,-0.5028080344200134,0,0,0,-1,-1,20885.94037491667,unknown,2,2025-04-21T16:56:11.557+03:00,2025-04-20T21:57:49.637+03:00,6834,0.9873711,0,0,5595.969,5,6,2025-04-21T16:56:27.034+03:00,766936612.9421742,0,-38.72,100.1974,1,0.3,2025-04-21T16:56:03.730+03:00,99,1.65,2025-04-21T12:30:07.995+03:00,0.02023345852159405,0
2025-04-21T16:56:55.080+03:00,1745243813.171704,40.95220373050805,29.14025042908131,76.57294,-1,-1,-1,-1,30,36.49476654306539,-9999,20891.100649,-0.7161712646484375,0.4843597412109375,-0.5006866455078125,20891.090572,2.322233887152972,-0.9611046639775718,-0.4981818065133193,0.008912825025618076,0.02646928653120995,0.01125462725758553,0.01628929376602173,0.009643256664276123,0.002847075462341309,XArbitraryZVertical,-0.3238567663936074,0.3789581790836388,-0.8336499358955483,-0.2377714583192216,-0.7201772332191467,0.4778291285037994,-0.5030149817466736,0,0,0,-1,-1,20885.94037491667,unknown,2,2025-04-21T16:56:11.557+03:00,2025-04-20T21:57:49.637+03:00,6834,0.9873711,0,0,5595.969,5,6,2025-04-21T16:56:27.034+03:00,766936612.9421742,0,-38.72,100.1974,1,0.3,2025-04-21T16:56:03.730+03:00,99,1.65,2025-04-21T12:30:07.995+03:00,0.02023345852159405,0
2025-04-21T16:56:55.090+03:00,1745243813.171704,40.95220373050805,29.14025042908131,76.57294,-1,-1,-1,-1,30,36.49476654306539,-9999,20891.110725,-0.717254638671875,0.4862060546875,-0.501495361328125,20891.100649,2.322323826488404,-0.9607418659784296,-0.4982575373284628,0.000355023774318397,0.03485078737139702,0.00833606906235218,0.01383405923843384,0.0100039541721344,0.00496441125869751,XArbitraryZVertical,-0.3237056687216641,0.3789286164505128,-0.8337185064665031,-0.2377838241516012,-0.7199649810791016,0.4778956472873688,-0.5032554864883423,0,0,0,-1,-1,20885.94037491667,unknown,2,2025-04-21T16:56:11.557+03:00,2025-04-20T21:57:49.637+03:00,6834,0.9873711,0,0,5595.969,5,6,2025-04-21T16:56:27.034+03:00,766936612.9421742,0,-38.72,100.1974,1,0.3,2025-04-21T16:56:03.730+03:00,99,1.65,2025-04-21T12:30:07.995+03:00,0.02023345852159405,0
2025-04-21T16:56:55.100+03:00,1745243813.171704,40.95220373050805,29.14025042908131,76.57294,-1,-1,-1,-1,30,36.49476654306539,-9999,20891.120801,-0.709991455078125,0.47802734375,-0.4994354248046875,20891.110725,2.322304031106604,-0.960499892995205,-0.4983917924889583,-0.01120249554514885,0.02045700140297413,0.009748243726789951,0.002276599407196045,0.006040811538696289,0.002126336097717285,XArbitraryZVertical,-0.3235710661934235,0.3789529235725899,-0.8337537918149047,-0.2378044664777607,-0.7197905778884888,0.4780135750770569,-0.5033928751945496,0,0,0,-1,-1,20885.94037491667,unknown,2,2025-04-21T16:56:11.557+03:00,2025-04-20T21:57:49.637+03:00,6834,0.9873711,0,0,5595.969,5,6,2025-04-21T16:56:27.034+03:00,766936612.9421742,0,-38.72,100.1974,1,0.3,2025-04-21T16:56:03.730+03:00,99,1.65,2025-04-21T12:30:07.995+03:00,0.02023345852159405,0
2025-04-21T16:56:55.110+03:00,1745243813.171704,40.95220373050805,29.14025042908131,76.57294,-1,-1,-1,-1,30,36.49476654306539,-9999,20891.130877,-0.710968017578125,0.472869873046875,-0.5046234130859375,20891.120801,2.322215981785617,-0.960349727689773,-0.4985946915031655,-0.02288578450679779,0.01479299087077379,0.01545672863721848,0.002731919288635254,0.008303999900817871,0.002224624156951904,XArbitraryZVertical,-0.3234464326862981,0.3790246861216772,-0.8337653689341181,-0.2378191681827513,-0.719635546207428,0.4781917929649353,-0.5034453868865967,0,0,0,-1,-1,20885.94037491667,unknown,2,2025-04-21T16:56:11.557+03:00,2025-04-20T21:57:49.637+03:00,6834,0.9873711,0,0,5595.969,5,6,2025-04-21T16:56:27.034+03:00,766936612.9421742,0,-38.72,100.1974,1,0.3,2025-04-21T16:56:03.730+03:00,99,1.65,2025-04-21T12:30:07.995+03:00,0.02023345852159405,0
2025-04-21T16:56:55.120+03:00,1745243813.171704,40.95220373050805,29.14025042908131,76.57294,-1,-1,-1,-1,30,36.49476654306539,-9999,20891.140953,-0.7142486572265625,0.472930908203125,-0.5037078857421875,20891.130877,2.322052147239983,-0.9602772388890942,-0.4988780385994435,-0.03100522980093956,0.01229973882436752,0.01127476710826159,0.009801745414733887,-0.001771420240402222,0.003389239311218262,XArbitraryZVertical,-0.3233218085936238,0.3791478126056913,-0.8337544822802971,-0.2378307757551724,-0.7194880247116089,0.4784406125545502,-0.5034198760986328,0,0,0,-1,-1,20885.94037491667,unknown,2,2025-04-21T16:56:11.557+03:00,2025-04-20T21:57:49.637+03:00,6834,0.9873711,0,0,5595.969,5,6,2025-04-21T16:56:27.034+03:00,766936612.9421742,0,-38.72,100.1974,1,0.3,2025-04-21T16:56:03.730+03:00,99,1.65,2025-04-21T12:30:07.995+03:00,0.02023345852159405,0
2025-04-21T16:56:55.130+03:00,1745243813.171704,40.95220373050805,29.14025042908131,76.57294,-1,-1,-1,-1,30,36.49476654306539,-9999,20891.15103,-0.712890625,0.4778289794921875,-0.5039825439453125,20891.140953,2.321834734813582,-0.9603015065298219,-0.4991405208561367,-0.02574362233281136,0.005028244107961655,0.0107173677533865,0.008032560348510742,-0.006503313779830933,-0.0016745924949646,XArbitraryZVertical,-0.3232320982728765,0.3792833300078712,-0.833721624037343,-0.2378512697830256,-0.719397246837616,0.4786711037158966,-0.5033303499221802,0,0,0,-1,-1,20885.94037491667,unknown,2,2025-04-21T16:56:11.557+03:00,2025-04-20T21:57:49.637+03:00,6834,0.9873711,0,0,5595.969,5,6,2025-04-21T16:56:27.034+03:00,766936612.9421742,0,-38.72,100.1974,1,0.3,2025-04-21T16:56:03.730+03:00,99,1.65,2025-04-21T12:30:07.995+03:00,0.02023345852159405,0
2025-04-21T16:56:55.140+03:00,1745243813.171704,40.95220373050805,29.14025042908131,76.57294,-1,-1,-1,-1,30,36.49476654306539,-9999,20891.161106,-0.71429443359375,0.4834747314453125,-0.5056915283203125,20891.15103,2.321703005718057,-0.9603451835752236,-0.4993125238267455,-0.01009428780525923,0.004130559507757425,0.01055614650249481,0.005713462829589844,-0.005265742540359497,-0.0001662969589233398,XArbitraryZVertical,-0.3231868584738299,0.3793736909885481,-0.8336969696548024,-0.2378550996122678,-0.7193517684936523,0.4788221120834351,-0.5032517313957214,0,0,0,-1,-1,20885.94037491667,unknown,2,2025-04-21T16:56:11.557+03:00,2025-04-20T21:57:49.637+03:00,6834,0.9873711,0,0,5595.969,5,6,2025-04-21T16:56:27.034+03:00,766936612.9421742,0,-38.72,100.1974,1,0.3,2025-04-21T16:56:03.730+03:00,99,1.65,2025-04-21T12:30:07.995+03:00,0.02023345852159405,0
2025-04-21T16:56:55.150+03:00,1745243813.171704,40.95220373050805,29.14025042908131,76.57294,-1,-1,-1,-1,30,36.49476654306539,-9999,20891.171182,-0.7188262939453125,0.48931884765625,-0.5063629150390625,20891.161106,2.321740688393929,-0.9602514800719371,-0.4994045521876401,0.003561869263648987,0.0120630506426096,0.007424268871545792,0.007049322128295898,0.0002839267253875732,-0.001360058784484863,XArbitraryZVertical,-0.3231343493968598,0.3793906356121121,-0.8337155853156855,-0.2378343140025817,-0.7192685008049011,0.4789029061794281,-0.5032938718795776,0,0,0,-1,-1,20885.94037491667,unknown,2,2025-04-21T16:56:11.557+03:00,2025-04-20T21:57:49.637+03:00,6834,0.9873711,0,0,5595.969,5,6,2025-04-21T16:56:27.034+03:00,766936612.9421742,0,-38.72,100.1974,1,0.3,2025-04-21T16:56:03.730+03:00,99,1.65,2025-04-21T12:30:07.995+03:00,0.02023345852159405,0
2025-04-21T16:56:55.162+03:00,1745243813.171704,40.95220373050805,29.14025042908131,76.57294,-1,-1,-1,-1,30,36.49476654306539,-9999,20891.181258,-0.719024658203125,0.4869384765625,-0.5032501220703125,20891.171182,2.321831798900755,-0.9600718402277252,-0.4994671299079869,0.003243688028305769,0.01388125773519278,0.003028621897101402,0.00415724515914917,0.004943966865539551,-0.00288081169128418,XArbitraryZVertical,-0.3230627493429785,0.3793777957953796,-0.8337547391496023,-0.2378148480415826,-0.7191535234451294,0.4789578318595886,-0.5034058690071106,0,0,0,-1,-1,20885.94037491667,unknown,2,2025-04-21T16:56:11.557+03:00,2025-04-20T21:57:49.637+03:00,6834,0.9873711,0,0,5595.969,5,6,2025-04-21T16:56:27.034+03:00,766936612.9421742,0,-38.72,100.1974,1,0.3,2025-04-21T16:56:03.730+03:00,99,1.65,2025-04-21T12:30:07.995+03:00,0.02023345852159405,0
2025-04-21T16:56:55.171+03:00,1745243813.171704,40.95220373050805,29.14025042908131,76.57294,-1,-1,-1,-1,30,36.49476654306539,-9999,20891.191335,-0.715728759765625,0.4796905517578125,-0.498199462890625,20891.181258,2.321849812653947,-0.9599045407947776,-0.4995528629035312,-0.006081636529415846,0.01798359118402004,0.007161048706620932,-4.231929779052734e-06,0.0102246105670929,-0.002356827259063721,XArbitraryZVertical,-0.3229772178690741,0.3793868359428332,-0.8337829885965149,-0.2378178403019201,-0.7190357446670532,0.4790330827236176,-0.5035026669502258,0,0,0,-1,-1,20885.94037491667,unknown,2,2025-04-21T16:56:11.557+03:00,2025-04-20T21:57:49.637+03:00,6834,0.9873711,0,0,5595.969,5,6,2025-04-21T16:56:27.034+03:00,766936612.9421742,0,-38.72,100.1974,1,0.3,2025-04-21T16:56:03.730+03:00,99,1.65,2025-04-21T12:30:07.995+03:00,0.02023345852159405,0
2025-04-21T16:56:55.180+03:00,1745243813.171704,40.95220373050805,29.14025042908131,76.57294,-1,-1,-1,-1,30,36.49476654306539,-9999,20891.201411,-0.711151123046875,0.4800872802734375,-0.494659423828125,20891.191335,2.321771831407055,-0.9597774993363012,-0.4997036026323577,-0.01667396165430546,0.01149919256567955,0.007503731176257133,0.0003304481506347656,0.005774021148681641,0.001294255256652832,XArbitraryZVertical,-0.3228757618113599,0.3794403054477631,-0.8337924948382726,-0.2378369199869328,-0.7189126014709473,0.4791654050350189,-0.5035526156425476,0,0,0,-1,-1,20885.94037491667,unknown,2,2025-04-21T16:56:11.557+03:00,2025-04-20T21:57:49.637+03:00,6834,0.9873711,0,0,5595.969,5,6,2025-04-21T16:56:27.034+03:00,766936612.9421742,0,-38.72,100.1974,1,0.3,2025-04-21T16:56:03.730+03:00,99,1.65,2025-04-21T12:30:07.995+03:00,0.02023345852159405,0
2025-04-21T16:56:55.190+03:00,1745243813.171704,40.95220373050805,29.14025042908131,76.57294,-1,-1,-1,-1,30,36.49476654306539,-9999,20891.211487,-0.7091522216796875,0.4839019775390625,-0.496490478515625,20891.201411,2.321636261070299,-0.959769948086247,-0.499913277687124,-0.02017788216471672,0.002242844318971038,0.01133815012872219,0.003357112407684326,-0.0002541542053222656,0.005438148975372314,XArbitraryZVertical,-0.3228000637029385,0.3795391587215291,-0.8337750729118482,-0.2378425005535734,-0.7188263535499573,0.4793494343757629,-0.5035002827644348,0,0,0,-1,-1,20885.94037491667,unknown,2,2025-04-21T16:56:11.557+03:00,2025-04-20T21:57:49.637+03:00,6834,0.9873711,0,0,5595.969,5,6,2025-04-21T16:56:27.034+03:00,766936612.9421742,0,-38.72,100.1974,1,0.3,2025-04-21T16:56:03.730+03:00,99,1.65,2025-04-21T12:30:07.995+03:00,0.02023345852159405,0
2025-04-21T16:56:55.201+03:00,1745243813.171704,40.95220373050805,29.14025042908131,76.57294,-1,-1,-1,-1,30,36.49476654306539,-9999,20891.221563,-0.7146148681640625,0.49029541015625,-0.4989776611328125,20891.211487,2.321603434783917,-0.9597619039399807,-0.5000497050169791,0.001493924646638334,0.002693251240998507,0.005239144898951054,0.008014440536499023,0.001045197248458862,0.008946418762207031,XArbitraryZVertical,-0.3227599216211247,0.3795941654243231,-0.8337709811021067,-0.2378238915379725,-0.718768835067749,0.4794691503047943,-0.5034686326980591,0,0,0,-1,-1,20885.94037491667,unknown,2,2025-04-21T16:56:11.557+03:00,2025-04-20T21:57:49.637+03:00,6834,0.9873711,0,0,5595.969,5,6,2025-04-21T16:56:27.034+03:00,766936612.9421742,0,-38.72,100.1974,1,0.3,2025-04-21T16:56:03.730+03:00,99,1.65,2025-04-21T12:30:07.995+03:00,0.02023345852159405,0
2025-04-21T16:56:55.211+03:00,1745243813.171704,40.95220373050805,29.14025042908131,76.57294,-1,-1,-1,-1,30,36.49476654306539,-9999,20891.231639,-0.719512939453125,0.4944610595703125,-0.4981689453125,20891.221563,2.32172423780893,-0.9596161772782199,-0.5000004210876707,0.01743134669959545,0.01389770209789276,0.002281172433868051,0.00870811939239502,0.004842102527618408,0.006959021091461182,XArbitraryZVertical,-0.322733141667273,0.3795390392597444,-0.8338093868848255,-0.2378133809123065,-0.7187147736549377,0.4794259071350098,-0.5035868883132935,0,0,0,-1,-1,20885.94037491667,unknown,2,2025-04-21T16:56:11.557+03:00,2025-04-20T21:57:49.637+03:00,6834,0.9873711,0,0,5595.969,5,6,2025-04-21T16:56:27.034+03:00,766936612.9421742,0,-38.72,100.1974,1,0.3,2025-04-21T16:56:03.730+03:00,99,1.65,2025-04-21T12:30:07.995+03:00,0.02023345852159405,0
2025-04-21T16:56:55.221+03:00,1745243813.171704,40.95220373050805,29.14025042908131,76.57294,-1,-1,-1,-1,30,36.49476654306539,-9999,20891.241716,-0.7209930419921875,0.4928436279296875,-0.499725341796875,20891.231639,2.321938275394533,-0.9593202103554495,-0.4998604612390172,0.02285986579954624,0.02447890862822533,-0.001571256434544921,0.003548085689544678,0.01170933246612549,0.004387378692626953,XArbitraryZVertical,-0.3226816111585274,0.3794173279459533,-0.8338842865778519,-0.2378152537948324,-0.7186207175254822,0.4793030917644501,-0.5038381218910217,0,0,0,-1,-1,20885.94037491667,unknown,2,2025-04-21T16:56:11.557+03:00,2025-04-20T21:57:49.637+03:00,6834,0.9873711,0,0,5595.969,5,6,2025-04-21T16:56:27.034+03:00,766936612.9421742,0,-38.72,100.1974,1,0.3,2025-04-21T16:56:03.730+03:00,99,1.65,2025-04-21T12:30:07.995+03:00,0.02023345852159405,0
2025-04-21T16:56:55.231+03:00,1745243813.171704,40.95220373050805,29.14025042908131,76.57294,-1,-1,-1,-1,30,36.49476654306539,-9999,20891.251792,-0.7165985107421875,0.4855194091796875,-0.502197265625,20891.241716,2.322163035683952,-0.9589151064634575,-0.4996933093258413,0.02468706108629704,0.03256719186902046,-0.004582492634654045,-0.0008477568626403809,0.01605218648910522,0.005685746669769287,XArbitraryZVertical,-0.3225927475756253,0.3792707971767245,-0.8339782066836163,-0.2378397996132022,-0.7184820175170898,0.4791563749313354,-0.5041751861572266,0,0,0,-1,-1,20885.94037491667,unknown,2,2025-04-21T16:56:11.557+03:00,2025-04-20T21:57:49.637+03:00,6834,0.9873711,0,0,5595.969,5,6,2025-04-21T16:56:27.034+03:00,766936612.9421742,0,-38.72,100.1974,1,0.3,2025-04-21T16:56:03.730+03:00,99,1.65,2025-04-21T12:30:07.995+03:00,0.02023345852159405,0
2025-04-21T16:56:55.241+03:00,1745243813.171704,40.95220373050805,29.14025042908131,76.57294,-1,-1,-1,-1,30,36.49476654306539,-9999,20891.261868,-0.7092437744140625,0.4774169921875,-0.501922607421875,20891.251792,2.322330597963753,-0.95850057908826,-0.499575716328491,0.0130759458988905,0.03159993141889572,-0.0001351468963548541,-0.002155065536499023,0.0132715106010437,0.004551112651824951,XArbitraryZVertical,-0.3224778890944012,0.3791507802791284,-0.8340664406081965,-0.2378779091515883,-0.7183191776275635,0.4790531396865845,-0.5045053958892822,0,0,0,-1,-1,20885.94037491667,unknown,2,2025-04-21T16:56:11.557+03:00,2025-04-20T21:57:49.637+03:00,6834,0.9873711,0,0,5595.969,5,6,2025-04-21T16:56:27.034+03:00,766936612.9421742,0,-38.72,100.1974,1,0.3,2025-04-21T16:56:03.730+03:00,99,1.65,2025-04-21T12:30:07.995+03:00,0.02023345852159405,0
2025-04-21T16:56:55.251+03:00,1745243813.171704,40.95220373050805,29.14025042908131,76.57294,-1,-1,-1,-1,30,36.49476654306539,-9999,20891.271944,-0.7076263427734375,0.4739532470703125,-0.501708984375,20891.261868,2.322390400298584,-0.9581601447802571,-0.4995622982056036,0.001639799331314862,0.02894715964794159,8.056912338361144e-05,0.00254589319229126,0.005119830369949341,0.002388358116149902,XArbitraryZVertical,-0.3223502597019628,0.3790956576746843,-0.8341285668191607,-0.2379207979534145,-0.7181525826454163,0.4790413677692413,-0.504753589630127,0,0,0,-1,-1,20885.94037491667,unknown,2,2025-04-21T16:56:11.557+03:00,2025-04-20T21:57:49.637+03:00,6834,0.9873711,0,0,5595.969,5,6,2025-04-21T16:56:27.034+03:00,766936612.9421742,0,-38.72,100.1974,1,0.3,2025-04-21T16:56:03.730+03:00,99,1.65,2025-04-21T12:30:07.995+03:00,0.02023345852159405,0
2025-04-21T16:56:55.261+03:00,1745243813.171704,40.95220373050805,29.14025042908131,76.57294,-1,-1,-1,-1,30,36.49476654306539,-9999,20891.282021,-0.70745849609375,0.4734954833984375,-0.503692626953125,20891.271944,2.322350578472399,-0.9579588729473133,-0.4996116882644852,-0.007721411995589733,0.01761600747704506,0.003447237424552441,0.008818328380584717,-0.002232462167739868,0.002961814403533936,XArbitraryZVertical,-0.322247751191412,0.3790964865689573,-0.8341556468255945,-0.2379632169653342,-0.7180315852165222,0.4790847301483154,-0.5048844814300537,0,0,0,-1,-1,20885.94037491667,unknown,2,2025-04-21T16:56:11.557+03:00,2025-04-20T21:57:49.637+03:00,6834,0.9873711,0,0,5595.969,5,6,2025-04-21T16:56:27.034+03:00,766936612.9421742,0,-38.72,100.1974,1,0.3,2025-04-21T16:56:03.730+03:00,99,1.65,2025-04-21T12:30:07.995+03:00,0.02023345852159405,0
2025-04-21T16:56:55.271+03:00,1745243813.171704,40.95220373050805,29.14025042908131,76.57294,-1,-1,-1,-1,30,36.49476654306539,-9999,20891.292097,-0.70947265625,0.480194091796875,-0.5075836181640625,20891.282021,2.322335606277525,-0.9578517880419727,-0.4997155082072572,-0.004543461836874485,0.00949895940721035,0.01030594203621149,0.009822249412536621,-0.006138324737548828,0.002949059009552002,XArbitraryZVertical,-0.3221770587285853,0.379124747227504,-0.8341698795763081,-0.2379639256647653,-0.7179368138313293,0.479175865650177,-0.5049327611923218,0,0,0,-1,-1,20885.94037491667,unknown,2,2025-04-21T16:56:11.557+03:00,2025-04-20T21:57:49.637+03:00,6834,0.9873711,0,0,5595.969,5,6,2025-04-21T16:56:27.034+03:00,766936612.9421742,0,-38.72,100.1974,1,0.3,2025-04-21T16:56:03.730+03:00,99,1.65,2025-04-21T12:30:07.995+03:00,0.02023345852159405,0
2025-04-21T16:56:55.281+03:00,1745243813.171704,40.95220373050805,29.14025042908131,76.57294,-1,-1,-1,-1,30,36.49476654306539,-9999,20891.302173,-0.7136688232421875,0.493255615234375,-0.5032501220703125,20891.292097,2.322354780389039,-0.9577370827252965,-0.4998011808241605,-0.0006153655122034252,0.01164779812097549,0.003771843388676643,0.0102037787437439,-0.005236953496932983,0.0002306699752807617,XArbitraryZVertical,-0.322113712120968,0.3791398559881387,-0.8341896140494885,-0.2379563576750703,-0.7178453207015991,0.4792510569095612,-0.5049914717674255,0,0,0,-1,-1,20885.94037491667,unknown,2,2025-04-21T16:56:11.557+03:00,2025-04-20T21:57:49.637+03:00,6834,0.9873711,0,0,5595.969,5,6,2025-04-21T16:56:27.034+03:00,766936612.9421742,0,-38.72,100.1974,1,0.3,2025-04-21T16:56:03.730+03:00,99,1.65,2025-04-21T12:30:07.995+03:00,0.02023345852159405,0
2025-04-21T16:56:55.291+03:00,1745243813.171704,40.95220373050805,29.14025042908131,76.57294,-1,-1,-1,-1,30,36.49476654306539,-9999,20891.312249,-0.717132568359375,0.485595703125,-0.4980621337890625,20891.302173,2.322411611987064,-0.9575953337779902,-0.4998605156421534,0.01041544787585735,0.009939379990100861,0.006999328266829252,0.00800323486328125,0.002599805593490601,-0.002750992774963379,XArbitraryZVertical,-0.3220520678093878,0.3791358963313431,-0.8342185629263298,-0.2379448784857288,-0.7177504897117615,0.4793031215667725,-0.5050768852233887,0,0,0,-1,-1,20885.94037491667,unknown,2,2025-04-21T16:56:11.557+03:00,2025-04-20T21:57:49.637+03:00,6834,0.9873711,0,0,5595.969,5,6,2025-04-21T16:56:27.034+03:00,766936612.9421742,0,-38.72,100.1974,1,0.3,2025-04-21T16:56:03.730+03:00,99,1.65,2025-04-21T12:30:07.995+03:00,0.02023345852159405,0
2025-04-21T16:56:55.302+03:00,1745243813.171704,40.95220373050805,29.14025042908131,76.57294,-1,-1,-1,-1,30,36.49476654306539,-9999,20891.322326,-0.7206878662109375,0.4862060546875,-0.495513916015625,20891.312249,2.322576548766067,-0.9573342274879058,-0.4998430683078872,0.01354672573506832,0.0298757366836071,0.002690966241061687,0.00354468822479248,0.01363193988800049,0.002827644348144531,XArbitraryZVertical,-0.3219783096543115,0.3790717908973198,-0.8342804450570699,-0.2379299289080526,-0.7176254391670227,0.4792878031730652,-0.5052691102027893,0,0,0,-1,-1,20885.94037491667,unknown,2,2025-04-21T16:56:11.557+03:00,2025-04-20T21:57:49.637+03:00,6834,0.9873711,0,0,5595.969,5,6,2025-04-21T16:56:27.034+03:00,766936612.9421742,0,-38.72,100.1974,1,0.3,2025-04-21T16:56:03.730+03:00,99,1.65,2025-04-21T12:30:07.995+03:00,0.02023345852159405,0
2025-04-21T16:56:55.312+03:00,1745243813.171704,40.95220373050805,29.14025042908131,76.57294,-1,-1,-1,-1,30,36.49476654306539,-9999,20891.332402,-0.7207183837890625,0.4875030517578125,-0.50347900390625,20891.322326,2.322625938079782,-0.9569386941738041,-0.4998152444506476,0.0007015010342001915,0.04615803807973862,-0.005142721813172102,-0.0006268620491027832,0.006026983261108398,0.008505463600158691,XArbitraryZVertical,-0.3218288918261235,0.3790064355520787,-0.8343503056911907,-0.2379911848189106,-0.7174364328384399,0.4792633950710297,-0.505560576915741,0,0,0,-1,-1,20885.94037491667,unknown,2,2025-04-21T16:56:11.557+03:00,2025-04-20T21:57:49.637+03:00,6834,0.9873711,0,0,5595.969,5,6,2025-04-21T16:56:27.034+03:00,766936612.9421742,0,-38.72,100.1974,1,0.3,2025-04-21T16:56:03.730+03:00,99,1.65,2025-04-21T12:30:07.995+03:00,0.02023345852159405,0
2025-04-21T16:56:55.322+03:00,1745243813.171704,40.95220373050805,29.14025042908131,76.57294,-1,-1,-1,-1,30,36.49476654306539,-9999,20891.342478,-0.707672119140625,0.4729766845703125,-0.5050506591796875,20891.332402,2.322608088829791,-0.9564874220059554,-0.4998146578920618,0.001832079491578043,0.04156867787241936,-0.0002236969885416329,-0.003616690635681152,0.007843285799026489,0.009958505630493164,XArbitraryZVertical,-0.3216373716817469,0.3789553789250198,-0.8344207855093886,-0.2380842930996602,-0.7172084450721741,0.4792628884315491,-0.5058844685554504,0,0,0,-1,-1,20885.94037491667,unknown,2,2025-04-21T16:56:11.557+03:00,2025-04-20T21:57:49.637+03:00,6834,0.9873711,0,0,5595.969,5,6,2025-04-21T16:56:27.034+03:00,766936612.9421742,0,-38.72,100.1974,1,0.3,2025-04-21T16:56:03.730+03:00,99,1.65,2025-04-21T12:30:07.995+03:00,0.02023345852159405,0
2025-04-21T16:56:55.332+03:00,1745243813.171704,40.95220373050805,29.14025042908131,76.57294,-1,-1,-1,-1,30,36.49476654306539,-9999,20891.352554,-0.698822021484375,0.477813720703125,-0.5070343017578125,20891.342478,2.322614598247533,-0.9561292888165284,-0.499872112844884,-0.003693180624395609,0.02885954082012177,0.006046715658158064,-0.002935409545898438,0.006724745035171509,0.002508997917175293,XArbitraryZVertical,-0.3214763249906678,0.3789330638387711,-0.834478488564345,-0.2381352306676949,-0.7170047760009766,0.4793133139610291,-0.5061253905296326,0,0,0,-1,-1,20885.94037491667,unknown,2,2025-04-21T16:56:11.557+03:00,2025-04-20T21:57:49.637+03:00,6834,0.9873711,0,0,5595.969,5,6,2025-04-21T16:56:27.034+03:00,766936612.9421742,0,-38.72,100.1974,1,0.3,2025-04-21T16:56:03.730+03:00,99,1.65,2025-04-21T12:30:07.995+03:00,0.02023345852159405,0
2025-04-21T16:56:55.351+03:00,1745243813.171704,40.95220373050805,29.14025042908131,76.57294,-1,-1,-1,-1,30,36.49476654306539,-9999,20891.36263,-0.7018890380859375,0.4830474853515625,-0.5037841796875,20891.352554,2.322621392837945,-0.9558916636209021,-0.4999595403665403,-0.005509989336133003,0.01919572800397873,0.007882965728640556,0.01093286275863647,-0.006398230791091919,0.0005952119827270508,XArbitraryZVertical,-0.3213589462434061,0.3789361947592272,-0.8345164021160559,-0.2381556667557016,-0.716850221157074,0.479390025138855,-0.5062716007232666,0,0,0,-1,-1,20885.94037491667,unknown,2,2025-04-21T16:56:11.557+03:00,2025-04-20T21:57:49.637+03:00,6834,0.9873711,0,0,5595.969,5,6,2025-04-21T16:56:27.034+03:00,766936612.9421742,0,-38.72,100.1974,1,0.3,2025-04-21T16:56:03.730+03:00,99,1.65,2025-04-21T12:30:07.995+03:00,0.02023345852159405,0
2025-04-21T16:56:55.357+03:00,1745243813.171704,40.95220373050805,29.14025042908131,76.57294,-1,-1,-1,-1,30,36.49476654306539,-9999,20891.372707,-0.7060089111328125,0.4805145263671875,-0.500823974609375,20891.36263,2.322634554786194,-0.9556693735010061,-0.5000397041153408,0.000261080771451816,0.02299712412059307,0.008822528645396233,0.01754856109619141,-0.0007923245429992676,-0.000732421875,XArbitraryZVertical,-0.321250794002103,0.3789374269843268,-0.8345526755524001,-0.2381723377886151,-0.7167062163352966,0.4794603884220123,-0.50640869140625,0,0,0,-1,-1,20885.94037491667,unknown,2,2025-04-21T16:56:11.557+03:00,2025-04-20T21:57:49.637+03:00,6834,0.9873711,0,0,5595.969,5,6,2025-04-21T16:56:27.034+03:00,766936612.9421742,0,-38.72,100.1974,1,0.3,2025-04-21T16:56:03.730+03:00,99,1.65,2025-04-21T12:30:07.995+03:00,0.02023345852159405,0
2025-04-21T16:56:55.362+03:00,1745243813.171704,40.95220373050805,29.14025042908131,76.57294,-1,-1,-1,-1,30,36.49476654306539,-9999,20891.382783,-0.7089691162109375,0.48431396484375,-0.50018310546875,20891.372707,2.322664795495867,-0.9553855467641605,-0.5001269779586646,-0.007617615163326263,0.02735565416514874,0.005259618628770113,0.01398319005966187,0.003662914037704468,0.0031394362449646,XArbitraryZVertical,-0.3211185810321464,0.3789312346354752,-0.8346008060948259,-0.2381918525076718,-0.7165282964706421,0.4795369803905487,-0.5065879821777344,0,0,0,-1,-1,20885.94037491667,unknown,2,2025-04-21T16:56:11.557+03:00,2025-04-20T21:57:49.637+03:00,6834,0.9873711,0,0,5595.969,5,6,2025-04-21T16:56:27.034+03:00,766936612.9421742,0,-38.72,100.1974,1,0.3,2025-04-21T16:56:03.730+03:00,99,1.65,2025-04-21T12:30:07.995+03:00,0.02023345852159405,0
2025-04-21T16:56:55.372+03:00,1745243813.171704,40.95220373050805,29.14025042908131,76.57294,-1,-1,-1,-1,30,36.49476654306539,-9999,20891.392859,-0.709991455078125,0.488128662109375,-0.50238037109375,20891.382783,2.322700851029271,-0.955095374348695,-0.5002501499075495,-0.003761091269552708,0.02077418379485607,0.01129194442182779,0.01006478071212769,0.001098185777664185,0.005800366401672363,XArbitraryZVertical,-0.3209767916310116,0.3789367106060626,-0.8346501891782023,-0.2382012462835663,-0.7163330912590027,0.4796450436115265,-0.5067617297172546,0,0,0,-1,-1,20885.94037491667,unknown,2,2025-04-21T16:56:11.557+03:00,2025-04-20T21:57:49.637+03:00,6834,0.9873711,0,0,5595.969,5,6,2025-04-21T16:56:27.034+03:00,766936612.9421742,0,-38.72,100.1974,1,0.3,2025-04-21T16:56:03.730+03:00,99,1.65,2025-04-21T12:30:07.995+03:00,0.02023345852159405,0
2025-04-21T16:56:55.382+03:00,1745243813.171704,40.95220373050805,29.14025042908131,76.57294,-1,-1,-1,-1,30,36.49476654306539,-9999,20891.402935,-0.706146240234375,0.4829254150390625,-0.50634765625,20891.392859,2.322721476391383,-0.9549309603386318,-0.5004296245351193,-0.008610508404672146,0.01415376551449299,0.01174704544246197,0.006233811378479004,0.005670934915542603,0.006738185882568359,XArbitraryZVertical,-0.3208719847118529,0.3789805914006397,-0.8346768223521591,-0.2381792637909052,-0.7161794304847717,0.4798025190830231,-0.5068297386169434,0,0,0,-1,-1,20885.94037491667,unknown,2,2025-04-21T16:56:11.557+03:00,2025-04-20T21:57:49.637+03:00,6834,0.9873711,0,0,5595.969,5,6,2025-04-21T16:56:27.034+03:00,766936612.9421742,0,-38.72,100.1974,1,0.3,2025-04-21T16:56:03.730+03:00,99,1.65,2025-04-21T12:30:07.995+03:00,0.02023345852159405,0
2025-04-21T16:56:55.392+03:00,1745243813.171704,40.95220373050805,29.14025042908131,76.57294,-1,-1,-1,-1,30,36.49476654306539,-9999,20891.413012,-0.7114410400390625,0.4803619384765625,-0.5064697265625,20891.402935,2.32267202172882,-0.9548482384975516,-0.5005696688613511,-0.009865123778581619,0.01003492064774036,0.006267325486987829,0.00668632984161377,0.007958978414535522,0.004164576530456543,XArbitraryZVertical,-0.3207967799601344,0.3790307755678879,-0.8346825076337995,-0.2381808885644714,-0.7160826921463013,0.4799253940582275,-0.5068501830101013,0,0,0,-1,-1,20885.94037491667,unknown,2,2025-04-21T16:56:11.557+03:00,2025-04-20T21:57:49.637+03:00,6834,0.9873711,0,0,5595.969,5,6,2025-04-21T16:56:27.034+03:00,766936612.9421742,0,-38.72,100.1974,1,0.3,2025-04-21T16:56:03.730+03:00,99,1.65,2025-04-21T12:30:07.995+03:00,0.02023345852159405,0
2025-04-21T16:56:55.402+03:00,1745243813.171704,40.95220373050805,29.14025042908131,76.57294,-1,-1,-1,-1,30,36.49476654306539,-9999,20891.423088,-0.71453857421875,0.48388671875,-0.5068206787109375,20891.413012,2.322606053185281,-0.9548023623792866,-0.5006890781548053,-0.007921149022877216,0.01482235174626112,0.002671725116670132,0.008844077587127686,0.001918554306030273,0.000273287296295166,XArbitraryZVertical,-0.3207384632437833,0.3790803151284465,-0.8346805045832714,-0.2381874443221643,-0.7160126566886902,0.4800301492214203,-0.5068498849868774,0,0,0,-1,-1,20885.94037491667,unknown,2,2025-04-21T16:56:11.557+03:00,2025-04-20T21:57:49.637+03:00,6834,0.9873711,0,0,5595.969,5,6,2025-04-21T16:56:27.034+03:00,766936612.9421742,0,-38.72,100.1974,1,0.3,2025-04-21T16:56:03.730+03:00,99,1.65,2025-04-21T12:30:07.995+03:00,0.02023345852159405,0
2025-04-21T16:56:55.412+03:00,1745243813.171704,40.95220373050805,29.14025042908131,76.57294,-1,-1,-1,-1,30,36.49476654306539,-9999,20891.433164,-0.713287353515625,0.4881744384765625,-0.5048980712890625,20891.423088,2.322534010547179,-0.9546746014266045,-0.5007468240357731,-0.006979721132665873,0.0186983160674572,-0.001867366721853614,0.003751814365386963,0.0007387399673461914,0.0003945231437683105,XArbitraryZVertical,-0.3206585673783704,0.379098133426366,-0.834691722774522,-0.2382274467739914,-0.7159252762794495,0.4800808131694794,-0.5069254040718079,0,0,0,-1,-1,20885.94037491667,unknown,2,2025-04-21T16:56:11.557+03:00,2025-04-20T21:57:49.637+03:00,6834,0.9873711,0,0,5595.969,5,6,2025-04-21T16:56:27.034+03:00,766936612.9421742,0,-38.72,100.1974,1,0.3,2025-04-21T16:56:03.730+03:00,99,1.65,2025-04-21T12:30:07.995+03:00,0.02023345852159405,0
2025-04-21T16:56:55.422+03:00,1745243813.171704,40.95220373050805,29.14025042908131,76.57294,-1,-1,-1,-1,30,36.49476654306539,-9999,20891.44324,-0.709259033203125,0.4816741943359375,-0.5043487548828125,20891.433164,2.322453173449269,-0.9545334306469581,-0.5007682036631984,-0.00734097883105278,0.01423046458512545,-0.001355041051283479,0.001535654067993164,0.004824578762054443,0.0007948875427246094,XArbitraryZVertical,-0.3205795321205855,0.3791022293449819,-0.8347044889946957,-0.2382826891978196,-0.7158453464508057,0.4800995588302612,-0.5070205330848694,0,0,0,-1,-1,20885.94037491667,unknown,2,2025-04-21T16:56:11.557+03:00,2025-04-20T21:57:49.637+03:00,6834,0.9873711,0,0,5595.969,5,6,2025-04-21T16:56:27.034+03:00,766936612.9421742,0,-38.72,100.1974,1,0.3,2025-04-21T16:56:03.730+03:00,99,1.65,2025-04-21T12:30:07.995+03:00,0.02023345852159405,0
2025-04-21T16:56:55.432+03:00,1745243813.171704,40.95220373050805,29.14025042908131,76.57294,-1,-1,-1,-1,30,36.49476654306539,-9999,20891.453316,-0.709503173828125,0.4815521240234375,-0.503387451171875,20891.44324,2.32242123064337,-0.9543915853858892,-0.5008176302570941,-0.002568860538303852,0.01235213689506054,-0.001096448162570596,0.003382205963134766,0.007482022047042847,0.00175243616104126,XArbitraryZVertical,-0.3205032696082482,0.379108835207127,-0.8347227315323754,-0.2383105308155696,-0.715753972530365,0.4801429212093353,-0.5071082711219788,0,0,0,-1,-1,20885.94037491667,unknown,2,2025-04-21T16:56:11.557+03:00,2025-04-20T21:57:49.637+03:00,6834,0.9873711,0,0,5595.969,5,6,2025-04-21T16:56:27.034+03:00,766936612.9421742,0,-38.72,100.1974,1,0.3,2025-04-21T16:56:03.730+03:00,99,1.65,2025-04-21T12:30:07.995+03:00,0.02023345852159405,0
2025-04-21T16:56:55.443+03:00,1745243813.171704,40.95220373050805,29.14025042908131,76.57294,-1,-1,-1,-1,30,36.49476654306539,-9999,20891.463393,-0.7122039794921875,0.4864959716796875,-0.5066070556640625,20891.453316,2.322442643293543,-0.9541962490227307,-0.5008593037139362,0.002818181645125151,0.02133125066757202,0.003205622080713511,0.007264614105224609,0.001219898462295532,0.003162384033203125,XArbitraryZVertical,-0.3204164572635029,0.3790976335037212,-0.8347561155461246,-0.2383283707638348,-0.7156386375427246,0.4801794588565826,-0.5072365403175354,0,0,0,-1,-1,20885.94037491667,unknown,2,2025-04-21T16:56:11.557+03:00,2025-04-20T21:57:49.637+03:00,6834,0.9873711,0,0,5595.969,5,6,2025-04-21T16:56:27.034+03:00,766936612.9421742,0,-38.72,100.1974,1,0.3,2025-04-21T16:56:03.730+03:00,99,1.65,2025-04-21T12:30:07.995+03:00,0.02023345852159405,0
2025-04-21T16:56:55.453+03:00,1745243813.171704,40.95220373050805,29.14025042908131,76.57294,-1,-1,-1,-1,30,36.49476654306539,-9999,20891.473469,-0.7109527587890625,0.4877471923828125,-0.51007080078125,20891.463393,2.322487866410467,-0.9539405121838296,-0.5008520005001634,0.002817116212099791,0.02598139643669128,-0.0002333176962565631,0.005016803741455078,0.001363635063171387,0.003133773803710938,XArbitraryZVertical,-0.320319901523592,0.3790571959944246,-0.8348025927516572,-0.2383598303158103,-0.7155117988586426,0.4801730513572693,-0.507421612739563,0,0,0,-1,-1,20885.94037491667,unknown,2,2025-04-21T16:56:11.557+03:00,2025-04-20T21:57:49.637+03:00,6834,0.9873711,0,0,5595.969,5,6,2025-04-21T16:56:27.034+03:00,766936612.9421742,0,-38.72,100.1974,1,0.3,2025-04-21T16:56:03.730+03:00,99,1.65,2025-04-21T12:30:07.995+03:00,0.02023345852159405,0
2025-04-21T16:56:55.462+03:00,1745243813.171704,40.95220373050805,29.14025042908131,76.57294,-1,-1,-1,-1,30,36.49476654306539,-9999,20891.483545,-0.7101898193359375,0.4833526611328125,-0.506378173828125,20891.473469,2.322508763570729,-0.9536818812065824,-0.5008636856461823,-0.002812007442116737,0.02321463823318481,-5.728274118155241e-05,0.003110945224761963,0.00670921802520752,-0.0002854466438293457,XArbitraryZVertical,-0.3202132874760971,0.379027372053727,-0.834846365564678,-0.2383972477578331,-0.7153759598731995,0.4801833033561707,-0.5076034069061279,0,0,0,-1,-1,20885.94037491667,unknown,2,2025-04-21T16:56:11.557+03:00,2025-04-20T21:57:49.637+03:00,6834,0.9873711,0,0,5595.969,5,6,2025-04-21T16:56:27.034+03:00,766936612.9421742,0,-38.72,100.1974,1,0.3,2025-04-21T16:56:03.730+03:00,99,1.65,2025-04-21T12:30:07.995+03:00,0.02023345852159405,0
2025-04-21T16:56:55.473+03:00,1745243813.171704,40.95220373050805,29.14025042908131,76.57294,-1,-1,-1,-1,30,36.49476654306539,-9999,20891.493621,-0.708831787109375,0.4857177734375,-0.501739501953125,20891.483545,2.322493492245479,-0.9534806663840134,-0.5009083778002238,-0.002998694777488708,0.02046172879636288,0.001364312716759741,0.004471361637115479,0.0067005455493927,-0.001695156097412109,XArbitraryZVertical,-0.3201164294495462,0.3790224616755695,-0.8348761631887712,-0.2384306237920868,-0.7152562737464905,0.4802225232124329,-0.5077348947525024,0,0,0,-1,-1,20885.94037491667,unknown,2,2025-04-21T16:56:11.557+03:00,2025-04-20T21:57:49.637+03:00,6834,0.9873711,0,0,5595.969,5,6,2025-04-21T16:56:27.034+03:00,766936612.9421742,0,-38.72,100.1974,1,0.3,2025-04-21T16:56:03.730+03:00,99,1.65,2025-04-21T12:30:07.995+03:00,0.02023345852159405,0
2025-04-21T16:56:55.483+03:00,1745243813.171704,40.95220373050805,29.14025042908131,76.57294,-1,-1,-1,-1,30,36.49476654306539,-9999,20891.503698,-0.707305908203125,0.4922332763671875,-0.498809814453125,20891.493621,2.322527517357034,-0.953243330812418,-0.5009144197798473,0.005256305448710918,0.02224338240921497,-0.0009670185390859842,0.005157232284545898,0.002422749996185303,0.002608120441436768,XArbitraryZVertical,-0.3200224647025231,0.3789909689129114,-0.8349181020648392,-0.2384598596296812,-0.7151333689689636,0.4802278280258179,-0.5079029202461243,0,0,0,-1,-1,20885.94037491667,unknown,2,2025-04-21T16:56:11.557+03:00,2025-04-20T21:57:49.637+03:00,6834,0.9873711,0,0,5595.969,5,6,2025-04-21T16:56:27.034+03:00,766936612.9421742,0,-38.72,100.1974,1,0.3,2025-04-21T16:56:03.730+03:00,99,1.65,2025-04-21T12:30:07.995+03:00,0.02023345852159405,0
2025-04-21T16:56:55.493+03:00,1745243813.171704,40.95220373050805,29.14025042908131,76.57294,-1,-1,-1,-1,30,36.49476654306539,-9999,20891.513774,-0.707366943359375,0.4848785400390625,-0.4979400634765625,20891.503698,2.322610729236385,-0.9530067620780042,-0.500869722990565,0.008607360534369946,0.01907608658075333,0.001131818629801273,0.0067482590675354,0.006551355123519897,0.006695985794067383,XArbitraryZVertical,-0.3199494305743736,0.3789328128884321,-0.8349664897391487,-0.2384811094362686,-0.7150307297706604,0.4801886081695557,-0.5080845952033997,0,0,0,-1,-1,20885.94037491667,unknown,2,2025-04-21T16:56:11.557+03:00,2025-04-20T21:57:49.637+03:00,6834,0.9873711,0,0,5595.969,5,6,2025-04-21T16:56:27.034+03:00,766936612.9421742,0,-38.72,100.1974,1,0.3,2025-04-21T16:56:03.730+03:00,99,1.65,2025-04-21T12:30:07.995+03:00,0.02023345852159405,0
2025-04-21T16:56:55.503+03:00,1745243813.171704,40.95220373050805,29.14025042908131,76.57294,-1,-1,-1,-1,30,36.49476654306539,-9999,20891.52385,-0.7079620361328125,0.475921630859375,-0.496490478515625,20891.513774,2.32269813350198,-0.9527801377088705,-0.5008753791043,0.001561968354508281,0.021599430590868,0.004791534505784512,0.007103919982910156,0.01194798946380615,0.01018285751342773,XArbitraryZVertical,-0.319870098837747,0.3788939148825279,-0.8350131128415468,-0.2384861900283891,-0.7149133682250977,0.4801935851573944,-0.508245050907135,0,0,0,-1,-1,20885.94037491667,unknown,2,2025-04-21T16:56:11.557+03:00,2025-04-20T21:57:49.637+03:00,6834,0.9873711,0,0,5595.969,5,6,2025-04-21T16:56:27.034+03:00,766936612.9421742,0,-38.72,100.1974,1,0.3,2025-04-21T16:56:03.730+03:00,99,1.65,2025-04-21T12:30:07.995+03:00,0.02023345852159405,0
2025-04-21T16:56:55.513+03:00,1745243813.171704,40.95220373050805,29.14025042908131,76.57294,-1,-1,-1,-1,30,36.49476654306539,-9999,20891.533926,-0.7082061767578125,0.46484375,-0.50048828125,20891.52385,2.322645629917772,-0.9525563332326143,-0.5009764351599751,-0.01986289583146572,0.02684798836708069,0.005167040042579174,0.007621943950653076,0.004001080989837646,0.01054352521896362,XArbitraryZVertical,-0.3197441696010262,0.3789132397510113,-0.8350412832319883,-0.2385253556177575,-0.7147600054740906,0.4802822172641754,-0.5083768367767334,0,0,0,-1,-1,20885.94037491667,unknown,2,2025-04-21T16:56:11.557+03:00,2025-04-20T21:57:49.637+03:00,6834,0.9873711,0,0,5595.969,5,6,2025-04-21T16:56:27.034+03:00,766936612.9421742,0,-38.72,100.1974,1,0.3,2025-04-21T16:56:03.730+03:00,99,1.65,2025-04-21T12:30:07.995+03:00,0.02023345852159405,0
2025-04-21T16:56:55.523+03:00,1745243813.171704,40.95220373050805,29.14025042908131,76.57294,-1,-1,-1,-1,30,36.49476654306539,-9999,20891.544003,-0.7066802978515625,0.4604949951171875,-0.5061187744140625,20891.533926,2.322419672534346,-0.9524013030216555,-0.5012248928868931,-0.04124188795685768,0.02191747911274433,0.009489517658948898,0.006454050540924072,-0.005509436130523682,0.01217210292816162,XArbitraryZVertical,-0.3195810691144855,0.3790233546015037,-0.8350359975261143,-0.2385876095479771,-0.7145839333534241,0.4805001318454742,-0.5084185004234314,0,0,0,-1,-1,20885.94037491667,unknown,2,2025-04-21T16:56:11.557+03:00,2025-04-20T21:57:49.637+03:00,6834,0.9873711,0,0,5595.969,5,6,2025-04-21T16:56:27.034+03:00,766936615.5082804,0,-38.69,100.1974,1,0.3,2025-04-21T16:56:03.730+03:00,99,1.65,2025-04-21T12:30:07.995+03:00,0.02023345852159405,0
2025-04-21T16:56:55.533+03:00,1745243813.171704,40.95220373050805,29.14025042908131,76.57294,-1,-1,-1,-1,30,36.49476654306539,-9999,20891.554079,-0.7022552490234375,0.4638214111328125,-0.50433349609375,20891.544003,2.321971943546124,-0.9524688979500314,-0.501660844252902,-0.07420037686824799,0.006423740647733212,0.01482010073959827,0.006302475929260254,-0.01815977692604065,0.006539702415466309,XArbitraryZVertical,-0.3194269015428721,0.3792652048704983,-0.8349662865406673,-0.2386538423174706,-0.714447557926178,0.4808824062347412,-0.5082487463951111,0,0,0,-1,-1,20885.94037491667,unknown,2,2025-04-21T16:56:11.557+03:00,2025-04-20T21:57:49.637+03:00,6834,0.9873711,0,0,5595.969,5,6,2025-04-21T16:56:27.034+03:00,766936615.5082804,0,-38.69,100.1974,1,0.3,2025-04-21T16:56:03.730+03:00,99,1.65,2025-04-21T12:30:07.995+03:00,0.02023345852159405,0
2025-04-21T16:56:55.543+03:00,1745243813.171704,40.95220373050805,29.14025042908131,76.57294,-1,-1,-1,-1,30,36.49476654306539,-9999,20891.564155,-0.704071044921875,0.4594879150390625,-0.4976806640625,20891.554079,2.321183096835249,-0.9528769559198569,-0.5023452791311792,-0.1242022812366486,-0.008768795058131218,0.01266973093152046,0.008697986602783203,-0.02080443501472473,0.001723766326904297,XArbitraryZVertical,-0.3192943920498398,0.3796945089859546,-0.8347982965416878,-0.2387362072830294,-0.7143864631652832,0.4814823865890503,-0.5077663660049438,0,0,0,-1,-1,20885.94037491667,unknown,2,2025-04-21T16:56:11.557+03:00,2025-04-20T21:57:49.637+03:00,6834,0.9873711,0,0,5595.969,5,6,2025-04-21T16:56:27.034+03:00,766936615.5082804,0,-38.69,100.1974,1,0.3,2025-04-21T16:56:03.730+03:00,99,1.65,2025-04-21T12:30:07.995+03:00,0.02023345852159405,0
2025-04-21T16:56:55.554+03:00,1745243813.171704,40.95220373050805,29.14025042908131,76.57294,-1,-1,-1,-1,30,36.49476654306539,-9999,20891.574231,-0.709197998046875,0.45831298828125,-0.497955322265625,20891.564155,2.320047957563261,-0.9535004695207805,-0.5032663053527423,-0.1332405209541321,-0.007837487384676933,0.01694437116384506,0.01190268993377686,-0.01819354295730591,0.003218591213226318,XArbitraryZVertical,-0.3191326185025652,0.3802925657188872,-0.8345515080466979,-0.2388631416955679,-0.7143409848213196,0.4822894334793091,-0.5070638656616211,0,0,0,-1,-1,20885.94037491667,unknown,2,2025-04-21T16:56:11.557+03:00,2025-04-20T21:57:49.637+03:00,6834,0.9873711,0,0,5595.969,5,6,2025-04-21T16:56:27.034+03:00,766936615.5082804,0,-38.69,100.1974,1,0.3,2025-04-21T16:56:03.730+03:00,99,1.65,2025-04-21T12:30:07.995+03:00,0.02023345852159405,0
2025-04-21T16:56:55.563+03:00,1745243813.171704,40.95220373050805,29.14025042908131,76.57294,-1,-1,-1,-1,30,36.49476654306539,-9999,20891.584308,-0.7065887451171875,0.4691619873046875,-0.50616455078125,20891.574231,2.318973612897647,-0.954119296922638,-0.5041995059196868,-0.122238002717495,-0.008393355645239353,0.0248175747692585,0.009529471397399902,-0.02313065528869629,0.009595990180969238,XArbitraryZVertical,-0.3189770096770946,0.3808845674055693,-0.8343126509376483,-0.2389622264908478,-0.7142871618270874,0.4831067025661469,-0.5063612461090088,0,0,0,-1,-1,20885.94037491667,unknown,2,2025-04-21T16:56:11.557+03:00,2025-04-20T21:57:49.637+03:00,6834,0.9873711,0,0,5595.969,5,6,2025-04-21T16:56:27.034+03:00,766936615.5082804,0,-38.69,100.1974,1,0.3,2025-04-21T16:56:03.730+03:00,99,1.65,2025-04-21T12:30:07.995+03:00,0.02023345852159405,0
2025-04-21T16:56:55.574+03:00,1745243813.171704,40.95220373050805,29.14025042908131,76.57294,-1,-1,-1,-1,30,36.49476654306539,-9999,20891.594384,-0.7035369873046875,0.4930572509765625,-0.5114288330078125,20891.584308,2.318246461273392,-0.9545936521965981,-0.5049812761331222,-0.07664362341165543,-0.01618389971554279,0.02470785193145275,0.005127668380737305,-0.02474582195281982,0.006276845932006836,XArbitraryZVertical,-0.3188607593624642,0.3813474346695752,-0.8341401977875154,-0.2389811086789113,-0.71421879529953,0.4837910532951355,-0.5058038830757141,0,0,0,-1,-1,20885.94037491667,unknown,2,2025-04-21T16:56:11.557+03:00,2025-04-20T21:57:49.637+03:00,6834,0.9873711,0,0,5595.969,5,6,2025-04-21T16:56:27.034+03:00,766936615.5082804,0,-38.69,100.1974,1,0.3,2025-04-21T16:56:03.730+03:00,99,1.65,2025-04-21T12:30:07.995+03:00,0.02023345852159405,0
2025-04-21T16:56:55.584+03:00,1745243813.171704,40.95220373050805,29.14025042908131,76.57294,-1,-1,-1,-1,30,36.49476654306539,-9999,20891.60446,-0.7025604248046875,0.5017852783203125,-0.510345458984375,20891.594384,2.317828120022721,-0.9550037639500053,-0.5055525226592872,-0.04699498042464256,-0.02083970606327057,0.02248447947204113,0.007627010345458984,-0.01299285888671875,-0.0008286237716674805,XArbitraryZVertical,-0.3188236291286864,0.3816751008750598,-0.8340175611081458,-0.2389354794260262,-0.7142004370689392,0.4842909276485443,-0.5053512454032898,0,0,0,-1,-1,20885.94037491667,unknown,2,2025-04-21T16:56:11.557+03:00,2025-04-20T21:57:49.637+03:00,6834,0.9873711,0,0,5595.969,5,6,2025-04-21T16:56:27.034+03:00,766936615.5082804,0,-38.69,100.1974,1,0.3,2025-04-21T16:56:03.730+03:00,99,1.65,2025-04-21T12:30:07.995+03:00,0.02023345852159405,0
2025-04-21T16:56:55.594+03:00,1745243813.171704,40.95220373050805,29.14025042908131,76.57294,-1,-1,-1,-1,30,36.49476654306539,-9999,20891.614536,-0.7058258056640625,0.48834228515625,-0.508544921875,20891.60446,2.317526799223252,-0.955350626743823,-0.5059852667237151,-0.04948237165808678,-0.0156481396406889,0.01630754396319389,0.01167464256286621,0.01049330830574036,-0.006660103797912598,XArbitraryZVertical,-0.3188134335658543,0.3819250905499127,-0.8339207967449319,-0.2388874651068592,-0.7142045497894287,0.4846694767475128,-0.5049824118614197,0,0,0,-1,-1,20885.94037491667,unknown,2,2025-04-21T16:56:11.557+03:00,2025-04-20T21:57:49.637+03:00,6834,0.9873711,0,0,5595.969,5,6,2025-04-21T16:56:27.034+03:00,766936615.5082804,0,-38.69,100.1974,1,0.3,2025-04-21T16:56:03.730+03:00,99,1.65,2025-04-21T12:30:07.995+03:00,0.02023345852159405,0
2025-04-21T16:56:55.604+03:00,1745243813.171704,40.95220373050805,29.14025042908131,76.57294,-1,-1,-1,-1,30,36.49476654306539,-9999,20891.624613,-0.706146240234375,0.4736175537109375,-0.5037841796875,20891.614536,2.317119914800385,-0.9557169735818912,-0.5064821326137897,-0.06798794865608215,-0.01645594090223312,0.02588303759694099,0.01088470220565796,0.01625382900238037,-0.004588842391967773,XArbitraryZVertical,-0.3187766483213628,0.3822179460867053,-0.8338075395260174,-0.2388637594597902,-0.7141927480697632,0.4851040244102478,-0.5045818090438843,0,0,0,-1,-1,20885.94037491667,unknown,2,2025-04-21T16:56:11.557+03:00,2025-04-20T21:57:49.637+03:00,6834,0.9873711,0,0,5595.969,5,6,2025-04-21T16:56:27.034+03:00,766936615.5082804,0,-38.69,100.1974,1,0.3,2025-04-21T16:56:03.730+03:00,99,1.65,2025-04-21T12:30:07.995+03:00,0.02023345852159405,0
2025-04-21T16:56:55.614+03:00,1745243813.171704,40.95220373050805,29.14025042908131,76.57294,-1,-1,-1,-1,30,36.49476654306539,-9999,20891.634689,-0.7069091796875,0.4655303955078125,-0.4949798583984375,20891.624613,2.316528991820639,-0.956201569386222,-0.5071290696587755,-0.09780097007751465,-0.0217851921916008,0.02741595357656479,0.007958114147186279,0.0009634792804718018,-0.003788590431213379,XArbitraryZVertical,-0.3187200866816643,0.3826097829124447,-0.8336514430267852,-0.2388565262165181,-0.714180588722229,0.4856696426868439,-0.5040545463562012,0,0,0,-1,-1,20885.94037491667,unknown,2,2025-04-21T16:56:11.557+03:00,2025-04-20T21:57:49.637+03:00,6834,0.9873711,0,0,5595.969,5,6,2025-04-21T16:56:27.034+03:00,766936615.5082804,0,-38.69,100.1974,1,0.3,2025-04-21T16:56:03.730+03:00,99,1.65,2025-04-21T12:30:07.995+03:00,0.02023345852159405,0
2025-04-21T16:56:55.624+03:00,1745243813.171704,40.95220373050805,29.14025042908131,76.57294,-1,-1,-1,-1,30,36.49476654306539,-9999,20891.644765,-0.71026611328125,0.461090087890625,-0.492156982421875,20891.634689,2.315634939214943,-0.9568181125561019,-0.5079793505318863,-0.1352346986532211,-0.01930372603237629,0.02807997912168503,0.007930934429168701,-0.01418393850326538,0.0003394484519958496,XArbitraryZVertical,-0.3186143592405832,0.3831408370667077,-0.8334355523248483,-0.2388995429180695,-0.7141534090042114,0.4864127337932587,-0.5033760070800781,0,0,0,-1,-1,20885.94037491667,unknown,2,2025-04-21T16:56:11.557+03:00,2025-04-20T21:57:49.637+03:00,6834,0.9873711,0,0,5595.969,5,6,2025-04-21T16:56:27.034+03:00,766936615.5082804,0,-38.69,100.1974,1,0.3,2025-04-21T16:56:03.730+03:00,99,1.65,2025-04-21T12:30:07.995+03:00,0.02023345852159405,0
2025-04-21T16:56:55.634+03:00,1745243813.171704,40.95220373050805,29.14025042908131,76.57294,-1,-1,-1,-1,30,36.49476654306539,-9999,20891.654841,-0.712493896484375,0.46221923828125,-0.4939422607421875,20891.644765,2.314426381351764,-0.9575743307270527,-0.5090792335975451,-0.1613656282424927,-0.01720329187810421,0.03512270748615265,0.006210267543792725,-0.02217894792556763,0.007608711719512939,XArbitraryZVertical,-0.3184496116452558,0.3838307595548888,-0.8331567295835385,-0.2389842990658897,-0.7140959501266479,0.4873734414577484,-0.5025275945663452,0,0,0,-1,-1,20885.94037491667,unknown,2,2025-04-21T16:56:11.557+03:00,2025-04-20T21:57:49.637+03:00,6834,0.9873711,0,0,5595.969,5,6,2025-04-21T16:56:27.034+03:00,766936615.5082804,0,-38.69,100.1974,1,0.3,2025-04-21T16:56:03.730+03:00,99,1.65,2025-04-21T12:30:07.995+03:00,0.02023345852159405,0
2025-04-21T16:56:55.644+03:00,1745243813.171704,40.95220373050805,29.14025042908131,76.57294,-1,-1,-1,-1,30,36.49476654306539,-9999,20891.664918,-0.7127227783203125,0.475616455078125,-0.49853515625,20891.654841,2.313087844686324,-0.9583536845364771,-0.5102858320165418,-0.1692803502082825,-0.009763285517692566,0.03249120712280273,0.003281831741333008,-0.02796238660812378,0.009017765522003174,XArbitraryZVertical,-0.3182445162954601,0.3845831365449547,-0.8328573449757619,-0.2390914642646178,-0.7140056490898132,0.488426685333252,-0.5016324520111084,0,0,0,-1,-1,20885.94037491667,unknown,2,2025-04-21T16:56:11.557+03:00,2025-04-20T21:57:49.637+03:00,6834,0.9873711,0,0,5595.969,5,6,2025-04-21T16:56:27.034+03:00,766936615.5082804,0,-38.69,100.1974,1,0.3,2025-04-21T16:56:03.730+03:00,99,1.65,2025-04-21T12:30:07.995+03:00,0.02023345852159405,0
2025-04-21T16:56:55.669+03:00,1745243813.171704,40.95220373050805,29.14025042908131,76.57294,-1,-1,-1,-1,30,36.49476654306539,-9999,20891.674994,-0.7121734619140625,0.481842041015625,-0.5057373046875,20891.664918,2.311683545360963,-0.9590868415429512,-0.5115226255726022,-0.1695181578397751,0.00192373082973063,0.03402305766940117,0.001369059085845947,-0.02598947286605835,0.006163120269775391,XArbitraryZVertical,-0.317999614422618,0.3853510588875007,-0.8325571189047735,-0.2392266912050617,-0.7138782143592834,0.4895055294036865,-0.5007616281509399,0,0,0,-1,-1,20885.94037491667,unknown,2,2025-04-21T16:56:11.557+03:00,2025-04-20T21:57:49.637+03:00,6834,0.9873711,0,0,5595.969,5,6,2025-04-21T16:56:27.034+03:00,766936615.5082804,0,-38.69,100.1974,1,0.3,2025-04-21T16:56:03.730+03:00,99,1.65,2025-04-21T12:30:07.995+03:00,0.02023345852159405,0
2025-04-21T16:56:55.672+03:00,1745243813.171704,40.95220373050805,29.14025042908131,76.57294,-1,-1,-1,-1,30,36.49476654306539,-9999,20891.68507,-0.708587646484375,0.4844970703125,-0.5093994140625,20891.674994,2.310478686960378,-0.959631231731252,-0.5126830730531174,-0.1410372704267502,0.003848131047561765,0.03756732493638992,0.001069068908691406,-0.01369538903236389,0.0009316205978393555,XArbitraryZVertical,-0.3177308866244183,0.3860359624482958,-0.8323116969944108,-0.2393336251442286,-0.7136850357055664,0.4905171096324921,-0.5000466108322144,0,0,0,-1,-1,20885.94037491667,unknown,2,2025-04-21T16:56:11.557+03:00,2025-04-20T21:57:49.637+03:00,6834,0.9873711,0,0,5595.969,5,6,2025-04-21T16:56:27.034+03:00,766936615.5082804,0,-38.69,100.1974,1,0.3,2025-04-21T16:56:03.730+03:00,99,1.65,2025-04-21T12:30:07.995+03:00,0.02023345852159405,0
2025-04-21T16:56:55.674+03:00,1745243813.171704,40.95220373050805,29.14025042908131,76.57294,-1,-1,-1,-1,30,36.49476654306539,-9999,20891.695146,-0.7113037109375,0.4956817626953125,-0.509246826171875,20891.68507,2.309427934352918,-0.9600604687906152,-0.5137902581856468,-0.1345223784446716,0.005938179790973663,0.03497606888413429,0.002150535583496094,-0.009380370378494263,-0.007071852684020996,XArbitraryZVertical,-0.3174553394200632,0.3866624848313301,-0.8321035726744231,-0.2394113310277741,-0.7134541869163513,0.4914816617965698,-0.4994284510612488,0,0,0,-1,-1,20885.94037491667,unknown,2,2025-04-21T16:56:11.557+03:00,2025-04-20T21:57:49.637+03:00,6834,0.9873711,0,0,5595.969,5,6,2025-04-21T16:56:27.034+03:00,766936615.5082804,0,-38.69,100.1974,1,0.3,2025-04-21T16:56:03.730+03:00,99,1.65,2025-04-21T12:30:07.995+03:00,0.02023345852159405,0
2025-04-21T16:56:55.684+03:00,1745243813.171704,40.95220373050805,29.14025042908131,76.57294,-1,-1,-1,-1,30,36.49476654306539,-9999,20891.705223,-0.7098541259765625,0.4961395263671875,-0.51446533203125,20891.695146,2.30838711373149,-0.9604487102465339,-0.5148385467864065,-0.1320837736129761,0.01605386473238468,0.0273965448141098,0.004180073738098145,-0.006356298923492432,-0.01048260927200317,XArbitraryZVertical,-0.3171773378015704,0.3872603906773909,-0.831903902405086,-0.23950722724314,-0.7132254838943481,0.4923943281173706,-0.498855859041214,0,0,0,-1,-1,20885.94037491667,unknown,2,2025-04-21T16:56:11.557+03:00,2025-04-20T21:57:49.637+03:00,6834,0.9873711,0,0,5595.969,5,6,2025-04-21T16:56:27.034+03:00,766936615.5082804,0,-38.69,100.1974,1,0.3,2025-04-21T16:56:03.730+03:00,99,1.65,2025-04-21T12:30:07.995+03:00,0.02023345852159405,0
2025-04-21T16:56:55.695+03:00,1745243813.171704,40.95220373050805,29.14025042908131,76.57294,-1,-1,-1,-1,30,36.49476654306539,-9999,20891.715299,-0.707122802734375,0.4945526123046875,-0.5120391845703125,20891.705223,2.307346521479271,-0.9607312510919186,-0.5158161475040669,-0.1300989240407944,0.02131893299520016,0.02917047776281834,0.00165259838104248,0.003169029951095581,-0.01120427250862122,XArbitraryZVertical,-0.3168708668039263,0.3878191685837527,-0.831721883577391,-0.2396408482470601,-0.7129715085029602,0.4932449758052826,-0.4983783066272736,0,0,0,-1,-1,20885.94037491667,unknown,2,2025-04-21T16:56:11.557+03:00,2025-04-20T21:57:49.637+03:00,6834,0.9873711,0,0,5595.969,5,6,2025-04-21T16:56:27.034+03:00,766936615.5082804,0,-38.69,100.1974,1,0.3,2025-04-21T16:56:03.730+03:00,99,1.65,2025-04-21T12:30:07.995+03:00,0.02023345852159405,0
2025-04-21T16:56:55.704+03:00,1745243813.171704,40.95220373050805,29.14025042908131,76.57294,-1,-1,-1,-1,30,36.49476654306539,-9999,20891.725375,-0.7041473388671875,0.497283935546875,-0.5111541748046875,20891.715299,2.306390802057496,-0.961027865954231,-0.5167741941893788,-0.1164106726646423,0.01027973182499409,0.03534428030252457,0.003381073474884033,0.001664459705352783,-0.01699671149253845,XArbitraryZVertical,-0.3165906084829702,0.3883586221229278,-0.8315479876293352,-0.2397410346627247,-0.7127315402030945,0.494078129529953,-0.4978959262371063,0,0,0,-1,-1,20885.94037491667,unknown,2,2025-04-21T16:56:11.557+03:00,2025-04-20T21:57:49.637+03:00,6834,0.9873711,0,0,5595.969,5,6,2025-04-21T16:56:27.034+03:00,766936615.5082804,0,-38.69,100.1974,1,0.3,2025-04-21T16:56:03.730+03:00,99,1.65,2025-04-21T12:30:07.995+03:00,0.02023345852159405,0
2025-04-21T16:56:55.714+03:00,1745243813.171704,40.95220373050805,29.14025042908131,76.57294,-1,-1,-1,-1,30,36.49476654306539,-9999,20891.735451,-0.71478271484375,0.5029296875,-0.521209716796875,20891.725375,2.305646290418947,-0.9614059001487325,-0.5175910204838805,-0.08948878198862076,-0.005178054329007864,0.03152158111333847,0.005374252796173096,-8.311867713928223e-05,-0.01357582211494446,XArbitraryZVertical,-0.316416956848649,0.3888221611317213,-0.8313882916032642,-0.2397726192947015,-0.7125885486602783,0.4947881400585175,-0.4973952770233154,0,0,0,-1,-1,20885.94037491667,unknown,2,2025-04-21T16:56:11.557+03:00,2025-04-20T21:57:49.637+03:00,6834,0.9873711,0,0,5595.969,5,6,2025-04-21T16:56:27.034+03:00,766936615.5082804,0,-38.69,100.1974,1,0.3,2025-04-21T16:56:03.730+03:00,99,1.65,2025-04-21T12:30:07.995+03:00,0.02023345852159405,0
2025-04-21T16:56:55.724+03:00,1745243813.171704,40.95220373050805,29.14025042908131,76.57294,-1,-1,-1,-1,30,36.49476654306539,-9999,20891.745528,-0.7360382080078125,0.5145721435546875,-0.5209197998046875,20891.735451,2.304941482139855,-0.9616341046281986,-0.5182128815339662,-0.08854275196790695,0.0338066965341568,0.01023909728974104,0.008653223514556885,0.002352058887481689,-0.01478433609008789,XArbitraryZVertical,-0.3162328158468258,0.3891895814793545,-0.8312596979520274,-0.2398656476631925,-0.7124496102333069,0.4953284561634064,-0.4970565438270569,0,0,0,-1,-1,20885.94037491667,unknown,2,2025-04-21T16:56:11.557+03:00,2025-04-20T21:57:49.637+03:00,6834,0.9873711,0,0,5595.969,5,6,2025-04-21T16:56:27.034+03:00,766936615.5082804,0,-38.69,100.1974,1,0.3,2025-04-21T16:56:03.730+03:00,99,1.65,2025-04-21T12:30:07.995+03:00,0.02023345852159405,0
2025-04-21T16:56:55.735+03:00,1745243813.171704,40.95220373050805,29.14025042908131,76.57294,-1,-1,-1,-1,30,36.49476654306539,-9999,20891.755604,-0.744720458984375,0.5138397216796875,-0.5245819091796875,20891.745528,2.303939784745254,-0.9614933340527518,-0.5187232826735496,-0.1210218667984009,0.09311103075742722,-0.01458662375807762,-0.004655182361602783,0.008393704891204834,-0.02526587247848511,XArbitraryZVertical,-0.3158627903410493,0.3895185092973145,-0.8311550578149358,-0.2401814798498146,-0.7121721506118774,0.4957717657089233,-0.4970120489597321,0,0,0,-1,-1,20885.94037491667,unknown,2,2025-04-21T16:56:11.557+03:00,2025-04-20T21:57:49.637+03:00,6834,0.9873711,0,0,5595.969,5,6,2025-04-21T16:56:27.034+03:00,766936615.5082804,0,-38.69,100.1974,1,0.3,2025-04-21T16:56:03.730+03:00,99,1.65,2025-04-21T12:30:07.995+03:00,0.02023345852159405,0
2025-04-21T16:56:55.745+03:00,1745243813.171704,40.95220373050805,29.14025042908131,76.57294,-1,-1,-1,-1,30,36.49476654306539,-9999,20891.76568,-0.7349853515625,0.4949493408203125,-0.5345001220703125,20891.755604,2.302393314736716,-0.9610649395741045,-0.5193240708438425,-0.1772495955228806,0.1420858949422836,-0.0301376860588789,-0.02638322114944458,0.01927033066749573,-0.02302572131156921,XArbitraryZVertical,-0.3152460909528127,0.3899316406628159,-0.8310289006235102,-0.2407571252710126,-0.7117148637771606,0.4962934255599976,-0.4971464276313782,0,0,0,-1,-1,20885.94037491667,unknown,2,2025-04-21T16:56:11.557+03:00,2025-04-20T21:57:49.637+03:00,6834,0.9873711,0,0,5595.969,5,6,2025-04-21T16:56:27.034+03:00,766936615.5082804,0,-38.69,100.1974,1,0.3,2025-04-21T16:56:03.730+03:00,99,1.65,2025-04-21T12:30:07.995+03:00,0.02023345852159405,0
2025-04-21T16:56:55.755+03:00,1745243813.171704,40.95220373050805,29.14025042908131,76.57294,-1,-1,-1,-1,30,36.49476654306539,-9999,20891.775756,-0.719940185546875,0.4713134765625,-0.541290283203125,20891.76568,2.30006321687598,-0.960622431719818,-0.5202496723047082,-0.2677342295646667,0.1668958961963654,-0.04527270048856735,-0.03274786472320557,0.0153542160987854,-0.02829957008361816,XArbitraryZVertical,-0.3143955540814989,0.390584770910558,-0.8308056871845689,-0.2415799194025006,-0.7111181020736694,0.4970968067646027,-0.4971979558467865,0,0,0,-1,-1,20885.94037491667,unknown,2,2025-04-21T16:56:11.557+03:00,2025-04-20T21:57:49.637+03:00,6834,0.9873711,0,0,5595.969,5,6,2025-04-21T16:56:27.034+03:00,766936615.5082804,0,-38.69,100.1974,1,0.3,2025-04-21T16:56:03.730+03:00,99,1.65,2025-04-21T12:30:07.995+03:00,0.02023345852159405,0
2025-04-21T16:56:55.765+03:00,1745243813.171704,40.95220373050805,29.14025042908131,76.57294,-1,-1,-1,-1,30,36.49476654306539,-9999,20891.785833,-0.7073974609375,0.448974609375,-0.546417236328125,20891.775756,2.296721828922978,-0.9605555520260552,-0.5216508498977785,-0.3622335493564606,0.1673369258642197,-0.05271476879715919,-0.02341914176940918,-0.006582468748092651,-0.0386461615562439,XArbitraryZVertical,-0.3133926099623476,0.3916147755114507,-0.8303937157998926,-0.2426298404009841,-0.7105133533477783,0.4983120858669281,-0.4968458712100983,0,0,0,-1,-1,20885.94037491667,unknown,2,2025-04-21T16:56:11.557+03:00,2025-04-20T21:57:49.637+03:00,6834,0.9873711,0,0,5595.969,5,6,2025-04-21T16:56:27.034+03:00,766936615.5082804,0,-38.69,100.1974,1,0.3,2025-04-21T16:56:03.730+03:00,99,1.65,2025-04-21T12:30:07.995+03:00,0.02023345852159405,0
2025-04-21T16:56:55.775+03:00,1745243813.171704,40.95220373050805,29.14025042908131,76.57294,-1,-1,-1,-1,30,36.49476654306539,-9999,20891.795909,-0.7086944580078125,0.4343414306640625,-0.5761871337890625,20891.785833,2.292630136089279,-0.9610992683426623,-0.52358341997455,-0.4349799156188965,0.1306665390729904,-0.03200176730751991,-0.007658779621124268,-0.03131318092346191,-0.04606994986534119,XArbitraryZVertical,-0.3123703555444922,0.3930282850419199,-0.8297865043750315,-0.2437370084057373,-0.7099924683570862,0.4999867081642151,-0.4959070682525635,0,0,0,-1,-1,20885.94037491667,unknown,2,2025-04-21T16:56:11.557+03:00,2025-04-20T21:57:49.637+03:00,6834,0.9873711,0,0,5595.969,5,6,2025-04-21T16:56:27.034+03:00,766936615.5082804,0,-38.69,100.1974,1,0.3,2025-04-21T16:56:03.730+03:00,99,1.65,2025-04-21T12:30:07.995+03:00,0.02023345852159405,0
2025-04-21T16:56:55.785+03:00,1745243813.171704,40.95220373050805,29.14025042908131,76.57294,-1,-1,-1,-1,30,36.49476654306539,-9999,20891.805985,-0.7278289794921875,0.4548797607421875,-0.6046295166015625,20891.795909,2.287953202233695,-0.96214687405518,-0.5260929639127424,-0.517511785030365,0.1268414258956909,-0.02018851786851883,0.003211736679077148,-0.05622053146362305,-0.05473506450653076,XArbitraryZVertical,-0.3113028428363741,0.3948018518712077,-0.8290205437633645,-0.2448407111956743,-0.7094800472259521,0.5021584630012512,-0.4944440722465515,0,0,0,-1,-1,20885.94037491667,unknown,2,2025-04-21T16:56:11.557+03:00,2025-04-20T21:57:49.637+03:00,6834,0.9873711,0,0,5595.969,5,6,2025-04-21T16:56:27.034+03:00,766936615.5082804,0,-38.69,100.1974,1,0.3,2025-04-21T16:56:03.730+03:00,99,1.65,2025-04-21T12:30:07.995+03:00,0.02023345852159405,0
2025-04-21T16:56:55.795+03:00,1745243813.171704,40.95220373050805,29.14025042908131,76.57294,-1,-1,-1,-1,30,36.49476654306539,-9999,20891.816061,-0.7449951171875,0.46978759765625,-0.6070098876953125,20891.805985,2.282588717714494,-0.9635284776277546,-0.5290768988604363,-0.5735580325126648,0.1330090463161469,-0.01484328601509333,-0.001383066177368164,-0.07013601064682007,-0.08823502063751221,XArbitraryZVertical,-0.3101195367859119,0.3968914197867795,-0.8281107911709987,-0.24603975153791,-0.7089288234710693,0.5047366619110107,-0.49260613322258,0,0,0,-1,-1,20885.94037491667,unknown,2,2025-04-21T16:56:11.557+03:00,2025-04-20T21:57:49.637+03:00,6834,0.9873711,0,0,5595.969,5,6,2025-04-21T16:56:27.034+03:00,766936615.5082804,0,-38.69,100.1974,1,0.3,2025-04-21T16:56:03.730+03:00,99,1.65,2025-04-21T12:30:07.995+03:00,0.02023345852159405,0
2025-04-21T16:56:55.805+03:00,1745243813.171704,40.95220373050805,29.14025042908131,76.57294,-1,-1,-1,-1,30,36.49476654306539,-9999,20891.826138,-0.75860595703125,0.44244384765625,-0.628692626953125,20891.816061,2.27686907329624,-0.964764376329632,-0.5325722167643193,-0.5891137719154358,0.1888204514980316,0.03035884723067284,-0.02243185043334961,-0.0498502254486084,-0.114319920539856,XArbitraryZVertical,-0.3086754017737431,0.3991975441314681,-0.8271716743123956,-0.2472804892360708,-0.7080826163291931,0.5077509880065918,-0.4907216429710388,0,0,0,-1,-1,20885.94037491667,unknown,2,2025-04-21T16:56:11.557+03:00,2025-04-20T21:57:49.637+03:00,6834,0.9873711,0,0,5595.969,5,6,2025-04-21T16:56:27.034+03:00,766936615.5082804,0,-38.69,100.1974,1,0.3,2025-04-21T16:56:03.730+03:00,99,1.65,2025-04-21T12:30:07.995+03:00,0.02023345852159405,0
2025-04-21T16:56:55.816+03:00,1745243813.171704,40.95220373050805,29.14025042908131,76.57294,-1,-1,-1,-1,30,36.49476654306539,-9999,20891.836214,-0.7726287841796875,0.42572021484375,-0.6453704833984375,20891.826138,2.27136121247767,-0.9660722264937084,-0.5362986190001737,-0.6091143488883972,0.1513513624668121,0.04448718205094337,-0.03945004940032959,-0.04333710670471191,-0.1200486421585083,XArbitraryZVertical,-0.307237154293885,0.4015560655327211,-0.8262430884913724,-0.2483555049290733,-0.7071624398231506,0.5109577775001526,-0.4887161254882812,0,0,0,-1,-1,20885.94037491667,unknown,2,2025-04-21T16:56:11.557+03:00,2025-04-20T21:57:49.637+03:00,6834,0.9873711,0,0,5595.969,5,6,2025-04-21T16:56:27.034+03:00,766936615.5082804,0,-38.69,100.1974,1,0.3,2025-04-21T16:56:03.730+03:00,99,1.65,2025-04-21T12:30:07.995+03:00,0.02023345852159405,0
2025-04-21T16:56:55.825+03:00,1745243813.171704,40.95220373050805,29.14025042908131,76.57294,-1,-1,-1,-1,30,36.49476654306539,-9999,20891.84629,-0.7626495361328125,0.474822998046875,-0.6427459716796875,20891.836214,2.265840983094102,-0.9670296984778868,-0.5405976618441647,-0.6358470320701599,0.2015028893947601,0.118076279759407,-0.05477434396743774,-0.0774691104888916,-0.1452930569648743,XArbitraryZVertical,-0.3055042556800477,0.404071260082988,-0.8253577758798144,-0.2493552719072588,-0.7058151960372925,0.5146484971046448,-0.4867871403694153,0,0,0,-1,-1,20885.94037491667,unknown,2,2025-04-21T16:56:11.557+03:00,2025-04-20T21:57:49.637+03:00,6834,0.9873711,0,0,5595.969,5,6,2025-04-21T16:56:27.034+03:00,766936615.5082804,0,-38.69,100.1974,1,0.3,2025-04-21T16:56:03.730+03:00,99,1.65,2025-04-21T12:30:07.995+03:00,0.02023345852159405,0
2025-04-21T16:56:55.836+03:00,1745243813.171704,40.95220373050805,29.14025042908131,76.57294,-1,-1,-1,-1,30,36.49476654306539,-9999,20891.856366,-0.7537994384765625,0.5071563720703125,-0.629425048828125,20891.84629,2.260274634794649,-0.9680114713790359,-0.5455133876583388,-0.6978017091751099,0.150050088763237,0.1397458910942078,-0.06893205642700195,-0.08970373868942261,-0.1616933345794678,XArbitraryZVertical,-0.3036118801108801,0.4068082362344656,-0.824453240483683,-0.2502071118210523,-0.7042002081871033,0.5188570618629456,-0.4846537709236145,0,0,0,-1,-1,20885.94037491667,unknown,2,2025-04-21T16:56:11.557+03:00,2025-04-20T21:57:49.637+03:00,6834,0.9873711,0,0,5595.969,5,6,2025-04-21T16:56:27.034+03:00,766936615.5082804,0,-38.69,100.1974,1,0.3,2025-04-21T16:56:03.730+03:00,99,1.65,2025-04-21T12:30:07.995+03:00,0.02023345852159405,0
2025-04-21T16:56:55.846+03:00,1745243813.171704,40.95220373050805,29.14025042908131,76.57294,-1,-1,-1,-1,30,36.49476654306539,-9999,20891.866443,-0.74749755859375,0.48699951171875,-0.5940399169921875,20891.856366,2.253932348661379,-0.9697041595484298,-0.551196000629632,-0.8281375765800476,0.1628417819738388,0.1809635013341904,-0.05799770355224609,-0.04143732786178589,-0.1594953536987305,XArbitraryZVertical,-0.301654321454328,0.4100143234643905,-0.8233322684888793,-0.2510316620847212,-0.7025766372680664,0.5237064957618713,-0.4817858636379242,0,0,0,-1,-1,20885.94037491667,unknown,2,2025-04-21T16:56:11.557+03:00,2025-04-20T21:57:49.637+03:00,6834,0.9873711,0,0,5595.969,5,6,2025-04-21T16:56:27.034+03:00,766936615.5082804,0,-38.69,100.1974,1,0.3,2025-04-21T16:56:03.730+03:00,99,1.65,2025-04-21T12:30:07.995+03:00,0.02023345852159405,0
2025-04-21T16:56:55.856+03:00,1745243813.171704,40.95220373050805,29.14025042908131,76.57294,-1,-1,-1,-1,30,36.49476654306539,-9999,20891.876519,-0.74346923828125,0.4212799072265625,-0.5868988037109375,20891.866443,2.246049449677009,-0.9720990709695745,-0.5579396222953793,-1.049182415008545,0.1953634917736053,0.1677544862031937,-0.05324852466583252,-0.02196276187896729,-0.1477692127227783,XArbitraryZVertical,-0.2993903054248638,0.4139023366269952,-0.8218967941624442,-0.2520632737166369,-0.7007949948310852,0.529439389705658,-0.478100597858429,0,0,0,-1,-1,20885.94037491667,unknown,2,2025-04-21T16:56:11.557+03:00,2025-04-20T21:57:49.637+03:00,6834,0.9873711,0,0,5595.969,5,6,2025-04-21T16:56:27.034+03:00,766936615.5082804,0,-38.69,100.1974,1,0.3,2025-04-21T16:56:03.730+03:00,99,1.65,2025-04-21T12:30:07.995+03:00,0.02023345852159405,0
2025-04-21T16:56:55.866+03:00,1745243813.171704,40.95220373050805,29.14025042908131,76.57294,-1,-1,-1,-1,30,36.49476654306539,-9999,20891.886595,-0.736541748046875,0.3747100830078125,-0.6307525634765625,20891.876519,2.235768259263076,-0.9760211454236033,-0.5657174447029074,-1.274017810821533,0.1436327397823334,0.1382207274436951,-0.04754751920700073,-0.05549198389053345,-0.1177632212638855,XArbitraryZVertical,-0.2969685650603193,0.4186840446957313,-0.8199160436192022,-0.2534778505866186,-0.699232816696167,0.5360216498374939,-0.4730266928672791,0,0,0,-1,-1,20885.94037491667,unknown,2,2025-04-21T16:56:11.557+03:00,2025-04-20T21:57:49.637+03:00,6834,0.9873711,0,0,5595.969,5,6,2025-04-21T16:56:27.034+03:00,766936615.5082804,0,-38.69,100.1974,1,0.3,2025-04-21T16:56:03.730+03:00,99,1.65,2025-04-21T12:30:07.995+03:00,0.02023345852159405,0
2025-04-21T16:56:55.876+03:00,1745243813.171704,40.95220373050805,29.14025042908131,76.57294,-1,-1,-1,-1,30,36.49476654306539,-9999,20891.896671,-0.7233734130859375,0.4044189453125,-0.7085723876953125,20891.886595,2.222626353645717,-0.9822200896427279,-0.5746854041444246,-1.556637763977051,0.04443050920963287,0.114736445248127,-0.04505401849746704,-0.1308359503746033,-0.1223529577255249,XArbitraryZVertical,-0.2945298712981937,0.4245637548556413,-0.8172201467018151,-0.2552429572529964,-0.6981253027915955,0.5435707569122314,-0.4659955501556396,0,0,0,-1,-1,20885.94037491667,unknown,2,2025-04-21T16:56:11.557+03:00,2025-04-20T21:57:49.637+03:00,6834,0.9873711,0,0,5595.969,5,6,2025-04-21T16:56:27.034+03:00,766936615.5082804,0,-38.69,100.1974,1,0.3,2025-04-21T16:56:03.730+03:00,99,1.65,2025-04-21T12:30:07.995+03:00,0.02023345852159405,0
2025-04-21T16:56:55.886+03:00,1745243813.171704,40.95220373050805,29.14025042908131,76.57294,-1,-1,-1,-1,30,36.49476654306539,-9999,20891.906748,-0.71905517578125,0.4558868408203125,-0.772674560546875,20891.896671,2.206518973456178,-0.9908114518311337,-0.5847419087777503,-1.752114176750183,-0.02239006385207176,0.1052048578858376,-0.03695625066757202,-0.1786933541297913,-0.1839380860328674,XArbitraryZVertical,-0.2920795223258557,0.4315190851857754,-0.8137836692420757,-0.2573651477064747,-0.6974950432777405,0.5519841909408569,-0.4569616615772247,0,0,0,-1,-1,20885.94037491667,unknown,2,2025-04-21T16:56:11.557+03:00,2025-04-20T21:57:49.637+03:00,6834,0.9873711,0,0,5595.969,5,6,2025-04-21T16:56:27.034+03:00,766936615.5082804,0,-38.69,100.1974,1,0.3,2025-04-21T16:56:03.730+03:00,99,1.65,2025-04-21T12:30:07.995+03:00,0.02023345852159405,0
2025-04-21T16:56:55.896+03:00,1745243813.171704,40.95220373050805,29.14025042908131,76.57294,-1,-1,-1,-1,30,36.49476654306539,-9999,20891.916824,-0.70428466796875,0.5293731689453125,-0.793609619140625,20891.906748,2.189799092631591,-1.003228526334859,-0.5967678947962304,-1.91389000415802,-0.6184348464012146,0.4343558549880981,-0.02514326572418213,-0.1509156227111816,-0.2732154130935669,XArbitraryZVertical,-0.2904362318294047,0.4396752548178253,-0.809700178760194,-0.2582981927968691,-0.6974672079086304,0.5619719624519348,-0.4446649253368378,0,0,0,-1,-1,20885.94037491667,unknown,2,2025-04-21T16:56:11.557+03:00,2025-04-20T21:57:49.637+03:00,6834,0.9873711,0,0,5595.969,5,6,2025-04-21T16:56:27.034+03:00,766936615.5082804,0,-38.69,100.1974,1,0.3,2025-04-21T16:56:03.730+03:00,99,1.65,2025-04-21T12:30:07.995+03:00,0.02023345852159405,0
2025-04-21T16:56:55.906+03:00,1745243813.171704,40.95220373050805,29.14025042908131,76.57294,-1,-1,-1,-1,30,36.49476654306539,-9999,20891.9269,-0.7416534423828125,0.5677642822265625,-0.8116455078125,20891.916824,2.172712813797909,-1.01892513956866,-0.6108669999046056,-1.857604503631592,-0.4724074900150299,0.370208203792572,-0.02073311805725098,-0.1106264591217041,-0.3495718240737915,XArbitraryZVertical,-0.2893566697566264,0.4489319290481763,-0.8050985941859617,-0.2579706398224949,-0.6975437998771667,0.573577880859375,-0.4294656813144684,0,0,0,-1,-1,20885.94037491667,unknown,2,2025-04-21T16:56:11.557+03:00,2025-04-20T21:57:49.637+03:00,6834,0.9873711,0,0,5595.969,5,6,2025-04-21T16:56:27.034+03:00,766936615.5082804,0,-38.69,100.1974,1,0.3,2025-04-21T16:56:03.730+03:00,99,1.65,2025-04-21T12:30:07.995+03:00,0.02023345852159405,0
2025-04-21T16:56:55.916+03:00,1745243813.171704,40.95220373050805,29.14025042908131,76.57294,-1,-1,-1,-1,30,36.49476654306539,-9999,20891.936976,-0.7558746337890625,0.6268463134765625,-0.8316192626953125,20891.9269,2.156630019421352,-1.032909267484049,-0.6223638476137463,-1.57231867313385,-0.5449421405792236,0.2915064692497253,-0.006116211414337158,-0.04410868883132935,-0.3758509159088135,XArbitraryZVertical,-0.2883338367187645,0.4568718360213256,-0.8009229762927966,-0.2581744879969418,-0.6977716684341431,0.5829574465751648,-0.4162634611129761,0,0,0,-1,-1,20885.94037491667,unknown,2,2025-04-21T16:56:11.557+03:00,2025-04-20T21:57:49.637+03:00,6834,0.9873711,0,0,5595.969,5,6,2025-04-21T16:56:27.034+03:00,766936615.5082804,0,-38.69,100.1974,1,0.3,2025-04-21T16:56:03.730+03:00,99,1.65,2025-04-21T12:30:07.995+03:00,0.02023345852159405,0
2025-04-21T16:56:55.926+03:00,1745243813.171704,40.95220373050805,29.14025042908131,76.57294,-1,-1,-1,-1,30,36.49476654306539,-9999,20891.947053,-0.662811279296875,0.6917877197265625,-0.787994384765625,20891.936976,2.143919101317284,-1.046860782499854,-0.6329039740824263,-1.242698788642883,-0.7450324296951294,0.456939309835434,-0.05238211154937744,-0.02088648080825806,-0.4156696200370789,XArbitraryZVertical,-0.2882017894877404,0.4639437938023248,-0.7972169327115596,-0.2571790676853985,-0.6981519460678101,0.591488778591156,-0.4033917784690857,0,0,0,-1,-1,20885.94037491667,unknown,2,2025-04-21T16:56:11.557+03:00,2025-04-20T21:57:49.637+03:00,6834,0.9873711,0,0,5595.969,5,6,2025-04-21T16:56:27.034+03:00,766936615.5082804,0,-38.69,100.1974,1,0.3,2025-04-21T16:56:03.730+03:00,99,1.65,2025-04-21T12:30:07.995+03:00,0.02023345852159405,0
2025-04-21T16:56:55.936+03:00,1745243813.171704,40.95220373050805,29.14025042908131,76.57294,-1,-1,-1,-1,30,36.49476654306539,-9999,20891.957129,-0.6587066650390625,0.6415252685546875,-0.738616943359375,20891.947053,2.13428342797276,-1.061037496936952,-0.6426799957758794,-1.072989821434021,-0.9216449856758118,0.4636044204235077,-0.0481981635093689,0.04085463285446167,-0.4361229240894318,XArbitraryZVertical,-0.2889868322327542,0.470297566065087,-0.7938973573626559,-0.2550169521836279,-0.6987194418907166,0.5993428826332092,-0.3906136155128479,0,0,0,-1,-1,20885.94037491667,unknown,2,2025-04-21T16:56:11.557+03:00,2025-04-20T21:57:49.637+03:00,6834,0.9873711,0,0,5595.969,5,6,2025-04-21T16:56:27.034+03:00,766936615.5082804,0,-38.69,100.1974,1,0.3,2025-04-21T16:56:03.730+03:00,99,1.65,2025-04-21T12:30:07.995+03:00,0.02023345852159405,0
2025-04-21T16:56:55.946+03:00,1745243813.171704,40.95220373050805,29.14025042908131,76.57294,-1,-1,-1,-1,30,36.49476654306539,-9999,20891.967205,-0.6811981201171875,0.6306915283203125,-0.6464385986328125,20891.957129,2.125715572124659,-1.076206633998791,-0.6518763248847548,-1.003673195838928,-1.065417408943176,0.485968291759491,0.04326540231704712,0.08327740430831909,-0.4068572223186493,XArbitraryZVertical,-0.2904986531506029,0.4763838971930089,-0.7905878591810377,-0.2522689827945163,-0.6996831893920898,0.6066790223121643,-0.3773378431797028,0,0,0,-1,-1,20885.94037491667,unknown,2,2025-04-21T16:56:11.557+03:00,2025-04-20T21:57:49.637+03:00,6834,0.9873711,0,0,5595.969,5,6,2025-04-21T16:56:27.034+03:00,766936615.5082804,0,-38.69,100.1974,1,0.3,2025-04-21T16:56:03.730+03:00,99,1.65,2025-04-21T12:30:07.995+03:00,0.02023345852159405,0
2025-04-21T16:56:55.956+03:00,1745243813.171704,40.95220373050805,29.14025042908131,76.57294,-1,-1,-1,-1,30,36.49476654306539,-9999,20891.977281,-0.7120208740234375,0.683929443359375,-0.56793212890625,20891.967205,2.117816285360576,-1.092232554607511,-0.6607527517713868,-0.9050156474113464,-1.136279106140137,0.4776309728622437,0.03884506225585938,0.02172547578811646,-0.3642618358135223,XArbitraryZVertical,-0.2925261440990327,0.4823247957084917,-0.7872504605393613,-0.249053788489207,-0.7008323073387146,0.6137113571166992,-0.3635824918746948,0,0,0,-1,-1,20885.94037491667,unknown,2,2025-04-21T16:56:11.557+03:00,2025-04-20T21:57:49.637+03:00,6834,0.9873711,0,0,5595.969,5,6,2025-04-21T16:56:27.034+03:00,766936615.5082804,0,-38.69,100.1974,1,0.3,2025-04-21T16:56:03.730+03:00,99,1.65,2025-04-21T12:30:07.995+03:00,0.02023345852159405,0
2025-04-21T16:56:55.967+03:00,1745243813.171704,40.95220373050805,29.14025042908131,76.57294,-1,-1,-1,-1,30,36.49476654306539,-9999,20891.987358,-0.7492828369140625,0.7645111083984375,-0.5362701416015625,20891.977281,2.110925301999306,-1.107816480863627,-0.6685103444642124,-0.7589199542999268,-1.117504596710205,0.396385133266449,0.01888936758041382,0.01494777202606201,-0.2845602035522461,XArbitraryZVertical,-0.2948651863068463,0.4876622010855435,-0.7841115518197097,-0.2457825865293882,-0.7021321654319763,0.6198176741600037,-0.3504801988601685,0,0,0,-1,-1,20885.94037491667,unknown,2,2025-04-21T16:56:11.557+03:00,2025-04-20T21:57:49.637+03:00,6834,0.9873711,0,0,5595.969,5,6,2025-04-21T16:56:27.034+03:00,766936615.5082804,0,-38.69,100.1974,1,0.3,2025-04-21T16:56:03.730+03:00,99,1.65,2025-04-21T12:30:07.995+03:00,0.02023345852159405,0
2025-04-21T16:56:55.977+03:00,1745243813.171704,40.95220373050805,29.14025042908131,76.57294,-1,-1,-1,-1,30,36.49476654306539,-9999,20891.997434,-0.7513580322265625,0.853790283203125,-0.485443115234375,20891.987358,2.104575546999674,-1.123102587309106,-0.6748669467308573,-0.6646144986152649,-1.137255191802979,0.3053231239318848,-0.01385563611984253,0.0674823522567749,-0.2236206829547882,XArbitraryZVertical,-0.2975506269106835,0.4924088007656522,-0.7810844048282983,-0.2427019497009535,-0.7038414478302002,0.6247934103012085,-0.337994396686554,0,0,0,-1,-1,20885.94037491667,unknown,2,2025-04-21T16:56:11.557+03:00,2025-04-20T21:57:49.637+03:00,6834,0.9873711,0,0,5595.969,5,6,2025-04-21T16:56:27.034+03:00,766936615.5082804,0,-38.69,100.1974,1,0.3,2025-04-21T16:56:03.730+03:00,99,1.65,2025-04-21T12:30:07.995+03:00,0.02023345852159405,0
2025-04-21T16:56:55.987+03:00,1745243813.171704,40.95220373050805,29.14025042908131,76.57294,-1,-1,-1,-1,30,36.49476654306539,-9999,20892.00751,-0.7384185791015625,0.8848876953125,-0.4201202392578125,20891.997434,2.099484455591722,-1.13791393914202,-0.6798070037701924,-0.4646956324577332,-1.167253613471985,0.2459913045167923,-0.04602384567260742,0.1477851271629333,-0.2058551907539368,XArbitraryZVertical,-0.3007074156761734,0.4964453513429353,-0.7782736400707744,-0.2395978784592994,-0.7059597969055176,0.6286429166793823,-0.3262341320514679,0,0,0,-1,-1,20885.94037491667,unknown,2,2025-04-21T16:56:11.557+03:00,2025-04-20T21:57:49.637+03:00,6834,0.9873711,0,0,5595.969,5,6,2025-04-21T16:56:27.034+03:00,766936615.5082804,0,-38.69,100.1974,1,0.3,2025-04-21T16:56:03.730+03:00,99,1.65,2025-04-21T12:30:07.995+03:00,0.02023345852159405,0
2025-04-21T16:56:55.997+03:00,1745243813.171704,40.95220373050805,29.14025042908131,76.57294,-1,-1,-1,-1,30,36.49476654306539,-9999,20892.017586,-0.745574951171875,0.8483428955078125,-0.331817626953125,20892.00751,2.09627370209661,-1.151912542263707,-0.6832935249369273,-0.2760080099105835,-1.20205295085907,0.1815976649522781,-0.04096943140029907,0.230816662311554,-0.1618531048297882,XArbitraryZVertical,-0.3043844751705763,0.4996366243714536,-0.7757931416783452,-0.236343802982996,-0.7084507942199707,0.631350576877594,-0.3154266774654388,0,0,0,-1,-1,20885.94037491667,unknown,2,2025-04-21T16:56:11.557+03:00,2025-04-20T21:57:49.637+03:00,6834,0.9873711,0,0,5595.969,5,6,2025-04-21T16:56:27.034+03:00,766936615.5082804,0,-38.69,100.1974,1,0.3,2025-04-21T16:56:03.730+03:00,99,1.65,2025-04-21T12:30:07.995+03:00,0.02023345852159405,0
2025-04-21T16:56:56.007+03:00,1745243813.171704,40.95220373050805,29.14025042908131,76.57294,-1,-1,-1,-1,30,36.49476654306539,-9999,20892.027663,-0.7598724365234375,0.7850494384765625,-0.23773193359375,20892.017586,2.09462381063941,-1.164763332441505,-0.6857078176627507,-0.1569342762231827,-1.135377883911133,0.1609549969434738,-0.02630722522735596,0.2502322793006897,-0.104950875043869,XArbitraryZVertical,-0.3082816800886946,0.5021110523122764,-0.7736483909089069,-0.2330560396136955,-0.7110432982444763,0.6332210302352905,-0.3056938052177429,0,0,0,-1,-1,20885.94037491667,unknown,2,2025-04-21T16:56:11.557+03:00,2025-04-20T21:57:49.637+03:00,6834,0.9873711,0,0,5595.969,5,6,2025-04-21T16:56:27.034+03:00,766936615.5082804,0,-38.69,100.1974,1,0.3,2025-04-21T16:56:03.730+03:00,99,1.65,2025-04-21T12:30:07.995+03:00,0.02023345852159405,0
2025-04-21T16:56:56.017+03:00,1745243813.171704,40.95220373050805,29.14025042908131,76.57294,-1,-1,-1,-1,30,36.49476654306539,-9999,20892.037739,-0.76202392578125,0.7406463623046875,-0.1495819091796875,20892.027663,2.093867043926859,-1.176193956455259,-0.6878048375743463,-0.1231358200311661,-1.033631801605225,0.1759392768144608,-0.03420346975326538,0.2062063813209534,-0.0222092866897583,XArbitraryZVertical,-0.3119272810803507,0.5041664236122448,-0.7718063556100698,-0.2298533490007192,-0.7132635712623596,0.6348426342010498,-0.2970351874828339,0,0,0,-1,-1,20885.94037491667,unknown,2,2025-04-21T16:56:11.557+03:00,2025-04-20T21:57:49.637+03:00,6834,0.9873711,0,0,5595.969,5,6,2025-04-21T16:56:27.034+03:00,766936615.5082804,0,-38.69,100.1974,1,0.3,2025-04-21T16:56:03.730+03:00,99,1.65,2025-04-21T12:30:07.995+03:00,0.02023345852159405,0
2025-04-21T16:56:56.027+03:00,1745243813.171704,40.95220373050805,29.14025042908131,76.57294,-1,-1,-1,-1,30,36.49476654306539,-9999,20892.047815,-0.7529754638671875,0.722686767578125,-0.0486907958984375,20892.037739,2.093400079959772,-1.186240329096387,-0.689794243746681,-0.07699888944625854,-0.903958261013031,0.1554884910583496,-0.04576379060745239,0.1409803628921509,0.06261920928955078,XArbitraryZVertical,-0.3151312716044158,0.5059665923902757,-0.7701973923100149,-0.2269051549903272,-0.7150394320487976,0.6363784670829773,-0.2893801927566528,0,0,0,-1,-1,20885.94037491667,unknown,2,2025-04-21T16:56:11.557+03:00,2025-04-20T21:57:49.637+03:00,6834,0.9873711,0,0,5595.969,5,6,2025-04-21T16:56:27.034+03:00,766936615.5082804,0,-38.69,100.1974,1,0.3,2025-04-21T16:56:03.730+03:00,99,1.65,2025-04-21T12:30:07.995+03:00,0.02023345852159405,0
2025-04-21T16:56:56.037+03:00,1745243813.171704,40.95220373050805,29.14025042908131,76.57294,-1,-1,-1,-1,30,36.49476654306539,-9999,20892.057891,-0.7393646240234375,0.711761474609375,0.011688232421875,20892.047815,2.093873611001429,-1.194624468409629,-0.6909966732063731,0.05215643346309662,-0.8206676244735718,0.09130365401506424,-0.04532623291015625,0.1002582907676697,0.1460544764995575,XArbitraryZVertical,-0.318144181623702,0.5071857713723705,-0.7689362464411854,-0.2242403108989471,-0.716728150844574,0.6373055577278137,-0.2830937504768372,0,0,0,-1,-1,20885.94037491667,unknown,2,2025-04-21T16:56:11.557+03:00,2025-04-20T21:57:49.637+03:00,6834,0.9873711,0,0,5595.969,5,6,2025-04-21T16:56:27.034+03:00,766936615.5082804,0,-38.69,100.1974,1,0.3,2025-04-21T16:56:03.730+03:00,99,1.65,2025-04-21T12:30:07.995+03:00,0.02023345852159405,0
2025-04-21T16:56:56.047+03:00,1745243813.171704,40.95220373050805,29.14025042908131,76.57294,-1,-1,-1,-1,30,36.49476654306539,-9999,20892.067968,-0.7257232666015625,0.7134857177734375,0.0489501953125,20892.057891,2.095635637485517,-1.201130759782819,-0.6910994760363537,0.1909258365631104,-0.6857536435127258,0.03283704817295074,-0.03228431940078735,0.08324187994003296,0.2398265600204468,XArbitraryZVertical,-0.3210628130902493,0.5076595452402826,-0.7680942774503617,-0.2218818460915953,-0.7184938788414001,0.6373847723007202,-0.2784008979797363,0,0,0,-1,-1,20885.94037491667,unknown,2,2025-04-21T16:56:11.557+03:00,2025-04-20T21:57:49.637+03:00,6834,0.9873711,0,0,5595.969,5,6,2025-04-21T16:56:27.034+03:00,766936615.5082804,0,-38.69,100.1974,1,0.3,2025-04-21T16:56:03.730+03:00,99,1.65,2025-04-21T12:30:07.995+03:00,0.02023345852159405,0
2025-04-21T16:56:56.057+03:00,1745243813.171704,40.95220373050805,29.14025042908131,76.57294,-1,-1,-1,-1,30,36.49476654306539,-9999,20892.07804575,-0.706695556640625,0.710662841796875,0.037384033203125,20892.067968,2.098911200548044,-1.205330440576269,-0.6902718545601634,0.3357762396335602,-0.5708134770393372,-0.003243189305067062,-0.01753693819046021,0.07475507259368896,0.2934679388999939,XArbitraryZVertical,-0.3237353351972924,0.5073565752235035,-0.7677692019678081,-0.2198071461897187,-0.7201492190361023,0.6367468237876892,-0.2755694687366486,0,0,0,-1,-1,20885.94037491667,unknown,2,2025-04-21T16:56:11.557+03:00,2025-04-20T21:57:49.637+03:00,6834,0.9873711,0,0,5595.969,5,6,2025-04-21T16:56:27.034+03:00,766936615.5082804,0,-38.69,100.1974,1,0.3,2025-04-21T16:56:03.730+03:00,99,1.65,2025-04-21T12:30:07.995+03:00,0.02023345852159405,0
2025-04-21T16:56:56.067+03:00,1745243813.171704,40.95220373050805,29.14025042908131,76.57294,-1,-1,-1,-1,30,36.49476654306539,-9999,20892.08812175,-0.68902587890625,0.6897735595703125,0.021026611328125,20892.07804575,2.103669160721954,-1.207630467734183,-0.6887974175725871,0.4481203556060791,-0.4893303513526917,-0.01030828896909952,-0.002386868000030518,0.07853245735168457,0.3247367739677429,XArbitraryZVertical,-0.3262308760357051,0.5064095411256091,-0.7678984396065978,-0.2178410568190305,-0.721657931804657,0.6356092095375061,-0.2742455899715424,0,0,0,-1,-1,20885.94037491667,unknown,2,2025-04-21T16:56:11.557+03:00,2025-04-20T21:57:49.637+03:00,6834,0.9873711,0,0,5595.969,5,6,2025-04-21T16:56:27.034+03:00,766936615.5082804,0,-38.69,100.1974,1,0.3,2025-04-21T16:56:03.730+03:00,99,1.65,2025-04-21T12:30:07.995+03:00,0.02023345852159405,0
2025-04-21T16:56:56.077+03:00,1745243813.171704,40.95220373050805,29.14025042908131,76.57294,-1,-1,-1,-1,30,36.49476654306539,-9999,20892.09819775,-0.6758270263671875,0.64776611328125,0.0177001953125,20892.08812175,2.109631242673195,-1.208454770258066,-0.6869889996495507,0.5235911011695862,-0.4252557754516602,-0.0002633781405165792,0.01855063438415527,0.074726402759552,0.3082371652126312,XArbitraryZVertical,-0.3285520712089725,0.504999723993784,-0.7683889335919012,-0.2158871195000684,-0.72295743227005,0.6342120766639709,-0.2740576267242432,0,0,0,-1,-1,20885.94037491667,unknown,2,2025-04-21T16:56:11.557+03:00,2025-04-20T21:57:49.637+03:00,6834,0.9873711,0,0,5595.969,5,6,2025-04-21T16:56:27.034+03:00,766936615.5082804,0,-38.69,100.1974,1,0.3,2025-04-21T16:56:03.730+03:00,99,1.65,2025-04-21T12:30:07.995+03:00,0.02023345852159405,0
2025-04-21T16:56:56.088+03:00,1745243813.171704,40.95220373050805,29.14025042908131,76.57294,-1,-1,-1,-1,30,36.49476654306539,-9999,20892.10827475,-0.6605377197265625,0.59814453125,0.0213623046875,20892.09819775,2.116157128679291,-1.208222052741833,-0.6851493923136812,0.5348143577575684,-0.3566435277462006,0.01408153958618641,0.03709357976913452,0.05228495597839355,0.2949332892894745,XArbitraryZVertical,-0.3306115006015555,0.5033651246267106,-0.7691081420941307,-0.2139909450014038,-0.7239831686019897,0.6327887177467346,-0.2746391594409943,0,0,0,-1,-1,20885.94037491667,unknown,2,2025-04-21T16:56:11.557+03:00,2025-04-20T21:57:49.637+03:00,6834,0.9873711,0,0,5595.969,5,6,2025-04-21T16:56:27.034+03:00,766936615.5082804,0,-38.69,100.1974,1,0.3,2025-04-21T16:56:03.730+03:00,99,1.65,2025-04-21T12:30:07.995+03:00,0.02023345852159405,0
2025-04-21T16:56:56.098+03:00,1745243813.171704,40.95220373050805,29.14025042908131,76.57294,-1,-1,-1,-1,30,36.49476654306539,-9999,20892.11835075,-0.6318359375,0.5446929931640625,0.0449676513671875,20892.10827475,2.122164677088914,-1.20778302256797,-0.6835375895273659,0.4163143634796143,-0.3174340724945068,0.01180746592581272,0.04979676008224487,0.01062613725662231,0.2927747368812561,XArbitraryZVertical,-0.3323919379612513,0.5018527493323368,-0.7698043139786807,-0.2122750131027921,-0.7248150706291199,0.6315398216247559,-0.275318831205368,0,0,0,-1,-1,20885.94037491667,unknown,2,2025-04-21T16:56:11.557+03:00,2025-04-20T21:57:49.637+03:00,6834,0.9873711,0,0,5595.969,5,6,2025-04-21T16:56:27.034+03:00,766936615.5082804,0,-38.69,100.1974,1,0.3,2025-04-21T16:56:03.730+03:00,99,1.65,2025-04-21T12:30:07.995+03:00,0.02023345852159405,0
2025-04-21T16:56:56.108+03:00,1745243813.171704,40.95220373050805,29.14025042908131,76.57294,-1,-1,-1,-1,30,36.49476654306539,-9999,20892.12842675,-0.6024932861328125,0.500152587890625,0.0875244140625,20892.11835075,2.125776221080547,-1.208651340167063,-0.6825958628947149,0.167005330324173,-0.3119321465492249,0.0175599604845047,0.06829166412353516,-0.03936362266540527,0.2976049184799194,XArbitraryZVertical,-0.3338878275307778,0.5010678015399818,-0.7700324019009325,-0.2109503529265859,-0.7256097793579102,0.6308093667030334,-0.274899959564209,0,0,0,-1,-1,20885.94037491667,unknown,2,2025-04-21T16:56:11.557+03:00,2025-04-20T21:57:49.637+03:00,6834,0.9873711,0,0,5595.969,5,6,2025-04-21T16:56:27.034+03:00,766936615.5082804,0,-38.69,100.1974,1,0.3,2025-04-21T16:56:03.730+03:00,99,1.65,2025-04-21T12:30:07.995+03:00,0.02023345852159405,0
2025-04-21T16:56:56.118+03:00,1745243813.171704,40.95220373050805,29.14025042908131,76.57294,-1,-1,-1,-1,30,36.49476654306539,-9999,20892.13850375,-0.5900421142578125,0.4690704345703125,0.0934906005859375,20892.12842675,2.126536127078748,-1.211348123136488,-0.6827351806983379,-0.05933833494782448,-0.3142714500427246,0.04713862761855125,0.09882479906082153,-0.09205347299575806,0.323005735874176,XArbitraryZVertical,-0.335078453225089,0.5012652095628006,-0.7696627543789369,-0.2099401665284197,-0.7262662053108215,0.630917489528656,-0.2729112505912781,0,0,0,-1,-1,20885.94037491667,unknown,2,2025-04-21T16:56:11.557+03:00,2025-04-20T21:57:49.637+03:00,6834,0.9873711,0,0,5595.969,5,6,2025-04-21T16:56:27.034+03:00,766936615.5082804,0,-38.69,100.1974,1,0.3,2025-04-21T16:56:03.730+03:00,99,1.65,2025-04-21T12:30:07.995+03:00,0.02023345852159405,0
2025-04-21T16:56:56.128+03:00,1745243813.171704,40.95220373050805,29.14025042908131,76.57294,-1,-1,-1,-1,30,36.49476654306539,-9999,20892.14857975,-0.6021575927734375,0.476104736328125,0.0732269287109375,20892.13850375,2.125131160112006,-1.21523999326252,-0.683766932913661,-0.1936860233545303,-0.2861588597297668,0.06761087477207184,0.127346932888031,-0.1356850266456604,0.3611491024494171,XArbitraryZVertical,-0.3359426299247459,0.5022097144737911,-0.7688733623107884,-0.209193044942692,-0.7267122268676758,0.6317176222801208,-0.2698559165000916,0,0,0,-1,-1,20885.94037491667,unknown,2,2025-04-21T16:56:11.557+03:00,2025-04-20T21:57:49.637+03:00,6834,0.9873711,0,0,5595.969,5,6,2025-04-21T16:56:27.034+03:00,766936615.5082804,0,-38.69,100.1974,1,0.3,2025-04-21T16:56:03.730+03:00,99,1.65,2025-04-21T12:30:07.995+03:00,0.02023345852159405,0
2025-04-21T16:56:56.138+03:00,1745243813.171704,40.95220373050805,29.14025042908131,76.57294,-1,-1,-1,-1,30,36.49476654306539,-9999,20892.15865575,-0.6186065673828125,0.505523681640625,0.0633697509765625,20892.14857975,2.122870663012328,-1.219243786328383,-0.6851233472313383,-0.2181681990623474,-0.2026921957731247,0.06350880861282349,0.1367716193199158,-0.1650716066360474,0.3585981428623199,XArbitraryZVertical,-0.3365437415332666,0.5034023520847517,-0.7679788718417605,-0.208644812535619,-0.726981520652771,0.6327685117721558,-0.2666487693786621,0,0,0,-1,-1,20885.94037491667,unknown,2,2025-04-21T16:56:11.557+03:00,2025-04-20T21:57:49.637+03:00,6834,0.9873711,0,0,5595.969,5,6,2025-04-21T16:56:27.034+03:00,766936615.5082804,0,-38.69,100.1974,1,0.3,2025-04-21T16:56:03.730+03:00,99,1.65,2025-04-21T12:30:07.995+03:00,0.02023345852159405,0
2025-04-21T16:56:56.148+03:00,1745243813.171704,40.95220373050805,29.14025042908131,76.57294,-1,-1,-1,-1,30,36.49476654306539,-9999,20892.16873175,-0.6126861572265625,0.53759765625,0.049591064453125,20892.15865575,2.120467145457757,-1.222062852752854,-0.6865219639814919,-0.22281613945961,-0.0673002153635025,0.06937351822853088,0.1220701336860657,-0.1544046998023987,0.3339671492576599,XArbitraryZVertical,-0.3366390100471872,0.5045060447047937,-0.7672699547923701,-0.2084335739975505,-0.7268980145454407,0.6338509321212769,-0.2642956674098969,0,0,0,-1,-1,20885.94037491667,unknown,2,2025-04-21T16:56:11.557+03:00,2025-04-20T21:57:49.637+03:00,6834,0.9873711,0,0,5595.969,5,6,2025-04-21T16:56:27.034+03:00,766936615.5082804,0,-38.69,100.1974,1,0.3,2025-04-21T16:56:03.730+03:00,99,1.65,2025-04-21T12:30:07.995+03:00,0.02023345852159405,0
2025-04-21T16:56:56.169+03:00,1745243813.171704,40.95220373050805,29.14025042908131,76.57294,-1,-1,-1,-1,30,36.49476654306539,-9999,20892.17880875,-0.59051513671875,0.5567169189453125,-0.013214111328125,20892.16873175,2.118184432175681,-1.223841241637999,-0.6879200209797782,-0.1914968341588974,-0.0005518104881048203,0.06562299281358719,0.1067665815353394,-0.1247084736824036,0.3261926472187042,XArbitraryZVertical,-0.3363631445757753,0.5054793466212373,-0.7667494626699396,-0.2084360402845859,-0.7265327572822571,0.6349316239356995,-0.2627009153366089,0,0,0,-1,-1,20885.94037491667,unknown,2,2025-04-21T16:56:11.557+03:00,2025-04-20T21:57:49.637+03:00,6834,0.9873711,0,0,5595.969,5,6,2025-04-21T16:56:27.034+03:00,766936615.5082804,0,-38.69,100.1974,1,0.3,2025-04-21T16:56:03.730+03:00,99,1.65,2025-04-21T12:30:07.995+03:00,0.02023345852159405,0
2025-04-21T16:56:56.172+03:00,1745243813.171704,40.95220373050805,29.14025042908131,76.57294,-1,-1,-1,-1,30,36.49476654306539,-9999,20892.18888475,-0.5721435546875,0.5727386474609375,-0.08343505859375,20892.17880875,2.116312565405828,-1.224911847791011,-0.6889065252110873,-0.1392913609743118,0.01561657339334488,0.01937017776072025,0.1157045960426331,-0.09399133920669556,0.3060219287872314,XArbitraryZVertical,-0.336030431687576,0.5061899862635978,-0.7663864058461615,-0.2085834667187535,-0.7262240052223206,0.6356934905052185,-0.2617104947566986,0,0,0,-1,-1,20885.94037491667,unknown,2,2025-04-21T16:56:11.557+03:00,2025-04-20T21:57:49.637+03:00,6834,0.9873711,0,0,5595.969,5,6,2025-04-21T16:56:27.034+03:00,766936615.5082804,0,-38.69,100.1974,1,0.3,2025-04-21T16:56:03.730+03:00,99,1.65,2025-04-21T12:30:07.995+03:00,0.02023345852159405,0
2025-04-21T16:56:56.178+03:00,1745243813.171704,40.95220373050805,29.14025042908131,76.57294,-1,-1,-1,-1,30,36.49476654306539,-9999,20892.19896075,-0.5687103271484375,0.6158447265625,-0.128753662109375,20892.18888475,2.115665810117762,-1.225282695991216,-0.6892630943097651,0.03961048275232315,0.002281060442328453,0.02187887579202652,0.1388427019119263,-0.07789385318756104,0.2385523617267609,XArbitraryZVertical,-0.3359112486944558,0.50643996620568,-0.7662610752258791,-0.2086292030439513,-0.7261077761650085,0.6359686851501465,-0.2613644003868103,0,0,0,-1,-1,20885.94037491667,unknown,2,2025-04-21T16:56:11.557+03:00,2025-04-20T21:57:49.637+03:00,6834,0.9873711,0,0,5595.969,5,6,2025-04-21T16:56:27.034+03:00,766936615.5082804,0,-38.69,100.1974,1,0.3,2025-04-21T16:56:03.730+03:00,99,1.65,2025-04-21T12:30:07.995+03:00,0.02023345852159405,0
2025-04-21T16:56:56.188+03:00,1745243813.171704,40.95220373050805,29.14025042908131,76.57294,-1,-1,-1,-1,30,36.49476654306539,-9999,20892.20903675,-0.5680999755859375,0.6797027587890625,-0.132781982421875,20892.19896075,2.117590138218119,-1.223858537317699,-0.6890579292745527,0.2426319122314453,0.02894902229309082,0.03245395421981812,0.1542326807975769,-0.0596691370010376,0.1718357801437378,XArbitraryZVertical,-0.3359086073710595,0.5059092150419302,-0.7666983195190755,-0.2083143381244433,-0.7258574366569519,0.6358103156089783,-0.26244255900383,0,0,0,-1,-1,20885.94037491667,unknown,2,2025-04-21T16:56:11.557+03:00,2025-04-20T21:57:49.637+03:00,6834,0.9873711,0,0,5595.969,5,6,2025-04-21T16:56:27.034+03:00,766936615.5082804,0,-38.69,100.1974,1,0.3,2025-04-21T16:56:03.730+03:00,99,1.65,2025-04-21T12:30:07.995+03:00,0.02023345852159405,0
2025-04-21T16:56:56.198+03:00,1745243813.171704,40.95220373050805,29.14025042908131,76.57294,-1,-1,-1,-1,30,36.49476654306539,-9999,20892.21911375,-0.561004638671875,0.6778411865234375,-0.1146392822265625,20892.20903675,2.121485628404931,-1.221124514467354,-0.688173728022994,0.3600195348262787,0.02524749562144279,0.002882747212424874,0.1569547653198242,-0.0115010142326355,0.1327062547206879,XArbitraryZVertical,-0.3360855008912317,0.5047150046622791,-0.7675526899625029,-0.2077791248155587,-0.7256651520729065,0.6351276040077209,-0.2646186053752899,0,0,0,-1,-1,20885.94037491667,unknown,2,2025-04-21T16:56:11.557+03:00,2025-04-20T21:57:49.637+03:00,6834,0.9873711,0,0,5595.969,5,6,2025-04-21T16:56:27.034+03:00,766936615.5082804,0,-38.69,100.1974,1,0.3,2025-04-21T16:56:03.730+03:00,99,1.65,2025-04-21T12:30:07.995+03:00,0.02023345852159405,0
2025-04-21T16:56:56.208+03:00,1745243813.171704,40.95220373050805,29.14025042908131,76.57294,-1,-1,-1,-1,30,36.49476654306539,-9999,20892.22918975,-0.54022216796875,0.59246826171875,-0.07489013671875,20892.21911375,2.125337346329246,-1.218336045934821,-0.6870250487729603,0.2434782683849335,0.04478710889816284,-0.01099138986319304,0.1580579876899719,0.05016237497329712,0.1362621188163757,XArbitraryZVertical,-0.3362984031322383,0.5034451504548149,-0.7684087729552997,-0.2073506590834675,-0.7256086468696594,0.6342399716377258,-0.2668927311897278,0,0,0,-1,-1,20885.94037491667,unknown,2,2025-04-21T16:56:11.557+03:00,2025-04-20T21:57:49.637+03:00,6834,0.9873711,0,0,5595.969,5,6,2025-04-21T16:56:27.034+03:00,766936615.5082804,0,-38.69,100.1974,1,0.3,2025-04-21T16:56:03.730+03:00,99,1.65,2025-04-21T12:30:07.995+03:00,0.02023345852159405,0
2025-04-21T16:56:56.218+03:00,1745243813.171704,40.95220373050805,29.14025042908131,76.57294,-1,-1,-1,-1,30,36.49476654306539,-9999,20892.23926575,-0.51922607421875,0.536651611328125,-0.015625,20892.22918975,2.126677491716451,-1.217140134131736,-0.6862905795109608,0.0123262656852603,0.01412027608603239,-0.05686487257480621,0.1665827035903931,0.03634130954742432,0.1563034057617188,XArbitraryZVertical,-0.3363756966946469,0.5028823026090411,-0.7687412706355951,-0.2073586591436417,-0.7257257699966431,0.6336719393730164,-0.2679215669631958,0,0,0,-1,-1,20885.94037491667,unknown,2,2025-04-21T16:56:11.557+03:00,2025-04-20T21:57:49.637+03:00,6834,0.9873711,0,0,5595.969,5,6,2025-04-21T16:56:27.034+03:00,766936615.5082804,0,-38.69,100.1974,1,0.3,2025-04-21T16:56:03.730+03:00,99,1.65,2025-04-21T12:30:07.995+03:00,0.02023345852159405,0
2025-04-21T16:56:56.228+03:00,1745243813.171704,40.95220373050805,29.14025042908131,76.57294,-1,-1,-1,-1,30,36.49476654306539,-9999,20892.24934175,-0.511260986328125,0.55877685546875,0.0016937255859375,20892.23926575,2.125583472428297,-1.218127106617817,-0.6857489693920233,-0.1200183928012848,-0.07388967275619507,-0.1016966253519058,0.1895228624343872,-0.05113017559051514,0.1997881233692169,XArbitraryZVertical,-0.3366270845284268,0.5030112967174691,-0.7684560963189494,-0.2076947328541874,-0.7263118624687195,0.6332528591156006,-0.2673236727714539,0,0,0,-1,-1,20885.94037491667,unknown,2,2025-04-21T16:56:11.557+03:00,2025-04-20T21:57:49.637+03:00,6834,0.9873711,0,0,5595.969,5,6,2025-04-21T16:56:27.034+03:00,766936615.5082804,0,-38.69,100.1974,1,0.3,2025-04-21T16:56:03.730+03:00,99,1.65,2025-04-21T12:30:07.995+03:00,0.02023345852159405,0
2025-04-21T16:56:56.238+03:00,1745243813.171704,40.95220373050805,29.14025042908131,76.57294,-1,-1,-1,-1,30,36.49476654306539,-9999,20892.25941875,-0.513824462890625,0.65179443359375,0.0060577392578125,20892.24934175,2.123564417362594,-1.22024247402769,-0.6850910264678229,-0.1071840897202492,-0.09099462628364563,-0.1260163486003876,0.209658145904541,-0.09792309999465942,0.2553094029426575,XArbitraryZVertical,-0.3371105770544306,0.5033802021321676,-0.7678826506259385,-0.2081369672115437,-0.727266788482666,0.6327434778213501,-0.2659296691417694,0,0,0,-1,-1,20885.94037491667,unknown,2,2025-04-21T16:56:11.557+03:00,2025-04-20T21:57:49.637+03:00,6834,0.9873711,0,0,5595.969,5,6,2025-04-21T16:56:27.034+03:00,766936615.5082804,0,-38.69,100.1974,1,0.3,2025-04-21T16:56:03.730+03:00,99,1.65,2025-04-21T12:30:07.995+03:00,0.02023345852159405,0
2025-04-21T16:56:56.249+03:00,1745243813.171704,40.95220373050805,29.14025042908131,76.57294,-1,-1,-1,-1,30,36.49476654306539,-9999,20892.26949475,-0.515777587890625,0.7310943603515625,0.03277587890625,20892.25941875,2.122308882680283,-1.222263924891713,-0.6838317085032964,0.02997157350182533,-0.1538266390562057,-0.1781911551952362,0.2166951298713684,-0.06362223625183105,0.2666686177253723,XArbitraryZVertical,-0.3379131587494058,0.5034374297729225,-0.7673960598033764,-0.2084913882706915,-0.7285512089729309,0.6317678093910217,-0.2647309005260468,0,0,0,-1,-1,20885.94037491667,unknown,2,2025-04-21T16:56:11.557+03:00,2025-04-20T21:57:49.637+03:00,6834,0.9873711,0,0,5595.969,5,6,2025-04-21T16:56:27.034+03:00,766936615.5082804,0,-38.69,100.1974,1,0.3,2025-04-21T16:56:03.730+03:00,99,1.65,2025-04-21T12:30:07.995+03:00,0.02023345852159405,0
2025-04-21T16:56:56.259+03:00,1745243813.171704,40.95220373050805,29.14025042908131,76.57294,-1,-1,-1,-1,30,36.49476654306539,-9999,20892.27957075,-0.5098419189453125,0.7519073486328125,0.12109375,20892.26949475,2.123312581548756,-1.223392409437559,-0.6811872189320201,0.3151364624500275,-0.1926811039447784,-0.2634283006191254,0.2161356210708618,0.03451448678970337,0.2719379365444183,XArbitraryZVertical,-0.3393178296825475,0.5026183114247949,-0.7672772702803057,-0.2086237000605892,-0.7304179072380066,0.6297157406806946,-0.264476478099823,0,0,0,-1,-1,20885.94037491667,unknown,2,2025-04-21T16:56:11.557+03:00,2025-04-20T21:57:49.637+03:00,6834,0.9873711,0,0,5595.969,5,6,2025-04-21T16:56:27.034+03:00,766936615.5082804,0,-38.69,100.1974,1,0.3,2025-04-21T16:56:03.730+03:00,99,1.65,2025-04-21T12:30:07.995+03:00,0.02023345852159405,0
2025-04-21T16:56:56.269+03:00,1745243813.171704,40.95220373050805,29.14025042908131,76.57294,-1,-1,-1,-1,30,36.49476654306539,-9999,20892.28964775,-0.4970550537109375,0.7555389404296875,0.2805633544921875,20892.27957075,2.128518807852143,-1.222439279627318,-0.676547252710298,0.7821937203407288,-0.2741236984729767,-0.324997216463089,0.2178587913513184,0.1105744242668152,0.3069232106208801,XArbitraryZVertical,-0.3415159022448677,0.5002832759869396,-0.7679240607901738,-0.2082693800710641,-0.7329039573669434,0.6261045336723328,-0.2661670744419098,0,0,0,-1,-1,20885.94037491667,unknown,2,2025-04-21T16:56:11.557+03:00,2025-04-20T21:57:49.637+03:00,6834,0.9873711,0,0,5595.969,5,6,2025-04-21T16:56:27.034+03:00,766936615.5082804,0,-38.69,100.1974,1,0.3,2025-04-21T16:56:03.730+03:00,99,1.65,2025-04-21T12:30:07.995+03:00,0.02023345852159405,0
2025-04-21T16:56:56.279+03:00,1745243813.171704,40.95220373050805,29.14025042908131,76.57294,-1,-1,-1,-1,30,36.49476654306539,-9999,20892.29972375,-0.47412109375,0.81829833984375,0.5757293701171875,20892.28964775,2.1409223404211,-1.21774194537644,-0.6692698724210169,1.557161927223206,-0.3136873543262482,-0.3667883574962616,0.2269903421401978,0.1309443116188049,0.4080158174037933,XArbitraryZVertical,-0.3447588789037024,0.4955338373795004,-0.7699303615492957,-0.206868582830995,-0.735901415348053,0.6204135417938232,-0.2711750566959381,0,0,0,-1,-1,20885.94037491667,unknown,2,2025-04-21T16:56:11.557+03:00,2025-04-20T21:57:49.637+03:00,6834,0.9873711,0,0,5595.969,5,6,2025-04-21T16:56:27.034+03:00,766936615.5082804,0,-38.69,100.1974,1,0.3,2025-04-21T16:56:03.730+03:00,99,1.65,2025-04-21T12:30:07.995+03:00,0.02023345852159405,0
2025-04-21T16:56:56.289+03:00,1745243813.171704,40.95220373050805,29.14025042908131,76.57294,-1,-1,-1,-1,30,36.49476654306539,-9999,20892.30979975,-0.460052490234375,0.936767578125,1.000411987304688,20892.29972375,2.16239177702861,-1.20660161383104,-0.658723384723452,2.268204212188721,-0.04692909494042397,-0.418331652879715,0.2445690631866455,0.1469404697418213,0.5908448100090027,XArbitraryZVertical,-0.3485432960463279,0.4875263016970612,-0.7739634416184803,-0.2044899928002244,-0.738908052444458,0.6121078133583069,-0.2816713452339172,0,0,0,-1,-1,20885.94037491667,unknown,2,2025-04-21T16:56:11.557+03:00,2025-04-20T21:57:49.637+03:00,6834,0.9873711,0,0,5595.969,5,6,2025-04-21T16:56:27.034+03:00,766936615.5082804,0,-38.69,100.1974,1,0.3,2025-04-21T16:56:03.730+03:00,99,1.65,2025-04-21T12:30:07.995+03:00,0.02023345852159405,0
2025-04-21T16:56:56.299+03:00,1745243813.171704,40.95220373050805,29.14025042908131,76.57294,-1,-1,-1,-1,30,36.49476654306539,-9999,20892.31987575,-0.475006103515625,0.953155517578125,1.507415771484375,20892.30979975,2.186335720987481,-1.190292002665204,-0.6453617561463995,2.029336452484131,0.5183417797088623,-0.7092386484146118,0.2704153656959534,0.2299638390541077,0.9198799133300781,XArbitraryZVertical,-0.3514864128662027,0.477607953150371,-0.7791625015435062,-0.2031101792552671,-0.7417441606521606,0.6014874577522278,-0.29669588804245,0,0,0,-1,-1,20885.94037491667,unknown,2,2025-04-21T16:56:11.557+03:00,2025-04-20T21:57:49.637+03:00,6834,0.9873711,0,0,5595.969,5,6,2025-04-21T16:56:27.034+03:00,766936615.5082804,0,-38.69,100.1974,1,0.3,2025-04-21T16:56:03.730+03:00,99,1.65,2025-04-21T12:30:07.995+03:00,0.02023345852159405,0
2025-04-21T16:56:56.309+03:00,1745243813.171704,40.95220373050805,29.14025042908131,76.57294,-1,-1,-1,-1,30,36.49476654306539,-9999,20892.32995275,-0.4485015869140625,0.652252197265625,2.102279663085938,20892.31987575,2.197993229661338,-1.171074965733696,-0.6313469057694084,0.6519420742988586,1.994090914726257,-1.156220316886902,0.2826458215713501,0.3587419390678406,1.372661590576172,XArbitraryZVertical,-0.3503528226735011,0.4692342401462036,-0.7836621772014791,-0.2072335128724866,-0.7435986399650574,0.5902325510978699,-0.3141442537307739,0,0,0,-1,-1,20885.94037491667,unknown,2,2025-04-21T16:56:11.557+03:00,2025-04-20T21:57:49.637+03:00,6834,0.9873711,0,0,5595.969,5,6,2025-04-21T16:56:27.034+03:00,766936615.5082804,0,-38.69,100.1974,1,0.3,2025-04-21T16:56:03.730+03:00,99,1.65,2025-04-21T12:30:07.995+03:00,0.02023345852159405,0
2025-04-21T16:56:56.319+03:00,1745243813.171704,40.95220373050805,29.14025042908131,76.57294,-1,-1,-1,-1,30,36.49476654306539,-9999,20892.34002875,-0.313812255859375,-0.001312255859375,2.59912109375,20892.32995275,2.189343042371688,-1.146708800981936,-0.620480300280708,-1.098341941833496,3.786132097244263,-1.356630086898804,0.2645975351333618,0.3551278114318848,1.915643692016602,XArbitraryZVertical,-0.3415549642309162,0.4647004431146686,-0.7869076750196673,-0.2194766680189938,-0.7415262460708618,0.5814260244369507,-0.3347873985767365,0,0,0,-1,-1,20885.94037491667,unknown,2,2025-04-21T16:56:11.557+03:00,2025-04-20T21:57:49.637+03:00,6834,0.9873711,0,0,5595.969,5,6,2025-04-21T16:56:27.034+03:00,766936615.5082804,0,-38.69,100.1974,1,0.3,2025-04-21T16:56:03.730+03:00,99,1.65,2025-04-21T12:30:07.995+03:00,0.02023345852159405,0
2025-04-21T16:56:56.329+03:00,1745243813.171704,40.95220373050805,29.14025042908131,76.57294,-1,-1,-1,-1,30,36.49476654306539,-9999,20892.35010475,-0.145782470703125,-0.5211029052734375,2.985977172851562,20892.34002875,2.160546823237291,-1.117002030903395,-0.6179713949724496,-2.895591259002686,5.483268260955811,-0.950539767742157,0.295063853263855,0.006493330001831055,2.528064250946045,XArbitraryZVertical,-0.32380841439969,0.4652918962101065,-0.7885404864898014,-0.2384435693075061,-0.7325637936592102,0.5793829560279846,-0.357303112745285,0,0,0,-1,-1,20885.94037491667,unknown,2,2025-04-21T16:56:11.557+03:00,2025-04-20T21:57:49.637+03:00,6834,0.9873711,0,0,5595.969,5,6,2025-04-21T16:56:27.034+03:00,766936615.5082804,0,-38.69,100.1974,1,0.3,2025-04-21T16:56:03.730+03:00,99,1.65,2025-04-21T12:30:07.995+03:00,0.02023345852159405,0
2025-04-21T16:56:56.339+03:00,1745243813.171704,40.95220373050805,29.14025042908131,76.57294,-1,-1,-1,-1,30,36.49476654306539,-9999,20892.36018075,-0.0501861572265625,-0.40728759765625,3.100830078125,20892.35010475,2.118212475555637,-1.079343517543355,-0.6299162021450287,-4.104021549224854,6.678605556488037,-0.07484050840139389,0.4184789061546326,-0.6775018572807312,3.036763191223145,XArbitraryZVertical,-0.2958746336380575,0.4709453707147525,-0.7891471276005725,-0.2606058625482449,-0.7124394774436951,0.5890770554542542,-0.3813373148441315,0,0,0,-1,-1,20885.94037491667,unknown,2,2025-04-21T16:56:11.557+03:00,2025-04-20T21:57:49.637+03:00,6834,0.9873711,0,0,5595.969,5,6,2025-04-21T16:56:27.034+03:00,766936615.5082804,0,-38.69,100.1974,1,0.3,2025-04-21T16:56:03.730+03:00,99,1.65,2025-04-21T12:30:07.995+03:00,0.02023345852159405,0
2025-04-21T16:56:56.349+03:00,1745243813.171704,40.95220373050805,29.14025042908131,76.57294,-1,-1,-1,-1,30,36.49476654306539,-9999,20892.37025775,-0.11932373046875,0.3736114501953125,1.731002807617188,20892.36018075,2.086904475017927,-1.022333515714742,-0.6491182783284787,-0.1573822051286697,9.59209156036377,1.339634418487549,0.5542407035827637,-1.148292422294617,3.432960748672485,XArbitraryZVertical,-0.2607005975710464,0.4736735928230382,-0.7928429626020399,-0.281190960824095,-0.6797747611999512,0.6044842600822449,-0.4153370559215546,0,0,0,-1,-1,20885.94037491667,unknown,2,2025-04-21T16:56:11.557+03:00,2025-04-20T21:57:49.637+03:00,6834,0.9873711,0,0,5595.969,5,6,2025-04-21T16:56:27.034+03:00,766936615.5082804,0,-38.69,100.1974,1,0.3,2025-04-21T16:56:03.730+03:00,99,1.65,2025-04-21T12:30:07.995+03:00,0.02023345852159405,0
2025-04-21T16:56:56.360+03:00,1745243813.171704,40.95220373050805,29.14025042908131,76.57294,-1,-1,-1,-1,30,36.49476654306539,-9999,20892.38033375,-0.800872802734375,3.804916381835938,-9.980224609375,20892.37025775,2.116437952501768,-0.9517899578931954,-0.6239946898539649,8.080367088317871,-4.835177421569824,-4.110335826873779,0.6047128438949585,-0.9363479018211365,3.566112995147705,XArbitraryZVertical,-0.2461678817395083,0.451619122330055,-0.8062166610130146,-0.2923289844520682,-0.660971999168396,0.5842816829681396,-0.4708830714225769,0,0,0,-1,-1,20885.94037491667,unknown,2,2025-04-21T16:56:11.557+03:00,2025-04-20T21:57:49.637+03:00,6834,0.9873711,0,0,5595.969,5,6,2025-04-21T16:56:27.034+03:00,766936615.5082804,0,-38.69,100.1974,1,0.3,2025-04-21T16:56:03.730+03:00,99,1.65,2025-04-21T12:30:07.995+03:00,0.02023345852159405,0
