loggingTime(txt),locationTimestamp_since1970(s),locationLatitude(WGS84),locationLongitude(WGS84),locationAltitude(m),locationSpeed(m/s),locationSpeedAccuracy(m/s),locationCourse(°),locationCourseAccuracy(°),locationVerticalAccuracy(m),locationHorizontalAccuracy(m),locationFloor(Z),accelerometerTimestamp_sinceReboot(s),accelerometerAccelerationX(G),accelerometerAccelerationY(G),accelerometerAccelerationZ(G),motionTimestamp_sinceReboot(s),motionYaw(rad),motionRoll(rad),motionPitch(rad),motionRotationRateX(rad/s),motionRotationRateY(rad/s),motionRotationRateZ(rad/s),motionUserAccelerationX(G),motionUserAccelerationY(G),motionUserAccelerationZ(G),motionAttitudeReferenceFrame(txt),motionQuaternionX(R),motionQuaternionY(R),motionQuaternionZ(R),motionQuaternionW(R),motionGravityX(G),motionGravityY(G),motionGravityZ(G),motionMagneticFieldX(µT),motionMagneticFieldY(µT),motionMagneticFieldZ(µT),motionHeading(°),motionMagneticFieldCalibrationAccuracy(Z),activityTimestamp_sinceReboot(s),activity(txt),activityActivityConfidence(Z),activityActivityStartDate(txt),pedometerStartDate(txt),pedometerNumberofSteps(N),pedometerAverageActivePace(s/m),pedometerCurrentPace(s/m),pedometerCurrentCadence(steps/s),pedometerDistance(m),pedometerFloorAscended(N),pedometerFloorDescended(N),pedometerEndDate(txt),altimeterTimestamp_sinceReboot(s),altimeterReset(bool),altimeterRelativeAltitude(m),altimeterPressure(kPa),batteryState(N),batteryLevel(R),heartRateBPMTimestamp(txt),heartRateBPM(N),heartRateBPS(R),heartRateVariabilityTimestamp(txt),heartRateVariability(ms),label
2025-04-21T17:15:06.118+03:00,1745244905.433555,40.95229523723509,29.14029212770079,76.51794,-1,-1,-1,-1,30,30.9981187017281,-9999,21407.33143804167,0.6108245849609375,-0.5577239990234375,-0.5094757080078125,21407.32766804167,-2.964976491586265,0.8809246056016279,0.6500996650444335,0.009336605668067932,0.01419803686439991,-0.005563538521528244,-0.02328139543533325,0.05538481473922729,-0.01439154148101807,XArbitraryZVertical,0.4279338916650674,-0.252116456504061,-0.8418388890453664,0.2112275665373055,0.6139948964118958,-0.605265736579895,-0.5066197514533997,0,0,0,-1,-1,21400.046902,unknown,2,2025-04-21T17:14:58.791+03:00,2025-04-21T17:08:51.449+03:00,9,1.825274,0,0,6.41385,0,0,2025-04-21T17:14:58.791+03:00,0,0,0,0,1,0.25,2025-04-21T17:09:25.354+03:00,98,1.633333333333333,2025-04-21T12:30:07.995+03:00,0.02023345852159405,0
2025-04-21T17:15:06.123+03:00,1745244905.433555,40.95229523723509,29.14029212770079,76.51794,-1,-1,-1,-1,30,30.9981187017281,-9999,21407.34151304167,0.6335296630859375,-0.6001434326171875,-0.5044097900390625,21407.33774404167,-2.96505974865311,0.880985430390108,0.6501273980314228,0.003648560028523207,-0.01218783110380173,0.002986640203744173,-0.003188133239746094,0.04756385087966919,-0.002903938293457031,XArbitraryZVertical,0.4279481771378416,-0.2521398658840868,-0.8418301230126523,0.2112054231837135,0.6140127182006836,-0.6052878499031067,-0.5065717101097107,0,0,0,-1,-1,21400.046902,unknown,2,2025-04-21T17:14:58.791+03:00,2025-04-21T17:08:51.449+03:00,9,1.825274,0,0,6.41385,0,0,2025-04-21T17:14:58.791+03:00,0,0,0,0,1,0.25,2025-04-21T17:09:25.354+03:00,98,1.633333333333333,2025-04-21T12:30:07.995+03:00,0.02023345852159405,0
2025-04-21T17:15:06.126+03:00,1745244905.433555,40.95229523723509,29.14029212770079,76.51794,-1,-1,-1,-1,30,30.9981187017281,-9999,21407.35158904167,0.6263427734375,-0.5811920166015625,-0.5118560791015625,21407.34781904167,-2.965167666903969,0.8809215756843514,0.6501859308342306,0.01563598029315472,-0.01545632816851139,0.002447349950671196,0.0195765495300293,0.00519108772277832,0.002178668975830078,XArbitraryZVertical,0.4279059321511784,-0.2521950374793805,-0.8418457242097004,0.2111629803224467,0.6139530539512634,-0.6053344011306763,-0.506588339805603,0,0,0,-1,-1,21400.046902,unknown,2,2025-04-21T17:14:58.791+03:00,2025-04-21T17:08:51.449+03:00,9,1.825274,0,0,6.41385,0,0,2025-04-21T17:14:58.791+03:00,0,0,0,0,1,0.25,2025-04-21T17:09:25.354+03:00,98,1.633333333333333,2025-04-21T12:30:07.995+03:00,0.02023345852159405,0
2025-04-21T17:15:06.127+03:00,1745244905.433555,40.95229523723509,29.14029212770079,76.51794,-1,-1,-1,-1,30,30.9981187017281,-9999,21407.36166404167,0.61431884765625,-0.5705108642578125,-0.5241851806640625,21407.35789504167,-2.965323706555647,0.8808613875230971,0.6501982183175141,0.0168756153434515,-0.01285874843597412,-0.005445493850857019,0.01242595911026001,0.02415227890014648,-0.005235373973846436,XArbitraryZVertical,0.4278605575865944,-0.2522401023225269,-0.841873045685395,0.2110920283041452,0.61391681432724,-0.6053441762924194,-0.5066205263137817,0,0,0,-1,-1,21400.046902,unknown,2,2025-04-21T17:14:58.791+03:00,2025-04-21T17:08:51.449+03:00,9,1.825274,0,0,6.41385,0,0,2025-04-21T17:14:58.791+03:00,0,0,0,0,1,0.25,2025-04-21T17:09:25.354+03:00,98,1.633333333333333,2025-04-21T12:30:07.995+03:00,0.02023345852159405,0
2025-04-21T17:15:06.128+03:00,1745244905.433555,40.95229523723509,29.14029212770079,76.51794,-1,-1,-1,-1,30,30.9981187017281,-9999,21407.37174004167,0.6129608154296875,-0.5780029296875,-0.527984619140625,21407.36797004167,-2.965457226340699,0.8807295963729886,0.6502690792763827,0.01505694258958101,-0.02098271995782852,-0.002737325383350253,0.0005018115043640137,0.034889817237854,-0.01751095056533813,XArbitraryZVertical,0.4277860993493348,-0.25231324315405,-0.8419039013067211,0.2110325536830029,0.6138169765472412,-0.6054006218910217,-0.5066741704940796,0,0,0,-1,-1,21400.046902,unknown,2,2025-04-21T17:14:58.791+03:00,2025-04-21T17:08:51.449+03:00,9,1.825274,0,0,6.41385,0,0,2025-04-21T17:14:58.791+03:00,0,0,0,0,1,0.25,2025-04-21T17:09:25.354+03:00,98,1.633333333333333,2025-04-21T12:30:07.995+03:00,0.02023345852159405,0
2025-04-21T17:15:06.130+03:00,1745244905.433555,40.95229523723509,29.14029212770079,76.51794,-1,-1,-1,-1,30,30.9981187017281,-9999,21407.38181504167,0.61602783203125,-0.5831298828125,-0.530181884765625,21407.37804604167,-2.965569503277733,0.880523305562582,0.650375678111583,0.01080014649778605,-0.02644326537847519,-0.001522790757007897,-0.0007018446922302246,0.02748256921768188,-0.02122485637664795,XArbitraryZVertical,0.4276818772230582,-0.2524051673800307,-0.8419426424999508,0.2109793478314861,0.6136626601219177,-0.6054854393005371,-0.5067597031593323,0,0,0,-1,-1,21400.046902,unknown,2,2025-04-21T17:14:58.791+03:00,2025-04-21T17:08:51.449+03:00,9,1.825274,0,0,6.41385,0,0,2025-04-21T17:14:58.791+03:00,0,0,0,0,1,0.25,2025-04-21T17:09:25.354+03:00,98,1.633333333333333,2025-04-21T12:30:07.995+03:00,0.02023345852159405,0
2025-04-21T17:15:06.140+03:00,1745244905.433555,40.95229523723509,29.14029212770079,76.51794,-1,-1,-1,-1,30,30.9981187017281,-9999,21407.39189104167,0.615447998046875,-0.5838165283203125,-0.5319061279296875,21407.38812104167,-2.965675106915341,0.8803212510386039,0.6504465884935262,0.01000119745731354,-0.02692689746618271,-0.001318792579695582,0.002500653266906738,0.02241206169128418,-0.02332550287246704,XArbitraryZVertical,0.4275813583700118,-0.2524797692994689,-0.8419854677880132,0.2109227523450956,0.6135271191596985,-0.6055418848991394,-0.5068563222885132,0,0,0,-1,-1,21400.046902,unknown,2,2025-04-21T17:14:58.791+03:00,2025-04-21T17:08:51.449+03:00,9,1.825274,0,0,6.41385,0,0,2025-04-21T17:14:58.791+03:00,0,0,0,0,1,0.25,2025-04-21T17:09:25.354+03:00,98,1.633333333333333,2025-04-21T12:30:07.995+03:00,0.02023345852159405,0
2025-04-21T17:15:06.150+03:00,1745244905.433555,40.95229523723509,29.14029212770079,76.51794,-1,-1,-1,-1,30,30.9981187017281,-9999,21407.40196604167,0.6103973388671875,-0.592132568359375,-0.527801513671875,21407.39819704167,-2.965746037970615,0.8801446894450005,0.6504415799208746,-1.009070547297597e-05,-0.01565153710544109,-0.002507194876670837,0.002007961273193359,0.02172142267227173,-0.02493947744369507,XArbitraryZVertical,0.427498222729716,-0.2525113832442176,-0.8420314936748744,0.2108696567024093,0.6134399771690369,-0.6055378913879395,-0.5069665312767029,0,0,0,-1,-1,21400.046902,unknown,2,2025-04-21T17:14:58.791+03:00,2025-04-21T17:08:51.449+03:00,9,1.825274,0,0,6.41385,0,0,2025-04-21T17:14:58.791+03:00,0,0,0,0,1,0.25,2025-04-21T17:09:25.354+03:00,98,1.633333333333333,2025-04-21T12:30:07.995+03:00,0.02023345852159405,0
2025-04-21T17:15:06.160+03:00,1745244905.433555,40.95229523723509,29.14029212770079,76.51794,-1,-1,-1,-1,30,30.9981187017281,-9999,21407.41204204167,0.609649658203125,-0.597412109375,-0.523193359375,21407.40827204167,-2.965710927880768,0.8799672931826553,0.6503536058004968,-0.009807061403989792,-0.01619482226669788,-0.005068356636911631,-0.002993762493133545,0.01333540678024292,-0.02069211006164551,XArbitraryZVertical,0.4274306175649553,-0.2524844902113583,-0.842079935133307,0.2108454729937222,0.6133910417556763,-0.6054678559303284,-0.5071092844009399,0,0,0,-1,-1,21400.046902,unknown,2,2025-04-21T17:14:58.791+03:00,2025-04-21T17:08:51.449+03:00,9,1.825274,0,0,6.41385,0,0,2025-04-21T17:14:58.791+03:00,0,0,0,0,1,0.25,2025-04-21T17:09:25.354+03:00,98,1.633333333333333,2025-04-21T12:30:07.995+03:00,0.02023345852159405,0
2025-04-21T17:15:06.170+03:00,1745244905.433555,40.95229523723509,29.14029212770079,76.51794,-1,-1,-1,-1,30,30.9981187017281,-9999,21407.42211704167,0.612579345703125,-0.590850830078125,-0.522125244140625,21407.41834804167,-2.965749341880453,0.8798312049225073,0.6502693808201255,0.004842055961489677,-0.01389132253825665,-0.006073234137147665,-0.0037117600440979,0.00798875093460083,-0.01596802473068237,XArbitraryZVertical,0.4273709963686267,-0.252470566354953,-0.8421267265949812,0.2107962540752722,0.6133613586425781,-0.6054008603096008,-0.5072252750396729,0,0,0,-1,-1,21400.046902,unknown,2,2025-04-21T17:14:58.791+03:00,2025-04-21T17:08:51.449+03:00,9,1.825274,0,0,6.41385,0,0,2025-04-21T17:14:58.791+03:00,0,0,0,0,1,0.25,2025-04-21T17:09:25.354+03:00,98,1.633333333333333,2025-04-21T12:30:07.995+03:00,0.02023345852159405,0
2025-04-21T17:15:06.180+03:00,1745244905.433555,40.95229523723509,29.14029212770079,76.51794,-1,-1,-1,-1,30,30.9981187017281,-9999,21407.43219304167,0.6159210205078125,-0.5826873779296875,-0.524993896484375,21407.42842304167,-2.965876742952181,0.8797353117029986,0.650282854967811,0.01195402722805738,-0.02082779072225094,-0.003373321611434221,-0.0007271170616149902,0.01456081867218018,-0.0148463249206543,XArbitraryZVertical,0.4273141290662297,-0.2525137285787873,-0.8421584619352472,0.2107330403740184,0.61330646276474,-0.6054115295410156,-0.5072789192199707,0,0,0,-1,-1,21400.046902,unknown,2,2025-04-21T17:14:58.791+03:00,2025-04-21T17:08:51.449+03:00,9,1.825274,0,0,6.41385,0,0,2025-04-21T17:14:58.791+03:00,0,0,0,0,1,0.25,2025-04-21T17:09:25.354+03:00,98,1.633333333333333,2025-04-21T12:30:07.995+03:00,0.02023345852159405,0
2025-04-21T17:15:06.190+03:00,1745244905.433555,40.95229523723509,29.14029212770079,76.51794,-1,-1,-1,-1,30,30.9981187017281,-9999,21407.44226804167,0.6171875,-0.5723419189453125,-0.524993896484375,21407.43849804167,-2.96601873141317,0.8795769096289014,0.6503429108663259,0.01657700911164284,-0.02891980670392513,0.004968897439539433,0.00272291898727417,0.02277201414108276,-0.01764094829559326,XArbitraryZVertical,0.4272276836169747,-0.2525867511283834,-0.8421975721547289,0.2106645539597802,0.6131981015205383,-0.6054593324661255,-0.507352888584137,0,0,0,-1,-1,21400.046902,unknown,2,2025-04-21T17:14:58.791+03:00,2025-04-21T17:08:51.449+03:00,9,1.825274,0,0,6.41385,0,0,2025-04-21T17:14:58.791+03:00,0,0,0,0,1,0.25,2025-04-21T17:09:25.354+03:00,98,1.633333333333333,2025-04-21T12:30:07.995+03:00,0.02023345852159405,0
2025-04-21T17:15:06.200+03:00,1745244905.433555,40.95229523723509,29.14029212770079,76.51794,-1,-1,-1,-1,30,30.9981187017281,-9999,21407.45234404167,0.6162109375,-0.569549560546875,-0.5292510986328125,21407.44857404167,-2.966109222481571,0.8792859891253736,0.6504330478457503,0.01298680063337088,-0.03193210437893867,0.00732899084687233,0.004179060459136963,0.03318929672241211,-0.01749736070632935,XArbitraryZVertical,0.4270910299479457,-0.2526757556867157,-0.8422546349842491,0.2106066692915399,0.6130083799362183,-0.6055310964584351,-0.5074964165687561,0,0,0,-1,-1,21400.046902,unknown,2,2025-04-21T17:14:58.791+03:00,2025-04-21T17:08:51.449+03:00,9,1.825274,0,0,6.41385,0,0,2025-04-21T17:14:58.791+03:00,0,0,0,0,1,0.25,2025-04-21T17:09:25.354+03:00,98,1.633333333333333,2025-04-21T12:30:07.995+03:00,0.02023345852159405,0
2025-04-21T17:15:06.210+03:00,1745244905.433555,40.95229523723509,29.14029212770079,76.51794,-1,-1,-1,-1,30,30.9981187017281,-9999,21407.46241904167,0.61236572265625,-0.580047607421875,-0.53485107421875,21407.45864904167,-2.966205828012983,0.8790640407941289,0.6504808459774918,0.01338174752891064,-0.02050741389393806,0.001091468031518161,0.003337442874908447,0.03601962327957153,-0.02163702249526978,XArbitraryZVertical,0.4269839104718522,-0.252740450742122,-0.8423044670748109,0.2105469359609537,0.6128734350204468,-0.6055691242218018,-0.5076140165328979,0,0,0,-1,-1,21400.046902,unknown,2,2025-04-21T17:14:58.791+03:00,2025-04-21T17:08:51.449+03:00,9,1.825274,0,0,6.41385,0,0,2025-04-21T17:14:58.791+03:00,0,0,0,0,1,0.25,2025-04-21T17:09:25.354+03:00,98,1.633333333333333,2025-04-21T12:30:07.995+03:00,0.02023345852159405,0
2025-04-21T17:15:06.220+03:00,1745244905.433555,40.95229523723509,29.14029212770079,76.51794,-1,-1,-1,-1,30,30.9981187017281,-9999,21407.47249504167,0.6069183349609375,-0.5840301513671875,-0.531158447265625,21407.46872504167,-2.966269572274749,0.8788869378384067,0.6504866521452281,0.004545113071799278,-0.01856117509305477,0.0004376620054244995,-0.0004152059555053711,0.02552622556686401,-0.02713066339492798,XArbitraryZVertical,0.4269010919694803,-0.2527752168036813,-0.8423480351072618,0.2104988004597499,0.6127808094024658,-0.6055737733840942,-0.5077202916145325,0,0,0,-1,-1,21400.046902,unknown,2,2025-04-21T17:14:58.791+03:00,2025-04-21T17:08:51.449+03:00,9,1.825274,0,0,6.41385,0,0,2025-04-21T17:14:58.791+03:00,0,0,0,0,1,0.25,2025-04-21T17:09:25.354+03:00,98,1.633333333333333,2025-04-21T12:30:07.995+03:00,0.02023345852159405,0
2025-04-21T17:15:06.230+03:00,1745244905.433555,40.95229523723509,29.14029212770079,76.51794,-1,-1,-1,-1,30,30.9981187017281,-9999,21407.48257004167,0.6112518310546875,-0.578521728515625,-0.5274658203125,21407.47880004167,-2.966252943494361,0.8785995931633744,0.6504903735517724,0.006450938060879707,-0.02840681374073029,0.005410483106970787,-0.005714893341064453,0.02154666185379028,-0.02326339483261108,XArbitraryZVertical,0.4267820520429464,-0.2528035171645114,-0.8424070245035343,0.2104701839962899,0.6126331686973572,-0.6055766940116882,-0.5078949332237244,0,0,0,-1,-1,21400.046902,unknown,2,2025-04-21T17:14:58.791+03:00,2025-04-21T17:08:51.449+03:00,9,1.825274,0,0,6.41385,0,0,2025-04-21T17:14:58.791+03:00,0,0,0,0,1,0.25,2025-04-21T17:09:25.354+03:00,98,1.633333333333333,2025-04-21T12:30:07.995+03:00,0.02023345852159405,0
2025-04-21T17:15:06.241+03:00,1745244905.433555,40.95229523723509,29.14029212770079,76.51794,-1,-1,-1,-1,30,30.9981187017281,-9999,21407.49264604167,0.613006591796875,-0.5838165283203125,-0.5223541259765625,21407.48887604167,-2.966272468923507,0.8783090866634469,0.6505437818116948,0.008435258641839027,-0.02538519166409969,0.004306070040911436,-0.001208901405334473,0.02709758281707764,-0.0194135308265686,XArbitraryZVertical,0.4266556149998408,-0.252861391546243,-0.8424623882532341,0.2104352810292183,0.6124606728553772,-0.6056191921234131,-0.5080522298812866,0,0,0,-1,-1,21400.046902,unknown,2,2025-04-21T17:14:58.791+03:00,2025-04-21T17:08:51.449+03:00,9,1.825274,0,0,6.41385,0,0,2025-04-21T17:14:58.791+03:00,0,0,0,0,1,0.25,2025-04-21T17:09:25.354+03:00,98,1.633333333333333,2025-04-21T12:30:07.995+03:00,0.02023345852159405,0
2025-04-21T17:15:06.252+03:00,1745244905.433555,40.95229523723509,29.14029212770079,76.51794,-1,-1,-1,-1,30,30.9981187017281,-9999,21407.50272104167,0.6082916259765625,-0.5877532958984375,-0.520538330078125,21407.49895104167,-2.96632965816852,0.8780661811848622,0.65059875833464,0.01210343092679977,-0.02260225638747215,-0.0001004297519102693,0.0006948709487915039,0.02184653282165527,-0.01417428255081177,XArbitraryZVertical,0.4265443986943226,-0.2529229512791699,-0.8425113574071522,0.210390807592352,0.6123116612434387,-0.6056629419326782,-0.5081797242164612,0,0,0,-1,-1,21400.046902,unknown,2,2025-04-21T17:14:58.791+03:00,2025-04-21T17:08:51.449+03:00,9,1.825274,0,0,6.41385,0,0,2025-04-21T17:14:58.791+03:00,0,0,0,0,1,0.25,2025-04-21T17:09:25.354+03:00,98,1.633333333333333,2025-04-21T12:30:07.995+03:00,0.02023345852159405,0
2025-04-21T17:15:06.261+03:00,1745244905.433555,40.95229523723509,29.14029212770079,76.51794,-1,-1,-1,-1,30,30.9981187017281,-9999,21407.51279704167,0.6087493896484375,-0.5806884765625,-0.521881103515625,21407.50902704167,-2.966493270264622,0.8779250518628854,0.65066817840004,0.0232293177396059,-0.02257828786969185,-0.001896731904707849,-0.003916025161743164,0.01796495914459229,-0.01229894161224365,XArbitraryZVertical,0.4264621442175607,-0.253002739047743,-0.842547511718604,0.2103170733273204,0.6122076511383057,-0.605718195438385,-0.5082393288612366,0,0,0,-1,-1,21400.046902,unknown,2,2025-04-21T17:14:58.791+03:00,2025-04-21T17:08:51.449+03:00,9,1.825274,0,0,6.41385,0,0,2025-04-21T17:14:58.791+03:00,0,0,0,0,1,0.25,2025-04-21T17:09:25.354+03:00,98,1.633333333333333,2025-04-21T12:30:07.995+03:00,0.02023345852159405,0
2025-04-21T17:15:06.271+03:00,1745244905.433555,40.95229523723509,29.14029212770079,76.51794,-1,-1,-1,-1,30,30.9981187017281,-9999,21407.52287204167,0.611053466796875,-0.577545166015625,-0.5257110595703125,21407.51910204167,-2.966758676129019,0.877814925659456,0.650761545844471,0.02962796203792095,-0.02707436867058277,-0.001456444733776152,-0.003358781337738037,0.02510404586791992,-0.01361048221588135,XArbitraryZVertical,0.4263793544394603,-0.2531113512883376,-0.8425837713245299,0.2102088770984686,0.6121081709861755,-0.6057924628257751,-0.5082705616950989,0,0,0,-1,-1,21400.046902,unknown,2,2025-04-21T17:14:58.791+03:00,2025-04-21T17:08:51.449+03:00,9,1.825274,0,0,6.41385,0,0,2025-04-21T17:14:58.791+03:00,0,0,0,0,1,0.25,2025-04-21T17:09:25.354+03:00,98,1.633333333333333,2025-04-21T12:30:07.995+03:00,0.02023345852159405,0
2025-04-21T17:15:06.281+03:00,1745244905.433555,40.95229523723509,29.14029212770079,76.51794,-1,-1,-1,-1,30,30.9981187017281,-9999,21407.53294804167,0.616424560546875,-0.5745391845703125,-0.5254058837890625,21407.52917804167,-2.967059796660818,0.8776740479371909,0.6508883490389901,0.03313374891877174,-0.03262412920594215,0.00201232242397964,-0.0009239912033081055,0.02834826707839966,-0.01740318536758423,XArbitraryZVertical,0.4262780449548687,-0.2532452646161529,-0.8426249485287293,0.2100880084254297,0.6119774580001831,-0.6058933734893799,-0.5083077549934387,0,0,0,-1,-1,21400.046902,unknown,2,2025-04-21T17:14:58.791+03:00,2025-04-21T17:08:51.449+03:00,9,1.825274,0,0,6.41385,0,0,2025-04-21T17:14:58.791+03:00,0,0,0,0,1,0.25,2025-04-21T17:09:25.354+03:00,98,1.633333333333333,2025-04-21T12:30:07.995+03:00,0.02023345852159405,0
2025-04-21T17:15:06.291+03:00,1745244905.433555,40.95229523723509,29.14029212770079,76.51794,-1,-1,-1,-1,30,30.9981187017281,-9999,21407.54302304167,0.615936279296875,-0.571868896484375,-0.52490234375,21407.53925304167,-2.96740728248971,0.8775231334026807,0.6510351075400008,0.03830574080348015,-0.03587917611002922,-0.002519378904253244,0.004592180252075195,0.03147095441818237,-0.01706254482269287,XArbitraryZVertical,0.4261659816299932,-0.2533987176590158,-0.8426699468467848,0.2099500588392042,0.6118323802947998,-0.6060101389884949,-0.5083432793617249,0,0,0,-1,-1,21400.046902,unknown,2,2025-04-21T17:14:58.791+03:00,2025-04-21T17:08:51.449+03:00,9,1.825274,0,0,6.41385,0,0,2025-04-21T17:14:58.791+03:00,0,0,0,0,1,0.25,2025-04-21T17:09:25.354+03:00,98,1.633333333333333,2025-04-21T12:30:07.995+03:00,0.02023345852159405,0
2025-04-21T17:15:06.301+03:00,1745244905.433555,40.95229523723509,29.14029212770079,76.51794,-1,-1,-1,-1,30,30.9981187017281,-9999,21407.55309904167,0.6155242919921875,-0.5716552734375,-0.525970458984375,21407.54932904167,-2.96779831072817,0.8773629139888096,0.6512252608470283,0.0447324812412262,-0.03781742602586746,-0.002195538487285376,0.00427401065826416,0.03429245948791504,-0.01653468608856201,XArbitraryZVertical,0.4260431257956927,-0.2535812010091018,-0.8427143857986431,0.2098007203827309,0.6116623282432556,-0.60616135597229,-0.508367657661438,0,0,0,-1,-1,21400.046902,unknown,2,2025-04-21T17:14:58.791+03:00,2025-04-21T17:08:51.449+03:00,9,1.825274,0,0,6.41385,0,0,2025-04-21T17:14:58.791+03:00,0,0,0,0,1,0.25,2025-04-21T17:09:25.354+03:00,98,1.633333333333333,2025-04-21T12:30:07.995+03:00,0.02023345852159405,0
2025-04-21T17:15:06.311+03:00,1745244905.433555,40.95229523723509,29.14029212770079,76.51794,-1,-1,-1,-1,30,30.9981187017281,-9999,21407.56317404167,0.6189422607421875,-0.5732421875,-0.526123046875,21407.55940404167,-2.968226422156104,0.87714147787999,0.651493422195589,0.05311810970306396,-0.04856927320361137,0.001815914292819798,0.004099607467651367,0.03471934795379639,-0.01757127046585083,XArbitraryZVertical,0.4258873351087633,-0.2538117574619503,-0.8427630580803926,0.209642620384034,0.6114246845245361,-0.6063746213912964,-0.5083991289138794,0,0,0,-1,-1,21400.046902,unknown,2,2025-04-21T17:14:58.791+03:00,2025-04-21T17:08:51.449+03:00,9,1.825274,0,0,6.41385,0,0,2025-04-21T17:14:58.791+03:00,0,0,0,0,1,0.25,2025-04-21T17:09:25.354+03:00,98,1.633333333333333,2025-04-21T12:30:07.995+03:00,0.02023345852159405,0
2025-04-21T17:15:06.321+03:00,1745244905.433555,40.95229523723509,29.14029212770079,76.51794,-1,-1,-1,-1,30,30.9981187017281,-9999,21407.57324904167,0.6175537109375,-0.575897216796875,-0.5259246826171875,21407.56948004167,-2.968749238508145,0.8769223857082075,0.6518338120583121,0.06610714644193649,-0.04988434165716171,0.003124325536191463,0.007787704467773438,0.03340309858322144,-0.01772195100784302,XArbitraryZVertical,0.4257182021043766,-0.2540934600722263,-0.8428094151552425,0.2094584323252605,0.6111545562744141,-0.6066452264785767,-0.5084010362625122,0,0,0,-1,-1,21400.046902,unknown,2,2025-04-21T17:14:58.791+03:00,2025-04-21T17:08:51.449+03:00,9,1.825274,0,0,6.41385,0,0,2025-04-21T17:14:58.791+03:00,0,0,0,0,1,0.25,2025-04-21T17:09:25.354+03:00,98,1.633333333333333,2025-04-21T12:30:07.995+03:00,0.02023345852159405,0
2025-04-21T17:15:06.331+03:00,1745244905.433555,40.95229523723509,29.14029212770079,76.51794,-1,-1,-1,-1,30,30.9981187017281,-9999,21407.58332504167,0.61602783203125,-0.5801849365234375,-0.5252227783203125,21407.57955504167,-2.969395377076769,0.8767996148778116,0.6522194475610495,0.07255092263221741,-0.05068329349160194,-0.001435139449313283,0.0066414475440979,0.03105467557907104,-0.01759821176528931,XArbitraryZVertical,0.4255724688916563,-0.254410867914741,-0.8428407187600467,0.2092429790976585,0.6109122633934021,-0.6069517731666565,-0.5083263516426086,0,0,0,-1,-1,21400.046902,unknown,2,2025-04-21T17:14:58.791+03:00,2025-04-21T17:08:51.449+03:00,9,1.825274,0,0,6.41385,0,0,2025-04-21T17:14:58.791+03:00,0,0,0,0,1,0.25,2025-04-21T17:09:25.354+03:00,98,1.633333333333333,2025-04-21T12:30:07.995+03:00,0.02023345852159405,0
2025-04-21T17:15:06.341+03:00,1745244905.433555,40.95229523723509,29.14029212770079,76.51794,-1,-1,-1,-1,30,30.9981187017281,-9999,21407.59340004167,0.6182861328125,-0.576690673828125,-0.5227813720703125,21407.58963104167,-2.97022561501616,0.8767017158775139,0.6526621061202209,0.09376433491706848,-0.06262277066707611,-0.009744469076395035,0.005371928215026855,0.02711862325668335,-0.01700842380523682,XArbitraryZVertical,0.4254118021230449,-0.2547894389586366,-0.8428767749197403,0.2089637808505304,0.6106559038162231,-0.6073035001754761,-0.5082142949104309,0,0,0,-1,-1,21400.046902,unknown,2,2025-04-21T17:14:58.791+03:00,2025-04-21T17:08:51.449+03:00,9,1.825274,0,0,6.41385,0,0,2025-04-21T17:14:58.791+03:00,0,0,0,0,1,0.25,2025-04-21T17:09:25.354+03:00,98,1.633333333333333,2025-04-21T12:30:07.995+03:00,0.02023345852159405,0
2025-04-21T17:15:06.352+03:00,1745244905.433555,40.95229523723509,29.14029212770079,76.51794,-1,-1,-1,-1,30,30.9981187017281,-9999,21407.60347604167,0.624847412109375,-0.5666656494140625,-0.524688720703125,21407.59970604167,-2.971297541453209,0.8766189680430296,0.6532268221219434,0.1169787794351578,-0.08135711401700974,-0.004007653333246708,0.007936000823974609,0.03106141090393066,-0.01473599672317505,XArbitraryZVertical,0.4252225997853769,-0.2552705798347259,-0.842914934492358,0.2086075661410381,0.6103501915931702,-0.6077520847320557,-0.5080453157424927,0,0,0,-1,-1,21400.046902,unknown,2,2025-04-21T17:14:58.791+03:00,2025-04-21T17:08:51.449+03:00,9,1.825274,0,0,6.41385,0,0,2025-04-21T17:14:58.791+03:00,0,0,0,0,1,0.25,2025-04-21T17:09:25.354+03:00,98,1.633333333333333,2025-04-21T12:30:07.995+03:00,0.02023345852159405,0
2025-04-21T17:15:06.362+03:00,1745244905.433555,40.95229523723509,29.14029212770079,76.51794,-1,-1,-1,-1,30,30.9981187017281,-9999,21407.61355279167,0.6292724609375,-0.5621337890625,-0.526275634765625,21407.60978204167,-2.972623514137566,0.8765164370281341,0.6539664353192362,0.1500549763441086,-0.09493310749530792,-0.01065090857446194,0.01489496231079102,0.04167371988296509,-0.01686853170394897,XArbitraryZVertical,0.4249866507263724,-0.2558834033941596,-0.8429549797661456,0.2081746252665706,0.6099523901939392,-0.608339250087738,-0.5078200697898865,0,0,0,-1,-1,21400.046902,unknown,2,2025-04-21T17:14:58.791+03:00,2025-04-21T17:08:51.449+03:00,9,1.825274,0,0,6.41385,0,0,2025-04-21T17:14:58.791+03:00,0,0,0,0,1,0.25,2025-04-21T17:09:25.354+03:00,98,1.633333333333333,2025-04-21T12:30:07.995+03:00,0.02023345852159405,0
2025-04-21T17:15:06.372+03:00,1745244905.433555,40.95229523723509,29.14029212770079,76.51794,-1,-1,-1,-1,30,30.9981187017281,-9999,21407.62362779167,0.62811279296875,-0.55963134765625,-0.528076171875,21407.61985779167,-2.974303267166865,0.8765062141027368,0.6548535650285959,0.1723528206348419,-0.1043702885508537,-0.007408509962260723,0.01974016427993774,0.04690933227539062,-0.0187947154045105,XArbitraryZVertical,0.4247387295377891,-0.2566253272460051,-0.8429883784629002,0.2076320778007364,0.6095322966575623,-0.6090431213378906,-0.5074809193611145,0,0,0,-1,-1,21400.046902,unknown,2,2025-04-21T17:14:58.791+03:00,2025-04-21T17:08:51.449+03:00,9,1.825274,0,0,6.41385,0,0,2025-04-21T17:14:58.791+03:00,0,0,0,0,1,0.25,2025-04-21T17:09:25.354+03:00,98,1.633333333333333,2025-04-21T12:30:07.995+03:00,0.02023345852159405,0
2025-04-21T17:15:06.381+03:00,1745244905.433555,40.95229523723509,29.14029212770079,76.51794,-1,-1,-1,-1,30,30.9981187017281,-9999,21407.63370279167,0.6261749267578125,-0.5490875244140625,-0.5304718017578125,21407.62993379167,-2.976190410780784,0.8766614657390446,0.6558917619533234,0.1963465660810471,-0.09916301071643829,-0.01119951996952295,0.01898801326751709,0.05023491382598877,-0.0210946798324585,XArbitraryZVertical,0.424527952088371,-0.25745929003095,-0.8429829120810174,0.207051910270484,0.6091247200965881,-0.609866201877594,-0.5069814920425415,0,0,0,-1,-1,21400.046902,unknown,2,2025-04-21T17:14:58.791+03:00,2025-04-21T17:08:51.449+03:00,9,1.825274,0,0,6.41385,0,0,2025-04-21T17:14:58.791+03:00,0,0,0,0,1,0.25,2025-04-21T17:09:25.354+03:00,98,1.633333333333333,2025-04-21T12:30:07.995+03:00,0.02023345852159405,0
2025-04-21T17:15:06.392+03:00,1745244905.433555,40.95229523723509,29.14029212770079,76.51794,-1,-1,-1,-1,30,30.9981187017281,-9999,21407.64377879167,0.62908935546875,-0.5457000732421875,-0.5274200439453125,21407.64000879167,-2.978329411237656,0.8768524378063489,0.6571028263709473,0.220127671957016,-0.1212165206670761,-0.005062864162027836,0.01752156019210815,0.06173801422119141,-0.02407932281494141,XArbitraryZVertical,0.4242925795123259,-0.2584174951464203,-0.8429674164378383,0.2064029508751463,0.6086533665657043,-0.6108255386352539,-0.5063924193382263,0,0,0,-1,-1,21400.046902,unknown,2,2025-04-21T17:14:58.791+03:00,2025-04-21T17:08:51.449+03:00,9,1.825274,0,0,6.41385,0,0,2025-04-21T17:14:58.791+03:00,0,0,0,0,1,0.25,2025-04-21T17:09:25.354+03:00,98,1.633333333333333,2025-04-21T12:30:07.995+03:00,0.02023345852159405,0
2025-04-21T17:15:06.402+03:00,1745244905.433555,40.95229523723509,29.14029212770079,76.51794,-1,-1,-1,-1,30,30.9981187017281,-9999,21407.65385379167,0.637054443359375,-0.556854248046875,-0.529876708984375,21407.65008479167,-2.980723099249289,0.8770437445678506,0.6584941954243475,0.2641752958297729,-0.1411271095275879,-0.009541235864162445,0.02099317312240601,0.06622660160064697,-0.02168798446655273,XArbitraryZVertical,0.4240164459914088,-0.2595073194577236,-0.8429479923959999,0.205680979065971,0.608096182346344,-0.6119265556335449,-0.505731999874115,0,0,0,-1,-1,21400.046902,unknown,2,2025-04-21T17:14:58.791+03:00,2025-04-21T17:08:51.449+03:00,9,1.825274,0,0,6.41385,0,0,2025-04-21T17:14:58.791+03:00,0,0,0,0,1,0.25,2025-04-21T17:09:25.354+03:00,98,1.633333333333333,2025-04-21T12:30:07.995+03:00,0.02023345852159405,0
2025-04-21T17:15:06.412+03:00,1745244905.433555,40.95229523723509,29.14029212770079,76.51794,-1,-1,-1,-1,30,30.9981187017281,-9999,21407.66392979167,0.6392669677734375,-0.5598907470703125,-0.5330963134765625,21407.66015979167,-2.983588366102611,0.8772253415731324,0.660207870806818,0.3144108951091766,-0.1656458973884583,-0.005182373337447643,0.02967369556427002,0.05642682313919067,-0.02492624521255493,XArbitraryZVertical,0.4236612826583883,-0.2608369083416734,-0.8429258094989709,0.2048201451606677,0.607380747795105,-0.6132810711860657,-0.5049504637718201,0,0,0,-1,-1,21400.046902,unknown,2,2025-04-21T17:14:58.791+03:00,2025-04-21T17:08:51.449+03:00,9,1.825274,0,0,6.41385,0,0,2025-04-21T17:14:58.791+03:00,0,0,0,0,1,0.25,2025-04-21T17:09:25.354+03:00,98,1.633333333333333,2025-04-21T12:30:07.995+03:00,0.02023345852159405,0
2025-04-21T17:15:06.422+03:00,1745244905.433555,40.95229523723509,29.14029212770079,76.51794,-1,-1,-1,-1,30,30.9981187017281,-9999,21407.67400479167,0.6402435302734375,-0.5395050048828125,-0.52899169921875,21407.67023579167,-2.986992994885554,0.8775156303475568,0.6622918726091706,0.3765821158885956,-0.192697748541832,-0.006114745978266001,0.03272408246994019,0.05503511428833008,-0.02914005517959595,XArbitraryZVertical,0.4232646748585458,-0.2624288716266767,-0.8428741043743253,0.2038166798134601,0.6065428853034973,-0.6149258017539978,-0.5039561986923218,0,0,0,-1,-1,21400.046902,unknown,2,2025-04-21T17:14:58.791+03:00,2025-04-21T17:08:51.449+03:00,9,1.825274,0,0,6.41385,0,0,2025-04-21T17:14:58.791+03:00,0,0,0,0,1,0.25,2025-04-21T17:09:25.354+03:00,98,1.633333333333333,2025-04-21T12:30:07.995+03:00,0.02023345852159405,0
2025-04-21T17:15:06.432+03:00,1745244905.433555,40.95229523723509,29.14029212770079,76.51794,-1,-1,-1,-1,30,30.9981187017281,-9999,21407.68408079167,0.6433868408203125,-0.5269317626953125,-0.5305633544921875,21407.68031079167,-2.991150882061032,0.8779272977412581,0.6647873357766168,0.4593620300292969,-0.2296386510133743,-0.01591887325048447,0.03467577695846558,0.07738679647445679,-0.02626693248748779,XArbitraryZVertical,0.4227997652135093,-0.2643444529841062,-0.8428044828199406,0.2025904504406497,0.6055677533149719,-0.6168917417526245,-0.5027247667312622,0,0,0,-1,-1,21400.046902,unknown,2,2025-04-21T17:14:58.791+03:00,2025-04-21T17:08:51.449+03:00,9,1.825274,0,0,6.41385,0,0,2025-04-21T17:14:58.791+03:00,0,0,0,0,1,0.25,2025-04-21T17:09:25.354+03:00,98,1.633333333333333,2025-04-21T12:30:07.995+03:00,0.02023345852159405,0
2025-04-21T17:15:06.443+03:00,1745244905.433555,40.95229523723509,29.14029212770079,76.51794,-1,-1,-1,-1,30,30.9981187017281,-9999,21407.69415579167,0.6482086181640625,-0.5299530029296875,-0.542083740234375,21407.69038679167,-2.996538724695416,0.8787804168663412,0.6678030241109807,0.5967246890068054,-0.2642405927181244,-0.04057655110955238,0.0388256311416626,0.09233075380325317,-0.02954471111297607,XArbitraryZVertical,0.4223300560818952,-0.2666984095619239,-0.8426780352972111,0.2010047194672728,0.6045612692832947,-0.6192624568939209,-0.5010185837745667,0,0,0,-1,-1,21400.046902,unknown,2,2025-04-21T17:14:58.791+03:00,2025-04-21T17:08:51.449+03:00,9,1.825274,0,0,6.41385,0,0,2025-04-21T17:14:58.791+03:00,0,0,0,0,1,0.25,2025-04-21T17:09:25.354+03:00,98,1.633333333333333,2025-04-21T12:30:07.995+03:00,0.02023345852159405,0
2025-04-21T17:15:06.452+03:00,1745244905.433555,40.95229523723509,29.14029212770079,76.51794,-1,-1,-1,-1,30,30.9981187017281,-9999,21407.70423179167,0.660614013671875,-0.527252197265625,-0.564788818359375,21407.70046179167,-3.003634409860195,0.8803622736148473,0.6716779735801369,0.7575015425682068,-0.2959951162338257,-0.04515136033296585,0.04471009969711304,0.09234744310379028,-0.04355409741401672,XArbitraryZVertical,0.4218915537634244,-0.2697085814050376,-0.8424238686712588,0.1989639868635962,0.6034984588623047,-0.6223003268241882,-0.4985295832157135,0,0,0,-1,-1,21400.046902,unknown,2,2025-04-21T17:14:58.791+03:00,2025-04-21T17:08:51.449+03:00,9,1.825274,0,0,6.41385,0,0,2025-04-21T17:14:58.791+03:00,0,0,0,0,1,0.25,2025-04-21T17:09:25.354+03:00,98,1.633333333333333,2025-04-21T12:30:07.995+03:00,0.02023345852159405,0
2025-04-21T17:15:06.462+03:00,1745244905.433555,40.95229523723509,29.14029212770079,76.51794,-1,-1,-1,-1,30,30.9981187017281,-9999,21407.71430679167,0.68719482421875,-0.5145721435546875,-0.582794189453125,21407.71053779167,-3.012444237911406,0.8826712143275506,0.6766692573563357,0.9245299100875854,-0.3432821929454803,-0.05539680644869804,0.05837279558181763,0.09894752502441406,-0.06963270902633667,XArbitraryZVertical,0.4214582628930445,-0.2734865818212275,-0.8419962615581021,0.1965203935428188,0.6022411584854126,-0.6261996626853943,-0.4951560497283936,0,0,0,-1,-1,21400.046902,unknown,2,2025-04-21T17:14:58.791+03:00,2025-04-21T17:08:51.449+03:00,9,1.825274,0,0,6.41385,0,0,2025-04-21T17:14:58.791+03:00,0,0,0,0,1,0.25,2025-04-21T17:09:25.354+03:00,98,1.633333333333333,2025-04-21T12:30:07.995+03:00,0.02023345852159405,0
2025-04-21T17:15:06.490+03:00,1745244905.433555,40.95229523723509,29.14029212770079,76.51794,-1,-1,-1,-1,30,30.9981187017281,-9999,21407.72438279167,0.7188873291015625,-0.51220703125,-0.6011810302734375,21407.72061279167,-3.022837597873104,0.8853185414975276,0.6827794189777517,1.077694416046143,-0.430372029542923,-0.02063333615660667,0.08661806583404541,0.1163797378540039,-0.09166550636291504,XArbitraryZVertical,0.4208658288359515,-0.2780425059747242,-0.8414575422205872,0.1936838943093507,0.6005767583847046,-0.6309518218040466,-0.4911286234855652,0,0,0,-1,-1,21400.046902,unknown,2,2025-04-21T17:14:58.791+03:00,2025-04-21T17:08:51.449+03:00,9,1.825274,0,0,6.41385,0,0,2025-04-21T17:14:58.791+03:00,0,0,0,0,1,0.25,2025-04-21T17:09:25.354+03:00,98,1.633333333333333,2025-04-21T12:30:07.995+03:00,0.02023345852159405,0
2025-04-21T17:15:06.492+03:00,1745244905.433555,40.95229523723509,29.14029212770079,76.51794,-1,-1,-1,-1,30,30.9981187017281,-9999,21407.73445779167,0.74176025390625,-0.542083740234375,-0.6167144775390625,21407.73068879167,-3.034133885945613,0.8877968893759097,0.6900093344170884,1.1659334897995,-0.4885945916175842,0.03234466165304184,0.1206493973731995,0.124337375164032,-0.1144340634346008,XArbitraryZVertical,0.4199758704362103,-0.2832786903264709,-0.8408423696556019,0.1906763484599462,0.598237931728363,-0.636544406414032,-0.4867469072341919,0,0,0,-1,-1,21400.046902,unknown,2,2025-04-21T17:14:58.791+03:00,2025-04-21T17:08:51.449+03:00,9,1.825274,0,0,6.41385,0,0,2025-04-21T17:14:58.791+03:00,0,0,0,0,1,0.25,2025-04-21T17:09:25.354+03:00,98,1.633333333333333,2025-04-21T12:30:07.995+03:00,0.02023345852159405,0
2025-04-21T17:15:06.493+03:00,1745244905.433555,40.95229523723509,29.14029212770079,76.51794,-1,-1,-1,-1,30,30.9981187017281,-9999,21407.74453379167,0.7293853759765625,-0.5953216552734375,-0.6202850341796875,21407.74076379167,-3.045758136894339,0.8901819553394643,0.6978114498252515,1.174254059791565,-0.5152164101600647,0.04907620325684547,0.1462411880493164,0.1004586219787598,-0.1345357298851013,XArbitraryZVertical,0.4189142329026958,-0.288827826137526,-0.8401653320134601,0.1876469990981292,0.5955190658569336,-0.6425422430038452,-0.4821787178516388,0,0,0,-1,-1,21400.046902,unknown,2,2025-04-21T17:14:58.791+03:00,2025-04-21T17:08:51.449+03:00,9,1.825274,0,0,6.41385,0,0,2025-04-21T17:14:58.791+03:00,0,0,0,0,1,0.25,2025-04-21T17:09:25.354+03:00,98,1.633333333333333,2025-04-21T12:30:07.995+03:00,0.02023345852159405,0
2025-04-21T17:15:06.502+03:00,1745244905.433555,40.95229523723509,29.14029212770079,76.51794,-1,-1,-1,-1,30,30.9981187017281,-9999,21407.75460879167,0.70599365234375,-0.620849609375,-0.635223388671875,21407.75083979167,-3.057077525625783,0.8923620277879002,0.7054404395212875,1.108331680297852,-0.497003585100174,0.04414322972297668,0.1366502046585083,0.05304765701293945,-0.1424960196018219,XArbitraryZVertical,0.4177609013830691,-0.2942470782213635,-0.8395117314456995,0.1847007005264856,0.5927350521087646,-0.6483691930770874,-0.4777889847755432,0,0,0,-1,-1,21400.046902,unknown,2,2025-04-21T17:14:58.791+03:00,2025-04-21T17:08:51.449+03:00,9,1.825274,0,0,6.41385,0,0,2025-04-21T17:14:58.791+03:00,0,0,0,0,1,0.25,2025-04-21T17:09:25.354+03:00,98,1.633333333333333,2025-04-21T12:30:07.995+03:00,0.02023345852159405,0
2025-04-21T17:15:06.512+03:00,1745244905.433555,40.95229523723509,29.14029212770079,76.51794,-1,-1,-1,-1,30,30.9981187017281,-9999,21407.76468479167,0.6882476806640625,-0.6431732177734375,-0.6539764404296875,21407.76091479167,-3.067396021662916,0.8944474935758474,0.7121947690935456,0.9591166973114014,-0.425360769033432,0.02986019849777222,0.115692138671875,0.03264707326889038,-0.1614235639572144,XArbitraryZVertical,0.4167127972253615,-0.2990828426552516,-0.8389122898374632,0.1820055505754527,0.590301513671875,-0.6534966230392456,-0.4737997949123383,0,0,0,-1,-1,21400.046902,unknown,2,2025-04-21T17:14:58.791+03:00,2025-04-21T17:08:51.449+03:00,9,1.825274,0,0,6.41385,0,0,2025-04-21T17:14:58.791+03:00,0,0,0,0,1,0.25,2025-04-21T17:09:25.354+03:00,98,1.633333333333333,2025-04-21T12:30:07.995+03:00,0.02023345852159405,0
2025-04-21T17:15:06.522+03:00,1745244905.433555,40.95229523723509,29.14029212770079,76.51794,-1,-1,-1,-1,30,30.9981187017281,-9999,21407.77475979167,0.6806488037109375,-0.694305419921875,-0.6480865478515625,21407.77099079167,-3.076663105918138,0.8964631534722921,0.7180597805839273,0.8279509544372559,-0.3685320913791656,0.02192983776330948,0.09999638795852661,0.0147516131401062,-0.183768630027771,XArbitraryZVertical,0.4158044202311779,-0.3033196116371719,-0.8383645085733729,0.1795795837364135,0.5882512927055359,-0.6579247713088989,-0.4702077805995941,0,0,0,-1,-1,21400.046902,unknown,2,2025-04-21T17:14:58.791+03:00,2025-04-21T17:08:51.449+03:00,9,1.825274,0,0,6.41385,0,0,2025-04-21T17:14:58.791+03:00,0,0,0,0,1,0.25,2025-04-21T17:09:25.354+03:00,98,1.633333333333333,2025-04-21T12:30:07.995+03:00,0.02023345852159405,0
2025-04-21T17:15:06.533+03:00,1745244905.433555,40.95229523723509,29.14029212770079,76.51794,-1,-1,-1,-1,30,30.9981187017281,-9999,21407.78483579167,0.691314697265625,-0.7106170654296875,-0.65380859375,21407.78106579167,-3.083969038208667,0.8987134857084598,0.7231467301785521,0.6555244922637939,-0.1406016051769257,0.0919305607676506,0.0939674973487854,-0.0325581431388855,-0.1812935769557953,XArbitraryZVertical,0.41530982860765,-0.3067919306740649,-0.8377104983304055,0.1778690038471099,0.5866812467575073,-0.6617471575737,-0.4667929112911224,0,0,0,-1,-1,21400.046902,unknown,2,2025-04-21T17:14:58.791+03:00,2025-04-21T17:08:51.449+03:00,9,1.825274,0,0,6.41385,0,0,2025-04-21T17:14:58.791+03:00,0,0,0,0,1,0.25,2025-04-21T17:09:25.354+03:00,98,1.633333333333333,2025-04-21T12:30:07.995+03:00,0.02023345852159405,0
2025-04-21T17:15:06.543+03:00,1745244905.433555,40.95229523723509,29.14029212770079,76.51794,-1,-1,-1,-1,30,30.9981187017281,-9999,21407.79491079167,0.7140350341796875,-0.66326904296875,-0.67718505859375,21407.79114179167,-3.089661823203236,0.9024527258332691,0.7283630648330488,0.6564400792121887,0.1002461761236191,0.1886427253484726,0.1056091785430908,-0.04496806859970093,-0.1913579702377319,XArbitraryZVertical,0.4156546702893125,-0.3098481865972462,-0.8365767610239732,0.1771005665575736,0.5857055187225342,-0.6656489372253418,-0.4624505937099457,0,0,0,-1,-1,21400.046902,unknown,2,2025-04-21T17:14:58.791+03:00,2025-04-21T17:08:51.449+03:00,9,1.825274,0,0,6.41385,0,0,2025-04-21T17:14:58.791+03:00,0,0,0,0,1,0.25,2025-04-21T17:09:25.354+03:00,98,1.633333333333333,2025-04-21T12:30:07.995+03:00,0.02023345852159405,0
2025-04-21T17:15:06.553+03:00,1745244905.433555,40.95229523723509,29.14029212770079,76.51794,-1,-1,-1,-1,30,30.9981187017281,-9999,21407.80498679167,0.72802734375,-0.61346435546875,-0.659637451171875,21407.80121679167,-3.09455652440975,0.9069104592190279,0.7338967337972842,0.5764187574386597,0.1499186456203461,0.2295347601175308,0.1291839480400085,0.006499350070953369,-0.2196266651153564,XArbitraryZVertical,0.4163811156346154,-0.3128059768561441,-0.8351653812572111,0.176855841338823,0.584851086139679,-0.6697683334350586,-0.4575583636760712,0,0,0,-1,-1,21400.046902,unknown,2,2025-04-21T17:14:58.791+03:00,2025-04-21T17:08:51.449+03:00,9,1.825274,0,0,6.41385,0,0,2025-04-21T17:14:58.791+03:00,0,0,0,0,1,0.25,2025-04-21T17:09:25.354+03:00,98,1.633333333333333,2025-04-21T12:30:07.995+03:00,0.02023345852159405,0
2025-04-21T17:15:06.563+03:00,1745244905.433555,40.95229523723509,29.14029212770079,76.51794,-1,-1,-1,-1,30,30.9981187017281,-9999,21407.81506279167,0.7200164794921875,-0.58935546875,-0.58001708984375,21407.81129279167,-3.09809234404582,0.9112201532623975,0.739088013212822,0.4632189273834229,0.231592208147049,0.2664589583873749,0.1439654231071472,0.06014984846115112,-0.2067406177520752,XArbitraryZVertical,0.4172630825166469,-0.3153460148873267,-0.83371663872791,0.1771013597899272,0.5840619206428528,-0.6736141443252563,-0.4528968334197998,0,0,0,-1,-1,21400.046902,unknown,2,2025-04-21T17:14:58.791+03:00,2025-04-21T17:08:51.449+03:00,9,1.825274,0,0,6.41385,0,0,2025-04-21T17:14:58.791+03:00,0,0,0,0,1,0.25,2025-04-21T17:09:25.354+03:00,98,1.633333333333333,2025-04-21T12:30:07.995+03:00,0.02023345852159405,0
2025-04-21T17:15:06.573+03:00,1745244905.433555,40.95229523723509,29.14029212770079,76.51794,-1,-1,-1,-1,30,30.9981187017281,-9999,21407.82513779167,0.6982421875,-0.63531494140625,-0.50018310546875,21407.82136779167,-3.099742243219524,0.9147816836052697,0.7435618047584872,0.2703565359115601,0.2515824437141418,0.2833034694194794,0.136739194393158,0.08755850791931152,-0.131045937538147,XArbitraryZVertical,0.41816843970253,-0.3172532155065977,-0.8323724637531368,0.1778807465633069,0.5832772850990295,-0.6769139170646667,-0.4489710927009583,0,0,0,-1,-1,21400.046902,unknown,2,2025-04-21T17:14:58.791+03:00,2025-04-21T17:08:51.449+03:00,9,1.825274,0,0,6.41385,0,0,2025-04-21T17:14:58.791+03:00,0,0,0,0,1,0.25,2025-04-21T17:09:25.354+03:00,98,1.633333333333333,2025-04-21T12:30:07.995+03:00,0.02023345852159405,0
2025-04-21T17:15:06.583+03:00,1745244905.433555,40.95229523723509,29.14029212770079,76.51794,-1,-1,-1,-1,30,30.9981187017281,-9999,21407.83521379167,0.6776275634765625,-0.698486328125,-0.43719482421875,21407.83144379167,-3.100076630531691,0.9172740444716511,0.7470704380139633,0.2173226326704025,0.1905073523521423,0.249366506934166,0.1157369017601013,0.04417747259140015,-0.05411383509635925,XArbitraryZVertical,0.4189000767387231,-0.3185719886161831,-0.8312928793201563,0.1788482112030666,0.5825052261352539,-0.6794922947883606,-0.4460692405700684,0,0,0,-1,-1,21400.046902,unknown,2,2025-04-21T17:14:58.791+03:00,2025-04-21T17:08:51.449+03:00,9,1.825274,0,0,6.41385,0,0,2025-04-21T17:14:58.791+03:00,0,0,0,0,1,0.25,2025-04-21T17:09:25.354+03:00,98,1.633333333333333,2025-04-21T12:30:07.995+03:00,0.02023345852159405,0
2025-04-21T17:15:06.593+03:00,1745244905.433555,40.95229523723509,29.14029212770079,76.51794,-1,-1,-1,-1,30,30.9981187017281,-9999,21407.84528879167,0.6497955322265625,-0.7303009033203125,-0.41839599609375,21407.84151879167,-3.100774806496861,0.919507457858652,0.750468682176918,0.2743150591850281,0.1617617309093475,0.2259080708026886,0.09596729278564453,-0.01650458574295044,0.006170004606246948,XArbitraryZVertical,0.4194702370696091,-0.3199411678598788,-0.8303159516368567,0.1796040467747183,0.5816602110862732,-0.68198162317276,-0.4433647394180298,0,0,0,-1,-1,21400.046902,unknown,2,2025-04-21T17:14:58.791+03:00,2025-04-21T17:08:51.449+03:00,9,1.825274,0,0,6.41385,0,0,2025-04-21T17:14:58.791+03:00,0,0,0,0,1,0.25,2025-04-21T17:09:25.354+03:00,98,1.633333333333333,2025-04-21T12:30:07.995+03:00,0.02023345852159405,0
2025-04-21T17:15:06.603+03:00,1745244905.433555,40.95229523723509,29.14029212770079,76.51794,-1,-1,-1,-1,30,30.9981187017281,-9999,21407.85536479167,0.62579345703125,-0.706695556640625,-0.43359375,21407.85159479167,-3.102343010677826,0.9220616402464831,0.7539723253290342,0.3266760110855103,0.1279616802930832,0.1941221803426743,0.0689123272895813,-0.04576092958450317,0.02203536033630371,XArbitraryZVertical,0.4200218885584922,-0.3215057528672077,-0.8293301592379198,0.1800751941469441,0.5808832049369812,-0.6845398545265198,-0.4404313266277313,0,0,0,-1,-1,21400.046902,unknown,2,2025-04-21T17:14:58.791+03:00,2025-04-21T17:08:51.449+03:00,9,1.825274,0,0,6.41385,0,0,2025-04-21T17:14:58.791+03:00,0,0,0,0,1,0.25,2025-04-21T17:09:25.354+03:00,98,1.633333333333333,2025-04-21T12:30:07.995+03:00,0.02023345852159405,0
2025-04-21T17:15:06.613+03:00,1745244905.433555,40.95229523723509,29.14029212770079,76.51794,-1,-1,-1,-1,30,30.9981187017281,-9999,21407.86543979167,0.597320556640625,-0.66900634765625,-0.4159393310546875,21407.86166979167,-3.104845463907449,0.9250924841680135,0.7573540484231089,0.3650476336479187,0.1455731689929962,0.1131759285926819,0.04543024301528931,-0.01969432830810547,0.003679513931274414,XArbitraryZVertical,0.4206234692235563,-0.3231706864620802,-0.8283469663985482,0.1802160962800909,0.5803632140159607,-0.6870011687278748,-0.4372732043266296,0,0,0,-1,-1,21400.046902,unknown,2,2025-04-21T17:14:58.791+03:00,2025-04-21T17:08:51.449+03:00,9,1.825274,0,0,6.41385,0,0,2025-04-21T17:14:58.791+03:00,0,0,0,0,1,0.25,2025-04-21T17:09:25.354+03:00,98,1.633333333333333,2025-04-21T12:30:07.995+03:00,0.02023345852159405,0
2025-04-21T17:15:06.623+03:00,1745244905.433555,40.95229523723509,29.14029212770079,76.51794,-1,-1,-1,-1,30,30.9981187017281,-9999,21407.87551579167,0.565338134765625,-0.6783294677734375,-0.3860931396484375,21407.87174579167,-3.108478314245387,0.9291693870473282,0.759992693120485,0.3512492477893829,0.1528420001268387,0.002138623036444187,0.01663368940353394,0.01990979909896851,0.01787775754928589,XArbitraryZVertical,0.4215233547638835,-0.3246683132404402,-0.827369278906864,0.1799128929266814,0.5806869268417358,-0.6889161467552185,-0.4338170886039734,0,0,0,-1,-1,21400.046902,unknown,2,2025-04-21T17:14:58.791+03:00,2025-04-21T17:08:51.449+03:00,9,1.825274,0,0,6.41385,0,0,2025-04-21T17:14:58.791+03:00,0,0,0,0,1,0.25,2025-04-21T17:09:25.354+03:00,98,1.633333333333333,2025-04-21T12:30:07.995+03:00,0.02023345852159405,0
2025-04-21T17:15:06.634+03:00,1745244905.433555,40.95229523723509,29.14029212770079,76.51794,-1,-1,-1,-1,30,30.9981187017281,-9999,21407.88559079167,0.5560760498046875,-0.7418365478515625,-0.32781982421875,21407.88182079167,-3.112060781805807,0.9329871259765459,0.7616422200077986,0.2526826858520508,0.1120918393135071,-0.04557473585009575,-0.01608693599700928,0.01178145408630371,0.0448266863822937,XArbitraryZVertical,0.4223926932178182,-0.3257675857091307,-0.8266066014642901,0.1793918129459605,0.5814251303672791,-0.6901108622550964,-0.4309197962284088,0,0,0,-1,-1,21400.046902,unknown,2,2025-04-21T17:14:58.791+03:00,2025-04-21T17:08:51.449+03:00,9,1.825274,0,0,6.41385,0,0,2025-04-21T17:14:58.791+03:00,0,0,0,0,1,0.25,2025-04-21T17:09:25.354+03:00,98,1.633333333333333,2025-04-21T12:30:07.995+03:00,0.02023345852159405,0
2025-04-21T17:15:06.644+03:00,1745244905.433555,40.95229523723509,29.14029212770079,76.51794,-1,-1,-1,-1,30,30.9981187017281,-9999,21407.89566679167,0.551483154296875,-0.8420562744140625,-0.2749786376953125,21407.89189679167,-3.115104285768394,0.936210400039472,0.7622314233835289,0.1715992242097855,0.1213132441043854,-0.1307984590530396,-0.02640742063522339,-0.0512993335723877,0.1009824872016907,XArbitraryZVertical,0.4231823692864379,-0.326367176221712,-0.8260981901806365,0.1787816416706355,0.5824834704399109,-0.69053715467453,-0.4288023114204407,0,0,0,-1,-1,21407.78483579167,unknown,2,2025-04-21T17:15:06.529+03:00,2025-04-21T17:08:51.449+03:00,9,1.825274,0,0,6.41385,0,0,2025-04-21T17:14:58.791+03:00,0,0,0,0,1,0.25,2025-04-21T17:09:25.354+03:00,98,1.633333333333333,2025-04-21T12:30:07.995+03:00,0.02023345852159405,0
2025-04-21T17:15:06.654+03:00,1745244905.433555,40.95229523723509,29.14029212770079,76.51794,-1,-1,-1,-1,30,30.9981187017281,-9999,21407.90574179167,0.5163116455078125,-0.924163818359375,-0.267791748046875,21407.90197179167,-3.118131161924013,0.9398376754881094,0.7617058752896,0.1116982623934746,0.1866144090890884,-0.1887524724006653,-0.03284478187561035,-0.1518992781639099,0.1519220471382141,XArbitraryZVertical,0.424227676454171,-0.3264667540231304,-0.8256882511267051,0.1780145473630938,0.5843279361724854,-0.6901569366455078,-0.4269006848335266,0,0,0,-1,-1,21407.78483579167,unknown,2,2025-04-21T17:15:06.529+03:00,2025-04-21T17:08:51.449+03:00,9,1.825274,0,0,6.41385,0,0,2025-04-21T17:14:58.791+03:00,0,0,0,0,1,0.25,2025-04-21T17:09:25.354+03:00,98,1.633333333333333,2025-04-21T12:30:07.995+03:00,0.02023345852159405,0
2025-04-21T17:15:06.664+03:00,1745244905.433555,40.95229523723509,29.14029212770079,76.51794,-1,-1,-1,-1,30,30.9981187017281,-9999,21407.91581779167,0.5307159423828125,-0.9239501953125,-0.2804107666015625,21407.91204779167,-3.12083979618928,0.9440256980120705,0.7608332996572462,0.09134745597839355,0.2642975151538849,-0.178820475935936,-0.07028657197952271,-0.234638512134552,0.1570110619068146,XArbitraryZVertical,0.4255836936186313,-0.3263083565892803,-0.8251855173217924,0.1773979520802324,0.5865981578826904,-0.6895251870155334,-0.4248027503490448,0,0,0,-1,-1,21407.78483579167,unknown,2,2025-04-21T17:15:06.529+03:00,2025-04-21T17:08:51.449+03:00,9,1.825274,0,0,6.41385,0,0,2025-04-21T17:14:58.791+03:00,0,0,0,0,1,0.25,2025-04-21T17:09:25.354+03:00,98,1.633333333333333,2025-04-21T12:30:07.995+03:00,0.02023345852159405,0
2025-04-21T17:15:06.674+03:00,1745244905.433555,40.95229523723509,29.14029212770079,76.51794,-1,-1,-1,-1,30,30.9981187017281,-9999,21407.92589279167,0.570892333984375,-0.84735107421875,-0.3106842041015625,21407.92212279167,-3.123144987539293,0.9482706020032562,0.7596775878944692,0.05040974169969559,0.2528699934482574,-0.2064055651426315,-0.05832719802856445,-0.235262393951416,0.1423625648021698,XArbitraryZVertical,0.427051688519657,-0.3259451380979691,-0.8246780829922798,0.1768967248822172,0.5890430808067322,-0.6886877417564392,-0.4227732419967651,0,0,0,-1,-1,21407.78483579167,unknown,2,2025-04-21T17:15:06.529+03:00,2025-04-21T17:08:51.449+03:00,9,1.825274,0,0,6.41385,0,0,2025-04-21T17:14:58.791+03:00,0,0,0,0,1,0.25,2025-04-21T17:09:25.354+03:00,98,1.633333333333333,2025-04-21T12:30:07.995+03:00,0.02023345852159405,0
2025-04-21T17:15:06.684+03:00,1745244905.433555,40.95229523723509,29.14029212770079,76.51794,-1,-1,-1,-1,30,30.9981187017281,-9999,21407.93596879167,0.578704833984375,-0.7631378173828125,-0.2973480224609375,21407.93219879167,-3.125421005374504,0.9520166688639289,0.7580776657567432,0.03545263037085533,0.188402071595192,-0.2389682978391647,-0.02062720060348511,-0.1598241925239563,0.1105181574821472,XArbitraryZVertical,0.4283551774816912,-0.3254392221847002,-0.8243444094981884,0.1762308442076998,0.5915195345878601,-0.6875268220901489,-0.4212023019790649,0,0,0,-1,-1,21407.78483579167,unknown,2,2025-04-21T17:15:06.529+03:00,2025-04-21T17:08:51.449+03:00,9,1.825274,0,0,6.41385,0,0,2025-04-21T17:14:58.791+03:00,0,0,0,0,1,0.25,2025-04-21T17:09:25.354+03:00,98,1.633333333333333,2025-04-21T12:30:07.995+03:00,0.02023345852159405,0
2025-04-21T17:15:06.694+03:00,1745244905.433555,40.95229523723509,29.14029212770079,76.51794,-1,-1,-1,-1,30,30.9981187017281,-9999,21407.94604379167,0.5676422119140625,-0.732574462890625,-0.2723846435546875,21407.94227379167,-3.127721217739513,0.9551530570173025,0.7559167563588711,0.006566185969859362,0.125886544585228,-0.3034796118736267,-0.01534438133239746,-0.07718169689178467,0.1228539943695068,XArbitraryZVertical,0.4294504416607536,-0.3247634799745723,-0.8242321829327137,0.1753345549075227,0.5940492153167725,-0.6859560012817383,-0.4202019870281219,0,0,0,-1,-1,21407.78483579167,unknown,2,2025-04-21T17:15:06.529+03:00,2025-04-21T17:08:51.449+03:00,9,1.825274,0,0,6.41385,0,0,2025-04-21T17:14:58.791+03:00,0,0,0,0,1,0.25,2025-04-21T17:09:25.354+03:00,98,1.633333333333333,2025-04-21T12:30:07.995+03:00,0.02023345852159405,0
2025-04-21T17:15:06.704+03:00,1745244905.433555,40.95229523723509,29.14029212770079,76.51794,-1,-1,-1,-1,30,30.9981187017281,-9999,21407.95611979167,0.5509033203125,-0.7073211669921875,-0.267425537109375,21407.95234979167,-3.131073318594628,0.9583357546769794,0.7534123447471971,0.112180233001709,0.02655517123639584,-0.3646258115768433,-0.02914518117904663,-0.04844284057617188,0.1469109058380127,XArbitraryZVertical,0.4304243519554405,-0.324171455963551,-0.8242535445356972,0.1739360440521812,0.5967873930931091,-0.6841315627098083,-0.4192954897880554,0,0,0,-1,-1,21407.78483579167,unknown,2,2025-04-21T17:15:06.529+03:00,2025-04-21T17:08:51.449+03:00,9,1.825274,0,0,6.41385,0,0,2025-04-21T17:14:58.791+03:00,0,0,0,0,1,0.25,2025-04-21T17:09:25.354+03:00,98,1.633333333333333,2025-04-21T12:30:07.995+03:00,0.02023345852159405,0
2025-04-21T17:15:06.714+03:00,1745244905.433555,40.95229523723509,29.14029212770079,76.51794,-1,-1,-1,-1,30,30.9981187017281,-9999,21407.96619479167,0.54376220703125,-0.62969970703125,-0.266143798828125,21407.96242479167,-3.135915391203843,0.9610981136422614,0.751675400498226,0.2627683281898499,-0.1216343641281128,-0.3374454975128174,-0.04801338911056519,-0.02445739507675171,0.1508997082710266,XArbitraryZVertical,0.4309223408059408,-0.3242581247730856,-0.8243621617335996,0.1720163974375357,0.5989167094230652,-0.6828636527061462,-0.4183252155780792,0,0,0,-1,-1,21407.78483579167,unknown,2,2025-04-21T17:15:06.529+03:00,2025-04-21T17:08:51.449+03:00,9,1.825274,0,0,6.41385,0,0,2025-04-21T17:14:58.791+03:00,0,0,0,0,1,0.25,2025-04-21T17:09:25.354+03:00,98,1.633333333333333,2025-04-21T12:30:07.995+03:00,0.02023345852159405,0
2025-04-21T17:15:06.724+03:00,1745244905.433555,40.95229523723509,29.14029212770079,76.51794,-1,-1,-1,-1,30,30.9981187017281,-9999,21407.97627079167,0.523529052734375,-0.5540008544921875,-0.2173004150390625,21407.97250079167,3.141104081767479,0.9631402670663245,0.750581211921862,0.3349743485450745,-0.3050206899642944,-0.3257153332233429,-0.05662053823471069,0.0523642897605896,0.1513837575912476,XArbitraryZVertical,0.4308557603632528,-0.3249608245577028,-0.8246268383304959,0.1695707588614234,0.6003827452659607,-0.6820639371871948,-0.4175275564193726,0,0,0,-1,-1,21407.78483579167,unknown,2,2025-04-21T17:15:06.529+03:00,2025-04-21T17:08:51.449+03:00,9,1.825274,0,0,6.41385,0,0,2025-04-21T17:14:58.791+03:00,0,0,0,0,1,0.25,2025-04-21T17:09:25.354+03:00,98,1.633333333333333,2025-04-21T12:30:07.995+03:00,0.02023345852159405,0
2025-04-21T17:15:06.734+03:00,1745244905.433555,40.95229523723509,29.14029212770079,76.51794,-1,-1,-1,-1,30,30.9981187017281,-9999,21407.98634579167,0.484771728515625,-0.5498199462890625,-0.1606597900390625,21407.98257579167,3.134874903188632,0.9639286132941082,0.7496156799842614,0.271013617515564,-0.396913468837738,-0.3447313010692596,-0.07772332429885864,0.1273567676544189,0.2001291215419769,XArbitraryZVertical,0.430250097907632,-0.325837584992875,-0.8251374005727908,0.1669214625768169,0.6012523174285889,-0.6813575029373169,-0.4174294471740723,0,0,0,-1,-1,21407.78483579167,unknown,2,2025-04-21T17:15:06.529+03:00,2025-04-21T17:08:51.449+03:00,9,1.825274,0,0,6.41385,0,0,2025-04-21T17:14:58.791+03:00,0,0,0,0,1,0.25,2025-04-21T17:09:25.354+03:00,98,1.633333333333333,2025-04-21T12:30:07.995+03:00,0.02023345852159405,0
2025-04-21T17:15:06.757+03:00,1745244905.433555,40.95229523723509,29.14029212770079,76.51794,-1,-1,-1,-1,30,30.9981187017281,-9999,21407.99642179167,0.458740234375,-0.587066650390625,-0.0999908447265625,21407.99265179167,3.129447276848582,0.9629622635235908,0.7476035788795878,0.1600894927978516,-0.5407814383506775,-0.4298315346240997,-0.1172012090682983,0.1300634741783142,0.2581326365470886,XArbitraryZVertical,0.429140641159899,-0.326254620710914,-0.8261182747042546,0.1640878857823758,0.6019729971885681,-0.6798833608627319,-0.4187924563884735,0,0,0,-1,-1,21407.78483579167,unknown,2,2025-04-21T17:15:06.529+03:00,2025-04-21T17:08:51.449+03:00,9,1.825274,0,0,6.41385,0,0,2025-04-21T17:14:58.791+03:00,0,0,0,0,1,0.25,2025-04-21T17:09:25.354+03:00,98,1.633333333333333,2025-04-21T12:30:07.995+03:00,0.02023345852159405,0
2025-04-21T17:15:06.760+03:00,1745244905.433555,40.95229523723509,29.14029212770079,76.51794,-1,-1,-1,-1,30,30.9981187017281,-9999,21408.00649679167,0.4735565185546875,-0.61456298828125,-0.08062744140625,21408.00272779167,3.125129130827573,0.9594606962659531,0.7449459595415238,0.04240867123007774,-0.7141590714454651,-0.3657316565513611,-0.1432400345802307,0.09086555242538452,0.3219425082206726,XArbitraryZVertical,0.4272202364687713,-0.32636826562657,-0.8276443221379476,0.161156224916899,0.6019802689552307,-0.67793208360672,-0.4219332635402679,0,0,0,-1,-1,21407.78483579167,unknown,2,2025-04-21T17:15:06.529+03:00,2025-04-21T17:08:51.449+03:00,9,1.825274,0,0,6.41385,0,0,2025-04-21T17:14:58.791+03:00,0,0,0,0,1,0.25,2025-04-21T17:09:25.354+03:00,98,1.633333333333333,2025-04-21T12:30:07.995+03:00,0.02023345852159405,0
2025-04-21T17:15:06.765+03:00,1745244905.433555,40.95229523723509,29.14029212770079,76.51794,-1,-1,-1,-1,30,30.9981187017281,-9999,21408.01657279167,0.482818603515625,-0.5963592529296875,-0.1044464111328125,21408.01280279167,3.123039900766186,0.9528908909886596,0.742109468931025,-0.1302749514579773,-0.8655038475990295,-0.2342862635850906,-0.1272037625312805,0.06128132343292236,0.3463639318943024,XArbitraryZVertical,0.4244046576159034,-0.3261671881070889,-0.8296621595759617,0.1586069296838285,0.6007602214813232,-0.6758441925048828,-0.4269913136959076,0,0,0,-1,-1,21407.78483579167,unknown,2,2025-04-21T17:15:06.529+03:00,2025-04-21T17:08:51.449+03:00,9,1.825274,0,0,6.41385,0,0,2025-04-21T17:14:58.791+03:00,0,0,0,0,1,0.25,2025-04-21T17:09:25.354+03:00,98,1.633333333333333,2025-04-21T12:30:07.995+03:00,0.02023345852159405,0
2025-04-21T17:15:06.776+03:00,1745244905.433555,40.95229523723509,29.14029212770079,76.51794,-1,-1,-1,-1,30,30.9981187017281,-9999,21408.02664779167,0.442596435546875,-0.5932769775390625,-0.1609954833984375,21408.02287879167,3.124108731606582,0.9435783067483626,0.7390283088458713,-0.3475074768066406,-0.8401117324829102,-0.1760902404785156,-0.1156224608421326,0.07721090316772461,0.3293410837650299,XArbitraryZVertical,0.4209761166953938,-0.3254003748517186,-0.8320360960906378,0.1568738815515787,0.5984410047531128,-0.6735700368881226,-0.4337874054908752,0,0,0,-1,-1,21407.78483579167,unknown,2,2025-04-21T17:15:06.529+03:00,2025-04-21T17:08:51.449+03:00,9,1.825274,0,0,6.41385,0,0,2025-04-21T17:14:58.791+03:00,0,0,0,0,1,0.25,2025-04-21T17:09:25.354+03:00,98,1.633333333333333,2025-04-21T12:30:07.995+03:00,0.02023345852159405,0
2025-04-21T17:15:06.785+03:00,1745244905.433555,40.95229523723509,29.14029212770079,76.51794,-1,-1,-1,-1,30,30.9981187017281,-9999,21408.03672379167,0.38232421875,-0.64434814453125,-0.2137603759765625,21408.03295379167,3.127124809173577,0.9330607160016251,0.7349518620564494,-0.4869729578495026,-0.8591296076774597,-0.1881250590085983,-0.1534503698348999,0.07727456092834473,0.2806932032108307,XArbitraryZVertical,0.4174287877821926,-0.3238964513327779,-0.8346530360495333,0.1555584275857858,0.5960467457771301,-0.6705514192581177,-0.441688597202301,0,0,0,-1,-1,21407.78483579167,unknown,2,2025-04-21T17:15:06.529+03:00,2025-04-21T17:08:51.449+03:00,9,1.825274,0,0,6.41385,0,0,2025-04-21T17:14:58.791+03:00,0,0,0,0,1,0.25,2025-04-21T17:09:25.354+03:00,98,1.633333333333333,2025-04-21T12:30:07.995+03:00,0.02023345852159405,0
2025-04-21T17:15:06.795+03:00,1745244905.433555,40.95229523723509,29.14029212770079,76.51794,-1,-1,-1,-1,30,30.9981187017281,-9999,21408.04679879167,0.365875244140625,-0.6702728271484375,-0.247833251953125,21408.04302979167,3.13142054347751,0.9216997211026682,0.7305058788532411,-0.5209598541259766,-0.8212407827377319,-0.1488708406686783,-0.2110353112220764,0.02289849519729614,0.2364689707756042,XArbitraryZVertical,0.4137410401200263,-0.3220306234019893,-0.8373872083847541,0.1545868740773272,0.5933594703674316,-0.6672465205192566,-0.4502292573451996,0,0,0,-1,-1,21407.78483579167,unknown,2,2025-04-21T17:15:06.529+03:00,2025-04-21T17:08:51.449+03:00,9,1.825274,0,0,6.41385,0,0,2025-04-21T17:14:58.791+03:00,0,0,0,0,1,0.25,2025-04-21T17:09:25.354+03:00,98,1.633333333333333,2025-04-21T12:30:07.995+03:00,0.02023345852159405,0
2025-04-21T17:15:06.805+03:00,1745244905.433555,40.95229523723509,29.14029212770079,76.51794,-1,-1,-1,-1,30,30.9981187017281,-9999,21408.05687479167,0.3682403564453125,-0.606597900390625,-0.288909912109375,21408.05310479167,3.134525265148186,0.9112118329711116,0.7266985573546079,-0.2781935930252075,-0.8568259477615356,-0.1635411232709885,-0.2247331142425537,-0.005866944789886475,0.2101477384567261,XArbitraryZVertical,0.4101488782030629,-0.3206047502778261,-0.839913412644306,0.153414286252566,0.5906084179878235,-0.664405882358551,-0.4579809904098511,0,0,0,-1,-1,21407.78483579167,unknown,2,2025-04-21T17:15:06.529+03:00,2025-04-21T17:08:51.449+03:00,9,1.825274,0,0,6.41385,0,0,2025-04-21T17:14:58.791+03:00,0,0,0,0,1,0.25,2025-04-21T17:09:25.354+03:00,98,1.633333333333333,2025-04-21T12:30:07.995+03:00,0.02023345852159405,0
2025-04-21T17:15:06.815+03:00,1745244905.433555,40.95229523723509,29.14029212770079,76.51794,-1,-1,-1,-1,30,30.9981187017281,-9999,21408.06694979167,0.400146484375,-0.5109100341796875,-0.337860107421875,21408.06318079167,3.134010724964657,0.9030298323701573,0.7254005221963574,0.2737996280193329,-0.8504180312156677,-0.09406787157058716,-0.2192777395248413,0.05683743953704834,0.1744216978549957,XArbitraryZVertical,0.4067293688043531,-0.3207887945877012,-0.841829648002749,0.1516194225154407,0.587518036365509,-0.663435161113739,-0.463331550359726,0,0,0,-1,-1,21407.78483579167,unknown,2,2025-04-21T17:15:06.529+03:00,2025-04-21T17:08:51.449+03:00,9,1.825274,0,0,6.41385,0,0,2025-04-21T17:14:58.791+03:00,0,0,0,0,1,0.25,2025-04-21T17:09:25.354+03:00,98,1.633333333333333,2025-04-21T12:30:07.995+03:00,0.02023345852159405,0
2025-04-21T17:15:06.825+03:00,1745244905.433555,40.95229523723509,29.14029212770079,76.51794,-1,-1,-1,-1,30,30.9981187017281,-9999,21408.07702579167,0.46453857421875,-0.4302215576171875,-0.4915008544921875,21408.07325579167,3.129191828112818,0.8984089216648573,0.7278685623265129,0.5171244144439697,-0.7369567155838013,0.01456646434962749,-0.1839416027069092,0.1543698906898499,0.1271601915359497,XArbitraryZVertical,0.4038114322016164,-0.323150432292457,-0.8427364173184968,0.1493500974222215,0.5840880870819092,-0.6652798056602478,-0.4650202393531799,0,0,0,-1,-1,21407.78483579167,unknown,2,2025-04-21T17:15:06.529+03:00,2025-04-21T17:08:51.449+03:00,9,1.825274,0,0,6.41385,0,0,2025-04-21T17:14:58.791+03:00,0,0,0,0,1,0.25,2025-04-21T17:09:25.354+03:00,98,1.633333333333333,2025-04-21T12:30:07.995+03:00,0.02023345852159405,0
2025-04-21T17:15:06.835+03:00,1745244905.433555,40.95229523723509,29.14029212770079,76.51794,-1,-1,-1,-1,30,30.9981187017281,-9999,21408.08710179167,0.475616455078125,-0.4485015869140625,-0.681610107421875,21408.08333179167,3.121965428256894,0.8957537544939754,0.732292455785336,0.8654631972312927,-0.7021492123603821,0.001663182163611054,-0.1160094141960144,0.2383546233177185,-0.02677518129348755,XArbitraryZVertical,0.4011611009950729,-0.3266602705813406,-0.8431014500555332,0.1467747803347171,0.5805480480194092,-0.668576180934906,-0.4647256731987,0,0,0,-1,-1,21407.78483579167,unknown,2,2025-04-21T17:15:06.529+03:00,2025-04-21T17:08:51.449+03:00,9,1.825274,0,0,6.41385,0,0,2025-04-21T17:14:58.791+03:00,0,0,0,0,1,0.25,2025-04-21T17:09:25.354+03:00,98,1.633333333333333,2025-04-21T12:30:07.995+03:00,0.02023345852159405,0
2025-04-21T17:15:06.845+03:00,1745244905.433555,40.95229523723509,29.14029212770079,76.51794,-1,-1,-1,-1,30,30.9981187017281,-9999,21408.09717679167,0.438232421875,-0.5935516357421875,-0.762481689453125,21408.09340679167,3.111526026140965,0.8968385610462724,0.7376979709280534,0.984251081943512,-0.4926881492137909,-0.1452455669641495,-0.102603018283844,0.2240846753120422,-0.2197767198085785,XArbitraryZVertical,0.3994531467512745,-0.3309388408739665,-0.8427806452796979,0.1436569615402994,0.5782194137573242,-0.6725861430168152,-0.4618333280086517,0,0,0,-1,-1,21407.78483579167,unknown,2,2025-04-21T17:15:06.529+03:00,2025-04-21T17:08:51.449+03:00,9,1.825274,0,0,6.41385,0,0,2025-04-21T17:14:58.791+03:00,0,0,0,0,1,0.25,2025-04-21T17:09:25.354+03:00,98,1.633333333333333,2025-04-21T12:30:07.995+03:00,0.02023345852159405,0
2025-04-21T17:15:06.855+03:00,1745244905.433555,40.95229523723509,29.14029212770079,76.51794,-1,-1,-1,-1,30,30.9981187017281,-9999,21408.10725279167,0.4144287109375,-0.6968231201171875,-0.847198486328125,21408.10348279167,3.09968840848338,0.9013405378769311,0.7424313001392844,0.9138835072517395,-0.1703992336988449,-0.1868472993373871,-0.139557421207428,0.08252984285354614,-0.3052368462085724,XArbitraryZVertical,0.3989710352817616,-0.3349622675578851,-0.8419691207766709,0.1403931287148117,0.5777897834777832,-0.6760813593864441,-0.4572447836399078,0,0,0,-1,-1,21407.78483579167,unknown,2,2025-04-21T17:15:06.529+03:00,2025-04-21T17:08:51.449+03:00,9,1.825274,0,0,6.41385,0,0,2025-04-21T17:14:58.791+03:00,0,0,0,0,1,0.25,2025-04-21T17:09:25.354+03:00,98,1.633333333333333,2025-04-21T12:30:07.995+03:00,0.02023345852159405,0
2025-04-21T17:15:06.865+03:00,1745244905.433555,40.95229523723509,29.14029212770079,76.51794,-1,-1,-1,-1,30,30.9981187017281,-9999,21408.11732779167,0.4453582763671875,-0.7410125732421875,-0.8975067138671875,21408.11355779167,3.089730966185073,0.9077636131826443,0.7459835069902478,0.6633959412574768,0.07970461249351501,-0.1468977630138397,-0.1643896698951721,-0.01812851428985596,-0.3951553404331207,XArbitraryZVertical,0.399681005459782,-0.3379845279041021,-0.840815964497705,0.138021161121242,0.5788183212280273,-0.6786944270133972,-0.4520431160926819,0,0,0,-1,-1,21407.78483579167,unknown,2,2025-04-21T17:15:06.529+03:00,2025-04-21T17:08:51.449+03:00,9,1.825274,0,0,6.41385,0,0,2025-04-21T17:14:58.791+03:00,0,0,0,0,1,0.25,2025-04-21T17:09:25.354+03:00,98,1.633333333333333,2025-04-21T12:30:07.995+03:00,0.02023345852159405,0
2025-04-21T17:15:06.875+03:00,1745244905.433555,40.95229523723509,29.14029212770079,76.51794,-1,-1,-1,-1,30,30.9981187017281,-9999,21408.12740379167,0.51263427734375,-0.7554168701171875,-0.875274658203125,21408.12363379167,3.082744309292337,0.9140751499366345,0.748479694766384,0.4637395441532135,0.2217035591602325,-0.08722857385873795,-0.1349580883979797,-0.06048685312271118,-0.4501614272594452,XArbitraryZVertical,0.4009191955304408,-0.3399870588644709,-0.8396377452783012,0.1366779745820948,0.5803163051605225,-0.6805256009101868,-0.4473451972007751,0,0,0,-1,-1,21407.78483579167,unknown,2,2025-04-21T17:15:06.529+03:00,2025-04-21T17:08:51.449+03:00,9,1.825274,0,0,6.41385,0,0,2025-04-21T17:14:58.791+03:00,0,0,0,0,1,0.25,2025-04-21T17:09:25.354+03:00,98,1.633333333333333,2025-04-21T12:30:07.995+03:00,0.02023345852159405,0
2025-04-21T17:15:06.886+03:00,1745244905.433555,40.95229523723509,29.14029212770079,76.51794,-1,-1,-1,-1,30,30.9981187017281,-9999,21408.13747879167,0.5640106201171875,-0.723419189453125,-0.81805419921875,21408.13370879167,3.077447934148165,0.9200409326463505,0.7506031984936984,0.4246382117271423,0.2153375297784805,-0.0498947836458683,-0.06918942928314209,-0.07333683967590332,-0.4322757720947266,XArbitraryZVertical,0.4023204055549369,-0.341524338322875,-0.8384658649886247,0.1359202623212358,0.5818237066268921,-0.6820799708366394,-0.4429988265037537,0,0,0,-1,-1,21407.78483579167,unknown,2,2025-04-21T17:15:06.529+03:00,2025-04-21T17:08:51.449+03:00,9,1.825274,0,0,6.41385,0,0,2025-04-21T17:14:58.791+03:00,0,0,0,0,1,0.25,2025-04-21T17:09:25.354+03:00,98,1.633333333333333,2025-04-21T12:30:07.995+03:00,0.02023345852159405,0
2025-04-21T17:15:06.896+03:00,1745244905.433555,40.95229523723509,29.14029212770079,76.51794,-1,-1,-1,-1,30,30.9981187017281,-9999,21408.14755479167,0.6052703857421875,-0.6232452392578125,-0.7547454833984375,21408.14378479167,3.072116370604923,0.9254185269408625,0.7534041760273279,0.5307589173316956,0.1290504634380341,0.04015794396400452,-0.01865839958190918,-0.03929352760314941,-0.3793414235115051,XArbitraryZVertical,0.4033926221031958,-0.3433919285343243,-0.8373031720143612,0.1352024000668755,0.5826690196990967,-0.6841256022453308,-0.4387127459049225,0,0,0,-1,-1,21407.78483579167,unknown,2,2025-04-21T17:15:06.529+03:00,2025-04-21T17:08:51.449+03:00,9,1.825274,0,0,6.41385,0,0,2025-04-21T17:14:58.791+03:00,0,0,0,0,1,0.25,2025-04-21T17:09:25.354+03:00,98,1.633333333333333,2025-04-21T12:30:07.995+03:00,0.02023345852159405,0
2025-04-21T17:15:06.906+03:00,1745244905.433555,40.95229523723509,29.14029212770079,76.51794,-1,-1,-1,-1,30,30.9981187017281,-9999,21408.15762979167,0.6478729248046875,-0.5153045654296875,-0.6923065185546875,21408.15385979167,3.066349582154023,0.9301811157308262,0.757883501946356,0.668366551399231,0.02412430569529533,0.1726731061935425,0.02298128604888916,0.0641406774520874,-0.3206486105918884,XArbitraryZVertical,0.4039541928792645,-0.3460817944279678,-0.8360260615924083,0.1345684634102645,0.5822890996932983,-0.6873857975006104,-0.4340968132019043,0,0,0,-1,-1,21407.78483579167,unknown,2,2025-04-21T17:15:06.529+03:00,2025-04-21T17:08:51.449+03:00,9,1.825274,0,0,6.41385,0,0,2025-04-21T17:14:58.791+03:00,0,0,0,0,1,0.25,2025-04-21T17:09:25.354+03:00,98,1.633333333333333,2025-04-21T12:30:07.995+03:00,0.02023345852159405,0
2025-04-21T17:15:06.916+03:00,1745244905.433555,40.95229523723509,29.14029212770079,76.51794,-1,-1,-1,-1,30,30.9981187017281,-9999,21408.16770579167,0.6800079345703125,-0.4996185302734375,-0.625396728515625,21408.16393579167,3.060289620232474,0.933993513521059,0.7641690014726058,0.7725386619567871,-0.09021145850419998,0.3020230531692505,0.06741839647293091,0.176632821559906,-0.2630103826522827,XArbitraryZVertical,0.4038664542064062,-0.3496338755174511,-0.8346724281591817,0.1340514655519865,0.5804545283317566,-0.691937267780304,-0.42929607629776,0,0,0,-1,-1,21407.78483579167,unknown,2,2025-04-21T17:15:06.529+03:00,2025-04-21T17:08:51.449+03:00,9,1.825274,0,0,6.41385,0,0,2025-04-21T17:14:58.791+03:00,0,0,0,0,1,0.25,2025-04-21T17:09:25.354+03:00,98,1.633333333333333,2025-04-21T12:30:07.995+03:00,0.02023345852159405,0
2025-04-21T17:15:06.926+03:00,1745244905.433555,40.95229523723509,29.14029212770079,76.51794,-1,-1,-1,-1,30,30.9981187017281,-9999,21408.17778079167,0.69781494140625,-0.5839385986328125,-0.580963134765625,21408.17401179167,3.05385904308138,0.9373297993896147,0.7719685781196667,0.8891909718513489,-0.1300387680530548,0.3998095393180847,0.1024917364120483,0.197928786277771,-0.2012471258640289,XArbitraryZVertical,0.4033318948684863,-0.3539047927119807,-0.8331954500982703,0.1336410873340979,0.5775161385536194,-0.6975471377372742,-0.4241495728492737,0,0,0,-1,-1,21407.78483579167,unknown,2,2025-04-21T17:15:06.529+03:00,2025-04-21T17:08:51.449+03:00,9,1.825274,0,0,6.41385,0,0,2025-04-21T17:14:58.791+03:00,0,0,0,0,1,0.25,2025-04-21T17:09:25.354+03:00,98,1.633333333333333,2025-04-21T12:30:07.995+03:00,0.02023345852159405,0
2025-04-21T17:15:06.936+03:00,1745244905.433555,40.95229523723509,29.14029212770079,76.51794,-1,-1,-1,-1,30,30.9981187017281,-9999,21408.18785679167,0.699066162109375,-0.683441162109375,-0.554229736328125,21408.18408679167,3.046447834641,0.9408276969839353,0.7810154114244017,1.001166343688965,-0.1922899633646011,0.4312442243099213,0.1239414215087891,0.1200624108314514,-0.1625710725784302,XArbitraryZVertical,0.4025223649114844,-0.3588589120452443,-0.8315462859432885,0.1331420867617039,0.5738735198974609,-0.7040009498596191,-0.4183920621871948,0,0,0,-1,-1,21407.78483579167,unknown,2,2025-04-21T17:15:06.529+03:00,2025-04-21T17:08:51.449+03:00,9,1.825274,0,0,6.41385,0,0,2025-04-21T17:14:58.791+03:00,0,0,0,0,1,0.25,2025-04-21T17:09:25.354+03:00,98,1.633333333333333,2025-04-21T12:30:07.995+03:00,0.02023345852159405,0
2025-04-21T17:15:06.946+03:00,1745244905.433555,40.95229523723509,29.14029212770079,76.51794,-1,-1,-1,-1,30,30.9981187017281,-9999,21408.19793179167,0.6862030029296875,-0.7261962890625,-0.5437164306640625,21408.19416279167,3.038410385744487,0.9442898962177199,0.7908070351448311,1.041879177093506,-0.2560667991638184,0.445267379283905,0.129359245300293,0.02748000621795654,-0.1418886482715607,XArbitraryZVertical,0.4014576172463529,-0.3642269509912709,-0.8298176116544,0.1325634229090288,0.5697068572044373,-0.710921049118042,-0.4123410284519196,0,0,0,-1,-1,21407.78483579167,unknown,2,2025-04-21T17:15:06.529+03:00,2025-04-21T17:08:51.449+03:00,9,1.825274,0,0,6.41385,0,0,2025-04-21T17:14:58.791+03:00,0,0,0,0,1,0.25,2025-04-21T17:09:25.354+03:00,98,1.633333333333333,2025-04-21T12:30:07.995+03:00,0.02023345852159405,0
2025-04-21T17:15:06.956+03:00,1745244905.433555,40.95229523723509,29.14029212770079,76.51794,-1,-1,-1,-1,30,30.9981187017281,-9999,21408.20800779167,0.6490936279296875,-0.7239837646484375,-0.55035400390625,21408.20423779167,3.029957142646958,0.9477782930079236,0.8006089763908413,1.059162616729736,-0.2591917514801025,0.4476154744625092,0.1207476258277893,-0.00841599702835083,-0.1374508142471313,XArbitraryZVertical,0.4002728082757781,-0.3696604967968052,-0.8280999051623182,0.1318458173181447,0.5654553771018982,-0.7177802324295044,-0.4062655866146088,0,0,0,-1,-1,21407.78483579167,unknown,2,2025-04-21T17:15:06.529+03:00,2025-04-21T17:08:51.449+03:00,9,1.825274,0,0,6.41385,0,0,2025-04-21T17:14:58.791+03:00,0,0,0,0,1,0.25,2025-04-21T17:09:25.354+03:00,98,1.633333333333333,2025-04-21T12:30:07.995+03:00,0.02023345852159405,0
2025-04-21T17:15:06.966+03:00,1745244905.433555,40.95229523723509,29.14029212770079,76.51794,-1,-1,-1,-1,30,30.9981187017281,-9999,21408.21808279167,0.597381591796875,-0.770050048828125,-0.5920562744140625,21408.21431379167,3.021474287512908,0.9514730897281215,0.8097985687859609,0.939172089099884,-0.2278367727994919,0.3644295036792755,0.08753597736358643,0.0001645684242248535,-0.1500263810157776,XArbitraryZVertical,0.3991828994800573,-0.3748189047026485,-0.8264323562001064,0.1310468612052456,0.5615576505661011,-0.7241482734680176,-0.40032759308815,0,0,0,-1,-1,21407.78483579167,unknown,2,2025-04-21T17:15:06.529+03:00,2025-04-21T17:08:51.449+03:00,9,1.825274,0,0,6.41385,0,0,2025-04-21T17:14:58.791+03:00,0,0,0,0,1,0.25,2025-04-21T17:09:25.354+03:00,98,1.633333333333333,2025-04-21T12:30:07.995+03:00,0.02023345852159405,0
2025-04-21T17:15:06.976+03:00,1745244905.433555,40.95229523723509,29.14029212770079,76.51794,-1,-1,-1,-1,30,30.9981187017281,-9999,21408.22815879167,0.5601043701171875,-0.8471832275390625,-0.6130218505859375,21408.22438879167,3.013669881193226,0.9548150754763028,0.8174877517884676,0.8153848648071289,-0.229383796453476,0.250298947095871,0.03905051946640015,-0.04062038660049438,-0.1968363523483276,XArbitraryZVertical,0.3982004714936023,-0.3792445509479186,-0.8250270310303478,0.1301550486048641,0.5583311319351196,-0.7294296026229858,-0.3952199220657349,0,0,0,-1,-1,21407.78483579167,unknown,2,2025-04-21T17:15:06.529+03:00,2025-04-21T17:08:51.449+03:00,9,1.825274,0,0,6.41385,0,0,2025-04-21T17:14:58.791+03:00,0,0,0,0,1,0.25,2025-04-21T17:09:25.354+03:00,98,1.633333333333333,2025-04-21T12:30:07.995+03:00,0.02023345852159405,0
2025-04-21T17:15:06.986+03:00,1745244905.433555,40.95229523723509,29.14029212770079,76.51794,-1,-1,-1,-1,30,30.9981187017281,-9999,21408.23823379167,0.5389556884765625,-0.8960418701171875,-0.6387786865234375,21408.23446479167,3.005684366997252,0.9580145494752428,0.8233854342034485,0.7277349233627319,-0.2832909822463989,0.08325005322694778,0.00404059886932373,-0.113731861114502,-0.2220714390277863,XArbitraryZVertical,0.3972995073144945,-0.3829855232297426,-0.8239477395201044,0.1287833690767803,0.556063711643219,-0.733451247215271,-0.3909503817558289,0,0,0,-1,-1,21407.78483579167,unknown,2,2025-04-21T17:15:06.529+03:00,2025-04-21T17:08:51.449+03:00,9,1.825274,0,0,6.41385,0,0,2025-04-21T17:14:58.791+03:00,0,0,0,0,1,0.25,2025-04-21T17:09:25.354+03:00,98,1.633333333333333,2025-04-21T12:30:07.995+03:00,0.02023345852159405,0
2025-04-21T17:15:06.996+03:00,1745244905.433555,40.95229523723509,29.14029212770079,76.51794,-1,-1,-1,-1,30,30.9981187017281,-9999,21408.24830979167,0.537139892578125,-0.8603515625,-0.6873321533203125,21408.24453979167,2.997250017796141,0.9604302597323614,0.8273680821243826,0.6790021061897278,-0.4457569718360901,-0.09059930592775345,-0.01565283536911011,-0.1598891615867615,-0.2508500218391418,XArbitraryZVertical,0.3961917622490592,-0.386092962683836,-0.823359300326086,0.1266635832620008,0.5546085238456726,-0.7361525893211365,-0.3879286348819733,0,0,0,-1,-1,21407.78483579167,unknown,2,2025-04-21T17:15:06.529+03:00,2025-04-21T17:08:51.449+03:00,9,1.825274,0,0,6.41385,0,0,2025-04-21T17:14:58.791+03:00,0,0,0,0,1,0.25,2025-04-21T17:09:25.354+03:00,98,1.633333333333333,2025-04-21T12:30:07.995+03:00,0.02023345852159405,0
2025-04-21T17:15:07.006+03:00,1745244905.433555,40.95229523723509,29.14029212770079,76.51794,-1,-1,-1,-1,30,30.9981187017281,-9999,21408.25838579167,0.532440185546875,-0.7827301025390625,-0.71685791015625,21408.25461579167,2.989116570223226,0.9630023786966767,0.8297965477525631,0.4659593403339386,-0.2382314801216125,-0.1284377723932266,-0.01699531078338623,-0.1225574016571045,-0.301853358745575,XArbitraryZVertical,0.3953768479684887,-0.3885070930302421,-0.8229666424360734,0.1243589445438342,0.554135262966156,-0.737794041633606,-0.3854787647724152,0,0,0,-1,-1,21407.78483579167,unknown,2,2025-04-21T17:15:06.529+03:00,2025-04-21T17:08:51.449+03:00,9,1.825274,0,0,6.41385,0,0,2025-04-21T17:14:58.791+03:00,0,0,0,0,1,0.25,2025-04-21T17:09:25.354+03:00,98,1.633333333333333,2025-04-21T12:30:07.995+03:00,0.02023345852159405,0
2025-04-21T17:15:07.017+03:00,1745244905.433555,40.95229523723509,29.14029212770079,76.51794,-1,-1,-1,-1,30,30.9981187017281,-9999,21408.26846079167,0.53948974609375,-0.7407684326171875,-0.7415008544921875,21408.26469079167,2.983417764558661,0.9657224220800872,0.8307558705429067,0.2756936550140381,-0.0401448979973793,-0.1373524963855743,-0.0221591591835022,-0.04428869485855103,-0.3332905471324921,XArbitraryZVertical,0.3952673486171063,-0.3898462310687126,-0.8226259430289122,0.1227599906301318,0.5545992851257324,-0.7384412884712219,-0.3835672736167908,0,0,0,-1,-1,21407.78483579167,unknown,2,2025-04-21T17:15:06.529+03:00,2025-04-21T17:08:51.449+03:00,9,1.825274,0,0,6.41385,0,0,2025-04-21T17:14:58.791+03:00,0,0,0,0,1,0.25,2025-04-21T17:09:25.354+03:00,98,1.633333333333333,2025-04-21T12:30:07.995+03:00,0.02023345852159405,0
2025-04-21T17:15:07.027+03:00,1745244905.433555,40.95229523723509,29.14029212770079,76.51794,-1,-1,-1,-1,30,30.9981187017281,-9999,21408.27853679167,0.5625,-0.7803192138671875,-0.7461700439453125,21408.27476679167,2.980281615391581,0.9687517440268505,0.8309873373283112,0.1088631302118301,0.192975178360939,-0.05848057940602303,-0.01612812280654907,-0.002171039581298828,-0.3597121238708496,XArbitraryZVertical,0.3958721215270298,-0.3903727554349206,-0.8221816479622249,0.1221135631020707,0.5556179881095886,-0.7385973334312439,-0.3817887604236603,0,0,0,-1,-1,21407.78483579167,unknown,2,2025-04-21T17:15:06.529+03:00,2025-04-21T17:08:51.449+03:00,9,1.825274,0,0,6.41385,0,0,2025-04-21T17:14:58.791+03:00,0,0,0,0,1,0.25,2025-04-21T17:09:25.354+03:00,98,1.633333333333333,2025-04-21T12:30:07.995+03:00,0.02023345852159405,0
2025-04-21T17:15:07.037+03:00,1745244905.433555,40.95229523723509,29.14029212770079,76.51794,-1,-1,-1,-1,30,30.9981187017281,-9999,21408.28861179167,0.5791473388671875,-0.814605712890625,-0.76898193359375,21408.28484179167,2.978652778388149,0.9728845880470938,0.831500388416318,0.1532654166221619,0.3701051473617554,0.0148902703076601,0.005622208118438721,-0.04137605428695679,-0.3668941855430603,XArbitraryZVertical,0.3971872428467026,-0.3906460712918093,-0.8213794096738882,0.1223677733773829,0.5568778514862061,-0.7389430999755859,-0.3792758882045746,0,0,0,-1,-1,21407.78483579167,unknown,2,2025-04-21T17:15:06.529+03:00,2025-04-21T17:08:51.449+03:00,9,1.825274,0,0,6.41385,0,0,2025-04-21T17:14:58.791+03:00,0,0,0,0,1,0.25,2025-04-21T17:09:25.354+03:00,98,1.633333333333333,2025-04-21T12:30:07.995+03:00,0.02023345852159405,0
2025-04-21T17:15:07.047+03:00,1745244905.433555,40.95229523723509,29.14029212770079,76.51794,-1,-1,-1,-1,30,30.9981187017281,-9999,21408.29868779167,0.5729217529296875,-0.777008056640625,-0.785125732421875,21408.29491779167,2.976288332659228,0.9790195070181624,0.8328545212571232,0.2670513689517975,0.5029606819152832,0.02833843603730202,0.02078425884246826,-0.07475078105926514,-0.3936881721019745,XArbitraryZVertical,0.3990699419653048,-0.3912752476215297,-0.8200858603453924,0.1229060407564461,0.5583630800247192,-0.7398548126220703,-0.3752937316894531,0,0,0,-1,-1,21407.78483579167,unknown,2,2025-04-21T17:15:06.529+03:00,2025-04-21T17:08:51.449+03:00,9,1.825274,0,0,6.41385,0,0,2025-04-21T17:14:58.791+03:00,0,0,0,0,1,0.25,2025-04-21T17:09:25.354+03:00,98,1.633333333333333,2025-04-21T12:30:07.995+03:00,0.02023345852159405,0
2025-04-21T17:15:07.057+03:00,1745244905.433555,40.95229523723509,29.14029212770079,76.51794,-1,-1,-1,-1,30,30.9981187017281,-9999,21408.30876279167,0.55523681640625,-0.6648712158203125,-0.783294677734375,21408.30499379167,2.972063915528357,0.9878327941862777,0.8352525492637387,0.4706741869449615,0.616643488407135,0.05604593083262444,0.01275557279586792,-0.03554195165634155,-0.4157451987266541,XArbitraryZVertical,0.4015425278963031,-0.3925217824539012,-0.8181987810549165,0.123454302775575,0.5601661801338196,-0.7414659857749939,-0.3693805038928986,0,0,0,-1,-1,21407.78483579167,unknown,2,2025-04-21T17:15:06.529+03:00,2025-04-21T17:08:51.449+03:00,9,1.825274,0,0,6.41385,0,0,2025-04-21T17:14:58.791+03:00,0,0,0,0,1,0.25,2025-04-21T17:09:25.354+03:00,98,1.633333333333333,2025-04-21T12:30:07.995+03:00,0.02023345852159405,0
2025-04-21T17:15:07.067+03:00,1745244905.433555,40.95229523723509,29.14029212770079,76.51794,-1,-1,-1,-1,30,30.9981187017281,-9999,21408.31883879167,0.5425567626953125,-0.5565185546875,-0.7892303466796875,21408.31506879167,2.965693111705769,0.9993174084646035,0.8389566756684282,0.6229282021522522,0.7217531204223633,0.1000104621052742,-0.006820559501647949,0.07907521724700928,-0.4218596816062927,XArbitraryZVertical,0.4044943893301997,-0.3945463296725416,-0.8156888130790133,0.1239723993014618,0.5620573759078979,-0.7439463138580322,-0.3614349663257599,0,0,0,-1,-1,21407.78483579167,unknown,2,2025-04-21T17:15:06.529+03:00,2025-04-21T17:08:51.449+03:00,9,1.825274,0,0,6.41385,0,0,2025-04-21T17:14:58.791+03:00,0,0,0,0,1,0.25,2025-04-21T17:09:25.354+03:00,98,1.633333333333333,2025-04-21T12:30:07.995+03:00,0.02023345852159405,0
2025-04-21T17:15:07.077+03:00,1745244905.433555,40.95229523723509,29.14029212770079,76.51794,-1,-1,-1,-1,30,30.9981187017281,-9999,21408.32891379167,0.5352020263671875,-0.536376953125,-0.773162841796875,21408.32514479167,2.95865736288537,1.012494218364433,0.8434904636043811,0.6331296563148499,0.8545031547546387,0.154685378074646,-0.0213477611541748,0.1904498934745789,-0.4370230138301849,XArbitraryZVertical,0.4078598137580338,-0.3969215852791246,-0.8127318795276745,0.1247814547246475,0.5639044642448425,-0.7469683289527893,-0.3522072434425354,0,0,0,-1,-1,21407.78483579167,unknown,2,2025-04-21T17:15:06.529+03:00,2025-04-21T17:08:51.449+03:00,9,1.825274,0,0,6.41385,0,0,2025-04-21T17:14:58.791+03:00,0,0,0,0,1,0.25,2025-04-21T17:09:25.354+03:00,98,1.633333333333333,2025-04-21T12:30:07.995+03:00,0.02023345852159405,0
2025-04-21T17:15:07.087+03:00,1745244905.433555,40.95229523723509,29.14029212770079,76.51794,-1,-1,-1,-1,30,30.9981187017281,-9999,21408.33898979167,0.5240936279296875,-0.6352386474609375,-0.7149658203125,21408.33521979167,2.952449581219587,1.026297606355763,0.847819095682217,0.4879026710987091,0.9596245288848877,0.1460181325674057,-0.03073912858963013,0.2134623527526855,-0.4304507076740265,XArbitraryZVertical,0.4116315521118322,-0.3990029935810996,-0.8096108548511411,0.1260410548469008,0.5659412145614624,-0.7498392462730408,-0.3427121639251709,0,0,0,-1,-1,21407.78483579167,unknown,2,2025-04-21T17:15:06.529+03:00,2025-04-21T17:08:51.449+03:00,9,1.825274,0,0,6.41385,0,0,2025-04-21T17:14:58.791+03:00,0,0,0,0,1,0.25,2025-04-21T17:09:25.354+03:00,98,1.633333333333333,2025-04-21T12:30:07.995+03:00,0.02023345852159405,0
2025-04-21T17:15:07.097+03:00,1745244905.433555,40.95229523723509,29.14029212770079,76.51794,-1,-1,-1,-1,30,30.9981187017281,-9999,21408.34906479167,0.5110015869140625,-0.7643890380859375,-0.604644775390625,21408.34529579167,2.948485263117536,1.039554926982396,0.8510748333435708,0.3131805062294006,1.08194887638092,0.1438784748315811,-0.04423320293426514,0.1167508363723755,-0.3810249865055084,XArbitraryZVertical,0.4157433809149023,-0.4002337522070529,-0.8066093923128143,0.1278730347972323,0.5683268308639526,-0.7519893646240234,-0.3339407742023468,0,0,0,-1,-1,21407.78483579167,unknown,2,2025-04-21T17:15:06.529+03:00,2025-04-21T17:08:51.449+03:00,9,1.825274,0,0,6.41385,0,0,2025-04-21T17:14:58.791+03:00,0,0,0,0,1,0.25,2025-04-21T17:09:25.354+03:00,98,1.633333333333333,2025-04-21T12:30:07.995+03:00,0.02023345852159405,0
2025-04-21T17:15:07.107+03:00,1745244905.433555,40.95229523723509,29.14029212770079,76.51794,-1,-1,-1,-1,30,30.9981187017281,-9999,21408.35914079167,0.4962310791015625,-0.8268585205078125,-0.52093505859375,21408.35537079167,2.946147634643617,1.052797980970538,0.8536292681558345,0.2091422528028488,1.196206569671631,0.1479051858186722,-0.06002694368362427,-0.01071822643280029,-0.2792115807533264,XArbitraryZVertical,0.4202459967924191,-0.4008450026999298,-0.8035936126464798,0.1302067611565177,0.5710285305976868,-0.7536706924438477,-0.3254331648349762,0,0,0,-1,-1,21407.78483579167,unknown,2,2025-04-21T17:15:06.529+03:00,2025-04-21T17:08:51.449+03:00,9,1.825274,0,0,6.41385,0,0,2025-04-21T17:14:58.791+03:00,0,0,0,0,1,0.25,2025-04-21T17:09:25.354+03:00,98,1.633333333333333,2025-04-21T12:30:07.995+03:00,0.02023345852159405,0
2025-04-21T17:15:07.117+03:00,1745244905.433555,40.95229523723509,29.14029212770079,76.51794,-1,-1,-1,-1,30,30.9981187017281,-9999,21408.36921679167,0.49237060546875,-0.8002777099609375,-0.446746826171875,21408.36544679167,2.944490421809317,1.066285859141223,0.8560213441705825,0.2332302927970886,1.227510452270508,0.1662537008523941,-0.07755488157272339,-0.07161766290664673,-0.2041055560112,XArbitraryZVertical,0.4249812471367193,-0.401218393136665,-0.8004806342683919,0.1328360257410719,0.5737860202789307,-0.7552407383918762,-0.3168294727802277,0,0,0,-1,-1,21407.78483579167,unknown,2,2025-04-21T17:15:06.529+03:00,2025-04-21T17:08:51.449+03:00,9,1.825274,0,0,6.41385,0,0,2025-04-21T17:14:58.791+03:00,0,0,0,0,1,0.25,2025-04-21T17:09:25.354+03:00,98,1.633333333333333,2025-04-21T12:30:07.995+03:00,0.02023345852159405,0
2025-04-21T17:15:07.127+03:00,1745244905.433555,40.95229523723509,29.14029212770079,76.51794,-1,-1,-1,-1,30,30.9981187017281,-9999,21408.37929179167,0.5049896240234375,-0.7420501708984375,-0.3587493896484375,21408.37552179167,2.941760246659863,1.080856353191929,0.8591704632611462,0.3859884142875671,1.229619383811951,0.2058575600385666,-0.08386927843093872,-0.0429764986038208,-0.1394317150115967,XArbitraryZVertical,0.4297972181914358,-0.402015927539743,-0.7970628272628149,0.1354559462147067,0.5762398838996887,-0.7573010921478271,-0.3073150813579559,0,0,0,-1,-1,21407.78483579167,unknown,2,2025-04-21T17:15:06.529+03:00,2025-04-21T17:08:51.449+03:00,9,1.825274,0,0,6.41385,0,0,2025-04-21T17:14:58.791+03:00,0,0,0,0,1,0.25,2025-04-21T17:09:25.354+03:00,98,1.633333333333333,2025-04-21T12:30:07.995+03:00,0.02023345852159405,0
2025-04-21T17:15:07.137+03:00,1745244905.433555,40.95229523723509,29.14029212770079,76.51794,-1,-1,-1,-1,30,30.9981187017281,-9999,21408.38936779167,0.520660400390625,-0.708648681640625,-0.2866363525390625,21408.38559779167,2.936763184825029,1.096747121371656,0.8631405571746046,0.543144702911377,1.175232768058777,0.1915777027606964,-0.07338118553161621,0.01783782243728638,-0.06200441718101501,XArbitraryZVertical,0.434526437139881,-0.4035025439727304,-0.7933594789000814,0.1376702233687176,0.5783707499504089,-0.7598878145217896,-0.2967449426651001,0,0,0,-1,-1,21407.78483579167,unknown,2,2025-04-21T17:15:06.529+03:00,2025-04-21T17:08:51.449+03:00,9,1.825274,0,0,6.41385,0,0,2025-04-21T17:14:58.791+03:00,0,0,0,0,1,0.25,2025-04-21T17:09:25.354+03:00,98,1.633333333333333,2025-04-21T12:30:07.995+03:00,0.02023345852159405,0
2025-04-21T17:15:07.147+03:00,1745244905.433555,40.95229523723509,29.14029212770079,76.51794,-1,-1,-1,-1,30,30.9981187017281,-9999,21408.39944279167,0.5257720947265625,-0.718048095703125,-0.223785400390625,21408.39567279167,2.929965849885284,1.113551426121327,0.8674091837410962,0.6093389391899109,1.132474422454834,0.1744067072868347,-0.05969929695129395,0.05400717258453369,-0.001086533069610596,XArbitraryZVertical,0.4391630328390713,-0.4054145360289542,-0.789508113013449,0.1394694074438932,0.5803596973419189,-0.7626557350158691,-0.2855497598648071,0,0,0,-1,-1,21407.78483579167,unknown,2,2025-04-21T17:15:06.529+03:00,2025-04-21T17:08:51.449+03:00,9,1.825274,0,0,6.41385,0,0,2025-04-21T17:14:58.791+03:00,0,0,0,0,1,0.25,2025-04-21T17:09:25.354+03:00,98,1.633333333333333,2025-04-21T12:30:07.995+03:00,0.02023345852159405,0
2025-04-21T17:15:07.158+03:00,1745244905.433555,40.95229523723509,29.14029212770079,76.51794,-1,-1,-1,-1,30,30.9981187017281,-9999,21408.40951879167,0.542724609375,-0.762451171875,-0.195159912109375,21408.40574879167,2.922461925357267,1.130096509324485,0.8713966118503348,0.5882325768470764,1.004162192344666,0.1324627101421356,-0.05647724866867065,0.04718083143234253,0.05082419514656067,XArbitraryZVertical,0.4435454527614926,-0.4073851342462388,-0.7857793824149452,0.1409089920149228,0.5822492837905884,-0.7652287483215332,-0.2746095657348633,0,0,0,-1,-1,21407.78483579167,unknown,2,2025-04-21T17:15:06.529+03:00,2025-04-21T17:08:51.449+03:00,9,1.825274,0,0,6.41385,0,0,2025-04-21T17:14:58.791+03:00,0,0,0,0,1,0.25,2025-04-21T17:09:25.354+03:00,98,1.633333333333333,2025-04-21T12:30:07.995+03:00,0.02023345852159405,0
2025-04-21T17:15:07.168+03:00,1745244905.433555,40.95229523723509,29.14029212770079,76.51794,-1,-1,-1,-1,30,30.9981187017281,-9999,21408.41959379167,0.5783843994140625,-0.78717041015625,-0.154083251953125,21408.41582479167,2.915525022382806,1.144966867640578,0.8750859673114053,0.486084908246994,0.9083572030067444,0.1630230247974396,-0.04096871614456177,0.00514751672744751,0.06959342956542969,XArbitraryZVertical,0.4473851311541249,-0.4092308466932924,-0.7824051009489478,0.1421929244843941,0.5836933851242065,-0.7675986289978027,-0.2647533118724823,0,0,0,-1,-1,21407.78483579167,unknown,2,2025-04-21T17:15:06.529+03:00,2025-04-21T17:08:51.449+03:00,9,1.825274,0,0,6.41385,0,0,2025-04-21T17:14:58.791+03:00,0,0,0,0,1,0.25,2025-04-21T17:09:25.354+03:00,98,1.633333333333333,2025-04-21T12:30:07.995+03:00,0.02023345852159405,0
2025-04-21T17:15:07.178+03:00,1745244905.433555,40.95229523723509,29.14029212770079,76.51794,-1,-1,-1,-1,30,30.9981187017281,-9999,21408.42966979167,0.6047821044921875,-0.755706787109375,-0.074798583984375,21408.42589979167,2.910877042410907,1.157675905210569,0.8785195281064477,0.3583545982837677,0.9154869318008423,0.1986006945371628,-0.006209194660186768,-0.01737558841705322,0.1021711230278015,XArbitraryZVertical,0.4508519242126048,-0.4106158423083884,-0.7793727110778821,0.1438933481263837,0.5845935940742493,-0.769794762134552,-0.2562543451786041,0,0,0,-1,-1,21407.78483579167,unknown,2,2025-04-21T17:15:06.529+03:00,2025-04-21T17:08:51.449+03:00,9,1.825274,0,0,6.41385,0,0,2025-04-21T17:14:58.791+03:00,0,0,0,0,1,0.25,2025-04-21T17:09:25.354+03:00,98,1.633333333333333,2025-04-21T12:30:07.995+03:00,0.02023345852159405,0
2025-04-21T17:15:07.188+03:00,1745244905.433555,40.95229523723509,29.14029212770079,76.51794,-1,-1,-1,-1,30,30.9981187017281,-9999,21408.43974479167,0.5677947998046875,-0.7239837646484375,0.0020599365234375,21408.43597579167,2.907304352927273,1.169558777856765,0.8815728920726388,0.3083944916725159,0.9002408385276794,0.178431510925293,0.01935142278671265,0.01603347063064575,0.1735720187425613,XArbitraryZVertical,0.4542507411964781,-0.4116685379386838,-0.7764908952325639,0.1457634957235313,0.5854306221008301,-0.7717400789260864,-0.2483705580234528,0,0,0,-1,-1,21407.78483579167,unknown,2,2025-04-21T17:15:06.529+03:00,2025-04-21T17:08:51.449+03:00,9,1.825274,0,0,6.41385,0,0,2025-04-21T17:14:58.791+03:00,0,0,0,0,1,0.25,2025-04-21T17:09:25.354+03:00,98,1.633333333333333,2025-04-21T12:30:07.995+03:00,0.02023345852159405,0
2025-04-21T17:15:07.198+03:00,1745244905.433555,40.95229523723509,29.14029212770079,76.51794,-1,-1,-1,-1,30,30.9981187017281,-9999,21408.44982079167,0.55206298828125,-0.713653564453125,0.060272216796875,21408.44605079167,2.903701569491741,1.181120768797681,0.8848646504087226,0.3643464744091034,0.843911349773407,0.2706981003284454,-0.01811522245407104,0.04984563589096069,0.2426789402961731,XArbitraryZVertical,0.4574556281739394,-0.4128254401325954,-0.7736356952365951,0.1476386598726646,0.5859100222587585,-0.7738292813301086,-0.2406190037727356,0,0,0,-1,-1,21407.78483579167,unknown,2,2025-04-21T17:15:06.529+03:00,2025-04-21T17:08:51.449+03:00,9,1.825274,0,0,6.41385,0,0,2025-04-21T17:14:58.791+03:00,0,0,0,0,1,0.25,2025-04-21T17:09:25.354+03:00,98,1.633333333333333,2025-04-21T12:30:07.995+03:00,0.02023345852159405,0
2025-04-21T17:15:07.208+03:00,1745244905.433555,40.95229523723509,29.14029212770079,76.51794,-1,-1,-1,-1,30,30.9981187017281,-9999,21408.45989679167,0.5560455322265625,-0.706085205078125,0.100555419921875,21408.45612679167,2.899641013298563,1.192599525839368,0.8890710949462948,0.4208443760871887,0.7929549813270569,0.3005217611789703,-0.03354024887084961,0.06283324956893921,0.2929461002349854,XArbitraryZVertical,0.4603580639957029,-0.4144074475791442,-0.7706879935627658,0.1495890596167998,0.5856032371520996,-0.7764867544174194,-0.2326738387346268,0,0,0,-1,-1,21407.78483579167,unknown,2,2025-04-21T17:15:06.529+03:00,2025-04-21T17:08:51.449+03:00,9,1.825274,0,0,6.41385,0,0,2025-04-21T17:14:58.791+03:00,0,0,0,0,1,0.25,2025-04-21T17:09:25.354+03:00,98,1.633333333333333,2025-04-21T12:30:07.995+03:00,0.02023345852159405,0
2025-04-21T17:15:07.218+03:00,1745244905.433555,40.95229523723509,29.14029212770079,76.51794,-1,-1,-1,-1,30,30.9981187017281,-9999,21408.46997179167,0.5467376708984375,-0.706787109375,0.106109619140625,21408.46620179167,2.894952901720555,1.203647499040623,0.8935405839270807,0.4352594912052155,0.668781042098999,0.3075310289859772,-0.028847336769104,0.07321023941040039,0.3254974484443665,XArbitraryZVertical,0.4628919012751753,-0.4162452160962472,-0.7678395165784947,0.1513056363714694,0.5848928689956665,-0.7792953848838806,-0.2249420136213303,0,0,0,-1,-1,21407.78483579167,unknown,2,2025-04-21T17:15:06.529+03:00,2025-04-21T17:08:51.449+03:00,9,1.825274,0,0,6.41385,0,0,2025-04-21T17:14:58.791+03:00,0,0,0,0,1,0.25,2025-04-21T17:09:25.354+03:00,98,1.633333333333333,2025-04-21T12:30:07.995+03:00,0.02023345852159405,0
2025-04-21T17:15:07.228+03:00,1745244905.433555,40.95229523723509,29.14029212770079,76.51794,-1,-1,-1,-1,30,30.9981187017281,-9999,21408.48004779167,0.5475311279296875,-0.724456787109375,0.1127166748046875,21408.47627779167,2.890453609833176,1.213193062921932,0.8978222292020342,0.3690139055252075,0.5277679562568665,0.2971652150154114,-0.03714478015899658,0.07518428564071655,0.3242884278297424,XArbitraryZVertical,0.464892530706901,-0.4180736146263445,-0.7653465388764723,0.152754595787259,0.5838824510574341,-0.7819713354110718,-0.218178778886795,0,0,0,-1,-1,21407.78483579167,unknown,2,2025-04-21T17:15:06.529+03:00,2025-04-21T17:08:51.449+03:00,9,1.825274,0,0,6.41385,0,0,2025-04-21T17:14:58.791+03:00,0,0,0,0,1,0.25,2025-04-21T17:09:25.354+03:00,98,1.633333333333333,2025-04-21T12:30:07.995+03:00,0.02023345852159405,0
2025-04-21T17:15:07.238+03:00,1745244905.433555,40.95229523723509,29.14029212770079,76.51794,-1,-1,-1,-1,30,30.9981187017281,-9999,21408.49012279167,0.5255584716796875,-0.7768402099609375,0.107574462890625,21408.48635279167,2.887226846415243,1.220633196458431,0.9015086217684518,0.2700090706348419,0.4581300616264343,0.2460142970085144,-0.03524678945541382,0.05980712175369263,0.3255549669265747,XArbitraryZVertical,0.4664340857702327,-0.4195474891786973,-0.7633290543400177,0.1541034631193082,0.5827779173851013,-0.7842637896537781,-0.2128382921218872,0,0,0,-1,-1,21407.78483579167,unknown,2,2025-04-21T17:15:06.529+03:00,2025-04-21T17:08:51.449+03:00,9,1.825274,0,0,6.41385,0,0,2025-04-21T17:14:58.791+03:00,0,0,0,0,1,0.25,2025-04-21T17:09:25.354+03:00,98,1.633333333333333,2025-04-21T12:30:07.995+03:00,0.02023345852159405,0
2025-04-21T17:15:07.258+03:00,1745244905.433555,40.95229523723509,29.14029212770079,76.51794,-1,-1,-1,-1,30,30.9981187017281,-9999,21408.50019879167,0.48016357421875,-0.857513427734375,0.1066741943359375,21408.49642879167,2.88483585017701,1.2268559621494,0.9041770662441971,0.1823378056287766,0.4069622159004211,0.1497969478368759,-0.05656033754348755,0.009076476097106934,0.3160758018493652,XArbitraryZVertical,0.4678475093063036,-0.4205568476727494,-0.7616758386543108,0.1552435272274171,0.582118809223175,-0.7859165668487549,-0.2085012942552567,0,0,0,-1,-1,21407.78483579167,unknown,2,2025-04-21T17:15:06.529+03:00,2025-04-21T17:08:51.449+03:00,9,1.825274,0,0,6.41385,0,0,2025-04-21T17:14:58.791+03:00,0,0,0,0,1,0.25,2025-04-21T17:09:25.354+03:00,98,1.633333333333333,2025-04-21T12:30:07.995+03:00,0.02023345852159405,0
2025-04-21T17:15:07.262+03:00,1745244905.433555,40.95229523723509,29.14029212770079,76.51794,-1,-1,-1,-1,30,30.9981187017281,-9999,21408.51027379167,0.4639892578125,-0.9049835205078125,0.1303253173828125,21408.50650379167,2.883192057758724,1.231929934516839,0.9057279627289727,0.1208475604653358,0.3376630246639252,0.08298983424901962,-0.1018552780151367,-0.07063865661621094,0.3118136525154114,XArbitraryZVertical,0.4691653317049605,-0.4210868729845929,-0.7603920324372444,0.1561202228254946,0.5820187926292419,-0.7868745923042297,-0.2051394730806351,0,0,0,-1,-1,21407.78483579167,unknown,2,2025-04-21T17:15:06.529+03:00,2025-04-21T17:08:51.449+03:00,9,1.825274,0,0,6.41385,0,0,2025-04-21T17:14:58.791+03:00,0,0,0,0,1,0.25,2025-04-21T17:09:25.354+03:00,98,1.633333333333333,2025-04-21T12:30:07.995+03:00,0.02023345852159405,0
2025-04-21T17:15:07.268+03:00,1745244905.433555,40.95229523723509,29.14029212770079,76.51794,-1,-1,-1,-1,30,30.9981187017281,-9999,21408.52034979167,0.496124267578125,-0.875732421875,0.1468353271484375,21408.51657979167,2.881589155785324,1.236248681211341,0.9066513274416391,0.1240617260336876,0.2626106441020966,0.02375447005033493,-0.1182237267494202,-0.1175394654273987,0.3327107131481171,XArbitraryZVertical,0.4703088143886447,-0.4214462122525974,-0.7593708405120704,0.1566801961038925,0.5822130441665649,-0.7874440550804138,-0.202385425567627,0,0,0,-1,-1,21407.78483579167,unknown,2,2025-04-21T17:15:06.529+03:00,2025-04-21T17:08:51.449+03:00,9,1.825274,0,0,6.41385,0,0,2025-04-21T17:14:58.791+03:00,0,0,0,0,1,0.25,2025-04-21T17:09:25.354+03:00,98,1.633333333333333,2025-04-21T12:30:07.995+03:00,0.02023345852159405,0
2025-04-21T17:15:07.278+03:00,1745244905.433555,40.95229523723509,29.14029212770079,76.51794,-1,-1,-1,-1,30,30.9981187017281,-9999,21408.53042479167,0.5329742431640625,-0.81695556640625,0.15966796875,21408.52665579167,2.879900758064039,1.23960277944474,0.9070425930684536,0.08729319274425507,0.142940565943718,-0.01587250083684921,-0.08647280931472778,-0.0880470871925354,0.3471665382385254,XArbitraryZVertical,0.4711579250235544,-0.4217162540432827,-0.7586576660129348,0.156856807377281,0.582597017288208,-0.787685215473175,-0.2003312259912491,0,0,0,-1,-1,21407.78483579167,unknown,2,2025-04-21T17:15:06.529+03:00,2025-04-21T17:08:51.449+03:00,9,1.825274,0,0,6.41385,0,0,2025-04-21T17:14:58.791+03:00,0,0,0,0,1,0.25,2025-04-21T17:09:25.354+03:00,98,1.633333333333333,2025-04-21T12:30:07.995+03:00,0.02023345852159405,0
2025-04-21T17:15:07.288+03:00,1745244905.433555,40.95229523723509,29.14029212770079,76.51794,-1,-1,-1,-1,30,30.9981187017281,-9999,21408.54050079167,0.5438385009765625,-0.7749176025390625,0.1750335693359375,21408.53673079167,2.878703681978498,1.241596532924953,0.9069222220424872,0.04259788990020752,0.08350466936826706,-0.05987218394875526,-0.05011087656021118,-0.02934443950653076,0.3588679432868958,XArbitraryZVertical,0.4716825249701309,-0.4218004416990604,-0.7582988461734783,0.1567892022931381,0.5830851197242737,-0.7876110076904297,-0.1991999596357346,0,0,0,-1,-1,21407.78483579167,unknown,2,2025-04-21T17:15:06.529+03:00,2025-04-21T17:08:51.449+03:00,9,1.825274,0,0,6.41385,0,0,2025-04-21T17:14:58.791+03:00,0,0,0,0,1,0.25,2025-04-21T17:09:25.354+03:00,98,1.633333333333333,2025-04-21T12:30:07.995+03:00,0.02023345852159405,0
2025-04-21T17:15:07.298+03:00,1745244905.433555,40.95229523723509,29.14029212770079,76.51794,-1,-1,-1,-1,30,30.9981187017281,-9999,21408.55057579167,0.504150390625,-0.8031768798828125,0.151336669921875,21408.54680679167,2.878285891607724,1.24276530058216,0.9060415493207463,-0.06298406422138214,0.08962767571210861,-0.1212790161371231,-0.04013538360595703,0.01215058565139771,0.3737753033638,XArbitraryZVertical,0.4721910162089826,-0.421503004013925,-0.7581809976831855,0.1566282891549521,0.5839739441871643,-0.7870680689811707,-0.1987417191267014,0,0,0,-1,-1,21407.78483579167,unknown,2,2025-04-21T17:15:06.529+03:00,2025-04-21T17:08:51.449+03:00,9,1.825274,0,0,6.41385,0,0,2025-04-21T17:14:58.791+03:00,0,0,0,0,1,0.25,2025-04-21T17:09:25.354+03:00,98,1.633333333333333,2025-04-21T12:30:07.995+03:00,0.02023345852159405,0
2025-04-21T17:15:07.309+03:00,1745244905.433555,40.95229523723509,29.14029212770079,76.51794,-1,-1,-1,-1,30,30.9981187017281,-9999,21408.56065179167,0.4667205810546875,-0.8405303955078125,0.1296234130859375,21408.55688179167,2.879317503075471,1.242929753898192,0.9042419293125221,-0.1565800607204437,0.1032209843397141,-0.1793010383844376,-0.08119606971740723,-0.01722007989883423,0.350438117980957,XArbitraryZVertical,0.4727838781787435,-0.4206241635543872,-0.7583166905928411,0.1565451352610678,0.5853464603424072,-0.7859566807746887,-0.1991014331579208,0,0,0,-1,-1,21407.78483579167,unknown,2,2025-04-21T17:15:06.529+03:00,2025-04-21T17:08:51.449+03:00,9,1.825274,0,0,6.41385,0,0,2025-04-21T17:14:58.791+03:00,0,0,0,0,1,0.25,2025-04-21T17:09:25.354+03:00,98,1.633333333333333,2025-04-21T12:30:07.995+03:00,0.02023345852159405,0
2025-04-21T17:15:07.319+03:00,1745244905.433555,40.95229523723509,29.14029212770079,76.51794,-1,-1,-1,-1,30,30.9981187017281,-9999,21408.57072779167,0.4662322998046875,-0.8183441162109375,0.0893096923828125,21408.56695779167,2.880614647907753,1.242860236797056,0.9016802556862092,-0.1514131873846054,0.07156512141227722,-0.2411356121301651,-0.1205162405967712,-0.05615997314453125,0.3294133543968201,XArbitraryZVertical,0.4734747409191699,-0.419436163155566,-0.7585946086280817,0.156297929112732,0.587236762046814,-0.7843702435493469,-0.1997899562120438,0,0,0,-1,-1,21407.78483579167,unknown,2,2025-04-21T17:15:06.529+03:00,2025-04-21T17:08:51.449+03:00,9,1.825274,0,0,6.41385,0,0,2025-04-21T17:14:58.791+03:00,0,0,0,0,1,0.25,2025-04-21T17:09:25.354+03:00,98,1.633333333333333,2025-04-21T12:30:07.995+03:00,0.02023345852159405,0
2025-04-21T17:15:07.329+03:00,1745244905.433555,40.95229523723509,29.14029212770079,76.51794,-1,-1,-1,-1,30,30.9981187017281,-9999,21408.58080279167,0.494293212890625,-0.7349090576171875,0.05987548828125,21408.57703279167,2.881194331199101,1.242649091508921,0.8989253431842908,-0.08117658644914627,-0.02794681861996651,-0.2498159110546112,-0.1230056881904602,-0.03568553924560547,0.289919376373291,XArbitraryZVertical,0.4739930435551243,-0.4183608189502009,-0.7589888160174361,0.1556943469535257,0.5892379879951477,-0.7826584577560425,-0.2006096392869949,0,0,0,-1,-1,21407.78483579167,unknown,2,2025-04-21T17:15:06.529+03:00,2025-04-21T17:08:51.449+03:00,9,1.825274,0,0,6.41385,0,0,2025-04-21T17:14:58.791+03:00,0,0,0,0,1,0.25,2025-04-21T17:09:25.354+03:00,98,1.633333333333333,2025-04-21T12:30:07.995+03:00,0.02023345852159405,0
2025-04-21T17:15:07.339+03:00,1745244905.433555,40.95229523723509,29.14029212770079,76.51794,-1,-1,-1,-1,30,30.9981187017281,-9999,21408.59087879167,0.5148773193359375,-0.6756744384765625,0.0674591064453125,21408.58710879167,2.880221053974743,1.24281265802841,0.8963735870396051,0.0377967432141304,-0.07607380300760269,-0.2806767523288727,-0.0968664288520813,0.04615861177444458,0.261031448841095,XArbitraryZVertical,0.474292814289424,-0.4176940752560772,-0.7593848499381811,0.1546370086969306,0.5911596417427063,-0.7810675501823425,-0.2011559754610062,0,0,0,-1,-1,21407.78483579167,unknown,2,2025-04-21T17:15:06.529+03:00,2025-04-21T17:08:51.449+03:00,9,1.825274,0,0,6.41385,0,0,2025-04-21T17:14:58.791+03:00,0,0,0,0,1,0.25,2025-04-21T17:09:25.354+03:00,98,1.633333333333333,2025-04-21T12:30:07.995+03:00,0.02023345852159405,0
2025-04-21T17:15:07.349+03:00,1745244905.433555,40.95229523723509,29.14029212770079,76.51794,-1,-1,-1,-1,30,30.9981187017281,-9999,21408.60095379167,0.4992828369140625,-0.70751953125,0.068084716796875,21408.59718479167,2.877433380125115,1.244113042333229,0.8936068637543736,0.1015221998095512,-0.1008806154131889,-0.3446661233901978,-0.07858777046203613,0.1036625504493713,0.2685388922691345,XArbitraryZVertical,0.4746831982681759,-0.4172960426316611,-0.7596779570528567,0.1530659623257302,0.5934650897979736,-0.7793368697166443,-0.2010797411203384,0,0,0,-1,-1,21407.78483579167,unknown,2,2025-04-21T17:15:06.529+03:00,2025-04-21T17:08:51.449+03:00,9,1.825274,0,0,6.41385,0,0,2025-04-21T17:14:58.791+03:00,0,0,0,0,1,0.25,2025-04-21T17:09:25.354+03:00,98,1.633333333333333,2025-04-21T12:30:07.995+03:00,0.02023345852159405,0
2025-04-21T17:15:07.359+03:00,1745244905.433555,40.95229523723509,29.14029212770079,76.51794,-1,-1,-1,-1,30,30.9981187017281,-9999,21408.61102979167,0.5096588134765625,-0.7215118408203125,0.073211669921875,21408.60725979167,2.873613512005371,1.245798351837012,0.8906653931494672,0.168182373046875,-0.1547686755657196,-0.3549755215644836,-0.09669005870819092,0.06997096538543701,0.2688950896263123,XArbitraryZVertical,0.4750363682998206,-0.4170554624669094,-0.7599765902346342,0.1511311711020592,0.5959728956222534,-0.7774903774261475,-0.2008103728294373,0,0,0,-1,-1,21407.78483579167,unknown,2,2025-04-21T17:15:06.529+03:00,2025-04-21T17:08:51.449+03:00,9,1.825274,0,0,6.41385,0,0,2025-04-21T17:14:58.791+03:00,0,0,0,0,1,0.25,2025-04-21T17:09:25.354+03:00,98,1.633333333333333,2025-04-21T12:30:07.995+03:00,0.02023345852159405,0
2025-04-21T17:15:07.369+03:00,1745244905.433555,40.95229523723509,29.14029212770079,76.51794,-1,-1,-1,-1,30,30.9981187017281,-9999,21408.62110625,0.5355682373046875,-0.7156829833984375,0.0855865478515625,21408.61733725,2.868761529587311,1.247724207788412,0.8878917414143873,0.219266340136528,-0.2073325514793396,-0.3620363473892212,-0.08874243497848511,0.05423128604888916,0.2735578417778015,XArbitraryZVertical,0.4752385352818388,-0.4171034089775947,-0.7602644687296203,0.1488991785018169,0.5984012484550476,-0.7757430672645569,-0.2003461569547653,0,0,0,-1,-1,21407.78483579167,unknown,2,2025-04-21T17:15:06.529+03:00,2025-04-21T17:08:51.449+03:00,9,1.825274,0,0,6.41385,0,0,2025-04-21T17:14:58.791+03:00,0,0,0,0,1,0.25,2025-04-21T17:09:25.354+03:00,98,1.633333333333333,2025-04-21T12:30:07.995+03:00,0.02023345852159405,0
2025-04-21T17:15:07.379+03:00,1745244905.433555,40.95229523723509,29.14029212770079,76.51794,-1,-1,-1,-1,30,30.9981187017281,-9999,21408.63118225,0.5249786376953125,-0.74066162109375,0.13726806640625,21408.62741225,2.864157678532647,1.249132937824863,0.8848100086036519,0.1231821477413177,-0.2150274962186813,-0.411032497882843,-0.06537973880767822,0.05811184644699097,0.2858443260192871,XArbitraryZVertical,0.4753515774483804,-0.4170275655325854,-0.7606891644078841,0.1465630488007403,0.6009479165077209,-0.7737946510314941,-0.2002577781677246,0,0,0,-1,-1,21407.78483579167,unknown,2,2025-04-21T17:15:06.529+03:00,2025-04-21T17:08:51.449+03:00,9,1.825274,0,0,6.41385,0,0,2025-04-21T17:14:58.791+03:00,0,0,0,0,1,0.25,2025-04-21T17:09:25.354+03:00,98,1.633333333333333,2025-04-21T12:30:07.995+03:00,0.02023345852159405,0
2025-04-21T17:15:07.389+03:00,1745244905.433555,40.95229523723509,29.14029212770079,76.51794,-1,-1,-1,-1,30,30.9981187017281,-9999,21408.64125825,0.49664306640625,-0.7878570556640625,0.2277679443359375,21408.63748825,2.860826139457915,1.249658740558546,0.880750057180041,0.0366579107940197,-0.1936886459589005,-0.4816454350948334,-0.07905066013336182,0.03055495023727417,0.3381998836994171,XArbitraryZVertical,0.4755668224106735,-0.4163775824857076,-0.7613538092007059,0.1442439194593975,0.6040293574333191,-0.7712165713310242,-0.2009318172931671,0,0,0,-1,-1,21407.78483579167,unknown,2,2025-04-21T17:15:06.529+03:00,2025-04-21T17:08:51.449+03:00,9,1.825274,0,0,6.41385,0,0,2025-04-21T17:14:58.791+03:00,0,0,0,0,1,0.25,2025-04-21T17:09:25.354+03:00,98,1.633333333333333,2025-04-21T12:30:07.995+03:00,0.02023345852159405,0
2025-04-21T17:15:07.399+03:00,1745244905.433555,40.95229523723509,29.14029212770079,76.51794,-1,-1,-1,-1,30,30.9981187017281,-9999,21408.65133325,0.4926300048828125,-0.85302734375,0.27734375,21408.64756325,2.857799196711897,1.250035361037219,0.8761079252660038,0.03735698759555817,-0.2038707137107849,-0.5127784013748169,-0.110852837562561,-0.01960378885269165,0.429598867893219,XArbitraryZVertical,0.4758921285828964,-0.4154650811267708,-0.7621003011646522,0.1418400017751412,0.607495903968811,-0.7682532072067261,-0.2018308937549591,0,0,0,-1,-1,21407.78483579167,unknown,2,2025-04-21T17:15:06.529+03:00,2025-04-21T17:08:51.449+03:00,9,1.825274,0,0,6.41385,0,0,2025-04-21T17:14:58.791+03:00,0,0,0,0,1,0.25,2025-04-21T17:09:25.354+03:00,98,1.633333333333333,2025-04-21T12:30:07.995+03:00,0.02023345852159405,0
2025-04-21T17:15:07.409+03:00,1745244905.433555,40.95229523723509,29.14029212770079,76.51794,-1,-1,-1,-1,30,30.9981187017281,-9999,21408.66140925,0.502044677734375,-0.8586273193359375,0.364959716796875,21408.65763925,2.855138240137796,1.249616459122443,0.8708635626217771,-0.06676728278398514,-0.2987956404685974,-0.5787941813468933,-0.1185957789421082,-0.08814173936843872,0.4806981682777405,XArbitraryZVertical,0.4760965235411984,-0.4143125509008273,-0.763079771822187,0.1392348398907583,0.6112257838249207,-0.7648854851722717,-0.2033544182777405,0,0,0,-1,-1,21407.78483579167,unknown,2,2025-04-21T17:15:06.529+03:00,2025-04-21T17:08:51.449+03:00,9,1.825274,0,0,6.41385,0,0,2025-04-21T17:14:58.791+03:00,0,0,0,0,1,0.25,2025-04-21T17:09:25.354+03:00,98,1.633333333333333,2025-04-21T12:30:07.995+03:00,0.02023345852159405,0
2025-04-21T17:15:07.420+03:00,1745244905.433555,40.95229523723509,29.14029212770079,76.51794,-1,-1,-1,-1,30,30.9981187017281,-9999,21408.67148425,0.495849609375,-0.8587493896484375,0.522491455078125,21408.66771425,2.854226115027026,1.246740827760802,0.8648617787747986,-0.1874309182167053,-0.4100913405418396,-0.5931792259216309,-0.1129344701766968,-0.09762150049209595,0.5715290307998657,XArbitraryZVertical,0.4758552892956897,-0.4126464908149201,-0.764612828233887,0.1365709309615437,0.614979088306427,-0.7610055804252625,-0.2065692394971848,0,0,0,-1,-1,21407.78483579167,unknown,2,2025-04-21T17:15:06.529+03:00,2025-04-21T17:08:51.449+03:00,9,1.825274,0,0,6.41385,0,0,2025-04-21T17:14:58.791+03:00,0,0,0,0,1,0.25,2025-04-21T17:09:25.354+03:00,98,1.633333333333333,2025-04-21T12:30:07.995+03:00,0.02023345852159405,0
2025-04-21T17:15:07.430+03:00,1745244905.433555,40.95229523723509,29.14029212770079,76.51794,-1,-1,-1,-1,30,30.9981187017281,-9999,21408.68156025,0.489959716796875,-0.909332275390625,0.6643524169921875,21408.67779025,2.855467485952503,1.240637475869411,0.8580741968955231,-0.442396879196167,-0.6147874593734741,-0.6406478881835938,-0.1227295398712158,-0.1021645069122314,0.7344800233840942,XArbitraryZVertical,0.4749490727867194,-0.4104011621736344,-0.7668629712811045,0.1338478062808815,0.6185791492462158,-0.7565847039222717,-0.2119885236024857,0,0,0,-1,-1,21407.78483579167,unknown,2,2025-04-21T17:15:06.529+03:00,2025-04-21T17:08:51.449+03:00,9,1.825274,0,0,6.41385,0,0,2025-04-21T17:14:58.791+03:00,0,0,0,0,1,0.25,2025-04-21T17:09:25.354+03:00,98,1.633333333333333,2025-04-21T12:30:07.995+03:00,0.02023345852159405,0
2025-04-21T17:15:07.440+03:00,1745244905.433555,40.95229523723509,29.14029212770079,76.51794,-1,-1,-1,-1,30,30.9981187017281,-9999,21408.69163525,0.479705810546875,-0.92901611328125,0.9332427978515625,21408.68786625,2.861521253495311,1.228919711358386,0.848991588183987,-0.9063071608543396,-0.8198859095573425,-0.8054895997047424,-0.1325417757034302,-0.1587176918983459,0.8858693838119507,XArbitraryZVertical,0.4732349696553912,-0.4065589509425033,-0.7704194788080897,0.1311955225695544,0.6225014328956604,-0.7506144642829895,-0.2215169668197632,0,0,0,-1,-1,21407.78483579167,unknown,2,2025-04-21T17:15:06.529+03:00,2025-04-21T17:08:51.449+03:00,9,1.825274,0,0,6.41385,0,0,2025-04-21T17:14:58.791+03:00,0,0,0,0,1,0.25,2025-04-21T17:09:25.354+03:00,98,1.633333333333333,2025-04-21T12:30:07.995+03:00,0.02023345852159405,0
2025-04-21T17:15:07.450+03:00,1745244905.433555,40.95229523723509,29.14029212770079,76.51794,-1,-1,-1,-1,30,30.9981187017281,-9999,21408.70171125,0.525360107421875,-0.8137054443359375,1.208816528320312,21408.69794125,2.872206945616234,1.209934473339386,0.8369596209846747,-1.149303555488586,-1.447990298271179,-0.9569995403289795,-0.1468828320503235,-0.1864056587219238,1.169709324836731,XArbitraryZVertical,0.4700659933694563,-0.4010046328215998,-0.7757723757309362,0.1281029788991196,0.6265886425971985,-0.7426103353500366,-0.2364664971828461,0,0,0,-1,-1,21407.78483579167,unknown,2,2025-04-21T17:15:06.529+03:00,2025-04-21T17:08:51.449+03:00,9,1.825274,0,0,6.41385,0,0,2025-04-21T17:14:58.791+03:00,0,0,0,0,1,0.25,2025-04-21T17:09:25.354+03:00,98,1.633333333333333,2025-04-21T12:30:07.995+03:00,0.02023345852159405,0
2025-04-21T17:15:07.460+03:00,1745244905.433555,40.95229523723509,29.14029212770079,76.51794,-1,-1,-1,-1,30,30.9981187017281,-9999,21408.71178725,0.66558837890625,-0.4619903564453125,1.438461303710938,21408.70801725,2.879867465124406,1.183099558366185,0.824736322347436,-0.634368360042572,-2.809780836105347,-0.8606637120246887,-0.1030151844024658,-0.07933652400970459,1.465423107147217,XArbitraryZVertical,0.4631234805385325,-0.3965014343797392,-0.78315676971024,0.1223467132408986,0.6283752918243408,-0.7343688607215881,-0.2566065192222595,0,0,0,-1,-1,21407.78483579167,unknown,2,2025-04-21T17:15:06.529+03:00,2025-04-21T17:08:51.449+03:00,9,1.825274,0,0,6.41385,0,0,2025-04-21T17:14:58.791+03:00,0,0,0,0,1,0.25,2025-04-21T17:09:25.354+03:00,98,1.633333333333333,2025-04-21T12:30:07.995+03:00,0.02023345852159405,0
2025-04-21T17:15:07.470+03:00,1745244905.433555,40.95229523723509,29.14029212770079,76.51794,-1,-1,-1,-1,30,30.9981187017281,-9999,21408.72186225,0.818572998046875,0.0467376708984375,1.493881225585938,21408.71809225,2.880580749217625,1.147760767375439,0.8181788575449381,0.03722010180354118,-4.045466899871826,-0.2750902473926544,0.0422939658164978,0.2679119110107422,1.719079971313477,XArbitraryZVertical,0.4503893364830835,-0.3960304718995761,-0.7920536645608552,0.1138430848233591,0.6232944130897522,-0.7299022078514099,-0.2806186079978943,0,0,0,-1,-1,21407.78483579167,unknown,2,2025-04-21T17:15:06.529+03:00,2025-04-21T17:08:51.449+03:00,9,1.825274,0,0,6.41385,0,0,2025-04-21T17:14:58.791+03:00,0,0,0,0,1,0.25,2025-04-21T17:09:25.354+03:00,98,1.633333333333333,2025-04-21T12:30:07.995+03:00,0.02023345852159405,0
2025-04-21T17:15:07.480+03:00,1745244905.433555,40.95229523723509,29.14029212770079,76.51794,-1,-1,-1,-1,30,30.9981187017281,-9999,21408.73193825,0.8208465576171875,0.3842620849609375,1.47760009765625,21408.72816825,2.875686898794187,1.105135290718462,0.8199948105990414,0.6986367106437683,-5.129586219787598,0.2918867766857147,0.2089880108833313,0.777880072593689,1.800209522247314,XArbitraryZVertical,0.4321493727991257,-0.4001035067394318,-0.8014803902305226,0.1038900732260937,0.6095849275588989,-0.7311422824859619,-0.3063282072544098,0,0,0,-1,-1,21407.78483579167,unknown,2,2025-04-21T17:15:06.529+03:00,2025-04-21T17:08:51.449+03:00,9,1.825274,0,0,6.41385,0,0,2025-04-21T17:14:58.791+03:00,0,0,0,0,1,0.25,2025-04-21T17:09:25.354+03:00,98,1.633333333333333,2025-04-21T12:30:07.995+03:00,0.02023345852159405,0
2025-04-21T17:15:07.490+03:00,1745244905.433555,40.95229523723509,29.14029212770079,76.51794,-1,-1,-1,-1,30,30.9981187017281,-9999,21408.74201325,0.6907806396484375,0.26922607421875,1.477279663085938,21408.73824325,2.868149537601479,1.053553404181842,0.8286773875037113,0.8959423303604126,-6.19922924041748,0.7573402523994446,0.2334064245223999,1.121300339698792,1.811798691749573,XArbitraryZVertical,0.4084818179773914,-0.4074841235241102,-0.8114881132199403,0.09266150702498098,0.5874400734901428,-0.7370381355285645,-0.3341985940933228,0,0,0,-1,-1,21407.78483579167,unknown,2,2025-04-21T17:15:06.529+03:00,2025-04-21T17:08:51.449+03:00,9,1.825274,0,0,6.41385,0,0,2025-04-21T17:14:58.791+03:00,0,0,0,0,1,0.25,2025-04-21T17:09:25.354+03:00,98,1.633333333333333,2025-04-21T12:30:07.995+03:00,0.02023345852159405,0
2025-04-21T17:15:07.500+03:00,1745244905.433555,40.95229523723509,29.14029212770079,76.51794,-1,-1,-1,-1,30,30.9981187017281,-9999,21408.75208925,0.6010284423828125,0.0230712890625,1.280441284179688,21408.74831925,2.861062352143147,0.9938608168267066,0.8324568452494969,-0.384087860584259,-6.834985733032227,-1.737385869026184,0.1266628503799438,1.008813381195068,1.844406127929688,XArbitraryZVertical,0.3820556292015841,-0.4128805114444938,-0.823048238272572,0.07845199485864469,0.5641178488731384,-0.7395871877670288,-0.3671263456344604,0,0,0,-1,-1,21407.78483579167,unknown,2,2025-04-21T17:15:06.529+03:00,2025-04-21T17:08:51.449+03:00,9,1.825274,0,0,6.41385,0,0,2025-04-21T17:14:58.791+03:00,0,0,0,0,1,0.25,2025-04-21T17:09:25.354+03:00,98,1.633333333333333,2025-04-21T12:30:07.995+03:00,0.02023345852159405,0
2025-04-21T17:15:07.510+03:00,1745244905.433555,40.95229523723509,29.14029212770079,76.51794,-1,-1,-1,-1,30,30.9981187017281,-9999,21408.76216425,0.4552001953125,-0.2559661865234375,-3.63983154296875,21408.75839525,2.879989960289597,0.9407136065670971,0.8260775586362958,1.087099313735962,-1.661199688911438,1.794847011566162,0.05340874195098877,0.7583499550819397,1.67978823184967,XArbitraryZVertical,0.3648783551569715,-0.4088891144699665,-0.8331964062523586,0.07387209784284164,0.5476197004318237,-0.7352785468101501,-0.3993469476699829,0,0,0,-1,-1,21407.78483579167,unknown,2,2025-04-21T17:15:06.529+03:00,2025-04-21T17:08:51.449+03:00,9,1.825274,0,0,6.41385,0,0,2025-04-21T17:14:58.791+03:00,0,0,0,0,1,0.25,2025-04-21T17:09:25.354+03:00,98,1.633333333333333,2025-04-21T12:30:07.995+03:00,0.02023345852159405,0
