loggingTime(txt),locationTimestamp_since1970(s),locationLatitude(WGS84),locationLongitude(WGS84),locationAltitude(m),locationSpeed(m/s),locationSpeedAccuracy(m/s),locationCourse(°),locationCourseAccuracy(°),locationVerticalAccuracy(m),locationHorizontalAccuracy(m),locationFloor(Z),accelerometerTimestamp_sinceReboot(s),accelerometerAccelerationX(G),accelerometerAccelerationY(G),accelerometerAccelerationZ(G),motionTimestamp_sinceReboot(s),motionYaw(rad),motionRoll(rad),motionPitch(rad),motionRotationRateX(rad/s),motionRotationRateY(rad/s),motionRotationRateZ(rad/s),motionUserAccelerationX(G),motionUserAccelerationY(G),motionUserAccelerationZ(G),motionAttitudeReferenceFrame(txt),motionQuaternionX(R),motionQuaternionY(R),motionQuaternionZ(R),motionQuaternionW(R),motionGravityX(G),motionGravityY(G),motionGravityZ(G),motionMagneticFieldX(µT),motionMagneticFieldY(µT),motionMagneticFieldZ(µT),motionHeading(°),motionMagneticFieldCalibrationAccuracy(Z),activityTimestamp_sinceReboot(s),activity(txt),activityActivityConfidence(Z),activityActivityStartDate(txt),pedometerStartDate(txt),pedometerNumberofSteps(N),pedometerAverageActivePace(s/m),pedometerCurrentPace(s/m),pedometerCurrentCadence(steps/s),pedometerDistance(m),pedometerFloorAscended(N),pedometerFloorDescended(N),pedometerEndDate(txt),altimeterTimestamp_sinceReboot(s),altimeterReset(bool),altimeterRelativeAltitude(m),altimeterPressure(kPa),batteryState(N),batteryLevel(R),heartRateBPMTimestamp(txt),heartRateBPM(N),heartRateBPS(R),heartRateVariabilityTimestamp(txt),heartRateVariability(ms),label
2025-04-20T23:00:47.311+03:00,1745179246.460543,40.98553810758849,29.1374092842291,83.50758,-1,-1,-1,-1,30.00216584921526,27.66431350007163,-9999,9713.155142541667,-0.615997314453125,0.6583709716796875,-0.3800811767578125,9713.150104541668,-2.45785423417395,-1.036722780062063,-0.7415064461182113,0.8365465402603149,-1.004773736000061,-1.130554914474487,0.004948318004608154,0.02529913187026978,0.002272218465805054,XArbitraryZVertical,-0.540579031910475,0.1416920808666051,-0.7025786451973576,0.4405460817535882,-0.6347547769546509,0.6753996014595032,-0.3753953278064728,0,0,0,-1,-1,9674.059003125001,unknown,2,2025-04-20T22:59:17.430+03:00,2025-04-20T21:57:49.637+03:00,29,4.348656,0,0,23.86625,0,0,2025-04-20T22:59:32.906+03:00,766871980.7366149,0,0.6499996,99.72914,1,0.95,2025-04-20T22:59:42.035+03:00,100,1.666666666666667,2025-04-19T12:19:17.059+03:00,0.05691595998002078,0
2025-04-20T23:00:47.313+03:00,1745179246.460543,40.98553810758849,29.1374092842291,83.50758,-1,-1,-1,-1,30.00216584921526,27.66431350007163,-9999,9713.165217541668,-0.54339599609375,0.3889007568359375,-0.3442230224609375,9713.160180541667,-2.458932017286483,-1.042427666113741,-0.7365702262969469,-0.150140792131424,-0.3440514206886292,-0.04269332811236382,0.01301807165145874,0.02382063865661621,-0.009368240833282471,XArbitraryZVertical,-0.5422552723054765,0.1386978927481488,-0.7023834166089763,0.4397495012039104,-0.6397575736045837,0.6717511415481567,-0.3734442293643951,0,0,0,-1,-1,9674.059003125001,unknown,2,2025-04-20T22:59:17.430+03:00,2025-04-20T21:57:49.637+03:00,29,4.348656,0,0,23.86625,0,0,2025-04-20T22:59:32.906+03:00,766871980.7366149,0,0.6499996,99.72914,1,0.95,2025-04-20T22:59:42.035+03:00,100,1.666666666666667,2025-04-19T12:19:17.059+03:00,0.05691595998002078,0
2025-04-20T23:00:47.314+03:00,1745179246.460543,40.98553810758849,29.1374092842291,83.50758,-1,-1,-1,-1,30.00216584921526,27.66431350007163,-9999,9713.175293541668,-0.6572723388671875,0.686492919921875,-0.3614654541015625,9713.170255541667,-2.459908835402498,-1.045651048709181,-0.735940682783881,0.01155257411301136,-0.1594570130109787,-0.08774412423372269,0.04526972770690918,-0.1449633240699768,0.007975161075592041,XArbitraryZVertical,-0.5432873831676343,0.1379956292092137,-0.7018648814364938,0.4395243927858857,-0.6413238048553467,0.6712846755981445,-0.3715920448303223,0,0,0,-1,-1,9674.059003125001,unknown,2,2025-04-20T22:59:17.430+03:00,2025-04-20T21:57:49.637+03:00,29,4.348656,0,0,23.86625,0,0,2025-04-20T22:59:32.906+03:00,766871980.7366149,0,0.6499996,99.72914,1,0.95,2025-04-20T22:59:42.035+03:00,100,1.666666666666667,2025-04-19T12:19:17.059+03:00,0.05691595998002078,0
2025-04-20T23:00:47.324+03:00,1745179246.460543,40.98553810758849,29.1374092842291,83.50758,-1,-1,-1,-1,30.00216584921526,27.66431350007163,-9999,9713.185369541667,-0.71551513671875,0.833038330078125,-0.3957977294921875,9713.180331541667,-2.460183774770845,-1.04730339754077,-0.734640437449075,0.08674612641334534,-0.1698822230100632,-0.1474772244691849,0.09816718101501465,-0.207551896572113,0.02988821268081665,XArbitraryZVertical,-0.5437827043557487,0.1371729924749317,-0.7017683214230052,0.4393235133836776,-0.6426923274993896,0.6703203916549683,-0.3709678947925568,0,0,0,-1,-1,9674.059003125001,unknown,2,2025-04-20T22:59:17.430+03:00,2025-04-20T21:57:49.637+03:00,29,4.348656,0,0,23.86625,0,0,2025-04-20T22:59:32.906+03:00,766871980.7366149,0,0.6499996,99.72914,1,0.95,2025-04-20T22:59:42.035+03:00,100,1.666666666666667,2025-04-19T12:19:17.059+03:00,0.05691595998002078,0
2025-04-20T23:00:47.335+03:00,1745179246.460543,40.98553810758849,29.1374092842291,83.50758,-1,-1,-1,-1,30.00216584921526,27.66431350007163,-9999,9713.195445541667,-0.603057861328125,0.6878204345703125,-0.36474609375,9713.190407541668,-2.460609380679005,-1.048963590597183,-0.7333585044564906,0.01067253295332193,-0.1179688200354576,-0.05845781043171883,-0.101858913898468,0.1654397249221802,-0.01852655410766602,XArbitraryZVertical,-0.5442715461578799,0.1363975122101578,-0.7016978736561721,0.4390720547972148,-0.644051730632782,0.66936856508255,-0.3703283965587616,0,0,0,-1,-1,9674.059003125001,unknown,2,2025-04-20T22:59:17.430+03:00,2025-04-20T21:57:49.637+03:00,29,4.348656,0,0,23.86625,0,0,2025-04-20T22:59:32.906+03:00,766871980.7366149,0,0.6499996,99.72914,1,0.95,2025-04-20T22:59:42.035+03:00,100,1.666666666666667,2025-04-19T12:19:17.059+03:00,0.05691595998002078,0
2025-04-20T23:00:47.344+03:00,1745179246.460543,40.98553810758849,29.1374092842291,83.50758,-1,-1,-1,-1,30.00216584921526,27.66431350007163,-9999,9713.205521541668,-0.6489410400390625,0.6114959716796875,-0.3780517578125,9713.200483541666,-2.460564849392055,-1.049775637699542,-0.7331181754355744,0.0146318543702364,-0.05873240157961845,-0.01069934293627739,0.006536900997161865,0.08950746059417725,-0.00932610034942627,XArbitraryZVertical,-0.5445473831337745,0.1361084306298586,-0.7015208600864438,0.4391024380392468,-0.6444916129112244,0.669189989566803,-0.3698852956295013,0,0,0,-1,-1,9674.059003125001,unknown,2,2025-04-20T22:59:17.430+03:00,2025-04-20T21:57:49.637+03:00,29,4.348656,0,0,23.86625,0,0,2025-04-20T22:59:32.906+03:00,766871980.7366149,0,0.6499996,99.72914,1,0.95,2025-04-20T22:59:42.035+03:00,100,1.666666666666667,2025-04-19T12:19:17.059+03:00,0.05691595998002078,0
2025-04-20T23:00:47.354+03:00,1745179246.460543,40.98553810758849,29.1374092842291,83.50758,-1,-1,-1,-1,30.00216584921526,27.66431350007163,-9999,9713.215596541668,-0.6559600830078125,0.64605712890625,-0.3778533935546875,9713.210559541667,-2.460569451175698,-1.050338547714791,-0.7329078200150239,0.01196796074509621,-0.05691046640276909,-0.02758601307868958,0.02659684419631958,-0.0288054347038269,0.002771258354187012,XArbitraryZVertical,-0.5447339188648366,0.1358996668238928,-0.701415835704604,0.4391036360520899,-0.6448219418525696,0.6690336465835571,-0.3695924878120422,0,0,0,-1,-1,9674.059003125001,unknown,2,2025-04-20T22:59:17.430+03:00,2025-04-20T21:57:49.637+03:00,29,4.348656,0,0,23.86625,0,0,2025-04-20T22:59:32.906+03:00,766871980.7366149,0,0.6499996,99.72914,1,0.95,2025-04-20T22:59:42.035+03:00,100,1.666666666666667,2025-04-19T12:19:17.059+03:00,0.05691595998002078,0
2025-04-20T23:00:47.365+03:00,1745179246.460543,40.98553810758849,29.1374092842291,83.50758,-1,-1,-1,-1,30.00216584921526,27.66431350007163,-9999,9713.225672541666,-0.6320648193359375,0.7021026611328125,-0.3651123046875,9713.220634541667,-2.46055035013221,-1.050901230059321,-0.732648766801672,0.01243774220347404,-0.0582021027803421,-0.01668649539351463,-0.01845508813858032,-0.05707049369812012,-0.01400032639503479,XArbitraryZVertical,-0.5449195272057896,0.1356645285249717,-0.7013164742954552,0.4391047897824187,-0.6451801657676697,0.6688410639762878,-0.3693156838417053,0,0,0,-1,-1,9674.059003125001,unknown,2,2025-04-20T22:59:17.430+03:00,2025-04-20T21:57:49.637+03:00,29,4.348656,0,0,23.86625,0,0,2025-04-20T22:59:32.906+03:00,766871980.7366149,0,0.6499996,99.72914,1,0.95,2025-04-20T22:59:42.035+03:00,100,1.666666666666667,2025-04-19T12:19:17.059+03:00,0.05691595998002078,0
2025-04-20T23:00:47.375+03:00,1745179246.460543,40.98553810758849,29.1374092842291,83.50758,-1,-1,-1,-1,30.00216584921526,27.66431350007163,-9999,9713.235748541667,-0.64007568359375,0.6605682373046875,-0.369110107421875,9713.230710541668,-2.460471223239209,-1.051380254734843,-0.7325434677288114,0.003915826790034771,-0.048964723944664,0.001999808242544532,0.005220413208007812,0.01811158657073975,0.0009690821170806885,XArbitraryZVertical,-0.545087559182735,0.1354945362339205,-0.7011922119677999,0.4391472229847771,-0.6454182267189026,0.6687628030776978,-0.3690415620803833,0,0,0,-1,-1,9674.059003125001,unknown,2,2025-04-20T22:59:17.430+03:00,2025-04-20T21:57:49.637+03:00,29,4.348656,0,0,23.86625,0,0,2025-04-20T22:59:32.906+03:00,766871980.7366149,0,0.6499996,99.72914,1,0.95,2025-04-20T22:59:42.035+03:00,100,1.666666666666667,2025-04-19T12:19:17.059+03:00,0.05691595998002078,0
2025-04-20T23:00:47.385+03:00,1745179246.460543,40.98553810758849,29.1374092842291,83.50758,-1,-1,-1,-1,30.00216584921526,27.66431350007163,-9999,9713.245824541667,-0.64630126953125,0.644195556640625,-0.369049072265625,9713.240786541668,-2.460371964850334,-1.051746933611744,-0.7325810641231746,0.002026846632361412,-0.03900370374321938,0.005489081609994173,0.01134580373764038,0.01844978332519531,0.002535700798034668,XArbitraryZVertical,-0.5452247169972688,0.1354024106545843,-0.7010620068005234,0.4392131978512315,-0.6455315947532654,0.6687907576560974,-0.3687923848628998,0,0,0,-1,-1,9674.059003125001,unknown,2,2025-04-20T22:59:17.430+03:00,2025-04-20T21:57:49.637+03:00,29,4.348656,0,0,23.86625,0,0,2025-04-20T22:59:32.906+03:00,766871980.7366149,0,0.6499996,99.72914,1,0.95,2025-04-20T22:59:42.035+03:00,100,1.666666666666667,2025-04-19T12:19:17.059+03:00,0.05691595998002078,0
2025-04-20T23:00:47.395+03:00,1745179246.460543,40.98553810758849,29.1374092842291,83.50758,-1,-1,-1,-1,30.00216584921526,27.66431350007163,-9999,9713.255900541668,-0.6456756591796875,0.665985107421875,-0.366363525390625,9713.250862541667,-2.460289056874295,-1.052058079753073,-0.7325858214070871,0.007886532694101334,-0.03111255913972855,0.003680362366139889,0.0005630254745483398,-0.02548378705978394,-0.001603484153747559,XArbitraryZVertical,-0.545339621709157,0.1353134188812618,-0.7009579182246182,0.4392641277019541,-0.6456435918807983,0.6687942743301392,-0.3685899376869202,0,0,0,-1,-1,9674.059003125001,unknown,2,2025-04-20T22:59:17.430+03:00,2025-04-20T21:57:49.637+03:00,29,4.348656,0,0,23.86625,0,0,2025-04-20T22:59:32.906+03:00,766871980.7366149,0,0.6499996,99.72914,1,0.95,2025-04-20T22:59:42.035+03:00,100,1.666666666666667,2025-04-19T12:19:17.059+03:00,0.05691595998002078,0
2025-04-20T23:00:47.405+03:00,1745179246.460543,40.98553810758849,29.1374092842291,83.50758,-1,-1,-1,-1,30.00216584921526,27.66431350007163,-9999,9713.265975541668,-0.64459228515625,0.671478271484375,-0.3663482666015625,9713.260937541667,-2.460177068439629,-1.05226891659011,-0.7325508667410484,0.006409011781215668,-0.02733859047293663,0.002623353851959109,-0.0008191466331481934,-0.01424258947372437,0.001399993896484375,XArbitraryZVertical,-0.545419341904573,0.1352222399359562,-0.7008836206429089,0.4393117009745972,-0.6457415223121643,0.6687682867050171,-0.3684653639793396,0,0,0,-1,-1,9674.059003125001,unknown,2,2025-04-20T22:59:17.430+03:00,2025-04-20T21:57:49.637+03:00,29,4.348656,0,0,23.86625,0,0,2025-04-20T22:59:32.906+03:00,766871980.7366149,0,0.6499996,99.72914,1,0.95,2025-04-20T22:59:42.035+03:00,100,1.666666666666667,2025-04-19T12:19:17.059+03:00,0.05691595998002078,0
2025-04-20T23:00:47.415+03:00,1745179246.460543,40.98553810758849,29.1374092842291,83.50758,-1,-1,-1,-1,30.00216584921526,27.66431350007163,-9999,9713.276051541667,-0.644500732421875,0.66845703125,-0.3669281005859375,9713.271013541667,-2.460060067216432,-1.052447699060191,-0.7325438405581999,0.009952613152563572,-0.02420271933078766,0.0006653979071415961,0.0007004737854003906,0.002120018005371094,0.001790463924407959,XArbitraryZVertical,-0.5454895365706647,0.135148148593291,-0.7008107970023216,0.4393636216058915,-0.6458115577697754,0.6687631011009216,-0.3683522939682007,0,0,0,-1,-1,9674.059003125001,unknown,2,2025-04-20T22:59:17.430+03:00,2025-04-20T21:57:49.637+03:00,29,4.348656,0,0,23.86625,0,0,2025-04-20T22:59:32.906+03:00,766871980.7366149,0,0.6499996,99.72914,1,0.95,2025-04-20T22:59:42.035+03:00,100,1.666666666666667,2025-04-19T12:19:17.059+03:00,0.05691595998002078,0
2025-04-20T23:00:47.425+03:00,1745179246.460543,40.98553810758849,29.1374092842291,83.50758,-1,-1,-1,-1,30.00216584921526,27.66431350007163,-9999,9713.286127541667,-0.6446990966796875,0.6690216064453125,-0.368438720703125,9713.281089541668,-2.459926415707026,-1.052610332051615,-0.732506268873156,0.01580331288278103,-0.02642672508955002,0.0006070747622288764,0.001423060894012451,0.001385033130645752,0.000950157642364502,XArbitraryZVertical,-0.5455536706637525,0.1350605515324013,-0.7007454744186203,0.4394150670146747,-0.6458932757377625,0.668735146522522,-0.3682596683502197,0,0,0,-1,-1,9674.059003125001,unknown,2,2025-04-20T22:59:17.430+03:00,2025-04-20T21:57:49.637+03:00,29,4.348656,0,0,23.86625,0,0,2025-04-20T22:59:32.906+03:00,766871980.7366149,0,0.6499996,99.72914,1,0.95,2025-04-20T22:59:42.035+03:00,100,1.666666666666667,2025-04-19T12:19:17.059+03:00,0.05691595998002078,0
2025-04-20T23:00:47.435+03:00,1745179246.460543,40.98553810758849,29.1374092842291,83.50758,-1,-1,-1,-1,30.00216584921526,27.66431350007163,-9999,9713.296203541668,-0.6431884765625,0.673431396484375,-0.3712615966796875,9713.291165541666,-2.459749641198933,-1.052768652760843,-0.7324227945294185,0.01694008335471153,-0.0278662983328104,-0.0002626471396069974,0.001423001289367676,-0.001482665538787842,0.0007992088794708252,XArbitraryZVertical,-0.545616895164325,0.1349433012302466,-0.7006821062055362,0.4394735313965997,-0.6459999680519104,0.6686730980873108,-0.3681850135326385,0,0,0,-1,-1,9674.059003125001,unknown,2,2025-04-20T22:59:17.430+03:00,2025-04-20T21:57:49.637+03:00,29,4.348656,0,0,23.86625,0,0,2025-04-20T22:59:32.906+03:00,766871980.7366149,0,0.6499996,99.72914,1,0.95,2025-04-20T22:59:42.035+03:00,100,1.666666666666667,2025-04-19T12:19:17.059+03:00,0.05691595998002078,0
2025-04-20T23:00:47.445+03:00,1745179246.460543,40.98553810758849,29.1374092842291,83.50758,-1,-1,-1,-1,30.00216584921526,27.66431350007163,-9999,9713.306279541668,-0.642059326171875,0.6722869873046875,-0.37261962890625,9713.301241541667,-2.459529799641438,-1.052947128070824,-0.732339016398379,0.01814223267138004,-0.03501155599951744,0.002845794428139925,0.001918792724609375,0.002424895763397217,-0.002034932374954224,XArbitraryZVertical,-0.5456900445470318,0.1348097254750041,-0.7006038619406546,0.4395483851543868,-0.6461142897605896,0.6686108112335205,-0.3680974245071411,0,0,0,-1,-1,9674.059003125001,unknown,2,2025-04-20T22:59:17.430+03:00,2025-04-20T21:57:49.637+03:00,29,4.348656,0,0,23.86625,0,0,2025-04-20T22:59:32.906+03:00,766871980.7366149,0,0.6499996,99.72914,1,0.95,2025-04-20T22:59:42.035+03:00,100,1.666666666666667,2025-04-19T12:19:17.059+03:00,0.05691595998002078,0
2025-04-20T23:00:47.455+03:00,1745179246.460543,40.98553810758849,29.1374092842291,83.50758,-1,-1,-1,-1,30.00216584921526,27.66431350007163,-9999,9713.316354541666,-0.64324951171875,0.6636962890625,-0.373443603515625,9713.311316541667,-2.459299581220525,-1.053115911742993,-0.7322851594701244,0.01783936470746994,-0.0288165807723999,0.005080685950815678,0.003644883632659912,0.005470931529998779,-0.004109859466552734,XArbitraryZVertical,-0.5457619673853593,0.1346876947351099,-0.700519309009531,0.4396312876900636,-0.6462077498435974,0.6685707569122314,-0.3680061995983124,0,0,0,-1,-1,9674.059003125001,unknown,2,2025-04-20T22:59:17.430+03:00,2025-04-20T21:57:49.637+03:00,29,4.348656,0,0,23.86625,0,0,2025-04-20T22:59:32.906+03:00,766871980.7366149,0,0.6499996,99.72914,1,0.95,2025-04-20T22:59:42.035+03:00,100,1.666666666666667,2025-04-19T12:19:17.059+03:00,0.05691595998002078,0
2025-04-20T23:00:47.465+03:00,1745179246.460543,40.98553810758849,29.1374092842291,83.50758,-1,-1,-1,-1,30.00216584921526,27.66431350007163,-9999,9713.326430541667,-0.6445465087890625,0.66314697265625,-0.3715362548828125,9713.321392541668,-2.459042559273307,-1.053236939728788,-0.7322462869256768,0.02075739018619061,-0.03006107732653618,0.007016004994511604,0.003498375415802002,-0.001442968845367432,-0.00592997670173645,XArbitraryZVertical,-0.5458197178095191,0.1345750252589952,-0.7004384183123626,0.4397228382660019,-0.6462748050689697,0.6685418486595154,-0.3679407835006714,0,0,0,-1,-1,9674.059003125001,unknown,2,2025-04-20T22:59:17.430+03:00,2025-04-20T21:57:49.637+03:00,29,4.348656,0,0,23.86625,0,0,2025-04-20T22:59:32.906+03:00,766871980.7366149,0,0.6499996,99.72914,1,0.95,2025-04-20T22:59:42.035+03:00,100,1.666666666666667,2025-04-19T12:19:17.059+03:00,0.05691595998002078,0
2025-04-20T23:00:47.476+03:00,1745179246.460543,40.98553810758849,29.1374092842291,83.50758,-1,-1,-1,-1,30.00216584921526,27.66431350007163,-9999,9713.336506541667,-0.6418914794921875,0.6635589599609375,-0.374267578125,9713.331468541668,-2.458782184102394,-1.053345679883638,-0.7322286906262011,0.01524025388062,-0.02717913500964642,0.00983329676091671,0.002099037170410156,-0.005427658557891846,-0.004056543111801147,XArbitraryZVertical,-0.5458744190830277,0.1344728143899751,-0.7003554753092271,0.4398183723040398,-0.6463250517845154,0.6685287356376648,-0.3678763508796692,0,0,0,-1,-1,9674.059003125001,unknown,2,2025-04-20T22:59:17.430+03:00,2025-04-20T21:57:49.637+03:00,29,4.348656,0,0,23.86625,0,0,2025-04-20T22:59:32.906+03:00,766871980.7366149,0,0.6499996,99.72914,1,0.95,2025-04-20T22:59:42.035+03:00,100,1.666666666666667,2025-04-19T12:19:17.059+03:00,0.05691595998002078,0
2025-04-20T23:00:47.486+03:00,1745179246.460543,40.98553810758849,29.1374092842291,83.50758,-1,-1,-1,-1,30.00216584921526,27.66431350007163,-9999,9713.346582541668,-0.6388092041015625,0.661407470703125,-0.3652496337890625,9713.341544541667,-2.458553068190308,-1.0534648484526,-0.7322655719360129,0.01236350741237402,-0.02859513647854328,0.01368209719657898,0.002457201480865479,-0.004600584506988525,-0.005702108144760132,XArbitraryZVertical,-0.5459333941396085,0.1343991810371907,-0.7002643399027428,0.4399128775461543,-0.6463475227355957,0.6685561537742615,-0.3677871823310852,0,0,0,-1,-1,9674.059003125001,unknown,2,2025-04-20T22:59:17.430+03:00,2025-04-20T21:57:49.637+03:00,29,4.348656,0,0,23.86625,0,0,2025-04-20T22:59:32.906+03:00,766871980.7366149,0,0.6499996,99.72914,1,0.95,2025-04-20T22:59:42.035+03:00,100,1.666666666666667,2025-04-19T12:19:17.059+03:00,0.05691595998002078,0
2025-04-20T23:00:47.496+03:00,1745179246.460543,40.98553810758849,29.1374092842291,83.50758,-1,-1,-1,-1,30.00216584921526,27.66431350007163,-9999,9713.356657541668,-0.640167236328125,0.6644439697265625,-0.3622283935546875,9713.351620541667,-2.458328148526479,-1.053604780801073,-0.7323312492551329,0.01223600748926401,-0.02893275953829288,0.01468920521438122,0.006300389766693115,-0.006648361682891846,-0.002228468656539917,XArbitraryZVertical,-0.5460008152931421,0.134333974850055,-0.7001618691196034,0.4400121220359106,-0.6463607549667358,0.6686050295829773,-0.3676749765872955,0,0,0,-1,-1,9674.059003125001,unknown,2,2025-04-20T22:59:17.430+03:00,2025-04-20T21:57:49.637+03:00,29,4.348656,0,0,23.86625,0,0,2025-04-20T22:59:32.906+03:00,766871980.7366149,0,0.6499996,99.72914,1,0.95,2025-04-20T22:59:42.035+03:00,100,1.666666666666667,2025-04-19T12:19:17.059+03:00,0.05691595998002078,0
2025-04-20T23:00:47.506+03:00,1745179246.460543,40.98553810758849,29.1374092842291,83.50758,-1,-1,-1,-1,30.00216584921526,27.66431350007163,-9999,9713.366733541667,-0.64459228515625,0.66455078125,-0.3704833984375,9713.361695541667,-2.458096655233325,-1.053713997508959,-0.7324422856852407,0.00894886814057827,-0.02289430797100067,0.01974335126578808,0.007420480251312256,-0.006944477558135986,0.006102383136749268,XArbitraryZVertical,-0.5460601694199344,0.1342922627261902,-0.7000563074247891,0.440119339324652,-0.6463364958763123,0.6686875820159912,-0.3675677478313446,0,0,0,-1,-1,9674.059003125001,unknown,2,2025-04-20T22:59:17.430+03:00,2025-04-20T21:57:49.637+03:00,29,4.348656,0,0,23.86625,0,0,2025-04-20T22:59:32.906+03:00,766871980.7366149,0,0.6499996,99.72914,1,0.95,2025-04-20T22:59:42.035+03:00,100,1.666666666666667,2025-04-19T12:19:17.059+03:00,0.05691595998002078,0
2025-04-20T23:00:47.516+03:00,1745179246.460543,40.98553810758849,29.1374092842291,83.50758,-1,-1,-1,-1,30.00216584921526,27.66431350007163,-9999,9713.376809541667,-0.643402099609375,0.665069580078125,-0.372467041015625,9713.371771541668,-2.45792553490308,-1.053789125512079,-0.7325812709381389,-0.008768010884523392,-0.01587415114045143,0.01636503078043461,0.003262639045715332,-0.003690898418426514,0.001765906810760498,XArbitraryZVertical,-0.5461049721586397,0.1342860617416403,-0.6999668771425489,0.4402077825551995,-0.6462832689285278,0.6687909364700317,-0.3674732148647308,0,0,0,-1,-1,9674.059003125001,unknown,2,2025-04-20T22:59:17.430+03:00,2025-04-20T21:57:49.637+03:00,29,4.348656,0,0,23.86625,0,0,2025-04-20T22:59:32.906+03:00,766871980.7366149,0,0.6499996,99.72914,1,0.95,2025-04-20T22:59:42.035+03:00,100,1.666666666666667,2025-04-19T12:19:17.059+03:00,0.05691595998002078,0
2025-04-20T23:00:47.526+03:00,1745179246.460543,40.98553810758849,29.1374092842291,83.50758,-1,-1,-1,-1,30.00216584921526,27.66431350007163,-9999,9713.386885541668,-0.639251708984375,0.6685028076171875,-0.3710784912109375,9713.381847541667,-2.458167325839014,-1.054070136822346,-0.7328537598094389,-0.0438317209482193,-0.01162427756935358,0.01232155412435532,0.00151371955871582,-0.004915773868560791,-0.005692660808563232,XArbitraryZVertical,-0.5462007878276134,0.1344020293584183,-0.6998822295020344,0.4401881983760142,-0.6462280750274658,0.6689934730529785,-0.3672015964984894,0,0,0,-1,-1,9674.059003125001,unknown,2,2025-04-20T22:59:17.430+03:00,2025-04-20T21:57:49.637+03:00,29,4.348656,0,0,23.86625,0,0,2025-04-20T22:59:32.906+03:00,766871980.7366149,0,0.6499996,99.72914,1,0.95,2025-04-20T22:59:42.035+03:00,100,1.666666666666667,2025-04-19T12:19:17.059+03:00,0.05691595998002078,0
2025-04-20T23:00:47.537+03:00,1745179246.460543,40.98553810758849,29.1374092842291,83.50758,-1,-1,-1,-1,30.00216584921526,27.66431350007163,-9999,9713.396961541668,-0.6369781494140625,0.665130615234375,-0.37939453125,9713.391923541667,-2.458567944145984,-1.054452951364684,-0.7331561177669524,-0.05300051718950272,-0.011972950771451,0.01050604414194822,0.005186140537261963,-0.003095805644989014,-0.004132628440856934,XArbitraryZVertical,-0.5463230045963903,0.1345512928114813,-0.6997978621632435,0.4401249350059099,-0.6461926102638245,0.6692181825637817,-0.3668542504310608,0,0,0,-1,-1,9674.059003125001,unknown,2,2025-04-20T22:59:17.430+03:00,2025-04-20T21:57:49.637+03:00,29,4.348656,0,0,23.86625,0,0,2025-04-20T22:59:32.906+03:00,766871980.7366149,0,0.6499996,99.72914,1,0.95,2025-04-20T22:59:42.035+03:00,100,1.666666666666667,2025-04-19T12:19:17.059+03:00,0.05691595998002078,0
2025-04-20T23:00:47.546+03:00,1745179246.460543,40.98553810758849,29.1374092842291,83.50758,-1,-1,-1,-1,30.00216584921526,27.66431350007163,-9999,9713.407036541666,-0.63623046875,0.6581878662109375,-0.38323974609375,9713.401999541667,-2.459225067589494,-1.055054797962778,-0.7335785050858807,-0.06450457870960236,-0.02667732909321785,0.01119207497686148,0.008136391639709473,-0.00231093168258667,-0.007758557796478271,XArbitraryZVertical,-0.5465104375053284,0.1347716592653908,-0.6996832321484954,0.4400071769182687,-0.6461673974990845,0.6695319414138794,-0.3663258850574493,0,0,0,-1,-1,9674.059003125001,unknown,2,2025-04-20T22:59:17.430+03:00,2025-04-20T21:57:49.637+03:00,29,4.348656,0,0,23.86625,0,0,2025-04-20T22:59:32.906+03:00,766871980.7366149,0,0.6499996,99.72914,1,0.95,2025-04-20T22:59:42.035+03:00,100,1.666666666666667,2025-04-19T12:19:17.059+03:00,0.05691595998002078,0
2025-04-20T23:00:47.556+03:00,1745179246.460543,40.98553810758849,29.1374092842291,83.50758,-1,-1,-1,-1,30.00216584921526,27.66431350007163,-9999,9713.417112541667,-0.6348724365234375,0.6550750732421875,-0.37982177734375,9713.412074541668,-2.459796564631672,-1.055785827372164,-0.7339387357229994,-0.04900757595896721,-0.04366982728242874,0.01103884261101484,0.01010137796401978,-0.007980048656463623,-0.01800867915153503,XArbitraryZVertical,-0.5467455424216706,0.1349148090379616,-0.6995282499724849,0.4399176781747625,-0.6462250947952271,0.6697995066642761,-0.3657346069812775,0,0,0,-1,-1,9674.059003125001,unknown,2,2025-04-20T22:59:17.430+03:00,2025-04-20T21:57:49.637+03:00,29,4.348656,0,0,23.86625,0,0,2025-04-20T22:59:32.906+03:00,766871980.7366149,0,0.6499996,99.72914,1,0.95,2025-04-20T22:59:42.035+03:00,100,1.666666666666667,2025-04-19T12:19:17.059+03:00,0.05691595998002078,0
2025-04-20T23:00:47.572+03:00,1745179246.460543,40.98553810758849,29.1374092842291,83.50758,-1,-1,-1,-1,30.00216584921526,27.66431350007163,-9999,9713.427188541667,-0.6343994140625,0.663482666015625,-0.376495361328125,9713.422150541668,-2.460143284909106,-1.056493665496501,-0.7342392585900925,-0.0269550047814846,-0.05581330880522728,0.01691244542598724,0.009910225868225098,-0.01415413618087769,-0.01571178436279297,XArbitraryZVertical,-0.5469845815895024,0.1349771903840112,-0.6993434301987007,0.4398952126160256,-0.6463084816932678,0.6700226068496704,-0.3651780486106873,0,0,0,-1,-1,9674.059003125001,unknown,2,2025-04-20T22:59:17.430+03:00,2025-04-20T21:57:49.637+03:00,29,4.348656,0,0,23.86625,0,0,2025-04-20T22:59:32.906+03:00,766871980.7366149,0,0.6499996,99.72914,1,0.95,2025-04-20T22:59:42.035+03:00,100,1.666666666666667,2025-04-19T12:19:17.059+03:00,0.05691595998002078,0
2025-04-20T23:00:47.576+03:00,1745179246.460543,40.98553810758849,29.1374092842291,83.50758,-1,-1,-1,-1,30.00216584921526,27.66431350007163,-9999,9713.437264541668,-0.6409149169921875,0.66302490234375,-0.3741607666015625,9713.432226541667,-2.460197537640995,-1.057130016460534,-0.7344576713993799,-0.005941730923950672,-0.06877451390028,0.01694753207266331,0.01343291997909546,-0.01138657331466675,-0.01401305198669434,XArbitraryZVertical,-0.5472141880061475,0.134941629768673,-0.6991322036691671,0.4399563037530516,-0.646413266658783,0.6701847314834595,-0.3646947741508484,0,0,0,-1,-1,9674.059003125001,unknown,2,2025-04-20T22:59:17.430+03:00,2025-04-20T21:57:49.637+03:00,29,4.348656,0,0,23.86625,0,0,2025-04-20T22:59:32.906+03:00,766871980.7366149,0,0.6499996,99.72914,1,0.95,2025-04-20T22:59:42.035+03:00,100,1.666666666666667,2025-04-19T12:19:17.059+03:00,0.05691595998002078,0
2025-04-20T23:00:47.586+03:00,1745179246.460543,40.98553810758849,29.1374092842291,83.50758,-1,-1,-1,-1,30.00216584921526,27.66431350007163,-9999,9713.447340541667,-0.6424407958984375,0.6655120849609375,-0.3744964599609375,9713.442302541667,-2.460143204310869,-1.057853355586532,-0.7346387908743607,-0.006823769770562649,-0.0824650302529335,0.01798216998577118,0.008540093898773193,-0.006043076515197754,-0.01049673557281494,XArbitraryZVertical,-0.547479591885482,0.1348418974378039,-0.6988815581224241,0.4400548734949402,-0.6465710997581482,0.670319139957428,-0.3641675114631653,0,0,0,-1,-1,9674.059003125001,unknown,2,2025-04-20T22:59:17.430+03:00,2025-04-20T21:57:49.637+03:00,29,4.348656,0,0,23.86625,0,0,2025-04-20T22:59:32.906+03:00,766871980.7366149,0,0.6499996,99.72914,1,0.95,2025-04-20T22:59:42.035+03:00,100,1.666666666666667,2025-04-19T12:19:17.059+03:00,0.05691595998002078,0
2025-04-20T23:00:47.596+03:00,1745179246.460543,40.98553810758849,29.1374092842291,83.50758,-1,-1,-1,-1,30.00216584921526,27.66431350007163,-9999,9713.457416541667,-0.64404296875,0.6678924560546875,-0.3764495849609375,9713.452378541668,-2.460217614274019,-1.05871940353386,-0.7348178108128434,-0.02375301904976368,-0.08230689913034439,0.008258802816271782,0.004661262035369873,-0.007427096366882324,-0.01123771071434021,XArbitraryZVertical,-0.5477859464257878,0.1347450771879795,-0.6986205896493966,0.4401177353659985,-0.6467816829681396,0.6704519987106323,-0.3635486364364624,0,0,0,-1,-1,9674.059003125001,unknown,2,2025-04-20T22:59:17.430+03:00,2025-04-20T21:57:49.637+03:00,29,4.348656,0,0,23.86625,0,0,2025-04-20T22:59:32.906+03:00,766871980.7366149,0,0.6499996,99.72914,1,0.95,2025-04-20T22:59:42.035+03:00,100,1.666666666666667,2025-04-19T12:19:17.059+03:00,0.05691595998002078,0
2025-04-20T23:00:47.606+03:00,1745179246.460543,40.98553810758849,29.1374092842291,83.50758,-1,-1,-1,-1,30.00216584921526,27.66431350007163,-9999,9713.467491541667,-0.6392059326171875,0.6656646728515625,-0.388214111328125,9713.462453541668,-2.46047330711259,-1.059748185399755,-0.7349982504343671,-0.0268595963716507,-0.09375050663948059,0.003223031293600798,0.004303872585296631,-0.002815425395965576,-0.01145890355110168,XArbitraryZVertical,-0.5481368552305428,0.1346626790305948,-0.6983544558236248,0.4401284909806183,-0.6470498442649841,0.6705858707427979,-0.3628239035606384,0,0,0,-1,-1,9674.059003125001,unknown,2,2025-04-20T22:59:17.430+03:00,2025-04-20T21:57:49.637+03:00,29,4.348656,0,0,23.86625,0,0,2025-04-20T22:59:32.906+03:00,766871980.7366149,0,0.6499996,99.72914,1,0.95,2025-04-20T22:59:42.035+03:00,100,1.666666666666667,2025-04-19T12:19:17.059+03:00,0.05691595998002078,0
2025-04-20T23:00:47.616+03:00,1745179246.460543,40.98553810758849,29.1374092842291,83.50758,-1,-1,-1,-1,30.00216584921526,27.66431350007163,-9999,9713.477567541668,-0.634429931640625,0.666168212890625,-0.3964996337890625,9713.472529541667,-2.460874051228629,-1.061003380665958,-0.7351481893282832,-0.04939792677760124,-0.1027847453951836,-0.004692149814218283,0.005510091781616211,-0.003460884094238281,-0.02034661173820496,XArbitraryZVertical,-0.5485554270066288,0.1345578586366446,-0.6980645864175496,0.4400985789470638,-0.6474167704582214,0.6706970930099487,-0.3619622588157654,0,0,0,-1,-1,9674.059003125001,unknown,2,2025-04-20T22:59:17.430+03:00,2025-04-20T21:57:49.637+03:00,29,4.348656,0,0,23.86625,0,0,2025-04-20T22:59:32.906+03:00,766871980.7366149,0,0.6499996,99.72914,1,0.95,2025-04-20T22:59:42.035+03:00,100,1.666666666666667,2025-04-19T12:19:17.059+03:00,0.05691595998002078,0
2025-04-20T23:00:47.626+03:00,1745179246.460543,40.98553810758849,29.1374092842291,83.50758,-1,-1,-1,-1,30.00216584921526,27.66431350007163,-9999,9713.487643541668,-0.6397552490234375,0.66351318359375,-0.3961029052734375,9713.482605541667,-2.462022433748284,-1.062782882537897,-0.7355359120267356,-0.1491655260324478,-0.1040678545832634,-0.014583395794034,0.01189219951629639,-0.00533527135848999,-0.03361916542053223,XArbitraryZVertical,-0.5491178549925355,0.1346403069614905,-0.6977417971350178,0.4398839624864015,-0.6478327512741089,0.6709846258163452,-0.3606831431388855,0,0,0,-1,-1,9674.059003125001,unknown,2,2025-04-20T22:59:17.430+03:00,2025-04-20T21:57:49.637+03:00,29,4.348656,0,0,23.86625,0,0,2025-04-20T22:59:32.906+03:00,766871980.7366149,0,0.6499996,99.72914,1,0.95,2025-04-20T22:59:42.035+03:00,100,1.666666666666667,2025-04-19T12:19:17.059+03:00,0.05691595998002078,0
2025-04-20T23:00:47.637+03:00,1745179246.460543,40.98553810758849,29.1374092842291,83.50758,-1,-1,-1,-1,30.00216584921526,27.66431350007163,-9999,9713.497719541667,-0.639617919921875,0.651153564453125,-0.4014892578125,9713.492681541667,-2.464484748833848,-1.065565554713407,-0.7363472031526664,-0.2473425716161728,-0.1340746283531189,-0.01880470477044582,0.0125388503074646,-0.005860269069671631,-0.03823506832122803,XArbitraryZVertical,-0.5499610618433906,0.1350374332280429,-0.6973359752733072,0.4393520347653828,-0.6483573317527771,0.6715859174728394,-0.3586154580116272,0,0,0,-1,-1,9674.059003125001,unknown,2,2025-04-20T22:59:17.430+03:00,2025-04-20T21:57:49.637+03:00,29,4.348656,0,0,23.86625,0,0,2025-04-20T22:59:32.906+03:00,766871980.7366149,0,0.6499996,99.72914,1,0.95,2025-04-20T22:59:42.035+03:00,100,1.666666666666667,2025-04-19T12:19:17.059+03:00,0.05691595998002078,0
2025-04-20T23:00:47.647+03:00,1745179246.460543,40.98553810758849,29.1374092842291,83.50758,-1,-1,-1,-1,30.00216584921526,27.66431350007163,-9999,9713.507795541667,-0.635955810546875,0.6355133056640625,-0.411956787109375,9713.502757541668,-2.467825999705368,-1.069245570436586,-0.7375296959799651,-0.2973127961158752,-0.1632660627365112,-0.01233934983611107,0.006626546382904053,-0.01413649320602417,-0.04082250595092773,XArbitraryZVertical,-0.5510726999816523,0.1356333402764426,-0.6967903930998117,0.4386404890734962,-0.6489757895469666,0.6724616289138794,-0.3558449447154999,0,0,0,-1,-1,9674.059003125001,unknown,2,2025-04-20T22:59:17.430+03:00,2025-04-20T21:57:49.637+03:00,29,4.348656,0,0,23.86625,0,0,2025-04-20T22:59:32.906+03:00,766871980.7366149,0,0.6499996,99.72914,1,0.95,2025-04-20T22:59:42.035+03:00,100,1.666666666666667,2025-04-19T12:19:17.059+03:00,0.05691595998002078,0
2025-04-20T23:00:47.667+03:00,1745179246.460543,40.98553810758849,29.1374092842291,83.50758,-1,-1,-1,-1,30.00216584921526,27.66431350007163,-9999,9713.517870541667,-0.6419525146484375,0.62744140625,-0.4154815673828125,9713.512832541668,-2.471199990544431,-1.073226706256952,-0.7387456269119794,-0.2562192678451538,-0.1808984577655792,-0.01071502082049847,0.01401770114898682,-0.03008115291595459,-0.05351933836936951,XArbitraryZVertical,-0.5522849196003472,0.1361888291323303,-0.6961581326964831,0.4379470877905026,-0.649668276309967,0.67336106300354,-0.3528679311275482,0,0,0,-1,-1,9674.059003125001,unknown,2,2025-04-20T22:59:17.430+03:00,2025-04-20T21:57:49.637+03:00,29,4.348656,0,0,23.86625,0,0,2025-04-20T22:59:32.906+03:00,766871980.7366149,0,0.6499996,99.72914,1,0.95,2025-04-20T22:59:42.035+03:00,100,1.666666666666667,2025-04-19T12:19:17.059+03:00,0.05691595998002078,0
2025-04-20T23:00:47.669+03:00,1745179246.460543,40.98553810758849,29.1374092842291,83.50758,-1,-1,-1,-1,30.00216584921526,27.66431350007163,-9999,9713.527946541668,-0.6465606689453125,0.64459228515625,-0.4162139892578125,9713.522908541667,-2.473750751698372,-1.076699077684491,-0.7396776432136646,-0.1464256793260574,-0.1706138700246811,-0.01604560576379299,0.01195496320724487,-0.04436546564102173,-0.06382653117179871,XArbitraryZVertical,-0.5533603017848507,0.1365148242876512,-0.6955469372353281,0.4374590017067869,-0.6503368616104126,0.6740498542785645,-0.3503121435642242,0,0,0,-1,-1,9674.059003125001,unknown,2,2025-04-20T22:59:17.430+03:00,2025-04-20T21:57:49.637+03:00,29,4.348656,0,0,23.86625,0,0,2025-04-20T22:59:32.906+03:00,766871980.7366149,0,0.6499996,99.72914,1,0.95,2025-04-20T22:59:42.035+03:00,100,1.666666666666667,2025-04-19T12:19:17.059+03:00,0.05691595998002078,0
2025-04-20T23:00:47.677+03:00,1745179246.460543,40.98553810758849,29.1374092842291,83.50758,-1,-1,-1,-1,30.00216584921526,27.66431350007163,-9999,9713.538022541667,-0.646240234375,0.678009033203125,-0.4283447265625,9713.532984541667,-2.474528583999577,-1.078709962793657,-0.7397379945223062,0.0365995392203331,-0.1334241479635239,-0.02761038206517696,0.006121993064880371,-0.04187703132629395,-0.06722944974899292,XArbitraryZVertical,-0.5540089891214747,0.1363150054443502,-0.695146843785878,0.4373363281133957,-0.6510041952133179,0.6740943789482117,-0.3489845097064972,0,0,0,-1,-1,9674.059003125001,unknown,2,2025-04-20T22:59:17.430+03:00,2025-04-20T21:57:49.637+03:00,29,4.348656,0,0,23.86625,0,0,2025-04-20T22:59:32.906+03:00,766871980.7366149,0,0.6499996,99.72914,1,0.95,2025-04-20T22:59:42.035+03:00,100,1.666666666666667,2025-04-19T12:19:17.059+03:00,0.05691595998002078,0
2025-04-20T23:00:47.687+03:00,1745179246.460543,40.98553810758849,29.1374092842291,83.50758,-1,-1,-1,-1,30.00216584921526,27.66431350007163,-9999,9713.548098541667,-0.637786865234375,0.7037200927734375,-0.4618682861328125,9713.543060541668,-2.473421420711263,-1.079063629338448,-0.7387697789337463,0.2001711577177048,-0.09228070825338364,-0.05759011581540108,0.004333257675170898,-0.01239877939224243,-0.06966936588287354,XArbitraryZVertical,-0.5541651192605803,0.1355355370501761,-0.6950244785952986,0.4375752580200596,-0.6517026424407959,0.6733789443969727,-0.3490622639656067,0,0,0,-1,-1,9674.059003125001,unknown,2,2025-04-20T22:59:17.430+03:00,2025-04-20T21:57:49.637+03:00,29,4.348656,0,0,23.86625,0,0,2025-04-20T22:59:32.906+03:00,766871980.7366149,0,0.6499996,99.72914,1,0.95,2025-04-20T22:59:42.035+03:00,100,1.666666666666667,2025-04-19T12:19:17.059+03:00,0.05691595998002078,0
2025-04-20T23:00:47.697+03:00,1745179246.460543,40.98553810758849,29.1374092842291,83.50758,-1,-1,-1,-1,30.00216584921526,27.66431350007163,-9999,9713.558174541668,-0.62939453125,0.7073822021484375,-0.496429443359375,9713.553136541666,-2.47071030946917,-1.078039032936652,-0.7369113421985762,0.3154720664024353,-0.09613550454378128,-0.07801476866006851,0.01024937629699707,0.02088248729705811,-0.0940910279750824,XArbitraryZVertical,-0.5539100696791975,0.1342498786669963,-0.6951325551006494,0.438122473757824,-0.6524460911750793,0.6720038056373596,-0.3503212034702301,0,0,0,-1,-1,9674.059003125001,unknown,2,2025-04-20T22:59:17.430+03:00,2025-04-20T21:57:49.637+03:00,29,4.348656,0,0,23.86625,0,0,2025-04-20T22:59:32.906+03:00,766871980.7366149,0,0.6499996,99.72914,1,0.95,2025-04-20T22:59:42.035+03:00,100,1.666666666666667,2025-04-19T12:19:17.059+03:00,0.05691595998002078,0
2025-04-20T23:00:47.707+03:00,1745179246.460543,40.98553810758849,29.1374092842291,83.50758,-1,-1,-1,-1,30.00216584921526,27.66431350007163,-9999,9713.568249541668,-0.633392333984375,0.68731689453125,-0.521240234375,9713.563211541667,-2.46685563685499,-1.076155525634483,-0.7348288732922409,0.3830620050430298,-0.03123266622424126,-0.009424520656466484,0.01980608701705933,0.03893613815307617,-0.1270349621772766,XArbitraryZVertical,-0.5534186681968336,0.1327451059609304,-0.6952766955976823,0.4389723995846087,-0.6530153155326843,0.6704602241516113,-0.3522130250930786,0,0,0,-1,-1,9674.059003125001,unknown,2,2025-04-20T22:59:17.430+03:00,2025-04-20T21:57:49.637+03:00,29,4.348656,0,0,23.86625,0,0,2025-04-20T22:59:32.906+03:00,766871980.7366149,0,0.6499996,99.72914,1,0.95,2025-04-20T22:59:42.035+03:00,100,1.666666666666667,2025-04-19T12:19:17.059+03:00,0.05691595998002078,0
2025-04-20T23:00:47.717+03:00,1745179246.460543,40.98553810758849,29.1374092842291,83.50758,-1,-1,-1,-1,30.00216584921526,27.66431350007163,-9999,9713.578325541668,-0.6454620361328125,0.660003662109375,-0.552093505859375,9713.573287541667,-2.462592622124653,-1.073148317823704,-0.7332566938929814,0.3103422224521637,0.03555162250995636,0.02683678083121777,0.02357566356658936,0.03038352727890015,-0.1561862826347351,XArbitraryZVertical,-0.5525816800409308,0.131584661480389,-0.6955247136102876,0.4399821318677873,-0.6528786420822144,0.6692929267883301,-0.3546779155731201,0,0,0,-1,-1,9674.059003125001,unknown,2,2025-04-20T22:59:17.430+03:00,2025-04-20T21:57:49.637+03:00,29,4.348656,0,0,23.86625,0,0,2025-04-20T22:59:32.906+03:00,766871980.7366149,0,0.6499996,99.72914,1,0.95,2025-04-20T22:59:42.035+03:00,100,1.666666666666667,2025-04-19T12:19:17.059+03:00,0.05691595998002078,0
2025-04-20T23:00:47.727+03:00,1745179246.460543,40.98553810758849,29.1374092842291,83.50758,-1,-1,-1,-1,30.00216584921526,27.66431350007163,-9999,9713.588401541667,-0.6535491943359375,0.611968994140625,-0.603912353515625,9713.583363541667,-2.460100779676839,-1.07123446015662,-0.7326318032246329,0.0676824226975441,-0.01087153516709805,0.03326085582375526,0.01299351453781128,0.005716800689697266,-0.1773354113101959,XArbitraryZVertical,-0.5520499097957772,0.1310623360059593,-0.6956451817565608,0.4406147903478996,-0.6525657176971436,0.6688284873962402,-0.3561271131038666,0,0,0,-1,-1,9674.059003125001,unknown,2,2025-04-20T22:59:17.430+03:00,2025-04-20T21:57:49.637+03:00,29,4.348656,0,0,23.86625,0,0,2025-04-20T22:59:32.906+03:00,766871980.7366149,0,0.6499996,99.72914,1,0.95,2025-04-20T22:59:42.035+03:00,100,1.666666666666667,2025-04-19T12:19:17.059+03:00,0.05691595998002078,0
2025-04-20T23:00:47.738+03:00,1745179246.460543,40.98553810758849,29.1374092842291,83.50758,-1,-1,-1,-1,30.00216584921526,27.66431350007163,-9999,9713.598477541667,-0.6525115966796875,0.566253662109375,-0.651580810546875,9713.593439541668,-2.460961442566699,-1.072237570911531,-0.7336041662945736,-0.2709515392780304,-0.1062963232398033,0.07834471017122269,0.001777350902557373,-0.03127592802047729,-0.2218040823936462,XArbitraryZVertical,-0.5523887341661174,0.1314765733116386,-0.6953391596715363,0.4405497254246388,-0.6523510813713074,0.6695510149002075,-0.355161190032959,0,0,0,-1,-1,9674.059003125001,unknown,2,2025-04-20T22:59:17.430+03:00,2025-04-20T21:57:49.637+03:00,29,4.348656,0,0,23.86625,0,0,2025-04-20T22:59:32.906+03:00,766871980.7366149,0,0.6499996,99.72914,1,0.95,2025-04-20T22:59:42.035+03:00,100,1.666666666666667,2025-04-19T12:19:17.059+03:00,0.05691595998002078,0
2025-04-20T23:00:47.747+03:00,1745179246.460543,40.98553810758849,29.1374092842291,83.50758,-1,-1,-1,-1,30.00216584921526,27.66431350007163,-9999,9713.608553541668,-0.6362762451171875,0.5431365966796875,-0.6793365478515625,9713.603515541667,-2.465208898139815,-1.076848533563159,-0.7363592551147324,-0.5282001495361328,-0.2443255633115768,0.1025919914245605,-0.002475857734680176,-0.08475720882415771,-0.2779378592967987,XArbitraryZVertical,-0.5538388333254728,0.1327621816530256,-0.6943788322713073,0.4398575419819973,-0.6523550152778625,0.6715948581695557,-0.3512735068798065,0,0,0,-1,-1,9674.059003125001,unknown,2,2025-04-20T22:59:17.430+03:00,2025-04-20T21:57:49.637+03:00,29,4.348656,0,0,23.86625,0,0,2025-04-20T22:59:32.906+03:00,766871980.7366149,0,0.6499996,99.72914,1,0.95,2025-04-20T22:59:42.035+03:00,100,1.666666666666667,2025-04-19T12:19:17.059+03:00,0.05691595998002078,0
2025-04-20T23:00:47.758+03:00,1745179246.460543,40.98553810758849,29.1374092842291,83.50758,-1,-1,-1,-1,30.00216584921526,27.66431350007163,-9999,9713.618628541668,-0.6334991455078125,0.5382080078125,-0.66748046875,9713.613591541667,-2.471484140436922,-1.084201223090563,-0.7399834417930019,-0.5976375341415405,-0.3846831917762756,0.09307172894477844,0.008690953254699707,-0.122304379940033,-0.3234503567218781,XArbitraryZVertical,-0.5561311658773223,0.1343674676355981,-0.6929006513761782,0.4388075170661891,-0.6527643799781799,0.6742756962776184,-0.3453270196914673,0,0,0,-1,-1,9674.059003125001,unknown,2,2025-04-20T22:59:17.430+03:00,2025-04-20T21:57:49.637+03:00,29,4.348656,0,0,23.86625,0,0,2025-04-20T22:59:32.906+03:00,766871980.7366149,0,0.6499996,99.72914,1,0.95,2025-04-20T22:59:42.035+03:00,100,1.666666666666667,2025-04-19T12:19:17.059+03:00,0.05691595998002078,0
2025-04-20T23:00:47.768+03:00,1745179246.460543,40.98553810758849,29.1374092842291,83.50758,-1,-1,-1,-1,30.00216584921526,27.66431350007163,-9999,9713.628704541667,-0.643280029296875,0.5679473876953125,-0.6404571533203125,9713.623666541667,-2.477676822378602,-1.092486111053903,-0.7437638919447193,-0.5438309907913208,-0.4232907891273499,0.1474843770265579,0.0205075740814209,-0.1395414471626282,-0.3400252163410187,XArbitraryZVertical,-0.5587376617182475,0.135817927411705,-0.6910962941619049,0.4378943335562527,-0.6533352732658386,0.6770626306533813,-0.338731437921524,0,0,0,-1,-1,9674.059003125001,unknown,2,2025-04-20T22:59:17.430+03:00,2025-04-20T21:57:49.637+03:00,29,4.348656,0,0,23.86625,0,0,2025-04-20T22:59:32.906+03:00,766871980.7366149,0,0.6499996,99.72914,1,0.95,2025-04-20T22:59:42.035+03:00,100,1.666666666666667,2025-04-19T12:19:17.059+03:00,0.05691595998002078,0
2025-04-20T23:00:47.778+03:00,1745179246.460543,40.98553810758849,29.1374092842291,83.50758,-1,-1,-1,-1,30.00216584921526,27.66431350007163,-9999,9713.638780541667,-0.6579742431640625,0.625396728515625,-0.60260009765625,9713.633742541668,-2.484307986997468,-1.101786952766653,-0.7476691911722517,-0.6781765818595886,-0.4995919466018677,0.1013416424393654,0.01694792509078979,-0.1314696073532104,-0.3231898546218872,XArbitraryZVertical,-0.561646528413822,0.1372291787903875,-0.689059846910437,0.4369414074922626,-0.6540939211845398,0.6799314618110657,-0.331442654132843,0,0,0,-1,-1,9674.059003125001,unknown,2,2025-04-20T22:59:17.430+03:00,2025-04-20T21:57:49.637+03:00,29,4.348656,0,0,23.86625,0,0,2025-04-20T22:59:32.906+03:00,766871980.7366149,0,0.6499996,99.72914,1,0.95,2025-04-20T22:59:42.035+03:00,100,1.666666666666667,2025-04-19T12:19:17.059+03:00,0.05691595998002078,0
2025-04-20T23:00:47.788+03:00,1745179246.460543,40.98553810758849,29.1374092842291,83.50758,-1,-1,-1,-1,30.00216584921526,27.66431350007163,-9999,9713.648856541668,-0.6750030517578125,0.647796630859375,-0.5550689697265625,9713.643818541666,-2.492387246667337,-1.112630523273679,-0.7519838465396846,-0.7365663647651672,-0.5672010779380798,0.1500263661146164,0.006437361240386963,-0.08587527275085449,-0.3025497496128082,XArbitraryZVertical,-0.5649731175068912,0.138889732508674,-0.6867931884190557,0.4356950060503254,-0.6550122499465942,0.6830889582633972,-0.323030024766922,0,0,0,-1,-1,9674.059003125001,unknown,2,2025-04-20T22:59:17.430+03:00,2025-04-20T21:57:49.637+03:00,29,4.348656,0,0,23.86625,0,0,2025-04-20T22:59:32.906+03:00,766871980.7366149,0,0.6499996,99.72914,1,0.95,2025-04-20T22:59:42.035+03:00,100,1.666666666666667,2025-04-19T12:19:17.059+03:00,0.05691595998002078,0
2025-04-20T23:00:47.798+03:00,1745179246.460543,40.98553810758849,29.1374092842291,83.50758,-1,-1,-1,-1,30.00216584921526,27.66431350007163,-9999,9713.658932541668,-0.645843505859375,0.6696319580078125,-0.552947998046875,9713.653894541667,-2.500078350691392,-1.124152279359745,-0.7568346202225144,-0.6882081627845764,-0.6601291298866272,0.2318115085363388,-0.01653158664703369,-0.04482376575469971,-0.2603290975093842,XArbitraryZVertical,-0.5685413515961836,0.1405250337143845,-0.6841042697708741,0.4347582315609065,-0.655694305896759,0.6866236329078674,-0.3140268921852112,0,0,0,-1,-1,9674.059003125001,unknown,2,2025-04-20T22:59:17.430+03:00,2025-04-20T21:57:49.637+03:00,29,4.348656,0,0,23.86625,0,0,2025-04-20T22:59:32.906+03:00,766871980.7366149,0,0.6499996,99.72914,1,0.95,2025-04-20T22:59:42.035+03:00,100,1.666666666666667,2025-04-19T12:19:17.059+03:00,0.05691595998002078,0
2025-04-20T23:00:47.808+03:00,1745179246.460543,40.98553810758849,29.1374092842291,83.50758,-1,-1,-1,-1,30.00216584921526,27.66431350007163,-9999,9713.669008541667,-0.6244354248046875,0.7305908203125,-0.5404815673828125,9713.663970541667,-2.507050675288563,-1.136038120766049,-0.7623929962455273,-0.6734529733657837,-0.743285059928894,0.3304385840892792,-0.006719470024108887,-0.03704386949539185,-0.2459836304187775,XArbitraryZVertical,-0.5722646879156985,0.1421743266611774,-0.6809693230274927,0.4342582211662851,-0.6559086441993713,0.6906539797782898,-0.3045991659164429,0,0,0,-1,-1,9674.059003125001,unknown,2,2025-04-20T22:59:17.430+03:00,2025-04-20T21:57:49.637+03:00,29,4.348656,0,0,23.86625,0,0,2025-04-20T22:59:32.906+03:00,766871980.7366149,0,0.6499996,99.72914,1,0.95,2025-04-20T22:59:42.035+03:00,100,1.666666666666667,2025-04-19T12:19:17.059+03:00,0.05691595998002078,0
2025-04-20T23:00:47.818+03:00,1745179246.460543,40.98553810758849,29.1374092842291,83.50758,-1,-1,-1,-1,30.00216584921526,27.66431350007163,-9999,9713.679083541667,-0.5951690673828125,0.7883148193359375,-0.544464111328125,9713.674045541668,-2.512823974045105,-1.14802077372424,-0.768175713229286,-0.5555598735809326,-0.8592994809150696,0.3728519678115845,0.02174884080886841,0.002105474472045898,-0.2547454833984375,XArbitraryZVertical,-0.576068028045454,0.1435563038464328,-0.6774692881220781,0.4342494356032743,-0.6558582782745361,0.6948243975639343,-0.2950744330883026,0,0,0,-1,-1,9674.059003125001,unknown,2,2025-04-20T22:59:17.430+03:00,2025-04-20T21:57:49.637+03:00,29,4.348656,0,0,23.86625,0,0,2025-04-20T22:59:32.906+03:00,766872047.7996458,0,0.4799995,99.73148,1,0.95,2025-04-20T22:59:42.035+03:00,100,1.666666666666667,2025-04-19T12:19:17.059+03:00,0.05691595998002078,0
2025-04-20T23:00:47.828+03:00,1745179246.460543,40.98553810758849,29.1374092842291,83.50758,-1,-1,-1,-1,30.00216584921526,27.66431350007163,-9999,9713.689159541667,-0.5714569091796875,0.8214874267578125,-0.55731201171875,9713.684121541668,-2.517512193767593,-1.160653048884457,-0.7739323726414074,-0.5218871235847473,-0.9942200183868408,0.3975357413291931,0.04504495859146118,0.06418478488922119,-0.2518208026885986,XArbitraryZVertical,-0.5801237598558481,0.1444755728332101,-0.6735250298336652,0.4346806209004874,-0.6558542847633362,0.6989529132843018,-0.285166472196579,0,0,0,-1,-1,9674.059003125001,unknown,2,2025-04-20T22:59:17.430+03:00,2025-04-20T21:57:49.637+03:00,29,4.348656,0,0,23.86625,0,0,2025-04-20T22:59:32.906+03:00,766872047.7996458,0,0.4799995,99.73148,1,0.95,2025-04-20T22:59:42.035+03:00,100,1.666666666666667,2025-04-19T12:19:17.059+03:00,0.05691595998002078,0
2025-04-20T23:00:47.838+03:00,1745179246.460543,40.98553810758849,29.1374092842291,83.50758,-1,-1,-1,-1,30.00216584921526,27.66431350007163,-9999,9713.699235541668,-0.551239013671875,0.8242645263671875,-0.5587005615234375,9713.694197541667,-2.521879028526068,-1.174344722017179,-0.7795729137139606,-0.4697521328926086,-1.128583073616028,0.3905033469200134,0.07470524311065674,0.1032528281211853,-0.2808321714401245,XArbitraryZVertical,-0.5845097536840401,0.1450228228796578,-0.6691996474991881,0.4353026502456224,-0.6560497879981995,0.7029757499694824,-0.2746334671974182,0,0,0,-1,-1,9674.059003125001,unknown,2,2025-04-20T22:59:17.430+03:00,2025-04-20T21:57:49.637+03:00,29,4.348656,0,0,23.86625,0,0,2025-04-20T22:59:32.906+03:00,766872047.7996458,0,0.4799995,99.73148,1,0.95,2025-04-20T22:59:42.035+03:00,100,1.666666666666667,2025-04-19T12:19:17.059+03:00,0.05691595998002078,0
2025-04-20T23:00:47.848+03:00,1745179246.460543,40.98553810758849,29.1374092842291,83.50758,-1,-1,-1,-1,30.00216584921526,27.66431350007163,-9999,9713.709311541666,-0.53704833984375,0.7881927490234375,-0.572265625,9713.704273541667,-2.525997311094501,-1.189259030905917,-0.7849269547922713,-0.4822583496570587,-1.235439777374268,0.3761502206325531,0.0948331356048584,0.122327983379364,-0.2920520901679993,XArbitraryZVertical,-0.5892668284873567,0.1451131184886222,-0.6644938500712407,0.4360672733057175,-0.6565701961517334,0.7067735195159912,-0.2634135782718658,0,0,0,-1,-1,9674.059003125001,unknown,2,2025-04-20T22:59:17.430+03:00,2025-04-20T21:57:49.637+03:00,29,4.348656,0,0,23.86625,0,0,2025-04-20T22:59:32.906+03:00,766872047.7996458,0,0.4799995,99.73148,1,0.95,2025-04-20T22:59:42.035+03:00,100,1.666666666666667,2025-04-19T12:19:17.059+03:00,0.05691595998002078,0
2025-04-20T23:00:47.858+03:00,1745179246.460543,40.98553810758849,29.1374092842291,83.50758,-1,-1,-1,-1,30.00216584921526,27.66431350007163,-9999,9713.719387541667,-0.542083740234375,0.72344970703125,-0.5718231201171875,9713.714349541668,-2.52979405795669,-1.204963165650063,-0.7907584053176729,-0.3987410068511963,-1.385839581489563,0.5268397927284241,0.1146820187568665,0.09875965118408203,-0.3167673349380493,XArbitraryZVertical,-0.5942595456250871,0.1451192780063191,-0.6593364779980693,0.437117085144636,-0.6567657589912415,0.7108868956565857,-0.2515919804573059,0,0,0,-1,-1,9674.059003125001,unknown,2,2025-04-20T22:59:17.430+03:00,2025-04-20T21:57:49.637+03:00,29,4.348656,0,0,23.86625,0,0,2025-04-20T22:59:32.906+03:00,766872047.7996458,0,0.4799995,99.73148,1,0.95,2025-04-20T22:59:42.035+03:00,100,1.666666666666667,2025-04-19T12:19:17.059+03:00,0.05691595998002078,0
2025-04-20T23:00:47.869+03:00,1745179246.460543,40.98553810758849,29.1374092842291,83.50758,-1,-1,-1,-1,30.00216584921526,27.66431350007163,-9999,9713.729462541667,-0.5291900634765625,0.6644439697265625,-0.56036376953125,9713.724425541668,-2.531665461451798,-1.221441382470894,-0.7972626189040802,-0.3242936730384827,-1.59320604801178,0.5853137373924255,0.1168671250343323,0.04372411966323853,-0.3325680792331696,XArbitraryZVertical,-0.5995889168971428,0.1446342078141613,-0.6533286381610579,0.4390165486382144,-0.656463623046875,0.7154462337493896,-0.2391481548547745,0,0,0,-1,-1,9674.059003125001,unknown,2,2025-04-20T22:59:17.430+03:00,2025-04-20T21:57:49.637+03:00,29,4.348656,0,0,23.86625,0,0,2025-04-20T22:59:32.906+03:00,766872047.7996458,0,0.4799995,99.73148,1,0.95,2025-04-20T22:59:42.035+03:00,100,1.666666666666667,2025-04-19T12:19:17.059+03:00,0.05691595998002078,0
2025-04-20T23:00:47.879+03:00,1745179246.460543,40.98553810758849,29.1374092842291,83.50758,-1,-1,-1,-1,30.00216584921526,27.66431350007163,-9999,9713.739538541668,-0.536102294921875,0.649688720703125,-0.50323486328125,9713.734500541666,-2.533244676688388,-1.239278364396831,-0.804313343180683,-0.3451426923274994,-1.735735177993774,0.6686781644821167,0.1180883646011353,-0.03181707859039307,-0.3445890247821808,XArbitraryZVertical,-0.6053106062337524,0.1439517539209523,-0.6466707907174131,0.4412410330976043,-0.6558385491371155,0.7203545570373535,-0.2257539182901382,0,0,0,-1,-1,9674.059003125001,unknown,2,2025-04-20T22:59:17.430+03:00,2025-04-20T21:57:49.637+03:00,29,4.348656,0,0,23.86625,0,0,2025-04-20T22:59:32.906+03:00,766872047.7996458,0,0.4799995,99.73148,1,0.95,2025-04-20T22:59:42.035+03:00,100,1.666666666666667,2025-04-19T12:19:17.059+03:00,0.05691595998002078,0
2025-04-20T23:00:47.889+03:00,1745179246.460543,40.98553810758849,29.1374092842291,83.50758,-1,-1,-1,-1,30.00216584921526,27.66431350007163,-9999,9713.749614541668,-0.5315093994140625,0.66656494140625,-0.4314117431640625,9713.744576541667,-2.534990939232368,-1.258975068711545,-0.8124606273301325,-0.4181540608406067,-1.9098140001297,0.7837317585945129,0.1243376731872559,-0.07330220937728882,-0.3256812691688538,XArbitraryZVertical,-0.6115317506917057,0.1433043158364698,-0.6391701151278183,0.4437953597375793,-0.6545500755310059,0.725981593132019,-0.2109855860471725,0,0,0,-1,-1,9674.059003125001,unknown,2,2025-04-20T22:59:17.430+03:00,2025-04-20T21:57:49.637+03:00,29,4.348656,0,0,23.86625,0,0,2025-04-20T22:59:32.906+03:00,766872047.7996458,0,0.4799995,99.73148,1,0.95,2025-04-20T22:59:42.035+03:00,100,1.666666666666667,2025-04-19T12:19:17.059+03:00,0.05691595998002078,0
2025-04-20T23:00:47.899+03:00,1745179246.460543,40.98553810758849,29.1374092842291,83.50758,-1,-1,-1,-1,30.00216584921526,27.66431350007163,-9999,9713.759690541667,-0.5413665771484375,0.7066650390625,-0.3549652099609375,9713.754652541667,-2.538817109374927,-1.281373670121649,-0.8219336530850638,-0.6397953033447266,-1.983438372612,0.8529587388038635,0.1164187788963318,-0.0789756178855896,-0.2719309329986572,XArbitraryZVertical,-0.6183459348529771,0.1431700001404715,-0.6309202866165794,0.4461951595503224,-0.6524904370307922,0.7324636578559875,-0.1943013072013855,0,0,0,-1,-1,9674.059003125001,unknown,2,2025-04-20T22:59:17.430+03:00,2025-04-20T21:57:49.637+03:00,29,4.348656,0,0,23.86625,0,0,2025-04-20T22:59:32.906+03:00,766872047.7996458,0,0.4799995,99.73148,1,0.95,2025-04-20T22:59:42.035+03:00,100,1.666666666666667,2025-04-19T12:19:17.059+03:00,0.05691595998002078,0
2025-04-20T23:00:47.909+03:00,1745179246.460543,40.98553810758849,29.1374092842291,83.50758,-1,-1,-1,-1,30.00216584921526,27.66431350007163,-9999,9713.769766541667,-0.554473876953125,0.710113525390625,-0.2627105712890625,9713.764728541668,-2.546025137420538,-1.307219594712904,-0.8325725158374356,-0.8596429228782654,-2.090887784957886,0.9072475433349609,0.116545557975769,-0.05202788114547729,-0.2211962789297104,XArbitraryZVertical,-0.625839931979943,0.1437270514434932,-0.6219958710080505,0.4480936436478469,-0.6497333645820618,0.7396650314331055,-0.1753338277339935,0,0,0,-1,-1,9674.059003125001,unknown,2,2025-04-20T22:59:17.430+03:00,2025-04-20T21:57:49.637+03:00,29,4.348656,0,0,23.86625,0,0,2025-04-20T22:59:32.906+03:00,766872047.7996458,0,0.4799995,99.73148,1,0.95,2025-04-20T22:59:42.035+03:00,100,1.666666666666667,2025-04-19T12:19:17.059+03:00,0.05691595998002078,0
2025-04-20T23:00:47.919+03:00,1745179246.460543,40.98553810758849,29.1374092842291,83.50758,-1,-1,-1,-1,30.00216584921526,27.66431350007163,-9999,9713.779842541668,-0.574920654296875,0.6869049072265625,-0.1958160400390625,9713.774804541667,-2.556109773718616,-1.335813836392173,-0.8441565449151422,-1.005083441734314,-2.076709985733032,0.996438205242157,0.09571957588195801,-0.03241479396820068,-0.1534095257520676,XArbitraryZVertical,-0.6337687423037942,0.1449029238393427,-0.6125289233572082,0.4496092318499733,-0.6461039781570435,0.7474110126495361,-0.1546806544065475,0,0,0,-1,-1,9674.059003125001,unknown,2,2025-04-20T22:59:17.430+03:00,2025-04-20T21:57:49.637+03:00,29,4.348656,0,0,23.86625,0,0,2025-04-20T22:59:32.906+03:00,766872047.7996458,0,0.4799995,99.73148,1,0.95,2025-04-20T22:59:42.035+03:00,100,1.666666666666667,2025-04-19T12:19:17.059+03:00,0.05691595998002078,0
2025-04-20T23:00:47.929+03:00,1745179246.460543,40.98553810758849,29.1374092842291,83.50758,-1,-1,-1,-1,30.00216584921526,27.66431350007163,-9999,9713.789917541668,-0.5992279052734375,0.65887451171875,-0.1458282470703125,9713.784880541667,-2.568117035134961,-1.36562627440574,-0.8569776652327307,-1.065207481384277,-2.046334028244019,1.155834436416626,0.08053761720657349,-0.05638915300369263,-0.09227269887924194,XArbitraryZVertical,-0.641667857580852,0.1468591782396519,-0.6027050970694817,0.451044619740277,-0.6409928798675537,0.7558672428131104,-0.133389487862587,0,0,0,-1,-1,9674.059003125001,unknown,2,2025-04-20T22:59:17.430+03:00,2025-04-20T21:57:49.637+03:00,29,4.348656,0,0,23.86625,0,0,2025-04-20T22:59:32.906+03:00,766872047.7996458,0,0.4799995,99.73148,1,0.95,2025-04-20T22:59:42.035+03:00,100,1.666666666666667,2025-04-19T12:19:17.059+03:00,0.05691595998002078,0
2025-04-20T23:00:47.939+03:00,1745179246.460543,40.98553810758849,29.1374092842291,83.50758,-1,-1,-1,-1,30.00216584921526,27.66431350007163,-9999,9713.799993541666,-0.5798492431640625,0.6431121826171875,-0.119903564453125,9713.794955541667,-2.580552972743323,-1.395340642444141,-0.8713701404515088,-1.048534989356995,-1.953760743141174,1.349433541297913,0.04135018587112427,-0.09213143587112427,-0.05737804621458054,XArbitraryZVertical,-0.6491933865431896,0.149532515134993,-0.5925304197611502,0.4528747569837746,-0.633894681930542,0.7652117013931274,-0.112375944852829,0,0,0,-1,-1,9674.059003125001,unknown,2,2025-04-20T22:59:17.430+03:00,2025-04-20T21:57:49.637+03:00,29,4.348656,0,0,23.86625,0,0,2025-04-20T22:59:32.906+03:00,766872047.7996458,0,0.4799995,99.73148,1,0.95,2025-04-20T22:59:42.035+03:00,100,1.666666666666667,2025-04-19T12:19:17.059+03:00,0.05691595998002078,0
2025-04-20T23:00:47.949+03:00,1745179246.460543,40.98553810758849,29.1374092842291,83.50758,-1,-1,-1,-1,30.00216584921526,27.66431350007163,-9999,9713.810069541667,-0.5442047119140625,0.6775970458984375,-0.1154327392578125,9713.805031541668,-2.593144130974859,-1.424781461276009,-0.8869492669535809,-1.018379211425781,-1.947719097137451,1.4461270570755,0.03162717819213867,-0.1282212138175964,-0.03591632097959518,XArbitraryZVertical,-0.6562914913469402,0.1527108276222337,-0.5821005686287173,0.4551040620159249,-0.6250566840171814,0.7751479744911194,-0.09192176163196564,0,0,0,-1,-1,9674.059003125001,unknown,2,2025-04-20T22:59:17.430+03:00,2025-04-20T21:57:49.637+03:00,29,4.348656,0,0,23.86625,0,0,2025-04-20T22:59:32.906+03:00,766872047.7996458,0,0.4799995,99.73148,1,0.95,2025-04-20T22:59:42.035+03:00,100,1.666666666666667,2025-04-19T12:19:17.059+03:00,0.05691595998002078,0
2025-04-20T23:00:47.959+03:00,1745179246.460543,40.98553810758849,29.1374092842291,83.50758,-1,-1,-1,-1,30.00216584921526,27.66431350007163,-9999,9713.820145541667,-0.5335845947265625,0.7365570068359375,-0.0917205810546875,9713.815107541668,-2.605789356275085,-1.454074929894073,-0.9028839851686949,-0.9604065418243408,-1.876278281211853,1.473515152931213,0.05347311496734619,-0.1305297613143921,-0.04623525589704514,XArbitraryZVertical,-0.6630211876084399,0.1560107135994937,-0.5715581476618535,0.457585659284748,-0.6151338219642639,0.7851163744926453,-0.07212712615728378,0,0,0,-1,-1,9674.059003125001,unknown,2,2025-04-20T22:59:17.430+03:00,2025-04-20T21:57:49.637+03:00,29,4.348656,0,0,23.86625,0,0,2025-04-20T22:59:32.906+03:00,766872047.7996458,0,0.4799995,99.73148,1,0.95,2025-04-20T22:59:42.035+03:00,100,1.666666666666667,2025-04-19T12:19:17.059+03:00,0.05691595998002078,0
2025-04-20T23:00:47.969+03:00,1745179246.460543,40.98553810758849,29.1374092842291,83.50758,-1,-1,-1,-1,30.00216584921526,27.66431350007163,-9999,9713.830221541668,-0.550201416015625,0.7953033447265625,-0.03619384765625,9713.825183541667,-2.618387364174352,-1.482911272372549,-0.9184939706004617,-0.8634163737297058,-1.906530141830444,1.436311483383179,0.07093769311904907,-0.08829808235168457,-0.05389857292175293,XArbitraryZVertical,-0.6693362048820906,0.1592152068366992,-0.5611550940034317,0.4601570047618898,-0.6046748757362366,0.79468834400177,-0.05327912420034409,0,0,0,-1,-1,9674.059003125001,unknown,2,2025-04-20T22:59:17.430+03:00,2025-04-20T21:57:49.637+03:00,29,4.348656,0,0,23.86625,0,0,2025-04-20T22:59:32.906+03:00,766872047.7996458,0,0.4799995,99.73148,1,0.95,2025-04-20T22:59:42.035+03:00,100,1.666666666666667,2025-04-19T12:19:17.059+03:00,0.05691595998002078,0
2025-04-20T23:00:47.979+03:00,1745179246.460543,40.98553810758849,29.1374092842291,83.50758,-1,-1,-1,-1,30.00216584921526,27.66431350007163,-9999,9713.840297541667,-0.5521087646484375,0.826690673828125,0.0603485107421875,9713.835259541667,-2.630805087641384,-1.511475951387184,-0.9335620245456938,-0.8374050259590149,-1.812658786773682,1.456341147422791,0.05372124910354614,-0.03715819120407104,-0.03387939557433128,XArbitraryZVertical,-0.6753279139152248,0.1621588694579907,-0.5508612283153266,0.4628050087349287,-0.5939280390739441,0.803744375705719,-0.03527341783046722,0,0,0,-1,-1,9674.059003125001,unknown,2,2025-04-20T22:59:17.430+03:00,2025-04-20T21:57:49.637+03:00,29,4.348656,0,0,23.86625,0,0,2025-04-20T22:59:32.906+03:00,766872047.7996458,0,0.4799995,99.73148,1,0.95,2025-04-20T22:59:42.035+03:00,100,1.666666666666667,2025-04-19T12:19:17.059+03:00,0.05691595998002078,0
2025-04-20T23:00:47.989+03:00,1745179246.460543,40.98553810758849,29.1374092842291,83.50758,-1,-1,-1,-1,30.00216584921526,27.66431350007163,-9999,9713.850373125,-0.507110595703125,0.8252410888671875,0.2217254638671875,9713.845335125001,-2.643716650891585,-1.539214306543329,-0.947150057680319,-0.8020702004432678,-1.654785513877869,1.124869465827942,0.02786052227020264,0.004560172557830811,0.024544358253479,XArbitraryZVertical,-0.6808790615270345,0.1648736025602511,-0.5412523022827326,0.4650444126372158,-0.5837076306343079,0.8117544651031494,-0.01844079792499542,0,0,0,-1,-1,9674.059003125001,unknown,2,2025-04-20T22:59:17.430+03:00,2025-04-20T21:57:49.637+03:00,29,4.348656,0,0,23.86625,0,0,2025-04-20T22:59:32.906+03:00,766872047.7996458,0,0.4799995,99.73148,1,0.95,2025-04-20T22:59:42.035+03:00,100,1.666666666666667,2025-04-19T12:19:17.059+03:00,0.05691595998002078,0
2025-04-20T23:00:48.000+03:00,1745179246.460543,40.98553810758849,29.1374092842291,83.50758,-1,-1,-1,-1,30.00216584921526,27.66431350007163,-9999,9713.860449125001,-0.504974365234375,0.7877960205078125,0.4251861572265625,9713.855411125001,-2.655204845026027,-1.564808420255724,-0.9572871024049068,-0.5462180972099304,-1.518333077430725,0.8906867504119873,0.0441136360168457,0.01169770956039429,0.1347951292991638,XArbitraryZVertical,-0.686005262294895,0.1663521905014579,-0.5328055030130689,0.4667354354212701,-0.5757298469543457,0.8176326751708984,-0.003447457682341337,0,0,0,-1,-1,9674.059003125001,unknown,2,2025-04-20T22:59:17.430+03:00,2025-04-20T21:57:49.637+03:00,29,4.348656,0,0,23.86625,0,0,2025-04-20T22:59:32.906+03:00,766872047.7996458,0,0.4799995,99.73148,1,0.95,2025-04-20T22:59:42.035+03:00,100,1.666666666666667,2025-04-19T12:19:17.059+03:00,0.05691595998002078,0
2025-04-20T23:00:48.011+03:00,1745179246.460543,40.98553810758849,29.1374092842291,83.50758,-1,-1,-1,-1,30.00216584921526,27.66431350007163,-9999,9713.870525125001,-0.5149383544921875,0.7989044189453125,0.4712677001953125,9713.865487125,-2.663586858673193,-1.586448708827978,-0.9656196697555983,-0.396142840385437,-1.436549782752991,0.7722207903862,0.07222497463226318,-0.01377749443054199,0.3172675371170044,XArbitraryZVertical,-0.6903275872760938,0.1670329795036789,-0.5253742270068008,0.4685398468167724,-0.5688374042510986,0.8224015831947327,0.008904388174414635,0,0,0,-1,-1,9674.059003125001,unknown,2,2025-04-20T22:59:17.430+03:00,2025-04-20T21:57:49.637+03:00,29,4.348656,0,0,23.86625,0,0,2025-04-20T22:59:32.906+03:00,766872047.7996458,0,0.4799995,99.73148,1,0.95,2025-04-20T22:59:42.035+03:00,100,1.666666666666667,2025-04-19T12:19:17.059+03:00,0.05691595998002078,0
2025-04-20T23:00:48.020+03:00,1745179246.460543,40.98553810758849,29.1374092842291,83.50758,-1,-1,-1,-1,30.00216584921526,27.66431350007163,-9999,9713.880601125,-0.509368896484375,0.8650665283203125,0.40118408203125,9713.875563125001,-2.67109849584337,-1.606394239776789,-0.9726688278304449,-0.4305159151554108,-1.304320573806763,0.6506816148757935,0.04885363578796387,-0.04518735408782959,0.45652174949646,XArbitraryZVertical,-0.6942738312197168,0.1673447014255848,-0.5185942199350434,0.4701484067523381,-0.5627390742301941,0.8263914585113525,0.02004080452024937,0,0,0,-1,-1,9674.059003125001,unknown,2,2025-04-20T22:59:17.430+03:00,2025-04-20T21:57:49.637+03:00,29,4.348656,0,0,23.86625,0,0,2025-04-20T22:59:32.906+03:00,766872047.7996458,0,0.4799995,99.73148,1,0.95,2025-04-20T22:59:42.035+03:00,100,1.666666666666667,2025-04-19T12:19:17.059+03:00,0.05691595998002078,0
2025-04-20T23:00:48.030+03:00,1745179246.460543,40.98553810758849,29.1374092842291,83.50758,-1,-1,-1,-1,30.00216584921526,27.66431350007163,-9999,9713.890677125,-0.5051116943359375,0.906036376953125,0.3684844970703125,9713.885639125001,-2.680186242534645,-1.626661024918407,-0.978269192445504,-0.5228943228721619,-1.198464274406433,0.5091249942779541,0.04625034332275391,0.001781821250915527,0.406302809715271,XArbitraryZVertical,-0.6982077268490279,0.1676213576197376,-0.5123820946671985,0.4710343628646583,-0.5575874447822571,0.8295320272445679,0.03118189796805382,0,0,0,-1,-1,9674.059003125001,unknown,2,2025-04-20T22:59:17.430+03:00,2025-04-20T21:57:49.637+03:00,29,4.348656,0,0,23.86625,0,0,2025-04-20T22:59:32.906+03:00,766872047.7996458,0,0.4799995,99.73148,1,0.95,2025-04-20T22:59:42.035+03:00,100,1.666666666666667,2025-04-19T12:19:17.059+03:00,0.05691595998002078,0
2025-04-20T23:00:48.040+03:00,1745179246.460543,40.98553810758849,29.1374092842291,83.50758,-1,-1,-1,-1,30.00216584921526,27.66431350007163,-9999,9713.900753125001,-0.5140228271484375,0.90460205078125,0.4170074462890625,9713.895715125,-2.691009985328356,-1.646749568680948,-0.9822686617153321,-0.5983121395111084,-1.016574263572693,0.3601627945899963,0.04802817106246948,0.06057506799697876,0.3330744504928589,XArbitraryZVertical,-0.7020220896502835,0.1680087846924966,-0.5069816561278659,0.4710707781554329,-0.553536593914032,0.8317589163780212,0.04212393239140511,0,0,0,-1,-1,9674.059003125001,unknown,2,2025-04-20T22:59:17.430+03:00,2025-04-20T21:57:49.637+03:00,29,4.348656,0,0,23.86625,0,0,2025-04-20T22:59:32.906+03:00,766872047.7996458,0,0.4799995,99.73148,1,0.95,2025-04-20T22:59:42.035+03:00,100,1.666666666666667,2025-04-19T12:19:17.059+03:00,0.05691595998002078,0
2025-04-20T23:00:48.050+03:00,1745179246.460543,40.98553810758849,29.1374092842291,83.50758,-1,-1,-1,-1,30.00216584921526,27.66431350007163,-9999,9713.910828125001,-0.520263671875,0.89990234375,0.499786376953125,9713.905790125,-2.702031773457559,-1.665153047896308,-0.9845055665130595,-0.5599573254585266,-0.8110359311103821,0.1854098737239838,0.04187220335006714,0.07573848962783813,0.3305016756057739,XArbitraryZVertical,-0.7055082033498008,0.1682916062504184,-0.502591377080063,0.4704656948862304,-0.5508138537406921,0.8329986333847046,0.05212777853012085,0,0,0,-1,-1,9674.059003125001,unknown,2,2025-04-20T22:59:17.430+03:00,2025-04-20T21:57:49.637+03:00,29,4.348656,0,0,23.86625,0,0,2025-04-20T22:59:32.906+03:00,766872047.7996458,0,0.4799995,99.73148,1,0.95,2025-04-20T22:59:42.035+03:00,100,1.666666666666667,2025-04-19T12:19:17.059+03:00,0.05691595998002078,0
2025-04-20T23:00:48.060+03:00,1745179246.460543,40.98553810758849,29.1374092842291,83.50758,-1,-1,-1,-1,30.00216584921526,27.66431350007163,-9999,9713.920904125001,-0.528228759765625,0.9071197509765625,0.5352325439453125,9713.915866125,-2.711861942609318,-1.680502950148219,-0.9849062930257169,-0.501258909702301,-0.6169005632400513,0.003381588961929083,0.03214550018310547,0.06671237945556641,0.4001537561416626,XArbitraryZVertical,-0.7084829708839794,0.1682905552860537,-0.4993845934671222,0.4694092066432901,-0.5496166944503784,0.8332203030586243,0.06053966283798218,0,0,0,-1,-1,9674.059003125001,unknown,2,2025-04-20T22:59:17.430+03:00,2025-04-20T21:57:49.637+03:00,29,4.348656,0,0,23.86625,0,0,2025-04-20T22:59:32.906+03:00,766872047.7996458,0,0.4799995,99.73148,1,0.95,2025-04-20T22:59:42.035+03:00,100,1.666666666666667,2025-04-19T12:19:17.059+03:00,0.05691595998002078,0
2025-04-20T23:00:48.070+03:00,1745179246.460543,40.98553810758849,29.1374092842291,83.50758,-1,-1,-1,-1,30.00216584921526,27.66431350007163,-9999,9713.930980125,-0.5399932861328125,0.887481689453125,0.5473785400390625,9713.925942125001,-2.718549262059528,-1.691299463991037,-0.9837584277963307,-0.2248880565166473,-0.4047798216342926,-0.128261923789978,0.02659547328948975,0.07097923755645752,0.4565627574920654,XArbitraryZVertical,-0.7107382599548029,0.1677604734901482,-0.4973779323764608,0.4683188956550303,-0.5498802661895752,0.8325850367546082,0.06658490002155304,0,0,0,-1,-1,9674.059003125001,unknown,2,2025-04-20T22:59:17.430+03:00,2025-04-20T21:57:49.637+03:00,29,4.348656,0,0,23.86625,0,0,2025-04-20T22:59:32.906+03:00,766872047.7996458,0,0.4799995,99.73148,1,0.95,2025-04-20T22:59:42.035+03:00,100,1.666666666666667,2025-04-19T12:19:17.059+03:00,0.05691595998002078,0
2025-04-20T23:00:48.080+03:00,1745179246.460543,40.98553810758849,29.1374092842291,83.50758,-1,-1,-1,-1,30.00216584921526,27.66431350007163,-9999,9713.941056125001,-0.565887451171875,0.869354248046875,0.535430908203125,9713.936018125001,-2.719285233734355,-1.694727632309369,-0.9820011131378007,0.106688879430294,-0.1545006781816483,-0.2027995139360428,0.01809507608413696,0.07032120227813721,0.4751423597335815,XArbitraryZVertical,-0.7117246746872988,0.166652794507535,-0.4967213665926036,0.4679129360415369,-0.5510997176170349,0.831610381603241,0.06865033507347107,0,0,0,-1,-1,9674.059003125001,unknown,2,2025-04-20T22:59:17.430+03:00,2025-04-20T21:57:49.637+03:00,29,4.348656,0,0,23.86625,0,0,2025-04-20T22:59:32.906+03:00,766872047.7996458,0,0.4799995,99.73148,1,0.95,2025-04-20T22:59:42.035+03:00,100,1.666666666666667,2025-04-19T12:19:17.059+03:00,0.05691595998002078,0
2025-04-20T23:00:48.090+03:00,1745179246.460543,40.98553810758849,29.1374092842291,83.50758,-1,-1,-1,-1,30.00216584921526,27.66431350007163,-9999,9713.951132125001,-0.5796966552734375,0.884979248046875,0.514678955078125,9713.946094125,-2.713530652031829,-1.690438516841599,-0.980129518578168,0.4616272449493408,0.04649874567985535,-0.243913397192955,0.0007333159446716309,0.04307228326797485,0.4761919975280762,XArbitraryZVertical,-0.7113431908389227,0.1650051115013144,-0.4973162759485126,0.4684448109917432,-0.5529335141181946,0.8305695056915283,0.0664716437458992,0,0,0,-1,-1,9674.059003125001,unknown,2,2025-04-20T22:59:17.430+03:00,2025-04-20T21:57:49.637+03:00,29,4.348656,0,0,23.86625,0,0,2025-04-20T22:59:32.906+03:00,766872047.7996458,0,0.4799995,99.73148,1,0.95,2025-04-20T22:59:42.035+03:00,100,1.666666666666667,2025-04-19T12:19:17.059+03:00,0.05691595998002078,0
2025-04-20T23:00:48.100+03:00,1745179246.460543,40.98553810758849,29.1374092842291,83.50758,-1,-1,-1,-1,30.00216584921526,27.66431350007163,-9999,9713.961208125,-0.5751953125,0.8949432373046875,0.4829559326171875,9713.956170125,-2.701980562525629,-1.679650079244716,-0.9781708732857745,0.7765327095985413,0.1956400275230408,-0.2868297100067139,-0.02050977945327759,0.04605686664581299,0.4672901630401611,XArbitraryZVertical,-0.7098147237315191,0.162796437255818,-0.4988781873966434,0.469873272259033,-0.5552347898483276,0.8294771313667297,0.06067924574017525,0,0,0,-1,-1,9674.059003125001,unknown,2,2025-04-20T22:59:17.430+03:00,2025-04-20T21:57:49.637+03:00,29,4.348656,0,0,23.86625,0,0,2025-04-20T22:59:32.906+03:00,766872047.7996458,0,0.4799995,99.73148,1,0.95,2025-04-20T22:59:42.035+03:00,100,1.666666666666667,2025-04-19T12:19:17.059+03:00,0.05691595998002078,0
2025-04-20T23:00:48.110+03:00,1745179246.460543,40.98553810758849,29.1374092842291,83.50758,-1,-1,-1,-1,30.00216584921526,27.66431350007163,-9999,9713.971283125,-0.5809173583984375,0.8849639892578125,0.4549102783203125,9713.966246125001,-2.683871191934647,-1.661853627952195,-0.976106168924699,1.155605435371399,0.3504085838794708,-0.3218510746955872,-0.01999557018280029,0.06497305631637573,0.4465682506561279,XArbitraryZVertical,-0.7070395916795753,0.1598977825213227,-0.5013834152799631,0.47237944209871,-0.5579310059547424,0.8283221125602722,0.05094457045197487,0,0,0,-1,-1,9674.059003125001,unknown,2,2025-04-20T22:59:17.430+03:00,2025-04-20T21:57:49.637+03:00,29,4.348656,0,0,23.86625,0,0,2025-04-20T22:59:32.906+03:00,766872047.7996458,0,0.4799995,99.73148,1,0.95,2025-04-20T22:59:42.035+03:00,100,1.666666666666667,2025-04-19T12:19:17.059+03:00,0.05691595998002078,0
2025-04-20T23:00:48.120+03:00,1745179246.460543,40.98553810758849,29.1374092842291,83.50758,-1,-1,-1,-1,30.00216584921526,27.66431350007163,-9999,9713.981359125,-0.5941162109375,0.88189697265625,0.4552154541015625,9713.976321125001,-2.660943224181608,-1.638390074411658,-0.9737245282918415,1.337190389633179,0.5419209003448486,-0.3547061383724213,-0.01482045650482178,0.06333440542221069,0.4314932823181152,XArbitraryZVertical,-0.703184110338255,0.156585543514723,-0.5047696354567044,0.4756266501557159,-0.5609394311904907,0.8269854784011841,0.03797385096549988,0,0,0,-1,-1,9674.059003125001,unknown,2,2025-04-20T22:59:17.430+03:00,2025-04-20T21:57:49.637+03:00,29,4.348656,0,0,23.86625,0,0,2025-04-20T22:59:32.906+03:00,766872047.7996458,0,0.4799995,99.73148,1,0.95,2025-04-20T22:59:42.035+03:00,100,1.666666666666667,2025-04-19T12:19:17.059+03:00,0.05691595998002078,0
2025-04-20T23:00:48.131+03:00,1745179246.460543,40.98553810758849,29.1374092842291,83.50758,-1,-1,-1,-1,30.00216584921526,27.66431350007163,-9999,9713.991435125001,-0.5847015380859375,0.8551025390625,0.459625244140625,9713.986397125,-2.636868868477729,-1.612225460267422,-0.9705294980395008,1.284911751747131,0.6952633261680603,-0.425973653793335,-0.02552676200866699,0.05802422761917114,0.4236569404602051,XArbitraryZVertical,-0.6987069359309834,0.1533171729498677,-0.5089430438421552,0.4788313031713131,-0.5643779635429382,0.8251849412918091,0.02339507639408112,0,0,0,-1,-1,9674.059003125001,unknown,2,2025-04-20T22:59:17.430+03:00,2025-04-20T21:57:49.637+03:00,29,4.348656,0,0,23.86625,0,0,2025-04-20T22:59:32.906+03:00,766872047.7996458,0,0.4799995,99.73148,1,0.95,2025-04-20T22:59:42.035+03:00,100,1.666666666666667,2025-04-19T12:19:17.059+03:00,0.05691595998002078,0
2025-04-20T23:00:48.140+03:00,1745179246.460543,40.98553810758849,29.1374092842291,83.50758,-1,-1,-1,-1,30.00216584921526,27.66431350007163,-9999,9714.001511125001,-0.56793212890625,0.799285888671875,0.41485595703125,9713.996473125,-2.615728212305451,-1.587296960974006,-0.9662964153773298,1.06046450138092,0.7905565500259399,-0.4807276725769043,-0.02329486608505249,0.05061119794845581,0.4545199871063232,XArbitraryZVertical,-0.6942909334435151,0.1504957069463183,-0.5135566343336273,0.4812177838731135,-0.5682730078697205,0.8227864503860474,0.009377716109156609,0,0,0,-1,-1,9674.059003125001,unknown,2,2025-04-20T22:59:17.430+03:00,2025-04-20T21:57:49.637+03:00,29,4.348656,0,0,23.86625,0,0,2025-04-20T22:59:32.906+03:00,766872047.7996458,0,0.4799995,99.73148,1,0.95,2025-04-20T22:59:42.035+03:00,100,1.666666666666667,2025-04-19T12:19:17.059+03:00,0.05691595998002078,0
2025-04-20T23:00:48.156+03:00,1745179246.460543,40.98553810758849,29.1374092842291,83.50758,-1,-1,-1,-1,30.00216584921526,27.66431350007163,-9999,9714.011587125,-0.5654754638671875,0.7332000732421875,0.36090087890625,9714.006549125001,-2.599138755924099,-1.56528224365246,-0.961229829777277,0.8221140503883362,0.8756613731384277,-0.5339328646659851,-0.004157006740570068,0.009907007217407227,0.4432661533355713,XArbitraryZVertical,-0.6902357454073172,0.1483111089480015,-0.5183983123714434,0.4825364578965711,-0.5725030303001404,0.8198962807655334,-0.003156861523166299,0,0,0,-1,-1,9674.059003125001,unknown,2,2025-04-20T22:59:17.430+03:00,2025-04-20T21:57:49.637+03:00,29,4.348656,0,0,23.86625,0,0,2025-04-20T22:59:32.906+03:00,766872047.7996458,0,0.4799995,99.73148,1,0.95,2025-04-20T22:59:42.035+03:00,100,1.666666666666667,2025-04-19T12:19:17.059+03:00,0.05691595998002078,0
2025-04-20T23:00:48.161+03:00,1745179246.460543,40.98553810758849,29.1374092842291,83.50758,-1,-1,-1,-1,30.00216584921526,27.66431350007163,-9999,9714.021663125,-0.5792083740234375,0.698211669921875,0.3265533447265625,9714.016625125001,-2.585970804498011,-1.545160006371095,-0.9555576911873236,0.7209924459457397,0.9847639203071594,-0.5662840008735657,0.01376181840896606,-0.05107182264328003,0.4025355577468872,XArbitraryZVertical,-0.6863622253290612,0.1466617277745559,-0.5235204768682841,0.4830356923813949,-0.5769636631011963,0.8166357278823853,-0.01479446608573198,0,0,0,-1,-1,9674.059003125001,unknown,2,2025-04-20T22:59:17.430+03:00,2025-04-20T21:57:49.637+03:00,29,4.348656,0,0,23.86625,0,0,2025-04-20T22:59:32.906+03:00,766872047.7996458,0,0.4799995,99.73148,1,0.95,2025-04-20T22:59:42.035+03:00,100,1.666666666666667,2025-04-19T12:19:17.059+03:00,0.05691595998002078,0
2025-04-20T23:00:48.171+03:00,1745179246.460543,40.98553810758849,29.1374092842291,83.50758,-1,-1,-1,-1,30.00216584921526,27.66431350007163,-9999,9714.031738125001,-0.586181640625,0.7128753662109375,0.311553955078125,9714.026701125,-2.573606070428897,-1.524566698291036,-0.9494183765421833,0.755790114402771,1.103726983070374,-0.5992408394813538,0.009955108165740967,-0.1037111878395081,0.3655568957328796,XArbitraryZVertical,-0.682239875386715,0.145248458896932,-0.5290778886858264,0.4832475897024142,-0.5815341472625732,0.8130770325660706,-0.02690327540040016,0,0,0,-1,-1,9674.059003125001,unknown,2,2025-04-20T22:59:17.430+03:00,2025-04-20T21:57:49.637+03:00,29,4.348656,0,0,23.86625,0,0,2025-04-20T22:59:32.906+03:00,766872047.7996458,0,0.4799995,99.73148,1,0.95,2025-04-20T22:59:42.035+03:00,100,1.666666666666667,2025-04-19T12:19:17.059+03:00,0.05691595998002078,0
2025-04-20T23:00:48.181+03:00,1745179246.460543,40.98553810758849,29.1374092842291,83.50758,-1,-1,-1,-1,30.00216584921526,27.66431350007163,-9999,9714.041814125001,-0.58941650390625,0.761566162109375,0.2909088134765625,9714.036776125,-2.559846755445742,-1.501707636897597,-0.942772947794255,0.9342165589332581,1.215108633041382,-0.6267509460449219,0.002770662307739258,-0.108781635761261,0.3598201870918274,XArbitraryZVertical,-0.6775387845858388,0.1437391280338817,-0.5351541451996078,0.4836219560269627,-0.5861445665359497,0.8091904520988464,-0.0405605174601078,0,0,0,-1,-1,9674.059003125001,unknown,2,2025-04-20T22:59:17.430+03:00,2025-04-20T21:57:49.637+03:00,29,4.348656,0,0,23.86625,0,0,2025-04-20T22:59:32.906+03:00,766872047.7996458,0,0.4799995,99.73148,1,0.95,2025-04-20T22:59:42.035+03:00,100,1.666666666666667,2025-04-19T12:19:17.059+03:00,0.05691595998002078,0
2025-04-20T23:00:48.191+03:00,1745179246.460543,40.98553810758849,29.1374092842291,83.50758,-1,-1,-1,-1,30.00216584921526,27.66431350007163,-9999,9714.051890125,-0.5722808837890625,0.8070220947265625,0.2785491943359375,9714.046852125,-2.542347648354469,-1.474833085340301,-0.935462024854,1.248061299324036,1.310598731040955,-0.6475702524185181,0.002657532691955566,-0.06996446847915649,0.3572767376899719,XArbitraryZVertical,-0.6719259490153677,0.141720447685826,-0.5417915406005176,0.484657180362,-0.5907159447669983,0.8048733472824097,-0.05686166882514954,0,0,0,-1,-1,9674.059003125001,unknown,2,2025-04-20T22:59:17.430+03:00,2025-04-20T21:57:49.637+03:00,29,4.348656,0,0,23.86625,0,0,2025-04-20T22:59:32.906+03:00,766872047.7996458,0,0.4799995,99.73148,1,0.95,2025-04-20T22:59:42.035+03:00,100,1.666666666666667,2025-04-19T12:19:17.059+03:00,0.05691595998002078,0
2025-04-20T23:00:48.201+03:00,1745179246.460543,40.98553810758849,29.1374092842291,83.50758,-1,-1,-1,-1,30.00216584921526,27.66431350007163,-9999,9714.061966125,-0.5452880859375,0.8269195556640625,0.241302490234375,9714.056928125001,-2.519649488440958,-1.443153095273747,-0.9272626710843079,1.586907029151917,1.355507135391235,-0.6699678897857666,0.01138907670974731,-0.0124744176864624,0.36175137758255,XArbitraryZVertical,-0.6652288115425397,0.1388521018811756,-0.5489130252860165,0.48670848704112,-0.595144510269165,0.7999804615974426,-0.07638144493103027,0,0,0,-1,-1,9674.059003125001,unknown,2,2025-04-20T22:59:17.430+03:00,2025-04-20T21:57:49.637+03:00,29,4.348656,0,0,23.86625,0,0,2025-04-20T22:59:32.906+03:00,766872047.7996458,0,0.4799995,99.73148,1,0.95,2025-04-20T22:59:42.035+03:00,100,1.666666666666667,2025-04-19T12:19:17.059+03:00,0.05691595998002078,0
2025-04-20T23:00:48.211+03:00,1745179246.460543,40.98553810758849,29.1374092842291,83.50758,-1,-1,-1,-1,30.00216584921526,27.66431350007163,-9999,9714.072042125001,-0.5311737060546875,0.829193115234375,0.1754302978515625,9714.067004125001,-2.493470885285217,-1.408556036304656,-0.9178589336011965,1.769185781478882,1.370618104934692,-0.7299742698669434,0.04156076908111572,0.02582675218582153,0.3623387217521667,XArbitraryZVertical,-0.6577683529873557,0.1351829127072083,-0.5563316862966278,0.4894501367907044,-0.5995441675186157,0.7943027019500732,-0.09813274443149567,0,0,0,-1,-1,9674.059003125001,unknown,2,2025-04-20T22:59:17.430+03:00,2025-04-20T21:57:49.637+03:00,29,4.348656,0,0,23.86625,0,0,2025-04-20T22:59:32.906+03:00,766872047.7996458,0,0.4799995,99.73148,1,0.95,2025-04-20T22:59:42.035+03:00,100,1.666666666666667,2025-04-19T12:19:17.059+03:00,0.05691595998002078,0
2025-04-20T23:00:48.221+03:00,1745179246.460543,40.98553810758849,29.1374092842291,83.50758,-1,-1,-1,-1,30.00216584921526,27.66431350007163,-9999,9714.082118125001,-0.5341033935546875,0.82427978515625,0.1241607666015625,9714.077080125,-2.466631828418521,-1.37326147444708,-0.9069773121052672,1.807323813438416,1.423023462295532,-0.8152972459793091,0.06763339042663574,0.04134964942932129,0.3303897380828857,XArbitraryZVertical,-0.6499030431103627,0.1310248464265366,-0.564040567308119,0.4922567476232662,-0.6041476130485535,0.7876449823379517,-0.1209170520305634,0,0,0,-1,-1,9674.059003125001,unknown,2,2025-04-20T22:59:17.430+03:00,2025-04-20T21:57:49.637+03:00,29,4.348656,0,0,23.86625,0,0,2025-04-20T22:59:32.906+03:00,766872047.7996458,0,0.4799995,99.73148,1,0.95,2025-04-20T22:59:42.035+03:00,100,1.666666666666667,2025-04-19T12:19:17.059+03:00,0.05691595998002078,0
2025-04-20T23:00:48.231+03:00,1745179246.460543,40.98553810758849,29.1374092842291,83.50758,-1,-1,-1,-1,30.00216584921526,27.66431350007163,-9999,9714.092193125001,-0.5534210205078125,0.8191070556640625,0.098052978515625,9714.087156125001,-2.440907296796102,-1.338553587069525,-0.8946558004194544,1.829599380493164,1.458464503288269,-0.892332911491394,0.07817912101745605,0.04747509956359863,0.2901040315628052,XArbitraryZVertical,-0.6418291760793056,0.1266471892761175,-0.5720413922519449,0.4947569278217877,-0.6089865565299988,0.7799937129020691,-0.1440315991640091,0,0,0,-1,-1,9674.059003125001,unknown,2,2025-04-20T22:59:17.430+03:00,2025-04-20T21:57:49.637+03:00,29,4.348656,0,0,23.86625,0,0,2025-04-20T22:59:32.906+03:00,766872047.7996458,0,0.4799995,99.73148,1,0.95,2025-04-20T22:59:42.035+03:00,100,1.666666666666667,2025-04-19T12:19:17.059+03:00,0.05691595998002078,0
2025-04-20T23:00:48.241+03:00,1745179246.460543,40.98553810758849,29.1374092842291,83.50758,-1,-1,-1,-1,30.00216584921526,27.66431350007163,-9999,9714.102269125,-0.5638427734375,0.8098297119140625,0.1231536865234375,9714.097231125001,-2.415441299267467,-1.303804197599288,-0.8809995797262952,1.91450560092926,1.524348139762878,-0.949961245059967,0.07155054807662964,0.05050873756408691,0.2757309675216675,XArbitraryZVertical,-0.6333865986092956,0.1219544398347382,-0.5802959806391108,0.4971971588775376,-0.6138325929641724,0.7713753581047058,-0.1678970605134964,0,0,0,-1,-1,9674.059003125001,unknown,2,2025-04-20T22:59:17.430+03:00,2025-04-20T21:57:49.637+03:00,29,4.348656,0,0,23.86625,0,0,2025-04-20T22:59:32.906+03:00,766872047.7996458,0,0.4799995,99.73148,1,0.95,2025-04-20T22:59:42.035+03:00,100,1.666666666666667,2025-04-19T12:19:17.059+03:00,0.05691595998002078,0
2025-04-20T23:00:48.252+03:00,1745179246.460543,40.98553810758849,29.1374092842291,83.50758,-1,-1,-1,-1,30.00216584921526,27.66431350007163,-9999,9714.112345125001,-0.559478759765625,0.79925537109375,0.18951416015625,9714.107307125001,-2.391340779025635,-1.269548692176451,-0.8658534797231767,1.879098296165466,1.601306319236755,-1.080262303352356,0.05720967054367065,0.05401003360748291,0.2935695350170135,XArbitraryZVertical,-0.6246245389908553,0.1170938474561526,-0.5889416045802306,0.499280505167338,-0.6188094019889832,0.7616485953330994,-0.192266434431076,0,0,0,-1,-1,9674.059003125001,unknown,2,2025-04-20T22:59:17.430+03:00,2025-04-20T21:57:49.637+03:00,29,4.348656,0,0,23.86625,0,0,2025-04-20T22:59:32.906+03:00,766872047.7996458,0,0.4799995,99.73148,1,0.95,2025-04-20T22:59:42.035+03:00,100,1.666666666666667,2025-04-19T12:19:17.059+03:00,0.05691595998002078,0
2025-04-20T23:00:48.262+03:00,1745179246.460543,40.98553810758849,29.1374092842291,83.50758,-1,-1,-1,-1,30.00216584921526,27.66431350007163,-9999,9714.122421125001,-0.5840301513671875,0.807586669921875,0.21875,9714.117383125,-2.368801274373324,-1.236023930613931,-0.8488920503968016,1.982443571090698,1.683835029602051,-1.199077725410461,0.0639188289642334,0.05287224054336548,0.3742944002151489,XArbitraryZVertical,-0.615562745523262,0.1119183829027242,-0.5980322747180804,0.5009132784367505,-0.6241299510002136,0.7505487203598022,-0.2171135693788528,0,0,0,-1,-1,9674.059003125001,unknown,2,2025-04-20T22:59:17.430+03:00,2025-04-20T21:57:49.637+03:00,29,4.348656,0,0,23.86625,0,0,2025-04-20T22:59:32.906+03:00,766872047.7996458,0,0.4799995,99.73148,1,0.95,2025-04-20T22:59:42.035+03:00,100,1.666666666666667,2025-04-19T12:19:17.059+03:00,0.05691595998002078,0
2025-04-20T23:00:48.272+03:00,1745179246.460543,40.98553810758849,29.1374092842291,83.50758,-1,-1,-1,-1,30.00216584921526,27.66431350007163,-9999,9714.132497125001,-0.6356048583984375,0.837371826171875,0.2139129638671875,9714.127459125,-2.345665606731253,-1.200925265389575,-0.8299037522913326,2.20439338684082,1.871379852294922,-1.276530623435974,0.06289660930633545,0.06308263540267944,0.4538136720657349,XArbitraryZVertical,-0.6055718590999751,0.1062436003721624,-0.6077719793940382,0.5026014970040003,-0.6293028593063354,0.7378664016723633,-0.2439900487661362,0,0,0,-1,-1,9674.059003125001,unknown,2,2025-04-20T22:59:17.430+03:00,2025-04-20T21:57:49.637+03:00,29,4.348656,0,0,23.86625,0,0,2025-04-20T22:59:32.906+03:00,766872047.7996458,0,0.4799995,99.73148,1,0.95,2025-04-20T22:59:42.035+03:00,100,1.666666666666667,2025-04-19T12:19:17.059+03:00,0.05691595998002078,0
2025-04-20T23:00:48.282+03:00,1745179246.460543,40.98553810758849,29.1374092842291,83.50758,-1,-1,-1,-1,30.00216584921526,27.66431350007163,-9999,9714.142573125,-0.660675048828125,0.85333251953125,0.2015838623046875,9714.137535125001,-2.321708177501482,-1.163832166942295,-0.808864604692212,2.332960605621338,2.022534847259521,-1.353318691253662,0.02491551637649536,0.09810554981231689,0.4908809661865234,XArbitraryZVertical,-0.5944372488237056,0.1001096621165006,-0.6181820566443652,0.5044534658266391,-0.6339395642280579,0.7235038280487061,-0.2732448279857635,0,0,0,-1,-1,9674.059003125001,unknown,2,2025-04-20T22:59:17.430+03:00,2025-04-20T21:57:49.637+03:00,29,4.348656,0,0,23.86625,0,0,2025-04-20T22:59:32.906+03:00,766872047.7996458,0,0.4799995,99.73148,1,0.95,2025-04-20T22:59:42.035+03:00,100,1.666666666666667,2025-04-19T12:19:17.059+03:00,0.05691595998002078,0
2025-04-20T23:00:48.292+03:00,1745179246.460543,40.98553810758849,29.1374092842291,83.50758,-1,-1,-1,-1,30.00216584921526,27.66431350007163,-9999,9714.152649125001,-0.6470947265625,0.806884765625,0.1934661865234375,9714.147611125001,-2.30096400912368,-1.127953280749825,-0.7871951144996511,2.020243644714355,2.176048994064331,-1.375768661499023,-0.01653355360031128,0.1420875787734985,0.5131660103797913,XArbitraryZVertical,-0.5829643939838098,0.09446613351782039,-0.6289249089073797,0.5056501498430461,-0.6377480030059814,0.7083762884140015,-0.302457332611084,0,0,0,-1,-1,9674.059003125001,unknown,2,2025-04-20T22:59:17.430+03:00,2025-04-20T21:57:49.637+03:00,29,4.348656,0,0,23.86625,0,0,2025-04-20T22:59:32.906+03:00,766872047.7996458,0,0.4799995,99.73148,1,0.95,2025-04-20T22:59:42.035+03:00,100,1.666666666666667,2025-04-19T12:19:17.059+03:00,0.05691595998002078,0
2025-04-20T23:00:48.302+03:00,1745179246.460543,40.98553810758849,29.1374092842291,83.50758,-1,-1,-1,-1,30.00216584921526,27.66431350007163,-9999,9714.162724125001,-0.631561279296875,0.6654815673828125,0.2656707763671875,9714.157686125001,-2.287782454833568,-1.095318552261263,-0.7670666939731361,1.412876844406128,2.493170976638794,-1.377261757850647,-0.01683288812637329,0.1462445259094238,0.519690990447998,XArbitraryZVertical,-0.57180401766974,0.09086771097395957,-0.6399884863847221,0.5051711771999813,-0.6400884985923767,0.6940264105796814,-0.3295664489269257,0,0,0,-1,-1,9674.059003125001,unknown,2,2025-04-20T22:59:17.430+03:00,2025-04-20T21:57:49.637+03:00,29,4.348656,0,0,23.86625,0,0,2025-04-20T22:59:32.906+03:00,766872047.7996458,0,0.4799995,99.73148,1,0.95,2025-04-20T22:59:42.035+03:00,100,1.666666666666667,2025-04-19T12:19:17.059+03:00,0.05691595998002078,0
2025-04-20T23:00:48.312+03:00,1745179246.460543,40.98553810758849,29.1374092842291,83.50758,-1,-1,-1,-1,30.00216584921526,27.66431350007163,-9999,9714.172800125001,-0.68707275390625,0.5037384033203125,0.337738037109375,9714.167762125,-2.281814299158375,-1.063734035088779,-0.7498283563362085,0.9993023872375488,2.957165718078613,-1.20656430721283,0.00425875186920166,0.06752556562423706,0.5789450407028198,XArbitraryZVertical,-0.5605136250673106,0.09021017433864495,-0.6516247014922072,0.5030625297529508,-0.6397263407707214,0.6815131306648254,-0.355373203754425,0,0,0,-1,-1,9674.059003125001,unknown,2,2025-04-20T22:59:17.430+03:00,2025-04-20T21:57:49.637+03:00,29,4.348656,0,0,23.86625,0,0,2025-04-20T22:59:32.906+03:00,766872047.7996458,0,0.4799995,99.73148,1,0.95,2025-04-20T22:59:42.035+03:00,100,1.666666666666667,2025-04-19T12:19:17.059+03:00,0.05691595998002078,0
2025-04-20T23:00:48.322+03:00,1745179246.460543,40.98553810758849,29.1374092842291,83.50758,-1,-1,-1,-1,30.00216584921526,27.66431350007163,-9999,9714.182876125,-0.7157135009765625,0.5030059814453125,0.453643798828125,9714.177838125001,-2.27964673422832,-1.031247017277161,-0.7362818795234566,0.5991796851158142,3.10599422454834,-0.9763285517692566,-0.01373612880706787,-0.09670853614807129,0.6838653087615967,XArbitraryZVertical,-0.5487696615878287,0.09227847637264551,-0.6633426059489806,0.5003128730748733,-0.6357083916664124,0.6715375185012817,-0.3806730806827545,0,0,0,-1,-1,9674.059003125001,unknown,2,2025-04-20T22:59:17.430+03:00,2025-04-20T21:57:49.637+03:00,29,4.348656,0,0,23.86625,0,0,2025-04-20T22:59:32.906+03:00,766872047.7996458,0,0.4799995,99.73148,1,0.95,2025-04-20T22:59:42.035+03:00,100,1.666666666666667,2025-04-19T12:19:17.059+03:00,0.05691595998002078,0
2025-04-20T23:00:48.332+03:00,1745179246.460543,40.98553810758849,29.1374092842291,83.50758,-1,-1,-1,-1,30.00216584921526,27.66431350007163,-9999,9714.192952125,-0.5551910400390625,0.6147613525390625,0.5536346435546875,9714.187914125001,-2.282063268881762,-1.004180582132405,-0.7261840221462771,0.1650630980730057,2.536996126174927,-0.932740330696106,-0.0883602499961853,-0.1858260631561279,0.7868708968162537,XArbitraryZVertical,-0.5386900383535815,0.0955733824444663,-0.6736946646553804,0.4968039352323207,-0.6308627724647522,0.6640211939811707,-0.4013575315475464,0,0,0,-1,-1,9674.059003125001,unknown,2,2025-04-20T22:59:17.430+03:00,2025-04-20T21:57:49.637+03:00,29,4.348656,0,0,23.86625,0,0,2025-04-20T22:59:32.906+03:00,766872047.7996458,0,0.4799995,99.73148,1,0.95,2025-04-20T22:59:42.035+03:00,100,1.666666666666667,2025-04-19T12:19:17.059+03:00,0.05691595998002078,0
2025-04-20T23:00:48.342+03:00,1745179246.460543,40.98553810758849,29.1374092842291,83.50758,-1,-1,-1,-1,30.00216584921526,27.66431350007163,-9999,9714.203028125001,-0.32586669921875,0.6376800537109375,0.40716552734375,9714.197990125,-2.287035524264907,-0.9839759408010854,-0.7172647313987753,0.257038950920105,2.197889566421509,-0.9521059393882751,-0.0328681468963623,-0.0979691743850708,0.9397145509719849,XArbitraryZVertical,-0.5307580473365077,0.09825407302818859,-0.6824126471339149,0.4929046066911201,-0.6275322437286377,0.657325804233551,-0.4172840714454651,0,0,0,-1,-1,9674.059003125001,unknown,2,2025-04-20T22:59:17.430+03:00,2025-04-20T21:57:49.637+03:00,29,4.348656,0,0,23.86625,0,0,2025-04-20T22:59:32.906+03:00,766872047.7996458,0,0.4799995,99.73148,1,0.95,2025-04-20T22:59:42.035+03:00,100,1.666666666666667,2025-04-19T12:19:17.059+03:00,0.05691595998002078,0
2025-04-20T23:00:48.353+03:00,1745179246.460543,40.98553810758849,29.1374092842291,83.50758,-1,-1,-1,-1,30.00216584921526,27.66431350007163,-9999,9714.213104125001,-0.3327178955078125,0.57440185546875,0.2013092041015625,9714.208066125,-2.290201388830849,-0.962689026557022,-0.7069524131656733,0.4609625339508057,2.508044242858887,-1.017409920692444,0.1965634822845459,-0.005690276622772217,0.9487856030464172,XArbitraryZVertical,-0.5222893016882114,0.1000781283912452,-0.6911755864695805,0.4893614076211745,-0.6240384578704834,0.6495195627212524,-0.434396505355835,0,0,0,-1,-1,9674.059003125001,unknown,2,2025-04-20T22:59:17.430+03:00,2025-04-20T21:57:49.637+03:00,29,4.348656,0,0,23.86625,0,0,2025-04-20T22:59:32.906+03:00,766872047.7996458,0,0.4799995,99.73148,1,0.95,2025-04-20T22:59:42.035+03:00,100,1.666666666666667,2025-04-19T12:19:17.059+03:00,0.05691595998002078,0
2025-04-20T23:00:48.362+03:00,1745179246.460543,40.98553810758849,29.1374092842291,83.50758,-1,-1,-1,-1,30.00216584921526,27.66431350007163,-9999,9714.223179125001,-0.525909423828125,0.5382080078125,0.26873779296875,9714.218142125001,-2.293548979838103,-0.9371444258791479,-0.6958300299277418,0.3517889678478241,2.96852707862854,-1.057982683181763,0.3277060389518738,-0.03402817249298096,0.7357696294784546,XArbitraryZVertical,-0.5121096439583248,0.1025772327448958,-0.7011297425687237,0.4854261530804766,-0.6185232400894165,0.6410227417945862,-0.4544432461261749,0,0,0,-1,-1,9674.059003125001,unknown,2,2025-04-20T22:59:17.430+03:00,2025-04-20T21:57:49.637+03:00,29,4.348656,0,0,23.86625,0,0,2025-04-20T22:59:32.906+03:00,766872047.7996458,0,0.4799995,99.73148,1,0.95,2025-04-20T22:59:42.035+03:00,100,1.666666666666667,2025-04-19T12:19:17.059+03:00,0.05691595998002078,0
2025-04-20T23:00:48.372+03:00,1745179246.460543,40.98553810758849,29.1374092842291,83.50758,-1,-1,-1,-1,30.00216584921526,27.66431350007163,-9999,9714.233255125,-0.6123046875,0.5079193115234375,0.512054443359375,9714.228217125001,-2.302395060595394,-0.9108541181930069,-0.6881841272224227,-0.6453608870506287,3.376813411712646,-0.9765967726707458,0.1837193965911865,-0.08353042602539062,0.6741896271705627,XArbitraryZVertical,-0.501567368960788,0.1079902298534496,-0.7116426061150523,0.4799302959772832,-0.6102178692817688,0.6351356506347656,-0.4735365808010101,0,0,0,-1,-1,9674.059003125001,unknown,2,2025-04-20T22:59:17.430+03:00,2025-04-20T21:57:49.637+03:00,29,4.348656,0,0,23.86625,0,0,2025-04-20T22:59:32.906+03:00,766872047.7996458,0,0.4799995,99.73148,1,0.95,2025-04-20T22:59:42.035+03:00,100,1.666666666666667,2025-04-19T12:19:17.059+03:00,0.05691595998002078,0
2025-04-20T23:00:48.382+03:00,1745179246.460543,40.98553810758849,29.1374092842291,83.50758,-1,-1,-1,-1,30.00216584921526,27.66431350007163,-9999,9714.243331125001,-0.5889434814453125,0.4485321044921875,0.72357177734375,9714.238293125001,-2.323801894422265,-0.8874375948827695,-0.6887464208822419,-1.926086187362671,3.974945783615112,-1.072586297988892,0.006156623363494873,-0.1114763021469116,0.868130087852478,XArbitraryZVertical,-0.4920145988607409,0.1191097116884962,-0.7224241519347409,0.4709965929825184,-0.5986859202384949,0.6355698704719543,-0.4874690175056458,0,0,0,-1,-1,9674.059003125001,unknown,2,2025-04-20T22:59:17.430+03:00,2025-04-20T21:57:49.637+03:00,29,4.348656,0,0,23.86625,0,0,2025-04-20T22:59:32.906+03:00,766872047.7996458,0,0.4799995,99.73148,1,0.95,2025-04-20T22:59:42.035+03:00,100,1.666666666666667,2025-04-19T12:19:17.059+03:00,0.05691595998002078,0
2025-04-20T23:00:48.392+03:00,1745179246.460543,40.98553810758849,29.1374092842291,83.50758,-1,-1,-1,-1,30.00216584921526,27.66431350007163,-9999,9714.253407125001,-0.5960693359375,0.25677490234375,0.460540771484375,9714.248369125,-2.369124015389677,-0.8579207199082738,-0.7013490373662068,-6.388798236846924,9.446298599243164,-1.764994859695435,-0.02291220426559448,-0.1569066643714905,1.132673144340515,XArbitraryZVertical,-0.4795226187200182,0.1422482916781547,-0.737314519275488,0.4540822714242388,-0.577933132648468,0.6452488899230957,-0.4996469616889954,0,0,0,-1,-1,9674.059003125001,unknown,2,2025-04-20T22:59:17.430+03:00,2025-04-20T21:57:49.637+03:00,29,4.348656,0,0,23.86625,0,0,2025-04-20T22:59:32.906+03:00,766872047.7996458,0,0.4799995,99.73148,1,0.95,2025-04-20T22:59:42.035+03:00,100,1.666666666666667,2025-04-19T12:19:17.059+03:00,0.05691595998002078,0
2025-04-20T23:00:48.403+03:00,1745179246.460543,40.98553810758849,29.1374092842291,83.50758,-1,-1,-1,-1,30.00216584921526,27.66431350007163,-9999,9714.263483125,0.70770263671875,0.2491607666015625,-6.071121215820312,9714.258445125,-2.418992619351816,-0.8603561311029495,-0.7005203012684955,0.2685759663581848,0.2507229149341583,-1.660654425621033,-0.03375834226608276,-0.2769246101379395,1.297597765922546,XArbitraryZVertical,-0.4766685301358679,0.1532770702383499,-0.7480046764663378,0.4356398539628036,-0.5795533657073975,0.6446155309677124,-0.498586505651474,0,0,0,-1,-1,9674.059003125001,unknown,2,2025-04-20T22:59:17.430+03:00,2025-04-20T21:57:49.637+03:00,29,4.348656,0,0,23.86625,0,0,2025-04-20T22:59:32.906+03:00,766872047.7996458,0,0.4799995,99.73148,1,0.95,2025-04-20T22:59:42.035+03:00,100,1.666666666666667,2025-04-19T12:19:17.059+03:00,0.05691595998002078,0
2025-04-20T23:00:48.413+03:00,1745179246.460543,40.98553810758849,29.1374092842291,83.50758,-1,-1,-1,-1,30.00216584921526,27.66431350007163,-9999,9714.273559125,0.57537841796875,0.915069580078125,-6.648056030273438,9714.268521125001,-2.433326067245945,-0.8852383085383625,-0.6861799265705779,-0.1091835647821426,-2.345243215560913,-1.924121022224426,0.4303702116012573,-0.4637866616249084,-1.317465901374817,XArbitraryZVertical,-0.4837308934669746,0.1452468151414535,-0.7481995646286557,0.4302383064831606,-0.5988730192184448,0.6335863471031189,-0.4898155629634857,0,0,0,-1,-1,9674.059003125001,unknown,2,2025-04-20T22:59:17.430+03:00,2025-04-20T21:57:49.637+03:00,29,4.348656,0,0,23.86625,0,0,2025-04-20T22:59:32.906+03:00,766872047.7996458,0,0.4799995,99.73148,1,0.95,2025-04-20T22:59:42.035+03:00,100,1.666666666666667,2025-04-19T12:19:17.059+03:00,0.05691595998002078,0
2025-04-20T23:00:48.423+03:00,1745179246.460543,40.98553810758849,29.1374092842291,83.50758,-1,-1,-1,-1,30.00216584921526,27.66431350007163,-9999,9714.283635125001,-0.1804046630859375,0.5902252197265625,-0.9682159423828125,9714.278597125001,-2.439757557291566,-0.9187599058638509,-0.6740952826159641,0.521550714969635,-3.798568964004517,-0.7186141610145569,1.804831743240356,-0.0164179801940918,-8.088129043579102,XArbitraryZVertical,-0.4948404008771043,0.1345087536761074,-0.7439391779638366,0.4284796450541999,-0.6209937930107117,0.6241907477378845,-0.4740807414054871,0,0,0,-1,-1,9674.059003125001,unknown,2,2025-04-20T22:59:17.430+03:00,2025-04-20T21:57:49.637+03:00,29,4.348656,0,0,23.86625,0,0,2025-04-20T22:59:32.906+03:00,766872047.7996458,0,0.4799995,99.73148,1,0.95,2025-04-20T22:59:42.035+03:00,100,1.666666666666667,2025-04-19T12:19:17.059+03:00,0.05691595998002078,0
2025-04-20T23:00:48.433+03:00,1745179246.460543,40.98553810758849,29.1374092842291,83.50758,-1,-1,-1,-1,30.00216584921526,27.66431350007163,-9999,9714.293711125001,-0.2109222412109375,1.017379760742188,-0.36334228515625,9714.288673125,-2.437857548688128,-0.9443144898978699,-0.6678305508614006,0.473554402589798,-1.411805629730225,-0.5387805104255676,0.4200260639190674,0.2089172005653381,-2.517547845840454,XArbitraryZVertical,-0.5039600444837767,0.125909563999355,-0.7384727103079384,0.4299175267735548,-0.6360599994659424,0.6192840933799744,-0.4603421092033386,0,0,0,-1,-1,9674.059003125001,unknown,2,2025-04-20T22:59:17.430+03:00,2025-04-20T21:57:49.637+03:00,29,4.348656,0,0,23.86625,0,0,2025-04-20T22:59:32.906+03:00,766872047.7996458,0,0.4799995,99.73148,1,0.95,2025-04-20T22:59:42.035+03:00,100,1.666666666666667,2025-04-19T12:19:17.059+03:00,0.05691595998002078,0
2025-04-20T23:00:48.443+03:00,1745179246.460543,40.98553810758849,29.1374092842291,83.50758,-1,-1,-1,-1,30.00216584921526,27.66431350007163,-9999,9714.303786125001,-0.55743408203125,1.136550903320312,-0.5961456298828125,9714.298748125,-2.436747433893956,-0.9554584875509304,-0.6602494490162304,0.7477670907974243,-1.029312610626221,-0.4212222695350647,0.6982188820838928,0.02103966474533081,-0.04426068067550659,XArbitraryZVertical,-0.507570151903854,0.1200473035291065,-0.7370124941604914,0.4298530645090288,-0.6449657082557678,0.6133139133453369,-0.4559223651885986,0,0,0,-1,-1,9674.059003125001,unknown,2,2025-04-20T22:59:17.430+03:00,2025-04-20T21:57:49.637+03:00,29,4.348656,0,0,23.86625,0,0,2025-04-20T22:59:32.906+03:00,766872047.7996458,0,0.4799995,99.73148,1,0.95,2025-04-20T22:59:42.035+03:00,100,1.666666666666667,2025-04-19T12:19:17.059+03:00,0.05691595998002078,0
2025-04-20T23:00:48.453+03:00,1745179246.460543,40.98553810758849,29.1374092842291,83.50758,-1,-1,-1,-1,30.00216584921526,27.66431350007163,-9999,9714.313862125,-0.715667724609375,0.1654205322265625,-0.5557403564453125,9714.308824125001,-2.431064083495662,-0.9587409410741754,-0.6528920911319334,0.6731002926826477,-0.3072980046272278,-0.3221308588981628,0.1259493231773376,0.7325252890586853,0.03591200709342957,XArbitraryZVertical,-0.5085543101733152,0.1148083251143219,-0.7364987518989026,0.4310000263461929,-0.6501344442367554,0.6074862480163574,-0.4563831388950348,0,0,0,-1,-1,9674.059003125001,unknown,2,2025-04-20T22:59:17.430+03:00,2025-04-20T21:57:49.637+03:00,29,4.348656,0,0,23.86625,0,0,2025-04-20T22:59:32.906+03:00,766872047.7996458,0,0.4799995,99.73148,1,0.95,2025-04-20T22:59:42.035+03:00,100,1.666666666666667,2025-04-19T12:19:17.059+03:00,0.05691595998002078,0
2025-04-20T23:00:48.463+03:00,1745179246.460543,40.98553810758849,29.1374092842291,83.50758,-1,-1,-1,-1,30.00216584921526,27.66431350007163,-9999,9714.323938125,-0.5434112548828125,0.7379150390625,-0.45489501953125,9714.318900125001,-2.426635662187031,-0.9570784554421886,-0.6460700475917011,0.7662281394004822,0.0420754998922348,-0.3568037152290344,0.06201893091201782,-0.06453186273574829,-0.1809686422348022,XArbitraryZVertical,-0.5076610487975407,0.1111780306431302,-0.7373911947935764,0.4314786098732441,-0.6527476906776428,0.602053165435791,-0.459839403629303,0,0,0,-1,-1,9674.059003125001,unknown,2,2025-04-20T22:59:17.430+03:00,2025-04-20T21:57:49.637+03:00,29,4.348656,0,0,23.86625,0,0,2025-04-20T22:59:32.906+03:00,766872047.7996458,0,0.4799995,99.73148,1,0.95,2025-04-20T22:59:42.035+03:00,100,1.666666666666667,2025-04-19T12:19:17.059+03:00,0.05691595998002078,0
2025-04-20T23:00:48.473+03:00,1745179246.460543,40.98553810758849,29.1374092842291,83.50758,-1,-1,-1,-1,30.00216584921526,27.66431350007163,-9999,9714.334014125001,-0.50347900390625,0.9135894775390625,-0.6603851318359375,9714.328976125,-2.420243548557859,-0.9521200420789107,-0.6392607950155234,0.7624208927154541,0.09604046493768692,-0.1526655107736588,-0.05474239587783813,-0.2646627426147461,0.001188546419143677,XArbitraryZVertical,-0.5056353434314821,0.1077698482534564,-0.7386822562495958,0.4325123049921524,-0.6537841558456421,0.5966023802757263,-0.465437114238739,0,0,0,-1,-1,9674.059003125001,unknown,2,2025-04-20T22:59:17.430+03:00,2025-04-20T21:57:49.637+03:00,29,4.348656,0,0,23.86625,0,0,2025-04-20T22:59:32.906+03:00,766872047.7996458,0,0.4799995,99.73148,1,0.95,2025-04-20T22:59:42.035+03:00,100,1.666666666666667,2025-04-19T12:19:17.059+03:00,0.05691595998002078,0
2025-04-20T23:00:48.483+03:00,1745179246.460543,40.98553810758849,29.1374092842291,83.50758,-1,-1,-1,-1,30.00216584921526,27.66431350007163,-9999,9714.344090125001,-0.6287384033203125,0.6252899169921875,-0.5955047607421875,9714.339052125,-2.414715651630237,-0.9490785763133345,-0.6347362988812945,0.490394651889801,-0.1284353137016296,-0.06487403064966202,0.2111632227897644,0.3683841824531555,-0.07873860001564026,XArbitraryZVertical,-0.5044323634128693,0.1051312991385362,-0.7391904666601329,0.4336964864081114,-0.6545530557632446,0.5929651856422424,-0.4689908027648926,0,0,0,-1,-1,9674.059003125001,unknown,2,2025-04-20T22:59:17.430+03:00,2025-04-20T21:57:49.637+03:00,29,4.348656,0,0,23.86625,0,0,2025-04-20T22:59:32.906+03:00,766872047.7996458,0,0.4799995,99.73148,1,0.95,2025-04-20T22:59:42.035+03:00,100,1.666666666666667,2025-04-19T12:19:17.059+03:00,0.05691595998002078,0
2025-04-20T23:00:48.493+03:00,1745179246.460543,40.98553810758849,29.1374092842291,83.50758,-1,-1,-1,-1,30.00216584921526,27.66431350007163,-9999,9714.354166125,-0.6126251220703125,0.4713592529296875,-0.42877197265625,9714.349128125001,-2.410982866269308,-0.948579475403089,-0.632348044994642,0.2934216558933258,-0.1603290736675262,0.03444509953260422,0.05129605531692505,0.1685267090797424,-0.2101257741451263,XArbitraryZVertical,-0.5042414784234589,0.1032946754982334,-0.7389998515624131,0.434683515847882,-0.6554677486419678,0.5910404324531555,-0.4701414704322815,0,0,0,-1,-1,9674.059003125001,unknown,2,2025-04-20T22:59:17.430+03:00,2025-04-20T21:57:49.637+03:00,29,4.348656,0,0,23.86625,0,0,2025-04-20T22:59:32.906+03:00,766872047.7996458,0,0.4799995,99.73148,1,0.95,2025-04-20T22:59:42.035+03:00,100,1.666666666666667,2025-04-19T12:19:17.059+03:00,0.05691595998002078,0
2025-04-20T23:00:48.503+03:00,1745179246.460543,40.98553810758849,29.1374092842291,83.50758,-1,-1,-1,-1,30.00216584921526,27.66431350007163,-9999,9714.364242125001,-0.741943359375,0.487823486328125,-0.4374847412109375,9714.359204125001,-2.408299282327851,-0.9475573092136783,-0.6312789452198212,0.1888884007930756,0.0628550797700882,0.04298615828156471,0.05083960294723511,-0.05995011329650879,-0.01908504962921143,XArbitraryZVertical,-0.5039108034652272,0.1023913786480843,-0.7388947419825121,0.4354588084982511,-0.6554996371269226,0.5901777148246765,-0.4711798131465912,0,0,0,-1,-1,9674.059003125001,unknown,2,2025-04-20T22:59:17.430+03:00,2025-04-20T21:57:49.637+03:00,29,4.348656,0,0,23.86625,0,0,2025-04-20T22:59:32.906+03:00,766872047.7996458,0,0.4799995,99.73148,1,0.95,2025-04-20T22:59:42.035+03:00,100,1.666666666666667,2025-04-19T12:19:17.059+03:00,0.05691595998002078,0
2025-04-20T23:00:48.513+03:00,1745179246.460543,40.98553810758849,29.1374092842291,83.50758,-1,-1,-1,-1,30.00216584921526,27.66431350007163,-9999,9714.374317125001,-0.81640625,0.5631103515625,-0.48138427734375,9714.369279125001,-2.406409392941415,-0.9452175645448846,-0.6306094399635386,0.1442530304193497,0.1507942527532578,0.03806223720312119,-0.01613712310791016,-0.133078932762146,0.05595135688781738,XArbitraryZVertical,-0.5030853472615139,0.1021439258761486,-0.7392104206188636,0.435935359998308,-0.6547155380249023,0.5896371006965637,-0.472943514585495,0,0,0,-1,-1,9674.059003125001,unknown,2,2025-04-20T22:59:17.430+03:00,2025-04-20T21:57:49.637+03:00,29,4.348656,0,0,23.86625,0,0,2025-04-20T22:59:32.906+03:00,766872047.7996458,0,0.4799995,99.73148,1,0.95,2025-04-20T22:59:42.035+03:00,100,1.666666666666667,2025-04-19T12:19:17.059+03:00,0.05691595998002078,0
2025-04-20T23:00:48.523+03:00,1745179246.460543,40.98553810758849,29.1374092842291,83.50758,-1,-1,-1,-1,30.00216584921526,27.66431350007163,-9999,9714.384393125001,-0.80352783203125,0.5218658447265625,-0.451812744140625,9714.379355125,-2.404684112287692,-0.942760794006345,-0.6303585262657502,0.1064089760184288,0.1259067505598068,0.08414824306964874,-0.1403654813766479,-0.05349999666213989,0.00854259729385376,XArbitraryZVertical,-0.5022435142384067,0.1021405931794919,-0.7395035074522994,0.4364095831106324,-0.6536713838577271,0.5894344449043274,-0.474637508392334,0,0,0,-1,-1,9674.059003125001,unknown,2,2025-04-20T22:59:17.430+03:00,2025-04-20T21:57:49.637+03:00,29,4.348656,0,0,23.86625,0,0,2025-04-20T22:59:32.906+03:00,766872047.7996458,0,0.4799995,99.73148,1,0.95,2025-04-20T22:59:42.035+03:00,100,1.666666666666667,2025-04-19T12:19:17.059+03:00,0.05691595998002078,0
2025-04-20T23:00:48.534+03:00,1745179246.460543,40.98553810758849,29.1374092842291,83.50758,-1,-1,-1,-1,30.00216584921526,27.66431350007163,-9999,9714.394469125,-0.740203857421875,0.506378173828125,-0.4227294921875,9714.389431125001,-2.402967589240795,-0.9407535568402933,-0.6305427152167414,0.1102732196450233,0.07453756779432297,0.1129977330565453,-0.1639139652252197,-0.03636056184768677,0.001717805862426758,XArbitraryZVertical,-0.5016050514031158,0.1022255471943869,-0.7395943578050038,0.4369696067638535,-0.6526296138763428,0.5895832180976868,-0.4758846163749695,0,0,0,-1,-1,9674.059003125001,unknown,2,2025-04-20T22:59:17.430+03:00,2025-04-20T21:57:49.637+03:00,29,4.348656,0,0,23.86625,0,0,2025-04-20T22:59:32.906+03:00,766872047.7996458,0,0.4799995,99.73148,1,0.95,2025-04-20T22:59:42.035+03:00,100,1.666666666666667,2025-04-19T12:19:17.059+03:00,0.05691595998002078,0
2025-04-20T23:00:48.544+03:00,1745179246.460543,40.98553810758849,29.1374092842291,83.50758,-1,-1,-1,-1,30.00216584921526,27.66431350007163,-9999,9714.404545125,-0.642974853515625,0.571563720703125,-0.440521240234375,9714.399507125001,-2.400810888110933,-0.9390557540388819,-0.6306886527255733,0.1394455581903458,0.008860092610120773,0.1079264432191849,-0.1271183490753174,-0.08930438756942749,0.04527002573013306,XArbitraryZVertical,-0.5011002246644723,0.1021175474644667,-0.7395181737351205,0.4377023622616862,-0.6517512798309326,0.5897010564804077,-0.4769411385059357,0,0,0,-1,-1,9674.059003125001,unknown,2,2025-04-20T22:59:17.430+03:00,2025-04-20T21:57:49.637+03:00,29,4.348656,0,0,23.86625,0,0,2025-04-20T22:59:32.906+03:00,766872047.7996458,0,0.4799995,99.73148,1,0.95,2025-04-20T22:59:42.035+03:00,100,1.666666666666667,2025-04-19T12:19:17.059+03:00,0.05691595998002078,0
2025-04-20T23:00:48.554+03:00,1745179246.460543,40.98553810758849,29.1374092842291,83.50758,-1,-1,-1,-1,30.00216584921526,27.66431350007163,-9999,9714.414621125001,-0.57098388671875,0.6316375732421875,-0.47271728515625,9714.409583125,-2.398780617186075,-0.9380255065111101,-0.6306519504310353,0.1266930103302002,-0.0554022490978241,0.07154899090528488,-0.04020553827285767,-0.05532395839691162,0.04938727617263794,XArbitraryZVertical,-0.5008195963956797,0.1018192167844445,-0.7393391483898998,0.4383949466917705,-0.6512770056724548,0.5896714329719543,-0.4776251614093781,0,0,0,-1,-1,9674.059003125001,unknown,2,2025-04-20T22:59:17.430+03:00,2025-04-20T21:57:49.637+03:00,29,4.348656,0,0,23.86625,0,0,2025-04-20T22:59:32.906+03:00,766872047.7996458,0,0.4799995,99.73148,1,0.95,2025-04-20T22:59:42.035+03:00,100,1.666666666666667,2025-04-19T12:19:17.059+03:00,0.05691595998002078,0
2025-04-20T23:00:48.564+03:00,1745179246.460543,40.98553810758849,29.1374092842291,83.50758,-1,-1,-1,-1,30.00216584921526,27.66431350007163,-9999,9714.424697125001,-0.5411529541015625,0.6319122314453125,-0.5057830810546875,9714.419659125,-2.397361148199537,-0.9382080302072224,-0.6304440654766544,0.07921271026134491,-0.1485576331615448,0.03432885557413101,0.04942750930786133,0.01681971549987793,0.02218025922775269,XArbitraryZVertical,-0.5009407028724885,0.101336274981165,-0.7390251289147617,0.4388976650113534,-0.6514630317687988,0.5895035266876221,-0.477578729391098,0,0,0,-1,-1,9674.059003125001,unknown,2,2025-04-20T22:59:17.430+03:00,2025-04-20T21:57:49.637+03:00,29,4.348656,0,0,23.86625,0,0,2025-04-20T22:59:32.906+03:00,766872047.7996458,0,0.4799995,99.73148,1,0.95,2025-04-20T22:59:42.035+03:00,100,1.666666666666667,2025-04-19T12:19:17.059+03:00,0.05691595998002078,0
2025-04-20T23:00:48.574+03:00,1745179246.460543,40.98553810758849,29.1374092842291,83.50758,-1,-1,-1,-1,30.00216584921526,27.66431350007163,-9999,9714.434773125,-0.536834716796875,0.5975799560546875,-0.5037078857421875,9714.429735125001,-2.39649700661665,-0.9393977017816156,-0.6302743772769479,0.04645955935120583,-0.1822080016136169,0.0201584380120039,0.1008114218711853,0.05057179927825928,-0.01515719294548035,XArbitraryZVertical,-0.5014087559449253,0.1007872372959271,-0.7385723730712731,0.4392515057606413,-0.6521114110946655,0.5893664360046387,-0.476862370967865,0,0,0,-1,-1,9674.059003125001,unknown,2,2025-04-20T22:59:17.430+03:00,2025-04-20T21:57:49.637+03:00,29,4.348656,0,0,23.86625,0,0,2025-04-20T22:59:32.906+03:00,766872047.7996458,0,0.4799995,99.73148,1,0.95,2025-04-20T22:59:42.035+03:00,100,1.666666666666667,2025-04-19T12:19:17.059+03:00,0.05691595998002078,0
2025-04-20T23:00:48.584+03:00,1745179246.460543,40.98553810758849,29.1374092842291,83.50758,-1,-1,-1,-1,30.00216584921526,27.66431350007163,-9999,9714.444848125,-0.5433349609375,0.57843017578125,-0.4862060546875,9714.439810125001,-2.39619199303042,-0.941038778128433,-0.6303261270784976,-0.01965461298823357,-0.1777590662240982,0.02343352884054184,0.11488938331604,0.0255666971206665,-0.03367149829864502,XArbitraryZVertical,-0.5020345091850158,0.100371942319899,-0.738083023910357,0.4394544446433445,-0.6528685092926025,0.5894082188606262,-0.4757736623287201,0,0,0,-1,-1,9674.059003125001,unknown,2,2025-04-20T22:59:17.430+03:00,2025-04-20T21:57:49.637+03:00,29,4.348656,0,0,23.86625,0,0,2025-04-20T22:59:32.906+03:00,766872047.7996458,0,0.4799995,99.73148,1,0.95,2025-04-20T22:59:42.035+03:00,100,1.666666666666667,2025-04-19T12:19:17.059+03:00,0.05691595998002078,0
2025-04-20T23:00:48.594+03:00,1745179246.460543,40.98553810758849,29.1374092842291,83.50758,-1,-1,-1,-1,30.00216584921526,27.66431350007163,-9999,9714.454924125001,-0.56951904296875,0.5531005859375,-0.4749603271484375,9714.449886125001,-2.396512779126319,-0.9428861846506195,-0.6310341040243194,-0.1064345166087151,-0.1477878391742706,0.06182698905467987,0.1144832968711853,-0.003859519958496094,-0.01952919363975525,XArbitraryZVertical,-0.5027627263270853,0.1003440337413725,-0.7375426796298591,0.4395353802896949,-0.653408408164978,0.5899800062179565,-0.4743214249610901,0,0,0,-1,-1,9674.059003125001,unknown,2,2025-04-20T22:59:17.430+03:00,2025-04-20T21:57:49.637+03:00,29,4.348656,0,0,23.86625,0,0,2025-04-20T22:59:32.906+03:00,766872047.7996458,0,0.4799995,99.73148,1,0.95,2025-04-20T22:59:42.035+03:00,100,1.666666666666667,2025-04-19T12:19:17.059+03:00,0.05691595998002078,0
2025-04-20T23:00:48.604+03:00,1745179246.460543,40.98553810758849,29.1374092842291,83.50758,-1,-1,-1,-1,30.00216584921526,27.66431350007163,-9999,9714.465000125001,-0.606658935546875,0.515960693359375,-0.468536376953125,9714.459962125,-2.39734932036932,-0.944628061754991,-0.6326009388386945,-0.1834254413843155,-0.100881852209568,0.1113725677132607,0.1000475883483887,-0.02100825309753418,-0.007981032133102417,XArbitraryZVertical,-0.5035009948009003,0.1008297462217773,-0.7369632324226795,0.4395510298151714,-0.6534838080406189,0.5912443995475769,-0.4726402163505554,0,0,0,-1,-1,9674.059003125001,unknown,2,2025-04-20T22:59:17.430+03:00,2025-04-20T21:57:49.637+03:00,29,4.348656,0,0,23.86625,0,0,2025-04-20T22:59:32.906+03:00,766872047.7996458,0,0.4799995,99.73148,1,0.95,2025-04-20T22:59:42.035+03:00,100,1.666666666666667,2025-04-19T12:19:17.059+03:00,0.05691595998002078,0
2025-04-20T23:00:48.614+03:00,1745179246.460543,40.98553810758849,29.1374092842291,83.50758,-1,-1,-1,-1,30.00216584921526,27.66431350007163,-9999,9714.475076125,-0.6206512451171875,0.52178955078125,-0.4792022705078125,9714.470038125,-2.39843046019774,-0.9461689908460746,-0.6348796269557054,-0.2140667140483856,-0.08139417320489883,0.14766825735569,0.06420385837554932,-0.06144917011260986,0.0007203817367553711,XArbitraryZVertical,-0.5042134305335603,0.1017201689342515,-0.7363391530180683,0.4395752752784777,-0.6531168222427368,0.5930805802345276,-0.470843642950058,0,0,0,-1,-1,9674.059003125001,unknown,2,2025-04-20T22:59:17.430+03:00,2025-04-20T21:57:49.637+03:00,29,4.348656,0,0,23.86625,0,0,2025-04-20T22:59:32.906+03:00,766872047.7996458,0,0.4799995,99.73148,1,0.95,2025-04-20T22:59:42.035+03:00,100,1.666666666666667,2025-04-19T12:19:17.059+03:00,0.05691595998002078,0
2025-04-20T23:00:48.624+03:00,1745179246.460543,40.98553810758849,29.1374092842291,83.50758,-1,-1,-1,-1,30.00216584921526,27.66431350007163,-9999,9714.485152125,-0.6168670654296875,0.5458221435546875,-0.488494873046875,9714.480114125001,-2.399552901198273,-0.947630127184532,-0.637617800586556,-0.2522229552268982,-0.07715687900781631,0.1836816221475601,0.03462409973144531,-0.08176374435424805,-0.004372954368591309,XArbitraryZVertical,-0.5049316804200287,0.1028314840885901,-0.7356470142157929,0.4396512096234092,-0.6524829864501953,0.5952829718589783,-0.4689393639564514,0,0,0,-1,-1,9674.059003125001,unknown,2,2025-04-20T22:59:17.430+03:00,2025-04-20T21:57:49.637+03:00,29,4.348656,0,0,23.86625,0,0,2025-04-20T22:59:32.906+03:00,766872047.7996458,0,0.4799995,99.73148,1,0.95,2025-04-20T22:59:42.035+03:00,100,1.666666666666667,2025-04-19T12:19:17.059+03:00,0.05691595998002078,0
2025-04-20T23:00:48.634+03:00,1745179246.460543,40.98553810758849,29.1374092842291,83.50758,-1,-1,-1,-1,30.00216584921526,27.66431350007163,-9999,9714.495228125001,-0.6251373291015625,0.560546875,-0.4920501708984375,9714.490190125001,-2.400739741407088,-0.9490659356651078,-0.6406955626986743,-0.2550893127918243,-0.07062415033578873,0.1978704184293747,0.03340762853622437,-0.06236809492111206,-0.01764059066772461,XArbitraryZVertical,-0.505663280561601,0.1041071325503534,-0.7349025915863824,0.4397550888229969,-0.6516632437705994,0.5977532267570496,-0.4669327139854431,0,0,0,-1,-1,9674.059003125001,unknown,2,2025-04-20T22:59:17.430+03:00,2025-04-20T21:57:49.637+03:00,29,4.348656,0,0,23.86625,0,0,2025-04-20T22:59:32.906+03:00,766872047.7996458,0,0.4799995,99.73148,1,0.95,2025-04-20T22:59:42.035+03:00,100,1.666666666666667,2025-04-19T12:19:17.059+03:00,0.05691595998002078,0
