loggingTime(txt),locationTimestamp_since1970(s),locationLatitude(WGS84),locationLongitude(WGS84),locationAltitude(m),locationSpeed(m/s),locationSpeedAccuracy(m/s),locationCourse(°),locationCourseAccuracy(°),locationVerticalAccuracy(m),locationHorizontalAccuracy(m),locationFloor(Z),accelerometerTimestamp_sinceReboot(s),accelerometerAccelerationX(G),accelerometerAccelerationY(G),accelerometerAccelerationZ(G),motionTimestamp_sinceReboot(s),motionYaw(rad),motionRoll(rad),motionPitch(rad),motionRotationRateX(rad/s),motionRotationRateY(rad/s),motionRotationRateZ(rad/s),motionUserAccelerationX(G),motionUserAccelerationY(G),motionUserAccelerationZ(G),motionAttitudeReferenceFrame(txt),motionQuaternionX(R),motionQuaternionY(R),motionQuaternionZ(R),motionQuaternionW(R),motionGravityX(G),motionGravityY(G),motionGravityZ(G),motionMagneticFieldX(µT),motionMagneticFieldY(µT),motionMagneticFieldZ(µT),motionHeading(°),motionMagneticFieldCalibrationAccuracy(Z),activityTimestamp_sinceReboot(s),activity(txt),activityActivityConfidence(Z),activityActivityStartDate(txt),pedometerStartDate(txt),pedometerNumberofSteps(N),pedometerAverageActivePace(s/m),pedometerCurrentPace(s/m),pedometerCurrentCadence(steps/s),pedometerDistance(m),pedometerFloorAscended(N),pedometerFloorDescended(N),pedometerEndDate(txt),altimeterTimestamp_sinceReboot(s),altimeterReset(bool),altimeterRelativeAltitude(m),altimeterPressure(kPa),batteryState(N),batteryLevel(R),heartRateBPMTimestamp(txt),heartRateBPM(N),heartRateBPS(R),heartRateVariabilityTimestamp(txt),heartRateVariability(ms),label
2025-04-20T23:15:51.362+03:00,1745180151.14359,40.985586866833,29.13735278228028,126.3665,-1,-1,-1,-1,30,22.26780044147412,-9999,10082.324479125,-0.446807861328125,0.8352203369140625,-0.2737579345703125,10082.315670125,-2.246335654308538,-1.035068087812561,-0.9875828300398349,-0.06180640310049057,-0.04893741384148598,-0.01218767277896404,0.01723900437355042,0.001926779747009277,0.01210659742355347,XArbitraryZVertical,0.5709987386789935,-0.1827592478820356,0.588340579648724,-0.5426000578208241,-0.4735530912876129,0.8346972465515137,-0.2811189889907837,0,0,0,-1,-1,10078.943875375,unknown,2,2025-04-20T23:15:47.951+03:00,2025-04-20T21:57:49.637+03:00,29,4.348656,0,0,23.86625,0,0,2025-04-20T22:59:32.906+03:00,766872950.634814,0,-0.8999996,99.74757,1,0.95,2025-04-20T23:15:47.660+03:00,101,1.683333333333333,2025-04-19T12:19:17.059+03:00,0.05691595998002078,0
2025-04-20T23:15:51.364+03:00,1745180151.14359,40.985586866833,29.13735278228028,126.3665,-1,-1,-1,-1,30,22.26780044147412,-9999,10082.334555125,-0.4504547119140625,0.8431854248046875,-0.2770538330078125,10082.325747125,-2.247430824434875,-1.036549755474797,-0.9876969534485553,-0.05671130865812302,-0.06726375222206116,-0.03794193640351295,0.02639263868331909,0.001879215240478516,0.007907629013061523,XArbitraryZVertical,0.5713412882910446,-0.1827152421890172,0.5881825773637681,-0.5424255806733919,-0.4738871455192566,0.8347601294517517,-0.2803685367107391,0,0,0,-1,-1,10078.943875375,unknown,2,2025-04-20T23:15:47.951+03:00,2025-04-20T21:57:49.637+03:00,29,4.348656,0,0,23.86625,0,0,2025-04-20T22:59:32.906+03:00,766872950.634814,0,-0.8999996,99.74757,1,0.95,2025-04-20T23:15:47.660+03:00,101,1.683333333333333,2025-04-19T12:19:17.059+03:00,0.05691595998002078,0
2025-04-20T23:15:51.365+03:00,1745180151.14359,40.985586866833,29.13735278228028,126.3665,-1,-1,-1,-1,30,22.26780044147412,-9999,10082.344631125,-0.4496917724609375,0.856292724609375,-0.277557373046875,10082.335823125,-2.248882880590532,-1.038540111134279,-0.9874288399594752,-0.06668218225240707,-0.0921962708234787,-0.08934201300144196,0.02544873952865601,0.001614868640899658,0.003873080015182495,XArbitraryZVertical,0.5717781551189265,-0.18248453868108,0.5880824360064435,-0.5421513026097997,-0.4746369123458862,0.8346124291419983,-0.2795382738113403,0,0,0,-1,-1,10078.943875375,unknown,2,2025-04-20T23:15:47.951+03:00,2025-04-20T21:57:49.637+03:00,29,4.348656,0,0,23.86625,0,0,2025-04-20T22:59:32.906+03:00,766872950.634814,0,-0.8999996,99.74757,1,0.95,2025-04-20T23:15:47.660+03:00,101,1.683333333333333,2025-04-19T12:19:17.059+03:00,0.05691595998002078,0
2025-04-20T23:15:51.367+03:00,1745180151.14359,40.985586866833,29.13735278228028,126.3665,-1,-1,-1,-1,30,22.26780044147412,-9999,10082.354707125,-0.4534454345703125,0.8404083251953125,-0.2805938720703125,10082.345899125,-2.250174442382898,-1.040499192293574,-0.9870571474052189,-0.02998016215860844,-0.0907643586397171,-0.05191038176417351,0.02693438529968262,0.01791763305664062,0.001634687185287476,XArbitraryZVertical,0.5722145944541202,-0.1821759895319087,0.5879761520689468,-0.5419097824173228,-0.4754511713981628,0.83440762758255,-0.2787647247314453,0,0,0,-1,-1,10078.943875375,unknown,2,2025-04-20T23:15:47.951+03:00,2025-04-20T21:57:49.637+03:00,29,4.348656,0,0,23.86625,0,0,2025-04-20T22:59:32.906+03:00,766872950.634814,0,-0.8999996,99.74757,1,0.95,2025-04-20T23:15:47.660+03:00,101,1.683333333333333,2025-04-19T12:19:17.059+03:00,0.05691595998002078,0
2025-04-20T23:15:51.377+03:00,1745180151.14359,40.985586866833,29.13735278228028,126.3665,-1,-1,-1,-1,30,22.26780044147412,-9999,10082.364784125,-0.4616851806640625,0.8269500732421875,-0.2743072509765625,10082.355975125,-2.251036650921181,-1.042176272705546,-0.9867297830013467,-0.02588342130184174,-0.09657803922891617,-0.05881329625844955,0.02370026707649231,0.01777762174606323,-0.0003223717212677002,XArbitraryZVertical,0.5726100310909767,-0.1818389570127965,0.5878213103809956,-0.5417732093935016,-0.4761538207530975,0.8342272043228149,-0.278104692697525,0,0,0,-1,-1,10078.943875375,unknown,2,2025-04-20T23:15:47.951+03:00,2025-04-20T21:57:49.637+03:00,29,4.348656,0,0,23.86625,0,0,2025-04-20T22:59:32.906+03:00,766872950.634814,0,-0.8999996,99.74757,1,0.95,2025-04-20T23:15:47.660+03:00,101,1.683333333333333,2025-04-19T12:19:17.059+03:00,0.05691595998002078,0
2025-04-20T23:15:51.387+03:00,1745180151.14359,40.985586866833,29.13735278228028,126.3665,-1,-1,-1,-1,30,22.26780044147412,-9999,10082.374860125,-0.462188720703125,0.7914276123046875,-0.2635345458984375,10082.366052125,-2.251655910332042,-1.044544538251614,-0.985697305476359,-0.0370679683983326,-0.1477728486061096,-0.08383719623088837,0.02034139633178711,-0.003472566604614258,-0.001704931259155273,XArbitraryZVertical,0.5731899377473362,-0.1809665439385368,0.5875995277802728,-0.5416927704668945,-0.4775557219982147,0.8336573839187622,-0.2774088084697723,0,0,0,-1,-1,10078.943875375,unknown,2,2025-04-20T23:15:47.951+03:00,2025-04-20T21:57:49.637+03:00,29,4.348656,0,0,23.86625,0,0,2025-04-20T22:59:32.906+03:00,766872950.634814,0,-0.8999996,99.74757,1,0.95,2025-04-20T23:15:47.660+03:00,101,1.683333333333333,2025-04-19T12:19:17.059+03:00,0.05691595998002078,0
2025-04-20T23:15:51.397+03:00,1745180151.14359,40.985586866833,29.13735278228028,126.3665,-1,-1,-1,-1,30,22.26780044147412,-9999,10082.384936125,-0.4787445068359375,0.822540283203125,-0.2710723876953125,10082.376128125,-2.252454683418232,-1.046408325351939,-0.9858121403070089,0.01953059807419777,-0.1050685197114944,0.02115260809659958,0.01337417960166931,-0.01362210512161255,0.007488399744033813,XArbitraryZVertical,0.5736717497761354,-0.1807362309715356,0.5872493027356832,-0.5416393320768405,-0.4779889583587646,0.8337208032608032,-0.276470273733139,0,0,0,-1,-1,10078.943875375,unknown,2,2025-04-20T23:15:47.951+03:00,2025-04-20T21:57:49.637+03:00,29,4.348656,0,0,23.86625,0,0,2025-04-20T22:59:32.906+03:00,766872950.634814,0,-0.8999996,99.74757,1,0.95,2025-04-20T23:15:47.660+03:00,101,1.683333333333333,2025-04-19T12:19:17.059+03:00,0.05691595998002078,0
2025-04-20T23:15:51.407+03:00,1745180151.14359,40.985586866833,29.13735278228028,126.3665,-1,-1,-1,-1,30,22.26780044147412,-9999,10082.395013125,-0.47625732421875,0.8758392333984375,-0.278564453125,10082.386204125,-2.252384295690887,-1.047143559522068,-0.9856831017103099,0.008863239549100399,-0.06707167625427246,-0.03339096158742905,0.01414373517036438,-0.05421531200408936,0.01492705941200256,XArbitraryZVertical,0.5738865127921806,-0.1804657474923147,0.5870556451647156,-0.5417122307403195,-0.4782856404781342,0.8336495757102966,-0.2761727571487427,0,0,0,-1,-1,10078.943875375,unknown,2,2025-04-20T23:15:47.951+03:00,2025-04-20T21:57:49.637+03:00,29,4.348656,0,0,23.86625,0,0,2025-04-20T22:59:32.906+03:00,766872950.634814,0,-0.8999996,99.74757,1,0.95,2025-04-20T23:15:47.660+03:00,101,1.683333333333333,2025-04-19T12:19:17.059+03:00,0.05691595998002078,0
2025-04-20T23:15:51.417+03:00,1745180151.14359,40.985586866833,29.13735278228028,126.3665,-1,-1,-1,-1,30,22.26780044147412,-9999,10082.405089125,-0.474822998046875,0.82861328125,-0.272796630859375,10082.396281125,-2.2526008237998,-1.047994359471553,-0.9855393780057847,-0.01422157324850559,-0.06718406081199646,-0.004279415123164654,-0.005827248096466064,0.03981232643127441,-0.00489044189453125,XArbitraryZVertical,0.5741084895685332,-0.1802407315896844,0.5869101621969236,-0.541709405697762,-0.478624016046524,0.8335701823234558,-0.2758254408836365,0,0,0,-1,-1,10078.943875375,unknown,2,2025-04-20T23:15:47.951+03:00,2025-04-20T21:57:49.637+03:00,29,4.348656,0,0,23.86625,0,0,2025-04-20T22:59:32.906+03:00,766872950.634814,0,-0.8999996,99.74757,1,0.95,2025-04-20T23:15:47.660+03:00,101,1.683333333333333,2025-04-19T12:19:17.059+03:00,0.05691595998002078,0
2025-04-20T23:15:51.427+03:00,1745180151.14359,40.985586866833,29.13735278228028,126.3665,-1,-1,-1,-1,30,22.26780044147412,-9999,10082.415165125,-0.486907958984375,0.8332061767578125,-0.2799224853515625,10082.406357125,-2.252799088774152,-1.048812997928006,-0.9858290045459184,-0.03037324547767639,-0.0606679767370224,0.01524415239691734,0.00844082236289978,0.01459741592407227,0.003279536962509155,XArbitraryZVertical,0.5743473289895905,-0.1801903718843152,0.5866478233519926,-0.5417571561277953,-0.4786403775215149,0.8337301015853882,-0.275313138961792,0,0,0,-1,-1,10078.943875375,unknown,2,2025-04-20T23:15:47.951+03:00,2025-04-20T21:57:49.637+03:00,29,4.348656,0,0,23.86625,0,0,2025-04-20T22:59:32.906+03:00,766872950.634814,0,-0.8999996,99.74757,1,0.95,2025-04-20T23:15:47.660+03:00,101,1.683333333333333,2025-04-19T12:19:17.059+03:00,0.05691595998002078,0
2025-04-20T23:15:51.437+03:00,1745180151.14359,40.985586866833,29.13735278228028,126.3665,-1,-1,-1,-1,30,22.26780044147412,-9999,10082.425242125,-0.4813995361328125,0.8454132080078125,-0.277313232421875,10082.416433125,-2.252956632925307,-1.049546437748018,-0.9861200500083116,-0.01904309168457985,-0.05854250490665436,0.01276581455022097,-0.004202127456665039,-0.007245957851409912,-0.002395689487457275,XArbitraryZVertical,0.5745647805345304,-0.1801519530989665,0.5863984084964584,-0.5418093710934663,-0.4786317050457001,0.8338907957077026,-0.2748411595821381,0,0,0,-1,-1,10078.943875375,unknown,2,2025-04-20T23:15:47.951+03:00,2025-04-20T21:57:49.637+03:00,29,4.348656,0,0,23.86625,0,0,2025-04-20T22:59:32.906+03:00,766872950.634814,0,-0.8999996,99.74757,1,0.95,2025-04-20T23:15:47.660+03:00,101,1.683333333333333,2025-04-19T12:19:17.059+03:00,0.05691595998002078,0
2025-04-20T23:15:51.447+03:00,1745180151.14359,40.985586866833,29.13735278228028,126.3665,-1,-1,-1,-1,30,22.26780044147412,-9999,10082.43531675,-0.4811859130859375,0.84716796875,-0.2779083251953125,10082.426510125,-2.252974722487309,-1.050147548528468,-0.986368581901054,-0.007348088081926107,-0.06341395527124405,0.01583058014512062,-0.006520867347717285,0.005800485610961914,-0.004037797451019287,XArbitraryZVertical,0.574753455202606,-0.1800924792622762,0.5861610738200945,-0.5418858647778486,-0.4786170721054077,0.8340279459953308,-0.2744503319263458,0,0,0,-1,-1,10078.943875375,unknown,2,2025-04-20T23:15:47.951+03:00,2025-04-20T21:57:49.637+03:00,29,4.348656,0,0,23.86625,0,0,2025-04-20T22:59:32.906+03:00,766872950.634814,0,-0.8999996,99.74757,1,0.95,2025-04-20T23:15:47.660+03:00,101,1.683333333333333,2025-04-19T12:19:17.059+03:00,0.05691595998002078,0
2025-04-20T23:15:51.457+03:00,1745180151.14359,40.985586866833,29.13735278228028,126.3665,-1,-1,-1,-1,30,22.26780044147412,-9999,10082.44539275,-0.4841461181640625,0.8381195068359375,-0.2772216796875,10082.43658475,-2.25284720697111,-1.050655683759528,-0.9865613102088731,0.001360449008643627,-0.06246693804860115,0.01196207199245691,-0.001104086637496948,0.01385760307312012,-0.00378108024597168,XArbitraryZVertical,0.5749247407015411,-0.1799942732667786,0.5859265484211157,-0.5419904333639755,-0.4786169826984406,0.8341342806816101,-0.2741272151470184,0,0,0,-1,-1,10078.943875375,unknown,2,2025-04-20T23:15:47.951+03:00,2025-04-20T21:57:49.637+03:00,29,4.348656,0,0,23.86625,0,0,2025-04-20T22:59:32.906+03:00,766872950.634814,0,-0.8999996,99.74757,1,0.95,2025-04-20T23:15:47.660+03:00,101,1.683333333333333,2025-04-19T12:19:17.059+03:00,0.05691595998002078,0
2025-04-20T23:15:51.467+03:00,1745180151.14359,40.985586866833,29.13735278228028,126.3665,-1,-1,-1,-1,30,22.26780044147412,-9999,10082.45546975,-0.48480224609375,0.8351287841796875,-0.270233154296875,10082.44666075,-2.252604735199366,-1.051041743819202,-0.9866795368176866,0.01015627011656761,-0.05411612614989281,0.0120838787406683,-0.004288136959075928,0.007460057735443115,-0.004121601581573486,XArbitraryZVertical,0.5750663151879425,-0.1798665984701531,0.5857168072755284,-0.5421093816748219,-0.4786372780799866,0.8341994881629944,-0.2738934755325317,0,0,0,-1,-1,10078.943875375,unknown,2,2025-04-20T23:15:47.951+03:00,2025-04-20T21:57:49.637+03:00,29,4.348656,0,0,23.86625,0,0,2025-04-20T22:59:32.906+03:00,766872950.634814,0,-0.8999996,99.74757,1,0.95,2025-04-20T23:15:47.660+03:00,101,1.683333333333333,2025-04-19T12:19:17.059+03:00,0.05691595998002078,0
2025-04-20T23:15:51.477+03:00,1745180151.14359,40.985586866833,29.13735278228028,126.3665,-1,-1,-1,-1,30,22.26780044147412,-9999,10082.46554575,-0.4842376708984375,0.833099365234375,-0.2574462890625,10082.45673775,-2.252230026643406,-1.051247052454249,-0.9866832697711437,0.02611073665320873,-0.05079170316457748,0.009196745231747627,-0.005363911390304565,0.001339137554168701,-0.001413881778717041,XArbitraryZVertical,0.5751603443214444,-0.1797047261258887,0.5855550494071694,-0.5422379288200322,-0.4786906540393829,0.8342015147209167,-0.2737935781478882,0,0,0,-1,-1,10078.943875375,unknown,2,2025-04-20T23:15:47.951+03:00,2025-04-20T21:57:49.637+03:00,29,4.348656,0,0,23.86625,0,0,2025-04-20T22:59:32.906+03:00,766872950.634814,0,-0.8999996,99.74757,1,0.95,2025-04-20T23:15:47.660+03:00,101,1.683333333333333,2025-04-19T12:19:17.059+03:00,0.05691595998002078,0
2025-04-20T23:15:51.487+03:00,1745180151.14359,40.985586866833,29.13735278228028,126.3665,-1,-1,-1,-1,30,22.26780044147412,-9999,10082.47562175,-0.482574462890625,0.835693359375,-0.26873779296875,10082.46681375,-2.251747112487173,-1.051411818640448,-0.9866374488494448,0.02410797215998173,-0.05850987508893013,0.01543290447443724,-0.00722348690032959,9.79304313659668e-05,0.01158776879310608,XArbitraryZVertical,0.5752493506657674,-0.1795030721431233,0.5853895302350139,-0.5423889823725226,-0.478768914937973,0.834176242351532,-0.2737336754798889,0,0,0,-1,-1,10078.943875375,unknown,2,2025-04-20T23:15:47.951+03:00,2025-04-20T21:57:49.637+03:00,29,4.348656,0,0,23.86625,0,0,2025-04-20T22:59:32.906+03:00,766872950.634814,0,-0.8999996,99.74757,1,0.95,2025-04-20T23:15:47.660+03:00,101,1.683333333333333,2025-04-19T12:19:17.059+03:00,0.05691595998002078,0
2025-04-20T23:15:51.497+03:00,1745180151.14359,40.985586866833,29.13735278228028,126.3665,-1,-1,-1,-1,30,22.26780044147412,-9999,10082.48569875,-0.4816741943359375,0.8355712890625,-0.277252197265625,10082.47688975,-2.251167192157414,-1.051460624862018,-0.9866780595486725,0.03132487460970879,-0.04549207910895348,0.0179770216345787,-0.004126816987991333,-0.0003822445869445801,0.01369902491569519,XArbitraryZVertical,0.5753179712370701,-0.1793390944110921,0.5852067748450699,-0.5425675705817603,-0.4787527918815613,0.8341986536979675,-0.2736934423446655,0,0,0,-1,-1,10078.943875375,unknown,2,2025-04-20T23:15:47.951+03:00,2025-04-20T21:57:49.637+03:00,29,4.348656,0,0,23.86625,0,0,2025-04-20T22:59:32.906+03:00,766872950.634814,0,-0.8999996,99.74757,1,0.95,2025-04-20T23:15:47.660+03:00,101,1.683333333333333,2025-04-19T12:19:17.059+03:00,0.05691595998002078,0
2025-04-20T23:15:51.507+03:00,1745180151.14359,40.985586866833,29.13735278228028,126.3665,-1,-1,-1,-1,30,22.26780044147412,-9999,10082.49577475,-0.4790802001953125,0.83160400390625,-0.26361083984375,10082.48696675,-2.250427529805977,-1.051259763051586,-0.9866505698026494,0.04586666449904442,-0.03945482894778252,0.0126144140958786,-0.003566771745681763,0.002547323703765869,-0.002657681703567505,XArbitraryZVertical,0.5753239324958241,-0.1791699555355201,0.5850715756950972,-0.5427629222584613,-0.4787177443504333,0.8341835141181946,-0.2738009989261627,0,0,0,-1,-1,10078.943875375,unknown,2,2025-04-20T23:15:47.951+03:00,2025-04-20T21:57:49.637+03:00,29,4.348656,0,0,23.86625,0,0,2025-04-20T22:59:32.906+03:00,766872950.634814,0,-0.8999996,99.74757,1,0.95,2025-04-20T23:15:47.660+03:00,101,1.683333333333333,2025-04-19T12:19:17.059+03:00,0.05691595998002078,0
2025-04-20T23:15:51.518+03:00,1745180151.14359,40.985586866833,29.13735278228028,126.3665,-1,-1,-1,-1,30,22.26780044147412,-9999,10082.50585075,-0.475494384765625,0.8291168212890625,-0.25933837890625,10082.49704275,-2.249576435528735,-1.050936868840684,-0.9865029457823639,0.04865232855081558,-0.03438496962189674,0.01099973917007446,-0.001778244972229004,-0.001857280731201172,0.002608776092529297,XArbitraryZVertical,0.5752972432930356,-0.1789544354461791,0.5849748501486699,-0.5429666067833809,-0.4787362813949585,0.8341020941734314,-0.274016797542572,0,0,0,-1,-1,10078.943875375,unknown,2,2025-04-20T23:15:47.951+03:00,2025-04-20T21:57:49.637+03:00,29,4.348656,0,0,23.86625,0,0,2025-04-20T22:59:32.906+03:00,766872950.634814,0,-0.8999996,99.74757,1,0.95,2025-04-20T23:15:47.660+03:00,101,1.683333333333333,2025-04-19T12:19:17.059+03:00,0.05691595998002078,0
2025-04-20T23:15:51.528+03:00,1745180151.14359,40.985586866833,29.13735278228028,126.3665,-1,-1,-1,-1,30,22.26780044147412,-9999,10082.51592775,-0.4761962890625,0.8238677978515625,-0.2599334716796875,10082.50711875,-2.248815843517597,-1.050673169356707,-0.9863910663851349,0.03462193161249161,-0.04250155389308929,0.01243248581886292,0.001846790313720703,-0.003168880939483643,0.01410335302352905,XArbitraryZVertical,0.5752817290726363,-0.1787630724411609,0.5848755118124347,-0.5431530628365112,-0.4787449836730957,0.8340403437614441,-0.2741893827915192,0,0,0,-1,-1,10078.943875375,unknown,2,2025-04-20T23:15:47.951+03:00,2025-04-20T21:57:49.637+03:00,29,4.348656,0,0,23.86625,0,0,2025-04-20T22:59:32.906+03:00,766872950.634814,0,-0.8999996,99.74757,1,0.95,2025-04-20T23:15:47.660+03:00,101,1.683333333333333,2025-04-19T12:19:17.059+03:00,0.05691595998002078,0
2025-04-20T23:15:51.538+03:00,1745180151.14359,40.985586866833,29.13735278228028,126.3665,-1,-1,-1,-1,30,22.26780044147412,-9999,10082.52600375,-0.4791412353515625,0.82861328125,-0.265380859375,10082.51719575,-2.248244074034299,-1.050604354298589,-0.986366374475075,0.02412987686693668,-0.04376974701881409,0.01116748433560133,0.003112256526947021,-0.007595539093017578,0.01449748873710632,XArbitraryZVertical,0.5753112766445249,-0.178607562450656,0.5847468902266146,-0.5433113536430924,-0.4787439405918121,0.8340267539024353,-0.2742325365543365,0,0,0,-1,-1,10078.943875375,unknown,2,2025-04-20T23:15:47.951+03:00,2025-04-20T21:57:49.637+03:00,29,4.348656,0,0,23.86625,0,0,2025-04-20T22:59:32.906+03:00,766872950.634814,0,-0.8999996,99.74757,1,0.95,2025-04-20T23:15:47.660+03:00,101,1.683333333333333,2025-04-19T12:19:17.059+03:00,0.05691595998002078,0
2025-04-20T23:15:51.548+03:00,1745180151.14359,40.985586866833,29.13735278228028,126.3665,-1,-1,-1,-1,30,22.26780044147412,-9999,10082.53607975,-0.4786529541015625,0.83343505859375,-0.2704620361328125,10082.52727175,-2.247814270970625,-1.050711724130143,-0.9863421298766829,0.01909663528203964,-0.04884293675422668,0.004821904934942722,0.001419812440872192,-0.008970677852630615,0.01172488927841187,XArbitraryZVertical,0.5753796222818802,-0.1784451283755004,0.5846060951037896,-0.5434439370262537,-0.4787910282611847,0.8340133428573608,-0.2741912603378296,0,0,0,-1,-1,10078.943875375,unknown,2,2025-04-20T23:15:47.951+03:00,2025-04-20T21:57:49.637+03:00,29,4.348656,0,0,23.86625,0,0,2025-04-20T22:59:32.906+03:00,766872950.634814,0,-0.8999996,99.74757,1,0.95,2025-04-20T23:15:47.660+03:00,101,1.683333333333333,2025-04-19T12:19:17.059+03:00,0.05691595998002078,0
2025-04-20T23:15:51.558+03:00,1745180151.14359,40.985586866833,29.13735278228028,126.3665,-1,-1,-1,-1,30,22.26780044147412,-9999,10082.54615675,-0.474822998046875,0.8299407958984375,-0.2746734619140625,10082.53734775,-2.247581244186999,-1.051054491792539,-0.9863001040694822,0.01168985292315483,-0.05748968943953514,-0.0004141364188399166,-0.001080214977264404,-0.002309918403625488,0.006252884864807129,XArbitraryZVertical,0.5754981510940872,-0.1782683031855698,0.5844559835086749,-0.5435379865754107,-0.4789154827594757,0.8339901566505432,-0.2740445733070374,0,0,0,-1,-1,10078.943875375,unknown,2,2025-04-20T23:15:47.951+03:00,2025-04-20T21:57:49.637+03:00,29,4.348656,0,0,23.86625,0,0,2025-04-20T22:59:32.906+03:00,766872950.634814,0,-0.8999996,99.74757,1,0.95,2025-04-20T23:15:47.660+03:00,101,1.683333333333333,2025-04-19T12:19:17.059+03:00,0.05691595998002078,0
2025-04-20T23:15:51.568+03:00,1745180151.14359,40.985586866833,29.13735278228028,126.3665,-1,-1,-1,-1,30,22.26780044147412,-9999,10082.55623275,-0.4751129150390625,0.827880859375,-0.2742462158203125,10082.54742475,-2.247510061994389,-1.051597392987401,-0.9861968704437496,0.01024735067039728,-0.06019772589206696,-0.01106564886868,0.002332121133804321,-0.00170367956161499,0.0008474588394165039,XArbitraryZVertical,0.5756572003855088,-0.1780595834633088,0.5843091862034409,-0.5435956485220435,-0.4791387617588043,0.8339331746101379,-0.2738271355628967,0,0,0,-1,-1,10078.943875375,unknown,2,2025-04-20T23:15:47.951+03:00,2025-04-20T21:57:49.637+03:00,29,4.348656,0,0,23.86625,0,0,2025-04-20T22:59:32.906+03:00,766872950.634814,0,-0.8999996,99.74757,1,0.95,2025-04-20T23:15:47.660+03:00,101,1.683333333333333,2025-04-19T12:19:17.059+03:00,0.05691595998002078,0
2025-04-20T23:15:51.578+03:00,1745180151.14359,40.985586866833,29.13735278228028,126.3665,-1,-1,-1,-1,30,22.26780044147412,-9999,10082.56630875,-0.4734649658203125,0.8270721435546875,-0.2726898193359375,10082.55750075,-2.24754196381706,-1.05229388547708,-0.9860387102603509,0.004275478422641754,-0.06632885336875916,-0.01431417278945446,0.004163265228271484,-0.005919277667999268,-0.001755475997924805,XArbitraryZVertical,0.5758487090978102,-0.1778169604212107,0.5841617378693962,-0.5436307890068489,-0.4794440269470215,0.8338459134101868,-0.2735587954521179,0,0,0,-1,-1,10078.943875375,unknown,2,2025-04-20T23:15:47.951+03:00,2025-04-20T21:57:49.637+03:00,29,4.348656,0,0,23.86625,0,0,2025-04-20T22:59:32.906+03:00,766872950.634814,0,-0.8999996,99.74757,1,0.95,2025-04-20T23:15:47.660+03:00,101,1.683333333333333,2025-04-19T12:19:17.059+03:00,0.05691595998002078,0
2025-04-20T23:15:51.589+03:00,1745180151.14359,40.985586866833,29.13735278228028,126.3665,-1,-1,-1,-1,30,22.26780044147412,-9999,10082.57638575,-0.4776458740234375,0.8256072998046875,-0.2703094482421875,10082.56757675,-2.247643976393933,-1.053018415009524,-0.9859408528539837,-0.006152661517262459,-0.06213703379034996,-0.008204614743590355,0.005790263414382935,-0.005697429180145264,-0.0003840923309326172,XArbitraryZVertical,0.576045618035431,-0.1776107593297502,0.5840082365373001,-0.5436545058911978,-0.4797129929065704,0.8337919116020203,-0.2732517421245575,0,0,0,-1,-1,10078.943875375,unknown,2,2025-04-20T23:15:47.951+03:00,2025-04-20T21:57:49.637+03:00,29,4.348656,0,0,23.86625,0,0,2025-04-20T22:59:32.906+03:00,766872950.634814,0,-0.8999996,99.74757,1,0.95,2025-04-20T23:15:47.660+03:00,101,1.683333333333333,2025-04-19T12:19:17.059+03:00,0.05691595998002078,0
2025-04-20T23:15:51.602+03:00,1745180151.14359,40.985586866833,29.13735278228028,126.3665,-1,-1,-1,-1,30,22.26780044147412,-9999,10082.58646175,-0.4793853759765625,0.829742431640625,-0.2686004638671875,10082.57765375,-2.247826975085969,-1.053800745416841,-0.9859371978448502,-0.01216314919292927,-0.06115379557013512,-0.001976280007511377,0.004663854837417603,-0.0072975754737854,0.001927614212036133,XArbitraryZVertical,0.5762575671662529,-0.177449346112793,0.5838336767851832,-0.5436701345494862,-0.4799293279647827,0.8337898850440979,-0.2728779017925262,0,0,0,-1,-1,10078.943875375,unknown,2,2025-04-20T23:15:47.951+03:00,2025-04-20T21:57:49.637+03:00,29,4.348656,0,0,23.86625,0,0,2025-04-20T22:59:32.906+03:00,766872950.634814,0,-0.8999996,99.74757,1,0.95,2025-04-20T23:15:47.660+03:00,101,1.683333333333333,2025-04-19T12:19:17.059+03:00,0.05691595998002078,0
2025-04-20T23:15:51.608+03:00,1745180151.14359,40.985586866833,29.13735278228028,126.3665,-1,-1,-1,-1,30,22.26780044147412,-9999,10082.59653775,-0.481109619140625,0.837982177734375,-0.2687835693359375,10082.58772975,-2.248047917048963,-1.054605037972678,-0.9860211339518811,-0.01158784050494432,-0.0598762109875679,0.004795638844370842,0.001160085201263428,-0.006718337535858154,0.002376675605773926,XArbitraryZVertical,0.5764775241155297,-0.1773275465348112,0.5836383818057411,-0.5436863124329729,-0.4800876975059509,0.8338361978530884,-0.2724572122097015,0,0,0,-1,-1,10078.943875375,unknown,2,2025-04-20T23:15:47.951+03:00,2025-04-20T21:57:49.637+03:00,29,4.348656,0,0,23.86625,0,0,2025-04-20T22:59:32.906+03:00,766872950.634814,0,-0.8999996,99.74757,1,0.95,2025-04-20T23:15:47.660+03:00,101,1.683333333333333,2025-04-19T12:19:17.059+03:00,0.05691595998002078,0
2025-04-20T23:15:51.632+03:00,1745180151.14359,40.985586866833,29.13735278228028,126.3665,-1,-1,-1,-1,30,22.26780044147412,-9999,10082.60661475,-0.48797607421875,0.8453826904296875,-0.266815185546875,10082.59780575,-2.248117684848859,-1.055230145306785,-0.98614231393995,-0.0004347878857515752,-0.05310459434986115,0.01136246137320995,0.0004336237907409668,-1.031160354614258e-05,0.002911686897277832,XArbitraryZVertical,0.5766606437817852,-0.1772255806267268,0.583443135779014,-0.5437348635027217,-0.4801699221134186,0.8339030742645264,-0.2721071839332581,0,0,0,-1,-1,10078.943875375,unknown,2,2025-04-20T23:15:47.951+03:00,2025-04-20T21:57:49.637+03:00,29,4.348656,0,0,23.86625,0,0,2025-04-20T22:59:32.906+03:00,766872950.634814,0,-0.8999996,99.74757,1,0.95,2025-04-20T23:15:47.660+03:00,101,1.683333333333333,2025-04-19T12:19:17.059+03:00,0.05691595998002078,0
2025-04-20T23:15:51.633+03:00,1745180151.14359,40.985586866833,29.13735278228028,126.3665,-1,-1,-1,-1,30,22.26780044147412,-9999,10082.61669075,-0.488067626953125,0.8455810546875,-0.2614898681640625,10082.60788275,-2.247858475510987,-1.055461171603609,-0.9862110562251618,0.01950103603303432,-0.03674779087305069,0.01248255372047424,-0.003688395023345947,0.007825255393981934,0.00303196907043457,XArbitraryZVertical,0.5767548905365021,-0.1771150920364547,0.5832868747967418,-0.5438386572727187,-0.4801830351352692,0.8339410424232483,-0.2719680666923523,0,0,0,-1,-1,10078.943875375,unknown,2,2025-04-20T23:15:47.951+03:00,2025-04-20T21:57:49.637+03:00,29,4.348656,0,0,23.86625,0,0,2025-04-20T22:59:32.906+03:00,766872950.634814,0,-0.8999996,99.74757,1,0.95,2025-04-20T23:15:47.660+03:00,101,1.683333333333333,2025-04-19T12:19:17.059+03:00,0.05691595998002078,0
2025-04-20T23:15:51.639+03:00,1745180151.14359,40.985586866833,29.13735278228028,126.3665,-1,-1,-1,-1,30,22.26780044147412,-9999,10082.62676675,-0.4852142333984375,0.84490966796875,-0.261322021484375,10082.61795875,-2.247312491151845,-1.055306155489638,-0.9861930628148664,0.03412818163633347,-0.02274329401552677,0.01390334963798523,-0.008676707744598389,0.01212286949157715,0.008912086486816406,XArbitraryZVertical,0.5767570044840181,-0.1769927395251452,0.5831880712967615,-0.5439821137677535,-0.4801538288593292,0.8339310884475708,-0.2720498442649841,0,0,0,-1,-1,10078.943875375,unknown,2,2025-04-20T23:15:47.951+03:00,2025-04-20T21:57:49.637+03:00,29,4.348656,0,0,23.86625,0,0,2025-04-20T22:59:32.906+03:00,766872950.634814,0,-0.8999996,99.74757,1,0.95,2025-04-20T23:15:47.660+03:00,101,1.683333333333333,2025-04-19T12:19:17.059+03:00,0.05691595998002078,0
2025-04-20T23:15:51.649+03:00,1745180151.14359,40.985586866833,29.13735278228028,126.3665,-1,-1,-1,-1,30,22.26780044147412,-9999,10082.63684375,-0.4857940673828125,0.8451690673828125,-0.26348876953125,10082.62803475,-2.246476084842497,-1.054748262356635,-0.9861282172822573,0.04936179518699646,-0.006136019714176655,0.01671381667256355,-0.006553798913955688,0.01093798875808716,0.01138859987258911,XArbitraryZVertical,0.5766646236393118,-0.176877754797556,0.5831395498095905,-0.5441693970403472,-0.4800489842891693,0.8338953256607056,-0.2723443508148193,0,0,0,-1,-1,10078.943875375,unknown,2,2025-04-20T23:15:47.951+03:00,2025-04-20T21:57:49.637+03:00,29,4.348656,0,0,23.86625,0,0,2025-04-20T22:59:32.906+03:00,766872950.634814,0,-0.8999996,99.74757,1,0.95,2025-04-20T23:15:47.660+03:00,101,1.683333333333333,2025-04-19T12:19:17.059+03:00,0.05691595998002078,0
2025-04-20T23:15:51.659+03:00,1745180151.14359,40.985586866833,29.13735278228028,126.3665,-1,-1,-1,-1,30,22.26780044147412,-9999,10082.64691975,-0.484405517578125,0.8490447998046875,-0.263519287109375,10082.63811175,-2.245343038122371,-1.053779453820809,-0.9859461532627599,0.0741981714963913,0.008694324642419815,0.01586293801665306,-0.005327790975570679,0.01106899976730347,0.01018908619880676,XArbitraryZVertical,0.5764718328056535,-0.1767429003205938,0.5831615445196837,-0.5443938883273043,-0.479916900396347,0.8337948322296143,-0.272884339094162,0,0,0,-1,-1,10078.943875375,unknown,2,2025-04-20T23:15:47.951+03:00,2025-04-20T21:57:49.637+03:00,29,4.348656,0,0,23.86625,0,0,2025-04-20T22:59:32.906+03:00,766872950.634814,0,-0.8999996,99.74757,1,0.95,2025-04-20T23:15:47.660+03:00,101,1.683333333333333,2025-04-19T12:19:17.059+03:00,0.05691595998002078,0
2025-04-20T23:15:51.669+03:00,1745180151.14359,40.985586866833,29.13735278228028,126.3665,-1,-1,-1,-1,30,22.26780044147412,-9999,10082.65699575,-0.483917236328125,0.8455352783203125,-0.26507568359375,10082.64818775,-2.243866574101676,-1.052404153882436,-0.9856425401565858,0.09658896178007126,0.01918265223503113,0.01036151219159365,-0.005178540945053101,0.01338815689086914,0.009875655174255371,XArbitraryZVertical,0.5761836036716483,-0.1765720466963025,0.5832409646960788,-0.5446693115139081,-0.479761004447937,0.8336271643638611,-0.2736695408821106,0,0,0,-1,-1,10078.943875375,unknown,2,2025-04-20T23:15:47.951+03:00,2025-04-20T21:57:49.637+03:00,29,4.348656,0,0,23.86625,0,0,2025-04-20T22:59:32.906+03:00,766872950.634814,0,-0.8999996,99.74757,1,0.95,2025-04-20T23:15:47.660+03:00,101,1.683333333333333,2025-04-19T12:19:17.059+03:00,0.05691595998002078,0
2025-04-20T23:15:51.679+03:00,1745180151.14359,40.985586866833,29.13735278228028,126.3665,-1,-1,-1,-1,30,22.26780044147412,-9999,10082.66707275,-0.486907958984375,0.8410797119140625,-0.267913818359375,10082.65826375,-2.242160237370585,-1.050713848303911,-0.9852397101183297,0.1059859246015549,0.03164411336183548,0.01540740393102169,-0.005091100931167603,0.01557904481887817,0.01077672839164734,XArbitraryZVertical,0.575817602372001,-0.1763820963387184,0.5833757930088995,-0.5449733562615955,-0.4795890152454376,0.8334046006202698,-0.2746468782424927,0,0,0,-1,-1,10078.943875375,unknown,2,2025-04-20T23:15:47.951+03:00,2025-04-20T21:57:49.637+03:00,29,4.348656,0,0,23.86625,0,0,2025-04-20T22:59:32.906+03:00,766872950.634814,0,-0.8999996,99.74757,1,0.95,2025-04-20T23:15:47.660+03:00,101,1.683333333333333,2025-04-19T12:19:17.059+03:00,0.05691595998002078,0
2025-04-20T23:15:51.689+03:00,1745180151.14359,40.985586866833,29.13735278228028,126.3665,-1,-1,-1,-1,30,22.26780044147412,-9999,10082.67714875,-0.4925537109375,0.8362884521484375,-0.2682342529296875,10082.66834075,-2.240180446225646,-1.048678593466079,-0.9848117776557176,0.1250184774398804,0.0449972078204155,0.0215944591909647,-0.005448758602142334,0.009895265102386475,0.008145928382873535,XArbitraryZVertical,0.5753729996097995,-0.1761980705954175,0.5835419041066671,-0.5453245978431518,-0.4793382287025452,0.8331680297851562,-0.2758002877235413,0,0,0,-1,-1,10078.943875375,unknown,2,2025-04-20T23:15:47.951+03:00,2025-04-20T21:57:49.637+03:00,29,4.348656,0,0,23.86625,0,0,2025-04-20T22:59:32.906+03:00,766872950.634814,0,-0.8999996,99.74757,1,0.95,2025-04-20T23:15:47.660+03:00,101,1.683333333333333,2025-04-19T12:19:17.059+03:00,0.05691595998002078,0
2025-04-20T23:15:51.699+03:00,1745180151.14359,40.985586866833,29.13735278228028,126.3665,-1,-1,-1,-1,30,22.26780044147412,-9999,10082.68722475,-0.4930877685546875,0.8380889892578125,-0.270904541015625,10082.67841675,-2.237803583319036,-1.046214360357447,-0.9843329462740261,0.1497589647769928,0.0541241243481636,0.02551836147904396,-0.0112777054309845,0.005689382553100586,0.008824169635772705,XArbitraryZVertical,0.5748344035125769,-0.1759976505030945,0.5837363943447911,-0.5457490400681464,-0.4790024161338806,0.8329030871391296,-0.2771804630756378,0,0,0,-1,-1,10078.943875375,unknown,2,2025-04-20T23:15:47.951+03:00,2025-04-20T21:57:49.637+03:00,29,4.348656,0,0,23.86625,0,0,2025-04-20T22:59:32.906+03:00,766872950.634814,0,-0.8999996,99.74757,1,0.95,2025-04-20T23:15:47.660+03:00,101,1.683333333333333,2025-04-19T12:19:17.059+03:00,0.05691595998002078,0
2025-04-20T23:15:51.709+03:00,1745180151.14359,40.985586866833,29.13735278228028,126.3665,-1,-1,-1,-1,30,22.26780044147412,-9999,10082.69730175,-0.4880218505859375,0.841827392578125,-0.27459716796875,10082.68849275,-2.235036981901849,-1.043358920483394,-0.9837206363783505,0.1758617460727692,0.05939005687832832,0.0246154498308897,-0.01561319828033447,0.002915501594543457,0.009806543588638306,XArbitraryZVertical,0.5742067576177617,-0.175740648820389,0.5839728611228863,-0.5462392669432402,-0.4786494374275208,0.832564115524292,-0.2788036465644836,0,0,0,-1,-1,10078.943875375,unknown,2,2025-04-20T23:15:47.951+03:00,2025-04-20T21:57:49.637+03:00,29,4.348656,0,0,23.86625,0,0,2025-04-20T22:59:32.906+03:00,766872950.634814,0,-0.8999996,99.74757,1,0.95,2025-04-20T23:15:47.660+03:00,101,1.683333333333333,2025-04-19T12:19:17.059+03:00,0.05691595998002078,0
2025-04-20T23:15:51.719+03:00,1745180151.14359,40.985586866833,29.13735278228028,126.3665,-1,-1,-1,-1,30,22.26780044147412,-9999,10082.70737775,-0.4835052490234375,0.839599609375,-0.277862548828125,10082.69856975,-2.231991810853768,-1.040288684198606,-0.9830196213587583,0.1908193975687027,0.05370021611452103,0.02705144323408604,-0.01209238171577454,0.007927477359771729,0.007160276174545288,XArbitraryZVertical,0.5735339011277063,-0.1754288459577711,0.5842181829956444,-0.5467838381825405,-0.4782945513725281,0.8321755528450012,-0.2805671691894531,0,0,0,-1,-1,10078.943875375,unknown,2,2025-04-20T23:15:47.951+03:00,2025-04-20T21:57:49.637+03:00,29,4.348656,0,0,23.86625,0,0,2025-04-20T22:59:32.906+03:00,766872950.634814,0,-0.8999996,99.74757,1,0.95,2025-04-20T23:15:47.660+03:00,101,1.683333333333333,2025-04-19T12:19:17.059+03:00,0.05691595998002078,0
2025-04-20T23:15:51.729+03:00,1745180151.14359,40.985586866833,29.13735278228028,126.3665,-1,-1,-1,-1,30,22.26780044147412,-9999,10082.71745375,-0.4822845458984375,0.83868408203125,-0.2836151123046875,10082.70864575,-2.228780690461752,-1.0371022604995,-0.9822980440225064,0.199125662446022,0.0530790314078331,0.02812875807285309,-0.006933033466339111,0.009472250938415527,0.006790995597839355,XArbitraryZVertical,0.5728386707646843,-0.1750949915257071,0.5844552119140138,-0.5473660473879364,-0.4779149889945984,0.8317752480506897,-0.282395213842392,0,0,0,-1,-1,10078.943875375,unknown,2,2025-04-20T23:15:47.951+03:00,2025-04-20T21:57:49.637+03:00,29,4.348656,0,0,23.86625,0,0,2025-04-20T22:59:32.906+03:00,766872950.634814,0,-0.8999996,99.74757,1,0.95,2025-04-20T23:15:47.660+03:00,101,1.683333333333333,2025-04-19T12:19:17.059+03:00,0.05691595998002078,0
2025-04-20T23:15:51.739+03:00,1745180151.14359,40.985586866833,29.13735278228028,126.3665,-1,-1,-1,-1,30,22.26780044147412,-9999,10082.72753075,-0.4784088134765625,0.8410186767578125,-0.282318115234375,10082.71872175,-2.225278171833085,-1.033681066599999,-0.9814502883660932,0.2249713689088821,0.04883848130702972,0.0251886285841465,-0.004412353038787842,0.007257580757141113,0.003871768712997437,XArbitraryZVertical,0.5720902884122239,-0.1746942092422768,0.5847128108502855,-0.5480013107809186,-0.4775517284870148,0.8313043117523193,-0.2843892574310303,0,0,0,-1,-1,10078.943875375,unknown,2,2025-04-20T23:15:47.951+03:00,2025-04-20T21:57:49.637+03:00,29,4.348656,0,0,23.86625,0,0,2025-04-20T22:59:32.906+03:00,766872950.634814,0,-0.8999996,99.74757,1,0.95,2025-04-20T23:15:47.660+03:00,101,1.683333333333333,2025-04-19T12:19:17.059+03:00,0.05691595998002078,0
2025-04-20T23:15:51.750+03:00,1745180151.14359,40.985586866833,29.13735278228028,126.3665,-1,-1,-1,-1,30,22.26780044147412,-9999,10082.73760675,-0.474639892578125,0.8402557373046875,-0.2884368896484375,10082.72879875,-2.2215576854784,-1.030115950175764,-0.9804814408091905,0.2367025315761566,0.05063365399837494,0.01820472069084644,-0.003487765789031982,0.00901716947555542,0.003087729215621948,XArbitraryZVertical,0.5713085220291211,-0.1742250878044348,0.5849831748321348,-0.5486772325691792,-0.4772250652313232,0.830765426158905,-0.2865043878555298,0,0,0,-1,-1,10078.943875375,unknown,2,2025-04-20T23:15:47.951+03:00,2025-04-20T21:57:49.637+03:00,29,4.348656,0,0,23.86625,0,0,2025-04-20T22:59:32.906+03:00,766872950.634814,0,-0.8999996,99.74757,1,0.95,2025-04-20T23:15:47.660+03:00,101,1.683333333333333,2025-04-19T12:19:17.059+03:00,0.05691595998002078,0
2025-04-20T23:15:51.760+03:00,1745180151.14359,40.985586866833,29.13735278228028,126.3665,-1,-1,-1,-1,30,22.26780044147412,-9999,10082.74768275,-0.4730377197265625,0.8311920166015625,-0.290069580078125,10082.73887475,-2.21769054447219,-1.026407446552834,-0.9793539974838408,0.252813845872879,0.05372717976570129,0.008396033197641373,0.0006115138530731201,0.01152211427688599,0.004135012626647949,XArbitraryZVertical,0.5704840568202237,-0.1736932650545047,0.5852959648519227,-0.5493698004778587,-0.4769603610038757,0.8301373720169067,-0.2887571752071381,0,0,0,-1,-1,10078.943875375,unknown,2,2025-04-20T23:15:47.951+03:00,2025-04-20T21:57:49.637+03:00,29,4.348656,0,0,23.86625,0,0,2025-04-20T22:59:32.906+03:00,766872950.634814,0,-0.8999996,99.74757,1,0.95,2025-04-20T23:15:47.660+03:00,101,1.683333333333333,2025-04-19T12:19:17.059+03:00,0.05691595998002078,0
2025-04-20T23:15:51.770+03:00,1745180151.14359,40.985586866833,29.13735278228028,126.3665,-1,-1,-1,-1,30,22.26780044147412,-9999,10082.75775975,-0.4722442626953125,0.822845458984375,-0.2891387939453125,10082.74895075,-2.213772237077727,-1.022588538584887,-0.9780859283539116,0.2560095191001892,0.063230000436306,0.002794007305055857,0.002753078937530518,0.006980717182159424,0.0008111894130706787,XArbitraryZVertical,0.5696187298250119,-0.1731244662234233,0.5856623297221374,-0.550056274043238,-0.4767520725727081,0.8294296860694885,-0.2911248505115509,0,0,0,-1,-1,10078.943875375,unknown,2,2025-04-20T23:15:47.951+03:00,2025-04-20T21:57:49.637+03:00,29,4.348656,0,0,23.86625,0,0,2025-04-20T22:59:32.906+03:00,766872950.634814,0,-0.8999996,99.74757,1,0.95,2025-04-20T23:15:47.660+03:00,101,1.683333333333333,2025-04-19T12:19:17.059+03:00,0.05691595998002078,0
2025-04-20T23:15:51.780+03:00,1745180151.14359,40.985586866833,29.13735278228028,126.3665,-1,-1,-1,-1,30,22.26780044147412,-9999,10082.76783575,-0.473724365234375,0.8252410888671875,-0.2930145263671875,10082.75902775,-2.209893148813744,-1.018745148770531,-0.976737137257038,0.2621811032295227,0.06816910207271576,-0.002623927546665072,0.004322320222854614,-0.003144562244415283,0.003349900245666504,XArbitraryZVertical,0.5687333975687205,-0.172544403572647,0.5860660001567383,-0.550724338090936,-0.4765818119049072,0.8286754488945007,-0.2935414910316467,0,0,0,-1,-1,10078.943875375,unknown,2,2025-04-20T23:15:47.951+03:00,2025-04-20T21:57:49.637+03:00,29,4.348656,0,0,23.86625,0,0,2025-04-20T22:59:32.906+03:00,766872950.634814,0,-0.8999996,99.74757,1,0.95,2025-04-20T23:15:47.660+03:00,101,1.683333333333333,2025-04-19T12:19:17.059+03:00,0.05691595998002078,0
2025-04-20T23:15:51.790+03:00,1745180151.14359,40.985586866833,29.13735278228028,126.3665,-1,-1,-1,-1,30,22.26780044147412,-9999,10082.77791175,-0.47479248046875,0.826416015625,-0.29522705078125,10082.76910375,-2.205962850379237,-1.014829104372921,-0.9753289178532408,0.2666091620922089,0.07022106647491455,0.001026999903842807,0.003412127494812012,-0.003896713256835938,0.005661696195602417,XArbitraryZVertical,0.5678229638306463,-0.1719492304421726,0.5864894922280078,-0.551398611686694,-0.4764192700386047,0.8278864026069641,-0.2960210740566254,0,0,0,-1,-1,10078.943875375,unknown,2,2025-04-20T23:15:47.951+03:00,2025-04-20T21:57:49.637+03:00,29,4.348656,0,0,23.86625,0,0,2025-04-20T22:59:32.906+03:00,766872950.634814,0,-0.8999996,99.74757,1,0.95,2025-04-20T23:15:47.660+03:00,101,1.683333333333333,2025-04-19T12:19:17.059+03:00,0.05691595998002078,0
2025-04-20T23:15:51.800+03:00,1745180151.14359,40.985586866833,29.13735278228028,126.3665,-1,-1,-1,-1,30,22.26780044147412,-9999,10082.78798875,-0.4738311767578125,0.8272552490234375,-0.299591064453125,10082.77917975,-2.202003354890147,-1.0108821013578,-0.9739249865551117,0.2606631219387054,0.07132521271705627,0.001964432653039694,0.001668006181716919,-0.0008500814437866211,0.004281133413314819,XArbitraryZVertical,0.5669021010637253,-0.171358908676409,0.5869092850535059,-0.5520828697586941,-0.476231575012207,0.8270981311798096,-0.2985162734985352,0,0,0,-1,-1,10078.943875375,unknown,2,2025-04-20T23:15:47.951+03:00,2025-04-20T21:57:49.637+03:00,29,4.348656,0,0,23.86625,0,0,2025-04-20T22:59:32.906+03:00,766872950.634814,0,-0.8999996,99.74757,1,0.95,2025-04-20T23:15:47.660+03:00,101,1.683333333333333,2025-04-19T12:19:17.059+03:00,0.05691595998002078,0
2025-04-20T23:15:51.810+03:00,1745180151.14359,40.985586866833,29.13735278228028,126.3665,-1,-1,-1,-1,30,22.26780044147412,-9999,10082.79806475,-0.475006103515625,0.8291015625,-0.3002777099609375,10082.78925675,-2.198050711281546,-1.006980004807995,-0.9726199076859463,0.2597857415676117,0.06316808611154556,0.01409293431788683,0.00215911865234375,0.0002045631408691406,0.002929538488388062,XArbitraryZVertical,0.5659971818018183,-0.1708003688720561,0.5872871592044984,-0.5527820689982698,-0.475974977016449,0.8263639211654663,-0.3009488582611084,0,0,0,-1,-1,10078.943875375,unknown,2,2025-04-20T23:15:47.951+03:00,2025-04-20T21:57:49.637+03:00,29,4.348656,0,0,23.86625,0,0,2025-04-20T22:59:32.906+03:00,766872950.634814,0,-0.8999996,99.74757,1,0.95,2025-04-20T23:15:47.660+03:00,101,1.683333333333333,2025-04-19T12:19:17.059+03:00,0.05691595998002078,0
2025-04-20T23:15:51.820+03:00,1745180151.14359,40.985586866833,29.13735278228028,126.3665,-1,-1,-1,-1,30,22.26780044147412,-9999,10082.80814075,-0.4727935791015625,0.831817626953125,-0.3014678955078125,10082.79933275,-2.194081403483751,-1.003132928793456,-0.9713226848608147,0.2584288418292999,0.05530057474970818,0.01347747817635536,0.001291096210479736,0.002568542957305908,0.002740621566772461,XArbitraryZVertical,0.5651066023539707,-0.1702279032798936,0.5876395426852735,-0.5534950464286298,-0.4757173657417297,0.8256326913833618,-0.3033539652824402,0,0,0,-1,-1,10078.943875375,unknown,2,2025-04-20T23:15:47.951+03:00,2025-04-20T21:57:49.637+03:00,29,4.348656,0,0,23.86625,0,0,2025-04-20T22:59:32.906+03:00,766872950.634814,0,-0.8999996,99.74757,1,0.95,2025-04-20T23:15:47.660+03:00,101,1.683333333333333,2025-04-19T12:19:17.059+03:00,0.05691595998002078,0
2025-04-20T23:15:51.830+03:00,1745180151.14359,40.985586866833,29.13735278228028,126.3665,-1,-1,-1,-1,30,22.26780044147412,-9999,10082.81821775,-0.4684295654296875,0.8311004638671875,-0.300048828125,10082.80940875,-2.190053000763982,-0.9992936111897757,-0.970081602566814,0.2574656009674072,0.05216896533966064,0.01769725605845451,0.00121307373046875,0.005283474922180176,0.004355758428573608,XArbitraryZVertical,0.5642240331015461,-0.1696621255464566,0.587954034497034,-0.5542344364648754,-0.4754104018211365,0.8249318599700928,-0.3057320117950439,0,0,0,-1,-1,10078.943875375,unknown,2,2025-04-20T23:15:47.951+03:00,2025-04-20T21:57:49.637+03:00,29,4.348656,0,0,23.86625,0,0,2025-04-20T22:59:32.906+03:00,766872950.634814,0,-0.8999996,99.74757,1,0.95,2025-04-20T23:15:47.660+03:00,101,1.683333333333333,2025-04-19T12:19:17.059+03:00,0.05691595998002078,0
2025-04-20T23:15:51.840+03:00,1745180151.14359,40.985586866833,29.13735278228028,126.3665,-1,-1,-1,-1,30,22.26780044147412,-9999,10082.82829375,-0.463409423828125,0.8237457275390625,-0.3048248291015625,10082.81948575,-2.18609598586993,-0.9955602508373022,-0.9687812857315182,0.257741242647171,0.04638804122805595,0.009001769125461578,0.004965811967849731,0.009177684783935547,0.007383197546005249,XArbitraryZVertical,0.5633582053284191,-0.1690665598562832,0.5882718249014113,-0.5549594991345869,-0.4751653373241425,0.8241961598396301,-0.3080880641937256,0,0,0,-1,-1,10078.943875375,unknown,2,2025-04-20T23:15:47.951+03:00,2025-04-20T21:57:49.637+03:00,29,4.348656,0,0,23.86625,0,0,2025-04-20T22:59:32.906+03:00,766872950.634814,0,-0.8999996,99.74757,1,0.95,2025-04-20T23:15:47.660+03:00,101,1.683333333333333,2025-04-19T12:19:17.059+03:00,0.05691595998002078,0
2025-04-20T23:15:51.850+03:00,1745180151.14359,40.985586866833,29.13735278228028,126.3665,-1,-1,-1,-1,30,22.26780044147412,-9999,10082.83836975,-0.464019775390625,0.819091796875,-0.3099822998046875,10082.82956175,-2.182166397671318,-0.9918383271398974,-0.9674958775989942,0.2578315138816833,0.051279466599226,0.01408867351710796,0.009875029325485229,0.004565834999084473,0.00820314884185791,XArbitraryZVertical,0.5624909291569121,-0.1684843598432617,0.5885866945793561,-0.5556820670547388,-0.4749018847942352,0.8234675526618958,-0.310433954000473,0,0,0,-1,-1,10078.943875375,unknown,2,2025-04-20T23:15:47.951+03:00,2025-04-20T21:57:49.637+03:00,29,4.348656,0,0,23.86625,0,0,2025-04-20T22:59:32.906+03:00,766872950.634814,0,-0.8999996,99.74757,1,0.95,2025-04-20T23:15:47.660+03:00,101,1.683333333333333,2025-04-19T12:19:17.059+03:00,0.05691595998002078,0
2025-04-20T23:15:51.860+03:00,1745180151.14359,40.985586866833,29.13735278228028,126.3665,-1,-1,-1,-1,30,22.26780044147412,-9999,10082.84844675,-0.4631500244140625,0.8191070556640625,-0.317657470703125,10082.83963775,-2.178337545646782,-0.9881204658289461,-0.9662131024363561,0.251135528087616,0.06394839286804199,0.007820123806595802,0.01153704524040222,-0.001877367496490479,0.005268067121505737,XArbitraryZVertical,0.5616130174155911,-0.1679334334366984,0.5889243205675463,-0.5563785797477058,-0.4746260046958923,0.8227390646934509,-0.3127783536911011,0,0,0,-1,-1,10078.943875375,unknown,2,2025-04-20T23:15:47.951+03:00,2025-04-20T21:57:49.637+03:00,29,4.348656,0,0,23.86625,0,0,2025-04-20T22:59:32.906+03:00,766872950.634814,0,-0.8999996,99.74757,1,0.95,2025-04-20T23:15:47.660+03:00,101,1.683333333333333,2025-04-19T12:19:17.059+03:00,0.05691595998002078,0
2025-04-20T23:15:51.871+03:00,1745180151.14359,40.985586866833,29.13735278228028,126.3665,-1,-1,-1,-1,30,22.26780044147412,-9999,10082.85852275,-0.4627532958984375,0.821197509765625,-0.331634521484375,10082.84971475,-2.174595564542954,-0.9843410069342364,-0.9648710413848486,0.2549724280834198,0.08020546287298203,0.002850965596735477,0.009775489568710327,-0.002761721611022949,0.001750051975250244,XArbitraryZVertical,0.560701107160307,-0.1674033169486027,0.5893168546585135,-0.5570421370480646,-0.4743598103523254,0.8219754695892334,-0.3151808083057404,0,0,0,-1,-1,10078.943875375,unknown,2,2025-04-20T23:15:47.951+03:00,2025-04-20T21:57:49.637+03:00,29,4.348656,0,0,23.86625,0,0,2025-04-20T22:59:32.906+03:00,766872950.634814,0,-0.8999996,99.74757,1,0.95,2025-04-20T23:15:47.660+03:00,101,1.683333333333333,2025-04-19T12:19:17.059+03:00,0.05691595998002078,0
2025-04-20T23:15:51.881+03:00,1745180151.14359,40.985586866833,29.13735278228028,126.3665,-1,-1,-1,-1,30,22.26780044147412,-9999,10082.86859875,-0.4639434814453125,0.827239990234375,-0.347442626953125,10082.85979075,-2.171028446049744,-0.9805261346291515,-0.9635294040240816,0.2309059500694275,0.09853413701057434,0.001576376846060157,0.0114995539188385,-0.001432359218597412,-0.005533725023269653,XArbitraryZVertical,0.5597605466989286,-0.1669351560876214,0.5897645771437975,-0.5576543093672518,-0.4740696549415588,0.8212106227874756,-0.3176015615463257,0,0,0,-1,-1,10078.943875375,unknown,2,2025-04-20T23:15:47.951+03:00,2025-04-20T21:57:49.637+03:00,29,4.348656,0,0,23.86625,0,0,2025-04-20T22:59:32.906+03:00,766872950.634814,0,-0.8999996,99.74757,1,0.95,2025-04-20T23:15:47.660+03:00,101,1.683333333333333,2025-04-19T12:19:17.059+03:00,0.05691595998002078,0
2025-04-20T23:15:51.891+03:00,1745180151.14359,40.985586866833,29.13735278228028,126.3665,-1,-1,-1,-1,30,22.26780044147412,-9999,10082.87867575,-0.4644012451171875,0.82769775390625,-0.3546295166015625,10082.86986675,-2.168038871146629,-0.9769822505884296,-0.9622910211867474,0.1886849999427795,0.1191038563847542,-0.01598557271063328,0.01052698493003845,0.002586185932159424,-0.01981210708618164,XArbitraryZVertical,0.5588572363422081,-0.1665963287730406,0.5902660972046203,-0.5581309443269792,-0.4737838208675385,0.8205033540725708,-0.319848507642746,0,0,0,-1,-1,10078.943875375,unknown,2,2025-04-20T23:15:47.951+03:00,2025-04-20T21:57:49.637+03:00,29,4.348656,0,0,23.86625,0,0,2025-04-20T22:59:32.906+03:00,766872950.634814,0,-0.8999996,99.74757,1,0.95,2025-04-20T23:15:47.660+03:00,101,1.683333333333333,2025-04-19T12:19:17.059+03:00,0.05691595998002078,0
2025-04-20T23:15:51.919+03:00,1745180151.14359,40.985586866833,29.13735278228028,126.3665,-1,-1,-1,-1,30,22.26780044147412,-9999,10082.88875175,-0.46282958984375,0.8124237060546875,-0.3622894287109375,10082.87994375,-2.166183684397152,-0.974231665521102,-0.9613152517693829,0.1039405539631844,0.1261969208717346,-0.02675672806799412,0.008201777935028076,0.01019388437271118,-0.03025227785110474,XArbitraryZVertical,0.5581141421774194,-0.1664589140736294,0.5907873803416231,-0.5583638578963784,-0.4735642969608307,0.8199451565742493,-0.321600079536438,0,0,0,-1,-1,10078.943875375,unknown,2,2025-04-20T23:15:47.951+03:00,2025-04-20T21:57:49.637+03:00,29,4.348656,0,0,23.86625,0,0,2025-04-20T22:59:32.906+03:00,766872950.634814,0,-0.8999996,99.74757,1,0.95,2025-04-20T23:15:47.660+03:00,101,1.683333333333333,2025-04-19T12:19:17.059+03:00,0.05691595998002078,0
2025-04-20T23:15:51.923+03:00,1745180151.14359,40.985586866833,29.13735278228028,126.3665,-1,-1,-1,-1,30,22.26780044147412,-9999,10082.89882775,-0.47991943359375,0.81689453125,-0.3745880126953125,10082.89001975,-2.165177047982457,-0.972161344414356,-0.9606153762049228,0.07803632318973541,0.1276982128620148,-0.02365064807236195,0.01103013753890991,0.0009664297103881836,-0.03473234176635742,XArbitraryZVertical,0.5575243251686069,-0.1664784346504224,0.5912780842703127,-0.5584278710252634,-0.4733714461326599,0.8195443153381348,-0.3229031264781952,0,0,0,-1,-1,10078.943875375,unknown,2,2025-04-20T23:15:47.951+03:00,2025-04-20T21:57:49.637+03:00,29,4.348656,0,0,23.86625,0,0,2025-04-20T22:59:32.906+03:00,766872950.634814,0,-0.8999996,99.74757,1,0.95,2025-04-20T23:15:47.660+03:00,101,1.683333333333333,2025-04-19T12:19:17.059+03:00,0.05691595998002078,0
2025-04-20T23:15:51.925+03:00,1745180151.14359,40.985586866833,29.13735278228028,126.3665,-1,-1,-1,-1,30,22.26780044147412,-9999,10082.90890475,-0.4906005859375,0.83026123046875,-0.385162353515625,10082.90009575,-2.164057943621009,-0.9699350949797,-0.9598212969925287,0.1245295181870461,0.1327310502529144,-0.03577841818332672,0.003125876188278198,-0.008420169353485107,-0.04377895593643188,XArbitraryZVertical,0.5568884124813188,-0.1664730630155064,0.591806232343155,-0.5585045936613441,-0.4731881320476532,0.8190890550613403,-0.3243240416049957,0,0,0,-1,-1,10078.943875375,unknown,2,2025-04-20T23:15:47.951+03:00,2025-04-20T21:57:49.637+03:00,29,4.348656,0,0,23.86625,0,0,2025-04-20T22:59:32.906+03:00,766872950.634814,0,-0.8999996,99.74757,1,0.95,2025-04-20T23:15:47.660+03:00,101,1.683333333333333,2025-04-19T12:19:17.059+03:00,0.05691595998002078,0
2025-04-20T23:15:51.931+03:00,1745180151.14359,40.985586866833,29.13735278228028,126.3665,-1,-1,-1,-1,30,22.26780044147412,-9999,10082.91898075,-0.4992828369140625,0.8438262939453125,-0.408233642578125,10082.91017275,-2.162281704333714,-0.9671218146665389,-0.958635324810566,0.1874043494462967,0.1334991008043289,-0.04632799699902534,-0.01328542828559875,0.007000744342803955,-0.05257898569107056,XArbitraryZVertical,0.5560969414717765,-0.1662937399885979,0.5924217635064667,-0.5586940239139401,-0.4730732142925262,0.8184081315994263,-0.3262051641941071,0,0,0,-1,-1,10078.943875375,unknown,2,2025-04-20T23:15:47.951+03:00,2025-04-20T21:57:49.637+03:00,29,4.348656,0,0,23.86625,0,0,2025-04-20T22:59:32.906+03:00,766872950.634814,0,-0.8999996,99.74757,1,0.95,2025-04-20T23:15:47.660+03:00,101,1.683333333333333,2025-04-19T12:19:17.059+03:00,0.05691595998002078,0
2025-04-20T23:15:51.942+03:00,1745180151.14359,40.985586866833,29.13735278228028,126.3665,-1,-1,-1,-1,30,22.26780044147412,-9999,10082.92905675,-0.4962158203125,0.8661956787109375,-0.4386444091796875,10082.92024875,-2.159743028130442,-0.9637846828366429,-0.9568951165241478,0.2443986535072327,0.1141192838549614,-0.07843214273452759,-0.02179819345474243,0.01831692457199097,-0.06711214780807495,XArbitraryZVertical,0.5551607512727258,-0.1658298706885402,0.5931216127246449,-0.5590203807692279,-0.4731511175632477,0.8174068927764893,-0.3285939991474152,0,0,0,-1,-1,10078.943875375,unknown,2,2025-04-20T23:15:47.951+03:00,2025-04-20T21:57:49.637+03:00,29,4.348656,0,0,23.86625,0,0,2025-04-20T22:59:32.906+03:00,766872950.634814,0,-0.8999996,99.74757,1,0.95,2025-04-20T23:15:47.660+03:00,101,1.683333333333333,2025-04-19T12:19:17.059+03:00,0.05691595998002078,0
2025-04-20T23:15:51.951+03:00,1745180151.14359,40.985586866833,29.13735278228028,126.3665,-1,-1,-1,-1,30,22.26780044147412,-9999,10082.93913375,-0.48919677734375,0.8845977783203125,-0.487274169921875,10082.93032475,-2.157127102593479,-0.960719608842047,-0.9546742455777981,0.2650697827339172,0.0694553405046463,-0.1070841923356056,-0.02631065249443054,0.03885483741760254,-0.09105253219604492,XArbitraryZVertical,0.5542634086126582,-0.1650792312039809,0.5938547330837352,-0.5593544182479039,-0.4736283123493195,0.8161255121231079,-0.3310818374156952,0,0,0,-1,-1,10078.943875375,unknown,2,2025-04-20T23:15:47.951+03:00,2025-04-20T21:57:49.637+03:00,29,4.348656,0,0,23.86625,0,0,2025-04-20T22:59:32.906+03:00,766872950.634814,0,-0.8999996,99.74757,1,0.95,2025-04-20T23:15:47.660+03:00,101,1.683333333333333,2025-04-19T12:19:17.059+03:00,0.05691595998002078,0
2025-04-20T23:15:51.961+03:00,1745180151.14359,40.985586866833,29.13735278228028,126.3665,-1,-1,-1,-1,30,22.26780044147412,-9999,10082.94920975,-0.494049072265625,0.883758544921875,-0.5316619873046875,10082.94040175,-2.153866944585459,-0.9575316362540778,-0.9519466045803339,0.3607938885688782,0.0345064140856266,-0.1231284067034721,-0.01608934998512268,0.06292563676834106,-0.1274946331977844,XArbitraryZVertical,0.5533298862263137,-0.1639847512631536,0.5945789978252016,-0.5598310404049427,-0.4743891358375549,0.8145462870597839,-0.3338700830936432,0,0,0,-1,-1,10078.943875375,unknown,2,2025-04-20T23:15:47.951+03:00,2025-04-20T21:57:49.637+03:00,29,4.348656,0,0,23.86625,0,0,2025-04-20T22:59:32.906+03:00,766872950.634814,0,-0.8999996,99.74757,1,0.95,2025-04-20T23:15:47.660+03:00,101,1.683333333333333,2025-04-19T12:19:17.059+03:00,0.05691595998002078,0
2025-04-20T23:15:51.971+03:00,1745180151.14359,40.985586866833,29.13735278228028,126.3665,-1,-1,-1,-1,30,22.26780044147412,-9999,10082.95928575,-0.48822021484375,0.886749267578125,-0.564697265625,10082.95047775,-2.149064256115796,-0.9533421437961184,-0.9480391619136718,0.5356945991516113,0.01935888640582561,-0.2028438746929169,-0.01575526595115662,0.07359087467193604,-0.1743901968002319,XArbitraryZVertical,0.5521036485218621,-0.1622781591913598,0.5954692307161628,-0.5605922509710618,-0.475577712059021,0.812273383140564,-0.3376947343349457,0,0,0,-1,-1,10078.943875375,unknown,2,2025-04-20T23:15:47.951+03:00,2025-04-20T21:57:49.637+03:00,29,4.348656,0,0,23.86625,0,0,2025-04-20T22:59:32.906+03:00,766872950.634814,0,-0.8999996,99.74757,1,0.95,2025-04-20T23:15:47.660+03:00,101,1.683333333333333,2025-04-19T12:19:17.059+03:00,0.05691595998002078,0
2025-04-20T23:15:51.981+03:00,1745180151.14359,40.985586866833,29.13735278228028,126.3665,-1,-1,-1,-1,30,22.26780044147412,-9999,10082.96936175,-0.475006103515625,0.891693115234375,-0.5915679931640625,10082.96055375,-2.143504627616872,-0.9490128357277257,-0.9428911891315298,0.5700168609619141,-0.06656986474990845,-0.2430331110954285,-0.01567539572715759,0.07297271490097046,-0.2062039375305176,XArbitraryZVertical,0.5507602961260857,-0.1599133256903043,0.5965197490073734,-0.5614756565820951,-0.4775038957595825,0.8092598915100098,-0.3421816527843475,0,0,0,-1,-1,10078.943875375,unknown,2,2025-04-20T23:15:47.951+03:00,2025-04-20T21:57:49.637+03:00,29,4.348656,0,0,23.86625,0,0,2025-04-20T22:59:32.906+03:00,766872950.634814,0,-0.8999996,99.74757,1,0.95,2025-04-20T23:15:47.660+03:00,101,1.683333333333333,2025-04-19T12:19:17.059+03:00,0.05691595998002078,0
2025-04-20T23:15:51.992+03:00,1745180151.14359,40.985586866833,29.13735278228028,126.3665,-1,-1,-1,-1,30,22.26780044147412,-9999,10082.97943875,-0.486328125,0.858612060546875,-0.62109375,10082.97062975,-2.137166695027083,-0.9449417216231865,-0.9375779188145592,0.6430400609970093,-0.1546386778354645,-0.1733001917600632,9.289383888244629e-05,0.08703070878982544,-0.2329683303833008,XArbitraryZVertical,0.5495173732511128,-0.1572014084992746,0.5973165099473411,-0.5626111705423796,-0.4795850515365601,0.8061271905899048,-0.3466367423534393,0,0,0,-1,-1,10078.943875375,unknown,2,2025-04-20T23:15:47.951+03:00,2025-04-20T21:57:49.637+03:00,29,4.348656,0,0,23.86625,0,0,2025-04-20T22:59:32.906+03:00,766872950.634814,0,-0.8999996,99.74757,1,0.95,2025-04-20T23:15:47.660+03:00,101,1.683333333333333,2025-04-19T12:19:17.059+03:00,0.05691595998002078,0
2025-04-20T23:15:52.001+03:00,1745180151.14359,40.985586866833,29.13735278228028,126.3665,-1,-1,-1,-1,30,22.26780044147412,-9999,10082.98951475,-0.4990234375,0.8339080810546875,-0.652191162109375,10082.98070675,-2.129198238009048,-0.9408705298908449,-0.9326541974369488,0.6923724412918091,-0.298689603805542,-0.06424561142921448,0.004091739654541016,0.07539713382720947,-0.2530225515365601,XArbitraryZVertical,0.5484169626472624,-0.1542034250140397,0.5975368219831551,-0.5642781660171585,-0.4813714027404785,0.8032038807868958,-0.3509202897548676,0,0,0,-1,-1,10078.943875375,unknown,2,2025-04-20T23:15:47.951+03:00,2025-04-20T21:57:49.637+03:00,29,4.348656,0,0,23.86625,0,0,2025-04-20T22:59:32.906+03:00,766872950.634814,0,-0.8999996,99.74757,1,0.95,2025-04-20T23:15:47.660+03:00,101,1.683333333333333,2025-04-19T12:19:17.059+03:00,0.05691595998002078,0
2025-04-20T23:15:52.012+03:00,1745180151.14359,40.985586866833,29.13735278228028,126.3665,-1,-1,-1,-1,30,22.26780044147412,-9999,10082.99959075,-0.4976043701171875,0.8186187744140625,-0.655181884765625,10082.99078275,-2.119832605597669,-0.9370311884256849,-0.9284348922623026,0.6855615377426147,-0.4227610528469086,0.04971937090158463,-0.01102733612060547,0.04291409254074097,-0.2836123704910278,XArbitraryZVertical,0.5475403899300824,-0.1510455313118823,0.5970938614258454,-0.5664482266417129,-0.4827470779418945,0.8006832599639893,-0.3547695279121399,0,0,0,-1,-1,10078.943875375,unknown,2,2025-04-20T23:15:47.951+03:00,2025-04-20T21:57:49.637+03:00,29,4.348656,0,0,23.86625,0,0,2025-04-20T22:59:32.906+03:00,766872950.634814,0,-0.8999996,99.74757,1,0.95,2025-04-20T23:15:47.660+03:00,101,1.683333333333333,2025-04-19T12:19:17.059+03:00,0.05691595998002078,0
2025-04-20T23:15:52.022+03:00,1745180151.14359,40.985586866833,29.13735278228028,126.3665,-1,-1,-1,-1,30,22.26780044147412,-9999,10083.00966775,-0.483306884765625,0.796417236328125,-0.633087158203125,10083.00085875,-2.109583702678928,-0.9336813039854186,-0.9251767274106384,0.7030931115150452,-0.5368594527244568,0.1500230729579926,-0.01624277234077454,0.02796363830566406,-0.3005734980106354,XArbitraryZVertical,0.5469541736380513,-0.1478976982780019,0.5959901743671071,-0.569001930532311,-0.4836504757404327,0.7987270951271057,-0.3579348027706146,0,0,0,-1,-1,10078.943875375,unknown,2,2025-04-20T23:15:47.951+03:00,2025-04-20T21:57:49.637+03:00,29,4.348656,0,0,23.86625,0,0,2025-04-20T22:59:32.906+03:00,766872950.634814,0,-0.8999996,99.74757,1,0.95,2025-04-20T23:15:47.660+03:00,101,1.683333333333333,2025-04-19T12:19:17.059+03:00,0.05691595998002078,0
2025-04-20T23:15:52.032+03:00,1745180151.14359,40.985586866833,29.13735278228028,126.3665,-1,-1,-1,-1,30,22.26780044147412,-9999,10083.01974375,-0.4659271240234375,0.789581298828125,-0.618316650390625,10083.01093575,-2.097881790926687,-0.930166099951879,-0.9221763844740851,0.7949855327606201,-0.6230515837669373,0.2042154669761658,-0.007543563842773438,0.01161444187164307,-0.283635675907135,XArbitraryZVertical,0.5464292242795243,-0.1445109935613522,0.5944307932103533,-0.5719996620787643,-0.4843082427978516,0.7969182133674622,-0.3610633611679077,0,0,0,-1,-1,10078.943875375,unknown,2,2025-04-20T23:15:47.951+03:00,2025-04-20T21:57:49.637+03:00,29,4.348656,0,0,23.86625,0,0,2025-04-20T22:59:32.906+03:00,766872950.634814,0,-0.8999996,99.74757,1,0.95,2025-04-20T23:15:47.660+03:00,101,1.683333333333333,2025-04-19T12:19:17.059+03:00,0.05691595998002078,0
2025-04-20T23:15:52.043+03:00,1745180151.14359,40.985586866833,29.13735278228028,126.3665,-1,-1,-1,-1,30,22.26780044147412,-9999,10083.02981975,-0.4456329345703125,0.8198394775390625,-0.6166229248046875,10083.02101175,-2.08352165434534,-0.9251851974782811,-0.9189392364026213,0.9976701736450195,-0.6681644916534424,0.3017263114452362,0.009647279977798462,-0.006765842437744141,-0.2597343325614929,XArbitraryZVertical,0.5456029277317616,-0.140736342623402,0.5925521535644189,-0.5756670857448967,-0.4845618307590485,0.7949585318565369,-0.3650214672088623,0,0,0,-1,-1,10078.943875375,unknown,2,2025-04-20T23:15:47.951+03:00,2025-04-20T21:57:49.637+03:00,29,4.348656,0,0,23.86625,0,0,2025-04-20T22:59:32.906+03:00,766872950.634814,0,-0.8999996,99.74757,1,0.95,2025-04-20T23:15:47.660+03:00,101,1.683333333333333,2025-04-19T12:19:17.059+03:00,0.05691595998002078,0
2025-04-20T23:15:52.052+03:00,1745180151.14359,40.985586866833,29.13735278228028,126.3665,-1,-1,-1,-1,30,22.26780044147412,-9999,10083.03989675,-0.443389892578125,0.83306884765625,-0.6405029296875,10083.03108775,-2.066016071947835,-0.9186994122950214,-0.9148141376630802,1.177630662918091,-0.8143376708030701,0.3202454149723053,0.02897593379020691,0.01034611463546753,-0.2443584799766541,XArbitraryZVertical,0.5444041657620042,-0.1362071990251454,0.5903836993898911,-0.5801022987329483,-0.4847864806652069,0.7924492359161377,-0.3701434135437012,0,0,0,-1,-1,10078.943875375,unknown,2,2025-04-20T23:15:47.951+03:00,2025-04-20T21:57:49.637+03:00,29,4.348656,0,0,23.86625,0,0,2025-04-20T22:59:32.906+03:00,766872950.634814,0,-0.8999996,99.74757,1,0.95,2025-04-20T23:15:47.660+03:00,101,1.683333333333333,2025-04-19T12:19:17.059+03:00,0.05691595998002078,0
2025-04-20T23:15:52.062+03:00,1745180151.14359,40.985586866833,29.13735278228028,126.3665,-1,-1,-1,-1,30,22.26780044147412,-9999,10083.04997275,-0.44158935546875,0.7741241455078125,-0.64007568359375,10083.04116475,-2.049427347529166,-0.9150877730034993,-0.9093442345985691,1.028687834739685,-1.050932288169861,0.005014218389987946,0.04504147171974182,0.04483741521835327,-0.2522712647914886,XArbitraryZVertical,0.5437675206799552,-0.1305844000650651,0.5880227577256587,-0.5843746403402637,-0.4868749380111694,0.7891011238098145,-0.3745291829109192,0,0,0,-1,-1,10078.943875375,unknown,2,2025-04-20T23:15:47.951+03:00,2025-04-20T21:57:49.637+03:00,29,4.348656,0,0,23.86625,0,0,2025-04-20T22:59:32.906+03:00,766872950.634814,0,-0.8999996,99.74757,1,0.95,2025-04-20T23:15:47.660+03:00,101,1.683333333333333,2025-04-19T12:19:17.059+03:00,0.05691595998002078,0
2025-04-20T23:15:52.072+03:00,1745180151.14359,40.985586866833,29.13735278228028,126.3665,-1,-1,-1,-1,30,22.26780044147412,-9999,10083.06004875,-0.413970947265625,0.8100433349609375,-0.5983734130859375,10083.05124075,-2.036058708393468,-0.9153505673680323,-0.9039286739250139,0.9847275018692017,-1.088937520980835,0.1930596232414246,0.04649123549461365,0.0239294171333313,-0.2679274082183838,XArbitraryZVertical,0.5440043526090305,-0.1247357888638996,0.5855021344001998,-0.587951931639853,-0.4903541207313538,0.7857629656791687,-0.377000480890274,0,0,0,-1,-1,10078.943875375,unknown,2,2025-04-20T23:15:47.951+03:00,2025-04-20T21:57:49.637+03:00,29,4.348656,0,0,23.86625,0,0,2025-04-20T22:59:32.906+03:00,766872950.634814,0,-0.8999996,99.74757,1,0.95,2025-04-20T23:15:47.660+03:00,101,1.683333333333333,2025-04-19T12:19:17.059+03:00,0.05691595998002078,0
2025-04-20T23:15:52.082+03:00,1745180151.14359,40.985586866833,29.13735278228028,126.3665,-1,-1,-1,-1,30,22.26780044147412,-9999,10083.07012575,-0.4371490478515625,0.852325439453125,-0.53631591796875,10083.06131675,-2.020024541967053,-0.9139463418330832,-0.8999464241873718,1.019606351852417,-1.125131011009216,0.3741585612297058,0.06001681089401245,-0.01711934804916382,-0.2452815175056458,XArbitraryZVertical,0.5440479379135994,-0.1192210771488846,0.582232194693621,-0.5922868754096592,-0.4922983050346375,0.783293604850769,-0.3795963525772095,0,0,0,-1,-1,10078.943875375,unknown,2,2025-04-20T23:15:47.951+03:00,2025-04-20T21:57:49.637+03:00,29,4.348656,0,0,23.86625,0,0,2025-04-20T22:59:32.906+03:00,766872950.634814,0,-0.8999996,99.74757,1,0.95,2025-04-20T23:15:47.660+03:00,101,1.683333333333333,2025-04-19T12:19:17.059+03:00,0.05691595998002078,0
2025-04-20T23:15:52.093+03:00,1745180151.14359,40.985586866833,29.13735278228028,126.3665,-1,-1,-1,-1,30,22.26780044147412,-9999,10083.08020175,-0.467437744140625,0.757354736328125,-0.4991455078125,10083.07139375,-2.003524991788361,-0.9126484501356201,-0.897574757470014,0.88059002161026,-1.183326363563538,0.5035243034362793,0.08140835165977478,0.07739007472991943,-0.1834490299224854,XArbitraryZVertical,0.5443127764851579,-0.1141861675079418,0.57832297281302,-0.5968480925514399,-0.4932735860347748,0.7818170785903931,-0.3813702464103699,0,0,0,-1,-1,10078.943875375,unknown,2,2025-04-20T23:15:47.951+03:00,2025-04-20T21:57:49.637+03:00,29,4.348656,0,0,23.86625,0,0,2025-04-20T22:59:32.906+03:00,766872950.634814,0,-0.8999996,99.74757,1,0.95,2025-04-20T23:15:47.660+03:00,101,1.683333333333333,2025-04-19T12:19:17.059+03:00,0.05691595998002078,0
2025-04-20T23:15:52.102+03:00,1745180151.14359,40.985586866833,29.13735278228028,126.3665,-1,-1,-1,-1,30,22.26780044147412,-9999,10083.09027775,-0.447296142578125,0.7501678466796875,-0.467529296875,10083.08146975,-1.987912975468834,-0.9125504634603728,-0.8970783801782156,0.7116542458534241,-1.214678168296814,0.595893919467926,0.02918761968612671,0.02096742391586304,-0.1346557438373566,XArbitraryZVertical,0.5450897178426583,-0.1097692135518266,0.5738077745980414,-0.6013089068372285,-0.4935430288314819,0.7815074324607849,-0.3816558420658112,0,0,0,-1,-1,10078.943875375,unknown,2,2025-04-20T23:15:47.951+03:00,2025-04-20T21:57:49.637+03:00,29,4.348656,0,0,23.86625,0,0,2025-04-20T22:59:32.906+03:00,766872950.634814,0,-0.8999996,99.74757,1,0.95,2025-04-20T23:15:47.660+03:00,101,1.683333333333333,2025-04-19T12:19:17.059+03:00,0.05691595998002078,0
2025-04-20T23:15:52.112+03:00,1745180151.14359,40.985586866833,29.13735278228028,126.3665,-1,-1,-1,-1,30,22.26780044147412,-9999,10083.10035475,-0.4548797607421875,0.7625579833984375,-0.42962646484375,10083.09154575,-1.973999445121271,-0.9140490485640956,-0.8982906378850779,0.4939164817333221,-1.242870926856995,0.6442282795906067,0.03799569606781006,-0.03861093521118164,-0.103030800819397,XArbitraryZVertical,0.5464400911330874,-0.1059938350377641,0.5688718276865838,-0.6054363567206923,-0.4933637082576752,0.7822632193565369,-0.3803370594978333,0,0,0,-1,-1,10078.943875375,unknown,2,2025-04-20T23:15:47.951+03:00,2025-04-20T21:57:49.637+03:00,29,4.348656,0,0,23.86625,0,0,2025-04-20T22:59:32.906+03:00,766872950.634814,0,-0.8999996,99.74757,1,0.95,2025-04-20T23:15:47.660+03:00,101,1.683333333333333,2025-04-19T12:19:17.059+03:00,0.05691595998002078,0
2025-04-20T23:15:52.122+03:00,1745180151.14359,40.985586866833,29.13735278228028,126.3665,-1,-1,-1,-1,30,22.26780044147412,-9999,10083.11043075,-0.456329345703125,0.7702484130859375,-0.37615966796875,10083.10162275,-1.962425774536299,-0.9174871106438185,-0.9013999158150424,0.2640766203403473,-1.235402584075928,0.7210801839828491,0.04195964336395264,-0.02603292465209961,-0.07317405939102173,XArbitraryZVertical,0.5484643782987004,-0.1029930049248638,0.5635691128576492,-0.6090723636793207,-0.4927347898483276,0.7841963171958923,-0.377158522605896,0,0,0,-1,-1,10078.943875375,unknown,2,2025-04-20T23:15:47.951+03:00,2025-04-20T21:57:49.637+03:00,29,4.348656,0,0,23.86625,0,0,2025-04-20T22:59:32.906+03:00,766872950.634814,0,-0.8999996,99.74757,1,0.95,2025-04-20T23:15:47.660+03:00,101,1.683333333333333,2025-04-19T12:19:17.059+03:00,0.05691595998002078,0
2025-04-20T23:15:52.133+03:00,1745180151.14359,40.985586866833,29.13735278228028,126.3665,-1,-1,-1,-1,30,22.26780044147412,-9999,10083.12050675,-0.4687957763671875,0.78057861328125,-0.3263397216796875,10083.11169875,-1.952983219471875,-0.9224367907627409,-0.9063662521155266,0.0690760463476181,-1.218377113342285,0.764567494392395,0.03524741530418396,-0.02248263359069824,-0.03178566694259644,XArbitraryZVertical,0.5510507023791584,-0.1008158626012583,0.5579657044360109,-0.6122528693183412,-0.4914851784706116,0.787268340587616,-0.3723585605621338,0,0,0,-1,-1,10078.943875375,unknown,2,2025-04-20T23:15:47.951+03:00,2025-04-20T21:57:49.637+03:00,29,4.348656,0,0,23.86625,0,0,2025-04-20T22:59:32.906+03:00,766872950.634814,0,-0.8999996,99.74757,1,0.95,2025-04-20T23:15:47.660+03:00,101,1.683333333333333,2025-04-19T12:19:17.059+03:00,0.05691595998002078,0
2025-04-20T23:15:52.142+03:00,1745180151.14359,40.985586866833,29.13735278228028,126.3665,-1,-1,-1,-1,30,22.26780044147412,-9999,10083.13058375,-0.4761199951171875,0.7951202392578125,-0.283203125,10083.12177475,-1.945524045282717,-0.9285928130279998,-0.9129319377194431,-0.1226635575294495,-1.170472979545593,0.8179803490638733,0.02886390686035156,-0.01473426818847656,0.01583445072174072,XArbitraryZVertical,0.554081560471598,-0.09941145957634073,0.5521692299412212,-0.6149960208880183,-0.4896182715892792,0.7912998199462891,-0.3662219643592834,0,0,0,-1,-1,10078.943875375,unknown,2,2025-04-20T23:15:47.951+03:00,2025-04-20T21:57:49.637+03:00,29,4.348656,0,0,23.86625,0,0,2025-04-20T22:59:32.906+03:00,766872950.634814,0,-0.8999996,99.74757,1,0.95,2025-04-20T23:15:47.660+03:00,101,1.683333333333333,2025-04-19T12:19:17.059+03:00,0.05691595998002078,0
2025-04-20T23:15:52.153+03:00,1745180151.14359,40.985586866833,29.13735278228028,126.3665,-1,-1,-1,-1,30,22.26780044147412,-9999,10083.14065975,-0.4669036865234375,0.8364105224609375,-0.2360687255859375,10083.13185175,-1.940086351820466,-0.9358773137324322,-0.920657308342269,-0.2543908357620239,-1.139984011650085,0.7950158715248108,0.01161330938339233,-0.01153010129928589,0.05493199825286865,XArbitraryZVertical,0.5574627231938232,-0.09864462292402956,0.5463307682633669,-0.6172739852288618,-0.4873365461826324,0.7959996461868286,-0.3590090870857239,0,0,0,-1,-1,10078.943875375,unknown,2,2025-04-20T23:15:47.951+03:00,2025-04-20T21:57:49.637+03:00,29,4.348656,0,0,23.86625,0,0,2025-04-20T22:59:32.906+03:00,766872950.634814,0,-0.8999996,99.74757,1,0.95,2025-04-20T23:15:47.660+03:00,101,1.683333333333333,2025-04-19T12:19:17.059+03:00,0.05691595998002078,0
2025-04-20T23:15:52.163+03:00,1745180151.14359,40.985586866833,29.13735278228028,126.3665,-1,-1,-1,-1,30,22.26780044147412,-9999,10083.15073575,-0.4533843994140625,0.8832550048828125,-0.2065887451171875,10083.14192775,-1.936389423389601,-0.9441454783779797,-0.9285281092786652,-0.2969974279403687,-1.084444522857666,0.7263872623443604,0.01382377743721008,0.01282882690429688,0.09113529324531555,XArbitraryZVertical,0.5610137066589266,-0.09809411484278355,0.540683021131156,-0.6191145364083839,-0.4851981997489929,0.8007391095161438,-0.3512823283672333,0,0,0,-1,-1,10078.943875375,unknown,2,2025-04-20T23:15:47.951+03:00,2025-04-20T21:57:49.637+03:00,29,4.348656,0,0,23.86625,0,0,2025-04-20T22:59:32.906+03:00,766872950.634814,0,-0.8999996,99.74757,1,0.95,2025-04-20T23:15:47.660+03:00,101,1.683333333333333,2025-04-19T12:19:17.059+03:00,0.05691595998002078,0
2025-04-20T23:15:52.173+03:00,1745180151.14359,40.985586866833,29.13735278228028,126.3665,-1,-1,-1,-1,30,22.26780044147412,-9999,10083.16081275,-0.434478759765625,0.91375732421875,-0.1976470947265625,10083.15200375,-1.933608651435847,-0.9525327669679652,-0.9358580494937819,-0.2791640162467957,-1.030135154724121,0.6405901312828064,0.0212649405002594,0.05545681715011597,0.1261990368366241,XArbitraryZVertical,0.5644393951766242,-0.09753733179961313,0.5354064819665427,-0.6206725417166232,-0.4833315312862396,0.8051083087921143,-0.343789279460907,0,0,0,-1,-1,10078.943875375,unknown,2,2025-04-20T23:15:47.951+03:00,2025-04-20T21:57:49.637+03:00,29,4.348656,0,0,23.86625,0,0,2025-04-20T22:59:32.906+03:00,766872950.634814,0,-0.8999996,99.74757,1,0.95,2025-04-20T23:15:47.660+03:00,101,1.683333333333333,2025-04-19T12:19:17.059+03:00,0.05691595998002078,0
2025-04-20T23:15:52.183+03:00,1745180151.14359,40.985586866833,29.13735278228028,126.3665,-1,-1,-1,-1,30,22.26780044147412,-9999,10083.17088875,-0.43310546875,0.9248504638671875,-0.18939208984375,10083.16208075,-1.931373691288524,-0.9609151512595948,-0.9421297362364189,-0.2188064008951187,-0.9932740926742554,0.5295389890670776,0.03903934359550476,0.09307366609573364,0.1358840763568878,XArbitraryZVertical,0.5676555400211015,-0.0967143629385253,0.5305717980072744,-0.6220185343671326,-0.4820477962493896,0.8088123798370361,-0.3368270397186279,0,0,0,-1,-1,10078.943875375,unknown,2,2025-04-20T23:15:47.951+03:00,2025-04-20T21:57:49.637+03:00,29,4.348656,0,0,23.86625,0,0,2025-04-20T22:59:32.906+03:00,766872950.634814,0,-0.8999996,99.74757,1,0.95,2025-04-20T23:15:47.660+03:00,101,1.683333333333333,2025-04-19T12:19:17.059+03:00,0.05691595998002078,0
2025-04-20T23:15:52.193+03:00,1745180151.14359,40.985586866833,29.13735278228028,126.3665,-1,-1,-1,-1,30,22.26780044147412,-9999,10083.18096475,-0.4447021484375,0.9217987060546875,-0.1814117431640625,10083.17215675,-1.929230939770471,-0.9689382785751024,-0.9470962117647408,-0.1316639184951782,-0.9399676322937012,0.4210911393165588,0.04980739951133728,0.1098620295524597,0.1366700828075409,XArbitraryZVertical,0.5705625313096567,-0.09551590316536043,0.5262147535494659,-0.6232439035022586,-0.4814174473285675,0.811722993850708,-0.3306702077388763,0,0,0,-1,-1,10078.943875375,unknown,2,2025-04-20T23:15:47.951+03:00,2025-04-20T21:57:49.637+03:00,29,4.348656,0,0,23.86625,0,0,2025-04-20T22:59:32.906+03:00,766872950.634814,0,-0.8999996,99.74757,1,0.95,2025-04-20T23:15:47.660+03:00,101,1.683333333333333,2025-04-19T12:19:17.059+03:00,0.05691595998002078,0
2025-04-20T23:15:52.203+03:00,1745180151.14359,40.985586866833,29.13735278228028,126.3665,-1,-1,-1,-1,30,22.26780044147412,-9999,10083.19104175,-0.4620208740234375,0.916839599609375,-0.1609649658203125,10083.18223275,-1.927088922297702,-0.9761991372806077,-0.9507013074866828,-0.06705882400274277,-0.8417643308639526,0.3063464462757111,0.04329866170883179,0.1105388402938843,0.1400999128818512,XArbitraryZVertical,0.5730596669640365,-0.09402282829963896,0.5224453827914408,-0.6243500455862001,-0.481378436088562,0.8138232231140137,-0.3255246579647064,0,0,0,-1,-1,10078.943875375,unknown,2,2025-04-20T23:15:47.951+03:00,2025-04-20T21:57:49.637+03:00,29,4.348656,0,0,23.86625,0,0,2025-04-20T22:59:32.906+03:00,766872950.634814,0,-0.8999996,99.74757,1,0.95,2025-04-20T23:15:47.660+03:00,101,1.683333333333333,2025-04-19T12:19:17.059+03:00,0.05691595998002078,0
2025-04-20T23:15:52.213+03:00,1745180151.14359,40.985586866833,29.13735278228028,126.3665,-1,-1,-1,-1,30,22.26780044147412,-9999,10083.20111775,-0.4795074462890625,0.9033966064453125,-0.108795166015625,10083.19230975,-1.925113507256659,-0.9824353074816509,-0.9529249291156512,0.01353682111948729,-0.7153311371803284,0.1854264587163925,0.02846243977546692,0.1043048501014709,0.1473475098609924,XArbitraryZVertical,0.5750773339789054,-0.0923603462841394,0.5194038232411408,-0.6252800521387469,-0.4818925559520721,0.8151134252548218,-0.3215112388134003,0,0,0,-1,-1,10078.943875375,unknown,2,2025-04-20T23:15:47.951+03:00,2025-04-20T21:57:49.637+03:00,29,4.348656,0,0,23.86625,0,0,2025-04-20T22:59:32.906+03:00,766872950.634814,0,-0.8999996,99.74757,1,0.95,2025-04-20T23:15:47.660+03:00,101,1.683333333333333,2025-04-19T12:19:17.059+03:00,0.05691595998002078,0
2025-04-20T23:15:52.223+03:00,1745180151.14359,40.985586866833,29.13735278228028,126.3665,-1,-1,-1,-1,30,22.26780044147412,-9999,10083.21119375,-0.48883056640625,0.8957672119140625,-0.037078857421875,10083.20238575,-1.922897592043031,-0.9871735574147654,-0.9535706678581197,0.129116415977478,-0.5857747197151184,0.05942832306027412,0.01202407479286194,0.09697294235229492,0.1801098883152008,XArbitraryZVertical,0.5764936212081319,-0.09048745072526443,0.5171618678955336,-0.6261075296150996,-0.4829712808132172,0.8154873251914978,-0.3189342617988586,0,0,0,-1,-1,10078.943875375,unknown,2,2025-04-20T23:15:47.951+03:00,2025-04-20T21:57:49.637+03:00,29,4.348656,0,0,23.86625,0,0,2025-04-20T22:59:32.906+03:00,766872950.634814,0,-0.8999996,99.74757,1,0.95,2025-04-20T23:15:47.660+03:00,101,1.683333333333333,2025-04-19T12:19:17.059+03:00,0.05691595998002078,0
2025-04-20T23:15:52.233+03:00,1745180151.14359,40.985586866833,29.13735278228028,126.3665,-1,-1,-1,-1,30,22.26780044147412,-9999,10083.22127075,-0.484466552734375,0.9312591552734375,0.0080108642578125,10083.21246175,-1.920132575736572,-0.9902053009592198,-0.9523511352940202,0.2729597985744476,-0.4619477093219757,-0.086322121322155,-0.002003461122512817,0.07942986488342285,0.2446801364421844,XArbitraryZVertical,0.5772356006190474,-0.08827331724966384,0.5157702974101566,-0.6268873229571534,-0.4847671091556549,0.8147808909416199,-0.3180137574672699,0,0,0,-1,-1,10078.943875375,unknown,2,2025-04-20T23:15:47.951+03:00,2025-04-20T21:57:49.637+03:00,29,4.348656,0,0,23.86625,0,0,2025-04-20T22:59:32.906+03:00,766872950.634814,0,-0.8999996,99.74757,1,0.95,2025-04-20T23:15:47.660+03:00,101,1.683333333333333,2025-04-19T12:19:17.059+03:00,0.05691595998002078,0
2025-04-20T23:15:52.243+03:00,1745180151.14359,40.985586866833,29.13735278228028,126.3665,-1,-1,-1,-1,30,22.26780044147412,-9999,10083.23134675,-0.4818267822265625,0.94586181640625,0.0006866455078125,10083.22253875,-1.916602729628894,-0.9913387832069924,-0.9491795003895829,0.4062462151050568,-0.3404854536056519,-0.2115876227617264,-0.0005514323711395264,0.09792011976242065,0.3105615973472595,XArbitraryZVertical,0.5772514582946332,-0.08568524984342971,0.5152437671855847,-0.6276643982751269,-0.4872872829437256,0.8129379749298096,-0.3188775777816772,0,0,0,-1,-1,10078.943875375,unknown,2,2025-04-20T23:15:47.951+03:00,2025-04-20T21:57:49.637+03:00,29,4.348656,0,0,23.86625,0,0,2025-04-20T22:59:32.906+03:00,766872950.634814,0,-0.8999996,99.74757,1,0.95,2025-04-20T23:15:47.660+03:00,101,1.683333333333333,2025-04-19T12:19:17.059+03:00,0.05691595998002078,0
2025-04-20T23:15:52.253+03:00,1745180151.14359,40.985586866833,29.13735278228028,126.3665,-1,-1,-1,-1,30,22.26780044147412,-9999,10083.24142275,-0.483184814453125,0.9195709228515625,-0.0333251953125,10083.23261475,-1.912623118548647,-0.9910165371625158,-0.9445240957403399,0.4730914831161499,-0.2484602332115173,-0.3131030797958374,0.008396565914154053,0.1348197460174561,0.3311448693275452,XArbitraryZVertical,0.5766995343916868,-0.08285766217222244,0.5154176578718038,-0.6284082411319765,-0.4903453588485718,0.8102180957794189,-0.321104496717453,0,0,0,-1,-1,10078.943875375,unknown,2,2025-04-20T23:15:47.951+03:00,2025-04-20T21:57:49.637+03:00,29,4.348656,0,0,23.86625,0,0,2025-04-20T22:59:32.906+03:00,766872950.634814,0,-0.8999996,99.74757,1,0.95,2025-04-20T23:15:47.660+03:00,101,1.683333333333333,2025-04-19T12:19:17.059+03:00,0.05691595998002078,0
2025-04-20T23:15:52.263+03:00,1745180151.14359,40.985586866833,29.13735278228028,126.3665,-1,-1,-1,-1,30,22.26780044147412,-9999,10083.25149975,-0.4841156005859375,0.891693115234375,-0.0703277587890625,10083.24269075,-1.908909195375047,-0.9901187401034525,-0.9386495794930387,0.5337878465652466,-0.1727513670921326,-0.4262048900127411,0.01130083203315735,0.1283891797065735,0.308815062046051,XArbitraryZVertical,0.5758065021057773,-0.07982366765462422,0.5161842402647014,-0.628990347731222,-0.494027853012085,0.8067609071731567,-0.3241501152515411,0,0,0,-1,-1,10078.943875375,unknown,2,2025-04-20T23:15:47.951+03:00,2025-04-20T21:57:49.637+03:00,29,4.348656,0,0,23.86625,0,0,2025-04-20T22:59:32.906+03:00,766872950.634814,0,-0.8999996,99.74757,1,0.95,2025-04-20T23:15:47.660+03:00,101,1.683333333333333,2025-04-19T12:19:17.059+03:00,0.05691595998002078,0
2025-04-20T23:15:52.273+03:00,1745180151.14359,40.985586866833,29.13735278228028,126.3665,-1,-1,-1,-1,30,22.26780044147412,-9999,10083.26157575,-0.4812774658203125,0.8677825927734375,-0.109161376953125,10083.25276775,-1.905243217102894,-0.9885340213794279,-0.931471545262831,0.60092693567276,-0.1005171164870262,-0.524343729019165,0.0143897533416748,0.1026524901390076,0.2767018675804138,XArbitraryZVertical,0.5745343496282369,-0.076524066612536,0.5175278516239586,-0.6294594407487411,-0.4983374774456024,0.8024988174438477,-0.3281086981296539,0,0,0,-1,-1,10078.943875375,unknown,2,2025-04-20T23:15:47.951+03:00,2025-04-20T21:57:49.637+03:00,29,4.348656,0,0,23.86625,0,0,2025-04-20T22:59:32.906+03:00,766872950.634814,0,-0.8999996,99.74757,1,0.95,2025-04-20T23:15:47.660+03:00,101,1.683333333333333,2025-04-19T12:19:17.059+03:00,0.05691595998002078,0
2025-04-20T23:15:52.284+03:00,1745180151.14359,40.985586866833,29.13735278228028,126.3665,-1,-1,-1,-1,30,22.26780044147412,-9999,10083.27165175,-0.4811859130859375,0.84552001953125,-0.1251220703125,10083.26284375,-1.901782652297114,-0.9865036047349584,-0.9233074393394776,0.6340057849884033,-0.04978842660784721,-0.6077497005462646,0.02019304037094116,0.08122897148132324,0.2415211200714111,XArbitraryZVertical,0.5729766751070201,-0.07305006501946108,0.5193342871631734,-0.6298041461968613,-0.5031183958053589,0.7976009845733643,-0.3327228426933289,0,0,0,-1,-1,10078.943875375,unknown,2,2025-04-20T23:15:47.951+03:00,2025-04-20T21:57:49.637+03:00,29,4.348656,0,0,23.86625,0,0,2025-04-20T22:59:32.906+03:00,766872950.634814,0,-0.8999996,99.74757,1,0.95,2025-04-20T23:15:47.660+03:00,101,1.683333333333333,2025-04-19T12:19:17.059+03:00,0.05691595998002078,0
2025-04-20T23:15:52.294+03:00,1745180151.14359,40.985586866833,29.13735278228028,126.3665,-1,-1,-1,-1,30,22.26780044147412,-9999,10083.28172875,-0.4840545654296875,0.8277130126953125,-0.1201934814453125,10083.27291975,-1.898767833747397,-0.9843640897251037,-0.9142956246606898,0.6579790711402893,-0.007925398647785187,-0.6781714558601379,0.02771997451782227,0.0646938681602478,0.2173860669136047,XArbitraryZVertical,0.5712267170181301,-0.06941720097948674,0.5215398247082434,-0.6299820874537897,-0.5083717703819275,0.7921328544616699,-0.3377625942230225,0,0,0,-1,-1,10078.943875375,unknown,2,2025-04-20T23:15:47.951+03:00,2025-04-20T21:57:49.637+03:00,29,4.348656,0,0,23.86625,0,0,2025-04-20T22:59:32.906+03:00,766872950.634814,0,-0.8999996,99.74757,1,0.95,2025-04-20T23:15:47.660+03:00,101,1.683333333333333,2025-04-19T12:19:17.059+03:00,0.05691595998002078,0
2025-04-20T23:15:52.304+03:00,1745180151.14359,40.985586866833,29.13735278228028,126.3665,-1,-1,-1,-1,30,22.26780044147412,-9999,10083.29180475,-0.48223876953125,0.808563232421875,-0.119659423828125,10083.28299675,-1.896059307218254,-0.9821169899487139,-0.9045336597801003,0.6834918856620789,0.03475894778966904,-0.746163010597229,0.03135234117507935,0.0495867133140564,0.2192496955394745,XArbitraryZVertical,0.5693004856134022,-0.06562160452183204,0.5240693318218547,-0.6300332557929814,-0.5140182375907898,0.7861370444297791,-0.3431815207004547,0,0,0,-1,-1,10078.943875375,unknown,2,2025-04-20T23:15:47.951+03:00,2025-04-20T21:57:49.637+03:00,29,4.348656,0,0,23.86625,0,0,2025-04-20T22:59:32.906+03:00,766872950.634814,0,-0.8999996,99.74757,1,0.95,2025-04-20T23:15:47.660+03:00,101,1.683333333333333,2025-04-19T12:19:17.059+03:00,0.05691595998002078,0
2025-04-20T23:15:52.314+03:00,1745180151.14359,40.985586866833,29.13735278228028,126.3665,-1,-1,-1,-1,30,22.26780044147412,-9999,10083.30188075,-0.4835968017578125,0.7779083251953125,-0.121063232421875,10083.29307275,-1.893649734524359,-0.9796638614721142,-0.8941297004407557,0.7132017612457275,0.07764109969139099,-0.8064724802970886,0.03679907321929932,0.04049545526504517,0.2311983704566956,XArbitraryZVertical,0.5671848366627179,-0.06173261781329305,0.5269149592774581,-0.6299610560974627,-0.519938051700592,0.7796643972396851,-0.3489809036254883,0,0,0,-1,-1,10078.943875375,unknown,2,2025-04-20T23:15:47.951+03:00,2025-04-20T21:57:49.637+03:00,29,4.348656,0,0,23.86625,0,0,2025-04-20T22:59:32.906+03:00,766872950.634814,0,-0.8999996,99.74757,1,0.95,2025-04-20T23:15:47.660+03:00,101,1.683333333333333,2025-04-19T12:19:17.059+03:00,0.05691595998002078,0
2025-04-20T23:15:52.324+03:00,1745180151.14359,40.985586866833,29.13735278228028,126.3665,-1,-1,-1,-1,30,22.26780044147412,-9999,10083.31195775,-0.4921417236328125,0.75421142578125,-0.1171417236328125,10083.30314875,-1.891548730536791,-0.9769854737028044,-0.8831435401743037,0.7208071947097778,0.1318044662475586,-0.8554363250732422,0.0440441370010376,0.02070373296737671,0.2336379289627075,XArbitraryZVertical,0.5648801157654892,-0.0577810545721062,0.5300648124754045,-0.6297642190717856,-0.5260692834854126,0.772737979888916,-0.3551436066627502,0,0,0,-1,-1,10078.943875375,unknown,2,2025-04-20T23:15:47.951+03:00,2025-04-20T21:57:49.637+03:00,29,4.348656,0,0,23.86625,0,0,2025-04-20T22:59:32.906+03:00,766872950.634814,0,-0.8999996,99.74757,1,0.95,2025-04-20T23:15:47.660+03:00,101,1.683333333333333,2025-04-19T12:19:17.059+03:00,0.05691595998002078,0
2025-04-20T23:15:52.334+03:00,1745180151.14359,40.985586866833,29.13735278228028,126.3665,-1,-1,-1,-1,30,22.26780044147412,-9999,10083.32203375,-0.4995880126953125,0.745849609375,-0.1121978759765625,10083.31322575,-1.890014364605487,-0.9741720950096997,-0.8718317753504957,0.6953995227813721,0.1950827091932297,-0.8899973630905151,0.04462486505508423,-0.0009672045707702637,0.242171585559845,XArbitraryZVertical,0.5624399277650847,-0.05390808925827895,0.5335002521367578,-0.6293906584967561,-0.5322651863098145,0.7655088305473328,-0.3615104854106903,0,0,0,-1,-1,10078.943875375,unknown,2,2025-04-20T23:15:47.951+03:00,2025-04-20T21:57:49.637+03:00,29,4.348656,0,0,23.86625,0,0,2025-04-20T22:59:32.906+03:00,766872950.634814,0,-0.8999996,99.74757,1,0.95,2025-04-20T23:15:47.660+03:00,101,1.683333333333333,2025-04-19T12:19:17.059+03:00,0.05691595998002078,0
2025-04-20T23:15:52.344+03:00,1745180151.14359,40.985586866833,29.13735278228028,126.3665,-1,-1,-1,-1,30,22.26780044147412,-9999,10083.33210975,-0.5027313232421875,0.7415771484375,-0.09808349609375,10083.32330175,-1.889297252213013,-0.9712672900733823,-0.8604911727947965,0.6458495259284973,0.2746571600437164,-0.9203329086303711,0.04168766736984253,-0.009337782859802246,0.253504604101181,XArbitraryZVertical,0.5599166521635547,-0.05028154045790952,0.5372041113067274,-0.6287900420245938,-0.538345992565155,0.7581629157066345,-0.3679302334785461,0,0,0,-1,-1,10078.943875375,unknown,2,2025-04-20T23:15:47.951+03:00,2025-04-20T21:57:49.637+03:00,29,4.348656,0,0,23.86625,0,0,2025-04-20T22:59:32.906+03:00,766872950.634814,0,-0.8999996,99.74757,1,0.95,2025-04-20T23:15:47.660+03:00,101,1.683333333333333,2025-04-19T12:19:17.059+03:00,0.05691595998002078,0
2025-04-20T23:15:52.354+03:00,1745180151.14359,40.985586866833,29.13735278228028,126.3665,-1,-1,-1,-1,30,22.26780044147412,-9999,10083.34218675,-0.51092529296875,0.726287841796875,-0.0770263671875,10083.33337775,-1.889494837384957,-0.9682416696560788,-0.8492412417408187,0.5940085053443909,0.3590195178985596,-0.931863009929657,0.04303306341171265,-0.006715118885040283,0.2678919434547424,XArbitraryZVertical,0.5573230232122974,-0.04698072937598983,0.5411809559754349,-0.6279385921988642,-0.5442231893539429,0.7507794499397278,-0.3743677139282227,0,0,0,-1,-1,10078.943875375,unknown,2,2025-04-20T23:15:47.951+03:00,2025-04-20T21:57:49.637+03:00,29,4.348656,0,0,23.86625,0,0,2025-04-20T22:59:32.906+03:00,766872950.634814,0,-0.8999996,99.74757,1,0.95,2025-04-20T23:15:47.660+03:00,101,1.683333333333333,2025-04-19T12:19:17.059+03:00,0.05691595998002078,0
2025-04-20T23:15:52.364+03:00,1745180151.14359,40.985586866833,29.13735278228028,126.3665,-1,-1,-1,-1,30,22.26780044147412,-9999,10083.35226275,-0.5235137939453125,0.7176666259765625,-0.0419158935546875,10083.34345475,-1.890693524942642,-0.9650755133712582,-0.8383061541130935,0.49898961186409,0.4563138484954834,-0.9463706016540527,0.0441213846206665,-0.008480370044708252,0.2927738428115845,XArbitraryZVertical,0.5546920454666536,-0.04411784136841147,0.5454017368802272,-0.6268231031797777,-0.5497518181800842,0.7435114979743958,-0.3807407021522522,0,0,0,-1,-1,10078.943875375,unknown,2,2025-04-20T23:15:47.951+03:00,2025-04-20T21:57:49.637+03:00,29,4.348656,0,0,23.86625,0,0,2025-04-20T22:59:32.906+03:00,766872950.634814,0,-0.8999996,99.74757,1,0.95,2025-04-20T23:15:47.660+03:00,101,1.683333333333333,2025-04-19T12:19:17.059+03:00,0.05691595998002078,0
2025-04-20T23:15:52.374+03:00,1745180151.14359,40.985586866833,29.13735278228028,126.3665,-1,-1,-1,-1,30,22.26780044147412,-9999,10083.36233975,-0.5365447998046875,0.719390869140625,0.0008544921875,10083.35353075,-1.892848033717258,-0.9613340082214203,-0.8277816194201892,0.4673085808753967,0.5961092710494995,-0.9333257079124451,0.03836709260940552,-0.01601928472518921,0.3248140215873718,XArbitraryZVertical,0.5519258809324838,-0.04184940659348052,0.5499456323836039,-0.6254486810673947,-0.5547091364860535,0.7364324331283569,-0.3872528970241547,0,0,0,-1,-1,10078.943875375,unknown,2,2025-04-20T23:15:47.951+03:00,2025-04-20T21:57:49.637+03:00,29,4.348656,0,0,23.86625,0,0,2025-04-20T22:59:32.906+03:00,766872950.634814,0,-0.8999996,99.74757,1,0.95,2025-04-20T23:15:47.660+03:00,101,1.683333333333333,2025-04-19T12:19:17.059+03:00,0.05691595998002078,0
2025-04-20T23:15:52.385+03:00,1745180151.14359,40.985586866833,29.13735278228028,126.3665,-1,-1,-1,-1,30,22.26780044147412,-9999,10083.37241575,-0.5475006103515625,0.72222900390625,0.0381622314453125,10083.36360775,-1.895163190135752,-0.9561705492663654,-0.8173814213825474,0.4643029272556305,0.770927369594574,-0.9383769035339355,0.0278170108795166,-0.01158344745635986,0.3758612871170044,XArbitraryZVertical,0.5487601868325425,-0.04010649343210009,0.5548710595092257,-0.6239966260423587,-0.5589296817779541,0.7293568849563599,-0.3945074677467346,0,0,0,-1,-1,10078.943875375,unknown,2,2025-04-20T23:15:47.951+03:00,2025-04-20T21:57:49.637+03:00,29,4.348656,0,0,23.86625,0,0,2025-04-20T22:59:32.906+03:00,766872950.634814,0,-0.8999996,99.74757,1,0.95,2025-04-20T23:15:47.660+03:00,101,1.683333333333333,2025-04-19T12:19:17.059+03:00,0.05691595998002078,0
2025-04-20T23:15:52.408+03:00,1745180151.14359,40.985586866833,29.13735278228028,126.3665,-1,-1,-1,-1,30,22.26780044147412,-9999,10083.38249175,-0.5724029541015625,0.7150115966796875,0.08831787109375,10083.37368375,-1.897003671528525,-0.9487831468924335,-0.8065690986166734,0.5805408358573914,0.9720335602760315,-0.9517822861671448,0.02162027359008789,-0.001778841018676758,0.420714408159256,XArbitraryZVertical,0.5448847437341521,-0.0387557021584649,0.5603337327122613,-0.6225950243227184,-0.5623763799667358,0.7219173312187195,-0.4031972289085388,0,0,0,-1,-1,10078.943875375,unknown,2,2025-04-20T23:15:47.951+03:00,2025-04-20T21:57:49.637+03:00,29,4.348656,0,0,23.86625,0,0,2025-04-20T22:59:32.906+03:00,766872950.634814,0,-0.8999996,99.74757,1,0.95,2025-04-20T23:15:47.660+03:00,101,1.683333333333333,2025-04-19T12:19:17.059+03:00,0.05691595998002078,0
2025-04-20T23:15:52.411+03:00,1745180151.14359,40.985586866833,29.13735278228028,126.3665,-1,-1,-1,-1,30,22.26780044147412,-9999,10083.39256875,-0.59075927734375,0.69281005859375,0.14501953125,10083.38375975,-1.897460309189702,-0.9379644813841721,-0.7950077706986363,0.7262061238288879,1.249966382980347,-0.9440202713012695,0.005225956439971924,0.009778976440429688,0.4763461351394653,XArbitraryZVertical,0.5398966403996723,-0.03779411844881806,0.5664505071392868,-0.6214634443679501,-0.5646741390228271,0.713869035243988,-0.4141664505004883,0,0,0,-1,-1,10078.943875375,unknown,2,2025-04-20T23:15:47.951+03:00,2025-04-20T21:57:49.637+03:00,29,4.348656,0,0,23.86625,0,0,2025-04-20T22:59:32.906+03:00,766872950.634814,0,-0.8999996,99.74757,1,0.95,2025-04-20T23:15:47.660+03:00,101,1.683333333333333,2025-04-19T12:19:17.059+03:00,0.05691595998002078,0
2025-04-20T23:15:52.415+03:00,1745180151.14359,40.985586866833,29.13735278228028,126.3665,-1,-1,-1,-1,30,22.26780044147412,-9999,10083.40264475,-0.5959930419921875,0.695587158203125,0.2069854736328125,10083.39383675,-1.896569323427765,-0.9230794718678451,-0.7823975296923851,0.8526918888092041,1.582909345626831,-1.001313328742981,-0.01672464609146118,-0.00332176685333252,0.543005108833313,XArbitraryZVertical,0.5335221311345451,-0.03731620613622121,0.5734498768216227,-0.620577710220377,-0.565581202507019,0.704981803894043,-0.4279232621192932,0,0,0,-1,-1,10078.943875375,unknown,2,2025-04-20T23:15:47.951+03:00,2025-04-20T21:57:49.637+03:00,29,4.348656,0,0,23.86625,0,0,2025-04-20T22:59:32.906+03:00,766872950.634814,0,-0.8999996,99.74757,1,0.95,2025-04-20T23:15:47.660+03:00,101,1.683333333333333,2025-04-19T12:19:17.059+03:00,0.05691595998002078,0
2025-04-20T23:15:52.425+03:00,1745180151.14359,40.985586866833,29.13735278228028,126.3665,-1,-1,-1,-1,30,22.26780044147412,-9999,10083.41272075,-0.5708770751953125,0.71136474609375,0.281005859375,10083.40391275,-1.896378420801359,-0.9052687869203804,-0.7688288804461929,0.7802371382713318,1.912613272666931,-1.121352434158325,-0.03068047761917114,-0.003124833106994629,0.6191179156303406,XArbitraryZVertical,0.5260161237611866,-0.03754807414241253,0.5815951360518696,-0.6193901842556734,-0.5653430223464966,0.6952940225601196,-0.4437943696975708,0,0,0,-1,-1,10078.943875375,unknown,2,2025-04-20T23:15:47.951+03:00,2025-04-20T21:57:49.637+03:00,29,4.348656,0,0,23.86625,0,0,2025-04-20T22:59:32.906+03:00,766872950.634814,0,-0.8999996,99.74757,1,0.95,2025-04-20T23:15:47.660+03:00,101,1.683333333333333,2025-04-19T12:19:17.059+03:00,0.05691595998002078,0
2025-04-20T23:15:52.435+03:00,1745180151.14359,40.985586866833,29.13735278228028,126.3665,-1,-1,-1,-1,30,22.26780044147412,-9999,10083.42279775,-0.515777587890625,0.7216644287109375,0.2941131591796875,10083.41398875,-1.899496551123464,-0.8870402744488811,-0.7556164486304919,0.5115833282470703,2.119702339172363,-1.189023017883301,-0.0237497091293335,0.01612097024917603,0.7043567895889282,XArbitraryZVertical,0.5182600798075584,-0.03888526281444002,0.5906657862991609,-0.6172587053035575,-0.5642324686050415,0.6857374906539917,-0.4597888588905334,0,0,0,-1,-1,10078.943875375,unknown,2,2025-04-20T23:15:47.951+03:00,2025-04-20T21:57:49.637+03:00,29,4.348656,0,0,23.86625,0,0,2025-04-20T22:59:32.906+03:00,766872950.634814,0,-0.8999996,99.74757,1,0.95,2025-04-20T23:15:47.660+03:00,101,1.683333333333333,2025-04-19T12:19:17.059+03:00,0.05691595998002078,0
2025-04-20T23:15:52.445+03:00,1745180151.14359,40.985586866833,29.13735278228028,126.3665,-1,-1,-1,-1,30,22.26780044147412,-9999,10083.432875,-0.450714111328125,0.6443939208984375,0.1938629150390625,10083.42406575,-1.905274057941363,-0.8691356533694063,-0.7441687857471838,0.3025838136672974,2.195401668548584,-1.090937376022339,0.01478064060211182,0.04537194967269897,0.7785947322845459,XArbitraryZVertical,0.5107405409523526,-0.04144255624701958,0.5999102976775215,-0.614438132416245,-0.5618692636489868,0.6773605346679688,-0.4748532176017761,0,0,0,-1,-1,10078.943875375,unknown,2,2025-04-20T23:15:47.951+03:00,2025-04-20T21:57:49.637+03:00,29,4.348656,0,0,23.86625,0,0,2025-04-20T22:59:32.906+03:00,766872950.634814,0,-0.8999996,99.74757,1,0.95,2025-04-20T23:15:47.660+03:00,101,1.683333333333333,2025-04-19T12:19:17.059+03:00,0.05691595998002078,0
2025-04-20T23:15:52.455+03:00,1745180151.14359,40.985586866833,29.13735278228028,126.3665,-1,-1,-1,-1,30,22.26780044147412,-9999,10083.442951,-0.4268951416015625,0.5298614501953125,0.0754852294921875,10083.434143,-1.912180888488992,-0.8513592715862375,-0.7348516698327259,0.1436613351106644,2.270609855651855,-0.9726007580757141,0.07609856128692627,0.02575081586837769,0.741909384727478,XArbitraryZVertical,0.5035097609422187,-0.0450143472720334,0.608830069893034,-0.6113733871194008,-0.5580626130104065,0.6704770922660828,-0.4889032542705536,0,0,0,-1,-1,10078.943875375,unknown,2,2025-04-20T23:15:47.951+03:00,2025-04-20T21:57:49.637+03:00,29,4.348656,0,0,23.86625,0,0,2025-04-20T22:59:32.906+03:00,766872950.634814,0,-0.8999996,99.74757,1,0.95,2025-04-20T23:15:47.660+03:00,101,1.683333333333333,2025-04-19T12:19:17.059+03:00,0.05691595998002078,0
2025-04-20T23:15:52.465+03:00,1745180151.14359,40.985586866833,29.13735278228028,126.3665,-1,-1,-1,-1,30,22.26780044147412,-9999,10083.453028,-0.4646759033203125,0.5219573974609375,-0.0127716064453125,10083.444219,-1.91952180555618,-0.8326304883827206,-0.7269539706259871,0.1192097887396812,2.428406953811646,-0.9348936080932617,0.12096107006073,-0.08357256650924683,0.6352475881576538,XArbitraryZVertical,0.4961290848035447,-0.04947402983061269,0.6176694267130729,-0.6081880188951824,-0.5527085065841675,0.6645967364311218,-0.5028164982795715,0,0,0,-1,-1,10078.943875375,unknown,2,2025-04-20T23:15:47.951+03:00,2025-04-20T21:57:49.637+03:00,29,4.348656,0,0,23.86625,0,0,2025-04-20T22:59:32.906+03:00,766872950.634814,0,-0.8999996,99.74757,1,0.95,2025-04-20T23:15:47.660+03:00,101,1.683333333333333,2025-04-19T12:19:17.059+03:00,0.05691595998002078,0
2025-04-20T23:15:52.475+03:00,1745180151.14359,40.985586866833,29.13735278228028,126.3665,-1,-1,-1,-1,30,22.26780044147412,-9999,10083.463104,-0.5206298828125,0.6296844482421875,-0.0762481689453125,10083.454296,-1.926839402001748,-0.8120387908641997,-0.7185351770982851,0.2252869457006454,2.620939493179321,-1.047210693359375,0.1069329977035522,-0.1485475897789001,0.5450518131256104,XArbitraryZVertical,0.4879544400225905,-0.05421871660949582,0.6269740289210176,-0.6048671759953484,-0.54627925157547,0.6582826972007751,-0.5179215669631958,0,0,0,-1,-1,10078.943875375,unknown,2,2025-04-20T23:15:47.951+03:00,2025-04-20T21:57:49.637+03:00,29,4.348656,0,0,23.86625,0,0,2025-04-20T22:59:32.906+03:00,766872950.634814,0,-0.8999996,99.74757,1,0.95,2025-04-20T23:15:47.660+03:00,101,1.683333333333333,2025-04-19T12:19:17.059+03:00,0.05691595998002078,0
2025-04-20T23:15:52.485+03:00,1745180151.14359,40.985586866833,29.13735278228028,126.3665,-1,-1,-1,-1,30,22.26780044147412,-9999,10083.47318,-0.534210205078125,0.78515625,-0.1642303466796875,10083.464372,-1.934840410478022,-0.7903448756390021,-0.7082124672067809,0.333864837884903,2.716439485549927,-1.268043637275696,0.04510235786437988,-0.08684796094894409,0.4890535473823547,XArbitraryZVertical,0.4789165393710019,-0.05863135349928272,0.6370682089425811,-0.6011201781218077,-0.5397160053253174,0.6504771113395691,-0.53440260887146,0,0,0,-1,-1,10078.943875375,unknown,2,2025-04-20T23:15:47.951+03:00,2025-04-20T21:57:49.637+03:00,29,4.348656,0,0,23.86625,0,0,2025-04-20T22:59:32.906+03:00,766872950.634814,0,-0.8999996,99.74757,1,0.95,2025-04-20T23:15:47.660+03:00,101,1.683333333333333,2025-04-19T12:19:17.059+03:00,0.05691595998002078,0
2025-04-20T23:15:52.495+03:00,1745180151.14359,40.985586866833,29.13735278228028,126.3665,-1,-1,-1,-1,30,22.26780044147412,-9999,10083.483257,-0.5096893310546875,0.832244873046875,-0.27520751953125,10083.474448,-1.94530116294205,-0.7690134332921973,-0.6957373668254517,0.2764036059379578,2.884308576583862,-1.612043499946594,-0.001802325248718262,0.06922298669815063,0.4382394552230835,XArbitraryZVertical,0.4693553495560993,-0.06256774733993599,0.6481517224117226,-0.5963976087900682,-0.5337964296340942,0.6409515738487244,-0.5515816807746887,0,0,0,-1,-1,10078.943875375,unknown,2,2025-04-20T23:15:47.951+03:00,2025-04-20T21:57:49.637+03:00,29,4.348656,0,0,23.86625,0,0,2025-04-20T22:59:32.906+03:00,766872950.634814,0,-0.8999996,99.74757,1,0.95,2025-04-20T23:15:47.660+03:00,101,1.683333333333333,2025-04-19T12:19:17.059+03:00,0.05691595998002078,0
2025-04-20T23:15:52.505+03:00,1745180151.14359,40.985586866833,29.13735278228028,126.3665,-1,-1,-1,-1,30,22.26780044147412,-9999,10083.493333,-0.5020904541015625,0.7111968994140625,-0.3452911376953125,10083.484525,-1.959708329358772,-0.7475580099063213,-0.6820332264810137,0.2000939100980759,3.206153631210327,-1.809569835662842,0.006217122077941895,0.1997054219245911,0.3477376103401184,XArbitraryZVertical,0.4592228267393186,-0.06683417707011782,0.660524381102548,-0.5902161937501386,-0.5277625322341919,0.6303727030754089,-0.5692951679229736,0,0,0,-1,-1,10078.943875375,unknown,2,2025-04-20T23:15:47.951+03:00,2025-04-20T21:57:49.637+03:00,29,4.348656,0,0,23.86625,0,0,2025-04-20T22:59:32.906+03:00,766872950.634814,0,-0.8999996,99.74757,1,0.95,2025-04-20T23:15:47.660+03:00,101,1.683333333333333,2025-04-19T12:19:17.059+03:00,0.05691595998002078,0
2025-04-20T23:15:52.515+03:00,1745180151.14359,40.985586866833,29.13735278228028,126.3665,-1,-1,-1,-1,30,22.26780044147412,-9999,10083.503409,-0.4068145751953125,0.5502166748046875,-0.3559417724609375,10083.494601,-1.974452198088984,-0.7234755620106282,-0.66921899750794,0.1529425233602524,3.359090805053711,-1.582197308540344,0.01294976472854614,0.1689330339431763,0.2723696231842041,XArbitraryZVertical,0.448190765732622,-0.07212839142786398,0.6731687335043233,-0.5837519592409005,-0.5192058682441711,0.6203736066818237,-0.5878450870513916,0,0,0,-1,-1,10078.943875375,unknown,2,2025-04-20T23:15:47.951+03:00,2025-04-20T21:57:49.637+03:00,29,4.348656,0,0,23.86625,0,0,2025-04-20T22:59:32.906+03:00,766872950.634814,0,-0.8999996,99.74757,1,0.95,2025-04-20T23:15:47.660+03:00,101,1.683333333333333,2025-04-19T12:19:17.059+03:00,0.05691595998002078,0
2025-04-20T23:15:52.526+03:00,1745180151.14359,40.985586866833,29.13735278228028,126.3665,-1,-1,-1,-1,30,22.26780044147412,-9999,10083.513486,-0.1667022705078125,0.4167633056640625,-0.264617919921875,10083.504677,-1.980970225519189,-0.6976068823503313,-0.6529871940925741,2.145065069198608,2.439172029495239,-1.209028720855713,0.03587907552719116,0.01395922899246216,0.2420166730880737,XArbitraryZVertical,0.4359819758804037,-0.07457751143030969,0.684313692482774,-0.5797176975219357,-0.5102290511131287,0.6075617671012878,-0.608715832233429,0,0,0,-1,-1,10078.943875375,unknown,2,2025-04-20T23:15:47.951+03:00,2025-04-20T21:57:49.637+03:00,29,4.348656,0,0,23.86625,0,0,2025-04-20T22:59:32.906+03:00,766872950.634814,0,-0.8999996,99.74757,1,0.95,2025-04-20T23:15:47.660+03:00,101,1.683333333333333,2025-04-19T12:19:17.059+03:00,0.05691595998002078,0
2025-04-20T23:15:52.536+03:00,1745180151.14359,40.985586866833,29.13735278228028,126.3665,-1,-1,-1,-1,30,22.26780044147412,-9999,10083.523562,0.1570281982421875,0.462188720703125,-0.9975738525390625,10083.514754,-1.971919885450999,-0.6798311607285595,-0.6292723068297778,1.201990604400635,0.3324873745441437,-0.9612084627151489,0.2031153440475464,-0.09745252132415771,0.3374441862106323,XArbitraryZVertical,0.4254207057906247,-0.06824693507638227,0.6905427171005172,-0.5809563935380756,-0.5082453489303589,0.5885565876960754,-0.62871915102005,0,0,0,-1,-1,10078.943875375,unknown,2,2025-04-20T23:15:47.951+03:00,2025-04-20T21:57:49.637+03:00,29,4.348656,0,0,23.86625,0,0,2025-04-20T22:59:32.906+03:00,766872950.634814,0,-0.8999996,99.74757,1,0.95,2025-04-20T23:15:47.660+03:00,101,1.683333333333333,2025-04-19T12:19:17.059+03:00,0.05691595998002078,0
2025-04-20T23:15:52.546+03:00,1745180151.14359,40.985586866833,29.13735278228028,126.3665,-1,-1,-1,-1,30,22.26780044147412,-9999,10083.533638,-0.1659088134765625,-0.2816009521484375,-2.952239990234375,10083.52483,-2.003941957640971,-0.6905181133471048,-0.6294124641200187,-3.450902223587036,-0.7714592218399048,-2.439831495285034,0.5241143107414246,-0.2020121812820435,0.1736643314361572,XArbitraryZVertical,0.4280341619148997,-0.07206019594377033,0.6974491092449047,-0.5702270001075113,-0.5148827433586121,0.5886698961257935,-0.6231881976127625,0,0,0,-1,-1,10078.943875375,unknown,2,2025-04-20T23:15:47.951+03:00,2025-04-20T21:57:49.637+03:00,29,4.348656,0,0,23.86625,0,0,2025-04-20T22:59:32.906+03:00,766872950.634814,0,-0.8999996,99.74757,1,0.95,2025-04-20T23:15:47.660+03:00,101,1.683333333333333,2025-04-19T12:19:17.059+03:00,0.05691595998002078,0
2025-04-20T23:15:52.556+03:00,1745180151.14359,40.985586866833,29.13735278228028,126.3665,-1,-1,-1,-1,30,22.26780044147412,-9999,10083.543715,-1.250595092773438,-1.884017944335938,-2.831954956054688,10083.534906,-2.05853384848308,-0.7293048419361642,-0.6433526859236041,-4.607027530670166,-0.2878128588199615,-1.899020910263062,0.6771376729011536,-0.2147647142410278,-1.350154876708984,XArbitraryZVertical,0.4421713490043777,-0.07871594616957155,0.7013962426688592,-0.5534722211593565,-0.5331404805183411,0.5998812317848206,-0.5965765714645386,0,0,0,-1,-1,10078.943875375,unknown,2,2025-04-20T23:15:47.951+03:00,2025-04-20T21:57:49.637+03:00,29,4.348656,0,0,23.86625,0,0,2025-04-20T22:59:32.906+03:00,766872950.634814,0,-0.8999996,99.74757,1,0.95,2025-04-20T23:15:47.660+03:00,101,1.683333333333333,2025-04-19T12:19:17.059+03:00,0.05691595998002078,0
2025-04-20T23:15:52.566+03:00,1745180151.14359,40.985586866833,29.13735278228028,126.3665,-1,-1,-1,-1,30,22.26780044147412,-9999,10083.553791,0.2004852294921875,0.2126922607421875,-1.443695068359375,10083.544983,-2.099478918197511,-0.7654791100015269,-0.6649865117016842,-2.596736192703247,-1.893990874290466,-0.1837896555662155,-0.2499346137046814,-1.969084024429321,-2.768280506134033,XArbitraryZVertical,0.4568875975444321,-0.08687575964258973,0.6997961659656566,-0.5422098062411815,-0.5452466011047363,0.6170485019683838,-0.5674126744270325,0,0,0,-1,-1,10078.943875375,unknown,2,2025-04-20T23:15:47.951+03:00,2025-04-20T21:57:49.637+03:00,29,4.348656,0,0,23.86625,0,0,2025-04-20T22:59:32.906+03:00,766872950.634814,0,-0.8999996,99.74757,1,0.95,2025-04-20T23:15:47.660+03:00,101,1.683333333333333,2025-04-19T12:19:17.059+03:00,0.05691595998002078,0
2025-04-20T23:15:52.576+03:00,1745180151.14359,40.985586866833,29.13735278228028,126.3665,-1,-1,-1,-1,30,22.26780044147412,-9999,10083.563867,1.06304931640625,1.8887939453125,-1.358535766601562,10083.555059,-2.118042017151504,-0.8015260500766741,-0.6768062193204017,-1.18246853351593,-2.853717565536499,-0.4168339669704437,-0.2849234938621521,-1.839303970336914,-1.447936534881592,XArbitraryZVertical,0.4705443548543469,-0.08629490538204264,0.6938366998530043,-0.5382673010991843,-0.5600624084472656,0.626306414604187,-0.5422824025154114,0,0,0,-1,-1,10078.943875375,unknown,2,2025-04-20T23:15:47.951+03:00,2025-04-20T21:57:49.637+03:00,29,4.348656,0,0,23.86625,0,0,2025-04-20T22:59:32.906+03:00,766872950.634814,0,-0.8999996,99.74757,1,0.95,2025-04-20T23:15:47.660+03:00,101,1.683333333333333,2025-04-19T12:19:17.059+03:00,0.05691595998002078,0
2025-04-20T23:15:52.586+03:00,1745180151.14359,40.985586866833,29.13735278228028,126.3665,-1,-1,-1,-1,30,22.26780044147412,-9999,10083.573944,-0.3474578857421875,1.375518798828125,-0.9967041015625,10083.565135,-2.131786031349756,-0.8342099500888586,-0.6812246565751016,-1.021121263504028,-1.860033631324768,-0.2627274990081787,1.565891742706299,0.7867132425308228,-0.7892691493034363,XArbitraryZVertical,0.4819362038780432,-0.08260770978772937,0.6887497824708815,-0.535291521316683,-0.5754284858703613,0.629744827747345,-0.5218269228935242,0,0,0,-1,-1,10078.943875375,unknown,2,2025-04-20T23:15:47.951+03:00,2025-04-20T21:57:49.637+03:00,29,4.348656,0,0,23.86625,0,0,2025-04-20T22:59:32.906+03:00,766872950.634814,0,-0.8999996,99.74757,1,0.95,2025-04-20T23:15:47.660+03:00,101,1.683333333333333,2025-04-19T12:19:17.059+03:00,0.05691595998002078,0
2025-04-20T23:15:52.596+03:00,1745180151.14359,40.985586866833,29.13735278228028,126.3665,-1,-1,-1,-1,30,22.26780044147412,-9999,10083.58402,-1.326324462890625,0.7543792724609375,-0.5684051513671875,10083.575212,-2.141592354352565,-0.8543048481411051,-0.6860212258197034,-0.7226805090904236,-0.9389492869377136,-0.0846758559346199,1.091264486312866,1.121907472610474,-0.7766661643981934,XArbitraryZVertical,0.4891410917762892,-0.08158561729780063,0.6854023417344692,-0.5332056544332605,-0.583513081073761,0.6334635615348816,-0.5081695318222046,0,0,0,-1,-1,10078.943875375,unknown,2,2025-04-20T23:15:47.951+03:00,2025-04-20T21:57:49.637+03:00,29,4.348656,0,0,23.86625,0,0,2025-04-20T22:59:32.906+03:00,766872950.634814,0,-0.8999996,99.74757,1,0.95,2025-04-20T23:15:47.660+03:00,101,1.683333333333333,2025-04-19T12:19:17.059+03:00,0.05691595998002078,0
2025-04-20T23:15:52.606+03:00,1745180151.14359,40.985586866833,29.13735278228028,126.3665,-1,-1,-1,-1,30,22.26780044147412,-9999,10083.594096,-1.003463745117188,0.413848876953125,-0.564849853515625,10083.585288,-2.148264947318124,-0.8654038750780143,-0.6896888503666907,-0.5678997039794922,-0.5031059384346008,-0.006445763632655144,-0.4666564464569092,0.3778476119041443,-0.1956636309623718,XArbitraryZVertical,0.4931909899251504,-0.08177098211518674,0.6836154321968855,-0.5317385948373913,-0.5873443484306335,0.6362971663475037,-0.5001522898674011,0,0,0,-1,-1,10078.943875375,unknown,2,2025-04-20T23:15:47.951+03:00,2025-04-20T21:57:49.637+03:00,29,4.348656,0,0,23.86625,0,0,2025-04-20T22:59:32.906+03:00,766872950.634814,0,-0.8999996,99.74757,1,0.95,2025-04-20T23:15:47.660+03:00,101,1.683333333333333,2025-04-19T12:19:17.059+03:00,0.05691595998002078,0
2025-04-20T23:15:52.616+03:00,1745180151.14359,40.985586866833,29.13735278228028,126.3665,-1,-1,-1,-1,30,22.26780044147412,-9999,10083.604173,-0.637786865234375,0.3872222900390625,-0.499908447265625,10083.595364,-2.153523800503441,-0.8741230103815252,-0.6936889428691455,-0.5442920327186584,-0.5652320981025696,0.0564340315759182,-0.6438096761703491,-0.07605403661727905,-0.07339730858802795,XArbitraryZVertical,0.4965116252654092,-0.08239340408706329,0.6819371037980946,-0.5307062933068928,-0.5897260308265686,0.6393779516220093,-0.4933750629425049,0,0,0,-1,-1,10078.943875375,unknown,2,2025-04-20T23:15:47.951+03:00,2025-04-20T21:57:49.637+03:00,29,4.348656,0,0,23.86625,0,0,2025-04-20T22:59:32.906+03:00,766872950.634814,0,-0.8999996,99.74757,1,0.95,2025-04-20T23:15:47.660+03:00,101,1.683333333333333,2025-04-19T12:19:17.059+03:00,0.05691595998002078,0
2025-04-20T23:15:52.626+03:00,1745180151.14359,40.985586866833,29.13735278228028,126.3665,-1,-1,-1,-1,30,22.26780044147412,-9999,10083.614249,-0.563140869140625,0.7149505615234375,-0.4922943115234375,10083.605441,-2.158354869935421,-0.8827994692764338,-0.6965350874111176,-0.3649015128612518,-0.525303065776825,-0.1116718873381615,-0.1934191584587097,-0.2987750768661499,-0.04319101572036743,XArbitraryZVertical,0.4996589317195976,-0.08246074353033729,0.6804013982344282,-0.5297122397953841,-0.5925763249397278,0.6415637135505676,-0.4870823621749878,0,0,0,-1,-1,10078.943875375,unknown,2,2025-04-20T23:15:47.951+03:00,2025-04-20T21:57:49.637+03:00,29,4.348656,0,0,23.86625,0,0,2025-04-20T22:59:32.906+03:00,766872950.634814,0,-0.8999996,99.74757,1,0.95,2025-04-20T23:15:47.660+03:00,101,1.683333333333333,2025-04-19T12:19:17.059+03:00,0.05691595998002078,0
2025-04-20T23:15:52.637+03:00,1745180151.14359,40.985586866833,29.13735278228028,126.3665,-1,-1,-1,-1,30,22.26780044147412,-9999,10083.624325,-0.5103912353515625,0.9724578857421875,-0.482635498046875,10083.615517,-2.162577019188944,-0.8905585121672719,-0.6966130528443079,-0.1414797902107239,-0.4682280123233795,-0.300912082195282,0.02226322889328003,-0.1104346513748169,-0.007155030965805054,XArbitraryZVertical,0.5021344418017317,-0.08149720567703608,0.6795572014906649,-0.5286029465904104,-0.5962988138198853,0.6416234970092773,-0.4824384152889252,0,0,0,-1,-1,10078.943875375,unknown,2,2025-04-20T23:15:47.951+03:00,2025-04-20T21:57:49.637+03:00,29,4.348656,0,0,23.86625,0,0,2025-04-20T22:59:32.906+03:00,766872950.634814,0,-0.8999996,99.74757,1,0.95,2025-04-20T23:15:47.660+03:00,101,1.683333333333333,2025-04-19T12:19:17.059+03:00,0.05691595998002078,0
2025-04-20T23:15:52.646+03:00,1745180151.14359,40.985586866833,29.13735278228028,126.3665,-1,-1,-1,-1,30,22.26780044147412,-9999,10083.634402,-0.4311065673828125,0.945709228515625,-0.4606781005859375,10083.625593,-2.166545445262273,-0.8976593470536854,-0.694722524952671,-0.122334860265255,-0.4554911851882935,-0.3464758396148682,0.05071485042572021,0.2348734140396118,-0.01308742165565491,XArbitraryZVertical,0.5041334899787544,-0.07984807122673082,0.6792552896077829,-0.5273383540489986,-0.6006568074226379,0.6401723027229309,-0.4789474308490753,0,0,0,-1,-1,10078.943875375,unknown,2,2025-04-20T23:15:47.951+03:00,2025-04-20T21:57:49.637+03:00,29,4.348656,0,0,23.86625,0,0,2025-04-20T22:59:32.906+03:00,766872950.634814,0,-0.8999996,99.74757,1,0.95,2025-04-20T23:15:47.660+03:00,101,1.683333333333333,2025-04-19T12:19:17.059+03:00,0.05691595998002078,0
2025-04-20T23:15:52.657+03:00,1745180151.14359,40.985586866833,29.13735278228028,126.3665,-1,-1,-1,-1,30,22.26780044147412,-9999,10083.644478,-0.481719970703125,0.7744293212890625,-0.466461181640625,10083.63567,-2.1715912142398,-0.9052982097806004,-0.6936126321796373,-0.3757566809654236,-0.4234021604061127,-0.2798329889774323,0.1434764862060547,0.3536006808280945,0.005408167839050293,XArbitraryZVertical,0.5063804006828315,-0.07865776930835205,0.6789105754938468,-0.5258063572413767,-0.6048564910888672,0.6393192410469055,-0.4747836887836456,0,0,0,-1,-1,10078.943875375,unknown,2,2025-04-20T23:15:47.951+03:00,2025-04-20T21:57:49.637+03:00,29,4.348656,0,0,23.86625,0,0,2025-04-20T22:59:32.906+03:00,766872950.634814,0,-0.8999996,99.74757,1,0.95,2025-04-20T23:15:47.660+03:00,101,1.683333333333333,2025-04-19T12:19:17.059+03:00,0.05691595998002078,0
2025-04-20T23:15:52.667+03:00,1745180151.14359,40.985586866833,29.13735278228028,126.3665,-1,-1,-1,-1,30,22.26780044147412,-9999,10083.654554,-0.61767578125,0.6084136962890625,-0.4482269287109375,10083.645746,-2.179337228920122,-0.9144757809986832,-0.6952707826985479,-0.7824195027351379,-0.4060207903385162,-0.1844574809074402,0.1710307002067566,0.2214213013648987,0.007505595684051514,XArbitraryZVertical,0.5094046418211713,-0.07889458276436147,0.6782287965589081,-0.5237253374359351,-0.6083475947380066,0.640593409538269,-0.4685651063919067,0,0,0,-1,-1,10078.943875375,unknown,2,2025-04-20T23:15:47.951+03:00,2025-04-20T21:57:49.637+03:00,29,4.348656,0,0,23.86625,0,0,2025-04-20T22:59:32.906+03:00,766872950.634814,0,-0.8999996,99.74757,1,0.95,2025-04-20T23:15:47.660+03:00,101,1.683333333333333,2025-04-19T12:19:17.059+03:00,0.05691595998002078,0
2025-04-20T23:15:52.677+03:00,1745180151.14359,40.985586866833,29.13735278228028,126.3665,-1,-1,-1,-1,30,22.26780044147412,-9999,10083.664631,-0.696319580078125,0.500640869140625,-0.3830413818359375,10083.655822,-2.190336736930044,-0.9257570856724315,-0.6998664670601974,-1.101952910423279,-0.4320687353610992,-0.093036949634552,0.0621635913848877,0.0465276837348938,-0.005495399236679077,XArbitraryZVertical,0.5133698212296227,-0.08063901041835259,0.6771508966101372,-0.520975300198222,-0.6112357974052429,0.6441155672073364,-0.4598975479602814,0,0,0,-1,-1,10078.943875375,unknown,2,2025-04-20T23:15:47.951+03:00,2025-04-20T21:57:49.637+03:00,29,4.348656,0,0,23.86625,0,0,2025-04-20T22:59:32.906+03:00,766872950.634814,0,-0.8999996,99.74757,1,0.95,2025-04-20T23:15:47.660+03:00,101,1.683333333333333,2025-04-19T12:19:17.059+03:00,0.05691595998002078,0
2025-04-20T23:15:52.687+03:00,1745180151.14359,40.985586866833,29.13735278228028,126.3665,-1,-1,-1,-1,30,22.26780044147412,-9999,10083.674707,-0.6820068359375,0.559356689453125,-0.3639984130859375,10083.665899,-2.203003590339236,-0.9385406816690969,-0.7066324331496042,-1.195775270462036,-0.4728374779224396,0.03659268468618393,-0.05710381269454956,-0.1105341911315918,0.03373503684997559,XArbitraryZVertical,0.517998614985169,-0.0833492542227751,0.6755685955359191,-0.5180129374111514,-0.6135352253913879,0.6492762565612793,-0.4494606852531433,0,0,0,-1,-1,10078.943875375,unknown,2,2025-04-20T23:15:47.951+03:00,2025-04-20T21:57:49.637+03:00,29,4.348656,0,0,23.86625,0,0,2025-04-20T22:59:32.906+03:00,766872950.634814,0,-0.8999996,99.74757,1,0.95,2025-04-20T23:15:47.660+03:00,101,1.683333333333333,2025-04-19T12:19:17.059+03:00,0.05691595998002078,0
2025-04-20T23:15:52.697+03:00,1745180151.14359,40.985586866833,29.13735278228028,126.3665,-1,-1,-1,-1,30,22.26780044147412,-9999,10083.684783,-0.623321533203125,0.656829833984375,-0.401580810546875,10083.675975,-2.215093446547284,-0.9517064449641557,-0.7140430174050745,-1.140169501304626,-0.5820363163948059,0.08091158419847488,-0.08175599575042725,-0.1437709331512451,0.07596078515052795,XArbitraryZVertical,0.5227936838850257,-0.0861204593828533,0.6735305089600518,-0.5153897306305413,-0.6154637932777405,0.6548945307731628,-0.4385400712490082,0,0,0,-1,-1,10078.943875375,unknown,2,2025-04-20T23:15:47.951+03:00,2025-04-20T21:57:49.637+03:00,29,4.348656,0,0,23.86625,0,0,2025-04-20T22:59:32.906+03:00,766872950.634814,0,-0.8999996,99.74757,1,0.95,2025-04-20T23:15:47.660+03:00,101,1.683333333333333,2025-04-19T12:19:17.059+03:00,0.05691595998002078,0
2025-04-20T23:15:52.709+03:00,1745180151.14359,40.985586866833,29.13735278228028,126.3665,-1,-1,-1,-1,30,22.26780044147412,-9999,10083.69486,-0.574859619140625,0.6814422607421875,-0.4077301025390625,10083.686051,-2.226236566884862,-0.9654100509767529,-0.7210261709088666,-1.025060772895813,-0.6646747589111328,0.1035399287939072,-0.03722167015075684,-0.04507404565811157,0.04515844583511353,XArbitraryZVertical,0.5276969806252397,-0.0883733911507882,0.6711523131324059,-0.5131086721470154,-0.6176397800445557,0.6601558327674866,-0.4274520874023438,0,0,0,-1,-1,10078.943875375,unknown,2,2025-04-20T23:15:47.951+03:00,2025-04-20T21:57:49.637+03:00,29,4.348656,0,0,23.86625,0,0,2025-04-20T22:59:32.906+03:00,766872950.634814,0,-0.8999996,99.74757,1,0.95,2025-04-20T23:15:47.660+03:00,101,1.683333333333333,2025-04-19T12:19:17.059+03:00,0.05691595998002078,0
2025-04-20T23:15:52.717+03:00,1745180151.14359,40.985586866833,29.13735278228028,126.3665,-1,-1,-1,-1,30,22.26780044147412,-9999,10083.704936,-0.5676116943359375,0.6571502685546875,-0.39300537109375,10083.696128,-2.236495994985112,-0.9794933632294751,-0.7272889433966016,-0.915105938911438,-0.6921082735061646,0.101186491549015,0.02477097511291504,0.01325356960296631,0.007386863231658936,XArbitraryZVertical,0.5326287832862969,-0.09004022599210627,0.6685636750922351,-0.5110986723784715,-0.6201536059379578,0.6648469567298889,-0.416398674249649,0,0,0,-1,-1,10078.943875375,unknown,2,2025-04-20T23:15:47.951+03:00,2025-04-20T21:57:49.637+03:00,29,4.348656,0,0,23.86625,0,0,2025-04-20T22:59:32.906+03:00,766872950.634814,0,-0.8999996,99.74757,1,0.95,2025-04-20T23:15:47.660+03:00,101,1.683333333333333,2025-04-19T12:19:17.059+03:00,0.05691595998002078,0
