loggingTime(txt),locationTimestamp_since1970(s),locationLatitude(WGS84),locationLongitude(WGS84),locationAltitude(m),locationSpeed(m/s),locationSpeedAccuracy(m/s),locationCourse(°),locationCourseAccuracy(°),locationVerticalAccuracy(m),locationHorizontalAccuracy(m),locationFloor(Z),accelerometerTimestamp_sinceReboot(s),accelerometerAccelerationX(G),accelerometerAccelerationY(G),accelerometerAccelerationZ(G),motionTimestamp_sinceReboot(s),motionYaw(rad),motionRoll(rad),motionPitch(rad),motionRotationRateX(rad/s),motionRotationRateY(rad/s),motionRotationRateZ(rad/s),motionUserAccelerationX(G),motionUserAccelerationY(G),motionUserAccelerationZ(G),motionAttitudeReferenceFrame(txt),motionQuaternionX(R),motionQuaternionY(R),motionQuaternionZ(R),motionQuaternionW(R),motionGravityX(G),motionGravityY(G),motionGravityZ(G),motionMagneticFieldX(µT),motionMagneticFieldY(µT),motionMagneticFieldZ(µT),motionHeading(°),motionMagneticFieldCalibrationAccuracy(Z),activityTimestamp_sinceReboot(s),activity(txt),activityActivityConfidence(Z),activityActivityStartDate(txt),pedometerStartDate(txt),pedometerNumberofSteps(N),pedometerAverageActivePace(s/m),pedometerCurrentPace(s/m),pedometerCurrentCadence(steps/s),pedometerDistance(m),pedometerFloorAscended(N),pedometerFloorDescended(N),pedometerEndDate(txt),altimeterTimestamp_sinceReboot(s),altimeterReset(bool),altimeterRelativeAltitude(m),altimeterPressure(kPa),batteryState(N),batteryLevel(R),heartRateBPMTimestamp(txt),heartRateBPM(N),heartRateBPS(R),heartRateVariabilityTimestamp(txt),heartRateVariability(ms),label
2025-04-18T10:51:48.191+03:00,1744962707.979002,40.95360044731795,29.14099783666757,93.78481,-1,-1,-1,-1,30,24.95784727372706,-9999,62299.287812875,-0.620941162109375,0.70703125,-0.2570953369140625,62299.277736875,1.354777168411149,-1.204924718133531,-0.7764521008022026,0.02553829178214073,-0.03966944292187691,0.00691127497702837,-0.03848046064376831,0.002967357635498047,-0.00662606954574585,XArbitraryZVertical,0.08570010856049817,-0.6041858428173668,0.6451347730644172,0.4598001442699386,-0.666185736656189,0.7007527351379395,-0.2552299201488495,0,0,0,-1,-1,62298.38479475,unknown,2,2025-04-18T10:51:47.264+03:00,2025-04-17T15:44:39.500+03:00,7169,1.081054,0,0,5915.383,4,10,2025-04-18T10:45:51.293+03:00,766655507.3597906,0,108.1,100.5582,1,0.65,2025-04-18T10:51:44.544+03:00,90,1.5,2025-04-18T08:51:18.885+03:00,0.03057091307199995,1
2025-04-18T10:51:48.193+03:00,1744962707.979002,40.95360044731795,29.14099783666757,93.78481,-1,-1,-1,-1,30,24.95784727372706,-9999,62299.29788787501,-0.669952392578125,0.7075958251953125,-0.2628326416015625,62299.287812875,1.355146154755007,-1.205056026547607,-0.776291085514603,0.03271877393126488,-0.02964870072901249,0.0006704567931592464,0.02124404907226562,0.0009918808937072754,-0.003713041543960571,XArbitraryZVertical,0.08591253824901426,-0.6041751536302815,0.6451967888183142,0.4596876606262428,-0.6663247346878052,0.7006378769874573,-0.2551828324794769,0,0,0,-1,-1,62298.38479475,unknown,2,2025-04-18T10:51:47.264+03:00,2025-04-17T15:44:39.500+03:00,7169,1.081054,0,0,5915.383,4,10,2025-04-18T10:45:51.293+03:00,766655507.3597906,0,108.1,100.5582,1,0.65,2025-04-18T10:51:44.544+03:00,90,1.5,2025-04-18T08:51:18.885+03:00,0.03057091307199995,1
2025-04-18T10:51:48.194+03:00,1744962707.979002,40.95360044731795,29.14099783666757,93.78481,-1,-1,-1,-1,30,24.95784727372706,-9999,62299.30796387501,-0.6725616455078125,0.7017059326171875,-0.2619781494140625,62299.29788787501,1.355585842647246,-1.205092259499029,-0.7760050110974704,0.04419247061014175,-0.03553508222103119,-0.006956836208701134,0.03166377544403076,0.008764326572418213,-0.003268718719482422,XArbitraryZVertical,0.08616130709938356,-0.6041200779646231,0.6452657914216777,0.4596165041443221,-0.6665210127830505,0.7004337310791016,-0.2552303075790405,0,0,0,-1,-1,62298.38479475,unknown,2,2025-04-18T10:51:47.264+03:00,2025-04-17T15:44:39.500+03:00,7169,1.081054,0,0,5915.383,4,10,2025-04-18T10:45:51.293+03:00,766655507.3597906,0,108.1,100.5582,1,0.65,2025-04-18T10:51:44.544+03:00,90,1.5,2025-04-18T08:51:18.885+03:00,0.03057091307199995,1
2025-04-18T10:51:48.202+03:00,1744962707.979002,40.95360044731795,29.14099783666757,93.78481,-1,-1,-1,-1,30,24.95784727372706,-9999,62299.318039875,-0.6656646728515625,0.696258544921875,-0.256500244140625,62299.30796387501,1.356040771869606,-1.205255451607642,-0.7756034389352597,0.04300503060221672,-0.04637142270803452,-0.01846938394010067,-0.01223671436309814,0.004625916481018066,-0.008831262588500977,XArbitraryZVertical,0.08649765633926175,-0.6040754323003307,0.6453204754381749,0.4595351846388311,-0.6668252348899841,0.7001470327377319,-0.2552220523357391,0,0,0,-1,-1,62298.38479475,unknown,2,2025-04-18T10:51:47.264+03:00,2025-04-17T15:44:39.500+03:00,7169,1.081054,0,0,5915.383,4,10,2025-04-18T10:45:51.293+03:00,766655507.3597906,0,108.1,100.5582,1,0.65,2025-04-18T10:51:44.544+03:00,90,1.5,2025-04-18T08:51:18.885+03:00,0.03057091307199995,1
2025-04-18T10:51:48.212+03:00,1744962707.979002,40.95360044731795,29.14099783666757,93.78481,-1,-1,-1,-1,30,24.95784727372706,-9999,62299.328115875,-0.686279296875,0.685089111328125,-0.2570343017578125,62299.318039875,1.356473405032522,-1.205367672999058,-0.7752260369909356,0.03962095454335213,-0.02536467276513577,-0.01823901943862438,0.002061545848846436,0.0004246234893798828,-0.004996955394744873,XArbitraryZVertical,0.08680195326374436,-0.6040236715068987,0.6453747660104817,0.4594696621279952,-0.6671006679534912,0.6998775601387024,-0.2552416622638702,0,0,0,-1,-1,62298.38479475,unknown,2,2025-04-18T10:51:47.264+03:00,2025-04-17T15:44:39.500+03:00,7169,1.081054,0,0,5915.383,4,10,2025-04-18T10:45:51.293+03:00,766655507.3597906,0,108.1,100.5582,1,0.65,2025-04-18T10:51:44.544+03:00,90,1.5,2025-04-18T08:51:18.885+03:00,0.03057091307199995,1
2025-04-18T10:51:48.222+03:00,1744962707.979002,40.95360044731795,29.14099783666757,93.78481,-1,-1,-1,-1,30,24.95784727372706,-9999,62299.338190875,-0.68524169921875,0.687530517578125,-0.2573699951171875,62299.328115875,1.356781329125808,-1.205385175729785,-0.7749275722147146,0.03177880868315697,-0.01083200238645077,-0.01769010908901691,-0.005398869514465332,-0.00775456428527832,-0.001195639371871948,XArbitraryZVertical,0.08700934184857978,-0.6039677956203832,0.6454129205779053,0.4594501379732929,-0.6673001050949097,0.6996643543243408,-0.2553045451641083,0,0,0,-1,-1,62298.38479475,unknown,2,2025-04-18T10:51:47.264+03:00,2025-04-17T15:44:39.500+03:00,7169,1.081054,0,0,5915.383,4,10,2025-04-18T10:45:51.293+03:00,766655507.3597906,0,108.1,100.5582,1,0.65,2025-04-18T10:51:44.544+03:00,90,1.5,2025-04-18T08:51:18.885+03:00,0.03057091307199995,1
2025-04-18T10:51:48.232+03:00,1744962707.979002,40.95360044731795,29.14099783666757,93.78481,-1,-1,-1,-1,30,24.95784727372706,-9999,62299.348266875,-0.6765899658203125,0.6903839111328125,-0.2588043212890625,62299.338190875,1.357052196737371,-1.205299106925524,-0.7747826839862809,0.02266440913081169,-0.004774376284331083,-0.01445303577929735,-0.02133262157440186,-0.01509726047515869,-0.001910626888275146,XArbitraryZVertical,0.08711606293453411,-0.6039136204367679,0.645463436208579,0.4594302982138269,-0.6673728823661804,0.699560821056366,-0.2553982734680176,0,0,0,-1,-1,62298.38479475,unknown,2,2025-04-18T10:51:47.264+03:00,2025-04-17T15:44:39.500+03:00,7169,1.081054,0,0,5915.383,4,10,2025-04-18T10:45:51.293+03:00,766655507.3597906,0,108.1,100.5582,1,0.65,2025-04-18T10:51:44.544+03:00,90,1.5,2025-04-18T08:51:18.885+03:00,0.03057091307199995,1
2025-04-18T10:51:48.242+03:00,1744962707.979002,40.95360044731795,29.14099783666757,93.78481,-1,-1,-1,-1,30,24.95784727372706,-9999,62299.35834287501,-0.665771484375,0.6970977783203125,-0.258331298828125,62299.348266875,1.357328169303378,-1.205124410765387,-0.7747641533780597,0.0258105993270874,-0.006494845263659954,-0.01253266353160143,-0.01448333263397217,-0.01039958000183105,-0.002613365650177002,XArbitraryZVertical,0.08714971377621789,-0.6038585675559262,0.6455324612932164,0.4593994013571285,-0.6673404574394226,0.6995475888252258,-0.2555195093154907,0,0,0,-1,-1,62298.38479475,unknown,2,2025-04-18T10:51:47.264+03:00,2025-04-17T15:44:39.500+03:00,7169,1.081054,0,0,5915.383,4,10,2025-04-18T10:45:51.293+03:00,766655507.3597906,0,108.1,100.5582,1,0.65,2025-04-18T10:51:44.544+03:00,90,1.5,2025-04-18T08:51:18.885+03:00,0.03057091307199995,1
2025-04-18T10:51:48.252+03:00,1744962707.979002,40.95360044731795,29.14099783666757,93.78481,-1,-1,-1,-1,30,24.95784727372706,-9999,62299.368418875,-0.6556243896484375,0.702056884765625,-0.2550506591796875,62299.35834287501,1.357543492485604,-1.20510737809779,-0.7743684858604231,0.02465745061635971,-0.01187576167285442,-0.01935940980911255,-0.006157457828521729,-0.007538080215454102,-0.003540694713592529,XArbitraryZVertical,0.08735332379120231,-0.603783483132683,0.6455405060754482,0.4594480105287372,-0.6675944328308105,0.6992647647857666,-0.2556298077106476,0,0,0,-1,-1,62298.38479475,unknown,2,2025-04-18T10:51:47.264+03:00,2025-04-17T15:44:39.500+03:00,7169,1.081054,0,0,5915.383,4,10,2025-04-18T10:45:51.293+03:00,766655507.3597906,0,108.1,100.5582,1,0.65,2025-04-18T10:51:44.544+03:00,90,1.5,2025-04-18T08:51:18.885+03:00,0.03057091307199995,1
2025-04-18T10:51:48.262+03:00,1744962707.979002,40.95360044731795,29.14099783666757,93.78481,-1,-1,-1,-1,30,24.95784727372706,-9999,62299.378494875,-0.6543121337890625,0.70086669921875,-0.253082275390625,62299.368418875,1.3578829654328,-1.20497220156901,-0.7741696097514275,0.02728212811052799,-0.02203398942947388,-0.02161677181720734,0.006633222103118896,0.0002030730247497559,-0.001539081335067749,XArbitraryZVertical,0.08748452684014695,-0.6037065052502688,0.6456032025660111,0.4594362191331117,-0.6676898598670959,0.6991226077079773,-0.255769819021225,0,0,0,-1,-1,62298.38479475,unknown,2,2025-04-18T10:51:47.264+03:00,2025-04-17T15:44:39.500+03:00,7169,1.081054,0,0,5915.383,4,10,2025-04-18T10:45:51.293+03:00,766655507.3597906,0,108.1,100.5582,1,0.65,2025-04-18T10:51:44.544+03:00,90,1.5,2025-04-18T08:51:18.885+03:00,0.03057091307199995,1
2025-04-18T10:51:48.272+03:00,1744962707.979002,40.95360044731795,29.14099783666757,93.78481,-1,-1,-1,-1,30,24.95784727372706,-9999,62299.388569875,-0.653167724609375,0.6964874267578125,-0.2527618408203125,62299.378494875,1.358216859879538,-1.204962893249704,-0.7740717402091856,0.02498408779501915,-0.03272099047899246,-0.01835573092103004,0.01266086101531982,0.003568947315216064,0.002229958772659302,XArbitraryZVertical,0.08761795196743026,-0.6036744515677056,0.6456698814687524,0.4593591593387954,-0.6677513122558594,0.699052631855011,-0.2558005154132843,0,0,0,-1,-1,62298.38479475,unknown,2,2025-04-18T10:51:47.264+03:00,2025-04-17T15:44:39.500+03:00,7169,1.081054,0,0,5915.383,4,10,2025-04-18T10:45:51.293+03:00,766655507.3597906,0,108.1,100.5582,1,0.65,2025-04-18T10:51:44.544+03:00,90,1.5,2025-04-18T08:51:18.885+03:00,0.03057091307199995,1
2025-04-18T10:51:48.282+03:00,1744962707.979002,40.95360044731795,29.14099783666757,93.78481,-1,-1,-1,-1,30,24.95784727372706,-9999,62299.398645875,-0.663482666015625,0.6927642822265625,-0.2537384033203125,62299.388569875,1.358490638182635,-1.20505840479196,-0.7738259835165249,0.02055485174059868,-0.02850560657680035,-0.008805436082184315,0.01472258567810059,-0.000100553035736084,0.002502262592315674,XArbitraryZVertical,0.08782089205225581,-0.6036459376492945,0.6457023949716035,0.4593121418495753,-0.6679361462593079,0.6988768577575684,-0.2557981312274933,0,0,0,-1,-1,62298.38479475,unknown,2,2025-04-18T10:51:47.264+03:00,2025-04-17T15:44:39.500+03:00,7169,1.081054,0,0,5915.383,4,10,2025-04-18T10:45:51.293+03:00,766655507.3597906,0,108.1,100.5582,1,0.65,2025-04-18T10:51:44.544+03:00,90,1.5,2025-04-18T08:51:18.885+03:00,0.03057091307199995,1
2025-04-18T10:51:48.292+03:00,1744962707.979002,40.95360044731795,29.14099783666757,93.78481,-1,-1,-1,-1,30,24.95784727372706,-9999,62299.40872187501,-0.667694091796875,0.6869049072265625,-0.2527618408203125,62299.398645875,1.358711413120109,-1.205147890335826,-0.773757556245087,0.0113222049549222,-0.02570635639131069,0.0006921947933733463,0.0122876763343811,-0.004110455513000488,0.00290215015411377,XArbitraryZVertical,0.08794132240315181,-0.6036460772054284,0.6457418717499706,0.4592334170804702,-0.6680036783218384,0.6988279223442078,-0.2557554841041565,0,0,0,-1,-1,62298.38479475,unknown,2,2025-04-18T10:51:47.264+03:00,2025-04-17T15:44:39.500+03:00,7169,1.081054,0,0,5915.383,4,10,2025-04-18T10:45:51.293+03:00,766655507.3597906,0,108.1,100.5582,1,0.65,2025-04-18T10:51:44.544+03:00,90,1.5,2025-04-18T08:51:18.885+03:00,0.03057091307199995,1
2025-04-18T10:51:48.302+03:00,1744962707.979002,40.95360044731795,29.14099783666757,93.78481,-1,-1,-1,-1,30,24.95784727372706,-9999,62299.41879787501,-0.67120361328125,0.68463134765625,-0.25433349609375,62299.40872187501,1.358848585990767,-1.205289963085394,-0.773747058837998,0.006635507568717003,-0.01724209822714329,0.01294350158423185,0.001725971698760986,-0.008833169937133789,0.002229988574981689,XArbitraryZVertical,0.08803244475004833,-0.6036710244361043,0.6457659998849268,0.4591491625103694,-0.6680468320846558,0.6988204121589661,-0.2556631565093994,0,0,0,-1,-1,62298.38479475,unknown,2,2025-04-18T10:51:47.264+03:00,2025-04-17T15:44:39.500+03:00,7169,1.081054,0,0,5915.383,4,10,2025-04-18T10:45:51.293+03:00,766655507.3597906,0,108.1,100.5582,1,0.65,2025-04-18T10:51:44.544+03:00,90,1.5,2025-04-18T08:51:18.885+03:00,0.03057091307199995,1
2025-04-18T10:51:48.312+03:00,1744962707.979002,40.95360044731795,29.14099783666757,93.78481,-1,-1,-1,-1,30,24.95784727372706,-9999,62299.428873875,-0.6809844970703125,0.6882171630859375,-0.2547607421875,62299.41879787501,1.358970260708422,-1.20536374299769,-0.7736941710291492,0.005870913621038198,-0.009667268022894859,0.01453234348446131,0.0004670619964599609,-0.01358658075332642,0.00207182765007019,XArbitraryZVertical,0.08811223356195481,-0.6036743236219659,0.6457850481418036,0.4591027469159254,-0.6681001782417297,0.6987825632095337,-0.2556270956993103,0,0,0,-1,-1,62298.38479475,unknown,2,2025-04-18T10:51:47.264+03:00,2025-04-17T15:44:39.500+03:00,7169,1.081054,0,0,5915.383,4,10,2025-04-18T10:45:51.293+03:00,766655507.3597906,0,108.1,100.5582,1,0.65,2025-04-18T10:51:44.544+03:00,90,1.5,2025-04-18T08:51:18.885+03:00,0.03057091307199995,1
2025-04-18T10:51:48.323+03:00,1744962707.979002,40.95360044731795,29.14099783666757,93.78481,-1,-1,-1,-1,30,24.95784727372706,-9999,62299.438948875,-0.6805572509765625,0.697906494140625,-0.2567596435546875,62299.428873875,1.359201704835513,-1.205202378338316,-0.7737138738858802,0.02096910588443279,0.01499593257904053,0.02000284194946289,-0.007597923278808594,-0.01372277736663818,0.0002521276473999023,XArbitraryZVertical,0.08812282480377483,-0.6036301735240355,0.6458473834920225,0.4590710475437139,-0.6680460572242737,0.6987966895103455,-0.2557299733161926,0,0,0,-1,-1,62298.38479475,unknown,2,2025-04-18T10:51:47.264+03:00,2025-04-17T15:44:39.500+03:00,7169,1.081054,0,0,5915.383,4,10,2025-04-18T10:45:51.293+03:00,766655507.3597906,0,108.1,100.5582,1,0.65,2025-04-18T10:51:44.544+03:00,90,1.5,2025-04-18T08:51:18.885+03:00,0.03057091307199995,1
2025-04-18T10:51:48.333+03:00,1744962707.979002,40.95360044731795,29.14099783666757,93.78481,-1,-1,-1,-1,30,24.95784727372706,-9999,62299.449024875,-0.6786041259765625,0.6963653564453125,-0.2588043212890625,62299.438948875,1.359582867535981,-1.204736853167605,-0.7737115375809762,0.02107962593436241,0.02381951734423637,0.01425281167030334,-0.01330024003982544,-0.006992042064666748,0.0004416406154632568,XArbitraryZVertical,0.08808838285180043,-0.6035061638708621,0.6459551364662665,0.4590890428935657,-0.6679283976554871,0.698794960975647,-0.2560414969921112,0,0,0,-1,-1,62298.38479475,unknown,2,2025-04-18T10:51:47.264+03:00,2025-04-17T15:44:39.500+03:00,7169,1.081054,0,0,5915.383,4,10,2025-04-18T10:45:51.293+03:00,766655507.3597906,0,108.1,100.5582,1,0.65,2025-04-18T10:51:44.544+03:00,90,1.5,2025-04-18T08:51:18.885+03:00,0.03057091307199995,1
2025-04-18T10:51:48.343+03:00,1744962707.979002,40.95360044731795,29.14099783666757,93.78481,-1,-1,-1,-1,30,24.95784727372706,-9999,62299.45910087501,-0.67523193359375,0.69927978515625,-0.2588348388671875,62299.449024875,1.359946296785622,-1.204133381267197,-0.7737265373938991,0.02421050518751144,0.04241324216127396,0.001545704668387771,-0.01247286796569824,-0.000319361686706543,-0.002027809619903564,XArbitraryZVertical,0.08799765913462887,-0.6033539860894123,0.6460667252052231,0.4591494188925601,-0.6677640080451965,0.6988057494163513,-0.2564407587051392,0,0,0,-1,-1,62298.38479475,unknown,2,2025-04-18T10:51:47.264+03:00,2025-04-17T15:44:39.500+03:00,7169,1.081054,0,0,5915.383,4,10,2025-04-18T10:45:51.293+03:00,766655507.3597906,0,108.1,100.5582,1,0.65,2025-04-18T10:51:44.544+03:00,90,1.5,2025-04-18T08:51:18.885+03:00,0.03057091307199995,1
2025-04-18T10:51:48.353+03:00,1744962707.979002,40.95360044731795,29.14099783666757,93.78481,-1,-1,-1,-1,30,24.95784727372706,-9999,62299.46917687501,-0.6657867431640625,0.6948394775390625,-0.2561187744140625,62299.45910087501,1.360250981143034,-1.203546364797197,-0.7736818052339548,0.0212706420570612,0.02849875763058662,-0.009396691806614399,-0.01030540466308594,-0.002393066883087158,-0.002067148685455322,XArbitraryZVertical,0.08791613746513646,-0.6031987741126968,0.6461577447412097,0.4592410433722142,-0.6676426529884338,0.6987737417221069,-0.2568439841270447,0,0,0,-1,-1,62298.38479475,unknown,2,2025-04-18T10:51:47.264+03:00,2025-04-17T15:44:39.500+03:00,7169,1.081054,0,0,5915.383,4,10,2025-04-18T10:45:51.293+03:00,766655507.3597906,0,108.1,100.5582,1,0.65,2025-04-18T10:51:44.544+03:00,90,1.5,2025-04-18T08:51:18.885+03:00,0.03057091307199995,1
2025-04-18T10:51:48.363+03:00,1744962707.979002,40.95360044731795,29.14099783666757,93.78481,-1,-1,-1,-1,30,24.95784727372706,-9999,62299.479252875,-0.66461181640625,0.6873626708984375,-0.2537078857421875,62299.46917687501,1.360424415864797,-1.203101786267536,-0.773613985385123,0.009217241778969765,0.03696927428245544,-0.00486608874052763,-0.005080699920654297,0.0005393624305725098,-0.001249790191650391,XArbitraryZVertical,0.08784952384550028,-0.6030784134655951,0.6462099250406866,0.4593383299444418,-0.667572557926178,0.6987252235412598,-0.2571577727794647,0,0,0,-1,-1,62298.38479475,unknown,2,2025-04-18T10:51:47.264+03:00,2025-04-17T15:44:39.500+03:00,7169,1.081054,0,0,5915.383,4,10,2025-04-18T10:45:51.293+03:00,766655507.3597906,0,108.1,100.5582,1,0.65,2025-04-18T10:51:44.544+03:00,90,1.5,2025-04-18T08:51:18.885+03:00,0.03057091307199995,1
2025-04-18T10:51:48.373+03:00,1744962707.979002,40.95360044731795,29.14099783666757,93.78481,-1,-1,-1,-1,30,24.95784727372706,-9999,62299.489327875,-0.6675567626953125,0.6829376220703125,-0.255401611328125,62299.479252875,1.360484720038336,-1.202637978498417,-0.773653484478223,-0.002675369847565889,0.0469963401556015,0.006133565679192543,0.004036307334899902,-0.006614744663238525,0.002498388290405273,XArbitraryZVertical,0.08770345522319584,-0.602975437278044,0.6462483133243935,0.4594474421328501,-0.6674274802207947,0.6987534761428833,-0.2574574649333954,0,0,0,-1,-1,62298.38479475,unknown,2,2025-04-18T10:51:47.264+03:00,2025-04-17T15:44:39.500+03:00,7169,1.081054,0,0,5915.383,4,10,2025-04-18T10:45:51.293+03:00,766655507.3597906,0,108.1,100.5582,1,0.65,2025-04-18T10:51:44.544+03:00,90,1.5,2025-04-18T08:51:18.885+03:00,0.03057091307199995,1
2025-04-18T10:51:48.384+03:00,1744962707.979002,40.95360044731795,29.14099783666757,93.78481,-1,-1,-1,-1,30,24.95784727372706,-9999,62299.499403875,-0.660247802734375,0.6814117431640625,-0.256500244140625,62299.489327875,1.360466693346086,-1.202138060664716,-0.7737555207695522,-0.009937609545886517,0.06009956449270248,0.01770350337028503,0.001246988773345947,-0.01265394687652588,0.003492951393127441,XArbitraryZVertical,0.08749935270286638,-0.6028774133578029,0.6462768618767498,0.4595747940745479,-0.6672321557998657,0.6988264322280884,-0.2577653825283051,0,0,0,-1,-1,62298.38479475,unknown,2,2025-04-18T10:51:47.264+03:00,2025-04-17T15:44:39.500+03:00,7169,1.081054,0,0,5915.383,4,10,2025-04-18T10:45:51.293+03:00,766655507.3597906,0,108.1,100.5582,1,0.65,2025-04-18T10:51:44.544+03:00,90,1.5,2025-04-18T08:51:18.885+03:00,0.03057091307199995,1
2025-04-18T10:51:48.393+03:00,1744962707.979002,40.95360044731795,29.14099783666757,93.78481,-1,-1,-1,-1,30,24.95784727372706,-9999,62299.50947987501,-0.6622161865234375,0.6848297119140625,-0.2555389404296875,62299.499403875,1.360410373608235,-1.201535759840885,-0.7739440628445204,-0.01094428449869156,0.0694563090801239,0.02696757577359676,0.001197636127471924,-0.01709175109863281,0.002718091011047363,XArbitraryZVertical,0.08721909865027189,-0.6027711011823876,0.646310145533979,0.4597207252727426,-0.6669539213180542,0.6989613175392151,-0.2581196427345276,0,0,0,-1,-1,62298.38479475,unknown,2,2025-04-18T10:51:47.264+03:00,2025-04-17T15:44:39.500+03:00,7169,1.081054,0,0,5915.383,4,10,2025-04-18T10:45:51.293+03:00,766655507.3597906,0,108.1,100.5582,1,0.65,2025-04-18T10:51:44.544+03:00,90,1.5,2025-04-18T08:51:18.885+03:00,0.03057091307199995,1
2025-04-18T10:51:48.403+03:00,1744962707.979002,40.95360044731795,29.14099783666757,93.78481,-1,-1,-1,-1,30,24.95784727372706,-9999,62299.51955587501,-0.66119384765625,0.6979827880859375,-0.253265380859375,62299.50947987501,1.360301283869967,-1.201018195565287,-0.774197340111157,-0.02214001305401325,0.0509539358317852,0.03702936321496964,0.007032930850982666,-0.01840198040008545,0.0007714927196502686,XArbitraryZVertical,0.08692672868659822,-0.6026967049082773,0.6463343251646482,0.4598397086819626,-0.6666551828384399,0.6991423964500427,-0.2584008574485779,0,0,0,-1,-1,62298.38479475,unknown,2,2025-04-18T10:51:47.264+03:00,2025-04-17T15:44:39.500+03:00,7169,1.081054,0,0,5915.383,4,10,2025-04-18T10:45:51.293+03:00,766655507.3597906,0,108.1,100.5582,1,0.65,2025-04-18T10:51:44.544+03:00,90,1.5,2025-04-18T08:51:18.885+03:00,0.03057091307199995,1
2025-04-18T10:51:48.413+03:00,1744962707.979002,40.95360044731795,29.14099783666757,93.78481,-1,-1,-1,-1,30,24.95784727372706,-9999,62299.529631875,-0.66790771484375,0.6973876953125,-0.2557830810546875,62299.51955587501,1.360070147481191,-1.200801073597418,-0.7746230925729758,-0.03635943308472633,0.03331368789076805,0.05060882121324539,0.003387987613677979,-0.009825825691223145,0.003524631261825562,XArbitraryZVertical,0.08663197258907931,-0.6027237928291895,0.6463354966325413,0.4598579860363509,-0.666321337223053,0.6994467377662659,-0.2584378719329834,0,0,0,-1,-1,62298.38479475,unknown,2,2025-04-18T10:51:47.264+03:00,2025-04-17T15:44:39.500+03:00,7169,1.081054,0,0,5915.383,4,10,2025-04-18T10:45:51.293+03:00,766655507.3597906,0,108.1,100.5582,1,0.65,2025-04-18T10:51:44.544+03:00,90,1.5,2025-04-18T08:51:18.885+03:00,0.03057091307199995,1
2025-04-18T10:51:48.424+03:00,1744962707.979002,40.95360044731795,29.14099783666757,93.78481,-1,-1,-1,-1,30,24.95784727372706,-9999,62299.539706875,-0.6859283447265625,0.69775390625,-0.256256103515625,62299.529631875,1.359751115988725,-1.200701997430947,-0.7752317528431449,-0.05127859488129616,0.03309890255331993,0.05942887812852859,0.004689633846282959,-0.0004339814186096191,0.004382610321044922,XArbitraryZVertical,0.08628211733072351,-0.6028104614402096,0.6463305510395907,0.4598172380593556,-0.6658987998962402,0.6998816132545471,-0.2583498954772949,0,0,0,-1,-1,62298.38479475,unknown,2,2025-04-18T10:51:47.264+03:00,2025-04-17T15:44:39.500+03:00,7169,1.081054,0,0,5915.383,4,10,2025-04-18T10:45:51.293+03:00,766655507.3597906,0,108.1,100.5582,1,0.65,2025-04-18T10:51:44.544+03:00,90,1.5,2025-04-18T08:51:18.885+03:00,0.03057091307199995,1
2025-04-18T10:51:48.434+03:00,1744962707.979002,40.95360044731795,29.14099783666757,93.78481,-1,-1,-1,-1,30,24.95784727372706,-9999,62299.549782875,-0.6763458251953125,0.7050018310546875,-0.2534942626953125,62299.539706875,1.359266319113262,-1.200846784436651,-0.7759384270855105,-0.06361515074968338,0.005502162966877222,0.05651671066880226,-0.01030641794204712,-0.004234433174133301,0.001147091388702393,XArbitraryZVertical,0.08592543661117429,-0.6029755728445475,0.6462872943143072,0.459728265239906,-0.6654748916625977,0.7003862261772156,-0.258074551820755,0,0,0,-1,-1,62298.38479475,unknown,2,2025-04-18T10:51:47.264+03:00,2025-04-17T15:44:39.500+03:00,7169,1.081054,0,0,5915.383,4,10,2025-04-18T10:45:51.293+03:00,766655507.3597906,0,108.1,100.5582,1,0.65,2025-04-18T10:51:44.544+03:00,90,1.5,2025-04-18T08:51:18.885+03:00,0.03057091307199995,1
2025-04-18T10:51:48.444+03:00,1744962707.979002,40.95360044731795,29.14099783666757,93.78481,-1,-1,-1,-1,30,24.95784727372706,-9999,62299.55985887501,-0.6624908447265625,0.7067108154296875,-0.258331298828125,62299.549782875,1.358668816398945,-1.201402359721915,-0.7765590694116258,-0.05989831313490868,-0.02568651735782623,0.03609379753470421,-0.02076143026351929,-0.0004200935363769531,0.002451479434967041,XArbitraryZVertical,0.08569868854576264,-0.6032261746155173,0.6461915145501338,0.4595765445253944,-0.6652127504348755,0.700829029083252,-0.2575478255748749,0,0,0,-1,-1,62298.38479475,unknown,2,2025-04-18T10:51:47.264+03:00,2025-04-17T15:44:39.500+03:00,7169,1.081054,0,0,5915.383,4,10,2025-04-18T10:45:51.293+03:00,766655507.3597906,0,108.1,100.5582,1,0.65,2025-04-18T10:51:44.544+03:00,90,1.5,2025-04-18T08:51:18.885+03:00,0.03057091307199995,1
2025-04-18T10:51:48.455+03:00,1744962707.979002,40.95360044731795,29.14099783666757,93.78481,-1,-1,-1,-1,30,24.95784727372706,-9999,62299.56993487501,-0.65966796875,0.6982574462890625,-0.257843017578125,62299.55985887501,1.358088053362187,-1.202076254544936,-0.7769254030452951,-0.04457182064652443,-0.02150029316544533,0.009099994786083698,-0.004760026931762695,0.00534588098526001,0.002780318260192871,XArbitraryZVertical,0.08560776025485346,-0.6034632037470741,0.6460678532962403,0.4594561696044391,-0.6651466488838196,0.7010903358459473,-0.2570069432258606,0,0,0,-1,-1,62298.38479475,unknown,2,2025-04-18T10:51:47.264+03:00,2025-04-17T15:44:39.500+03:00,7169,1.081054,0,0,5915.383,4,10,2025-04-18T10:45:51.293+03:00,766655507.3597906,0,108.1,100.5582,1,0.65,2025-04-18T10:51:44.544+03:00,90,1.5,2025-04-18T08:51:18.885+03:00,0.03057091307199995,1
2025-04-18T10:51:48.480+03:00,1744962707.979002,40.95360044731795,29.14099783666757,93.78481,-1,-1,-1,-1,30,24.95784727372706,-9999,62299.580009875,-0.6771087646484375,0.67138671875,-0.2593231201171875,62299.56993487501,1.358019178890664,-1.201758401782552,-0.7771294148838308,0.01438071206212044,0.1187593415379524,0.0710950568318367,0.003615379333496094,0.003476083278656006,-0.001713842153549194,XArbitraryZVertical,0.08541007111378214,-0.6034250408951832,0.646087149797387,0.4595157337497288,-0.6649312973022461,0.7012357711791992,-0.2571666836738586,0,0,0,-1,-1,62298.38479475,unknown,2,2025-04-18T10:51:47.264+03:00,2025-04-17T15:44:39.500+03:00,7169,1.081054,0,0,5915.383,4,10,2025-04-18T10:45:51.293+03:00,766655507.3597906,0,108.1,100.5582,1,0.65,2025-04-18T10:51:44.544+03:00,90,1.5,2025-04-18T08:51:18.885+03:00,0.03057091307199995,1
2025-04-18T10:51:48.483+03:00,1744962707.979002,40.95360044731795,29.14099783666757,93.78481,-1,-1,-1,-1,30,24.95784727372706,-9999,62299.590085875,-0.6886138916015625,0.69439697265625,-0.250244140625,62299.580009875,1.358042496250707,-1.20043938960386,-0.7775161543159781,-0.01365145482122898,0.07973844558000565,0.05319062247872353,0.005113184452056885,-0.0119972825050354,0.0009263753890991211,XArbitraryZVertical,0.08485005724272493,-0.603181393929742,0.646189375586645,0.4597955917580032,-0.6643387079238892,0.7015114426612854,-0.2579453587532043,0,0,0,-1,-1,62298.38479475,unknown,2,2025-04-18T10:51:47.264+03:00,2025-04-17T15:44:39.500+03:00,7169,1.081054,0,0,5915.383,4,10,2025-04-18T10:45:51.293+03:00,766655507.3597906,0,108.1,100.5582,1,0.65,2025-04-18T10:51:44.544+03:00,90,1.5,2025-04-18T08:51:18.885+03:00,0.03057091307199995,1
2025-04-18T10:51:48.484+03:00,1744962707.979002,40.95360044731795,29.14099783666757,93.78481,-1,-1,-1,-1,30,24.95784727372706,-9999,62299.600161875,-0.5831146240234375,0.7005767822265625,-0.2564849853515625,62299.590085875,1.357854178232099,-1.200297785917752,-0.7777409724391647,-0.03202879801392555,-0.01114425808191299,0.01340635865926743,-0.03594863414764404,-0.03268051147460938,0.001619458198547363,XArbitraryZVertical,0.08466557687216572,-0.603191991862851,0.6461757148916617,0.4598349364211579,-0.6641551852226257,0.7016716599464417,-0.2579823136329651,0,0,0,-1,-1,62298.38479475,unknown,2,2025-04-18T10:51:47.264+03:00,2025-04-17T15:44:39.500+03:00,7169,1.081054,0,0,5915.383,4,10,2025-04-18T10:45:51.293+03:00,766655507.3597906,0,108.1,100.5582,1,0.65,2025-04-18T10:51:44.544+03:00,90,1.5,2025-04-18T08:51:18.885+03:00,0.03057091307199995,1
2025-04-18T10:51:48.494+03:00,1744962707.979002,40.95360044731795,29.14099783666757,93.78481,-1,-1,-1,-1,30,24.95784727372706,-9999,62299.610237875,-0.661865234375,0.685089111328125,-0.2643280029296875,62299.600161875,1.357428928062783,-1.200513002743496,-0.7779670239371542,-0.04069658741354942,0.0333784706890583,0.0255074966698885,0.02352935075759888,0.005442798137664795,0.007034391164779663,XArbitraryZVertical,0.08452444056737136,-0.6032948033264514,0.6460926042825206,0.4598428813835218,-0.6640628576278687,0.7018327116966248,-0.2577820122241974,0,0,0,-1,-1,62298.38479475,unknown,2,2025-04-18T10:51:47.264+03:00,2025-04-17T15:44:39.500+03:00,7169,1.081054,0,0,5915.383,4,10,2025-04-18T10:45:51.293+03:00,766655507.3597906,0,108.1,100.5582,1,0.65,2025-04-18T10:51:44.544+03:00,90,1.5,2025-04-18T08:51:18.885+03:00,0.03057091307199995,1
2025-04-18T10:51:48.504+03:00,1744962707.979002,40.95360044731795,29.14099783666757,93.78481,-1,-1,-1,-1,30,24.95784727372706,-9999,62299.62031387501,-0.6731414794921875,0.6981353759765625,-0.2645416259765625,62299.610237875,1.35699475250427,-1.200443623506315,-0.7783588713690809,-0.04555172845721245,0.02666230872273445,0.0274519044905901,0.06698668003082275,-0.01239919662475586,-0.00096893310546875,XArbitraryZVertical,0.08422829052840797,-0.6033583972959695,0.6460369143429434,0.4598919311273921,-0.6637884974479675,0.7021117806434631,-0.2577284872531891,0,0,0,-1,-1,62298.38479475,unknown,2,2025-04-18T10:51:47.264+03:00,2025-04-17T15:44:39.500+03:00,7169,1.081054,0,0,5915.383,4,10,2025-04-18T10:45:51.293+03:00,766655507.3597906,0,108.1,100.5582,1,0.65,2025-04-18T10:51:44.544+03:00,90,1.5,2025-04-18T08:51:18.885+03:00,0.03057091307199995,1
2025-04-18T10:51:48.514+03:00,1744962707.979002,40.95360044731795,29.14099783666757,93.78481,-1,-1,-1,-1,30,24.95784727372706,-9999,62299.630388875,-0.6343841552734375,0.6971282958984375,-0.2591094970703125,62299.62031387501,1.356439504344045,-1.200766683963217,-0.7786258736351143,-0.04890305176377296,-0.007468230091035366,0.0118979774415493,-0.02188050746917725,-0.01185691356658936,-0.008392333984375,XArbitraryZVertical,0.08406778633694569,-0.603497717277945,0.6459237350093076,0.4598974952169886,-0.6636969447135925,0.7023018598556519,-0.2574462294578552,0,0,0,-1,-1,62298.38479475,unknown,2,2025-04-18T10:51:47.264+03:00,2025-04-17T15:44:39.500+03:00,7169,1.081054,0,0,5915.383,4,10,2025-04-18T10:45:51.293+03:00,766655507.3597906,0,108.1,100.5582,1,0.65,2025-04-18T10:51:44.544+03:00,90,1.5,2025-04-18T08:51:18.885+03:00,0.03057091307199995,1
2025-04-18T10:51:48.524+03:00,1744962707.979002,40.95360044731795,29.14099783666757,93.78481,-1,-1,-1,-1,30,24.95784727372706,-9999,62299.640464875,-0.663421630859375,0.69000244140625,-0.2535858154296875,62299.630388875,1.355743436275358,-1.201335299081167,-0.77882433264382,-0.05419129133224487,0.0009665335528552532,0.009924308396875858,0.01115590333938599,-0.002430915832519531,-0.004410326480865479,XArbitraryZVertical,0.08396895484747641,-0.6036886347125565,0.6457606914190975,0.4598940461320334,-0.6637133359909058,0.7024431228637695,-0.257018506526947,0,0,0,-1,-1,62298.38479475,unknown,2,2025-04-18T10:51:47.264+03:00,2025-04-17T15:44:39.500+03:00,7169,1.081054,0,0,5915.383,4,10,2025-04-18T10:45:51.293+03:00,766655507.3597906,0,108.1,100.5582,1,0.65,2025-04-18T10:51:44.544+03:00,90,1.5,2025-04-18T08:51:18.885+03:00,0.03057091307199995,1
2025-04-18T10:51:48.534+03:00,1744962707.979002,40.95360044731795,29.14099783666757,93.78481,-1,-1,-1,-1,30,24.95784727372706,-9999,62299.650540875,-0.67431640625,0.6928863525390625,-0.2474517822265625,62299.640464875,1.355067067579692,-1.20175735231831,-0.779111452111081,-0.05358861759305,0.009707294404506683,0.01082712039351463,0.02238291501998901,-0.009532153606414795,-0.001406222581863403,XArbitraryZVertical,0.08379633588600839,-0.6038587333143182,0.6456177464699012,0.4599029744419634,-0.6636336445808411,0.7026474475860596,-0.2566656172275543,0,0,0,-1,-1,62298.38479475,unknown,2,2025-04-18T10:51:47.264+03:00,2025-04-17T15:44:39.500+03:00,7169,1.081054,0,0,5915.383,4,10,2025-04-18T10:45:51.293+03:00,766655507.3597906,0,108.1,100.5582,1,0.65,2025-04-18T10:51:44.544+03:00,90,1.5,2025-04-18T08:51:18.885+03:00,0.03057091307199995,1
2025-04-18T10:51:48.544+03:00,1744962707.979002,40.95360044731795,29.14099783666757,93.78481,-1,-1,-1,-1,30,24.95784727372706,-9999,62299.660616875,-0.662689208984375,0.6935882568359375,-0.2479248046875,62299.650540875,1.354386120387347,-1.202159770065991,-0.7794035997578814,-0.05471693351864815,0.005021262913942337,0.0073729008436203,-0.009520053863525391,-0.01326483488082886,0.005790531635284424,XArbitraryZVertical,0.08361416389307395,-0.6040251886911403,0.6454751805564919,0.4599174753277316,-0.6635451912879944,0.7028552889823914,-0.2563244998455048,0,0,0,-1,-1,62298.38479475,unknown,2,2025-04-18T10:51:47.264+03:00,2025-04-17T15:44:39.500+03:00,7169,1.081054,0,0,5915.383,4,10,2025-04-18T10:45:51.293+03:00,766655507.3597906,0,108.1,100.5582,1,0.65,2025-04-18T10:51:44.544+03:00,90,1.5,2025-04-18T08:51:18.885+03:00,0.03057091307199995,1
2025-04-18T10:51:48.555+03:00,1744962707.979002,40.95360044731795,29.14099783666757,93.78481,-1,-1,-1,-1,30,24.95784727372706,-9999,62299.67069287501,-0.658660888671875,0.69024658203125,-0.2499542236328125,62299.660616875,1.353716250108181,-1.202574090985598,-0.7796388202847391,-0.05400507152080536,0.004514995962381363,0.009059480391442776,-0.006333291530609131,-0.009159684181213379,0.008645117282867432,XArbitraryZVertical,0.0834597775889749,-0.604184952701723,0.6453287036916703,0.4599411900367426,-0.6634970903396606,0.7030225992202759,-0.2559900283813477,0,0,0,-1,-1,62298.38479475,unknown,2,2025-04-18T10:51:47.264+03:00,2025-04-17T15:44:39.500+03:00,7169,1.081054,0,0,5915.383,4,10,2025-04-18T10:45:51.293+03:00,766655507.3597906,0,108.1,100.5582,1,0.65,2025-04-18T10:51:44.544+03:00,90,1.5,2025-04-18T08:51:18.885+03:00,0.03057091307199995,1
2025-04-18T10:51:48.565+03:00,1744962707.979002,40.95360044731795,29.14099783666757,93.78481,-1,-1,-1,-1,30,24.95784727372706,-9999,62299.680767875,-0.6492767333984375,0.6953277587890625,-0.253173828125,62299.67069287501,1.352983117504432,-1.203090057158316,-0.7797057718370849,-0.05577107518911362,0.00295671378262341,0.01748941838741302,0.002772748470306396,-0.01161813735961914,0.006897211074829102,XArbitraryZVertical,0.08338030798156804,-0.6043445690954806,0.6451456619244089,0.46000271525973,-0.6635851860046387,0.7030702233314514,-0.2556307315826416,0,0,0,-1,-1,62298.38479475,unknown,2,2025-04-18T10:51:47.264+03:00,2025-04-17T15:44:39.500+03:00,7169,1.081054,0,0,5915.383,4,10,2025-04-18T10:45:51.293+03:00,766655507.3597906,0,108.1,100.5582,1,0.65,2025-04-18T10:51:44.544+03:00,90,1.5,2025-04-18T08:51:18.885+03:00,0.03057091307199995,1
2025-04-18T10:51:48.575+03:00,1744962707.979002,40.95360044731795,29.14099783666757,93.78481,-1,-1,-1,-1,30,24.95784727372706,-9999,62299.690843875,-0.64141845703125,0.6926727294921875,-0.2565460205078125,62299.680767875,1.352336328238238,-1.203543288922284,-0.7801788737817926,-0.05867259204387665,-0.005165927112102509,0.01774082146584988,0.007598221302032471,-0.01190871000289917,0.003913521766662598,XArbitraryZVertical,0.08315847874779934,-0.6045489361443003,0.6450282117985937,0.4599390697248964,-0.6633904576301575,0.7034065723419189,-0.2552104890346527,0,0,0,-1,-1,62298.38479475,unknown,2,2025-04-18T10:51:47.264+03:00,2025-04-17T15:44:39.500+03:00,7169,1.081054,0,0,5915.383,4,10,2025-04-18T10:45:51.293+03:00,766655507.3597906,0,108.1,100.5582,1,0.65,2025-04-18T10:51:44.544+03:00,90,1.5,2025-04-18T08:51:18.885+03:00,0.03057091307199995,1
2025-04-18T10:51:48.585+03:00,1744962707.979002,40.95360044731795,29.14099783666757,93.78481,-1,-1,-1,-1,30,24.95784727372706,-9999,62299.700919875,-0.6486968994140625,0.6917266845703125,-0.25732421875,62299.690843875,1.351745848690533,-1.20393670806818,-0.7807284308734049,-0.06421715766191483,-0.008784763514995575,0.01594378426671028,0.01734739542007446,-0.008194625377655029,-0.0002703070640563965,XArbitraryZVertical,0.08290638844883282,-0.6047488092226888,0.6449344244187699,0.4598533832833433,-0.6631299257278442,0.7037971019744873,-0.2548108100891113,0,0,0,-1,-1,62298.38479475,unknown,2,2025-04-18T10:51:47.264+03:00,2025-04-17T15:44:39.500+03:00,7169,1.081054,0,0,5915.383,4,10,2025-04-18T10:45:51.293+03:00,766655507.3597906,0,108.1,100.5582,1,0.65,2025-04-18T10:51:44.544+03:00,90,1.5,2025-04-18T08:51:18.885+03:00,0.03057091307199995,1
2025-04-18T10:51:48.595+03:00,1744962707.979002,40.95360044731795,29.14099783666757,93.78481,-1,-1,-1,-1,30,24.95784727372706,-9999,62299.710995875,-0.6586151123046875,0.7005462646484375,-0.2579498291015625,62299.700919875,1.351042669303031,-1.204487252004601,-0.7809940635266146,-0.05619785189628601,-0.002687190659344196,0.01835394650697708,0.02013581991195679,-0.01303732395172119,-0.003326922655105591,XArbitraryZVertical,0.08277440929522541,-0.6049454996948298,0.6447781725548539,0.4598374268057671,-0.6630954146385193,0.7039857506752014,-0.2543786764144897,0,0,0,-1,-1,62298.38479475,unknown,2,2025-04-18T10:51:47.264+03:00,2025-04-17T15:44:39.500+03:00,7169,1.081054,0,0,5915.383,4,10,2025-04-18T10:45:51.293+03:00,766655507.3597906,0,108.1,100.5582,1,0.65,2025-04-18T10:51:44.544+03:00,90,1.5,2025-04-18T08:51:18.885+03:00,0.03057091307199995,1
2025-04-18T10:51:48.605+03:00,1744962707.979002,40.95360044731795,29.14099783666757,93.78481,-1,-1,-1,-1,30,24.95784727372706,-9999,62299.72107187501,-0.6615447998046875,0.70526123046875,-0.257659912109375,62299.710995875,1.350466624715846,-1.204852037805,-0.7813784962243169,-0.05324773490428925,0.003748471615836024,0.01891181245446205,0.009874522686004639,-0.01042634248733521,-0.003925085067749023,XArbitraryZVertical,0.08257747192823083,-0.605112376039209,0.6446715432206339,0.4598028643822951,-0.6629354953765869,0.7042587399482727,-0.2540399432182312,0,0,0,-1,-1,62298.38479475,unknown,2,2025-04-18T10:51:47.264+03:00,2025-04-17T15:44:39.500+03:00,7169,1.081054,0,0,5915.383,4,10,2025-04-18T10:45:51.293+03:00,766655507.3597906,0,108.1,100.5582,1,0.65,2025-04-18T10:51:44.544+03:00,90,1.5,2025-04-18T08:51:18.885+03:00,0.03057091307199995,1
2025-04-18T10:51:48.615+03:00,1744962707.979002,40.95360044731795,29.14099783666757,93.78481,-1,-1,-1,-1,30,24.95784727372706,-9999,62299.731146875,-0.6614837646484375,0.7007598876953125,-0.2559967041015625,62299.72107187501,1.349974647362872,-1.205108740742402,-0.7818019881518886,-0.05224718153476715,0.003702665213495493,0.02298378571867943,0.002687811851501465,1.52587890625e-05,-0.004644453525543213,XArbitraryZVertical,0.08235688285176197,-0.6052568164823037,0.6445929365469012,0.4597624408025769,-0.6627220511436462,0.704559326171875,-0.2537630498409271,0,0,0,-1,-1,62298.38479475,unknown,2,2025-04-18T10:51:47.264+03:00,2025-04-17T15:44:39.500+03:00,7169,1.081054,0,0,5915.383,4,10,2025-04-18T10:45:51.293+03:00,766655507.3597906,0,108.1,100.5582,1,0.65,2025-04-18T10:51:44.544+03:00,90,1.5,2025-04-18T08:51:18.885+03:00,0.03057091307199995,1
2025-04-18T10:51:48.625+03:00,1744962707.979002,40.95360044731795,29.14099783666757,93.78481,-1,-1,-1,-1,30,24.95784727372706,-9999,62299.741222875,-0.658355712890625,0.70013427734375,-0.2555999755859375,62299.731146875,1.349406640840627,-1.205519685647303,-0.7821177079971531,-0.04960306361317635,-0.0009787725284695625,0.02595660649240017,0.0003565549850463867,-0.000880122184753418,-0.003867149353027344,XArbitraryZVertical,0.0822021705567256,-0.6054231350128966,0.6444790857511294,0.4597308575500313,-0.6626185774803162,0.7047833204269409,-0.2534112632274628,0,0,0,-1,-1,62298.38479475,unknown,2,2025-04-18T10:51:47.264+03:00,2025-04-17T15:44:39.500+03:00,7169,1.081054,0,0,5915.383,4,10,2025-04-18T10:45:51.293+03:00,766655507.3597906,0,108.1,100.5582,1,0.65,2025-04-18T10:51:44.544+03:00,90,1.5,2025-04-18T08:51:18.885+03:00,0.03057091307199995,1
2025-04-18T10:51:48.635+03:00,1744962707.979002,40.95360044731795,29.14099783666757,93.78481,-1,-1,-1,-1,30,24.95784727372706,-9999,62299.751298875,-0.6604766845703125,0.701812744140625,-0.2547454833984375,62299.741222875,1.348778906207679,-1.206022422595569,-0.7824929619174633,-0.05592354387044907,-0.002347903326153755,0.02440478093922138,0.002083063125610352,-0.005449295043945312,-0.002707690000534058,XArbitraryZVertical,0.08203719727317628,-0.6056220210696553,0.6443541723282415,0.4596734311731268,-0.6624987125396729,0.7050495147705078,-0.2529837191104889,0,0,0,-1,-1,62298.38479475,unknown,2,2025-04-18T10:51:47.264+03:00,2025-04-17T15:44:39.500+03:00,7169,1.081054,0,0,5915.383,4,10,2025-04-18T10:45:51.293+03:00,766655507.3597906,0,108.1,100.5582,1,0.65,2025-04-18T10:51:44.544+03:00,90,1.5,2025-04-18T08:51:18.885+03:00,0.03057091307199995,1
2025-04-18T10:51:48.645+03:00,1744962707.979002,40.95360044731795,29.14099783666757,93.78481,-1,-1,-1,-1,30,24.95784727372706,-9999,62299.761374875,-0.6588287353515625,0.7008209228515625,-0.2573089599609375,62299.751298875,1.348147280067394,-1.206486439058723,-0.7828717863562928,-0.0555427111685276,-0.0003340211696922779,0.02235627733170986,0.003598630428314209,-0.003978431224822998,-0.002759426832199097,XArbitraryZVertical,0.08185719719364011,-0.6058125638258363,0.6442304392603035,0.4596277579633709,-0.6623663306236267,0.7053180932998657,-0.2525810599327087,0,0,0,-1,-1,62298.38479475,unknown,2,2025-04-18T10:51:47.264+03:00,2025-04-17T15:44:39.500+03:00,7169,1.081054,0,0,5915.383,4,10,2025-04-18T10:45:51.293+03:00,766655507.3597906,0,108.1,100.5582,1,0.65,2025-04-18T10:51:44.544+03:00,90,1.5,2025-04-18T08:51:18.885+03:00,0.03057091307199995,1
2025-04-18T10:51:48.655+03:00,1744962707.979002,40.95360044731795,29.14099783666757,93.78481,-1,-1,-1,-1,30,24.95784727372706,-9999,62299.77145087501,-0.6527099609375,0.7015380859375,-0.2610931396484375,62299.761374875,1.347515893703081,-1.20698052075345,-0.7832328378054597,-0.05268913507461548,-0.007290996611118317,0.01915915310382843,0.001425445079803467,-0.00434112548828125,-0.00374189019203186,XArbitraryZVertical,0.08169327084642287,-0.6060071175452878,0.6441037253402428,0.4595780957104883,-0.6622530817985535,0.7055740356445312,-0.2521631717681885,0,0,0,-1,-1,62298.38479475,unknown,2,2025-04-18T10:51:47.264+03:00,2025-04-17T15:44:39.500+03:00,7169,1.081054,0,0,5915.383,4,10,2025-04-18T10:45:51.293+03:00,766655507.3597906,0,108.1,100.5582,1,0.65,2025-04-18T10:51:44.544+03:00,90,1.5,2025-04-18T08:51:18.885+03:00,0.03057091307199995,1
2025-04-18T10:51:48.665+03:00,1744962707.979002,40.95360044731795,29.14099783666757,93.78481,-1,-1,-1,-1,30,24.95784727372706,-9999,62299.78152587501,-0.655548095703125,0.703460693359375,-0.26336669921875,62299.77145087501,1.347134246763477,-1.207235069079127,-0.7835536410911565,-0.02430030517280102,0.00795966200530529,0.01813986152410507,0.00599294900894165,-0.005102396011352539,-0.007912516593933105,XArbitraryZVertical,0.0815424982031598,-0.6061301631638609,0.6440399521562249,0.4595320195371901,-0.6621056795120239,0.7058013081550598,-0.2519140839576721,0,0,0,-1,-1,62298.38479475,unknown,2,2025-04-18T10:51:47.264+03:00,2025-04-17T15:44:39.500+03:00,7169,1.081054,0,0,5915.383,4,10,2025-04-18T10:45:51.293+03:00,766655507.3597906,0,108.1,100.5582,1,0.65,2025-04-18T10:51:44.544+03:00,90,1.5,2025-04-18T08:51:18.885+03:00,0.03057091307199995,1
2025-04-18T10:51:48.675+03:00,1744962707.979002,40.95360044731795,29.14099783666757,93.78481,-1,-1,-1,-1,30,24.95784727372706,-9999,62299.79160091667,-0.6678009033203125,0.7045135498046875,-0.2621307373046875,62299.78152587501,1.346847779131407,-1.207267560386134,-0.7838455141793209,-0.04314909502863884,0.01176132448017597,0.01451822835952044,0.009073913097381592,-0.005171835422515869,-0.009289026260375977,XArbitraryZVertical,0.08135963117755479,-0.6061938297753006,0.6440040340598918,0.4595307402084131,-0.6619212627410889,0.7060080170631409,-0.2518193125724792,0,0,0,-1,-1,62298.38479475,unknown,2,2025-04-18T10:51:47.264+03:00,2025-04-17T15:44:39.500+03:00,7169,1.081054,0,0,5915.383,4,10,2025-04-18T10:45:51.293+03:00,766655507.3597906,0,108.1,100.5582,1,0.65,2025-04-18T10:51:44.544+03:00,90,1.5,2025-04-18T08:51:18.885+03:00,0.03057091307199995,1
2025-04-18T10:51:48.686+03:00,1744962707.979002,40.95360044731795,29.14099783666757,93.78481,-1,-1,-1,-1,30,24.95784727372706,-9999,62299.80167691667,-0.6656341552734375,0.6993255615234375,-0.269195556640625,62299.79160091667,1.346589078004444,-1.207220694680072,-0.7840634739314524,-0.008551567792892456,0.0310512650758028,0.01769691146910191,0.001075387001037598,-0.0007332563400268555,-0.01186090707778931,XArbitraryZVertical,0.08118652188540193,-0.6062267975987717,0.6439698060709212,0.4595659547936322,-0.6617657542228699,0.7061623930931091,-0.2517956495285034,0,0,0,-1,-1,62298.38479475,unknown,2,2025-04-18T10:51:47.264+03:00,2025-04-17T15:44:39.500+03:00,7169,1.081054,0,0,5915.383,4,10,2025-04-18T10:45:51.293+03:00,766655507.3597906,0,108.1,100.5582,1,0.65,2025-04-18T10:51:44.544+03:00,90,1.5,2025-04-18T08:51:18.885+03:00,0.03057091307199995,1
2025-04-18T10:51:48.696+03:00,1744962707.979002,40.95360044731795,29.14099783666757,93.78481,-1,-1,-1,-1,30,24.95784727372706,-9999,62299.81175291667,-0.6766204833984375,0.7170867919921875,-0.2934112548828125,62299.80167691667,1.347085582944709,-1.206288710690128,-0.784180051806412,0.05826687440276146,0.08083533495664597,0.0295527707785368,-0.006102979183197021,-0.004310071468353271,-0.009991884231567383,XArbitraryZVertical,0.08099432145966158,-0.6060102766961749,0.644134148740196,0.4596550982884831,-0.6614538431167603,0.706244945526123,-0.2523829340934753,0,0,0,-1,-1,62298.38479475,unknown,2,2025-04-18T10:51:47.264+03:00,2025-04-17T15:44:39.500+03:00,7169,1.081054,0,0,5915.383,4,10,2025-04-18T10:45:51.293+03:00,766655507.3597906,0,108.1,100.5582,1,0.65,2025-04-18T10:51:44.544+03:00,90,1.5,2025-04-18T08:51:18.885+03:00,0.03057091307199995,1
2025-04-18T10:51:48.726+03:00,1744962707.979002,40.95360044731795,29.14099783666757,93.78481,-1,-1,-1,-1,30,24.95784727372706,-9999,62299.82182791667,-0.68328857421875,0.7219696044921875,-0.3097076416015625,62299.81175291667,1.348538763810648,-1.204079060714318,-0.7841377636354956,0.1178047731518745,0.1554557830095291,0.03512037545442581,-0.006344616413116455,-0.002555966377258301,-0.02440467476844788,XArbitraryZVertical,0.08073808343597455,-0.6054371182890635,0.6445530611662214,0.4598679468674069,-0.6609222292900085,0.706214964389801,-0.253854513168335,0,0,0,-1,-1,62298.38479475,unknown,2,2025-04-18T10:51:47.264+03:00,2025-04-17T15:44:39.500+03:00,7169,1.081054,0,0,5915.383,4,10,2025-04-18T10:45:51.293+03:00,766655507.3597906,0,108.1,100.5582,1,0.65,2025-04-18T10:51:44.544+03:00,90,1.5,2025-04-18T08:51:18.885+03:00,0.03057091307199995,1
2025-04-18T10:51:48.729+03:00,1744962707.979002,40.95360044731795,29.14099783666757,93.78481,-1,-1,-1,-1,30,24.95784727372706,-9999,62299.83190391667,-0.692169189453125,0.7125396728515625,-0.3318023681640625,62299.82182791667,1.350957062465218,-1.200177311771923,-0.783903003369691,0.2079282850027084,0.2799407243728638,0.05491245537996292,-0.02084213495254517,0.01700431108474731,-0.04514423012733459,XArbitraryZVertical,0.08029700800428305,-0.6044060406590792,0.6452416732694906,0.4603358110054834,-0.6600814461708069,0.7060487270355225,-0.2564914524555206,0,0,0,-1,-1,62298.38479475,unknown,2,2025-04-18T10:51:47.264+03:00,2025-04-17T15:44:39.500+03:00,7169,1.081054,0,0,5915.383,4,10,2025-04-18T10:45:51.293+03:00,766655507.3597906,0,108.1,100.5582,1,0.65,2025-04-18T10:51:44.544+03:00,90,1.5,2025-04-18T08:51:18.885+03:00,0.03057091307199995,1
2025-04-18T10:51:48.732+03:00,1744962707.979002,40.95360044731795,29.14099783666757,93.78481,-1,-1,-1,-1,30,24.95784727372706,-9999,62299.84197991667,-0.6947021484375,0.7228851318359375,-0.339996337890625,62299.83190391667,1.353866626290934,-1.19471408089765,-0.7838099548627745,0.1827317029237747,0.3915403187274933,0.08001468330621719,-0.02705961465835571,0.01098191738128662,-0.05479288101196289,XArbitraryZVertical,0.07944547837975448,-0.6030169572850614,0.6461203616732041,0.4610722582176027,-0.6587314605712891,0.7059828639030457,-0.2601179182529449,0,0,0,-1,-1,62298.38479475,unknown,2,2025-04-18T10:51:47.264+03:00,2025-04-17T15:44:39.500+03:00,7169,1.081054,0,0,5915.383,4,10,2025-04-18T10:45:51.293+03:00,766655507.3597906,0,108.1,100.5582,1,0.65,2025-04-18T10:51:44.544+03:00,90,1.5,2025-04-18T08:51:18.885+03:00,0.03057091307199995,1
2025-04-18T10:51:48.736+03:00,1744962707.979002,40.95360044731795,29.14099783666757,93.78481,-1,-1,-1,-1,30,24.95784727372706,-9999,62299.85205591667,-0.6801605224609375,0.6805572509765625,-0.3194122314453125,62299.84197991667,1.356080067917547,-1.18894072026733,-0.7841007793145308,0.06747914850711823,0.449838787317276,0.08236545324325562,-0.03829967975616455,0.01050132513046265,-0.0763850212097168,XArbitraryZVertical,0.07813966350786374,-0.6016428606231278,0.6468885616568854,0.4620123057852254,-0.6570281386375427,0.7061887979507446,-0.2638401091098785,0,0,0,-1,-1,62298.38479475,unknown,2,2025-04-18T10:51:47.264+03:00,2025-04-17T15:44:39.500+03:00,7169,1.081054,0,0,5915.383,4,10,2025-04-18T10:45:51.293+03:00,766655507.3597906,0,108.1,100.5582,1,0.65,2025-04-18T10:51:44.544+03:00,90,1.5,2025-04-18T08:51:18.885+03:00,0.03057091307199995,1
2025-04-18T10:51:48.746+03:00,1744962707.979002,40.95360044731795,29.14099783666757,93.78481,-1,-1,-1,-1,30,24.95784727372706,-9999,62299.86213191667,-0.6845245361328125,0.6208343505859375,-0.301239013671875,62299.85205591667,1.356076964966862,-1.184319240578562,-0.7848719190251,-0.135249063372612,0.4638296067714691,0.06465283781290054,-0.03427815437316895,0.008261799812316895,-0.06690400838851929,XArbitraryZVertical,0.076361936610429,-0.6006951605541975,0.647144844969254,0.4631822077359927,-0.6552971005439758,0.7067345976829529,-0.2666683495044708,0,0,0,-1,-1,62298.38479475,unknown,2,2025-04-18T10:51:47.264+03:00,2025-04-17T15:44:39.500+03:00,7169,1.081054,0,0,5915.383,4,10,2025-04-18T10:45:51.293+03:00,766655507.3597906,0,108.1,100.5582,1,0.65,2025-04-18T10:51:44.544+03:00,90,1.5,2025-04-18T08:51:18.885+03:00,0.03057091307199995,1
2025-04-18T10:51:48.756+03:00,1744962707.979002,40.95360044731795,29.14099783666757,93.78481,-1,-1,-1,-1,30,24.95784727372706,-9999,62299.87220691667,-0.676788330078125,0.6039581298828125,-0.300201416015625,62299.86213191667,1.352848331471071,-1.182080915847049,-0.7861432520562786,-0.3830642104148865,0.4298567175865173,-0.01715414598584175,-0.0254243016242981,-0.05225324630737305,-0.04359236359596252,XArbitraryZVertical,0.07420356653064669,-0.6004972923637014,0.6466089767973257,0.4645358753603024,-0.6538664698600769,0.7076334357261658,-0.2677936553955078,0,0,0,-1,-1,62298.38479475,unknown,2,2025-04-18T10:51:47.264+03:00,2025-04-17T15:44:39.500+03:00,7169,1.081054,0,0,5915.383,4,10,2025-04-18T10:45:51.293+03:00,766655507.3597906,0,108.1,100.5582,1,0.65,2025-04-18T10:51:44.544+03:00,90,1.5,2025-04-18T08:51:18.885+03:00,0.03057091307199995,1
2025-04-18T10:51:48.766+03:00,1744962707.979002,40.95360044731795,29.14099783666757,93.78481,-1,-1,-1,-1,30,24.95784727372706,-9999,62299.88228291667,-0.655487060546875,0.5889129638671875,-0.3116912841796875,62299.87220691667,1.345455633767802,-1.183339811672511,-0.7876852653499468,-0.6567069888114929,0.3661112189292908,-0.08205354958772659,-0.03165286779403687,-0.09980487823486328,-0.03378087282180786,XArbitraryZVertical,0.0718242399467653,-0.6013005824677278,0.6449997848044946,0.4661054327959173,-0.6531921625137329,0.7087221741676331,-0.2665577828884125,0,0,0,-1,-1,62298.38479475,unknown,2,2025-04-18T10:51:47.264+03:00,2025-04-17T15:44:39.500+03:00,7169,1.081054,0,0,5915.383,4,10,2025-04-18T10:45:51.293+03:00,766655507.3597906,0,108.1,100.5582,1,0.65,2025-04-18T10:51:44.544+03:00,90,1.5,2025-04-18T08:51:18.885+03:00,0.03057091307199995,1
2025-04-18T10:51:48.776+03:00,1744962707.979002,40.95360044731795,29.14099783666757,93.78481,-1,-1,-1,-1,30,24.95784727372706,-9999,62299.89235891667,-0.6365966796875,0.593170166015625,-0.3751373291015625,62299.88228291667,1.335288981006379,-1.187236857214537,-0.7895005121163124,-0.7749377489089966,0.2923547029495239,-0.1113235577940941,-0.01663064956665039,-0.1065164804458618,-0.03642886877059937,XArbitraryZVertical,0.06935254165554137,-0.602848281551103,0.6426760297570575,0.4676876802565105,-0.6530318856239319,0.7100016474723816,-0.2635283470153809,0,0,0,-1,-1,62298.38479475,unknown,2,2025-04-18T10:51:47.264+03:00,2025-04-17T15:44:39.500+03:00,7169,1.081054,0,0,5915.383,4,10,2025-04-18T10:45:51.293+03:00,766655507.3597906,0,108.1,100.5582,1,0.65,2025-04-18T10:51:44.544+03:00,90,1.5,2025-04-18T08:51:18.885+03:00,0.03057091307199995,1
2025-04-18T10:51:48.786+03:00,1744962707.979002,40.95360044731795,29.14099783666757,93.78481,-1,-1,-1,-1,30,24.95784727372706,-9999,62299.90243491667,-0.6327972412109375,0.666015625,-0.46978759765625,62299.89235891667,1.324962392857662,-1.191407560000246,-0.7910085110722376,-0.6697117686271667,0.3525143563747406,-0.1453871577978134,0.006965935230255127,-0.1301301121711731,-0.07106101512908936,XArbitraryZVertical,0.06701964276621762,-0.6044051338855112,0.6402732491464029,0.4693111475068882,-0.6531298756599426,0.7110627293586731,-0.2604056000709534,0,0,0,-1,-1,62298.38479475,unknown,2,2025-04-18T10:51:47.264+03:00,2025-04-17T15:44:39.500+03:00,7169,1.081054,0,0,5915.383,4,10,2025-04-18T10:45:51.293+03:00,766655507.3597906,0,108.1,100.5582,1,0.65,2025-04-18T10:51:44.544+03:00,90,1.5,2025-04-18T08:51:18.885+03:00,0.03057091307199995,1
2025-04-18T10:51:48.796+03:00,1744962707.979002,40.95360044731795,29.14099783666757,93.78481,-1,-1,-1,-1,30,24.95784727372706,-9999,62299.91251091667,-0.6175689697265625,0.72216796875,-0.5574798583984375,62299.90243491667,1.315508069422681,-1.194302139952074,-0.7919203654855332,-0.6246894598007202,0.3477638363838196,-0.1462135314941406,0.01951920986175537,-0.0949738621711731,-0.1476845145225525,XArbitraryZVertical,0.0647493832717272,-0.605532618653114,0.6380524035980889,0.4711974112892477,-0.6532778143882751,0.7117035984992981,-0.2582755386829376,0,0,0,-1,-1,62298.38479475,unknown,2,2025-04-18T10:51:47.264+03:00,2025-04-17T15:44:39.500+03:00,7169,1.081054,0,0,5915.383,4,10,2025-04-18T10:45:51.293+03:00,766655507.3597906,0,108.1,100.5582,1,0.65,2025-04-18T10:51:44.544+03:00,90,1.5,2025-04-18T08:51:18.885+03:00,0.03057091307199995,1
2025-04-18T10:51:48.806+03:00,1744962707.979002,40.95360044731795,29.14099783666757,93.78481,-1,-1,-1,-1,30,24.95784727372706,-9999,62299.92258591667,-0.5729522705078125,0.719879150390625,-0.613311767578125,62299.91251091667,1.307319571558132,-1.196728732033817,-0.7929494949803496,-0.4585578143596649,0.3044407963752747,-0.08962498605251312,0.02081996202468872,-0.01676261425018311,-0.2516500651836395,XArbitraryZVertical,0.06266195007542905,-0.6065167560354682,0.6361543287188588,0.4727777522470182,-0.6532205939292908,0.7124261856079102,-0.2564218044281006,0,0,0,-1,-1,62298.38479475,unknown,2,2025-04-18T10:51:47.264+03:00,2025-04-17T15:44:39.500+03:00,7169,1.081054,0,0,5915.383,4,10,2025-04-18T10:45:51.293+03:00,766655507.3597906,0,108.1,100.5582,1,0.65,2025-04-18T10:51:44.544+03:00,90,1.5,2025-04-18T08:51:18.885+03:00,0.03057091307199995,1
2025-04-18T10:51:48.817+03:00,1744962707.979002,40.95360044731795,29.14099783666757,93.78481,-1,-1,-1,-1,30,24.95784727372706,-9999,62299.93266191667,-0.540191650390625,0.7311859130859375,-0.6717681884765625,62299.92258591667,1.302369384454819,-1.198007763797226,-0.7932782352517899,-0.2759483456611633,0.05293133109807968,-0.1079640462994576,0.05265229940414429,0.009007692337036133,-0.3225936591625214,XArbitraryZVertical,0.06144536035417431,-0.6070206531455836,0.634979179602742,0.4738692274306163,-0.6533298492431641,0.7126567959785461,-0.2555007934570312,0,0,0,-1,-1,62298.38479475,unknown,2,2025-04-18T10:51:47.264+03:00,2025-04-17T15:44:39.500+03:00,7169,1.081054,0,0,5915.383,4,10,2025-04-18T10:45:51.293+03:00,766655507.3597906,0,108.1,100.5582,1,0.65,2025-04-18T10:51:44.544+03:00,90,1.5,2025-04-18T08:51:18.885+03:00,0.03057091307199995,1
2025-04-18T10:51:48.827+03:00,1744962707.979002,40.95360044731795,29.14099783666757,93.78481,-1,-1,-1,-1,30,24.95784727372706,-9999,62299.94273791667,-0.576080322265625,0.611663818359375,-0.613433837890625,62299.93266191667,1.29653875843822,-1.202342727596941,-0.7941889052068782,-0.5671974420547485,-0.04162360355257988,-0.04490888118743896,0.09394991397857666,0.01917225122451782,-0.388604611158371,XArbitraryZVertical,0.06071252710413576,-0.6083566683540006,0.6335658875842058,0.4741417875320077,-0.6538254022598267,0.7132954001426697,-0.2524323165416718,0,0,0,-1,-1,62298.38479475,unknown,2,2025-04-18T10:51:47.264+03:00,2025-04-17T15:44:39.500+03:00,7169,1.081054,0,0,5915.383,4,10,2025-04-18T10:45:51.293+03:00,766655507.3597906,0,108.1,100.5582,1,0.65,2025-04-18T10:51:44.544+03:00,90,1.5,2025-04-18T08:51:18.885+03:00,0.03057091307199995,1
2025-04-18T10:51:48.837+03:00,1744962707.979002,40.95360044731795,29.14099783666757,93.78481,-1,-1,-1,-1,30,24.95784727372706,-9999,62299.95281391667,-0.653106689453125,0.64508056640625,-0.587432861328125,62299.94273791667,1.288021991648492,-1.208844693591146,-0.7966098498185447,-0.7114065289497375,-0.08399422466754913,0.08158434927463531,0.1157196164131165,-0.02481967210769653,-0.4149881303310394,XArbitraryZVertical,0.05927980305842993,-0.6104949194002077,0.6316243294499857,0.4741653360474344,-0.653836190700531,0.7149900197982788,-0.2475637197494507,0,0,0,-1,-1,62298.38479475,unknown,2,2025-04-18T10:51:47.264+03:00,2025-04-17T15:44:39.500+03:00,7169,1.081054,0,0,5915.383,4,10,2025-04-18T10:45:51.293+03:00,766655507.3597906,0,108.1,100.5582,1,0.65,2025-04-18T10:51:44.544+03:00,90,1.5,2025-04-18T08:51:18.885+03:00,0.03057091307199995,1
2025-04-18T10:51:48.847+03:00,1744962707.979002,40.95360044731795,29.14099783666757,93.78481,-1,-1,-1,-1,30,24.95784727372706,-9999,62299.96288891667,-0.63031005859375,0.595306396484375,-0.5571746826171875,62299.95281391667,1.276756583146643,-1.218481089186244,-0.8005696797781348,-1.044216990470886,-0.204449936747551,0.09583844989538193,0.03762304782867432,-0.11281818151474,-0.3523938059806824,XArbitraryZVertical,0.05740609337208184,-0.6136514937984477,0.6291292964036383,0.4736377940786494,-0.6535288095474243,0.7177528738975525,-0.2402727752923965,0,0,0,-1,-1,62298.38479475,unknown,2,2025-04-18T10:51:47.264+03:00,2025-04-17T15:44:39.500+03:00,7169,1.081054,0,0,5915.383,4,10,2025-04-18T10:45:51.293+03:00,766655507.3597906,0,108.1,100.5582,1,0.65,2025-04-18T10:51:44.544+03:00,90,1.5,2025-04-18T08:51:18.885+03:00,0.03057091307199995,1
2025-04-18T10:51:48.857+03:00,1744962707.979002,40.95360044731795,29.14099783666757,93.78481,-1,-1,-1,-1,30,24.95784727372706,-9999,62299.97296491667,-0.6197967529296875,0.5322113037109375,-0.5352783203125,62299.96288891667,1.26211652695659,-1.231761432215485,-0.8060642434012195,-1.241264343261719,-0.3615061342716217,0.1825376600027084,0.004998862743377686,-0.06939196586608887,-0.3526279926300049,XArbitraryZVertical,0.05503324314578177,-0.6179340565946585,0.6259424363527559,0.4725727678449544,-0.65293288230896,0.7215678691864014,-0.2302576899528503,0,0,0,-1,-1,62298.38479475,unknown,2,2025-04-18T10:51:47.264+03:00,2025-04-17T15:44:39.500+03:00,7169,1.081054,0,0,5915.383,4,10,2025-04-18T10:45:51.293+03:00,766655507.3597906,0,108.1,100.5582,1,0.65,2025-04-18T10:51:44.544+03:00,90,1.5,2025-04-18T08:51:18.885+03:00,0.03057091307199995,1
2025-04-18T10:51:48.867+03:00,1744962707.979002,40.95360044731795,29.14099783666757,93.78481,-1,-1,-1,-1,30,24.95784727372706,-9999,62299.98304091667,-0.6901092529296875,0.577423095703125,-0.5154266357421875,62299.97296491667,1.245069810742918,-1.248056337143882,-0.8117014144381999,-1.333000421524048,-0.4049406945705414,0.146237701177597,0.02899652719497681,-0.1752424836158752,-0.3255133926868439,XArbitraryZVertical,0.05274328833055272,-0.622953343865856,0.6221709242562425,0.4712226802723849,-0.6527301669120789,0.7254592776298523,-0.2182945609092712,0,0,0,-1,-1,62298.38479475,unknown,2,2025-04-18T10:51:47.264+03:00,2025-04-17T15:44:39.500+03:00,7169,1.081054,0,0,5915.383,4,10,2025-04-18T10:45:51.293+03:00,766655507.3597906,0,108.1,100.5582,1,0.65,2025-04-18T10:51:44.544+03:00,90,1.5,2025-04-18T08:51:18.885+03:00,0.03057091307199995,1
2025-04-18T10:51:48.877+03:00,1744962707.979002,40.95360044731795,29.14099783666757,93.78481,-1,-1,-1,-1,30,24.95784727372706,-9999,62299.99311691667,-0.720916748046875,0.6430206298828125,-0.4691925048828125,62299.98304091667,1.227667774888717,-1.264977783812433,-0.8176865000294145,-1.260236978530884,-0.4609142243862152,0.2580814361572266,0.01816004514694214,-0.1791504621505737,-0.3256016373634338,XArbitraryZVertical,0.05033317574118641,-0.6281024784479735,0.6184018202177675,0.469609511734188,-0.6521780490875244,0.7295655608177185,-0.2059077024459839,0,0,0,-1,-1,62298.38479475,unknown,2,2025-04-18T10:51:47.264+03:00,2025-04-17T15:44:39.500+03:00,7169,1.081054,0,0,5915.383,4,10,2025-04-18T10:45:51.293+03:00,766655507.3597906,0,108.1,100.5582,1,0.65,2025-04-18T10:51:44.544+03:00,90,1.5,2025-04-18T08:51:18.885+03:00,0.03057091307199995,1
2025-04-18T10:51:48.887+03:00,1744962707.979002,40.95360044731795,29.14099783666757,93.78481,-1,-1,-1,-1,30,24.95784727372706,-9999,62300.00319291667,-0.6331939697265625,0.7625274658203125,-0.44183349609375,62299.99311691667,1.212610702503938,-1.281581886752779,-0.8239177350406867,-1.031975626945496,-0.6672075986862183,0.3240140080451965,-0.06817775964736938,-0.1412989497184753,-0.3060204088687897,XArbitraryZVertical,0.04840060364414735,-0.6330735114269617,0.615284778518955,0.4672257507924519,-0.6511368155479431,0.7338129878044128,-0.1937506198883057,0,0,0,-1,-1,62298.38479475,unknown,2,2025-04-18T10:51:47.264+03:00,2025-04-17T15:44:39.500+03:00,7169,1.081054,0,0,5915.383,4,10,2025-04-18T10:45:51.293+03:00,766655507.3597906,0,108.1,100.5582,1,0.65,2025-04-18T10:51:44.544+03:00,90,1.5,2025-04-18T08:51:18.885+03:00,0.03057091307199995,1
2025-04-18T10:51:48.897+03:00,1744962707.979002,40.95360044731795,29.14099783666757,93.78481,-1,-1,-1,-1,30,24.95784727372706,-9999,62300.01326791667,-0.5754547119140625,0.8150787353515625,-0.4278106689453125,62300.00319291667,1.201394205757623,-1.297871457677541,-0.8297380147222635,-0.7372860312461853,-0.9175084829330444,0.3674390017986298,-0.04411607980728149,-0.04816406965255737,-0.2737545371055603,XArbitraryZVertical,0.04768685188227705,-0.637764680882312,0.6130713014229084,0.4638166056260357,-0.6500825881958008,0.7377545237541199,-0.1819643527269363,0,0,0,-1,-1,62298.38479475,unknown,2,2025-04-18T10:51:47.264+03:00,2025-04-17T15:44:39.500+03:00,7169,1.081054,0,0,5915.383,4,10,2025-04-18T10:45:51.293+03:00,766655507.3597906,0,108.1,100.5582,1,0.65,2025-04-18T10:51:44.544+03:00,90,1.5,2025-04-18T08:51:18.885+03:00,0.03057091307199995,1
2025-04-18T10:51:48.907+03:00,1744962707.979002,40.95360044731795,29.14099783666757,93.78481,-1,-1,-1,-1,30,24.95784727372706,-9999,62300.02334391667,-0.5965576171875,0.8399810791015625,-0.3752288818359375,62300.01326791667,1.193954392141902,-1.313342400769879,-0.8351746405698672,-0.5169148445129395,-1.054081797599792,0.4135574400424957,0.04718589782714844,0.0493883490562439,-0.2666075825691223,XArbitraryZVertical,0.04803595434055798,-0.6420760399252802,0.6117388340344247,0.4595722244037785,-0.6489315629005432,0.7414137125015259,-0.1708618104457855,0,0,0,-1,-1,62298.38479475,unknown,2,2025-04-18T10:51:47.264+03:00,2025-04-17T15:44:39.500+03:00,7169,1.081054,0,0,5915.383,4,10,2025-04-18T10:45:51.293+03:00,766655507.3597906,0,108.1,100.5582,1,0.65,2025-04-18T10:51:44.544+03:00,90,1.5,2025-04-18T08:51:18.885+03:00,0.03057091307199995,1
2025-04-18T10:51:48.917+03:00,1744962707.979002,40.95360044731795,29.14099783666757,93.78481,-1,-1,-1,-1,30,24.95784727372706,-9999,62300.03341991667,-0.6205291748046875,0.855194091796875,-0.27825927734375,62300.02334391667,1.189302629111683,-1.327774222509154,-0.8404621563314575,-0.3593542873859406,-1.114353179931641,0.4510518312454224,0.07012283802032471,0.07977080345153809,-0.2550396323204041,XArbitraryZVertical,0.0490008836026784,-0.6460125357071398,0.6110747771452502,0.4548124104731434,-0.6475154161453247,0.7449514865875244,-0.1605334281921387,0,0,0,-1,-1,62298.38479475,unknown,2,2025-04-18T10:51:47.264+03:00,2025-04-17T15:44:39.500+03:00,7169,1.081054,0,0,5915.383,4,10,2025-04-18T10:45:51.293+03:00,766655507.3597906,0,108.1,100.5582,1,0.65,2025-04-18T10:51:44.544+03:00,90,1.5,2025-04-18T08:51:18.885+03:00,0.03057091307199995,1
2025-04-18T10:51:48.927+03:00,1744962707.979002,40.95360044731795,29.14099783666757,93.78481,-1,-1,-1,-1,30,24.95784727372706,-9999,62300.04349591667,-0.6329193115234375,0.8594512939453125,-0.1678314208984375,62300.03341991667,1.185750460247192,-1.341700177433942,-0.845761804924643,-0.3539977073669434,-1.113153100013733,0.4548704624176025,0.03739005327224731,0.09898138046264648,-0.1902332901954651,XArbitraryZVertical,0.05015420334190816,-0.6497564564868007,0.6106900278723301,0.4498431357014038,-0.6458343267440796,0.748476505279541,-0.1506022065877914,0,0,0,-1,-1,62298.38479475,unknown,2,2025-04-18T10:51:47.264+03:00,2025-04-17T15:44:39.500+03:00,7169,1.081054,0,0,5915.383,4,10,2025-04-18T10:45:51.293+03:00,766655507.3597906,0,108.1,100.5582,1,0.65,2025-04-18T10:51:44.544+03:00,90,1.5,2025-04-18T08:51:18.885+03:00,0.03057091307199995,1
2025-04-18T10:51:48.937+03:00,1744962707.979002,40.95360044731795,29.14099783666757,93.78481,-1,-1,-1,-1,30,24.95784727372706,-9999,62300.05357191667,-0.6436309814453125,0.8607330322265625,-0.07611083984375,62300.04349591667,1.181663380614034,-1.355632130571729,-0.8509720583749205,-0.3981031179428101,-1.04175078868866,0.4340906143188477,0.01844078302383423,0.106080174446106,-0.09717464447021484,XArbitraryZVertical,0.0511622552263152,-0.6534559014407603,0.6101857916253816,0.4450294517150494,-0.644051194190979,0.7519215941429138,-0.1407556235790253,0,0,0,-1,-1,62298.38479475,unknown,2,2025-04-18T10:51:47.264+03:00,2025-04-17T15:44:39.500+03:00,7169,1.081054,0,0,5915.383,4,10,2025-04-18T10:45:51.293+03:00,766655507.3597906,0,108.1,100.5582,1,0.65,2025-04-18T10:51:44.544+03:00,90,1.5,2025-04-18T08:51:18.885+03:00,0.03057091307199995,1
2025-04-18T10:51:48.948+03:00,1744962707.979002,40.95360044731795,29.14099783666757,93.78481,-1,-1,-1,-1,30,24.95784727372706,-9999,62300.06364691667,-0.653106689453125,0.8631134033203125,-0.0174407958984375,62300.05357191667,1.176522190761922,-1.369470651984948,-0.8560100608669988,-0.4765857458114624,-0.9294930100440979,0.4015852808952332,0.00453716516494751,0.1039431691169739,0.002469435334205627,XArbitraryZVertical,0.05185173352295485,-0.6570967681753825,0.6094412177718517,0.4405865950244647,-0.642217218875885,0.7552333474159241,-0.131070464849472,0,0,0,-1,-1,62298.38479475,unknown,2,2025-04-18T10:51:47.264+03:00,2025-04-17T15:44:39.500+03:00,7169,1.081054,0,0,5915.383,4,10,2025-04-18T10:45:51.293+03:00,766655507.3597906,0,108.1,100.5582,1,0.65,2025-04-18T10:51:44.544+03:00,90,1.5,2025-04-18T08:51:18.885+03:00,0.03057091307199995,1
2025-04-18T10:51:48.958+03:00,1744962707.979002,40.95360044731795,29.14099783666757,93.78481,-1,-1,-1,-1,30,24.95784727372706,-9999,62300.07372291667,-0.6564788818359375,0.866729736328125,0.0146942138671875,62300.06364691667,1.169916239039992,-1.38306934403374,-0.8607680872577022,-0.541770875453949,-0.7812215089797974,0.3557701110839844,-0.006981909275054932,0.1034424304962158,0.07094842195510864,XArbitraryZVertical,0.05207588674650673,-0.6606522817381235,0.6083598915143131,0.4367206737264484,-0.6404027938842773,0.7583434581756592,-0.121653325855732,0,0,0,-1,-1,62298.38479475,unknown,2,2025-04-18T10:51:47.264+03:00,2025-04-17T15:44:39.500+03:00,7169,1.081054,0,0,5915.383,4,10,2025-04-18T10:45:51.293+03:00,766655507.3597906,0,108.1,100.5582,1,0.65,2025-04-18T10:51:44.544+03:00,90,1.5,2025-04-18T08:51:18.885+03:00,0.03057091307199995,1
2025-04-18T10:51:48.968+03:00,1744962707.979002,40.95360044731795,29.14099783666757,93.78481,-1,-1,-1,-1,30,24.95784727372706,-9999,62300.08379891667,-0.6382598876953125,0.8781585693359375,0.0324859619140625,62300.07372291667,1.161986751243147,-1.396339516672534,-0.8650950278521291,-0.6191538572311401,-0.6636857986450195,0.3055056035518646,-0.01659613847732544,0.1021547913551331,0.1114906817674637,XArbitraryZVertical,0.05190251581136179,-0.6640927183254092,0.6069577361225957,0.4334619045471851,-0.6387230753898621,0.7611569166183472,-0.1125739812850952,0,0,0,-1,-1,62298.38479475,unknown,2,2025-04-18T10:51:47.264+03:00,2025-04-17T15:44:39.500+03:00,7169,1.081054,0,0,5915.383,4,10,2025-04-18T10:45:51.293+03:00,766655507.3597906,0,108.1,100.5582,1,0.65,2025-04-18T10:51:44.544+03:00,90,1.5,2025-04-18T08:51:18.885+03:00,0.03057091307199995,1
2025-04-18T10:51:48.978+03:00,1744962707.979002,40.95360044731795,29.14099783666757,93.78481,-1,-1,-1,-1,30,24.95784727372706,-9999,62300.09387491667,-0.61968994140625,0.8747100830078125,0.0644378662109375,62300.08379891667,1.15266527927283,-1.409671291802249,-0.8688510449826021,-0.6837940812110901,-0.5701273679733276,0.2290329188108444,-0.0149114727973938,0.1070788502693176,0.1243110448122025,XArbitraryZVertical,0.05147104981569171,-0.6674997833098463,0.6051905336583323,0.4307425661380536,-0.6373407244682312,0.7635875344276428,-0.1035895422101021,0,0,0,-1,-1,62298.38479475,unknown,2,2025-04-18T10:51:47.264+03:00,2025-04-17T15:44:39.500+03:00,7169,1.081054,0,0,5915.383,4,10,2025-04-18T10:45:51.293+03:00,766655507.3597906,0,108.1,100.5582,1,0.65,2025-04-18T10:51:44.544+03:00,90,1.5,2025-04-18T08:51:18.885+03:00,0.03057091307199995,1
2025-04-18T10:51:48.988+03:00,1744962707.979002,40.95360044731795,29.14099783666757,93.78481,-1,-1,-1,-1,30,24.95784727372706,-9999,62300.10395091667,-0.6294097900390625,0.8502197265625,0.1223602294921875,62300.09387491667,1.142628895718164,-1.422765235926108,-0.8717920850824386,-0.6626408100128174,-0.5098584294319153,0.1489961743354797,0.008260011672973633,0.1149488687515259,0.1380406022071838,XArbitraryZVertical,0.05099915061528366,-0.6707809637732957,0.6031718305837237,0.4285274367960005,-0.6364185810089111,0.7654833197593689,-0.09490396827459335,0,0,0,-1,-1,62298.38479475,unknown,2,2025-04-18T10:51:47.264+03:00,2025-04-17T15:44:39.500+03:00,7169,1.081054,0,0,5915.383,4,10,2025-04-18T10:45:51.293+03:00,766655507.3597906,0,108.1,100.5582,1,0.65,2025-04-18T10:51:44.544+03:00,90,1.5,2025-04-18T08:51:18.885+03:00,0.03057091307199995,1
2025-04-18T10:51:48.998+03:00,1744962707.979002,40.95360044731795,29.14099783666757,93.78481,-1,-1,-1,-1,30,24.95784727372706,-9999,62300.11402591667,-0.643890380859375,0.8456878662109375,0.163970947265625,62300.10395091667,1.132920801879804,-1.435209484237359,-0.8739010404844628,-0.6193476319313049,-0.4902945160865784,0.09387460350990295,0.01593899726867676,0.09967750310897827,0.1702243089675903,XArbitraryZVertical,0.05071682139099101,-0.6738311874746862,0.6011259921857388,0.4266461480679109,-0.6359493732452393,0.7668386101722717,-0.08675867319107056,0,0,0,-1,-1,62298.38479475,unknown,2,2025-04-18T10:51:47.264+03:00,2025-04-17T15:44:39.500+03:00,7169,1.081054,0,0,5915.383,4,10,2025-04-18T10:45:51.293+03:00,766655507.3597906,0,108.1,100.5582,1,0.65,2025-04-18T10:51:44.544+03:00,90,1.5,2025-04-18T08:51:18.885+03:00,0.03057091307199995,1
2025-04-18T10:51:49.008+03:00,1744962707.979002,40.95360044731795,29.14099783666757,93.78481,-1,-1,-1,-1,30,24.95784727372706,-9999,62300.12410191667,-0.6382904052734375,0.86370849609375,0.1787872314453125,62300.11402591667,1.124166505570343,-1.446972438650718,-0.8753666474636991,-0.5193882584571838,-0.5176073908805847,0.05218534544110298,-0.0006188750267028809,0.07580381631851196,0.2217420339584351,XArbitraryZVertical,0.05075997616882708,-0.6766511378282832,0.5992093054372569,0.4248706302274469,-0.6358100771903992,0.7677784562110901,-0.07913332432508469,0,0,0,-1,-1,62298.38479475,unknown,2,2025-04-18T10:51:47.264+03:00,2025-04-17T15:44:39.500+03:00,7169,1.081054,0,0,5915.383,4,10,2025-04-18T10:45:51.293+03:00,766655507.3597906,0,108.1,100.5582,1,0.65,2025-04-18T10:51:44.544+03:00,90,1.5,2025-04-18T08:51:18.885+03:00,0.03057091307199995,1
2025-04-18T10:51:49.018+03:00,1744962707.979002,40.95360044731795,29.14099783666757,93.78481,-1,-1,-1,-1,30,24.95784727372706,-9999,62300.13417791667,-0.632781982421875,0.8624420166015625,0.1966552734375,62300.12410191667,1.116502643537851,-1.458433317751633,-0.8762788541624936,-0.4710697531700134,-0.5895494818687439,0.01500442158430815,-0.007926821708679199,0.08365768194198608,0.2423255443572998,XArbitraryZVertical,0.05126084102796801,-0.6793312478962504,0.597448069797657,0.4230097368824396,-0.6359788179397583,0.7683626413345337,-0.07176276296377182,0,0,0,-1,-1,62298.38479475,unknown,2,2025-04-18T10:51:47.264+03:00,2025-04-17T15:44:39.500+03:00,7169,1.081054,0,0,5915.383,4,10,2025-04-18T10:45:51.293+03:00,766655507.3597906,0,108.1,100.5582,1,0.65,2025-04-18T10:51:44.544+03:00,90,1.5,2025-04-18T08:51:18.885+03:00,0.03057091307199995,1
2025-04-18T10:51:49.028+03:00,1744962707.979002,40.95360044731795,29.14099783666757,93.78481,-1,-1,-1,-1,30,24.95784727372706,-9999,62300.14425391667,-0.6432647705078125,0.8414154052734375,0.212738037109375,62300.13417791667,1.109964725840373,-1.46955760410224,-0.8766940473746042,-0.3517904877662659,-0.6056291460990906,-0.02441555447876453,0.001349508762359619,0.09892547130584717,0.2484740614891052,XArbitraryZVertical,0.05220480434039377,-0.6818716536496489,0.5958527592068358,0.4210525606293784,-0.6364203691482544,0.7686282992362976,-0.06465141475200653,0,0,0,-1,-1,62298.38479475,unknown,2,2025-04-18T10:51:47.264+03:00,2025-04-17T15:44:39.500+03:00,7169,1.081054,0,0,5915.383,4,10,2025-04-18T10:45:51.293+03:00,766655507.3597906,0,108.1,100.5582,1,0.65,2025-04-18T10:51:44.544+03:00,90,1.5,2025-04-18T08:51:18.885+03:00,0.03057091307199995,1
2025-04-18T10:51:49.038+03:00,1744962707.979002,40.95360044731795,29.14099783666757,93.78481,-1,-1,-1,-1,30,24.95784727372706,-9999,62300.15432891667,-0.6609344482421875,0.8206634521484375,0.243896484375,62300.14425391667,1.105423763123033,-1.478990160232994,-0.8765570506484935,-0.2290946692228317,-0.573248565196991,-0.05711331218481064,0.002691864967346191,0.08669912815093994,0.2621617317199707,XArbitraryZVertical,0.05351096891709389,-0.6839656294163626,0.5946254328175614,0.4192232150551367,-0.6371064782142639,0.768540620803833,-0.05865518748760223,0,0,0,-1,-1,62298.38479475,unknown,2,2025-04-18T10:51:47.264+03:00,2025-04-17T15:44:39.500+03:00,7169,1.081054,0,0,5915.383,4,10,2025-04-18T10:45:51.293+03:00,766655507.3597906,0,108.1,100.5582,1,0.65,2025-04-18T10:51:44.544+03:00,90,1.5,2025-04-18T08:51:18.885+03:00,0.03057091307199995,1
2025-04-18T10:51:49.048+03:00,1744962707.979002,40.95360044731795,29.14099783666757,93.78481,-1,-1,-1,-1,30,24.95784727372706,-9999,62300.16440491667,-0.66082763671875,0.787506103515625,0.2938232421875,62300.15432891667,1.102570644065348,-1.486810794438874,-0.8759194389564072,-0.1260503679513931,-0.5454183220863342,-0.1054112389683723,-0.01246339082717896,0.06638586521148682,0.2733623385429382,XArbitraryZVertical,0.05508657174455735,-0.6856453037397889,0.5937025064610424,0.4175803111642117,-0.6380340456962585,0.7681325078010559,-0.05371197313070297,0,0,0,-1,-1,62298.38479475,unknown,2,2025-04-18T10:51:47.264+03:00,2025-04-17T15:44:39.500+03:00,7169,1.081054,0,0,5915.383,4,10,2025-04-18T10:45:51.293+03:00,766655507.3597906,0,108.1,100.5582,1,0.65,2025-04-18T10:51:44.544+03:00,90,1.5,2025-04-18T08:51:18.885+03:00,0.03057091307199995,1
2025-04-18T10:51:49.058+03:00,1744962707.979002,40.95360044731795,29.14099783666757,93.78481,-1,-1,-1,-1,30,24.95784727372706,-9999,62300.17448091667,-0.6595306396484375,0.7674560546875,0.3145904541015625,62300.16440491667,1.101173532803729,-1.492972541427034,-0.8748061882229631,-0.02689182572066784,-0.4703052043914795,-0.1249809414148331,-0.02348411083221436,0.04111349582672119,0.3137468695640564,XArbitraryZVertical,0.05683472770156433,-0.6869110533758317,0.5930384355780556,0.4162073065428254,-0.6392051577568054,0.7674192786216736,-0.04984603822231293,0,0,0,-1,-1,62298.38479475,unknown,2,2025-04-18T10:51:47.264+03:00,2025-04-17T15:44:39.500+03:00,7169,1.081054,0,0,5915.383,4,10,2025-04-18T10:45:51.293+03:00,766655507.3597906,0,108.1,100.5582,1,0.65,2025-04-18T10:51:44.544+03:00,90,1.5,2025-04-18T08:51:18.885+03:00,0.03057091307199995,1
2025-04-18T10:51:49.068+03:00,1744962707.979002,40.95360044731795,29.14099783666757,93.78481,-1,-1,-1,-1,30,24.95784727372706,-9999,62300.18455691667,-0.6544036865234375,0.75286865234375,0.3104095458984375,62300.17448091667,1.101488920625306,-1.497024941400739,-0.8733662832820716,0.0925084725022316,-0.3810955584049225,-0.1495344191789627,-0.0194699764251709,0.01151984930038452,0.3536416888237,XArbitraryZVertical,0.05866049257367595,-0.6876704094909887,0.5927260484744681,0.4151436144123724,-0.6405031681060791,0.7664952874183655,-0.04733670875430107,0,0,0,-1,-1,62298.38479475,unknown,2,2025-04-18T10:51:47.264+03:00,2025-04-17T15:44:39.500+03:00,7169,1.081054,0,0,5915.383,4,10,2025-04-18T10:45:51.293+03:00,766655507.3597906,0,108.1,100.5582,1,0.65,2025-04-18T10:51:44.544+03:00,90,1.5,2025-04-18T08:51:18.885+03:00,0.03057091307199995,1
2025-04-18T10:51:49.078+03:00,1744962707.979002,40.95360044731795,29.14099783666757,93.78481,-1,-1,-1,-1,30,24.95784727372706,-9999,62300.19463291667,-0.644805908203125,0.74957275390625,0.3114013671875,62300.18455691667,1.104224391866712,-1.498294945046619,-0.8716638019403513,0.2896242141723633,-0.2892726957798004,-0.162588968873024,-0.01598864793777466,-0.003895461559295654,0.3612692952156067,XArbitraryZVertical,0.06058711515373288,-0.6877647462752364,0.5929461032498879,0.4143959496686832,-0.6418636441230774,0.765400767326355,-0.04661770910024643,0,0,0,-1,-1,62298.38479475,unknown,2,2025-04-18T10:51:47.264+03:00,2025-04-17T15:44:39.500+03:00,7169,1.081054,0,0,5915.383,4,10,2025-04-18T10:45:51.293+03:00,766655507.3597906,0,108.1,100.5582,1,0.65,2025-04-18T10:51:44.544+03:00,90,1.5,2025-04-18T08:51:18.885+03:00,0.03057091307199995,1
2025-04-18T10:51:49.089+03:00,1744962707.979002,40.95360044731795,29.14099783666757,93.78481,-1,-1,-1,-1,30,24.95784727372706,-9999,62300.20470791667,-0.6433258056640625,0.74761962890625,0.3267822265625,62300.19463291667,1.110172083111352,-1.496305383685762,-0.8696022705458735,0.5050921440124512,-0.2160289585590363,-0.1903479695320129,-0.008636057376861572,-0.01401132345199585,0.3578875064849854,XArbitraryZVertical,0.06277915751821439,-0.6870609881302765,0.5938654199972369,0.413920133260851,-0.6433414816856384,0.7640724182128906,-0.04801195114850998,0,0,0,-1,-1,62298.38479475,unknown,2,2025-04-18T10:51:47.264+03:00,2025-04-17T15:44:39.500+03:00,7169,1.081054,0,0,5915.383,4,10,2025-04-18T10:45:51.293+03:00,766655507.3597906,0,108.1,100.5582,1,0.65,2025-04-18T10:51:44.544+03:00,90,1.5,2025-04-18T08:51:18.885+03:00,0.03057091307199995,1
2025-04-18T10:51:49.099+03:00,1744962707.979002,40.95360044731795,29.14099783666757,93.78481,-1,-1,-1,-1,30,24.95784727372706,-9999,62300.21478391667,-0.6556854248046875,0.725433349609375,0.352996826171875,62300.20470791667,1.119486096344243,-1.49092100347092,-0.8671596107756652,0.7111055254936218,-0.1273385137319565,-0.2014893144369125,0.002842307090759277,-0.01116675138473511,0.3670384883880615,XArbitraryZVertical,0.06524881867862771,-0.6855148353561255,0.5955256364370963,0.4137164506199166,-0.6449322104454041,0.7624943256378174,-0.05162400379776955,0,0,0,-1,-1,62298.38479475,unknown,2,2025-04-18T10:51:47.264+03:00,2025-04-17T15:44:39.500+03:00,7169,1.081054,0,0,5915.383,4,10,2025-04-18T10:45:51.293+03:00,766655507.3597906,0,108.1,100.5582,1,0.65,2025-04-18T10:51:44.544+03:00,90,1.5,2025-04-18T08:51:18.885+03:00,0.03057091307199995,1
2025-04-18T10:51:49.109+03:00,1744962707.979002,40.95360044731795,29.14099783666757,93.78481,-1,-1,-1,-1,30,24.95784727372706,-9999,62300.22485991667,-0.6728973388671875,0.68743896484375,0.399505615234375,62300.21478391667,1.130741965418641,-1.483217358066444,-0.8642434633287152,0.7778416872024536,-0.04845647513866425,-0.2474261671304703,-7.718801498413086e-05,-0.01946967840194702,0.3924326300621033,XArbitraryZVertical,0.06784793752655266,-0.6833770240057176,0.5975929789033523,0.4138541213486597,-0.6467276811599731,0.7606043219566345,-0.05678500235080719,0,0,0,-1,-1,62298.38479475,unknown,2,2025-04-18T10:51:47.264+03:00,2025-04-17T15:44:39.500+03:00,7169,1.081054,0,0,5915.383,4,10,2025-04-18T10:45:51.293+03:00,766655507.3597906,0,108.1,100.5582,1,0.65,2025-04-18T10:51:44.544+03:00,90,1.5,2025-04-18T08:51:18.885+03:00,0.03057091307199995,1
2025-04-18T10:51:49.119+03:00,1744962707.979002,40.95360044731795,29.14099783666757,93.78481,-1,-1,-1,-1,30,24.95784727372706,-9999,62300.23493591667,-0.6870269775390625,0.626953125,0.42974853515625,62300.22485991667,1.142439629282546,-1.474337214376624,-0.8607592355843843,0.7713872790336609,0.05164935439825058,-0.3065808415412903,-0.01401007175445557,-0.04286831617355347,0.4323179721832275,XArbitraryZVertical,0.07042932415201035,-0.680918075328825,0.599712950861876,0.4144089059413392,-0.6488317847251892,0.758337676525116,-0.06278056651353836,0,0,0,-1,-1,62298.38479475,unknown,2,2025-04-18T10:51:47.264+03:00,2025-04-17T15:44:39.500+03:00,7169,1.081054,0,0,5915.383,4,10,2025-04-18T10:45:51.293+03:00,766655507.3597906,0,108.1,100.5582,1,0.65,2025-04-18T10:51:44.544+03:00,90,1.5,2025-04-18T08:51:18.885+03:00,0.03057091307199995,1
2025-04-18T10:51:49.129+03:00,1744962707.979002,40.95360044731795,29.14099783666757,93.78481,-1,-1,-1,-1,30,24.95784727372706,-9999,62300.24501191667,-0.701324462890625,0.6055450439453125,0.4413909912109375,62300.23493591667,1.152635832269155,-1.465569893555307,-0.8566493566010629,0.6259000897407532,0.1571150571107864,-0.3717783391475677,-0.02661293745040894,-0.09171181917190552,0.4834357500076294,XArbitraryZVertical,0.0727372635756684,-0.6784634157140536,0.6014345406203322,0.4155396761411634,-0.6513503193855286,0.7556522488594055,-0.06879337131977081,0,0,0,-1,-1,62298.38479475,unknown,2,2025-04-18T10:51:47.264+03:00,2025-04-17T15:44:39.500+03:00,7169,1.081054,0,0,5915.383,4,10,2025-04-18T10:45:51.293+03:00,766655507.3597906,0,108.1,100.5582,1,0.65,2025-04-18T10:51:44.544+03:00,90,1.5,2025-04-18T08:51:18.885+03:00,0.03057091307199995,1
2025-04-18T10:51:49.139+03:00,1744962707.979002,40.95360044731795,29.14099783666757,93.78481,-1,-1,-1,-1,30,24.95784727372706,-9999,62300.25508691667,-0.6963043212890625,0.610076904296875,0.4110260009765625,62300.24501191667,1.160462852589438,-1.457423426429411,-0.852105407750864,0.4797032177448273,0.2854077816009521,-0.4144421815872192,-0.04016268253326416,-0.1389597654342651,0.5111152529716492,XArbitraryZVertical,0.07456864185792926,-0.6761634827987907,0.6025916036162798,0.4172839992342813,-0.6541732549667358,0.7526682615280151,-0.0744849219918251,0,0,0,-1,-1,62298.38479475,unknown,2,2025-04-18T10:51:47.264+03:00,2025-04-17T15:44:39.500+03:00,7169,1.081054,0,0,5915.383,4,10,2025-04-18T10:45:51.293+03:00,766655507.3597906,0,108.1,100.5582,1,0.65,2025-04-18T10:51:44.544+03:00,90,1.5,2025-04-18T08:51:18.885+03:00,0.03057091307199995,1
2025-04-18T10:51:49.149+03:00,1744962707.979002,40.95360044731795,29.14099783666757,93.78481,-1,-1,-1,-1,30,24.95784727372706,-9999,62300.26516291667,-0.6948699951171875,0.64599609375,0.365234375,62300.25508691667,1.165528155800013,-1.450159767951555,-0.8473053276668202,0.292397141456604,0.3986141383647919,-0.4503020942211151,-0.04406946897506714,-0.1459378600120544,0.515230655670166,XArbitraryZVertical,0.07581562346935231,-0.6741051526420206,0.6031162150864843,0.4196249546069896,-0.6571939587593079,0.7494992613792419,-0.07966846972703934,0,0,0,-1,-1,62298.38479475,unknown,2,2025-04-18T10:51:47.264+03:00,2025-04-17T15:44:39.500+03:00,7169,1.081054,0,0,5915.383,4,10,2025-04-18T10:45:51.293+03:00,766655507.3597906,0,108.1,100.5582,1,0.65,2025-04-18T10:51:44.544+03:00,90,1.5,2025-04-18T08:51:18.885+03:00,0.03057091307199995,1
2025-04-18T10:51:49.159+03:00,1744962707.979002,40.95360044731795,29.14099783666757,93.78481,-1,-1,-1,-1,30,24.95784727372706,-9999,62300.27523891667,-0.6871490478515625,0.6649627685546875,0.3335418701171875,62300.26516291667,1.167947950223549,-1.443825016548618,-0.8424564513953772,0.1522032916545868,0.499951958656311,-0.4656112790107727,-0.03433734178543091,-0.1248815655708313,0.4772489070892334,XArbitraryZVertical,0.07646568715289254,-0.6723156939888898,0.6030553792518369,0.4224556946316643,-0.6602732539176941,0.7462804913520813,-0.08428921550512314,0,0,0,-1,-1,62298.38479475,unknown,2,2025-04-18T10:51:47.264+03:00,2025-04-17T15:44:39.500+03:00,7169,1.081054,0,0,5915.383,4,10,2025-04-18T10:45:51.293+03:00,766655507.3597906,0,108.1,100.5582,1,0.65,2025-04-18T10:51:44.544+03:00,90,1.5,2025-04-18T08:51:18.885+03:00,0.03057091307199995,1
2025-04-18T10:51:49.169+03:00,1744962707.979002,40.95360044731795,29.14099783666757,93.78481,-1,-1,-1,-1,30,24.95784727372706,-9999,62300.28531491667,-0.6671600341796875,0.7035064697265625,0.3189849853515625,62300.27523891667,1.169013181039521,-1.437404593885067,-0.8376130046059755,0.1364370584487915,0.6146177649497986,-0.4694248139858246,-0.03073763847351074,-0.08638578653335571,0.4400043487548828,XArbitraryZVertical,0.07663351741287122,-0.6705401760190408,0.6027197536524983,0.4257135272628342,-0.6632931232452393,0.7430477738380432,-0.08900634944438934,0,0,0,-1,-1,62298.38479475,unknown,2,2025-04-18T10:51:47.264+03:00,2025-04-17T15:44:39.500+03:00,7169,1.081054,0,0,5915.383,4,10,2025-04-18T10:45:51.293+03:00,766655507.3597906,0,108.1,100.5582,1,0.65,2025-04-18T10:51:44.544+03:00,90,1.5,2025-04-18T08:51:18.885+03:00,0.03057091307199995,1
2025-04-18T10:51:49.179+03:00,1744962707.979002,40.95360044731795,29.14099783666757,93.78481,-1,-1,-1,-1,30,24.95784727372706,-9999,62300.29538991667,-0.642669677734375,0.7748260498046875,0.3096923828125,62300.28531491667,1.170994341645375,-1.429470461222015,-0.8325844349373954,0.2884904742240906,0.6602044105529785,-0.4857662320137024,-0.01492571830749512,-0.06708085536956787,0.4217872023582458,XArbitraryZVertical,0.07672028027736079,-0.6683699186555571,0.6026131555617298,0.4292472215987014,-0.6662571430206299,0.7396730780601501,-0.09479130059480667,0,0,0,-1,-1,62298.38479475,unknown,2,2025-04-18T10:51:47.264+03:00,2025-04-17T15:44:39.500+03:00,7169,1.081054,0,0,5915.383,4,10,2025-04-18T10:45:51.293+03:00,766655507.3597906,0,108.1,100.5582,1,0.65,2025-04-18T10:51:44.544+03:00,90,1.5,2025-04-18T08:51:18.885+03:00,0.03057091307199995,1
2025-04-18T10:51:49.189+03:00,1744962707.979002,40.95360044731795,29.14099783666757,93.78481,-1,-1,-1,-1,30,24.95784727372706,-9999,62300.30546591667,-0.612335205078125,0.8449554443359375,0.3065338134765625,62300.29538991667,1.176784422728147,-1.418396596136185,-0.8270749184953541,0.6624974608421326,0.6874808669090271,-0.4718927443027496,0.01119488477706909,-0.005119144916534424,0.4183475375175476,XArbitraryZVertical,0.07730307013140858,-0.6653074453413637,0.6033816393180614,0.4328058608270108,-0.6691844463348389,0.7359541654586792,-0.1027804762125015,0,0,0,-1,-1,62298.38479475,unknown,2,2025-04-18T10:51:47.264+03:00,2025-04-17T15:44:39.500+03:00,7169,1.081054,0,0,5915.383,4,10,2025-04-18T10:45:51.293+03:00,766655507.3597906,0,108.1,100.5582,1,0.65,2025-04-18T10:51:44.544+03:00,90,1.5,2025-04-18T08:51:18.885+03:00,0.03057091307199995,1
2025-04-18T10:51:49.199+03:00,1744962707.979002,40.95360044731795,29.14099783666757,93.78481,-1,-1,-1,-1,30,24.95784727372706,-9999,62300.31554191667,-0.5764617919921875,0.968902587890625,0.3316650390625,62300.30546591667,1.189271936718097,-1.402156586115086,-0.8210954016129773,1.21461009979248,0.7147803902626038,-0.432043582201004,0.03871208429336548,0.06554698944091797,0.4205688238143921,XArbitraryZVertical,0.07869828725520436,-0.6607732371462351,0.6057623789657316,0.4361622180089936,-0.6717535853385925,0.7318927049636841,-0.1143706142902374,0,0,0,-1,-1,62298.38479475,unknown,2,2025-04-18T10:51:47.264+03:00,2025-04-17T15:44:39.500+03:00,7169,1.081054,0,0,5915.383,4,10,2025-04-18T10:45:51.293+03:00,766655507.3597906,0,108.1,100.5582,1,0.65,2025-04-18T10:51:44.544+03:00,90,1.5,2025-04-18T08:51:18.885+03:00,0.03057091307199995,1
2025-04-18T10:51:49.217+03:00,1744962707.979002,40.95360044731795,29.14099783666757,93.78481,-1,-1,-1,-1,30,24.95784727372706,-9999,62300.32561791667,-0.55322265625,1.043655395507812,0.3586578369140625,62300.31554191667,1.210837275798026,-1.379177101241367,-0.8140434506270721,1.921221017837524,0.7304149270057678,-0.4205688536167145,0.07522797584533691,0.1597716212272644,0.4444150328636169,XArbitraryZVertical,0.08135936138431935,-0.6542193916017837,0.610298591358126,0.439218955650029,-0.6739981174468994,0.7270691990852356,-0.130755290389061,0,0,0,-1,-1,62298.38479475,unknown,2,2025-04-18T10:51:47.264+03:00,2025-04-17T15:44:39.500+03:00,7169,1.081054,0,0,5915.383,4,10,2025-04-18T10:45:51.293+03:00,766655507.3597906,0,108.1,100.5582,1,0.65,2025-04-18T10:51:44.544+03:00,90,1.5,2025-04-18T08:51:18.885+03:00,0.03057091307199995,1
2025-04-18T10:51:49.220+03:00,1744962707.979002,40.95360044731795,29.14099783666757,93.78481,-1,-1,-1,-1,30,24.95784727372706,-9999,62300.33569391667,-0.5632171630859375,1.039474487304688,0.457305908203125,62300.32561791667,1.241152847028088,-1.34922493880237,-0.8053218414752494,2.461256980895996,0.8775915503501892,-0.4264059662818909,0.1110907196998596,0.2880710363388062,0.493760883808136,XArbitraryZVertical,0.08518820622307713,-0.6454520993941146,0.6169266498584638,0.4421945735319097,-0.6759405732154846,0.7210536599159241,-0.15226911008358,0,0,0,-1,-1,62298.38479475,unknown,2,2025-04-18T10:51:47.264+03:00,2025-04-17T15:44:39.500+03:00,7169,1.081054,0,0,5915.383,4,10,2025-04-18T10:45:51.293+03:00,766655507.3597906,0,108.1,100.5582,1,0.65,2025-04-18T10:51:44.544+03:00,90,1.5,2025-04-18T08:51:18.885+03:00,0.03057091307199995,1
2025-04-18T10:51:49.230+03:00,1744962707.979002,40.95360044731795,29.14099783666757,93.78481,-1,-1,-1,-1,30,24.95784727372706,-9999,62300.34576891667,-0.5772857666015625,0.990997314453125,0.6614227294921875,62300.33569391667,1.276152184276111,-1.314208772979065,-0.7947943797987431,2.686426639556885,1.09449028968811,-0.4656996130943298,0.1245678663253784,0.3336284756660461,0.5587074756622314,XArbitraryZVertical,0.08934965043335247,-0.634931815553355,0.6247513059492276,0.4456053514175692,-0.6775006651878357,0.7137196063995361,-0.1777564585208893,0,0,0,-1,-1,62298.38479475,unknown,2,2025-04-18T10:51:47.264+03:00,2025-04-17T15:44:39.500+03:00,7169,1.081054,0,0,5915.383,4,10,2025-04-18T10:45:51.293+03:00,766655507.3597906,0,108.1,100.5582,1,0.65,2025-04-18T10:51:44.544+03:00,90,1.5,2025-04-18T08:51:18.885+03:00,0.03057091307199995,1
2025-04-18T10:51:49.240+03:00,1744962707.979002,40.95360044731795,29.14099783666757,93.78481,-1,-1,-1,-1,30,24.95784727372706,-9999,62300.35584491667,-0.6259765625,0.791107177734375,0.8863372802734375,62300.34576891667,1.308820806994881,-1.277831224432564,-0.7827020769531677,2.263460636138916,1.588779330253601,-0.6006425023078918,0.1097092628479004,0.3249688744544983,0.7297965884208679,XArbitraryZVertical,0.09259667969016536,-0.6237366786208922,0.6321493474436233,0.4502951750558045,-0.6788011193275452,0.705197811126709,-0.2047568261623383,0,0,0,-1,-1,62298.38479475,unknown,2,2025-04-18T10:51:47.264+03:00,2025-04-17T15:44:39.500+03:00,7169,1.081054,0,0,5915.383,4,10,2025-04-18T10:45:51.293+03:00,766655507.3597906,0,108.1,100.5582,1,0.65,2025-04-18T10:51:44.544+03:00,90,1.5,2025-04-18T08:51:18.885+03:00,0.03057091307199995,1
2025-04-18T10:51:49.250+03:00,1744962707.979002,40.95360044731795,29.14099783666757,93.78481,-1,-1,-1,-1,30,24.95784727372706,-9999,62300.36592091667,-0.7363433837890625,0.477813720703125,0.9908294677734375,62300.35584491667,1.330147256165532,-1.24265298353153,-0.7712224990443765,1.241455912590027,2.46027398109436,-0.6481314897537231,0.09305942058563232,0.2424408197402954,0.9801826477050781,XArbitraryZVertical,0.09220454458410172,-0.613147004358203,0.6372196380709537,0.457712043672188,-0.6787986159324646,0.6970123648643494,-0.2310981452465057,0,0,0,-1,-1,62298.38479475,unknown,2,2025-04-18T10:51:47.264+03:00,2025-04-17T15:44:39.500+03:00,7169,1.081054,0,0,5915.383,4,10,2025-04-18T10:45:51.293+03:00,766655507.3597906,0,108.1,100.5582,1,0.65,2025-04-18T10:51:44.544+03:00,90,1.5,2025-04-18T08:51:18.885+03:00,0.03057091307199995,1
2025-04-18T10:51:49.260+03:00,1744962707.979002,40.95360044731795,29.14099783666757,93.78481,-1,-1,-1,-1,30,24.95784727372706,-9999,62300.37599691667,-0.86224365234375,0.1798553466796875,1.049362182617188,62300.36592091667,1.333454017143528,-1.210466181012106,-0.7628609164320244,-0.3041950762271881,3.481379747390747,-0.7739543914794922,0.01224040985107422,-0.01360893249511719,1.201127648353577,XArbitraryZVertical,0.08599542568264293,-0.6042931983503061,0.6384551804263205,0.4688384710334743,-0.6764402389526367,0.6909922957420349,-0.2548690438270569,0,0,0,-1,-1,62298.38479475,unknown,2,2025-04-18T10:51:47.264+03:00,2025-04-17T15:44:39.500+03:00,7169,1.081054,0,0,5915.383,4,10,2025-04-18T10:45:51.293+03:00,766655507.3597906,0,108.1,100.5582,1,0.65,2025-04-18T10:51:44.544+03:00,90,1.5,2025-04-18T08:51:18.885+03:00,0.03057091307199995,1
2025-04-18T10:51:49.270+03:00,1744962707.979002,40.95360044731795,29.14099783666757,93.78481,-1,-1,-1,-1,30,24.95784727372706,-9999,62300.38607291667,-0.96844482421875,-0.0939178466796875,1.180694580078125,62300.37599691667,1.314170819243648,-1.183084722347373,-0.7598273676725931,-2.022815465927124,4.599928855895996,-0.7714277505874634,-0.1108360886573792,-0.325972855091095,1.276464819908142,XArbitraryZVertical,0.07259677828432251,-0.5980698448944173,0.6346072767412638,0.4840617454518007,-0.6711463332176208,0.6887962818145752,-0.2740843296051025,0,0,0,-1,-1,62298.38479475,unknown,2,2025-04-18T10:51:47.264+03:00,2025-04-17T15:44:39.500+03:00,7169,1.081054,0,0,5915.383,4,10,2025-04-18T10:45:51.293+03:00,766655507.3597906,0,108.1,100.5582,1,0.65,2025-04-18T10:51:44.544+03:00,90,1.5,2025-04-18T08:51:18.885+03:00,0.03057091307199995,1
2025-04-18T10:51:49.280+03:00,1744962707.979002,40.95360044731795,29.14099783666757,93.78481,-1,-1,-1,-1,30,24.95784727372706,-9999,62300.39614791667,-0.9258270263671875,-0.112884521484375,0.859588623046875,62300.38607291667,1.280201786661698,-1.155244514634659,-0.7639333245155338,-2.455408811569214,5.564934253692627,-0.3103101849555969,-0.2480887770652771,-0.6194404363632202,1.39233136177063,XArbitraryZVertical,0.05217549993901426,-0.5928908040156926,0.6275555865637545,0.5019285754351479,-0.6606637239456177,0.6917670965194702,-0.2915164232254028,0,0,0,-1,-1,62298.38479475,unknown,2,2025-04-18T10:51:47.264+03:00,2025-04-17T15:44:39.500+03:00,7169,1.081054,0,0,5915.383,4,10,2025-04-18T10:45:51.293+03:00,766655507.3597906,0,108.1,100.5582,1,0.65,2025-04-18T10:51:44.544+03:00,90,1.5,2025-04-18T08:51:18.885+03:00,0.03057091307199995,1
2025-04-18T10:51:49.290+03:00,1744962707.979002,40.95360044731795,29.14099783666757,93.78481,-1,-1,-1,-1,30,24.95784727372706,-9999,62300.40622391667,-0.2504425048828125,1.041168212890625,-3.334213256835938,62300.39614791667,1.23106078607745,-1.135521781433319,-0.7746143612830449,-0.2940915822982788,1.654514074325562,-2.161118268966675,-0.3338082432746887,-0.860222339630127,1.484888792037964,XArbitraryZVertical,0.02749696246792801,-0.5903946666495097,0.6165735304138442,0.5201107763806382,-0.6480490565299988,0.6994405388832092,-0.3013561069965363,0,0,0,-1,-1,62298.38479475,unknown,2,2025-04-18T10:51:47.264+03:00,2025-04-17T15:44:39.500+03:00,7169,1.081054,0,0,5915.383,4,10,2025-04-18T10:45:51.293+03:00,766655507.3597906,0,108.1,100.5582,1,0.65,2025-04-18T10:51:44.544+03:00,90,1.5,2025-04-18T08:51:18.885+03:00,0.03057091307199995,1
2025-04-18T10:51:49.300+03:00,1744962707.979002,40.95360044731795,29.14099783666757,93.78481,-1,-1,-1,-1,30,24.95784727372706,-9999,62300.41629991667,2.125946044921875,3.706863403320312,-5.673416137695312,62300.40622391667,1.241232120906775,-1.138050059125766,-0.7393530635944089,3.351633548736572,-2.75550365447998,-1.382956385612488,-0.116028904914856,-0.5699434280395508,0.3200182914733887,XArbitraryZVertical,0.04455070626246947,-0.5857300227915727,0.6151821652234584,0.5258199351082206,-0.6707906723022461,0.6738100051879883,-0.3098711371421814,0,0,0,-1,-1,62298.38479475,unknown,2,2025-04-18T10:51:47.264+03:00,2025-04-17T15:44:39.500+03:00,7169,1.081054,0,0,5915.383,4,10,2025-04-18T10:45:51.293+03:00,766655507.3597906,0,108.1,100.5582,1,0.65,2025-04-18T10:51:44.544+03:00,90,1.5,2025-04-18T08:51:18.885+03:00,0.03057091307199995,1
2025-04-18T10:51:49.310+03:00,1744962707.979002,40.95360044731795,29.14099783666757,93.78481,-1,-1,-1,-1,30,24.95784727372706,-9999,62300.42637591667,1.48870849609375,1.539794921875,-2.513153076171875,62300.41629991667,1.286361399205123,-1.146465767516567,-0.7156874609131904,5.579894065856934,-3.586020708084106,-0.8276271820068359,1.095645070075989,1.372000932693481,-5.116490364074707,XArbitraryZVertical,0.0691961752955257,-0.5829791260239385,0.6239630123492471,0.515768856401541,-0.6877166628837585,0.6561363339424133,-0.3106944561004639,0,0,0,-1,-1,62298.38479475,unknown,2,2025-04-18T10:51:47.264+03:00,2025-04-17T15:44:39.500+03:00,7169,1.081054,0,0,5915.383,4,10,2025-04-18T10:45:51.293+03:00,766655507.3597906,0,108.1,100.5582,1,0.65,2025-04-18T10:51:44.544+03:00,90,1.5,2025-04-18T08:51:18.885+03:00,0.03057091307199995,1
2025-04-18T10:51:49.320+03:00,1744962707.979002,40.95360044731795,29.14099783666757,93.78481,-1,-1,-1,-1,30,24.95784727372706,-9999,62300.43645091667,-1.585556030273438,-1.767898559570312,-2.667617797851562,62300.42637591667,1.32613281985237,-1.144687758243876,-0.6954853502496254,1.177863121032715,-0.9787715077400208,-0.3069227635860443,3.454982042312622,3.168583393096924,-3.888356924057007,XArbitraryZVertical,0.08765431403643437,-0.5776252588956028,0.6319268790201393,0.509248837489273,-0.6990922093391418,0.6407581567764282,-0.3173315525054932,0,0,0,-1,-1,62298.38479475,unknown,2,2025-04-18T10:51:47.264+03:00,2025-04-17T15:44:39.500+03:00,7169,1.081054,0,0,5915.383,4,10,2025-04-18T10:45:51.293+03:00,766655507.3597906,0,108.1,100.5582,1,0.65,2025-04-18T10:51:44.544+03:00,90,1.5,2025-04-18T08:51:18.885+03:00,0.03057091307199995,1
2025-04-18T10:51:49.330+03:00,1744962707.979002,40.95360044731795,29.14099783666757,93.78481,-1,-1,-1,-1,30,24.95784727372706,-9999,62300.44652691667,-0.272705078125,-1.502822875976562,-1.030990600585938,62300.43645091667,1.320983637614091,-1.155068495751064,-0.6966260758592894,-1.867194056510925,-0.9502319693565369,0.1556137651205063,0.5917246341705322,-0.9489759802818298,-2.218054533004761,XArbitraryZVertical,0.08901892106428627,-0.5806845718052789,0.6302891273222895,0.5075597244367763,-0.701679527759552,0.6416335105895996,-0.3097621202468872,0,0,0,-1,-1,62298.38479475,unknown,2,2025-04-18T10:51:47.264+03:00,2025-04-17T15:44:39.500+03:00,7169,1.081054,0,0,5915.383,4,10,2025-04-18T10:45:51.293+03:00,766655507.3597906,0,108.1,100.5582,1,0.65,2025-04-18T10:51:44.544+03:00,90,1.5,2025-04-18T08:51:18.885+03:00,0.03057091307199995,1
2025-04-18T10:51:49.340+03:00,1744962707.979002,40.95360044731795,29.14099783666757,93.78481,-1,-1,-1,-1,30,24.95784727372706,-9999,62300.45660291667,-0.54876708984375,-0.94781494140625,0.5743255615234375,62300.44652691667,1.286670017609258,-1.189973388686847,-0.7101154061062949,-3.711321115493774,-1.283330321311951,0.3117730021476746,-0.6233997344970703,-2.381871223449707,-1.972703576087952,XArbitraryZVertical,0.08490082882153804,-0.5931863902117601,0.6216999167721438,0.5043918520407058,-0.7039624452590942,0.651921272277832,-0.281843513250351,0,0,0,-1,-1,62298.38479475,unknown,2,2025-04-18T10:51:47.264+03:00,2025-04-17T15:44:39.500+03:00,7169,1.081054,0,0,5915.383,4,10,2025-04-18T10:45:51.293+03:00,766655507.3597906,0,108.1,100.5582,1,0.65,2025-04-18T10:51:44.544+03:00,90,1.5,2025-04-18T08:51:18.885+03:00,0.03057091307199995,1
2025-04-18T10:51:49.350+03:00,1744962707.979002,40.95360044731795,29.14099783666757,93.78481,-1,-1,-1,-1,30,24.95784727372706,-9999,62300.46667891667,-1.767410278320312,0.4401092529296875,0.8125152587890625,62300.45660291667,1.244100183981403,-1.225982677013562,-0.7277074412610149,-3.210906028747559,-0.3124118745326996,0.6918298602104187,0.6860715746879578,-2.088041543960571,-0.03714969754219055,XArbitraryZVertical,0.07673150334669211,-0.6065573069763226,0.6117991206955256,0.5018989777482931,-0.702749490737915,0.6651595234870911,-0.2524010241031647,0,0,0,-1,-1,62298.38479475,unknown,2,2025-04-18T10:51:47.264+03:00,2025-04-17T15:44:39.500+03:00,7169,1.081054,0,0,5915.383,4,10,2025-04-18T10:45:51.293+03:00,766655507.3597906,0,108.1,100.5582,1,0.65,2025-04-18T10:51:44.544+03:00,90,1.5,2025-04-18T08:51:18.885+03:00,0.03057091307199995,1
2025-04-18T10:51:49.361+03:00,1744962707.979002,40.95360044731795,29.14099783666757,93.78481,-1,-1,-1,-1,30,24.95784727372706,-9999,62300.47675491667,-1.399734497070312,1.479110717773438,0.3294677734375,62300.46667891667,1.217764641168033,-1.244880918709215,-0.7418027812784675,-1.338191032409668,0.03117263875901699,0.573891818523407,-0.4277793169021606,-1.11479663848877,1.043393015861511,XArbitraryZVertical,0.06922545875566878,-0.6141519562494422,0.6064302182254198,0.5002675206045067,-0.6984413862228394,0.6756181120872498,-0.2360504269599915,0,0,0,-1,-1,62298.38479475,unknown,2,2025-04-18T10:51:47.264+03:00,2025-04-17T15:44:39.500+03:00,7169,1.081054,0,0,5915.383,4,10,2025-04-18T10:45:51.293+03:00,766655507.3597906,0,108.1,100.5582,1,0.65,2025-04-18T10:51:44.544+03:00,90,1.5,2025-04-18T08:51:18.885+03:00,0.03057091307199995,1
2025-04-18T10:51:49.371+03:00,1744962707.979002,40.95360044731795,29.14099783666757,93.78481,-1,-1,-1,-1,30,24.95784727372706,-9999,62300.48682991667,-0.854827880859375,2.181854248046875,-0.1425933837890625,62300.47675491667,1.212546495379844,-1.246155366944647,-0.7461790966086634,0.3272803425788879,0.4275811612606049,0.05062336847186089,-1.093877553939819,0.2005564570426941,0.905464231967926,XArbitraryZVertical,0.06638356430464497,-0.6152120246714147,0.6056892053435435,0.5002479661311645,-0.6959327459335327,0.6788380742073059,-0.2342147678136826,0,0,0,-1,-1,62298.38479475,unknown,2,2025-04-18T10:51:47.264+03:00,2025-04-17T15:44:39.500+03:00,7169,1.081054,0,0,5915.383,4,10,2025-04-18T10:45:51.293+03:00,766655507.3597906,0,108.1,100.5582,1,0.65,2025-04-18T10:51:44.544+03:00,90,1.5,2025-04-18T08:51:18.885+03:00,0.03057091307199995,1
2025-04-18T10:51:49.381+03:00,1744962707.979002,40.95360044731795,29.14099783666757,93.78481,-1,-1,-1,-1,30,24.95784727372706,-9999,62300.49690591667,-0.8393096923828125,2.162368774414062,-0.366363525390625,62300.48682991667,1.224613722533054,-1.231781827941173,-0.7427620144348822,1.438935160636902,0.7866381406784058,-0.07324317842721939,-0.4258816838264465,1.110463857650757,0.3666368722915649,XArbitraryZVertical,0.06698735976599181,-0.6107626974054825,0.6087236465185747,0.5019334617905543,-0.6946780681610107,0.6763250231742859,-0.2449632436037064,0,0,0,-1,-1,62298.38479475,unknown,2,2025-04-18T10:51:47.264+03:00,2025-04-17T15:44:39.500+03:00,7169,1.081054,0,0,5915.383,4,10,2025-04-18T10:45:51.293+03:00,766655507.3597906,0,108.1,100.5582,1,0.65,2025-04-18T10:51:44.544+03:00,90,1.5,2025-04-18T08:51:18.885+03:00,0.03057091307199995,1
2025-04-18T10:51:49.391+03:00,1744962707.979002,40.95360044731795,29.14099783666757,93.78481,-1,-1,-1,-1,30,24.95784727372706,-9999,62300.50698191667,-0.726043701171875,1.305755615234375,-0.4392852783203125,62300.49690591667,1.243712513184431,-1.210559988416474,-0.7363123927438384,1.536511659622192,0.8145066499710083,-0.1842042505741119,-0.1278826594352722,1.620935559272766,0.01307365298271179,XArbitraryZVertical,0.06869903962761759,-0.6038954239517128,0.613394791294977,0.5043190144873397,-0.6933911442756653,0.6715601682662964,-0.261181503534317,0,0,0,-1,-1,62298.38479475,unknown,2,2025-04-18T10:51:47.264+03:00,2025-04-17T15:44:39.500+03:00,7169,1.081054,0,0,5915.383,4,10,2025-04-18T10:45:51.293+03:00,766655507.3597906,0,108.1,100.5582,1,0.65,2025-04-18T10:51:44.544+03:00,90,1.5,2025-04-18T08:51:18.885+03:00,0.03057091307199995,1
2025-04-18T10:51:49.401+03:00,1744962707.979002,40.95360044731795,29.14099783666757,93.78481,-1,-1,-1,-1,30,24.95784727372706,-9999,62300.51705791667,-0.5529022216796875,0.5434417724609375,-0.350555419921875,62300.50698191667,1.260052655455189,-1.192638220308038,-0.7289372989031461,1.217138290405273,0.5762341618537903,-0.2831348180770874,-0.134285569190979,1.23283314704895,-0.1362341642379761,XArbitraryZVertical,0.07083314758052454,-0.5977367484738966,0.6172111288670443,0.5066991097724428,-0.6931833624839783,0.6660773754119873,-0.2753868997097015,0,0,0,-1,-1,62298.38479475,unknown,2,2025-04-18T10:51:47.264+03:00,2025-04-17T15:44:39.500+03:00,7169,1.081054,0,0,5915.383,4,10,2025-04-18T10:45:51.293+03:00,766655507.3597906,0,108.1,100.5582,1,0.65,2025-04-18T10:51:44.544+03:00,90,1.5,2025-04-18T08:51:18.885+03:00,0.03057091307199995,1
2025-04-18T10:51:49.411+03:00,1744962707.979002,40.95360044731795,29.14099783666757,93.78481,-1,-1,-1,-1,30,24.95784727372706,-9999,62300.52713391667,-0.6132659912109375,0.2247467041015625,-0.1949615478515625,62300.51705791667,1.27127929023005,-1.180164732509588,-0.7229599127911858,0.7744500637054443,0.4350517988204956,-0.1742345541715622,0.04971736669540405,0.303297758102417,-0.1374662518501282,XArbitraryZVertical,0.07253744541661052,-0.5932765171535996,0.619768730608071,0.5085746250897691,-0.6933636665344238,0.6616070866584778,-0.2855225801467896,0,0,0,-1,-1,62298.38479475,unknown,2,2025-04-18T10:51:47.264+03:00,2025-04-17T15:44:39.500+03:00,7169,1.081054,0,0,5915.383,4,10,2025-04-18T10:45:51.293+03:00,766655507.3597906,0,108.1,100.5582,1,0.65,2025-04-18T10:51:44.544+03:00,90,1.5,2025-04-18T08:51:18.885+03:00,0.03057091307199995,1
2025-04-18T10:51:49.421+03:00,1744962707.979002,40.95360044731795,29.14099783666757,93.78481,-1,-1,-1,-1,30,24.95784727372706,-9999,62300.53720891667,-0.682891845703125,0.1749267578125,-0.1344146728515625,62300.52713391667,1.27795098260488,-1.171918204146598,-0.7199088713071716,0.3985083997249603,0.3196029663085938,-0.007653286214917898,0.1406878232955933,-0.2762594819068909,0.002309918403625488,XArbitraryZVertical,0.07308522717170753,-0.5904675342614154,0.6213977178499953,0.5097760603093523,-0.692842423915863,0.6593161821365356,-0.2920132875442505,0,0,0,-1,-1,62298.38479475,unknown,2,2025-04-18T10:51:47.264+03:00,2025-04-17T15:44:39.500+03:00,7169,1.081054,0,0,5915.383,4,10,2025-04-18T10:45:51.293+03:00,766655507.3597906,0,108.1,100.5582,1,0.65,2025-04-18T10:51:44.544+03:00,90,1.5,2025-04-18T08:51:18.885+03:00,0.03057091307199995,1
2025-04-18T10:51:49.431+03:00,1744962707.979002,40.95360044731795,29.14099783666757,93.78481,-1,-1,-1,-1,30,24.95784727372706,-9999,62300.54728491667,-0.650054931640625,0.296478271484375,-0.186431884765625,62300.53720891667,1.281596253524551,-1.167084213457947,-0.7192242797017802,0.1693930774927139,0.1575843691825867,0.08702322095632553,0.03879189491271973,-0.479693591594696,0.1385233998298645,XArbitraryZVertical,0.07291098630061724,-0.5889956331045508,0.6224218753167757,0.5102540379719345,-0.6918376088142395,0.658801257610321,-0.2955362498760223,0,0,0,-1,-1,62298.38479475,unknown,2,2025-04-18T10:51:47.264+03:00,2025-04-17T15:44:39.500+03:00,7169,1.081054,0,0,5915.383,4,10,2025-04-18T10:45:51.293+03:00,766655507.3597906,0,108.1,100.5582,1,0.65,2025-04-18T10:51:44.544+03:00,90,1.5,2025-04-18T08:51:18.885+03:00,0.03057091307199995,1
2025-04-18T10:51:49.441+03:00,1744962707.979002,40.95360044731795,29.14099783666757,93.78481,-1,-1,-1,-1,30,24.95784727372706,-9999,62300.55736091667,-0.610321044921875,0.435302734375,-0.312591552734375,62300.54728491667,1.283282001616243,-1.165220616622586,-0.7198604125715974,0.02001289837062359,-0.000277428887784481,0.1178490445017815,0.01319652795791626,-0.4504784345626831,0.1541426181793213,XArbitraryZVertical,0.07259096026056536,-0.5885581696199464,0.6229951176269176,0.5101049017674335,-0.690900444984436,0.6592797040939331,-0.2966596782207489,0,0,0,-1,-1,62298.38479475,unknown,2,2025-04-18T10:51:47.264+03:00,2025-04-17T15:44:39.500+03:00,7169,1.081054,0,0,5915.383,4,10,2025-04-18T10:45:51.293+03:00,766655507.3597906,0,108.1,100.5582,1,0.65,2025-04-18T10:51:44.544+03:00,90,1.5,2025-04-18T08:51:18.885+03:00,0.03057091307199995,1
2025-04-18T10:51:49.451+03:00,1744962707.979002,40.95360044731795,29.14099783666757,93.78481,-1,-1,-1,-1,30,24.95784727372706,-9999,62300.56743691667,-0.6037445068359375,0.54254150390625,-0.4125823974609375,62300.55736091667,1.283356012889947,-1.165621135606911,-0.7211415979773653,-0.1120559871196747,-0.07868468016386032,0.1158176884055138,0.05799442529678345,-0.3079323172569275,0.06646603345870972,XArbitraryZVertical,0.07226216114854665,-0.5888576346390283,0.6231509002860539,0.5096154553500754,-0.6902423501014709,0.66024249792099,-0.2960497438907623,0,0,0,-1,-1,62298.38479475,unknown,2,2025-04-18T10:51:47.264+03:00,2025-04-17T15:44:39.500+03:00,7169,1.081054,0,0,5915.383,4,10,2025-04-18T10:45:51.293+03:00,766655507.3597906,0,108.1,100.5582,1,0.65,2025-04-18T10:51:44.544+03:00,90,1.5,2025-04-18T08:51:18.885+03:00,0.03057091307199995,1
2025-04-18T10:51:49.461+03:00,1744962707.979002,40.95360044731795,29.14099783666757,93.78481,-1,-1,-1,-1,30,24.95784727372706,-9999,62300.57751291667,-0.6031951904296875,0.6138458251953125,-0.4172821044921875,62300.56743691667,1.281656404806957,-1.167638179500661,-0.7227847344614755,-0.2457895576953888,-0.09731535613536835,0.08735648542642593,0.08443146944046021,-0.1833263039588928,-0.06427428126335144,XArbitraryZVertical,0.07178004328850801,-0.5896882302878912,0.6228397882914438,0.5091031557195187,-0.6898391842842102,0.6614757180213928,-0.2942308187484741,0,0,0,-1,-1,62298.38479475,unknown,2,2025-04-18T10:51:47.264+03:00,2025-04-17T15:44:39.500+03:00,7169,1.081054,0,0,5915.383,4,10,2025-04-18T10:45:51.293+03:00,766655507.3597906,0,108.1,100.5582,1,0.65,2025-04-18T10:51:44.544+03:00,90,1.5,2025-04-18T08:51:18.885+03:00,0.03057091307199995,1
2025-04-18T10:51:49.471+03:00,1744962707.979002,40.95360044731795,29.14099783666757,93.78481,-1,-1,-1,-1,30,24.95784727372706,-9999,62300.58758791667,-0.606201171875,0.6411895751953125,-0.3557891845703125,62300.57751291667,1.278499329416234,-1.170710575731981,-0.7245892074571455,-0.3178651332855225,-0.09729518741369247,0.05729854851961136,0.08577293157577515,-0.08758676052093506,-0.1348537802696228,XArbitraryZVertical,0.07113484135964208,-0.5908616776294668,0.6221411221465959,0.5086873336994047,-0.6896395087242126,0.6628279089927673,-0.2916446328163147,0,0,0,-1,-1,62298.38479475,unknown,2,2025-04-18T10:51:47.264+03:00,2025-04-17T15:44:39.500+03:00,7169,1.081054,0,0,5915.383,4,10,2025-04-18T10:45:51.293+03:00,766655507.3597906,0,108.1,100.5582,1,0.65,2025-04-18T10:51:44.544+03:00,90,1.5,2025-04-18T08:51:18.885+03:00,0.03057091307199995,1
2025-04-18T10:51:49.482+03:00,1744962707.979002,40.95360044731795,29.14099783666757,93.78481,-1,-1,-1,-1,30,24.95784727372706,-9999,62300.59766391667,-0.6201019287109375,0.657806396484375,-0.27801513671875,62300.58758791667,1.274702372560838,-1.174092004627572,-0.726334625998876,-0.3291553556919098,-0.07039007544517517,0.04743020609021187,0.08616006374359131,-0.03689068555831909,-0.1098027527332306,XArbitraryZVertical,0.07041504683774552,-0.5921232407748551,0.6212647984569545,0.5083915749567968,-0.6895537376403809,0.6641338467597961,-0.2888635694980621,0,0,0,-1,-1,62298.38479475,unknown,2,2025-04-18T10:51:47.264+03:00,2025-04-17T15:44:39.500+03:00,7169,1.081054,0,0,5915.383,4,10,2025-04-18T10:45:51.293+03:00,766655507.3597906,0,108.1,100.5582,1,0.65,2025-04-18T10:51:44.544+03:00,90,1.5,2025-04-18T08:51:18.885+03:00,0.03057091307199995,1
2025-04-18T10:51:49.492+03:00,1744962707.979002,40.95360044731795,29.14099783666757,93.78481,-1,-1,-1,-1,30,24.95784727372706,-9999,62300.60773991667,-0.6382598876953125,0.6595916748046875,-0.2241668701171875,62300.59766391667,1.271106639173727,-1.176997809354078,-0.7280795433999354,-0.28730708360672,-0.02995409816503525,0.06785298883914948,0.07930302619934082,-0.01782369613647461,-0.04059752821922302,XArbitraryZVertical,0.06960354335867877,-0.5932525284701702,0.6204594195681824,0.5081703064570988,-0.6893190145492554,0.6654373407363892,-0.2864135801792145,0,0,0,-1,-1,62298.38479475,unknown,2,2025-04-18T10:51:47.264+03:00,2025-04-17T15:44:39.500+03:00,7169,1.081054,0,0,5915.383,4,10,2025-04-18T10:45:51.293+03:00,766655507.3597906,0,108.1,100.5582,1,0.65,2025-04-18T10:51:44.544+03:00,90,1.5,2025-04-18T08:51:18.885+03:00,0.03057091307199995,1
2025-04-18T10:51:49.502+03:00,1744962707.979002,40.95360044731795,29.14099783666757,93.78481,-1,-1,-1,-1,30,24.95784727372706,-9999,62300.61781591667,-0.65802001953125,0.642852783203125,-0.209930419921875,62300.60773991667,1.26828329345343,-1.178959660673358,-0.7298317751171093,-0.2365618944168091,0.01202584244310856,0.09254395961761475,0.06149673461914062,-0.004863739013671875,0.03203630447387695,XArbitraryZVertical,0.06872289968468161,-0.5941125218073537,0.6198864651053504,0.5079846285930877,-0.6888008713722229,0.6667442917823792,-0.2846149504184723,0,0,0,-1,-1,62298.38479475,unknown,2,2025-04-18T10:51:47.264+03:00,2025-04-17T15:44:39.500+03:00,7169,1.081054,0,0,5915.383,4,10,2025-04-18T10:45:51.293+03:00,766655507.3597906,0,108.1,100.5582,1,0.65,2025-04-18T10:51:44.544+03:00,90,1.5,2025-04-18T08:51:18.885+03:00,0.03057091307199995,1
2025-04-18T10:51:49.512+03:00,1744962707.979002,40.95360044731795,29.14099783666757,93.78481,-1,-1,-1,-1,30,24.95784727372706,-9999,62300.62789091667,-0.6810455322265625,0.6147003173828125,-0.2242279052734375,62300.61781591667,1.265901204232902,-1.180364777851467,-0.7316607885043598,-0.2308626025915146,0.02507892623543739,0.1038472726941109,0.04323464632034302,-0.01316851377487183,0.06803333759307861,XArbitraryZVertical,0.06777059552599592,-0.5948243872502705,0.6194557378966827,0.5078048014911867,-0.6880711317062378,0.6681063175201416,-0.2831822037696838,0,0,0,-1,-1,62298.38479475,unknown,2,2025-04-18T10:51:47.264+03:00,2025-04-17T15:44:39.500+03:00,7169,1.081054,0,0,5915.383,4,10,2025-04-18T10:45:51.293+03:00,766655507.3597906,0,108.1,100.5582,1,0.65,2025-04-18T10:51:44.544+03:00,90,1.5,2025-04-18T08:51:18.885+03:00,0.03057091307199995,1
2025-04-18T10:51:49.522+03:00,1744962707.979002,40.95360044731795,29.14099783666757,93.78481,-1,-1,-1,-1,30,24.95784727372706,-9999,62300.63796691667,-0.697998046875,0.61712646484375,-0.26373291015625,62300.62789091667,1.263512428513397,-1.181748925539656,-0.7335237679341637,-0.2352166026830673,0.01670088991522789,0.1072199046611786,0.02074462175369263,-0.03617525100708008,0.0701022744178772,XArbitraryZVertical,0.06679575529137255,-0.5955332562631095,0.6190295834793212,0.5076227961755702,-0.6873096227645874,0.6694912910461426,-0.2817569375038147,0,0,0,-1,-1,62298.38479475,unknown,2,2025-04-18T10:51:47.264+03:00,2025-04-17T15:44:39.500+03:00,7169,1.081054,0,0,5915.383,4,10,2025-04-18T10:45:51.293+03:00,766655507.3597906,0,108.1,100.5582,1,0.65,2025-04-18T10:51:44.544+03:00,90,1.5,2025-04-18T08:51:18.885+03:00,0.03057091307199995,1
2025-04-18T10:51:49.532+03:00,1744962707.979002,40.95360044731795,29.14099783666757,93.78481,-1,-1,-1,-1,30,24.95784727372706,-9999,62300.64804291667,-0.6942138671875,0.6601715087890625,-0.2982025146484375,62300.63796691667,1.261137286743071,-1.183407485824835,-0.7353557618726083,-0.2223904877901077,-0.03322106227278709,0.09649685025215149,-0.002325594425201416,-0.06207108497619629,0.04333651065826416,XArbitraryZVertical,0.06591996805093449,-0.596303728483658,0.6185954988787952,0.5073620216578051,-0.6866393089294434,0.6708510518074036,-0.2801528573036194,0,0,0,-1,-1,62298.38479475,unknown,2,2025-04-18T10:51:47.264+03:00,2025-04-17T15:44:39.500+03:00,7169,1.081054,0,0,5915.383,4,10,2025-04-18T10:45:51.293+03:00,766655507.3597906,0,108.1,100.5582,1,0.65,2025-04-18T10:51:44.544+03:00,90,1.5,2025-04-18T08:51:18.885+03:00,0.03057091307199995,1
2025-04-18T10:51:49.542+03:00,1744962707.979002,40.95360044731795,29.14099783666757,93.78481,-1,-1,-1,-1,30,24.95784727372706,-9999,62300.65811891667,-0.6982879638671875,0.6832733154296875,-0.31494140625,62300.64804291667,1.258845521242348,-1.185453785866931,-0.7370308905860405,-0.2178894728422165,-0.0672978088259697,0.08450943231582642,-0.01265335083007812,-0.03950875997543335,-0.0009572207927703857,XArbitraryZVertical,0.0652459251425889,-0.5971438696628191,0.6181523902351588,0.5070007956494706,-0.6861686706542969,0.6720923781394958,-0.2783243358135223,0,0,0,-1,-1,62298.38479475,unknown,2,2025-04-18T10:51:47.264+03:00,2025-04-17T15:44:39.500+03:00,7169,1.081054,0,0,5915.383,4,10,2025-04-18T10:45:51.293+03:00,766655507.3597906,0,108.1,100.5582,1,0.65,2025-04-18T10:51:44.544+03:00,90,1.5,2025-04-18T08:51:18.885+03:00,0.03057091307199995,1
2025-04-18T10:51:49.552+03:00,1744962707.979002,40.95360044731795,29.14099783666757,93.78481,-1,-1,-1,-1,30,24.95784727372706,-9999,62300.66819491667,-0.7080230712890625,0.6932220458984375,-0.327606201171875,62300.65811891667,1.25654513852633,-1.187814544403958,-0.7386356868815948,-0.2123407870531082,-0.09129422158002853,0.08490051329135895,-0.006865561008453369,-0.001450598239898682,-0.0294705331325531,XArbitraryZVertical,0.0646910229639385,-0.5980509565849129,0.6176901023393897,0.5065658888649246,-0.6858224272727966,0.6732797622680664,-0.2763002514839172,0,0,0,-1,-1,62298.38479475,unknown,2,2025-04-18T10:51:47.264+03:00,2025-04-17T15:44:39.500+03:00,7169,1.081054,0,0,5915.383,4,10,2025-04-18T10:45:51.293+03:00,766655507.3597906,0,108.1,100.5582,1,0.65,2025-04-18T10:51:44.544+03:00,90,1.5,2025-04-18T08:51:18.885+03:00,0.03057091307199995,1
2025-04-18T10:51:49.562+03:00,1744962707.979002,40.95360044731795,29.14099783666757,93.78481,-1,-1,-1,-1,30,24.95784727372706,-9999,62300.67826991667,-0.708343505859375,0.70001220703125,-0.3291015625,62300.66819491667,1.254417571865003,-1.190213567830657,-0.7402031471265758,-0.194670706987381,-0.0977819487452507,0.08952908962965012,-0.01733231544494629,0.01243650913238525,-0.04620319604873657,XArbitraryZVertical,0.0642118176526679,-0.5989540176135338,0.6172676493602099,0.5060747690284777,-0.6855027675628662,0.674437940120697,-0.274261862039566,0,0,0,-1,-1,62298.38479475,unknown,2,2025-04-18T10:51:47.264+03:00,2025-04-17T15:44:39.500+03:00,7169,1.081054,0,0,5915.383,4,10,2025-04-18T10:45:51.293+03:00,766655507.3597906,0,108.1,100.5582,1,0.65,2025-04-18T10:51:44.544+03:00,90,1.5,2025-04-18T08:51:18.885+03:00,0.03057091307199995,1
